# Version 2.1 - nm, norm@500 to 1, cut digits
# Wavelength(nm)  Flambda(ergs/cm^s/s/nm)
300.00 1.133082e-95
300.10 1.133082e-95
300.20 1.133082e-95
300.30 1.133082e-95
300.40 1.133082e-95
300.50 1.133082e-95
300.60 1.133082e-95
300.70 1.133082e-95
300.80 1.133082e-95
300.90 1.133082e-95
301.00 1.133082e-95
301.10 1.133082e-95
301.20 1.133082e-95
301.30 1.133082e-95
301.40 1.133082e-95
301.50 1.133082e-95
301.60 1.133082e-95
301.70 1.133082e-95
301.80 1.133082e-95
301.90 1.133082e-95
302.00 1.133082e-95
302.10 1.133082e-95
302.20 1.133082e-95
302.30 1.133082e-95
302.40 1.133082e-95
302.50 1.133082e-95
302.60 1.133082e-95
302.70 1.133082e-95
302.80 1.133082e-95
302.90 1.133082e-95
303.00 1.133082e-95
303.10 1.133082e-95
303.20 1.133082e-95
303.30 1.133082e-95
303.40 1.133082e-95
303.50 1.133082e-95
303.60 1.133082e-95
303.70 1.133082e-95
303.80 1.133082e-95
303.90 1.133082e-95
304.00 1.133082e-95
304.10 1.133082e-95
304.20 1.133082e-95
304.30 1.133082e-95
304.40 1.133082e-95
304.50 1.133082e-95
304.60 1.133082e-95
304.70 1.133082e-95
304.80 1.133082e-95
304.90 1.133082e-95
305.00 1.133082e-95
305.10 1.133082e-95
305.20 1.133082e-95
305.30 1.133082e-95
305.40 1.133082e-95
305.50 1.133082e-95
305.60 1.133082e-95
305.70 1.133082e-95
305.80 1.133082e-95
305.90 1.133082e-95
306.00 1.133082e-95
306.10 1.133082e-95
306.20 1.133082e-95
306.30 1.133082e-95
306.40 1.133082e-95
306.50 1.133082e-95
306.60 1.133082e-95
306.70 1.133082e-95
306.80 1.133082e-95
306.90 1.133082e-95
307.00 1.133082e-95
307.10 1.133082e-95
307.20 1.133082e-95
307.30 1.133082e-95
307.40 1.133082e-95
307.50 1.133082e-95
307.60 1.133082e-95
307.70 1.133082e-95
307.80 1.133082e-95
307.90 1.133082e-95
308.00 1.133082e-95
308.10 1.133082e-95
308.20 1.133082e-95
308.30 1.133082e-95
308.40 1.133082e-95
308.50 1.133082e-95
308.60 1.133082e-95
308.70 1.133082e-95
308.80 1.133082e-95
308.90 1.133082e-95
309.00 1.133082e-95
309.10 1.133082e-95
309.20 1.133082e-95
309.30 1.133082e-95
309.40 1.133082e-95
309.50 1.133082e-95
309.60 1.133082e-95
309.70 1.133082e-95
309.80 1.133082e-95
309.90 1.133082e-95
310.00 1.133082e-95
310.10 1.133082e-95
310.20 1.133082e-95
310.30 1.133082e-95
310.40 1.133082e-95
310.50 1.133082e-95
310.60 1.133082e-95
310.70 1.133082e-95
310.80 1.133082e-95
310.90 1.133082e-95
311.00 1.133082e-95
311.10 1.133082e-95
311.20 1.133082e-95
311.30 1.133082e-95
311.40 1.133082e-95
311.50 1.133082e-95
311.60 1.133082e-95
311.70 1.133082e-95
311.80 1.133082e-95
311.90 1.133082e-95
312.00 1.133082e-95
312.10 1.133082e-95
312.20 1.133082e-95
312.30 1.133082e-95
312.40 1.133082e-95
312.50 1.133082e-95
312.60 1.133082e-95
312.70 1.133082e-95
312.80 1.133082e-95
312.90 1.133082e-95
313.00 1.133082e-95
313.10 1.133082e-95
313.20 1.133082e-95
313.30 1.133082e-95
313.40 1.133082e-95
313.50 1.133082e-95
313.60 1.133082e-95
313.70 1.133082e-95
313.80 1.133082e-95
313.90 1.133082e-95
314.00 1.133082e-95
314.10 1.133082e-95
314.20 1.133082e-95
314.30 1.133082e-95
314.40 1.133082e-95
314.50 1.133082e-95
314.60 1.133082e-95
314.70 1.133082e-95
314.80 1.133082e-95
314.90 1.133082e-95
315.00 1.133082e-95
315.10 1.133082e-95
315.20 1.133082e-95
315.30 1.133082e-95
315.40 1.133082e-95
315.50 1.133082e-95
315.60 1.133082e-95
315.70 1.133082e-95
315.80 1.133082e-95
315.90 1.133082e-95
316.00 1.133082e-95
316.10 1.133082e-95
316.20 1.133082e-95
316.30 1.133082e-95
316.40 1.133082e-95
316.50 1.133082e-95
316.60 1.133082e-95
316.70 1.133082e-95
316.80 1.133082e-95
316.90 1.133082e-95
317.00 1.133082e-95
317.10 1.133082e-95
317.20 1.133082e-95
317.30 1.133082e-95
317.40 1.133082e-95
317.50 1.133082e-95
317.60 1.133082e-95
317.70 1.133082e-95
317.80 1.133082e-95
317.90 1.133082e-95
318.00 1.133082e-95
318.10 1.133082e-95
318.20 1.133082e-95
318.30 1.133082e-95
318.40 1.133082e-95
318.50 1.133082e-95
318.60 1.133082e-95
318.70 1.133082e-95
318.80 1.133082e-95
318.90 1.133082e-95
319.00 1.133082e-95
319.10 1.133082e-95
319.20 1.133082e-95
319.30 1.133082e-95
319.40 1.133082e-95
319.50 1.133082e-95
319.60 1.133082e-95
319.70 1.133082e-95
319.80 1.133082e-95
319.90 1.133082e-95
320.00 1.133082e-95
320.10 1.133082e-95
320.20 1.133082e-95
320.30 1.133082e-95
320.40 1.133082e-95
320.50 1.133082e-95
320.60 1.133082e-95
320.70 1.133082e-95
320.80 1.133082e-95
320.90 1.133082e-95
321.00 1.133082e-95
321.10 1.133082e-95
321.20 1.133082e-95
321.30 1.133082e-95
321.40 1.133082e-95
321.50 1.133082e-95
321.60 1.133082e-95
321.70 1.133082e-95
321.80 1.133082e-95
321.90 1.133082e-95
322.00 1.133082e-95
322.10 1.133082e-95
322.20 1.133082e-95
322.30 1.133082e-95
322.40 1.133082e-95
322.50 1.133082e-95
322.60 1.133082e-95
322.70 1.133082e-95
322.80 1.133082e-95
322.90 1.133082e-95
323.00 1.133082e-95
323.10 1.133082e-95
323.20 1.133082e-95
323.30 1.133082e-95
323.40 1.133082e-95
323.50 1.133082e-95
323.60 1.133082e-95
323.70 1.133082e-95
323.80 1.133082e-95
323.90 1.133082e-95
324.00 1.133082e-95
324.10 1.133082e-95
324.20 1.133082e-95
324.30 1.133082e-95
324.40 1.133082e-95
324.50 1.133082e-95
324.60 1.133082e-95
324.70 1.133082e-95
324.80 1.133082e-95
324.90 1.133082e-95
325.00 1.133082e-95
325.10 1.133082e-95
325.20 1.133082e-95
325.30 1.133082e-95
325.40 1.133082e-95
325.50 1.133082e-95
325.60 1.133082e-95
325.70 1.133082e-95
325.80 1.133082e-95
325.90 1.133082e-95
326.00 1.133082e-95
326.10 1.133082e-95
326.20 1.133082e-95
326.30 1.133082e-95
326.40 1.133082e-95
326.50 1.133082e-95
326.60 1.133082e-95
326.70 1.133082e-95
326.80 1.133082e-95
326.90 1.133082e-95
327.00 1.133082e-95
327.10 1.133082e-95
327.20 1.133082e-95
327.30 1.133082e-95
327.40 1.133082e-95
327.50 1.133082e-95
327.60 1.133082e-95
327.70 1.133082e-95
327.80 1.133082e-95
327.90 1.133082e-95
328.00 1.133082e-95
328.10 1.133082e-95
328.20 1.133082e-95
328.30 1.133082e-95
328.40 1.133082e-95
328.50 1.133082e-95
328.60 1.133082e-95
328.70 1.133082e-95
328.80 1.133082e-95
328.90 1.133082e-95
329.00 1.133082e-95
329.10 1.133082e-95
329.20 1.133082e-95
329.30 1.133082e-95
329.40 1.133082e-95
329.50 1.133082e-95
329.60 1.133082e-95
329.70 1.133082e-95
329.80 1.133082e-95
329.90 1.133082e-95
330.00 1.133082e-95
330.10 1.133082e-95
330.20 1.133082e-95
330.30 1.133082e-95
330.40 1.133082e-95
330.50 1.133082e-95
330.60 1.133082e-95
330.70 1.133082e-95
330.80 1.133082e-95
330.90 1.133082e-95
331.00 1.133082e-95
331.10 1.133082e-95
331.20 1.133082e-95
331.30 1.133082e-95
331.40 1.133082e-95
331.50 1.133082e-95
331.60 1.133082e-95
331.70 1.133082e-95
331.80 1.133082e-95
331.90 1.133082e-95
332.00 1.133082e-95
332.10 1.133082e-95
332.20 1.133082e-95
332.30 1.133082e-95
332.40 1.133082e-95
332.50 1.133082e-95
332.60 1.133082e-95
332.70 1.133082e-95
332.80 1.133082e-95
332.90 1.133082e-95
333.00 1.133082e-95
333.10 1.133082e-95
333.20 1.133082e-95
333.30 1.133082e-95
333.40 1.133082e-95
333.50 1.133082e-95
333.60 1.133082e-95
333.70 1.133082e-95
333.80 1.133082e-95
333.90 1.133082e-95
334.00 1.133082e-95
334.10 1.133082e-95
334.20 1.133082e-95
334.30 1.133082e-95
334.40 1.133082e-95
334.50 1.133082e-95
334.60 1.133082e-95
334.70 1.133082e-95
334.80 1.133082e-95
334.90 1.133082e-95
335.00 1.133082e-95
335.10 1.133082e-95
335.20 1.133082e-95
335.30 1.133082e-95
335.40 1.133082e-95
335.50 1.133082e-95
335.60 1.133082e-95
335.70 1.133082e-95
335.80 1.133082e-95
335.90 1.133082e-95
336.00 1.133082e-95
336.10 1.133082e-95
336.20 1.133082e-95
336.30 1.133082e-95
336.40 1.133082e-95
336.50 1.133082e-95
336.60 1.133082e-95
336.70 1.133082e-95
336.80 1.133082e-95
336.90 1.133082e-95
337.00 1.133082e-95
337.10 1.133082e-95
337.20 1.133082e-95
337.30 1.133082e-95
337.40 1.133082e-95
337.50 1.133082e-95
337.60 1.133082e-95
337.70 1.133082e-95
337.80 1.133082e-95
337.90 1.133082e-95
338.00 1.133082e-95
338.10 1.133082e-95
338.20 1.133082e-95
338.30 1.133082e-95
338.40 1.133082e-95
338.50 1.133082e-95
338.60 1.133082e-95
338.70 1.133082e-95
338.80 1.133082e-95
338.90 1.133082e-95
339.00 1.133082e-95
339.10 1.133082e-95
339.20 1.133082e-95
339.30 1.133082e-95
339.40 1.133082e-95
339.50 1.133082e-95
339.60 1.133082e-95
339.70 1.133082e-95
339.80 1.133082e-95
339.90 1.133082e-95
340.00 1.133082e-95
340.10 1.133082e-95
340.20 1.133082e-95
340.30 1.133082e-95
340.40 1.133082e-95
340.50 1.133082e-95
340.60 1.133082e-95
340.70 1.133082e-95
340.80 1.133082e-95
340.90 1.133082e-95
341.00 1.133082e-95
341.10 1.133082e-95
341.20 1.133082e-95
341.30 1.133082e-95
341.40 1.133082e-95
341.50 1.133082e-95
341.60 1.133082e-95
341.70 1.133082e-95
341.80 1.133082e-95
341.90 1.133082e-95
342.00 1.133082e-95
342.10 1.133082e-95
342.20 1.133082e-95
342.30 1.133082e-95
342.40 1.133082e-95
342.50 1.133082e-95
342.60 1.133082e-95
342.70 1.133082e-95
342.80 1.133082e-95
342.90 1.133082e-95
343.00 1.133082e-95
343.10 1.133082e-95
343.20 1.133082e-95
343.30 1.133082e-95
343.40 1.133082e-95
343.50 1.133082e-95
343.60 1.133082e-95
343.70 1.133082e-95
343.80 1.133082e-95
343.90 1.133082e-95
344.00 1.133082e-95
344.10 1.133082e-95
344.20 1.133082e-95
344.30 1.133082e-95
344.40 1.133082e-95
344.50 1.133082e-95
344.60 1.133082e-95
344.70 1.133082e-95
344.80 1.133082e-95
344.90 1.133082e-95
345.00 1.133082e-95
345.10 1.133082e-95
345.20 1.133082e-95
345.30 1.133082e-95
345.40 1.133082e-95
345.50 1.133082e-95
345.60 1.133082e-95
345.70 1.133082e-95
345.80 1.133082e-95
345.90 1.133082e-95
346.00 1.133082e-95
346.10 1.133082e-95
346.20 1.133082e-95
346.30 1.133082e-95
346.40 1.133082e-95
346.50 1.133082e-95
346.60 1.133082e-95
346.70 1.133082e-95
346.80 1.133082e-95
346.90 1.133082e-95
347.00 1.133082e-95
347.10 1.133082e-95
347.20 1.133082e-95
347.30 1.133082e-95
347.40 1.133082e-95
347.50 1.133082e-95
347.60 1.133082e-95
347.70 1.133082e-95
347.80 1.133082e-95
347.90 1.133082e-95
348.00 1.133082e-95
348.10 1.133082e-95
348.20 1.133082e-95
348.30 1.133082e-95
348.40 1.133082e-95
348.50 1.133082e-95
348.60 1.133082e-95
348.70 1.133082e-95
348.80 1.133082e-95
348.90 1.133082e-95
349.00 1.133082e-95
349.10 1.133082e-95
349.20 1.133082e-95
349.30 1.133082e-95
349.40 1.133082e-95
349.50 1.133082e-95
349.60 1.133082e-95
349.70 1.133082e-95
349.80 1.133082e-95
349.90 1.133082e-95
350.00 1.133082e-95
350.10 1.133082e-95
350.20 1.133082e-95
350.30 1.133082e-95
350.40 1.133082e-95
350.50 1.133082e-95
350.60 1.133082e-95
350.70 1.133082e-95
350.80 1.133082e-95
350.90 1.133082e-95
351.00 1.133082e-95
351.10 1.133082e-95
351.20 1.133082e-95
351.30 1.133082e-95
351.40 1.133082e-95
351.50 1.133082e-95
351.60 1.133082e-95
351.70 1.133082e-95
351.80 1.133082e-95
351.90 1.133082e-95
352.00 1.133082e-95
352.10 1.133082e-95
352.20 1.133082e-95
352.30 1.133082e-95
352.40 1.133082e-95
352.50 1.133082e-95
352.60 1.133082e-95
352.70 1.133082e-95
352.80 1.133082e-95
352.90 1.133082e-95
353.00 1.133082e-95
353.10 1.133082e-95
353.20 1.133082e-95
353.30 1.133082e-95
353.40 1.133082e-95
353.50 1.133082e-95
353.60 1.133082e-95
353.70 1.133082e-95
353.80 1.133082e-95
353.90 1.133082e-95
354.00 1.133082e-95
354.10 1.133082e-95
354.20 1.133082e-95
354.30 1.133082e-95
354.40 1.133082e-95
354.50 1.133082e-95
354.60 1.133082e-95
354.70 1.133082e-95
354.80 1.133082e-95
354.90 1.133082e-95
355.00 1.133082e-95
355.10 1.133082e-95
355.20 1.133082e-95
355.30 1.133082e-95
355.40 1.133082e-95
355.50 1.133082e-95
355.60 1.133082e-95
355.70 1.133082e-95
355.80 1.133082e-95
355.90 1.133082e-95
356.00 1.133082e-95
356.10 1.133082e-95
356.20 1.133082e-95
356.30 1.133082e-95
356.40 1.133082e-95
356.50 1.133082e-95
356.60 1.133082e-95
356.70 1.133082e-95
356.80 1.133082e-95
356.90 1.133082e-95
357.00 1.133082e-95
357.10 1.133082e-95
357.20 1.133082e-95
357.30 1.133082e-95
357.40 1.133082e-95
357.50 1.133082e-95
357.60 1.133082e-95
357.70 1.133082e-95
357.80 1.133082e-95
357.90 1.133082e-95
358.00 1.133082e-95
358.10 1.133082e-95
358.20 1.133082e-95
358.30 1.133082e-95
358.40 1.133082e-95
358.50 1.133082e-95
358.60 1.133082e-95
358.70 1.133082e-95
358.80 1.133082e-95
358.90 1.133082e-95
359.00 1.133082e-95
359.10 1.133082e-95
359.20 1.133082e-95
359.30 1.133082e-95
359.40 1.133082e-95
359.50 1.133082e-95
359.60 1.133082e-95
359.70 1.133082e-95
359.80 1.133082e-95
359.90 1.133082e-95
360.00 1.133082e-95
360.10 1.133082e-95
360.20 1.133082e-95
360.30 1.133082e-95
360.40 1.133082e-95
360.50 1.133082e-95
360.60 1.133082e-95
360.70 1.133082e-95
360.80 1.133082e-95
360.90 1.133082e-95
361.00 1.133082e-95
361.10 1.133082e-95
361.20 1.133082e-95
361.30 1.133082e-95
361.40 1.133082e-95
361.50 1.133082e-95
361.60 1.133082e-95
361.70 1.133082e-95
361.80 1.133082e-95
361.90 1.133082e-95
362.00 1.133082e-95
362.10 1.133082e-95
362.20 1.133082e-95
362.30 1.133082e-95
362.40 1.133082e-95
362.50 1.133082e-95
362.60 1.133082e-95
362.70 1.133082e-95
362.80 1.133082e-95
362.90 1.133082e-95
363.00 1.133082e-95
363.10 1.133082e-95
363.20 1.133082e-95
363.30 1.133082e-95
363.40 1.133082e-95
363.50 1.133082e-95
363.60 1.133082e-95
363.70 1.133082e-95
363.80 1.133082e-95
363.90 1.133082e-95
364.00 1.133082e-95
364.10 1.133082e-95
364.20 1.133082e-95
364.30 1.133082e-95
364.40 1.133082e-95
364.50 1.133082e-95
364.60 1.133082e-95
364.70 1.133082e-95
364.80 1.133082e-95
364.90 1.133082e-95
365.00 1.133082e-95
365.10 1.133082e-95
365.20 1.133082e-95
365.30 1.133082e-95
365.40 1.133082e-95
365.50 1.133082e-95
365.60 1.133082e-95
365.70 1.133082e-95
365.80 1.133082e-95
365.90 1.133082e-95
366.00 1.133082e-95
366.10 1.133082e-95
366.20 1.133082e-95
366.30 1.133082e-95
366.40 1.133082e-95
366.50 1.133082e-95
366.60 1.133082e-95
366.70 1.133082e-95
366.80 1.133082e-95
366.90 1.133082e-95
367.00 1.133082e-95
367.10 1.133082e-95
367.20 1.133082e-95
367.30 1.133082e-95
367.40 1.133082e-95
367.50 1.133082e-95
367.60 1.133082e-95
367.70 1.133082e-95
367.80 1.133082e-95
367.90 1.133082e-95
368.00 1.133082e-95
368.10 1.133082e-95
368.20 1.133082e-95
368.30 1.133082e-95
368.40 1.133082e-95
368.50 1.133082e-95
368.60 1.133082e-95
368.70 1.133082e-95
368.80 1.133082e-95
368.90 1.133082e-95
369.00 1.133082e-95
369.10 1.133082e-95
369.20 1.133082e-95
369.30 1.133082e-95
369.40 1.133082e-95
369.50 1.133082e-95
369.60 1.133082e-95
369.70 1.133082e-95
369.80 1.133082e-95
369.90 1.133082e-95
370.00 1.133082e-95
370.10 1.133082e-95
370.20 1.133082e-95
370.30 1.133082e-95
370.40 1.133082e-95
370.50 1.133082e-95
370.60 1.133082e-95
370.70 1.133082e-95
370.80 1.133082e-95
370.90 1.133082e-95
371.00 1.133082e-95
371.10 1.133082e-95
371.20 1.133082e-95
371.30 1.133082e-95
371.40 1.133082e-95
371.50 1.133082e-95
371.60 1.133082e-95
371.70 1.133082e-95
371.80 1.133082e-95
371.90 1.133082e-95
372.00 1.133082e-95
372.10 1.133082e-95
372.20 1.133082e-95
372.30 1.133082e-95
372.40 1.133082e-95
372.50 1.133082e-95
372.60 1.133082e-95
372.70 1.133082e-95
372.80 1.133082e-95
372.90 1.133082e-95
373.00 1.133082e-95
373.10 1.133082e-95
373.20 1.133082e-95
373.30 1.133082e-95
373.40 1.133082e-95
373.50 1.133082e-95
373.60 1.133082e-95
373.70 1.133082e-95
373.80 1.133082e-95
373.90 1.133082e-95
374.00 1.133082e-95
374.10 1.133082e-95
374.20 1.133082e-95
374.30 1.133082e-95
374.40 1.133082e-95
374.50 1.133082e-95
374.60 1.133082e-95
374.70 1.133082e-95
374.80 1.133082e-95
374.90 1.133082e-95
375.00 1.133082e-95
375.10 1.133082e-95
375.20 1.133082e-95
375.30 1.133082e-95
375.40 1.133082e-95
375.50 1.133082e-95
375.60 1.133082e-95
375.70 1.133082e-95
375.80 1.133082e-95
375.90 1.133082e-95
376.00 1.133082e-95
376.10 1.133082e-95
376.20 1.133082e-95
376.30 1.133082e-95
376.40 1.133082e-95
376.50 1.133082e-95
376.60 1.133082e-95
376.70 1.133082e-95
376.80 1.133082e-95
376.90 1.133082e-95
377.00 1.133082e-95
377.10 1.133082e-95
377.20 1.133082e-95
377.30 1.133082e-95
377.40 1.133082e-95
377.50 1.133082e-95
377.60 1.133082e-95
377.70 1.133082e-95
377.80 1.133082e-95
377.90 1.133082e-95
378.00 1.133082e-95
378.10 1.133082e-95
378.20 1.133082e-95
378.30 1.133082e-95
378.40 1.133082e-95
378.50 1.133082e-95
378.60 1.133082e-95
378.70 1.133082e-95
378.80 1.133082e-95
378.90 1.133082e-95
379.00 1.133082e-95
379.10 1.133082e-95
379.20 1.133082e-95
379.30 1.133082e-95
379.40 1.133082e-95
379.50 1.133082e-95
379.60 1.133082e-95
379.70 1.133082e-95
379.80 1.133082e-95
379.90 1.133082e-95
380.00 1.133082e-95
380.10 1.133082e-95
380.20 1.133082e-95
380.30 1.133082e-95
380.40 1.133082e-95
380.50 1.133082e-95
380.60 1.133082e-95
380.70 1.133082e-95
380.80 1.133082e-95
380.90 1.133082e-95
381.00 1.133082e-95
381.10 1.133082e-95
381.20 1.133082e-95
381.30 1.133082e-95
381.40 1.133082e-95
381.50 1.133082e-95
381.60 1.133082e-95
381.70 1.133082e-95
381.80 1.133082e-95
381.90 1.133082e-95
382.00 1.133082e-95
382.10 1.133082e-95
382.20 1.133082e-95
382.30 1.133082e-95
382.40 1.133082e-95
382.50 1.133082e-95
382.60 1.133082e-95
382.70 1.133082e-95
382.80 1.133082e-95
382.90 1.133082e-95
383.00 1.133082e-95
383.10 1.133082e-95
383.20 1.133082e-95
383.30 1.133082e-95
383.40 1.133082e-95
383.50 1.133082e-95
383.60 1.133082e-95
383.70 1.133082e-95
383.80 1.133082e-95
383.90 1.133082e-95
384.00 1.133082e-95
384.10 1.133082e-95
384.20 1.133082e-95
384.30 1.133082e-95
384.40 1.133082e-95
384.50 1.133082e-95
384.60 1.133082e-95
384.70 1.133082e-95
384.80 1.133082e-95
384.90 1.133082e-95
385.00 1.133082e-95
385.10 1.133082e-95
385.20 1.133082e-95
385.30 1.133082e-95
385.40 1.133082e-95
385.50 1.133082e-95
385.60 1.133082e-95
385.70 1.133082e-95
385.80 1.133082e-95
385.90 1.133082e-95
386.00 1.133082e-95
386.10 1.133082e-95
386.20 1.133082e-95
386.30 1.133082e-95
386.40 1.133082e-95
386.50 1.133082e-95
386.60 1.133082e-95
386.70 1.133082e-95
386.80 1.133082e-95
386.90 1.133082e-95
387.00 1.133082e-95
387.10 1.133082e-95
387.20 1.133082e-95
387.30 1.133082e-95
387.40 1.133082e-95
387.50 1.133082e-95
387.60 1.133082e-95
387.70 1.133082e-95
387.80 1.133082e-95
387.90 1.133082e-95
388.00 1.133082e-95
388.10 1.133082e-95
388.20 1.133082e-95
388.30 1.133082e-95
388.40 1.133082e-95
388.50 1.133082e-95
388.60 1.133082e-95
388.70 1.133082e-95
388.80 1.133082e-95
388.90 1.133082e-95
389.00 1.133082e-95
389.10 1.133082e-95
389.20 1.133082e-95
389.30 1.133082e-95
389.40 1.133082e-95
389.50 1.133082e-95
389.60 1.133082e-95
389.70 1.133082e-95
389.80 1.133082e-95
389.90 1.133082e-95
390.00 1.133082e-95
390.10 1.133082e-95
390.20 1.133082e-95
390.30 1.133082e-95
390.40 1.133082e-95
390.50 1.133082e-95
390.60 1.133082e-95
390.70 1.133082e-95
390.80 1.133082e-95
390.90 1.133082e-95
391.00 1.133082e-95
391.10 1.133082e-95
391.20 1.133082e-95
391.30 1.133082e-95
391.40 1.133082e-95
391.50 1.133082e-95
391.60 1.133082e-95
391.70 1.133082e-95
391.80 1.133082e-95
391.90 1.133082e-95
392.00 1.133082e-95
392.10 1.133082e-95
392.20 1.133082e-95
392.30 1.133082e-95
392.40 1.133082e-95
392.50 1.133082e-95
392.60 1.133082e-95
392.70 1.133082e-95
392.80 1.133082e-95
392.90 1.133082e-95
393.00 1.133082e-95
393.10 1.133082e-95
393.20 1.133082e-95
393.30 1.133082e-95
393.40 1.133082e-95
393.50 1.133082e-95
393.60 1.133082e-95
393.70 1.133082e-95
393.80 1.133082e-95
393.90 1.133082e-95
394.00 1.133082e-95
394.10 1.133082e-95
394.20 1.133082e-95
394.30 1.133082e-95
394.40 1.133082e-95
394.50 1.133082e-95
394.60 1.133082e-95
394.70 1.133082e-95
394.80 1.133082e-95
394.90 1.133082e-95
395.00 0.00588408
395.10 0.00588408
395.20 0.00588408
395.30 0.00588408
395.40 0.00588408
395.50 0.00588408
395.60 0.00588408
395.70 0.00588408
395.80 0.00588408
395.90 0.00588408
396.00 0.00588408
396.10 0.00777554
396.20 0.008889986
396.30 0.008889986
396.40 0.008889986
396.50 0.008889986
396.60 0.008889986
396.70 0.008889986
396.80 0.008889986
396.90 0.008889986
397.00 0.008889986
397.10 0.008889986
397.20 0.008889986
397.30 0.008889986
397.40 0.008889986
397.50 0.008889986
397.60 0.009917298
397.70 0.02206738
397.80 0.04957059
397.90 0.09269703
398.00 0.1484422
398.10 0.2114384
398.20 0.2742806
398.30 0.3298555
398.40 0.3745281
398.50 0.4085358
398.60 0.4359699
398.70 0.4640023
398.80 0.5011554
398.90 0.5546978
399.00 0.6286578
399.10 0.7240497
399.20 0.8382858
399.30 0.9655474
399.40 1.097464
399.50 1.22403
399.60 1.336257
399.70 1.427262
399.80 1.492587
399.90 1.529503
400.00 1.53674
400.10 1.53674
400.20 1.53674
400.30 1.53674
400.40 1.53674
400.50 1.53674
400.60 1.53674
400.70 1.53674
400.80 1.53674
400.90 1.53674
401.00 1.53674
401.10 1.53674
401.20 1.54446
401.30 1.562629
401.40 1.59296
401.50 1.635983
401.60 1.688008
401.70 1.742823
401.80 1.793828
401.90 1.835846
402.00 1.866982
402.10 1.888504
402.20 1.904056
402.30 1.919904
402.40 1.942446
402.50 1.973925
402.60 2.014415
402.70 2.064683
402.80 2.124257
402.90 2.190383
403.00 2.259597
403.10 2.32837
403.20 2.394416
403.30 2.45834
403.40 2.523506
403.50 2.593361
403.60 2.669726
403.70 2.751719
403.80 2.836062
403.90 2.918952
404.00 2.997252
404.10 3.069426
404.20 3.135112
404.30 3.195097
404.40 3.251454
404.50 3.307041
404.60 3.363901
404.70 3.420656
404.80 3.474152
404.90 3.523236
405.00 3.562222
405.10 3.603446
405.20 3.643838
405.30 3.687717
405.40 3.736199
405.50 3.786133
405.60 3.832858
405.70 3.872351
405.80 3.901472
405.90 3.918259
406.00 3.92293
406.10 3.921039
406.20 3.919924
406.30 3.919924
406.40 3.919924
406.50 3.919924
406.60 3.919924
406.70 3.919924
406.80 3.919924
406.90 3.919924
407.00 3.919924
407.10 3.919924
407.20 3.919924
407.30 3.919924
407.40 3.919924
407.50 3.919924
407.60 3.918897
407.70 3.906747
407.80 3.879244
407.90 3.836117
408.00 3.780372
408.10 3.717376
408.20 3.654534
408.30 3.598959
408.40 3.554286
408.50 3.520279
408.60 3.492845
408.70 3.464812
408.80 3.427659
408.90 3.377597
409.00 3.311384
409.10 3.225309
409.20 3.119722
409.30 2.99924
409.40 2.871499
409.50 2.746076
409.60 2.633849
409.70 2.542843
409.80 2.477518
409.90 2.440603
410.00 2.433365
410.10 2.433365
410.20 2.433365
410.30 2.433365
410.40 2.433365
410.50 2.433365
410.60 2.441519
410.70 2.464047
410.80 2.502631
410.90 2.555441
411.00 2.618158
411.10 2.684858
411.20 2.741172
411.30 2.778258
411.40 2.790269
411.50 2.776587
411.60 2.744707
411.70 2.706483
411.80 2.672333
411.90 2.648884
412.00 2.638661
412.10 2.638555
412.20 2.641735
412.30 2.639586
412.40 2.624119
412.50 2.592639
412.60 2.552149
412.70 2.501882
412.80 2.442308
412.90 2.376182
413.00 2.306968
413.10 2.238195
413.20 2.172149
413.30 2.108225
413.40 2.043059
413.50 1.973204
413.60 1.896839
413.70 1.814846
413.80 1.730502
413.90 1.647613
414.00 1.569312
414.10 1.497139
414.20 1.431452
414.30 1.371468
414.40 1.315111
414.50 1.259524
414.60 1.202664
414.70 1.145909
414.80 1.092413
414.90 1.043329
415.00 0.9984586
415.10 0.9572348
415.20 0.9168429
415.30 0.8729633
415.40 0.8244818
415.50 0.7745477
415.60 0.7278227
415.70 0.6883293
415.80 0.6592091
415.90 0.6480548
416.00 0.6592517
416.10 0.6867089
416.20 0.7258342
416.30 0.7760948
416.40 0.8360112
416.50 0.9025628
416.60 0.9708177
416.70 1.034928
416.80 1.089814
416.90 1.132433
417.00 1.162032
417.10 1.179255
417.20 1.185035
417.30 1.185035
417.40 1.185035
417.50 1.185035
417.60 1.185035
417.70 1.185035
417.80 1.185035
417.90 1.185035
418.00 1.185035
418.10 1.185035
418.20 1.185035
418.30 1.185035
418.40 1.185035
418.50 1.185035
418.60 1.185035
418.70 1.185035
418.80 1.185035
418.90 1.181555
419.00 1.173808
419.10 1.164491
419.20 1.155841
419.30 1.149062
419.40 1.144886
419.50 1.143744
419.60 1.143744
419.70 1.143744
419.80 1.143744
419.90 1.143744
420.00 1.143744
420.10 1.143744
420.20 1.143744
420.30 1.143744
420.40 1.143744
420.50 1.143744
420.60 1.13559
420.70 1.113063
420.80 1.074478
420.90 1.021669
421.00 0.9589519
421.10 0.8922515
421.20 0.8282175
421.30 0.7729632
421.40 0.7306207
421.50 0.7053228
421.60 0.6957716
421.70 0.6952706
421.80 0.6983269
421.90 0.7036121
422.00 0.7113085
422.10 0.7224959
422.20 0.7389364
422.30 0.7609705
422.40 0.7867837
422.50 0.813359
422.60 0.8304263
422.70 0.8348967
422.80 0.8348967
422.90 0.8348967
423.00 0.8348967
423.10 0.8348967
423.20 0.8348967
423.30 0.8348967
423.40 0.8348967
423.50 0.8348967
423.60 0.8348967
423.70 0.8348967
423.80 0.8348967
423.90 0.8348967
424.00 0.8348967
424.10 0.8348967
424.20 0.8348967
424.30 0.8348967
424.40 0.8348967
424.50 0.8348967
424.60 0.8438947
424.70 0.8688308
424.80 0.9104705
424.90 0.9675276
425.00 1.037404
425.10 1.115575
425.20 1.195884
425.30 1.272333
425.40 1.339715
425.50 1.394023
425.60 1.434871
425.70 1.465635
425.80 1.491055
425.90 1.510731
426.00 1.523455
426.10 1.5282
426.20 1.524298
426.30 1.511328
426.40 1.488922
426.50 1.458291
426.60 1.423084
426.70 1.38831
426.80 1.358798
426.90 1.337829
427.00 1.32526
427.10 1.317627
427.20 1.311847
427.30 1.311847
427.40 1.311847
427.50 1.311847
427.60 1.311847
427.70 1.311847
427.80 1.311847
427.90 1.311847
428.00 1.311847
428.10 1.311847
428.20 1.311847
428.30 1.311847
428.40 1.311847
428.50 1.311847
428.60 1.311847
428.70 1.311847
428.80 1.311847
428.90 1.311847
429.00 1.311847
429.10 1.311847
429.20 1.311847
429.30 1.318275
429.40 1.333571
429.50 1.356637
429.60 1.388124
429.70 1.428716
429.80 1.477518
429.90 1.533677
430.00 1.597091
430.10 1.666471
430.20 1.738399
430.30 1.807588
430.40 1.867264
430.50 1.910407
430.60 1.933219
430.70 1.938354
430.80 1.938354
430.90 1.94052
431.00 1.954784
431.10 1.984331
431.20 2.028261
431.30 2.079771
431.40 2.127929
431.50 2.158595
431.60 2.162286
431.70 2.146196
431.80 2.126284
431.90 2.10243
432.00 2.073821
432.10 2.041217
432.20 2.006044
432.30 1.970312
432.40 1.937424
432.50 1.910848
432.60 1.893781
432.70 1.889311
432.80 1.889311
432.90 1.889311
433.00 1.889311
433.10 1.889311
433.20 1.889311
433.30 1.889311
433.40 1.889311
433.50 1.889311
433.60 1.889311
433.70 1.889311
433.80 1.889311
433.90 1.889311
434.00 1.889311
434.10 1.889311
434.20 1.889311
434.30 1.889311
434.40 1.889311
434.50 1.889311
434.60 1.880313
434.70 1.855377
434.80 1.813737
434.90 1.75668
435.00 1.686803
435.10 1.608632
435.20 1.528324
435.30 1.451875
435.40 1.384493
435.50 1.330184
435.60 1.289337
435.70 1.258573
435.80 1.233152
435.90 1.207843
436.00 1.179251
436.10 1.147049
436.20 1.111826
436.30 1.074535
436.40 1.037024
436.50 1.001104
436.60 0.968056
436.70 0.9453693
436.80 0.9366332
436.90 0.9418194
437.00 0.958781
437.10 0.983736
437.20 1.011252
437.30 1.025786
437.40 1.025786
437.50 1.025786
437.60 1.025786
437.70 1.025786
437.80 1.025786
437.90 1.025786
438.00 1.025786
438.10 1.025786
438.20 1.025786
438.30 1.025786
438.40 1.025786
438.50 1.025786
438.60 1.025786
438.70 1.025786
438.80 1.025786
438.90 1.025786
439.00 1.025786
439.10 1.025786
439.20 1.025786
439.30 1.019357
439.40 1.004061
439.50 0.9809961
439.60 0.9495086
439.70 0.9089163
439.80 0.8601149
439.90 0.8112479
440.00 0.7631951
440.10 0.7148339
440.20 0.6661112
440.30 0.6181461
440.40 0.5742569
440.50 0.5404494
440.60 0.5215465
440.70 0.5170594
440.80 0.5170594
440.90 0.5148932
441.00 0.5006296
441.10 0.4710824
441.20 0.4271522
441.30 0.3756422
441.40 0.3274851
441.50 0.2927753
441.60 0.278491
441.70 0.278491
441.80 0.278491
441.90 0.278491
442.00 0.278491
442.10 0.2802885
442.20 0.2838319
442.30 0.28661
442.40 0.28661
442.50 0.28661
442.60 0.28661
442.70 0.28661
442.80 0.28661
442.90 0.28661
443.00 0.28661
443.10 0.28661
443.20 0.28661
443.30 0.28661
443.40 0.28661
443.50 0.28661
443.60 0.2876273
443.70 0.2966751
443.80 0.3119491
443.90 0.3317331
444.00 0.3563145
444.10 0.386473
444.20 0.4227949
444.30 0.4670449
444.40 0.5200343
444.50 0.5798936
444.60 0.643355
444.70 0.705499
444.80 0.7593132
444.90 0.7988253
445.00 0.8217108
445.10 0.828647
445.20 0.828647
445.30 0.828647
445.40 0.828647
445.50 0.828647
445.60 0.828647
445.70 0.828647
445.80 0.828647
445.90 0.828647
446.00 0.828647
446.10 0.828647
446.20 0.828647
446.30 0.828647
446.40 0.828647
446.50 0.828647
446.60 0.828647
446.70 0.8219976
446.80 0.8053593
446.90 0.7785235
447.00 0.7445315
447.10 0.7099871
447.20 0.6824707
447.30 0.6708759
447.40 0.6919533
447.50 0.7310109
447.60 0.7851582
447.70 0.8492715
447.80 0.9169868
447.90 0.9819303
448.00 1.038471
448.10 1.082877
448.20 1.114069
448.30 1.133128
448.40 1.142984
448.50 1.147094
448.60 1.147834
448.70 1.147834
448.80 1.147834
448.90 1.147834
449.00 1.14854
449.10 1.152593
449.20 1.15977
449.30 1.168423
449.40 1.176459
449.50 1.181732
449.60 1.182106
449.70 1.182106
449.80 1.182106
449.90 1.174814
450.00 1.159453
450.10 1.138435
450.20 1.115229
450.30 1.101068
450.40 1.098986
450.50 1.108034
450.60 1.124709
450.70 1.144619
450.80 1.161471
450.90 1.169024
451.00 1.169024
451.10 1.169024
451.20 1.169024
451.30 1.169024
451.40 1.169024
451.50 1.169024
451.60 1.169024
451.70 1.169024
451.80 1.169024
451.90 1.169024
452.00 1.169024
452.10 1.167226
452.20 1.163683
452.30 1.160905
452.40 1.160905
452.50 1.160905
452.60 1.160905
452.70 1.160905
452.80 1.160905
452.90 1.160905
453.00 1.160905
453.10 1.160905
453.20 1.160905
453.30 1.160905
453.40 1.166164
453.50 1.178454
453.60 1.19639
453.70 1.211794
453.80 1.225728
453.90 1.239286
454.00 1.249514
454.10 1.251757
454.20 1.24221
454.30 1.217316
454.40 1.176277
454.50 1.122894
454.60 1.064878
454.70 1.011747
454.80 0.9733996
454.90 0.956444
455.00 0.9609857
455.10 0.9825169
455.20 1.007804
455.30 1.027171
455.40 1.040812
455.50 1.050269
455.60 1.056705
455.70 1.060282
455.80 1.060783
455.90 1.060783
456.00 1.060783
456.10 1.060783
456.20 1.060783
456.30 1.060783
456.40 1.060783
456.50 1.060783
456.60 1.060783
456.70 1.060783
456.80 1.060783
456.90 1.060783
457.00 1.060783
457.10 1.060783
457.20 1.074636
457.30 1.098278
457.40 1.112477
457.50 1.112203
457.60 1.094928
457.70 1.061228
457.80 1.014771
457.90 0.9604759
458.00 0.9039354
458.10 0.8595295
458.20 0.8283371
458.30 0.8092781
458.40 0.7994218
458.50 0.7953125
458.60 0.8015935
458.70 0.8208683
458.80 0.8518936
458.90 0.892549
459.00 0.936914
459.10 0.9767184
459.20 1.007238
459.30 1.025583
459.40 1.030967
459.50 1.025693
459.60 1.025319
459.70 1.025319
459.80 1.025319
459.90 1.025319
460.00 1.025319
460.10 1.025319
460.20 1.025319
460.30 1.018256
460.40 1.004551
460.50 0.9861681
460.60 0.9655829
460.70 0.9450251
460.80 0.9281735
460.90 0.9206209
461.00 0.9206209
461.10 0.9206209
461.20 0.9206209
461.30 0.9206209
461.40 0.9206209
461.50 0.9206209
461.60 0.9206209
461.70 0.922145
461.80 0.9265505
461.90 0.9303637
462.00 0.9306638
462.10 0.9306638
462.20 0.9306638
462.30 0.9306638
462.40 0.9306638
462.50 0.9306638
462.60 0.9306638
462.70 0.9306638
462.80 0.9306638
462.90 0.9306638
463.00 0.9306638
463.10 0.9306638
463.20 0.9306638
463.30 0.9306638
463.40 0.9269781
463.50 0.9226754
463.60 0.916199
463.70 0.9064533
463.80 0.8916796
463.90 0.8697642
464.00 0.8403196
464.10 0.8079176
464.20 0.781143
464.30 0.7617873
464.40 0.7498367
464.50 0.7433603
464.60 0.7379149
464.70 0.7289017
464.80 0.726969
464.90 0.7312233
465.00 0.7400425
465.10 0.752045
465.20 0.7660219
465.30 0.7808388
465.40 0.7947164
465.50 0.8064993
465.60 0.817356
465.70 0.8294989
465.80 0.8447977
465.90 0.8623247
466.00 0.882407
466.10 0.9044823
466.20 0.9274619
466.30 0.9500733
466.40 0.9702286
466.50 0.9853451
466.60 0.9930948
466.70 0.9930948
466.80 0.9930948
466.90 0.9930948
467.00 0.9930948
467.10 0.9930948
467.20 0.9792418
467.30 0.9526612
467.40 0.9173841
467.50 0.878601
467.60 0.8417285
467.70 0.8113152
467.80 0.7942263
467.90 0.7915577
468.00 0.8037484
468.10 0.8207261
468.20 0.8426473
468.30 0.8679004
468.40 0.8931821
468.50 0.915031
468.60 0.9230393
468.70 0.908794
468.80 0.8777687
468.90 0.8371133
469.00 0.7920425
469.10 0.7481846
469.20 0.7104883
469.30 0.68349
469.40 0.6700707
469.50 0.6700707
469.60 0.6710537
469.70 0.6854336
469.80 0.711949
469.90 0.7460683
470.00 0.7816559
470.10 0.8123364
470.20 0.8325744
470.30 0.8393628
470.40 0.8393628
470.50 0.8393628
470.60 0.8393628
470.70 0.8393628
470.80 0.8393628
470.90 0.8393628
471.00 0.8504093
471.10 0.8715058
471.20 0.8990105
471.30 0.9289964
471.40 0.9581894
471.50 0.9840055
471.60 1.004067
471.70 1.014462
471.80 1.011476
471.90 1.007663
472.00 1.007363
472.10 1.007363
472.20 1.007363
472.30 1.007363
472.40 1.007363
472.50 1.007363
472.60 1.007363
472.70 1.007363
472.80 1.007363
472.90 1.007363
473.00 1.007363
473.10 1.007363
473.20 1.007363
473.30 1.007363
473.40 1.005789
473.50 0.9978019
473.60 0.9853251
473.70 0.9706189
473.80 0.9561849
473.90 0.9447581
474.00 0.9393933
474.10 0.9393933
474.20 0.9393933
474.30 0.9393933
474.40 0.9393933
474.50 0.9393933
474.60 0.9393933
474.70 0.9393933
474.80 0.9258594
474.90 0.8990485
475.00 0.8628021
475.10 0.8223322
475.20 0.7830684
475.30 0.7488846
475.40 0.7213659
475.50 0.7001262
475.60 0.6828333
475.70 0.6671129
475.80 0.6513135
475.90 0.6337865
476.00 0.6137042
476.10 0.595905
476.20 0.5852114
476.30 0.5828204
476.40 0.5918786
476.50 0.6159569
476.60 0.6572659
476.70 0.7141772
476.80 0.7743015
476.90 0.8304363
477.00 0.8743302
477.10 0.9000013
477.20 0.9055518
477.30 0.9055518
477.40 0.9055518
477.50 0.9055518
477.60 0.9055518
477.70 0.9055518
477.80 0.9013827
477.90 0.8934026
478.00 0.8812119
478.10 0.8642342
478.20 0.8465866
478.30 0.8384085
478.40 0.8423064
478.50 0.8582875
478.60 0.8844151
478.70 0.9174276
478.80 0.9464974
478.90 0.9634924
479.00 0.9686317
479.10 0.9686317
479.20 0.9686317
479.30 0.9686317
479.40 0.9686317
479.50 0.9686317
479.60 0.9676487
479.70 0.9532688
479.80 0.9267534
479.90 0.8966509
480.00 0.8692722
480.10 0.8502524
480.20 0.8439015
480.30 0.8510782
480.40 0.8628843
480.50 0.8710052
480.60 0.8743967
480.70 0.8743967
480.80 0.8743967
480.90 0.8743967
481.00 0.8634364
481.10 0.8500884
481.20 0.8406883
481.30 0.8430731
481.40 0.8647213
481.50 0.9100485
481.60 0.9794275
481.70 1.069661
481.80 1.174722
481.90 1.27623
482.00 1.364613
482.10 1.433876
482.20 1.480654
482.30 1.504987
482.40 1.510956
482.50 1.510956
482.60 1.510956
482.70 1.510956
482.80 1.510956
482.90 1.510956
483.00 1.510956
483.10 1.510956
483.20 1.510956
483.30 1.510956
483.40 1.510956
483.50 1.510956
483.60 1.510956
483.70 1.510956
483.80 1.510956
483.90 1.510956
484.00 1.510956
484.10 1.510956
484.20 1.510956
484.30 1.510956
484.40 1.510956
484.50 1.510956
484.60 1.510956
484.70 1.510956
484.80 1.510956
484.90 1.510956
485.00 1.510956
485.10 1.510956
485.20 1.510956
485.30 1.510956
485.40 1.510956
485.50 1.510956
485.60 1.510956
485.70 1.510956
485.80 1.510956
485.90 1.510956
486.00 1.510956
486.10 1.50668
486.20 1.494394
486.30 1.474173
486.40 1.44496
486.50 1.405765
486.60 1.356706
486.70 1.299795
486.80 1.239671
486.90 1.183536
487.00 1.139642
487.10 1.113971
487.20 1.108421
487.30 1.108421
487.40 1.108421
487.50 1.108421
487.60 1.108421
487.70 1.108421
487.80 1.108421
487.90 1.108421
488.00 1.108421
488.10 1.108421
488.20 1.104147
488.30 1.087072
488.40 1.057892
488.50 1.020062
488.60 0.9789053
488.70 0.9408633
488.80 0.9117935
488.90 0.8981636
489.00 0.8964265
489.10 0.8979658
489.20 0.8979658
489.30 0.8979658
489.40 0.8979658
489.50 0.8979658
489.60 0.8979658
489.70 0.8979658
489.80 0.8984653
489.90 0.902653
490.00 0.9101916
490.10 0.9207041
490.20 0.9338234
490.30 0.9492769
490.40 0.9661045
490.50 0.9824802
490.60 0.995643
490.70 0.9998797
490.80 0.9998797
490.90 0.9998797
491.00 0.9997934
491.10 0.992045
491.20 0.9739403
491.30 0.9415696
491.40 0.8907284
491.50 0.8195851
491.60 0.7301441
491.70 0.6279917
491.80 0.5215116
491.90 0.4200034
492.00 0.3316206
492.10 0.2623572
492.20 0.21558
492.30 0.1912465
492.40 0.1852776
492.50 0.1852776
492.60 0.1925651
492.70 0.20692
492.80 0.2260924
492.90 0.2486402
493.00 0.2735979
493.10 0.2988146
493.20 0.3223773
493.30 0.3433423
493.40 0.3618196
493.50 0.3799791
493.60 0.4011267
493.70 0.4272386
493.80 0.4572351
493.90 0.4887581
494.00 0.519276
494.10 0.5452169
494.20 0.5626341
494.30 0.5684151
494.40 0.5684151
494.50 0.5684151
494.60 0.5684151
494.70 0.5684151
494.80 0.5684151
494.90 0.5684151
495.00 0.5684151
495.10 0.5684151
495.20 0.5684151
495.30 0.5733801
495.40 0.5803487
495.50 0.5848421
495.60 0.5848421
495.70 0.5848421
495.80 0.5848421
495.90 0.5848421
496.00 0.5848421
496.10 0.5848421
496.20 0.5848421
496.30 0.5848421
496.40 0.5848421
496.50 0.5848421
496.60 0.5848421
496.70 0.5848421
496.80 0.5848421
496.90 0.5865694
497.00 0.5943639
497.10 0.6077745
497.20 0.6269537
497.30 0.6519589
497.40 0.6824762
497.50 0.717719
497.60 0.7561455
497.70 0.7958137
497.80 0.8341528
497.90 0.868472
498.00 0.8962213
498.10 0.9152605
498.20 0.9249068
498.30 0.9255154
498.40 0.9255154
498.50 0.9255154
498.60 0.9255154
498.70 0.9255154
498.80 0.9255154
498.90 0.9221502
499.00 0.9187481
499.10 0.9172087
499.20 0.9172087
499.30 0.924064
499.40 0.9419164
499.50 0.9670013
499.60 0.9932318
499.70 1.01412
499.80 1.023952
499.90 1.015747
500.00 1
500.10 0.9778267
500.20 0.9508203
500.30 0.9214017
500.40 0.8927681
500.50 0.8682714
500.60 0.8517172
500.70 0.8474805
500.80 0.8474805
500.90 0.8474805
501.00 0.8474805
501.10 0.8474805
501.20 0.8474805
501.30 0.8474805
501.40 0.8474805
501.50 0.8503801
501.60 0.8647499
501.70 0.8891257
501.80 0.9202423
501.90 0.9538567
502.00 0.9859325
502.10 1.013206
502.20 1.033043
502.30 1.043646
502.40 1.043679
502.50 1.043679
502.60 1.036391
502.70 1.022037
502.80 1.002864
502.90 0.9803163
503.00 0.9553586
503.10 0.9301419
503.20 0.9065792
503.30 0.8856142
503.40 0.8671369
503.50 0.8489775
503.60 0.8278299
503.70 0.801718
503.80 0.7717215
503.90 0.7401984
504.00 0.7096805
504.10 0.6837396
504.20 0.6663224
504.30 0.6605414
504.40 0.6605414
504.50 0.6605414
504.60 0.6605414
504.70 0.6605414
504.80 0.6605414
504.90 0.6605414
505.00 0.6628863
505.10 0.668686
505.20 0.6748094
505.30 0.6732553
505.40 0.6662866
505.50 0.6617933
505.60 0.6617933
505.70 0.6617933
505.80 0.6617933
505.90 0.6617933
506.00 0.6633054
506.10 0.6711025
506.20 0.6851282
506.30 0.703923
506.40 0.7246533
506.50 0.7442871
506.60 0.7609183
506.70 0.774237
506.80 0.784596
506.90 0.7901507
507.00 0.7867913
507.10 0.7764913
507.20 0.7607488
507.30 0.7402464
507.40 0.714085
507.50 0.6802477
507.60 0.6418212
507.70 0.602153
507.80 0.5638139
507.90 0.5294947
508.00 0.5017454
508.10 0.4827062
508.20 0.4730599
508.30 0.4724513
508.40 0.4724513
508.50 0.4724513
508.60 0.4724513
508.70 0.4724513
508.80 0.4724513
508.90 0.4724513
509.00 0.4724513
509.10 0.4828766
509.20 0.5083765
509.30 0.5407334
509.40 0.5717636
509.50 0.5989725
509.60 0.6214986
509.70 0.6395659
509.80 0.6539879
509.90 0.6628771
510.00 0.6628771
510.10 0.6628771
510.20 0.6628771
510.30 0.6628771
510.40 0.6628771
510.50 0.6628771
510.60 0.6628771
510.70 0.6628771
510.80 0.6631443
510.90 0.6691859
511.00 0.6799478
511.10 0.6942404
511.20 0.7106295
511.30 0.7274663
511.40 0.7426761
511.50 0.7513417
511.60 0.7440406
511.70 0.7223582
511.80 0.6912416
511.90 0.6576272
512.00 0.6256979
512.10 0.6030599
512.20 0.5937551
512.30 0.6013062
512.40 0.6275196
512.50 0.6606641
512.60 0.6977796
512.70 0.7354205
512.80 0.7714843
512.90 0.8041849
513.00 0.8307089
513.10 0.8484527
513.20 0.8561564
513.30 0.8561564
513.40 0.8561564
513.50 0.8561564
513.60 0.8561564
513.70 0.8561564
513.80 0.8561564
513.90 0.8561564
514.00 0.8561564
514.10 0.8561564
514.20 0.8561564
514.30 0.8561564
514.40 0.8561564
514.50 0.8566971
514.60 0.8571094
514.70 0.8571094
514.80 0.8571094
514.90 0.8571094
515.00 0.8547646
515.10 0.8489648
515.20 0.8428415
515.30 0.8394306
515.40 0.8406567
515.50 0.8446769
515.60 0.848438
515.70 0.8501152
515.80 0.8502226
515.90 0.8507497
516.00 0.8519782
516.10 0.850616
516.20 0.8474127
516.30 0.84368
516.40 0.8409903
516.50 0.8394859
516.60 0.837275
516.70 0.831031
516.80 0.820672
516.90 0.8133899
517.00 0.8089548
517.10 0.8058442
517.20 0.8024076
517.30 0.7979047
517.40 0.7935488
517.50 0.7921433
517.60 0.7921433
517.70 0.7921433
517.80 0.7921433
517.90 0.7921433
518.00 0.7921433
518.10 0.7921433
518.20 0.7921433
518.30 0.7921433
518.40 0.7921433
518.50 0.7921433
518.60 0.7921433
518.70 0.7921433
518.80 0.7921433
518.90 0.7921433
519.00 0.7921433
519.10 0.7817181
519.20 0.7562181
519.30 0.717006
519.40 0.6681233
519.50 0.6158297
519.60 0.567073
519.70 0.528117
519.80 0.503364
519.90 0.4944748
520.00 0.4944748
520.10 0.4944748
520.20 0.4944748
520.30 0.4944748
520.40 0.4944748
520.50 0.4944748
520.60 0.4944748
520.70 0.4944748
520.80 0.4942077
520.90 0.488166
521.00 0.4774042
521.10 0.468948
521.20 0.4670506
521.30 0.4711993
521.40 0.4804254
521.50 0.4927555
521.60 0.5041807
521.70 0.5103872
521.80 0.5103872
521.90 0.5103872
522.00 0.5102406
522.10 0.5056055
522.20 0.4950728
522.30 0.4769191
522.40 0.4506725
522.50 0.417528
522.60 0.3804125
522.70 0.3427715
522.80 0.307599
522.90 0.2762781
523.00 0.2517279
523.10 0.2378935
523.20 0.2369623
523.30 0.2472531
523.40 0.2615312
523.50 0.2797209
523.60 0.3019835
523.70 0.3280837
523.80 0.356168
523.90 0.3833306
524.00 0.4058659
524.10 0.4200132
524.20 0.4230005
524.30 0.4230005
524.40 0.4230005
524.50 0.4224598
524.60 0.4220475
524.70 0.4220475
524.80 0.4220475
524.90 0.4220475
525.00 0.4220475
525.10 0.4220475
525.20 0.4220475
525.30 0.4220475
525.40 0.4208214
525.50 0.4168011
525.60 0.4175696
525.70 0.4263303
525.80 0.4426952
525.90 0.4631865
526.00 0.4826789
526.10 0.494911
526.20 0.4940293
526.30 0.4789672
526.40 0.4609266
526.50 0.4427972
526.60 0.4283769
526.70 0.4213022
526.80 0.4213022
526.90 0.4213022
527.00 0.4213022
527.10 0.4213022
527.20 0.4213022
527.30 0.4213022
527.40 0.4213022
527.50 0.4213022
527.60 0.4213022
527.70 0.4213022
527.80 0.4213022
527.90 0.4213022
528.00 0.4213022
528.10 0.4213022
528.20 0.4213022
528.30 0.4213022
528.40 0.4213022
528.50 0.4213022
528.60 0.4213022
528.70 0.4213022
528.80 0.4213022
528.90 0.4213022
529.00 0.4213022
529.10 0.4213022
529.20 0.4213022
529.30 0.4213022
529.40 0.4213022
529.50 0.4213022
529.60 0.4213022
529.70 0.4213022
529.80 0.4213022
529.90 0.4213022
530.00 0.4213022
530.10 0.4213022
530.20 0.4213022
530.30 0.4213022
530.40 0.4213022
530.50 0.4213022
530.60 0.4213022
530.70 0.4213022
530.80 0.4213022
530.90 0.4213022
531.00 0.4213022
531.10 0.4154658
531.20 0.4009741
531.30 0.3799885
531.40 0.3555527
531.50 0.3316574
531.60 0.3131634
531.70 0.3042637
531.80 0.3042637
531.90 0.3042637
532.00 0.3042637
532.10 0.3042637
532.20 0.3093974
532.30 0.3206677
532.40 0.3340035
532.50 0.345044
532.60 0.3496206
532.70 0.3496206
532.80 0.3487294
532.90 0.3473497
533.00 0.3453759
533.10 0.3414665
533.20 0.3413408
533.30 0.3456524
533.40 0.351838
533.50 0.3566861
533.60 0.3557325
533.70 0.3456158
533.80 0.3257204
533.90 0.2985578
534.00 0.2760225
534.10 0.2618752
534.20 0.2588879
534.30 0.2588879
534.40 0.2588879
534.50 0.2588879
534.60 0.2588879
534.70 0.2588879
534.80 0.2588879
534.90 0.2588879
535.00 0.2588879
535.10 0.2588879
535.20 0.2588879
535.30 0.2588879
535.40 0.2588879
535.50 0.2588879
535.60 0.2543584
535.70 0.2478863
535.80 0.2376283
535.90 0.2222351
536.00 0.2021579
536.10 0.1834909
536.20 0.1735502
536.30 0.1735502
536.40 0.1735502
536.50 0.1735502
536.60 0.1735502
536.70 0.1735502
536.80 0.1735502
536.90 0.1735502
537.00 0.1735502
537.10 0.1735502
537.20 0.1735502
537.30 0.1735502
537.40 0.1735502
537.50 0.1735502
537.60 0.1735502
537.70 0.1735502
537.80 0.1784626
537.90 0.1916215
538.00 0.2108193
538.10 0.2328708
538.20 0.2535784
538.30 0.2689799
538.40 0.2772005
538.50 0.2784179
538.60 0.2784179
538.70 0.2784179
538.80 0.2784179
538.90 0.2784179
539.00 0.2784179
539.10 0.2784179
539.20 0.2815913
539.30 0.2899673
539.40 0.3010939
539.50 0.312273
539.60 0.321163
539.70 0.3260279
539.80 0.3260279
539.90 0.3260279
540.00 0.3260279
540.10 0.3260279
540.20 0.3260279
540.30 0.3260279
540.40 0.3260279
540.50 0.3260279
540.60 0.3260279
540.70 0.3260279
540.80 0.3260279
540.90 0.3260279
541.00 0.3260279
541.10 0.3260279
541.20 0.3260279
541.30 0.3341057
541.40 0.3527064
541.50 0.3802467
541.60 0.4125334
541.70 0.4442716
541.80 0.4705857
541.90 0.4880472
542.00 0.4950023
542.10 0.4950023
542.20 0.4898685
542.30 0.4785983
542.40 0.4652624
542.50 0.4542219
542.60 0.4496453
542.70 0.4496453
542.80 0.4496453
542.90 0.451991
543.00 0.4624281
543.10 0.4797165
543.20 0.4949348
543.30 0.5040293
543.40 0.5065432
543.50 0.5034316
543.60 0.4963545
543.70 0.4864286
543.80 0.4782397
543.90 0.4782397
544.00 0.4782397
544.10 0.4782397
544.20 0.4782397
544.30 0.4782397
544.40 0.4782397
544.50 0.4782397
544.60 0.4782397
544.70 0.4782397
544.80 0.4782397
544.90 0.4782397
545.00 0.4782397
545.10 0.4782397
545.20 0.4782397
545.30 0.4782397
545.40 0.4782397
545.50 0.4782397
545.60 0.4782397
545.70 0.4742739
545.80 0.4680596
545.90 0.4624344
546.00 0.4602786
546.10 0.4602786
546.20 0.4602786
546.30 0.4602786
546.40 0.4602786
546.50 0.4602786
546.60 0.4602786
546.70 0.4602786
546.80 0.4602786
546.90 0.4602786
547.00 0.4602786
547.10 0.4602786
547.20 0.4602786
547.30 0.4602786
547.40 0.4602786
547.50 0.4604539
547.60 0.4631466
547.70 0.4681909
547.80 0.4698101
547.90 0.4637403
548.00 0.4512126
548.10 0.435057
548.20 0.420115
548.30 0.4109856
548.40 0.4103248
548.50 0.4193101
548.60 0.4341366
548.70 0.4553295
548.80 0.4827697
548.90 0.5140644
549.00 0.5456961
549.10 0.5742203
549.20 0.5938908
549.30 0.601279
549.40 0.5984629
549.50 0.5879436
549.60 0.5790536
549.70 0.5741887
549.80 0.5741887
549.90 0.5741887
550.00 0.3151094
550.10 0.2718886
550.20 0.2172252
550.30 0.1579833
550.40 0.1005392
550.50 0.05116193
550.60 0.02231382
550.70 0.01978074
550.80 0.03610968
550.90 0.05383238
551.00 0.0705076
551.10 0.08524749
551.20 0.09966142
551.30 0.1153418
551.40 0.1342413
551.50 0.1597478
551.60 0.196814
551.70 0.2497962
551.80 0.3183967
551.90 0.3966336
552.00 0.4757127
552.10 0.5470234
552.20 0.6041332
552.30 0.6435436
552.40 0.6643199
552.50 0.6659694
552.60 0.6659694
552.70 0.6659694
552.80 0.6659694
552.90 0.6659694
553.00 0.6659694
553.10 0.6659694
553.20 0.6659694
553.30 0.6659694
553.40 0.6659694
553.50 0.6659694
553.60 0.6659694
553.70 0.6659694
553.80 0.6659694
553.90 0.6659694
554.00 0.6659694
554.10 0.6659694
554.20 0.6721405
554.30 0.6900457
554.40 0.7206216
554.50 0.761327
554.60 0.8011799
554.70 0.835512
554.80 0.8639096
554.90 0.8882547
555.00 0.9123638
555.10 0.9393332
555.20 0.9834134
555.30 1.067431
555.40 1.193494
555.50 1.375731
555.60 1.648894
555.70 2.029613
555.80 2.51363
555.90 3.079227
556.00 3.690775
556.10 4.301917
556.20 4.863535
556.30 5.335249
556.40 5.69388
556.50 5.94134
556.60 6.075165
556.70 6.118659
556.80 6.122789
556.90 6.122789
557.00 6.122789
557.10 6.122789
557.20 6.122789
557.30 6.122789
557.40 6.122789
557.50 6.122789
557.60 6.128521
557.70 6.151043
557.80 6.193836
557.90 6.260308
558.00 6.34927
558.10 6.45687
558.20 6.575198
558.30 6.698433
558.40 6.824523
558.50 6.953608
558.60 7.086079
558.70 7.217554
558.80 7.338814
558.90 7.440625
559.00 7.516105
559.10 7.561888
559.20 7.562878
559.30 7.497454
559.40 7.368457
559.50 7.166617
559.60 6.857062
559.70 6.42336
559.80 5.870744
559.90 5.226909
560.00 4.536282
560.10 3.85383
560.20 3.235102
560.30 2.723977
560.40 2.34457
560.50 2.09546
560.60 1.961635
560.70 1.918142
560.80 1.914012
560.90 1.914012
561.00 1.914012
561.10 1.914012
561.20 1.914012
561.30 1.914012
561.40 1.92003
561.50 1.935179
561.60 1.95461
561.70 1.96692
561.80 1.96604
561.90 1.945047
562.00 1.90299
562.10 1.843119
562.20 1.768908
562.30 1.682328
562.40 1.580477
562.50 1.456695
562.60 1.307125
562.70 1.137011
562.80 0.9710246
562.90 0.827146
563.00 0.7108819
563.10 0.6233894
563.20 0.563905
563.30 0.5361895
563.40 0.5374636
563.50 0.5516928
563.60 0.5652553
563.70 0.567586
563.80 0.567586
563.90 0.567586
564.00 0.567586
564.10 0.5738356
564.20 0.5937423
564.30 0.6254332
564.40 0.6626609
564.50 0.6970828
564.60 0.7222707
564.70 0.7362703
564.80 0.7420298
564.90 0.7465117
565.00 0.75786
565.10 0.7812537
565.20 0.8165599
565.30 0.8583066
565.40 0.8924049
565.50 0.9081427
565.60 0.898838
565.70 0.8640064
565.80 0.8220932
565.90 0.7766141
566.00 0.7297102
566.10 0.6819809
566.20 0.6406135
566.30 0.6219609
566.40 0.6294585
566.50 0.6695907
566.60 0.7457095
566.70 0.8544156
566.80 0.9720678
566.90 1.078496
567.00 1.165106
567.10 1.228918
567.20 1.272652
567.30 1.295032
567.40 1.298799
567.50 1.303751
567.60 1.336604
567.70 1.421586
567.80 1.557514
567.90 1.737578
568.00 1.94795
568.10 2.162061
568.20 2.351995
568.30 2.503023
568.40 2.609667
568.50 2.674599
568.60 2.705303
568.70 2.712234
568.80 2.706475
568.90 2.701993
569.00 2.690645
569.10 2.669705
569.20 2.650184
569.30 2.639122
569.40 2.642005
569.50 2.659719
569.60 2.689112
569.70 2.721365
569.80 2.73236
569.90 2.73236
570.00 2.73236
570.10 2.73236
570.20 2.723439
570.30 2.687532
570.40 2.62522
570.50 2.53864
570.60 2.433036
570.70 2.316026
570.80 2.202331
570.90 2.112469
571.00 2.057805
571.10 2.041712
571.20 2.060499
571.30 2.105896
571.40 2.163651
571.50 2.21082
571.60 2.219935
571.70 2.166094
571.80 2.037958
571.90 1.857894
572.00 1.647522
572.10 1.427162
572.20 1.217321
572.30 1.034602
572.40 0.8907303
572.50 0.7913767
572.60 0.7354844
572.70 0.7145533
572.80 0.7145533
572.90 0.7145533
573.00 0.7145533
573.10 0.7120992
573.20 0.6963138
573.30 0.6656298
573.40 0.6226294
573.50 0.5740297
573.60 0.5287767
573.70 0.4965236
573.80 0.4855286
573.90 0.4855286
574.00 0.4855286
574.10 0.4855286
574.20 0.492948
574.30 0.5079318
574.40 0.5270823
574.50 0.5472319
574.60 0.5657788
574.70 0.5810417
574.80 0.5901028
574.90 0.5877943
575.00 0.5753602
575.10 0.5572954
575.20 0.5384974
575.30 0.5230433
575.40 0.5173251
575.50 0.5301326
575.60 0.5680602
575.70 0.6340114
575.80 0.7272454
575.90 0.826223
576.00 0.9195193
576.10 1.004988
576.20 1.081324
576.30 1.147279
576.40 1.203327
576.50 1.250292
576.60 1.286622
576.70 1.310695
576.80 1.322368
576.90 1.322368
577.00 1.322368
577.10 1.322368
577.20 1.322368
577.30 1.322368
577.40 1.322368
577.50 1.322368
577.60 1.322368
577.70 1.322368
577.80 1.322368
577.90 1.322368
578.00 1.322368
578.10 1.322368
578.20 1.339493
578.30 1.372872
578.40 1.421206
578.50 1.480411
578.60 1.54497
578.70 1.60919
578.80 1.665649
578.90 1.706965
579.00 1.728236
579.10 1.724537
579.20 1.692638
579.30 1.633755
579.40 1.560714
579.50 1.475651
579.60 1.38152
579.70 1.282097
579.80 1.181071
579.90 1.082093
580.00 0.988797
580.10 0.9033286
580.20 0.8269927
580.30 0.7610373
580.40 0.7049896
580.50 0.6580245
580.60 0.6216943
580.70 0.5976213
580.80 0.5859478
580.90 0.5859478
581.00 0.5859478
581.10 0.5859478
581.20 0.5859478
581.30 0.6017633
581.40 0.6413826
581.50 0.6959741
581.60 0.7541389
581.70 0.8045243
581.80 0.8392556
581.90 0.8576759
582.00 0.8665212
582.10 0.8747824
582.20 0.8635444
582.30 0.8339334
582.40 0.7880278
582.50 0.7302007
582.60 0.6686599
582.70 0.6134559
582.80 0.5711866
582.90 0.5438716
583.00 0.5303311
583.10 0.5284493
583.20 0.5364682
583.30 0.5501226
583.40 0.5538124
583.50 0.5538124
583.60 0.5538124
583.70 0.5538124
583.80 0.5538124
583.90 0.5671267
584.00 0.6184257
584.10 0.7141402
584.20 0.8518823
584.30 1.019728
584.40 1.19861
584.50 1.365689
584.60 1.500548
584.70 1.591996
584.80 1.640624
584.90 1.656524
585.00 1.656524
585.10 1.656524
585.20 1.666772
585.30 1.676488
585.40 1.670337
585.50 1.64416
585.60 1.596535
585.70 1.546149
585.80 1.511418
585.90 1.492997
586.00 1.484152
586.10 1.475891
586.20 1.462586
586.30 1.443833
586.40 1.422255
586.50 1.400727
586.60 1.379162
586.70 1.354883
586.80 1.327675
586.90 1.299415
587.00 1.272174
587.10 1.248101
587.20 1.228257
587.30 1.214603
587.40 1.210913
587.50 1.210913
587.60 1.210913
587.70 1.210913
587.80 1.210913
587.90 1.197599
588.00 1.155533
588.10 1.082638
588.20 0.9685043
588.30 0.8113707
588.40 0.6324887
588.50 0.4654099
588.60 0.3305504
588.70 0.2391027
588.80 0.1904743
588.90 0.1745742
589.00 0.1745742
589.10 0.1745742
589.20 0.1649519
589.30 0.1548466
589.40 0.1463565
589.50 0.1456285
589.60 0.1584214
589.70 0.1722383
589.80 0.1744537
589.90 0.1744537
590.00 0.1744537
590.10 0.1744537
590.20 0.1744537
590.30 0.1886351
590.40 0.2265789
590.50 0.2888652
590.60 0.3703911
590.70 0.4609741
590.80 0.546288
590.90 0.611654
591.00 0.6458128
591.10 0.6458128
591.20 0.6458128
591.30 0.6458128
591.40 0.6458128
591.50 0.6458128
591.60 0.6458128
591.70 0.6458128
591.80 0.6458128
591.90 0.6458128
592.00 0.6365798
592.10 0.6137597
592.20 0.5901519
592.30 0.5794397
592.40 0.5794397
592.50 0.5794397
592.60 0.5794397
592.70 0.5794397
592.80 0.5794397
592.90 0.5794397
593.00 0.5794397
593.10 0.5794397
593.20 0.5788145
593.30 0.5633881
593.40 0.5384106
593.50 0.5107232
593.60 0.4873914
593.70 0.4735745
593.80 0.4713592
593.90 0.4713592
594.00 0.4713592
594.10 0.4713592
594.20 0.4713592
594.30 0.4571777
594.40 0.4192339
594.50 0.3569477
594.60 0.2754217
594.70 0.1848387
594.80 0.09952486
594.90 0.03415888
595.00 0
595.10 0
595.20 0
595.30 0
595.40 0
595.50 0.01639863
595.60 0.04954879
595.70 0.09451487
595.80 0.145876
595.90 0.1982713
596.00 0.2477521
596.10 0.2919512
596.20 0.329886
596.30 0.3618871
596.40 0.3876924
596.50 0.4066467
596.60 0.419009
596.70 0.4244136
596.80 0.4244136
596.90 0.4244136
597.00 0.4244136
597.10 0.4244136
597.20 0.4244136
597.30 0.4244136
597.40 0.4244136
597.50 0.4244136
597.60 0.4244136
597.70 0.4342977
597.80 0.4626496
597.90 0.5084019
598.00 0.5647217
598.10 0.6242386
598.20 0.6827824
598.30 0.737054
598.40 0.7824594
598.50 0.8156395
598.60 0.837313
598.70 0.8517771
598.80 0.8655483
598.90 0.8865952
599.00 0.9206849
599.10 0.9700737
599.20 1.034667
599.30 1.112718
599.40 1.200815
599.50 1.275337
599.60 1.324678
599.70 1.342033
599.80 1.324232
599.90 1.271837
600.00 2.252794
600.10 2.380677
600.20 2.341749
600.30 2.170867
600.40 1.816215
600.50 1.327202
600.60 0.8669398
600.70 0.5785664
600.80 0.5508474
600.90 0.8418741
601.00 1.363589
601.10 1.975551
601.20 2.583736
601.30 3.122022
601.40 3.523891
601.50 3.636843
601.60 3.299654
601.70 2.492828
601.80 1.342413
601.90 0
602.00 0
602.10 0
602.20 0
602.30 0
602.40 0
602.50 0
602.60 0
602.70 0
602.80 0
602.90 0.2227121
603.00 1.243607
603.10 2.216496
603.20 3.071933
603.30 3.703269
603.40 4.007889
603.50 3.918606
603.60 3.433824
603.70 2.659633
603.80 1.854739
603.90 1.292369
604.00 1.13251
604.10 1.370664
604.20 1.899322
604.30 2.581454
604.40 3.192293
604.50 3.508015
604.60 3.435086
604.70 2.992828
604.80 2.271506
604.90 1.439576
605.00 0.714247
605.10 0.2579622
605.20 0.05529993
605.30 0.05715273
605.40 0.243611
605.50 0.5459404
605.60 0.8968121
605.70 1.302696
605.80 1.804543
605.90 2.367825
606.00 2.904693
606.10 3.307138
606.20 3.482443
606.30 3.359347
606.40 2.955786
606.50 2.430415
606.60 1.974985
606.70 1.686185
606.80 1.567724
606.90 1.613864
607.00 1.809163
607.10 2.106892
607.20 2.441711
607.30 2.768638
607.40 3.075592
607.50 3.357683
607.60 3.610375
607.70 3.838594
607.80 4.050898
607.90 4.224255
608.00 4.321279
608.10 4.298261
608.20 4.089041
608.30 3.680446
608.40 3.14205
608.50 2.497278
608.60 1.765234
608.70 1.078504
608.80 0.6085434
608.90 0.4748047
609.00 0.7149845
609.10 1.259957
609.20 1.912189
609.30 2.428215
609.40 2.642519
609.50 2.589997
609.60 2.440278
609.70 2.312786
609.80 2.24754
609.90 2.329684
610.00 2.625723
610.10 3.058567
610.20 3.460683
610.30 3.699506
610.40 3.759276
610.50 3.687154
610.60 3.613881
610.70 3.70537
610.80 4.03005
610.90 4.466656
611.00 4.823537
611.10 4.990995
611.20 4.92642
611.30 4.621888
611.40 4.1191
611.50 3.482118
611.60 2.815835
611.70 2.257416
611.80 1.870114
611.90 1.691414
612.00 1.699542
612.10 1.808064
612.20 1.939207
612.30 2.060533
612.40 2.140589
612.50 2.106308
612.60 1.93406
612.70 1.683064
612.80 1.41329
612.90 1.17638
613.00 1.033689
613.10 1.034718
613.20 1.194843
613.30 1.44143
613.40 1.659066
613.50 1.758882
613.60 1.694442
613.70 1.5075
613.80 1.331515
613.90 1.279279
614.00 1.364429
614.10 1.535511
614.20 1.747833
614.30 1.955446
614.40 2.106077
614.50 2.15955
614.60 2.11691
614.70 2.065988
614.80 2.103652
614.90 2.259669
615.00 2.510953
615.10 2.770839
615.20 2.911595
615.30 2.878216
615.40 2.691111
615.50 2.39017
615.60 2.037354
615.70 1.726686
615.80 1.52821
615.90 1.466047
616.00 1.541796
616.10 1.686265
616.20 1.792932
616.30 1.812725
616.40 1.762461
616.50 1.717269
616.60 1.850515
616.70 2.254334
616.80 2.87092
616.90 3.631172
617.00 4.433866
617.10 5.143647
617.20 5.638027
617.30 5.818851
617.40 5.610789
617.50 5.014316
617.60 4.136456
617.70 3.120006
617.80 2.148499
617.90 1.406522
618.00 0.9164181
618.10 0.644888
618.20 0.5896197
618.30 0.6881225
618.40 0.860702
618.50 1.026728
618.60 1.101552
618.70 1.028882
618.80 0.8127415
618.90 0.5301897
619.00 0.2926972
619.10 0.2076393
619.20 0.2856198
619.30 0.4329033
619.40 0.5239476
619.50 0.5137958
619.60 0.486807
619.70 0.5665108
619.80 0.8084278
619.90 1.183884
620.00 1.616075
620.10 2.013304
620.20 2.305543
620.30 2.429817
620.40 2.338587
620.50 2.02083
620.60 1.569953
620.70 1.144132
620.80 0.8758371
620.90 0.8196705
621.00 0.9210535
621.10 1.036336
621.20 1.052031
621.30 0.9488528
621.40 0.7605018
621.50 0.5311432
621.60 0.2842425
621.70 0.04750491
621.80 0
621.90 0
622.00 0.02430454
622.10 0.2932587
622.20 0.6455483
622.30 1.092583
622.40 1.601931
622.50 2.115058
622.60 2.549469
622.70 2.805827
622.80 2.883454
622.90 2.882772
623.00 2.910599
623.10 3.024629
623.20 3.193402
623.30 3.34715
623.40 3.435355
623.50 3.434597
623.60 3.311154
623.70 3.030256
623.80 2.618673
623.90 2.135871
624.00 1.675552
624.10 1.363634
624.20 1.228428
624.30 1.212842
624.40 1.253575
624.50 1.291363
624.60 1.301442
624.70 1.274117
624.80 1.207271
624.90 1.11018
625.00 0.9803243
625.10 0.8058044
625.20 0.5889131
625.30 0.376652
625.40 0.2298859
625.50 0.1839841
625.60 0.2486015
625.70 0.3961563
625.80 0.5745256
625.90 0.7198873
626.00 0.8168855
626.10 0.9267805
626.20 1.152524
626.30 1.562007
626.40 2.129697
626.50 2.746458
626.60 3.23267
626.70 3.440984
626.80 3.311896
626.90 2.853867
627.00 2.148288
627.10 1.352469
627.20 0.668863
627.30 0.2851656
627.40 0.2728111
627.50 0.5513769
627.60 0.9445752
627.70 1.286659
627.80 1.506683
627.90 1.599245
628.00 1.656692
628.10 1.794028
628.20 2.030175
628.30 2.342489
628.40 2.710589
628.50 3.09876
628.60 3.47306
628.70 3.808065
628.80 4.086714
628.90 4.320442
629.00 4.483824
629.10 4.523328
629.20 4.411389
629.30 4.170493
629.40 3.843851
629.50 3.471093
629.60 3.208615
629.70 3.235922
629.80 3.562096
629.90 4.105842
630.00 4.749263
630.10 5.337673
630.20 5.714918
630.30 5.751881
630.40 5.459761
630.50 4.94633
630.60 4.328257
630.70 3.724347
630.80 3.244846
630.90 3.005169
631.00 3.010946
631.10 3.154233
631.20 3.385743
631.30 3.656879
631.40 3.848608
631.50 3.855014
631.60 3.683732
631.70 3.431946
631.80 3.168855
631.90 2.929789
632.00 2.759616
632.10 2.748581
632.20 2.956011
632.30 3.3029
632.40 3.588476
632.50 3.633828
632.60 3.361308
632.70 2.793135
632.80 2.079978
632.90 1.444353
633.00 1.032027
633.10 0.8746281
633.20 0.9590404
633.30 1.288987
633.40 1.84044
633.50 2.493909
633.60 3.107914
633.70 3.608826
633.80 4.011166
633.90 4.342437
634.00 4.611448
634.10 4.816888
634.20 4.913571
634.30 4.876726
634.40 4.727751
634.50 4.506516
634.60 4.283328
634.70 4.090198
634.80 3.918996
634.90 3.745473
635.00 3.558559
635.10 3.362234
635.20 3.146962
635.30 2.916391
635.40 2.666046
635.50 2.406836
635.60 2.199642
635.70 2.106188
635.80 2.189731
635.90 2.499638
636.00 2.999726
636.10 3.627009
636.20 4.399618
636.30 5.330698
636.40 6.278842
636.50 7.04649
636.60 7.494348
636.70 7.551315
636.80 7.239302
636.90 6.640807
637.00 5.862148
637.10 5.048616
637.20 4.315954
637.30 3.747795
637.40 3.477541
637.50 3.554047
637.60 3.824348
637.70 4.081206
637.80 4.194714
637.90 4.0854
638.00 3.753414
638.10 3.289808
638.20 2.813317
638.30 2.455723
638.40 2.345828
638.50 2.537336
638.60 3.019268
638.70 3.706948
638.80 4.407577
638.90 4.950747
639.00 5.267864
639.10 5.377523
639.20 5.369501
639.30 5.338977
639.40 5.305183
639.50 5.219665
639.60 5.032567
639.70 4.724628
639.80 4.310333
639.90 3.830556
640.00 3.344437
640.10 2.934831
640.20 2.687159
640.30 2.661118
640.40 2.862069
640.50 3.218253
640.60 3.615179
640.70 3.943962
640.80 4.158876
640.90 4.299315
641.00 4.408648
641.10 4.488789
641.20 4.53338
641.30 4.545095
641.40 4.517796
641.50 4.441114
641.60 4.310827
641.70 4.141052
641.80 3.935736
641.90 3.6785
642.00 3.36398
642.10 2.996624
642.20 2.60402
642.30 2.223281
642.40 1.900743
642.50 1.68903
642.60 1.619857
642.70 1.708855
642.80 2.001206
642.90 2.524976
643.00 3.218734
643.10 3.927705
643.20 4.511569
643.30 4.896673
643.40 5.031124
643.50 4.91777
643.60 4.560342
643.70 3.974927
643.80 3.265776
643.90 2.583419
644.00 2.069725
644.10 1.792102
644.20 1.732428
644.30 1.869624
644.40 2.17862
644.50 2.623369
644.60 3.137886
644.70 3.637586
644.80 4.108427
644.90 4.555168
645.00 5.007086
645.10 5.466044
645.20 5.842826
645.30 6.034911
645.40 5.956859
645.50 5.612173
645.60 5.096284
645.70 4.504431
645.80 3.964494
645.90 3.601641
646.00 3.455759
646.10 3.536147
646.20 3.802129
646.30 4.211746
646.40 4.709389
646.50 5.205951
646.60 5.620311
646.70 5.857006
646.80 5.920941
646.90 5.877869
647.00 5.735109
647.10 5.493711
647.20 5.163486
647.30 4.780092
647.40 4.44008
647.50 4.225931
647.60 4.168941
647.70 4.204588
647.80 4.230297
647.90 4.211249
648.00 4.156506
648.10 4.123242
648.20 4.081783
648.30 3.978272
648.40 3.876892
648.50 3.883011
648.60 4.086206
648.70 4.507002
648.80 5.07279
648.90 5.677374
649.00 6.188359
649.10 6.480864
649.20 6.497496
649.30 6.242948
649.40 5.875035
649.50 5.61534
649.60 5.625431
649.70 5.939367
649.80 6.455695
649.90 7.007478
650.00 7.387819
650.10 7.408827
650.20 7.003133
650.30 6.225289
650.40 5.235991
650.50 4.282041
650.60 3.583034
650.70 3.313832
650.80 3.491603
650.90 3.965825
651.00 4.564312
651.10 5.146284
651.20 5.591199
651.30 5.799815
651.40 5.748879
651.50 5.524693
651.60 5.251811
651.70 5.030082
651.80 4.918233
651.90 4.937933
652.00 5.099046
652.10 5.331032
652.20 5.515897
652.30 5.582438
652.40 5.513439
652.50 5.359236
652.60 5.215927
652.70 5.197965
652.80 5.385516
652.90 5.761864
653.00 6.250994
653.10 6.755096
653.20 7.1956
653.30 7.503949
653.40 7.665451
653.50 7.736
653.60 7.72892
653.70 7.61794
653.80 7.397857
653.90 7.086531
654.00 6.670343
654.10 6.140789
654.20 5.597049
654.30 5.197729
654.40 5.03339
654.50 5.089813
654.60 5.289031
654.70 5.553555
654.80 5.777582
654.90 5.849287
655.00 5.748331
655.10 5.538772
655.20 5.281974
655.30 5.00218
655.40 4.767485
655.50 4.674455
655.60 4.742715
655.70 4.952968
655.80 5.314054
655.90 5.845328
656.00 6.524001
656.10 7.270577
656.20 7.975939
656.30 8.516254
656.40 8.814514
656.50 8.850011
656.60 8.651824
656.70 8.274255
656.80 7.761507
656.90 7.178191
657.00 6.603679
657.10 6.101126
657.20 5.724664
657.30 5.526802
657.40 5.550191
657.50 5.846791
657.60 6.425407
657.70 7.192848
657.80 7.971374
657.90 8.575978
658.00 8.888784
658.10 8.854279
658.20 8.513513
658.30 7.954115
658.40 7.26178
658.50 6.553564
658.60 5.93723
658.70 5.483285
658.80 5.229666
658.90 5.153506
659.00 5.181361
659.10 5.248307
659.20 5.309546
659.30 5.350035
659.40 5.40594
659.50 5.524633
659.60 5.702341
659.70 5.904378
659.80 6.144154
659.90 6.454799
660.00 6.840589
660.10 7.233278
660.20 7.498138
660.30 7.51394
660.40 7.262853
660.50 6.838776
660.60 6.358564
660.70 5.924675
660.80 5.576028
660.90 5.325858
661.00 5.178194
661.10 5.125373
661.20 5.135695
661.30 5.155287
661.40 5.138475
661.50 5.099122
661.60 5.122178
661.70 5.285361
661.80 5.589466
661.90 5.950548
662.00 6.268418
662.10 6.46358
662.20 6.479952
662.30 6.316956
662.40 6.065847
662.50 5.838487
662.60 5.702418
662.70 5.66927
662.80 5.731415
662.90 5.87852
663.00 6.073231
663.10 6.277585
663.20 6.472485
663.30 6.662457
663.40 6.850269
663.50 7.016467
663.60 7.185291
663.70 7.390509
663.80 7.602291
663.90 7.751101
664.00 7.781357
664.10 7.729028
664.20 7.66528
664.30 7.631363
664.40 7.653872
664.50 7.714946
664.60 7.746574
664.70 7.670911
664.80 7.475188
664.90 7.201485
665.00 6.877656
665.10 6.560321
665.20 6.344867
665.30 6.315738
665.40 6.527527
665.50 6.945453
665.60 7.458923
665.70 7.954203
665.80 8.367787
665.90 8.655907
666.00 8.788445
666.10 8.784789
666.20 8.692505
666.30 8.552627
666.40 8.38543
666.50 8.200338
666.60 7.997437
666.70 7.794486
666.80 7.655486
666.90 7.680596
667.00 7.969101
667.10 8.566456
667.20 9.350137
667.30 10.09526
667.40 10.63386
667.50 10.8754
667.60 10.79703
667.70 10.44569
667.80 9.920253
667.90 9.329921
668.00 8.798196
668.10 8.439208
668.20 8.280302
668.30 8.265523
668.40 8.322124
668.50 8.394102
668.60 8.463361
668.70 8.558121
668.80 8.708832
668.90 8.957799
669.00 9.349782
669.10 9.863903
669.20 10.44092
669.30 11.02051
669.40 11.50963
669.50 11.79725
669.60 11.81511
669.70 11.55701
669.80 11.04643
669.90 10.31925
670.00 9.46114
670.10 8.571399
670.20 7.755234
670.30 7.095107
670.40 6.594607
670.50 6.261664
670.60 6.116983
670.70 6.135517
670.80 6.2899
670.90 6.604214
671.00 7.072983
671.10 7.597975
671.20 8.057902
671.30 8.385477
671.40 8.555485
671.50 8.590945
671.60 8.536951
671.70 8.441279
671.80 8.381408
671.90 8.401172
672.00 8.527663
672.10 8.804962
672.20 9.22295
672.30 9.66905
672.40 10.01093
672.50 10.205
672.60 10.27498
672.70 10.22098
672.80 10.05331
672.90 9.831677
673.00 9.623335
673.10 9.449609
673.20 9.284294
673.30 9.118376
673.40 8.96694
673.50 8.842567
673.60 8.739489
673.70 8.638571
673.80 8.530027
673.90 8.447826
674.00 8.444928
674.10 8.533797
674.20 8.733553
674.30 9.078182
674.40 9.584551
674.50 10.28313
674.60 11.15439
674.70 12.07164
674.80 12.83277
674.90 13.22877
675.00 13.1617
675.10 12.6729
675.20 11.88454
675.30 10.90879
675.40 9.851483
675.50 8.889081
675.60 8.176916
675.70 7.784004
675.80 7.707228
675.90 7.821984
676.00 7.969877
676.10 8.10395
676.20 8.227935
676.30 8.329678
676.40 8.38448
676.50 8.352185
676.60 8.203692
676.70 7.949699
676.80 7.67198
676.90 7.481825
677.00 7.455191
677.10 7.608694
677.20 7.885873
677.30 8.239637
677.40 8.66424
677.50 9.161482
677.60 9.715198
677.70 10.25829
677.80 10.75685
677.90 11.24704
678.00 11.77134
678.10 12.31501
678.20 12.76953
678.30 13.01603
678.40 12.99315
678.50 12.69945
678.60 12.1946
678.70 11.55865
678.80 10.87016
678.90 10.17445
679.00 9.52732
679.10 9.032894
679.20 8.753717
679.30 8.72162
679.40 8.967397
679.50 9.433578
679.60 9.976534
679.70 10.43863
679.80 10.69434
679.90 10.69755
680.00 10.49894
680.10 10.1958
680.20 9.867778
680.30 9.565323
680.40 9.305359
680.50 9.084658
680.60 8.864981
680.70 8.568235
680.80 8.128417
680.90 7.600055
681.00 7.133199
681.10 6.84844
681.20 6.778544
681.30 6.886597
681.40 7.099172
681.50 7.366405
681.60 7.679553
681.70 7.993711
681.80 8.248547
681.90 8.393748
682.00 8.41226
682.10 8.286679
682.20 7.970847
682.30 7.444686
682.40 6.739919
682.50 5.909856
682.60 5.090266
682.70 4.483348
682.80 4.212824
682.90 4.274798
683.00 4.591065
683.10 5.084961
683.20 5.688129
683.30 6.322126
683.40 6.904802
683.50 7.409435
683.60 7.828122
683.70 8.113998
683.80 8.234754
683.90 8.271503
684.00 8.350211
684.10 8.502297
684.20 8.689689
684.30 8.863087
684.40 8.980069
684.50 9.008926
684.60 8.933035
684.70 8.768721
684.80 8.536789
684.90 8.242115
685.00 7.932496
685.10 7.698598
685.20 7.600981
685.30 7.638006
685.40 7.766949
685.50 7.965378
685.60 8.277952
685.70 8.731607
685.80 9.268857
685.90 9.779047
686.00 10.14693
686.10 10.3157
686.20 10.30393
686.30 10.14791
686.40 9.891555
686.50 9.654629
686.60 9.565778
686.70 9.639009
686.80 9.769897
686.90 9.839522
687.00 9.758469
687.10 9.472269
687.20 9.014831
687.30 8.517269
687.40 8.114851
687.50 7.841547
687.60 7.638208
687.70 7.437984
687.80 7.200404
687.90 6.858841
688.00 6.401496
688.10 5.920191
688.20 5.527545
688.30 5.273515
688.40 5.164605
688.50 5.192375
688.60 5.270909
688.70 5.230142
688.80 5.000112
688.90 4.708644
689.00 4.502697
689.10 4.469186
689.20 4.658932
689.30 5.079145
689.40 5.677074
689.50 6.31916
689.60 6.866958
689.70 7.241981
689.80 7.375152
689.90 7.277545
690.00 7.081218
690.10 6.953923
690.20 6.968268
690.30 7.061755
690.40 7.183865
690.50 7.314198
690.60 7.4035
690.70 7.395175
690.80 7.234932
690.90 6.906271
691.00 6.440596
691.10 5.888941
691.20 5.330103
691.30 4.830157
691.40 4.441096
691.50 4.203468
691.60 4.128572
691.70 4.244601
691.80 4.573219
691.90 5.109129
692.00 5.79015
692.10 6.489138
692.20 7.109641
692.30 7.629195
692.40 8.07042
692.50 8.431232
692.60 8.677695
692.70 8.777959
692.80 8.700706
692.90 8.470723
693.00 8.160404
693.10 7.822535
693.20 7.507674
693.30 7.226881
693.40 7.031297
693.50 7.015202
693.60 7.178208
693.70 7.459898
693.80 7.778551
693.90 8.084964
694.00 8.373973
694.10 8.657187
694.20 8.985765
694.30 9.450638
694.40 10.14035
694.50 11.03608
694.60 12.02409
694.70 13.01689
694.80 13.91092
694.90 14.54217
695.00 14.76695
695.10 14.51096
695.20 13.79582
695.30 12.74558
695.40 11.52618
695.50 10.3
695.60 9.206998
695.70 8.327402
695.80 7.631431
695.90 7.0627
696.00 6.627537
696.10 6.319984
696.20 6.092521
696.30 5.95616
696.40 5.997734
696.50 6.337343
696.60 7.010632
696.70 7.891117
696.80 8.798239
696.90 9.570875
697.00 10.09845
697.10 10.31792
697.20 10.25386
697.30 9.990521
697.40 9.606928
697.50 9.200837
697.60 8.864976
697.70 8.644048
697.80 8.527222
697.90 8.429261
698.00 8.296253
698.10 8.167277
698.20 8.099069
698.30 8.127364
698.40 8.237975
698.50 8.396553
698.60 8.601614
698.70 8.885102
698.80 9.24402
698.90 9.625264
699.00 9.974409
699.10 10.26622
699.20 10.50352
699.30 10.67469
699.40 10.71286
699.50 10.57278
699.60 10.29615
699.70 9.954369
699.80 9.606241
699.90 9.303268
700.00 9.076206
700.10 8.915881
700.20 8.774963
700.30 8.616532
700.40 8.453804
700.50 8.321086
700.60 8.248459
700.70 8.23862
700.80 8.313148
700.90 8.500136
701.00 8.761736
701.10 9.062569
701.20 9.419289
701.30 9.854095
701.40 10.37501
701.50 10.97988
701.60 11.65486
701.70 12.36183
701.80 13.02449
701.90 13.52855
702.00 13.74166
702.10 13.62083
702.20 13.22302
702.30 12.6326
702.40 11.98418
702.50 11.42649
702.60 11.06205
702.70 10.94462
702.80 11.05062
702.90 11.31497
703.00 11.6757
703.10 12.03894
703.20 12.31265
703.30 12.46967
703.40 12.56385
703.50 12.67092
703.60 12.85146
703.70 13.14491
703.80 13.54369
703.90 14.01718
704.00 14.47936
704.10 14.78172
704.20 14.80367
704.30 14.50978
704.40 13.95898
704.50 13.28713
704.60 12.65465
704.70 12.23499
704.80 12.15366
704.90 12.38192
705.00 12.77501
705.10 13.19416
705.20 13.54929
705.30 13.75422
705.40 13.76205
705.50 13.59427
705.60 13.29456
705.70 12.89516
705.80 12.43439
705.90 11.97671
706.00 11.61571
706.10 11.40434
706.20 11.33259
706.30 11.42487
706.40 11.70638
706.50 12.14557
706.60 12.67157
706.70 13.20056
706.80 13.66423
706.90 14.0315
707.00 14.31948
707.10 14.5723
707.20 14.82551
707.30 15.10682
707.40 15.41283
707.50 15.67463
707.60 15.80813
707.70 15.76764
707.80 15.56043
707.90 15.22509
708.00 14.80355
708.10 14.34806
708.20 13.92551
708.30 13.60102
708.40 13.41047
708.50 13.34268
708.60 13.39214
708.70 13.56026
708.80 13.7776
708.90 13.96933
709.00 14.13411
709.10 14.28873
709.20 14.41441
709.30 14.44204
709.40 14.35299
709.50 14.21171
709.60 14.06996
709.70 13.94683
709.80 13.81282
709.90 13.67749
710.00 13.57881
710.10 13.50622
710.20 13.48653
710.30 13.54796
710.40 13.63892
710.50 13.69341
710.60 13.68994
710.70 13.66256
710.80 13.62686
710.90 13.56001
711.00 13.47062
711.10 13.37228
711.20 13.332
711.30 13.41876
711.40 13.61241
711.50 13.85056
711.60 14.05449
711.70 14.18701
711.80 14.27642
711.90 14.35821
712.00 14.45298
712.10 14.58073
712.20 14.74427
712.30 14.90543
712.40 14.99958
712.50 15.02589
712.60 15.04938
712.70 15.12256
712.80 15.28292
712.90 15.5589
713.00 15.93699
713.10 16.34012
713.20 16.62035
713.30 16.64418
713.40 16.37013
713.50 15.82882
713.60 15.11885
713.70 14.38727
713.80 13.79947
713.90 13.46143
714.00 13.3497
714.10 13.36116
714.20 13.45271
714.30 13.66681
714.40 14.0493
714.50 14.60831
714.60 15.34096
714.70 16.18202
714.80 16.98524
714.90 17.61115
715.00 17.92228
715.10 17.80475
715.20 17.21154
715.30 16.21009
715.40 15.01244
715.50 13.89213
715.60 13.03729
715.70 12.5314
715.80 12.38029
715.90 12.52084
716.00 12.85182
716.10 13.26198
716.20 13.6531
716.30 13.93158
716.40 14.06246
716.50 14.10377
716.60 14.15694
716.70 14.29507
716.80 14.52393
716.90 14.82542
717.00 15.16412
717.10 15.44087
717.20 15.53949
717.30 15.4276
717.40 15.15865
717.50 14.80846
717.60 14.48408
717.70 14.28486
717.80 14.26344
717.90 14.43536
718.00 14.78219
718.10 15.25959
718.20 15.77555
718.30 16.20958
718.40 16.47977
718.50 16.57739
718.60 16.56948
718.70 16.53458
718.80 16.53695
718.90 16.65532
719.00 16.89584
719.10 17.21686
719.20 17.58329
719.30 17.91633
719.40 18.11287
719.50 18.07585
719.60 17.76653
719.70 17.2333
719.80 16.55745
719.90 15.80734
720.00 15.07271
720.10 14.46514
720.20 14.03839
720.30 13.79014
720.40 13.72289
720.50 13.84898
720.60 14.1484
720.70 14.58433
720.80 15.10796
720.90 15.65216
721.00 16.15861
721.10 16.56515
721.20 16.8171
721.30 16.92135
721.40 16.86894
721.50 16.61286
721.60 16.16376
721.70 15.61658
721.80 15.11876
721.90 14.8139
722.00 14.79206
722.10 15.07408
722.20 15.63171
722.30 16.42789
722.40 17.38387
722.50 18.34467
722.60 19.13559
722.70 19.60049
722.80 19.69113
722.90 19.48033
723.00 19.10273
723.10 18.68212
723.20 18.28756
723.30 17.97312
723.40 17.80967
723.50 17.85891
723.60 18.12239
723.70 18.49461
723.80 18.82645
723.90 19.02841
724.00 19.0539
724.10 18.90789
724.20 18.64888
724.30 18.39653
724.40 18.27813
724.50 18.39867
724.60 18.82531
724.70 19.47912
724.80 20.19738
724.90 20.8276
725.00 21.27316
725.10 21.52838
725.20 21.63806
725.30 21.65961
725.40 21.65813
725.50 21.66557
725.60 21.64279
725.70 21.47271
725.80 21.06497
725.90 20.42641
726.00 19.64887
726.10 18.91371
726.20 18.38644
726.30 18.15808
726.40 18.22934
726.50 18.52016
726.60 18.92356
726.70 19.31678
726.80 19.60811
726.90 19.79013
727.00 19.98495
727.10 20.42211
727.20 21.21696
727.30 22.19692
727.40 23.02958
727.50 23.49002
727.60 23.50261
727.70 23.05678
727.80 22.24303
727.90 21.24225
728.00 20.25403
728.10 19.48282
728.20 19.0941
728.30 19.16131
728.40 19.62474
728.50 20.26547
728.60 20.85223
728.70 21.32895
728.80 21.74249
728.90 22.04848
729.00 22.15268
729.10 22.02546
729.20 21.67707
729.30 21.14479
729.40 20.51228
729.50 19.8744
729.60 19.30269
729.70 18.85009
729.80 18.52363
729.90 18.31236
730.00 18.26339
730.10 18.42933
730.20 18.7766
730.30 19.23037
730.40 19.67611
730.50 20.01709
730.60 20.23499
730.70 20.29855
730.80 20.19185
730.90 19.95955
731.00 19.73908
731.10 19.69778
731.20 19.92279
731.30 20.41607
731.40 21.0593
731.50 21.64515
731.60 22.01198
731.70 22.09253
731.80 21.94349
731.90 21.68564
732.00 21.42332
732.10 21.29496
732.20 21.38968
732.30 21.70676
732.40 22.16114
732.50 22.59275
732.60 22.86728
732.70 22.97314
732.80 22.98004
732.90 22.90659
733.00 22.74049
733.10 22.46812
733.20 22.09566
733.30 21.66773
733.40 21.22144
733.50 20.76409
733.60 20.26973
733.70 19.7101
733.80 19.07799
733.90 18.45657
734.00 18.00863
734.10 17.79565
734.20 17.7953
734.30 18.04408
734.40 18.58076
734.50 19.39048
734.60 20.36186
734.70 21.28096
734.80 21.95432
734.90 22.28773
735.00 22.32227
735.10 22.19116
735.20 22.00744
735.30 21.77868
735.40 21.49305
735.50 21.20403
735.60 20.96352
735.70 20.79785
735.80 20.74386
735.90 20.84668
736.00 21.15913
736.10 21.72494
736.20 22.51084
736.30 23.37876
736.40 24.12929
736.50 24.54608
736.60 24.46819
736.70 23.85165
736.80 22.77994
736.90 21.45203
737.00 20.13476
737.10 19.10163
737.20 18.55273
737.30 18.52145
737.40 18.88636
737.50 19.46079
737.60 20.10438
737.70 20.76063
737.80 21.39984
737.90 21.97886
738.00 22.43713
738.10 22.7521
738.20 22.90615
738.30 22.89047
738.40 22.7381
738.50 22.47697
738.60 22.13249
738.70 21.78133
738.80 21.52034
738.90 21.37812
739.00 21.26624
739.10 21.08448
739.20 20.8351
739.30 20.57721
739.40 20.38387
739.50 20.32226
739.60 20.41041
739.70 20.56096
739.80 20.55865
739.90 20.22536
740.00 19.60415
740.10 18.85315
740.20 18.08565
740.30 17.42531
740.40 17.04496
740.50 17.04696
740.60 17.37404
740.70 17.90282
740.80 18.53153
740.90 19.14377
741.00 19.6344
741.10 19.97298
741.20 20.25913
741.30 20.63026
741.40 21.10063
741.50 21.56232
741.60 21.88135
741.70 21.94732
741.80 21.6789
741.90 21.03441
742.00 20.06966
742.10 18.9339
742.20 17.81084
742.30 16.89085
742.40 16.32816
742.50 16.1984
742.60 16.48437
742.70 17.08373
742.80 17.81242
742.90 18.48667
743.00 19.00967
743.10 19.34746
743.20 19.49924
743.30 19.51542
743.40 19.46235
743.50 19.40033
743.60 19.39625
743.70 19.49698
743.80 19.69644
743.90 19.95356
744.00 20.2312
744.10 20.49998
744.20 20.71404
744.30 20.81566
744.40 20.79972
744.50 20.70259
744.60 20.59508
744.70 20.55733
744.80 20.59765
744.90 20.66281
745.00 20.67257
745.10 20.60434
745.20 20.51686
745.30 20.46175
745.40 20.45369
745.50 20.48972
745.60 20.5721
745.70 20.71976
745.80 20.93819
745.90 21.1939
746.00 21.37112
746.10 21.36549
746.20 21.24801
746.30 21.18002
746.40 21.27487
746.50 21.51109
746.60 21.75714
746.70 21.90207
746.80 21.88714
746.90 21.6863
747.00 21.2881
747.10 20.73245
747.20 20.10564
747.30 19.50747
747.40 19.09422
747.50 18.97926
747.60 19.11734
747.70 19.37484
747.80 19.63275
747.90 19.85454
748.00 20.0606
748.10 20.24593
748.20 20.3938
748.30 20.52327
748.40 20.6773
748.50 20.87672
748.60 21.09848
748.70 21.29495
748.80 21.38706
748.90 21.31633
749.00 21.10814
749.10 20.82722
749.20 20.52961
749.30 20.2303
749.40 19.91789
749.50 19.59432
749.60 19.27711
749.70 18.97132
749.80 18.67579
749.90 18.41649
750.00 18.25594
750.10 18.25376
750.20 18.43203
750.30 18.77479
750.40 19.20988
750.50 19.65451
750.60 20.0614
750.70 20.41015
750.80 20.72077
750.90 21.02456
751.00 21.31124
751.10 21.55393
751.20 21.76918
751.30 21.99668
751.40 22.21889
751.50 22.38289
751.60 22.44511
751.70 22.33782
751.80 22.02145
751.90 21.54672
752.00 21.03543
752.10 20.63237
752.20 20.53509
752.30 20.84948
752.40 21.49277
752.50 22.31239
752.60 23.11363
752.70 23.68278
752.80 23.86895
752.90 23.63136
753.00 23.0196
753.10 22.18071
753.20 21.28991
753.30 20.46621
753.40 19.76183
753.50 19.19432
753.60 18.6625
753.70 18.10752
753.80 17.6432
753.90 17.38076
754.00 17.36465
754.10 17.57854
754.20 17.95736
754.30 18.40348
754.40 18.84043
754.50 19.22164
754.60 19.51278
754.70 19.69868
754.80 19.78003
754.90 19.76591
755.00 19.68609
755.10 19.56228
755.20 19.33346
755.30 18.94509
755.40 18.44755
755.50 17.92905
755.60 17.48338
755.70 17.19183
755.80 17.09606
755.90 17.20264
756.00 17.46879
756.10 17.79657
756.20 18.07996
756.30 18.23756
756.40 18.20903
756.50 17.98253
756.60 17.665
756.70 17.41054
756.80 17.32247
756.90 17.48056
757.00 17.91085
757.10 18.56543
757.20 19.35583
757.30 20.16848
757.40 20.90056
757.50 21.47253
757.60 21.82477
757.70 21.92819
757.80 21.78662
757.90 21.4285
758.00 20.89531
758.10 20.24621
758.20 19.5555
758.30 18.88602
758.40 18.29811
758.50 17.84084
758.60 17.52725
758.70 17.34296
758.80 17.25317
758.90 17.2202
759.00 17.17334
759.10 17.04901
759.20 16.85253
759.30 16.61209
759.40 16.45163
759.50 16.57421
759.60 17.13206
759.70 18.14868
759.80 19.44565
759.90 20.71303
760.00 21.73472
760.10 22.32996
760.20 22.27551
760.30 21.49499
760.40 20.05111
760.50 18.11586
760.60 16.0418
760.70 14.27153
760.80 13.08952
760.90 12.57079
761.00 12.65623
761.10 13.20779
761.20 14.05224
761.30 14.97524
761.40 15.65297
761.50 15.84204
761.60 15.5356
761.70 14.80168
761.80 13.82328
761.90 12.85061
762.00 12.00379
762.10 11.32437
762.20 10.84284
762.30 10.54843
762.40 10.41051
762.50 10.43837
762.60 10.74005
762.70 11.43777
762.80 12.48203
762.90 13.59782
763.00 14.4132
763.10 14.62227
763.20 14.08504
763.30 12.85325
763.40 11.15418
763.50 9.316886
763.60 7.687272
763.70 6.600042
763.80 6.306055
763.90 6.777531
764.00 7.692533
764.10 8.637306
764.20 9.280037
764.30 9.518696
764.40 9.396428
764.50 8.980125
764.60 8.410439
764.70 7.871633
764.80 7.535384
764.90 7.528032
765.00 7.900755
765.10 8.554811
765.20 9.217867
765.30 9.625935
765.40 9.615613
765.50 9.156156
765.60 8.382267
765.70 7.438811
765.80 6.474786
765.90 5.693275
766.00 5.237709
766.10 5.152906
766.20 5.345676
766.30 5.647887
766.40 5.894348
766.50 5.937357
766.60 5.7256
766.70 5.325691
766.80 4.872668
766.90 4.477033
767.00 4.155703
767.10 3.869213
767.20 3.603248
767.30 3.381281
767.40 3.20425
767.50 3.033571
767.60 2.889061
767.70 2.825942
767.80 2.870283
767.90 3.042805
768.00 3.329633
768.10 3.681854
768.20 4.032884
768.30 4.310455
768.40 4.484092
768.50 4.586423
768.60 4.652143
768.70 4.674522
768.80 4.636452
768.90 4.527948
769.00 4.323939
769.10 3.989604
769.20 3.510847
769.30 2.897797
769.40 2.193409
769.50 1.461113
769.60 0.7860644
769.70 0.2460311
769.80 0
769.90 0
770.00 0
770.10 0
770.20 0.381735
770.30 0.9035647
770.40 1.496586
770.50 2.093074
770.60 2.648055
770.70 3.157493
770.80 3.606031
770.90 3.95398
771.00 4.228293
771.10 4.574935
771.20 5.169082
771.30 5.992171
771.40 6.884649
771.50 7.732599
771.60 8.482948
771.70 9.173168
771.80 9.850346
771.90 10.49526
772.00 11.03293
772.10 11.40063
772.20 11.64853
772.30 11.90047
772.40 12.17743
772.50 12.35806
772.60 12.29613
772.70 11.99823
772.80 11.56856
772.90 11.12384
773.00 10.77058
773.10 10.48599
773.20 10.21098
773.30 9.981217
773.40 9.903853
773.50 10.08878
773.60 10.53539
773.70 11.11491
773.80 11.71287
773.90 12.25551
774.00 12.71575
774.10 13.12675
774.20 13.51022
774.30 13.83247
774.40 14.07385
774.50 14.22457
774.60 14.2382
774.70 14.09135
774.80 13.80104
774.90 13.37235
775.00 12.83289
775.10 12.30346
775.20 11.899
775.30 11.58896
775.40 11.30718
775.50 11.07066
775.60 10.95918
775.70 11.0694
775.80 11.39986
775.90 11.91532
776.00 12.61316
776.10 13.43664
776.20 14.23825
776.30 14.88066
776.40 15.28237
776.50 15.36625
776.60 15.11911
776.70 14.7587
776.80 14.53352
776.90 14.53123
777.00 14.76451
777.10 15.1237
777.20 15.47288
777.30 15.76556
777.40 15.95353
777.50 15.98132
777.60 15.9024
777.70 15.81865
777.80 15.8047
777.90 15.89559
778.00 16.04696
778.10 16.16209
778.20 16.18717
778.30 16.12
778.40 15.96131
778.50 15.74803
778.60 15.53242
778.70 15.38064
778.80 15.44763
778.90 15.84611
779.00 16.52109
779.10 17.32138
779.20 18.11481
779.30 18.78117
779.40 19.17592
779.50 19.14846
779.60 18.57706
779.70 17.43256
779.80 15.82775
779.90 14.09061
780.00 12.66437
780.10 11.83327
780.20 11.63895
780.30 12.04578
780.40 12.92811
780.50 14.07492
780.60 15.27224
780.70 16.36118
780.80 17.34313
780.90 18.30085
781.00 19.28017
781.10 20.28833
781.20 21.27698
781.30 22.11106
781.40 22.65689
781.50 22.87192
781.60 22.79525
781.70 22.41485
781.80 21.77046
781.90 21.09064
782.00 20.6156
782.10 20.45042
782.20 20.58796
782.30 21.00831
782.40 21.65898
782.50 22.42991
782.60 23.20585
782.70 23.83943
782.80 24.1533
782.90 24.04137
783.00 23.54741
783.10 22.87679
783.20 22.2411
783.30 21.64236
783.40 20.99801
783.50 20.37792
783.60 19.89195
783.70 19.53594
783.80 19.27982
783.90 19.18669
784.00 19.33028
784.10 19.69266
784.20 20.21688
784.30 20.83629
784.40 21.43752
784.50 21.92157
784.60 22.31795
784.70 22.71206
784.80 23.0957
784.90 23.36588
785.00 23.46974
785.10 23.40946
785.20 23.16553
785.30 22.74003
785.40 22.20902
785.50 21.62548
785.60 20.94154
785.70 20.20415
785.80 19.58912
785.90 19.23206
786.00 19.17573
786.10 19.45265
786.20 20.09453
786.30 21.0546
786.40 22.19658
786.50 23.35564
786.60 24.35386
786.70 24.95419
786.80 24.98614
786.90 24.5428
787.00 23.92407
787.10 23.35563
787.20 22.86987
787.30 22.43258
787.40 22.02044
787.50 21.63289
787.60 21.34282
787.70 21.28466
787.80 21.55652
787.90 22.18969
788.00 23.15457
788.10 24.2755
788.20 25.29418
788.30 26.03444
788.40 26.42836
788.50 26.44059
788.60 26.08981
788.70 25.4904
788.80 24.87017
788.90 24.46143
789.00 24.33
789.10 24.4247
789.20 24.63272
789.30 24.77766
789.40 24.74913
789.50 24.61639
789.60 24.4988
789.70 24.45915
789.80 24.49443
789.90 24.56004
790.00 24.69959
790.10 25.03532
790.20 25.56714
790.30 26.18813
790.40 26.78936
790.50 27.23044
790.60 27.39343
790.70 27.29184
790.80 27.11465
790.90 27.06028
791.00 27.19392
791.10 27.41346
791.20 27.48463
791.30 27.28689
791.40 26.82018
791.50 26.1355
791.60 25.35637
791.70 24.59176
791.80 23.97535
791.90 23.7077
792.00 23.92277
792.10 24.62004
792.20 25.59289
792.30 26.54916
792.40 27.29755
792.50 27.76955
792.60 28.06054
792.70 28.29418
792.80 28.55625
792.90 28.87372
793.00 29.20361
793.10 29.53823
793.20 29.87094
793.30 30.12158
793.40 30.21712
793.50 30.11132
793.60 29.79916
793.70 29.34971
793.80 28.87776
793.90 28.50692
794.00 28.26683
794.10 28.08135
794.20 27.80746
794.30 27.27224
794.40 26.33383
794.50 24.92699
794.60 23.1177
794.70 21.09507
794.80 19.14306
794.90 17.5899
795.00 16.76263
795.10 16.84316
795.20 17.7013
795.30 19.07728
795.40 20.79847
795.50 22.67604
795.60 24.48352
795.70 26.10786
795.80 27.54865
795.90 28.8174
796.00 29.92818
796.10 30.95367
796.20 31.90622
796.30 32.64936
796.40 32.99546
796.50 32.87366
796.60 32.41154
796.70 31.76705
796.80 31.02667
796.90 30.3032
797.00 29.74532
797.10 29.42832
797.20 29.35111
797.30 29.4996
797.40 29.81914
797.50 30.15908
797.60 30.37421
797.70 30.49241
797.80 30.61278
797.90 30.73229
798.00 30.80024
798.10 30.8147
798.20 30.7902
798.30 30.69746
798.40 30.52952
798.50 30.34113
798.60 30.20497
798.70 30.19623
798.80 30.3929
798.90 30.89631
799.00 31.80765
799.10 33.13135
799.20 34.72259
799.30 36.38748
799.40 37.96713
799.50 39.28164
799.60 40.07844
799.70 40.22462
799.80 39.81178
799.90 39.01375
800.00 38.0125
800.10 37.03483
800.20 36.32287
800.30 35.98629
800.40 35.9775
800.50 36.16788
800.60 36.42693
800.70 36.63305
800.80 36.65986
800.90 36.42078
801.00 35.97273
801.10 35.43199
801.20 34.83288
801.30 34.18482
801.40 33.54947
801.50 33.00008
801.60 32.56403
801.70 32.25138
801.80 32.1159
801.90 32.20205
802.00 32.46931
802.10 32.85822
802.20 33.30043
802.30 33.76415
802.40 34.29574
802.50 34.94341
802.60 35.69787
802.70 36.51319
802.80 37.33587
802.90 38.10045
803.00 38.74135
803.10 39.17221
803.20 39.27463
803.30 38.99158
803.40 38.36051
803.50 37.45603
803.60 36.45429
803.70 35.56912
803.80 34.94375
803.90 34.67961
804.00 34.83116
804.10 35.38942
804.20 36.2524
804.30 37.23727
804.40 38.13825
804.50 38.8556
804.60 39.4067
804.70 39.75797
804.80 39.90509
804.90 39.88712
805.00 39.67002
805.10 39.26918
805.20 38.80579
805.30 38.42459
805.40 38.21418
805.50 38.20487
805.60 38.41609
805.70 38.9722
805.80 39.96098
805.90 41.1706
806.00 42.30844
806.10 43.22487
806.20 43.80659
806.30 44.03918
806.40 44.00836
806.50 43.74013
806.60 43.24059
806.70 42.57363
806.80 41.87367
806.90 41.31449
807.00 41.04803
807.10 41.0534
807.20 41.2598
807.30 41.7826
807.40 42.68503
807.50 43.88205
807.60 45.24975
807.70 46.56849
807.80 47.60127
807.90 48.2401
808.00 48.49908
808.10 48.46939
808.20 48.28931
808.30 48.04922
808.40 47.79
808.50 47.56104
808.60 47.38201
808.70 47.20528
808.80 46.96778
808.90 46.63726
809.00 46.22827
809.10 45.82268
809.20 45.50714
809.30 45.312
809.40 45.20526
809.50 45.0607
809.60 44.75789
809.70 44.31022
809.80 43.84099
809.90 43.464
810.00 43.25713
810.10 43.27822
810.20 43.53837
810.30 43.99246
810.40 44.56063
810.50 45.19341
810.60 45.86077
810.70 46.52011
810.80 47.09427
810.90 47.52579
811.00 47.80987
811.10 47.96433
811.20 47.96299
811.30 47.77144
811.40 47.37333
811.50 46.7821
811.60 46.09822
811.70 45.47299
811.80 45.06373
811.90 44.94865
812.00 45.16096
812.10 45.66876
812.20 46.40665
812.30 47.34171
812.40 48.40418
812.50 49.46644
812.60 50.37031
812.70 50.9449
812.80 51.07026
812.90 50.77254
813.00 50.20707
813.10 49.57856
813.20 49.07831
813.30 48.854
813.40 48.96533
813.50 49.41185
813.60 50.10804
813.70 50.85863
813.80 51.44037
813.90 51.71224
814.00 51.68459
814.10 51.46369
814.20 51.23107
814.30 51.1532
814.40 51.26227
814.50 51.49036
814.60 51.72547
814.70 51.82344
814.80 51.67177
814.90 51.25316
815.00 50.66711
815.10 50.08467
815.20 49.62878
815.30 49.40442
815.40 49.53914
815.50 50.12626
815.60 51.13135
815.70 52.36111
815.80 53.56021
815.90 54.52941
816.00 55.18965
816.10 55.52584
816.20 55.52574
816.30 55.26703
816.40 54.92989
816.50 54.71073
816.60 54.81572
816.70 55.30848
816.80 56.03424
816.90 56.72452
817.00 57.15727
817.10 57.29915
817.20 57.22452
817.30 56.94688
817.40 56.38613
817.50 55.5515
817.60 54.59558
817.70 53.59703
817.80 52.47317
817.90 51.06307
818.00 49.25561
818.10 47.10499
818.20 44.87512
818.30 43.00327
818.40 41.91988
818.50 41.84045
818.60 42.74978
818.70 44.48072
818.80 46.71773
818.90 48.99644
819.00 50.78061
819.10 51.56811
819.20 51.0408
819.30 49.26645
819.40 46.71913
819.50 44.04334
819.60 41.80944
819.70 40.39683
819.80 39.96975
819.90 40.47194
820.00 41.69384
820.10 43.3972
820.20 45.33505
820.30 47.24505
820.40 48.94411
820.50 50.44665
820.60 51.86348
820.70 53.1677
820.80 54.19472
820.90 54.83167
821.00 55.06116
821.10 54.9438
821.20 54.60423
821.30 54.22027
821.40 53.98902
821.50 54.0099
821.60 54.29899
821.70 54.84668
821.80 55.56648
821.90 56.25737
822.00 56.71716
822.10 56.91123
822.20 56.94171
822.30 56.93306
822.40 57.03268
822.50 57.39014
822.60 58.10965
822.70 59.19249
822.80 60.47367
822.90 61.70029
823.00 62.66686
823.10 63.24364
823.20 63.38917
823.30 63.17658
823.40 62.78918
823.50 62.44653
823.60 62.29684
823.70 62.37936
823.80 62.63804
823.90 62.94505
824.00 63.14229
824.10 63.12381
824.20 62.91081
824.30 62.61833
824.40 62.33357
824.50 62.18172
824.60 62.27048
824.70 62.60166
824.80 63.1279
824.90 63.72505
825.00 64.19194
825.10 64.25664
825.20 63.76803
825.30 62.80622
825.40 61.53897
825.50 60.18101
825.60 58.95547
825.70 58.05473
825.80 57.69415
825.90 57.95196
826.00 58.74944
826.10 59.91931
826.20 61.17616
826.30 62.19905
826.40 62.72813
826.50 62.68498
826.60 62.08362
826.70 61.00815
826.80 59.72503
826.90 58.57542
827.00 57.86505
827.10 57.68274
827.20 57.85063
827.30 58.2556
827.40 58.93043
827.50 59.82233
827.60 60.82261
827.70 61.95645
827.80 63.32019
827.90 64.86973
828.00 66.44086
828.10 67.84249
828.20 68.89235
828.30 69.43829
828.40 69.39947
828.50 68.88341
828.60 68.07672
828.70 66.98642
828.80 65.61877
828.90 64.2112
829.00 62.99308
829.10 61.94915
829.20 60.88054
829.30 59.69284
829.40 58.51462
829.50 57.49262
829.60 56.50012
829.70 55.29337
829.80 53.8821
829.90 52.51456
830.00 51.52678
830.10 51.19122
830.20 51.5356
830.30 52.38159
830.40 53.51054
830.50 54.78185
830.60 56.23908
830.70 57.953
830.80 59.79438
830.90 61.49113
831.00 63.00518
831.10 64.51567
831.20 66.04003
831.30 67.39192
831.40 68.32922
831.50 68.73873
831.60 68.64161
831.70 68.11571
831.80 67.28346
831.90 66.20757
832.00 64.85741
832.10 63.28431
832.20 61.6441
832.30 60.12351
832.40 58.8772
832.50 57.99333
832.60 57.45119
832.70 57.16665
832.80 57.09145
832.90 57.17176
833.00 57.34049
833.10 57.52899
833.20 57.68946
833.30 57.83436
833.40 58.05238
833.50 58.39736
833.60 58.78658
833.70 59.11313
833.80 59.45457
833.90 59.99466
834.00 60.88204
834.10 62.21041
834.20 63.95342
834.30 65.90714
834.40 67.72362
834.50 69.09282
834.60 69.92322
834.70 70.193
834.80 69.64317
834.90 68.03908
835.00 65.64804
835.10 63.13101
835.20 61.05879
835.30 59.74572
835.40 59.29616
835.50 59.62712
835.60 60.56145
835.70 61.87691
835.80 63.36071
835.90 64.77415
836.00 65.82518
836.10 66.38889
836.20 66.73444
836.30 67.25646
836.40 68.06102
836.50 68.99298
836.60 69.80325
836.70 70.28529
836.80 70.34498
836.90 70.00354
837.00 69.35534
837.10 68.56842
837.20 67.80466
837.30 67.19334
837.40 66.82756
837.50 66.67789
837.60 66.61352
837.70 66.44322
837.80 66.03575
837.90 65.37222
838.00 64.52949
838.10 63.6198
838.20 62.76079
838.30 62.02315
838.40 61.50288
838.50 61.38803
838.60 61.8023
838.70 62.65875
838.80 63.73885
838.90 64.84961
839.00 65.8181
839.10 66.50406
839.20 66.85626
839.30 66.87889
839.40 66.55469
839.50 65.93234
839.60 65.30886
839.70 65.11466
839.80 65.53197
839.90 66.41811
840.00 67.59426
840.10 68.95254
840.20 70.37399
840.30 71.69072
840.40 72.69989
840.50 73.2238
840.60 73.10302
840.70 72.29804
840.80 71.07424
840.90 69.79618
841.00 68.6472
841.10 67.70658
841.20 67.07786
841.30 66.79559
841.40 66.70867
841.50 66.70731
841.60 66.79429
841.70 66.90637
841.80 66.92333
841.90 66.80601
842.00 66.70366
842.10 66.88058
842.20 67.53239
842.30 68.85389
842.40 70.96975
842.50 73.70029
842.60 76.6702
842.70 79.39462
842.80 81.43724
842.90 82.45556
843.00 82.13346
843.10 80.44747
843.20 77.76682
843.30 74.68739
843.40 71.80672
843.50 69.49431
843.60 67.84454
843.70 66.68766
843.80 65.75038
843.90 64.9106
844.00 64.14762
844.10 63.55487
844.20 63.28537
844.30 63.40353
844.40 63.88921
844.50 64.58111
844.60 65.33042
844.70 66.05558
844.80 66.61678
844.90 66.87597
845.00 66.72282
845.10 66.13183
845.20 65.20143
845.30 64.04669
845.40 62.73724
845.50 61.28511
845.60 59.72674
845.70 58.23246
845.80 57.08633
845.90 56.53341
846.00 56.6508
846.10 57.35603
846.20 58.55269
846.30 60.14471
846.40 61.9364
846.50 63.63029
846.60 64.86868
846.70 65.34326
846.80 64.98068
846.90 63.95384
847.00 62.47473
847.10 60.646
847.20 58.58394
847.30 56.56172
847.40 54.88456
847.50 53.72542
847.60 53.0211
847.70 52.53454
847.80 52.0501
847.90 51.47853
848.00 50.87933
848.10 50.37899
848.20 50.06646
848.30 49.98908
848.40 50.1828
848.50 50.64566
848.60 51.238
848.70 51.74986
848.80 52.02979
848.90 51.98494
849.00 51.61362
849.10 51.13071
849.20 50.91073
849.30 51.11228
849.40 51.60839
849.50 52.28288
849.60 53.07547
849.70 53.93797
849.80 54.83947
849.90 55.86149
850.00 57.22655
850.10 59.00836
850.20 60.97325
850.30 62.785
850.40 64.17922
850.50 64.89701
850.60 64.74102
850.70 63.79295
850.80 62.349
850.90 60.76828
851.00 59.41172
851.10 58.50752
851.20 58.15708
851.30 58.31926
851.40 58.72694
851.50 59.0256
851.60 58.89529
851.70 58.06669
851.80 56.37749
851.90 53.87591
852.00 50.80687
852.10 47.52531
852.20 44.55816
852.30 42.54308
852.40 41.95022
852.50 42.85303
852.60 44.96157
852.70 47.7529
852.80 50.64774
852.90 53.23516
853.00 55.28061
853.10 56.64303
853.20 57.36606
853.30 57.68626
853.40 57.87585
853.50 58.17451
853.60 58.65547
853.70 59.11754
853.80 59.28751
853.90 59.109
854.00 58.69364
854.10 58.1759
854.20 57.74508
854.30 57.6116
854.40 57.92022
854.50 58.81626
854.60 60.4161
854.70 62.65517
854.80 65.29796
854.90 67.99048
855.00 70.2715
855.10 71.65578
855.20 71.81502
855.30 70.70452
855.40 68.58411
855.50 65.90246
855.60 63.07754
855.70 60.38887
855.80 58.1443
855.90 56.64841
856.00 55.96132
856.10 55.94148
856.20 56.41812
856.30 57.23222
856.40 58.18815
856.50 59.05982
856.60 59.62476
856.70 59.71805
856.80 59.34069
856.90 58.67882
857.00 58.02904
857.10 57.71855
857.20 57.89733
857.30 58.5029
857.40 59.43624
857.50 60.5259
857.60 61.49566
857.70 62.129
857.80 62.42873
857.90 62.54282
858.00 62.62749
858.10 62.85627
858.20 63.34653
858.30 64.08471
858.40 64.93866
858.50 65.66614
858.60 65.99528
858.70 65.75867
858.80 64.94732
858.90 63.71401
859.00 62.3114
859.10 61.06759
859.20 60.36774
859.30 60.57247
859.40 61.91894
859.50 64.39291
859.60 67.47201
859.70 70.36237
859.80 72.53049
859.90 73.68755
860.00 73.74038
860.10 72.83075
860.20 71.30055
860.30 69.59731
860.40 68.13569
860.50 67.13215
860.60 66.52269
860.70 66.05992
860.80 65.44208
860.90 64.39803
861.00 62.90752
861.10 61.08888
861.20 58.85305
861.30 56.16012
861.40 53.27351
861.50 50.59508
861.60 48.46621
861.70 47.006
861.80 46.08649
861.90 45.51975
862.00 45.15409
862.10 44.85782
862.20 44.54052
862.30 44.16912
862.40 43.80398
862.50 43.54529
862.60 43.49765
862.70 43.72638
862.80 44.1253
862.90 44.55247
863.00 44.92864
863.10 45.26465
863.20 45.70428
863.30 46.29931
863.40 46.93681
863.50 47.48556
863.60 47.8532
863.70 47.92511
863.80 47.58796
863.90 46.94121
864.00 46.33096
864.10 46.01917
864.20 46.05487
864.30 46.33467
864.40 46.67473
864.50 46.91453
864.60 46.95895
864.70 46.91185
864.80 47.04549
864.90 47.6283
865.00 48.80297
865.10 50.53842
865.20 52.60813
865.30 54.37504
865.40 55.0703
865.50 54.39856
865.60 52.75288
865.70 50.86089
865.80 49.35421
865.90 48.69277
866.00 49.1513
866.10 50.75755
866.20 53.19997
866.30 55.92773
866.40 58.31318
866.50 59.87216
866.60 60.44245
866.70 60.33728
866.80 60.00537
866.90 59.57997
867.00 58.82819
867.10 57.57052
867.20 56.04773
867.30 54.62438
867.40 53.54431
867.50 52.98792
867.60 53.11636
867.70 53.87644
867.80 55.02839
867.90 56.255
868.00 57.21837
868.10 57.66002
868.20 57.51597
868.30 56.97871
868.40 56.40778
868.50 56.02244
868.60 55.68946
868.70 55.16545
868.80 54.25185
868.90 52.73273
869.00 50.47
869.10 47.60041
869.20 44.47646
869.30 41.59584
869.40 39.4639
869.50 38.35691
869.60 38.30088
869.70 39.17522
869.80 40.76126
869.90 42.71071
870.00 44.587
870.10 46.01407
870.20 46.78253
870.30 46.80822
870.40 46.10872
870.50 44.82976
870.60 43.21135
870.70 41.41585
870.80 39.48345
870.90 37.51353
871.00 35.71029
871.10 34.34928
871.20 33.69177
871.30 33.82055
871.40 34.61259
871.50 35.8687
871.60 37.39832
871.70 38.93256
871.80 40.13908
871.90 40.79607
872.00 40.88885
872.10 40.53091
872.20 39.94298
872.30 39.4892
872.40 39.54183
872.50 40.20361
872.60 41.26063
872.70 42.45198
872.80 43.61329
872.90 44.56997
873.00 45.15827
873.10 45.38415
873.20 45.35059
873.30 45.14977
873.40 44.85831
873.50 44.6265
873.60 44.63644
873.70 44.93676
873.80 45.47037
873.90 46.27434
874.00 47.445
874.10 48.85674
874.20 50.1085
874.30 50.83958
874.40 50.90783
874.50 50.25627
874.60 49.0184
874.70 47.5065
874.80 46.02085
874.90 44.82348
875.00 44.116
875.10 43.94642
875.20 44.13238
875.30 44.42363
875.40 44.69558
875.50 45.00296
875.60 45.5569
875.70 46.39712
875.80 47.2748
875.90 47.99388
876.00 48.51977
876.10 48.82722
876.20 48.86932
876.30 48.71319
876.40 48.58227
876.50 48.85107
876.60 49.94008
876.70 52.03982
876.80 55.02641
876.90 58.60125
877.00 62.34153
877.10 65.867
877.20 68.83729
877.30 70.96282
877.40 72.18155
877.50 72.55795
877.60 72.00489
877.70 70.42955
877.80 67.96717
877.90 64.88326
878.00 61.56609
878.10 58.40574
878.20 55.68715
878.30 53.56935
878.40 52.13321
878.50 51.41488
878.60 51.54883
878.70 52.64342
878.80 54.44008
878.90 56.46744
879.00 58.47358
879.10 60.33059
879.20 61.91547
879.30 63.07837
879.40 63.57464
879.50 63.25158
879.60 62.07569
879.70 60.19854
879.80 57.96066
879.90 55.74771
880.00 53.84689
880.10 52.39858
880.20 51.47664
880.30 51.18318
880.40 51.62575
880.50 52.69642
880.60 53.91185
880.70 54.77115
880.80 55.12646
880.90 55.16157
881.00 55.23232
881.10 55.65227
881.20 56.64112
881.30 58.33695
881.40 60.70553
881.50 63.59286
881.60 66.77117
881.70 69.90902
881.80 72.6275
881.90 74.49701
882.00 75.39835
882.10 75.5921
882.20 75.2945
882.30 74.50971
882.40 73.16799
882.50 71.34999
882.60 69.41579
882.70 67.93829
882.80 67.34077
882.90 67.62275
883.00 68.50554
883.10 69.62187
883.20 70.58761
883.30 71.34341
883.40 71.91438
883.50 72.20458
883.60 72.22699
883.70 72.13731
883.80 72.26137
883.90 72.84308
884.00 73.64773
884.10 73.97437
884.20 73.2084
884.30 71.25321
884.40 68.3856
884.50 65.10521
884.60 62.05472
884.70 59.88192
884.80 59.11821
884.90 59.93317
885.00 62.15406
885.10 65.40775
885.20 69.05743
885.30 72.31167
885.40 74.51805
885.50 75.40157
885.60 75.02773
885.70 73.54625
885.80 71.21996
885.90 68.57178
886.00 66.29522
886.10 64.84836
886.20 64.33252
886.30 64.7229
886.40 65.84462
886.50 67.29104
886.60 68.51638
886.70 68.97335
886.80 68.30736
886.90 66.47302
887.00 63.73722
887.10 60.69262
887.20 58.08842
887.30 56.49801
887.40 56.19057
887.50 57.22503
887.60 59.48305
887.70 62.61011
887.80 66.01591
887.90 69.14379
888.00 71.83872
888.10 74.09013
888.20 75.85768
888.30 77.12259
888.40 77.86225
888.50 78.21509
888.60 78.49221
888.70 78.95572
888.80 79.58056
888.90 80.06942
889.00 80.05975
889.10 79.25582
889.20 77.44972
889.30 74.54774
889.40 70.49493
889.50 65.65924
889.60 60.93965
889.70 57.30386
889.80 55.49841
889.90 55.66813
890.00 57.2413
890.10 59.38034
890.20 61.43604
890.30 63.0669
890.40 64.07526
890.50 64.36393
890.60 64.05677
890.70 63.45863
890.80 62.98687
890.90 63.03131
891.00 63.76755
891.10 65.2108
891.20 67.15924
891.30 69.34397
891.40 71.56393
891.50 73.60567
891.60 75.29398
891.70 76.47283
891.80 77.07968
891.90 77.17651
892.00 76.93619
892.10 76.58706
892.20 76.27971
892.30 76.04875
892.40 75.79034
892.50 75.25655
892.60 74.24848
892.70 72.66001
892.80 70.67555
892.90 68.86076
893.00 67.82785
893.10 68.03919
893.20 69.6218
893.30 72.34609
893.40 75.7546
893.50 79.18087
893.60 81.81056
893.70 82.78244
893.80 81.49406
893.90 77.96827
894.00 72.77939
894.10 66.69348
894.20 60.43751
894.30 54.75851
894.40 50.40506
894.50 47.77329
894.60 46.87182
894.70 47.59952
894.80 49.74031
894.90 52.88458
895.00 56.64555
895.10 60.87295
895.20 65.51779
895.30 70.3925
895.40 75.17963
895.50 79.65387
895.60 83.62782
895.70 86.75201
895.80 88.6753
895.90 89.35276
896.00 89.09663
896.10 88.12657
896.20 86.4106
896.30 84.07526
896.40 81.50907
896.50 79.09488
896.60 76.94595
896.70 75.0291
896.80 73.49929
896.90 72.60291
897.00 72.43281
897.10 72.91045
897.20 73.87288
897.30 75.13651
897.40 76.37881
897.50 77.27934
897.60 77.74144
897.70 77.76839
897.80 77.31139
897.90 76.41576
898.00 75.43084
898.10 74.79749
898.20 74.69671
898.30 75.1059
898.40 76.15193
898.50 77.94498
898.60 80.10769
898.70 82.02294
898.80 83.17058
898.90 83.3725
899.00 82.91316
899.10 82.26265
899.20 81.81559
899.30 81.71926
899.40 81.88075
899.50 82.11791
899.60 82.16893
899.70 81.80841
899.80 80.82801
899.90 79.05929
900.00 79.13043
900.10 79.20156
900.20 79.2727
900.30 79.34383
900.40 79.41497
900.50 79.48611
900.60 79.55724
900.70 79.62838
900.80 79.69951
900.90 79.77065
901.00 79.84179
901.10 79.91292
901.20 79.98406
901.30 80.0552
901.40 80.12633
901.50 80.19747
901.60 80.2686
901.70 80.33974
901.80 80.41088
901.90 80.48201
902.00 80.55315
902.10 80.62429
902.20 80.69542
902.30 80.76656
902.40 80.83769
902.50 80.90883
902.60 80.97997
902.70 81.0511
902.80 81.12224
902.90 81.19337
903.00 81.26451
903.10 81.33565
903.20 81.34988
903.30 81.36354
903.40 81.3772
903.50 81.39086
903.60 81.40451
903.70 81.41817
903.80 81.43183
903.90 81.44549
904.00 81.45915
904.10 81.47281
904.20 81.48646
904.30 81.50012
904.40 81.51378
904.50 81.52744
904.60 81.5411
904.70 81.55476
904.80 81.56842
904.90 81.58207
905.00 81.59573
905.10 81.60939
905.20 81.62305
905.30 81.63671
905.40 81.65037
905.50 81.66402
905.60 81.67768
905.70 81.69134
905.80 81.705
905.90 81.71866
906.00 81.73232
906.10 81.74597
906.20 81.75963
906.30 81.77329
906.40 81.78695
906.50 81.80061
906.60 81.81982
906.70 81.84142
906.80 81.86301
906.90 81.88461
907.00 81.9062
907.10 81.9278
907.20 81.9494
907.30 81.97099
907.40 81.99259
907.50 82.01418
907.60 82.03578
907.70 82.05737
907.80 82.07897
907.90 82.10056
908.00 82.12216
908.10 82.14376
908.20 82.16535
908.30 82.18695
908.40 82.20854
908.50 82.23014
908.60 82.25173
908.70 82.27333
908.80 82.29492
908.90 82.31652
909.00 82.33812
909.10 82.35971
909.20 82.38131
909.30 82.4029
909.40 82.4245
909.50 82.44609
909.60 82.46769
909.70 82.48928
909.80 82.51088
909.90 82.53248
910.00 82.55214
910.10 82.56535
910.20 82.57855
910.30 82.59176
910.40 82.60496
910.50 82.61817
910.60 82.63137
910.70 82.64458
910.80 82.65778
910.90 82.67099
911.00 82.68419
911.10 82.6974
911.20 82.7106
911.30 82.72381
911.40 82.73701
911.50 82.75022
911.60 82.76342
911.70 82.77663
911.80 82.78984
911.90 82.80304
912.00 82.81625
912.10 82.82945
912.20 82.84266
912.30 82.85586
912.40 82.86907
912.50 82.88227
912.60 82.89548
912.70 82.90868
912.80 82.92189
912.90 82.93509
913.00 82.9483
913.10 82.9615
913.20 82.97471
913.30 82.98791
913.40 83.00112
913.50 83.02353
913.60 83.05289
913.70 83.08226
913.80 83.11162
913.90 83.14098
914.00 83.17034
914.10 83.1997
914.20 83.22906
914.30 83.25842
914.40 83.28778
914.50 83.31714
914.60 83.34651
914.70 83.37587
914.80 83.40523
914.90 83.43459
915.00 83.46395
915.10 83.49331
915.20 83.52267
915.30 83.55203
915.40 83.58139
915.50 83.61075
915.60 83.64012
915.70 83.66948
915.80 83.69884
915.90 83.7282
916.00 83.75756
916.10 83.78692
916.20 83.81628
916.30 83.84564
916.40 83.875
916.50 83.90437
916.60 83.93373
916.70 83.96309
916.80 83.99245
916.90 84.02181
917.00 84.04089
917.10 84.05635
917.20 84.07181
917.30 84.08727
917.40 84.10274
917.50 84.1182
917.60 84.13366
917.70 84.14912
917.80 84.16458
917.90 84.18005
918.00 84.19551
918.10 84.21097
918.20 84.22643
918.30 84.2419
918.40 84.25736
918.50 84.27282
918.60 84.28828
918.70 84.30374
918.80 84.31921
918.90 84.33467
919.00 84.35013
919.10 84.36559
919.20 84.38106
919.30 84.39652
919.40 84.41198
919.50 84.42744
919.60 84.44291
919.70 84.45837
919.80 84.47383
919.90 84.48929
920.00 84.50475
920.10 84.52022
920.20 84.53568
920.30 84.55114
920.40 84.5666
920.50 84.58597
920.60 84.60671
920.70 84.62744
920.80 84.64818
920.90 84.66892
921.00 84.68966
921.10 84.71039
921.20 84.73113
921.30 84.75187
921.40 84.7726
921.50 84.79334
921.60 84.81408
921.70 84.83482
921.80 84.85555
921.90 84.87629
922.00 84.89703
922.10 84.91776
922.20 84.9385
922.30 84.95924
922.40 84.97998
922.50 85.00071
922.60 85.02145
922.70 85.04219
922.80 85.06293
922.90 85.08366
923.00 85.1044
923.10 85.12514
923.20 85.14587
923.30 85.16661
923.40 85.18735
923.50 85.20809
923.60 85.22882
923.70 85.24956
923.80 85.2703
923.90 85.29103
924.00 85.28914
924.10 85.26947
924.20 85.2498
924.30 85.23013
924.40 85.21045
924.50 85.19078
924.60 85.17111
924.70 85.15144
924.80 85.13177
924.90 85.11209
925.00 85.09242
925.10 85.07275
925.20 85.05308
925.30 85.03341
925.40 85.01373
925.50 84.99406
925.60 84.97439
925.70 84.95472
925.80 84.93505
925.90 84.91537
926.00 84.8957
926.10 84.87603
926.20 84.85636
926.30 84.83669
926.40 84.81701
926.50 84.79734
926.60 84.77767
926.70 84.758
926.80 84.73833
926.90 84.71865
927.00 84.69898
927.10 84.67931
927.20 84.65964
927.30 84.63997
927.40 84.62029
927.50 84.60037
927.60 84.57944
927.70 84.55851
927.80 84.53757
927.90 84.51664
928.00 84.49571
928.10 84.47478
928.20 84.45385
928.30 84.43291
928.40 84.41198
928.50 84.39105
928.60 84.37012
928.70 84.34919
928.80 84.32825
928.90 84.30732
929.00 84.28639
929.10 84.26546
929.20 84.24453
929.30 84.22359
929.40 84.20266
929.50 84.18173
929.60 84.1608
929.70 84.13987
929.80 84.11893
929.90 84.098
930.00 84.07707
930.10 84.05614
930.20 84.03521
930.30 84.01427
930.40 83.99334
930.50 83.97241
930.60 83.95148
930.70 83.93055
930.80 83.90961
930.90 83.88868
931.00 83.86775
931.10 83.88775
931.20 83.9279
931.30 83.96805
931.40 84.00821
931.50 84.04836
931.60 84.08852
931.70 84.12867
931.80 84.16883
931.90 84.20898
932.00 84.24914
932.10 84.28929
932.20 84.32944
932.30 84.3696
932.40 84.40975
932.50 84.44991
932.60 84.49006
932.70 84.53022
932.80 84.57037
932.90 84.61053
933.00 84.65068
933.10 84.69084
933.20 84.73099
933.30 84.77114
933.40 84.8113
933.50 84.85145
933.60 84.89161
933.70 84.93176
933.80 84.97192
933.90 85.01207
934.00 85.05223
934.10 85.09238
934.20 85.13254
934.30 85.17269
934.40 85.21284
934.50 85.253
934.60 85.29315
934.70 85.32272
934.80 85.35195
934.90 85.38118
935.00 85.41042
935.10 85.43965
935.20 85.46888
935.30 85.49812
935.40 85.52735
935.50 85.55659
935.60 85.58582
935.70 85.61505
935.80 85.64429
935.90 85.67352
936.00 85.70275
936.10 85.73199
936.20 85.76122
936.30 85.79046
936.40 85.81969
936.50 85.84892
936.60 85.87816
936.70 85.90739
936.80 85.93663
936.90 85.96586
937.00 85.99509
937.10 86.02433
937.20 86.05356
937.30 86.08279
937.40 86.11203
937.50 86.14126
937.60 86.1705
937.70 86.19973
937.80 86.22896
937.90 86.2582
938.00 86.28743
938.10 86.31666
938.20 86.3428
938.30 86.3411
938.40 86.33939
938.50 86.33768
938.60 86.33598
938.70 86.33427
938.80 86.33256
938.90 86.33086
939.00 86.32915
939.10 86.32744
939.20 86.32574
939.30 86.32403
939.40 86.32232
939.50 86.32062
939.60 86.31891
939.70 86.3172
939.80 86.3155
939.90 86.31379
940.00 86.31208
940.10 86.31038
940.20 86.30867
940.30 86.30696
940.40 86.30526
940.50 86.30355
940.60 86.30184
940.70 86.30013
940.80 86.29843
940.90 86.29672
941.00 86.29501
941.10 86.29331
941.20 86.2916
941.30 86.28989
941.40 86.28819
941.50 86.28648
941.60 86.28477
941.70 86.28307
941.80 86.28239
941.90 86.29542
942.00 86.30845
942.10 86.32147
942.20 86.3345
942.30 86.34753
942.40 86.36056
942.50 86.37359
942.60 86.38661
942.70 86.39964
942.80 86.41267
942.90 86.4257
943.00 86.43873
943.10 86.45175
943.20 86.46478
943.30 86.47781
943.40 86.49084
943.50 86.50386
943.60 86.51689
943.70 86.52992
943.80 86.54295
943.90 86.55598
944.00 86.569
944.10 86.58203
944.20 86.59506
944.30 86.60809
944.40 86.62112
944.50 86.63414
944.60 86.64717
944.70 86.6602
944.80 86.67323
944.90 86.68625
945.00 86.69928
945.10 86.71231
945.20 86.72534
945.30 86.73837
945.40 86.75139
945.50 86.77431
945.60 86.7987
945.70 86.82309
945.80 86.84748
945.90 86.87187
946.00 86.89626
946.10 86.92065
946.20 86.94505
946.30 86.96944
946.40 86.99383
946.50 87.01822
946.60 87.04261
946.70 87.067
946.80 87.09139
946.90 87.11578
947.00 87.14017
947.10 87.16457
947.20 87.18896
947.30 87.21335
947.40 87.23774
947.50 87.26213
947.60 87.28652
947.70 87.31091
947.80 87.3353
947.90 87.35969
948.00 87.38409
948.10 87.40848
948.20 87.43287
948.30 87.45726
948.40 87.48165
948.50 87.50604
948.60 87.53043
948.70 87.55482
948.80 87.57921
948.90 87.60361
949.00 87.628
949.10 87.65506
949.20 87.68478
949.30 87.71451
949.40 87.74424
949.50 87.77396
949.60 87.80369
949.70 87.83342
949.80 87.86314
949.90 87.89287
950.00 87.9226
950.10 87.95232
950.20 87.98205
950.30 88.01178
950.40 88.04151
950.50 88.07123
950.60 88.10096
950.70 88.13069
950.80 88.16041
950.90 88.19014
951.00 88.21987
951.10 88.24959
951.20 88.27932
951.30 88.30905
951.40 88.33877
951.50 88.3685
951.60 88.39823
951.70 88.42796
951.80 88.45768
951.90 88.48741
952.00 88.51714
952.10 88.54686
952.20 88.57659
952.30 88.60632
952.40 88.63604
952.50 88.66577
952.60 88.6955
952.70 88.72522
952.80 88.72952
952.90 88.73303
953.00 88.73654
953.10 88.74005
953.20 88.74356
953.30 88.74707
953.40 88.75058
953.50 88.75409
953.60 88.75759
953.70 88.7611
953.80 88.76461
953.90 88.76812
954.00 88.77163
954.10 88.77514
954.20 88.77865
954.30 88.78216
954.40 88.78567
954.50 88.78918
954.60 88.79269
954.70 88.7962
954.80 88.79971
954.90 88.80321
955.00 88.80672
955.10 88.81023
955.20 88.81374
955.30 88.81725
955.40 88.82076
955.50 88.82427
955.60 88.82778
955.70 88.83129
955.80 88.8348
955.90 88.83831
956.00 88.84182
956.10 88.84533
956.20 88.84884
956.30 88.85234
956.40 88.85616
956.50 88.86076
956.60 88.86535
956.70 88.86995
956.80 88.87455
956.90 88.87915
957.00 88.88375
957.10 88.88834
957.20 88.89294
957.30 88.89754
957.40 88.90214
957.50 88.90674
957.60 88.91133
957.70 88.91593
957.80 88.92053
957.90 88.92513
958.00 88.92973
958.10 88.93432
958.20 88.93892
958.30 88.94352
958.40 88.94812
958.50 88.95272
958.60 88.95731
958.70 88.96191
958.80 88.96651
958.90 88.97111
959.00 88.97571
959.10 88.9803
959.20 88.9849
959.30 88.9895
959.40 88.9941
959.50 88.9987
959.60 89.00329
959.70 89.00789
959.80 89.01249
959.90 89.01709
960.00 89.02169
960.10 89.01893
960.20 89.00642
960.30 88.99391
960.40 88.9814
960.50 88.9689
960.60 88.95639
960.70 88.94388
960.80 88.93137
960.90 88.91886
961.00 88.90636
961.10 88.89385
961.20 88.88134
961.30 88.86883
961.40 88.85632
961.50 88.84382
961.60 88.83131
961.70 88.8188
961.80 88.80629
961.90 88.79378
962.00 88.78127
962.10 88.76877
962.20 88.75626
962.30 88.74375
962.40 88.73124
962.50 88.71873
962.60 88.70623
962.70 88.69372
962.80 88.68121
962.90 88.6687
963.00 88.65619
963.10 88.64369
963.20 88.63118
963.30 88.61867
963.40 88.60616
963.50 88.59365
963.60 88.58114
963.70 88.56864
963.80 88.57251
963.90 88.59901
964.00 88.62551
964.10 88.65201
964.20 88.67851
964.30 88.70501
964.40 88.73151
964.50 88.75801
964.60 88.78451
964.70 88.81101
964.80 88.83751
964.90 88.86401
965.00 88.89051
965.10 88.91701
965.20 88.94351
965.30 88.97001
965.40 88.99651
965.50 89.02301
965.60 89.04951
965.70 89.07601
965.80 89.10251
965.90 89.12901
966.00 89.15551
966.10 89.18201
966.20 89.20851
966.30 89.23501
966.40 89.26151
966.50 89.28801
966.60 89.31451
966.70 89.34101
966.80 89.36751
966.90 89.39401
967.00 89.4205
967.10 89.447
967.20 89.4735
967.30 89.5
967.40 89.5265
967.50 89.54791
967.60 89.55482
967.70 89.56173
967.80 89.56863
967.90 89.57554
968.00 89.58245
968.10 89.58936
968.20 89.59627
968.30 89.60318
968.40 89.61008
968.50 89.61699
968.60 89.6239
968.70 89.63081
968.80 89.63772
968.90 89.64462
969.00 89.65153
969.10 89.65844
969.20 89.66535
969.30 89.67226
969.40 89.67917
969.50 89.68607
969.60 89.69298
969.70 89.69989
969.80 89.7068
969.90 89.71371
970.00 89.72061
970.10 89.72752
970.20 89.73443
970.30 89.74134
970.40 89.74825
970.50 89.75516
970.60 89.76206
970.70 89.76897
970.80 89.77588
970.90 89.78279
971.00 89.7897
971.10 89.7966
971.20 89.80351
971.30 89.8257
971.40 89.84887
971.50 89.87203
971.60 89.8952
971.70 89.91836
971.80 89.94153
971.90 89.96469
972.00 89.98786
972.10 90.01102
972.20 90.03419
972.30 90.05735
972.40 90.08052
972.50 90.10368
972.60 90.12685
972.70 90.15001
972.80 90.17318
972.90 90.19634
973.00 90.21951
973.10 90.24267
973.20 90.26584
973.30 90.289
973.40 90.31217
973.50 90.33533
973.60 90.3585
973.70 90.38166
973.80 90.40483
973.90 90.42799
974.00 90.45116
974.10 90.47432
974.20 90.49749
974.30 90.52066
974.40 90.54382
974.50 90.56699
974.60 90.59015
974.70 90.61332
974.80 90.63648
974.90 90.65965
975.00 90.69094
975.10 90.7314
975.20 90.77185
975.30 90.81231
975.40 90.85277
975.50 90.89323
975.60 90.93368
975.70 90.97414
975.80 91.0146
975.90 91.05505
976.00 91.09551
976.10 91.13597
976.20 91.17643
976.30 91.21688
976.40 91.25734
976.50 91.2978
976.60 91.33826
976.70 91.37871
976.80 91.41917
976.90 91.45963
977.00 91.50009
977.10 91.54054
977.20 91.581
977.30 91.62146
977.40 91.66192
977.50 91.70237
977.60 91.74283
977.70 91.78329
977.80 91.82375
977.90 91.8642
978.00 91.90466
978.10 91.94512
978.20 91.98557
978.30 92.02603
978.40 92.06649
978.50 92.10695
978.60 92.1474
978.70 92.18786
978.80 92.18729
978.90 92.17947
979.00 92.17166
979.10 92.16384
979.20 92.15602
979.30 92.14821
979.40 92.14039
979.50 92.13258
979.60 92.12476
979.70 92.11695
979.80 92.10913
979.90 92.10132
980.00 92.0935
980.10 92.08568
980.20 92.07787
980.30 92.07005
980.40 92.06224
980.50 92.05442
980.60 92.04661
980.70 92.03879
980.80 92.03097
980.90 92.02316
981.00 92.01534
981.10 92.00753
981.20 91.99971
981.30 91.9919
981.40 91.98408
981.50 91.97627
981.60 91.96845
981.70 91.96063
981.80 91.95282
981.90 91.945
982.00 91.93719
982.10 91.92937
982.20 91.92156
982.30 91.91374
982.40 91.90592
982.50 91.8947
982.60 91.84433
982.70 91.79395
982.80 91.74358
982.90 91.6932
983.00 91.64283
983.10 91.59245
983.20 91.54208
983.30 91.4917
983.40 91.44132
983.50 91.39095
983.60 91.34057
983.70 91.2902
983.80 91.23982
983.90 91.18945
984.00 91.13907
984.10 91.08869
984.20 91.03832
984.30 90.98794
984.40 90.93757
984.50 90.88719
984.60 90.83682
984.70 90.78644
984.80 90.73607
984.90 90.68569
985.00 90.63531
985.10 90.58494
985.20 90.53456
985.30 90.48419
985.40 90.43381
985.50 90.38344
985.60 90.33306
985.70 90.28268
985.80 90.23231
985.90 90.18193
986.00 90.13156
986.10 90.08118
986.20 90.03081
986.30 89.97859
986.40 89.91671
986.50 89.85483
986.60 89.79295
986.70 89.73107
986.80 89.66918
986.90 89.6073
987.00 89.54542
987.10 89.48354
987.20 89.42166
987.30 89.35978
987.40 89.2979
987.50 89.23602
987.60 89.17413
987.70 89.11225
987.80 89.05037
987.90 88.98849
988.00 88.92661
988.10 88.86473
988.20 88.80285
988.30 88.74097
988.40 88.67908
988.50 88.6172
988.60 88.55532
988.70 88.49344
988.80 88.43156
988.90 88.36968
989.00 88.3078
989.10 88.24592
989.20 88.18403
989.30 88.12215
989.40 88.06027
989.50 87.99839
989.60 87.93651
989.70 87.87463
989.80 87.81275
989.90 87.75087
990.00 87.68899
990.10 87.62801
990.20 87.57516
990.30 87.52232
990.40 87.46948
990.50 87.41663
990.60 87.36379
990.70 87.31094
990.80 87.2581
990.90 87.20526
991.00 87.15241
991.10 87.09957
991.20 87.04672
991.30 86.99388
991.40 86.94104
991.50 86.88819
991.60 86.83535
991.70 86.7825
991.80 86.72966
991.90 86.67682
992.00 86.62397
992.10 86.57113
992.20 86.51828
992.30 86.46544
992.40 86.4126
992.50 86.35975
992.60 86.30691
992.70 86.25407
992.80 86.20122
992.90 86.14838
993.00 86.09553
993.10 86.04269
993.20 85.98985
993.30 85.937
993.40 85.88416
993.50 85.83131
993.60 85.77847
993.70 85.72563
993.80 85.67278
993.90 85.61994
994.00 85.5828
994.10 85.5474
994.20 85.512
994.30 85.4766
994.40 85.4412
994.50 85.40581
994.60 85.37041
994.70 85.33501
994.80 85.29961
994.90 85.26422
995.00 85.22882
995.10 85.19342
995.20 85.15802
995.30 85.12263
995.40 85.08723
995.50 85.05183
995.60 85.01643
995.70 84.98104
995.80 84.94564
995.90 84.91024
996.00 84.87484
996.10 84.83944
996.20 84.80405
996.30 84.76865
996.40 84.73325
996.50 84.69785
996.60 84.66246
996.70 84.62706
996.80 84.59166
996.90 84.55626
997.00 84.52087
997.10 84.48547
997.20 84.45007
997.30 84.41467
997.40 84.37928
997.50 84.34388
997.60 84.30848
997.70 84.27308
997.80 84.27023
997.90 84.29399
998.00 84.31776
998.10 84.34153
998.20 84.36529
998.30 84.38906
998.40 84.41283
998.50 84.43659
998.60 84.46036
998.70 84.48413
998.80 84.50789
998.90 84.53166
999.00 84.55543
999.10 84.57919
999.20 84.60296
999.30 84.62673
999.40 84.65049
999.50 84.67426
999.60 84.69803
999.70 84.72179
999.80 84.74556
999.90 84.76933
1000.00 84.79309
1000.10 84.81686
1000.20 84.84063
1000.30 84.8644
1000.40 84.88816
1000.50 84.91193
1000.60 84.9357
1000.70 84.95946
1000.80 84.98323
1000.90 85.007
1001.00 85.03076
1001.10 85.05453
1001.20 85.0783
1001.30 85.10206
1001.40 85.12583
1001.50 85.1496
1001.60 85.17339
1001.70 85.19741
1001.80 85.22143
1001.90 85.24545
1002.00 85.26946
1002.10 85.29348
1002.20 85.3175
1002.30 85.34152
1002.40 85.36554
1002.50 85.38956
1002.60 85.41358
1002.70 85.4376
1002.80 85.46162
1002.90 85.48563
1003.00 85.50965
1003.10 85.53367
1003.20 85.55769
1003.30 85.58171
1003.40 85.60573
1003.50 85.62975
1003.60 85.65377
1003.70 85.67779
1003.80 85.7018
1003.90 85.72582
1004.00 85.74984
1004.10 85.77386
1004.20 85.79788
1004.30 85.8219
1004.40 85.84592
1004.50 85.86994
1004.60 85.89396
1004.70 85.91797
1004.80 85.94199
1004.90 85.96601
1005.00 85.99003
1005.10 86.01405
1005.20 86.03807
1005.30 86.06209
1005.40 86.08611
1005.50 86.11854
1005.60 86.1636
1005.70 86.20865
1005.80 86.25371
1005.90 86.29877
1006.00 86.34382
1006.10 86.38888
1006.20 86.43394
1006.30 86.47899
1006.40 86.52405
1006.50 86.56911
1006.60 86.61416
1006.70 86.65922
1006.80 86.70428
1006.90 86.74933
1007.00 86.79439
1007.10 86.83944
1007.20 86.8845
1007.30 86.92956
1007.40 86.97461
1007.50 87.01967
1007.60 87.06473
1007.70 87.10978
1007.80 87.15484
1007.90 87.1999
1008.00 87.24495
1008.10 87.29001
1008.20 87.33507
1008.30 87.38012
1008.40 87.42518
1008.50 87.47024
1008.60 87.51529
1008.70 87.56035
1008.80 87.60541
1008.90 87.65046
1009.00 87.69552
1009.10 87.74058
1009.20 87.78563
1009.30 87.83069
1009.40 87.85766
1009.50 87.87689
1009.60 87.89611
1009.70 87.91533
1009.80 87.93456
1009.90 87.95378
1010.00 87.97301
1010.10 87.99223
1010.20 88.01145
1010.30 88.03068
1010.40 88.0499
1010.50 88.06913
1010.60 88.08835
1010.70 88.10757
1010.80 88.1268
1010.90 88.14602
1011.00 88.16525
1011.10 88.18447
1011.20 88.20369
1011.30 88.22292
1011.40 88.24214
1011.50 88.26136
1011.60 88.28059
1011.70 88.29981
1011.80 88.31904
1011.90 88.33826
1012.00 88.35748
1012.10 88.37671
1012.20 88.39593
1012.30 88.41516
1012.40 88.43438
1012.50 88.4536
1012.60 88.47283
1012.70 88.49205
1012.80 88.51128
1012.90 88.5305
1013.00 88.54972
1013.10 88.56895
1013.20 88.58817
1013.30 88.59115
1013.40 88.59006
1013.50 88.58897
1013.60 88.58789
1013.70 88.5868
1013.80 88.58571
1013.90 88.58463
1014.00 88.58354
1014.10 88.58245
1014.20 88.58136
1014.30 88.58028
1014.40 88.57919
1014.50 88.5781
1014.60 88.57702
1014.70 88.57593
1014.80 88.57484
1014.90 88.57376
1015.00 88.57267
1015.10 88.57158
1015.20 88.5705
1015.30 88.56941
1015.40 88.56832
1015.50 88.56724
1015.60 88.56615
1015.70 88.56506
1015.80 88.56397
1015.90 88.56289
1016.00 88.5618
1016.10 88.56071
1016.20 88.55963
1016.30 88.55854
1016.40 88.55745
1016.50 88.55637
1016.60 88.55528
1016.70 88.55419
1016.80 88.55311
1016.90 88.55202
1017.00 88.55093
1017.10 88.54985
1017.20 88.56474
1017.30 88.58363
1017.40 88.60252
1017.50 88.62141
1017.60 88.64031
1017.70 88.6592
1017.80 88.67809
1017.90 88.69698
1018.00 88.71587
1018.10 88.73476
1018.20 88.75365
1018.30 88.77254
1018.40 88.79143
1018.50 88.81033
1018.60 88.82922
1018.70 88.84811
1018.80 88.867
1018.90 88.88589
1019.00 88.90478
1019.10 88.92367
1019.20 88.94256
1019.30 88.96145
1019.40 88.98034
1019.50 88.99924
1019.60 89.01813
1019.70 89.03702
1019.80 89.05591
1019.90 89.0748
1020.00 89.09369
1020.10 89.11258
1020.20 89.13147
1020.30 89.15036
1020.40 89.16926
1020.50 89.18815
1020.60 89.20704
1020.70 89.22593
1020.80 89.24482
1020.90 89.26371
1021.00 89.2826
1021.10 89.29062
1021.20 89.29139
1021.30 89.29217
1021.40 89.29294
1021.50 89.29371
1021.60 89.29449
1021.70 89.29526
1021.80 89.29603
1021.90 89.2968
1022.00 89.29758
1022.10 89.29835
1022.20 89.29912
1022.30 89.2999
1022.40 89.30067
1022.50 89.30144
1022.60 89.30221
1022.70 89.30299
1022.80 89.30376
1022.90 89.30453
1023.00 89.30531
1023.10 89.30608
1023.20 89.30685
1023.30 89.30762
1023.40 89.3084
1023.50 89.30917
1023.60 89.30994
1023.70 89.31071
1023.80 89.31149
1023.90 89.31226
1024.00 89.31303
1024.10 89.31381
1024.20 89.31458
1024.30 89.31535
1024.40 89.31612
1024.50 89.3169
1024.60 89.31767
1024.70 89.31844
1024.80 89.31922
1024.90 89.31999
1025.00 89.32073
1025.10 89.32142
1025.20 89.32212
1025.30 89.32281
1025.40 89.3235
1025.50 89.3242
1025.60 89.32489
1025.70 89.32559
1025.80 89.32628
1025.90 89.32697
1026.00 89.32767
1026.10 89.32836
1026.20 89.32905
1026.30 89.32975
1026.40 89.33044
1026.50 89.33114
1026.60 89.33183
1026.70 89.33252
1026.80 89.33322
1026.90 89.33391
1027.00 89.33461
1027.10 89.3353
1027.20 89.33599
1027.30 89.33669
1027.40 89.33738
1027.50 89.33807
1027.60 89.33877
1027.70 89.33946
1027.80 89.34016
1027.90 89.34085
1028.00 89.34154
1028.10 89.34224
1028.20 89.34293
1028.30 89.34362
1028.40 89.34432
1028.50 89.34501
1028.60 89.34571
1028.70 89.3464
1028.80 89.34709
1028.90 89.34779
1029.00 89.38807
1029.10 89.42836
1029.20 89.46864
1029.30 89.50893
1029.40 89.54921
1029.50 89.5895
1029.60 89.62978
1029.70 89.67007
1029.80 89.71035
1029.90 89.75064
1030.00 89.79092
1030.10 89.83121
1030.20 89.8715
1030.30 89.91178
1030.40 89.95207
1030.50 89.99235
1030.60 90.03264
1030.70 90.07292
1030.80 90.11321
1030.90 90.15349
1031.00 90.19378
1031.10 90.23406
1031.20 90.27435
1031.30 90.31463
1031.40 90.35492
1031.50 90.3952
1031.60 90.43549
1031.70 90.47577
1031.80 90.51606
1031.90 90.55634
1032.00 90.59663
1032.10 90.63691
1032.20 90.6772
1032.30 90.71748
1032.40 90.75777
1032.50 90.79806
1032.60 90.83834
1032.70 90.87863
1032.80 90.91891
1032.90 90.95109
1033.00 90.97112
1033.10 90.99115
1033.20 91.01118
1033.30 91.03121
1033.40 91.05124
1033.50 91.07127
1033.60 91.0913
1033.70 91.11133
1033.80 91.13136
1033.90 91.15139
1034.00 91.17141
1034.10 91.19144
1034.20 91.21147
1034.30 91.2315
1034.40 91.25153
1034.50 91.27156
1034.60 91.29159
1034.70 91.31162
1034.80 91.33165
1034.90 91.35168
1035.00 91.37171
1035.10 91.39173
1035.20 91.41176
1035.30 91.43179
1035.40 91.45182
1035.50 91.47185
1035.60 91.49188
1035.70 91.51191
1035.80 91.53194
1035.90 91.55197
1036.00 91.572
1036.10 91.59203
1036.20 91.61206
1036.30 91.63208
1036.40 91.65211
1036.50 91.67214
1036.60 91.69217
1036.70 91.7122
1036.80 91.73223
1036.90 91.74589
1037.00 91.75796
1037.10 91.77003
1037.20 91.7821
1037.30 91.79417
1037.40 91.80623
1037.50 91.8183
1037.60 91.83037
1037.70 91.84244
1037.80 91.85451
1037.90 91.86658
1038.00 91.87865
1038.10 91.89071
1038.20 91.90278
1038.30 91.91485
1038.40 91.92692
1038.50 91.93899
1038.60 91.95106
1038.70 91.96313
1038.80 91.97519
1038.90 91.98726
1039.00 91.99933
1039.10 92.0114
1039.20 92.02347
1039.30 92.03554
1039.40 92.04761
1039.50 92.05967
1039.60 92.07174
1039.70 92.08381
1039.80 92.09588
1039.90 92.10795
1040.00 92.12002
1040.10 92.13209
1040.20 92.14415
1040.30 92.15622
1040.40 92.16829
1040.50 92.18036
1040.60 92.19243
1040.70 92.2045
1040.80 92.21656
1040.90 92.22636
1041.00 92.23616
1041.10 92.24596
1041.20 92.25576
1041.30 92.26556
1041.40 92.27536
1041.50 92.28516
1041.60 92.29495
1041.70 92.30475
1041.80 92.31455
1041.90 92.32435
1042.00 92.33415
1042.10 92.34395
1042.20 92.35375
1042.30 92.36354
1042.40 92.37334
1042.50 92.38314
1042.60 92.39294
1042.70 92.40274
1042.80 92.41254
1042.90 92.42234
1043.00 92.43214
1043.10 92.44193
1043.20 92.45173
1043.30 92.46153
1043.40 92.47133
1043.50 92.48113
1043.60 92.49093
1043.70 92.50073
1043.80 92.51052
1043.90 92.52032
1044.00 92.53012
1044.10 92.53992
1044.20 92.54972
1044.30 92.55952
1044.40 92.56932
1044.50 92.57911
1044.60 92.58891
1044.70 92.59871
1044.80 92.60911
1044.90 92.62486
1045.00 92.64061
1045.10 92.65636
1045.20 92.67211
1045.30 92.68786
1045.40 92.70361
1045.50 92.71936
1045.60 92.73511
1045.70 92.75086
1045.80 92.76661
1045.90 92.78236
1046.00 92.79811
1046.10 92.81386
1046.20 92.82961
1046.30 92.84536
1046.40 92.86111
1046.50 92.87686
1046.60 92.89261
1046.70 92.90836
1046.80 92.92411
1046.90 92.93986
1047.00 92.95561
1047.10 92.97136
1047.20 92.98711
1047.30 93.00286
1047.40 93.01861
1047.50 93.03436
1047.60 93.05011
1047.70 93.06586
1047.80 93.08161
1047.90 93.09737
1048.00 93.11312
1048.10 93.12887
1048.20 93.14462
1048.30 93.16037
1048.40 93.17612
1048.50 93.19187
1048.60 93.20762
1048.70 93.22337
1048.80 93.2371
1048.90 93.23272
1049.00 93.22833
1049.10 93.22394
1049.20 93.21956
1049.30 93.21517
1049.40 93.21078
1049.50 93.20639
1049.60 93.20201
1049.70 93.19762
1049.80 93.19323
1049.90 93.18885
1050.00 93.18446
1050.10 93.18007
1050.20 93.17569
1050.30 93.1713
1050.40 93.16691
1050.50 93.16252
1050.60 93.15814
1050.70 93.15375
1050.80 93.14936
1050.90 93.14498
1051.00 93.14059
1051.10 93.1362
1051.20 93.13182
1051.30 93.12743
1051.40 93.12304
1051.50 93.11865
1051.60 93.11427
1051.70 93.10988
1051.80 93.10549
1051.90 93.10111
1052.00 93.09672
1052.10 93.09233
1052.20 93.08795
1052.30 93.08356
1052.40 93.07917
1052.50 93.07478
1052.60 93.0704
1052.70 93.06601
1052.80 93.06162
1052.90 93.04676
1053.00 93.03191
1053.10 93.01705
1053.20 93.00219
1053.30 92.98733
1053.40 92.97247
1053.50 92.95761
1053.60 92.94275
1053.70 92.92789
1053.80 92.91303
1053.90 92.89817
1054.00 92.88332
1054.10 92.86846
1054.20 92.8536
1054.30 92.83874
1054.40 92.82388
1054.50 92.80902
1054.60 92.79416
1054.70 92.7793
1054.80 92.76444
1054.90 92.74959
1055.00 92.73473
1055.10 92.71987
1055.20 92.70501
1055.30 92.69015
1055.40 92.67529
1055.50 92.66043
1055.60 92.64557
1055.70 92.63071
1055.80 92.61585
1055.90 92.601
1056.00 92.58614
1056.10 92.57128
1056.20 92.55642
1056.30 92.54156
1056.40 92.5267
1056.50 92.51184
1056.60 92.49698
1056.70 92.48212
1056.80 92.46726
1056.90 92.46735
1057.00 92.47118
1057.10 92.47501
1057.20 92.47884
1057.30 92.48266
1057.40 92.48649
1057.50 92.49032
1057.60 92.49414
1057.70 92.49797
1057.80 92.5018
1057.90 92.50563
1058.00 92.50945
1058.10 92.51328
1058.20 92.51711
1058.30 92.52093
1058.40 92.52476
1058.50 92.52859
1058.60 92.53242
1058.70 92.53624
1058.80 92.54007
1058.90 92.5439
1059.00 92.54772
1059.10 92.55155
1059.20 92.55538
1059.30 92.55921
1059.40 92.56303
1059.50 92.56686
1059.60 92.57069
1059.70 92.57451
1059.80 92.57834
1059.90 92.58217
1060.00 92.586
1060.10 92.58982
1060.20 92.59365
1060.30 92.59748
1060.40 92.6013
1060.50 92.60513
1060.60 92.60896
1060.70 92.61279
1060.80 92.61661
1060.90 92.63165
1061.00 92.65789
1061.10 92.68413
1061.20 92.71038
1061.30 92.73662
1061.40 92.76286
1061.50 92.7891
1061.60 92.81535
1061.70 92.84159
1061.80 92.86783
1061.90 92.89408
1062.00 92.92032
1062.10 92.94656
1062.20 92.9728
1062.30 92.99905
1062.40 93.02529
1062.50 93.05153
1062.60 93.07778
1062.70 93.10402
1062.80 93.13026
1062.90 93.1565
1063.00 93.18275
1063.10 93.20899
1063.20 93.23523
1063.30 93.26148
1063.40 93.28772
1063.50 93.31396
1063.60 93.3402
1063.70 93.36645
1063.80 93.39269
1063.90 93.41893
1064.00 93.44518
1064.10 93.47142
1064.20 93.49766
1064.30 93.5239
1064.40 93.55015
1064.50 93.57639
1064.60 93.60263
1064.70 93.62887
1064.80 93.65512
1064.90 93.68136
1065.00 93.70683
1065.10 93.7323
1065.20 93.75777
1065.30 93.78325
1065.40 93.80872
1065.50 93.83419
1065.60 93.85966
1065.70 93.88513
1065.80 93.9106
1065.90 93.93608
1066.00 93.96155
1066.10 93.98702
1066.20 94.01249
1066.30 94.03796
1066.40 94.06343
1066.50 94.0889
1066.60 94.11438
1066.70 94.13985
1066.80 94.16532
1066.90 94.19079
1067.00 94.21626
1067.10 94.24173
1067.20 94.2672
1067.30 94.29268
1067.40 94.31815
1067.50 94.34362
1067.60 94.36909
1067.70 94.39456
1067.80 94.42003
1067.90 94.4455
1068.00 94.47098
1068.10 94.49645
1068.20 94.52192
1068.30 94.54739
1068.40 94.57286
1068.50 94.59833
1068.60 94.6238
1068.70 94.64928
1068.80 94.67475
1068.90 94.70022
1069.00 94.72698
1069.10 94.75505
1069.20 94.78311
1069.30 94.81117
1069.40 94.83923
1069.50 94.86729
1069.60 94.89535
1069.70 94.92341
1069.80 94.95147
1069.90 94.97953
1070.00 95.00759
1070.10 95.03565
1070.20 95.06371
1070.30 95.09178
1070.40 95.11984
1070.50 95.1479
1070.60 95.17596
1070.70 95.20402
1070.80 95.23208
1070.90 95.26014
1071.00 95.2882
1071.10 95.31626
1071.20 95.34432
1071.30 95.37238
1071.40 95.40044
1071.50 95.4285
1071.60 95.45657
1071.70 95.48463
1071.80 95.51269
1071.90 95.54075
1072.00 95.56881
1072.10 95.59687
1072.20 95.62493
1072.30 95.65299
1072.40 95.68105
1072.50 95.70911
1072.60 95.73717
1072.70 95.76523
1072.80 95.7933
1072.90 95.82136
1073.00 95.84942
1073.10 95.87401
1073.20 95.89821
1073.30 95.92241
1073.40 95.94661
1073.50 95.97082
1073.60 95.99502
1073.70 96.01922
1073.80 96.04342
1073.90 96.06763
1074.00 96.09183
1074.10 96.11603
1074.20 96.14023
1074.30 96.16444
1074.40 96.18864
1074.50 96.21284
1074.60 96.23704
1074.70 96.26125
1074.80 96.28545
1074.90 96.30965
1075.00 96.33385
1075.10 96.35806
1075.20 96.38226
1075.30 96.40646
1075.40 96.43066
1075.50 96.45487
1075.60 96.47907
1075.70 96.50327
1075.80 96.52747
1075.90 96.55168
1076.00 96.57588
1076.10 96.60008
1076.20 96.62428
1076.30 96.64849
1076.40 96.67269
1076.50 96.69689
1076.60 96.72109
1076.70 96.7453
1076.80 96.7695
1076.90 96.7937
1077.00 96.8179
1077.10 96.84109
1077.20 96.85516
1077.30 96.86922
1077.40 96.88328
1077.50 96.89735
1077.60 96.91141
1077.70 96.92548
1077.80 96.93954
1077.90 96.95361
1078.00 96.96767
1078.10 96.98173
1078.20 96.9958
1078.30 97.00986
1078.40 97.02393
1078.50 97.03799
1078.60 97.05206
1078.70 97.06612
1078.80 97.08018
1078.90 97.09425
1079.00 97.10831
1079.10 97.12238
1079.20 97.13644
1079.30 97.15051
1079.40 97.16457
1079.50 97.17863
1079.60 97.1927
1079.70 97.20676
1079.80 97.22083
1079.90 97.23489
1080.00 97.24896
1080.10 97.26302
1080.20 97.27709
1080.30 97.29115
1080.40 97.30521
1080.50 97.31928
1080.60 97.33334
1080.70 97.34741
1080.80 97.36147
1080.90 97.37554
1081.00 97.3896
1081.10 97.40366
1081.20 97.43202
1081.30 97.49374
1081.40 97.55546
1081.50 97.61717
1081.60 97.67889
1081.70 97.7406
1081.80 97.80232
1081.90 97.86404
1082.00 97.92575
1082.10 97.98747
1082.20 98.04918
1082.30 98.1109
1082.40 98.17262
1082.50 98.23433
1082.60 98.29605
1082.70 98.35777
1082.80 98.41948
1082.90 98.4812
1083.00 98.54291
1083.10 98.60463
1083.20 98.66635
1083.30 98.72806
1083.40 98.78978
1083.50 98.85149
1083.60 98.91321
1083.70 98.97493
1083.80 99.03664
1083.90 99.09836
1084.00 99.16007
1084.10 99.22179
1084.20 99.28351
1084.30 99.34522
1084.40 99.40694
1084.50 99.46865
1084.60 99.53037
1084.70 99.59209
1084.80 99.6538
1084.90 99.71552
1085.00 99.77724
1085.10 99.83895
1085.20 99.90067
1085.30 99.94613
1085.40 99.95365
1085.50 99.96117
1085.60 99.9687
1085.70 99.97622
1085.80 99.98374
1085.90 99.99127
1086.00 99.99879
1086.10 100.0063
1086.20 100.0138
1086.30 100.0214
1086.40 100.0289
1086.50 100.0364
1086.60 100.0439
1086.70 100.0515
1086.80 100.059
1086.90 100.0665
1087.00 100.074
1087.10 100.0815
1087.20 100.0891
1087.30 100.0966
1087.40 100.1041
1087.50 100.1116
1087.60 100.1192
1087.70 100.1267
1087.80 100.1342
1087.90 100.1417
1088.00 100.1493
1088.10 100.1568
1088.20 100.1643
1088.30 100.1718
1088.40 100.1794
1088.50 100.1869
1088.60 100.1944
1088.70 100.2019
1088.80 100.2095
1088.90 100.217
1089.00 100.2245
1089.10 100.232
1089.20 100.2395
1089.30 100.2471
1089.40 100.2566
1089.50 100.271
1089.60 100.2853
1089.70 100.2997
1089.80 100.314
1089.90 100.3284
1090.00 100.3427
1090.10 100.3571
1090.20 100.3714
1090.30 100.3858
1090.40 100.4001
1090.50 100.4144
1090.60 100.4288
1090.70 100.4431
1090.80 100.4575
1090.90 100.4718
1091.00 100.4862
1091.10 100.5005
1091.20 100.5149
1091.30 100.5292
1091.40 100.5436
1091.50 100.5579
1091.60 100.5723
1091.70 100.5866
1091.80 100.601
1091.90 100.6153
1092.00 100.6296
1092.10 100.644
1092.20 100.6583
1092.30 100.6727
1092.40 100.687
1092.50 100.7014
1092.60 100.7157
1092.70 100.7301
1092.80 100.7444
1092.90 100.7588
1093.00 100.7731
1093.10 100.7875
1093.20 100.8018
1093.30 100.8161
1093.40 100.8305
1093.50 100.8437
1093.60 100.8525
1093.70 100.8613
1093.80 100.87
1093.90 100.8788
1094.00 100.8876
1094.10 100.8963
1094.20 100.9051
1094.30 100.9139
1094.40 100.9226
1094.50 100.9314
1094.60 100.9401
1094.70 100.9489
1094.80 100.9577
1094.90 100.9664
1095.00 100.9752
1095.10 100.984
1095.20 100.9927
1095.30 101.0015
1095.40 101.0103
1095.50 101.019
1095.60 101.0278
1095.70 101.0366
1095.80 101.0453
1095.90 101.0541
1096.00 101.0629
1096.10 101.0716
1096.20 101.0804
1096.30 101.0892
1096.40 101.0979
1096.50 101.1067
1096.60 101.1155
1096.70 101.1242
1096.80 101.133
1096.90 101.1418
1097.00 101.1505
1097.10 101.1593
1097.20 101.1681
1097.30 101.1768
1097.40 101.1856
1097.50 101.1944
1097.60 101.2031
1097.70 101.2161
1097.80 101.2291
1097.90 101.242
1098.00 101.255
1098.10 101.268
1098.20 101.2809
1098.30 101.2939
1098.40 101.3069
1098.50 101.3199
1098.60 101.3328
1098.70 101.3458
1098.80 101.3588
1098.90 101.3717
1099.00 101.3847
1099.10 101.3977
1099.20 101.4106
1099.30 101.4236
1099.40 101.4366
1099.50 101.4495
1099.60 101.4625
1099.70 101.4755
1099.80 101.4884
1099.90 101.5014
1100.00 101.5144
1100.10 101.5274
1100.20 101.5403
1100.30 101.5533
1100.40 101.5663
1100.50 101.5792
1100.60 101.5922
1100.70 101.6052
1100.80 101.6181
1100.90 101.6311
1101.00 101.6441
1101.10 101.657
1101.20 101.67
1101.30 101.683
1101.40 101.6959
1101.50 101.7089
1101.60 101.7219
1101.70 101.7349
1101.80 101.7213
1101.90 101.6964
1102.00 101.6714
1102.10 101.6465
1102.20 101.6215
1102.30 101.5966
1102.40 101.5717
1102.50 101.5467
1102.60 101.5218
1102.70 101.4969
1102.80 101.4719
1102.90 101.447
1103.00 101.4221
1103.10 101.3971
1103.20 101.3722
1103.30 101.3473
1103.40 101.3223
1103.50 101.2974
1103.60 101.2725
1103.70 101.2475
1103.80 101.2226
1103.90 101.1976
1104.00 101.1727
1104.10 101.1478
1104.20 101.1228
1104.30 101.0979
1104.40 101.073
1104.50 101.048
1104.60 101.0231
1104.70 100.9982
1104.80 100.9732
1104.90 100.9483
1105.00 100.9234
1105.10 100.8984
1105.20 100.8735
1105.30 100.8486
1105.40 100.8236
1105.50 100.7987
1105.60 100.7738
1105.70 100.7488
1105.80 100.7239
1105.90 100.7073
1106.00 100.7101
1106.10 100.7129
1106.20 100.7157
1106.30 100.7186
1106.40 100.7214
1106.50 100.7242
1106.60 100.727
1106.70 100.7299
1106.80 100.7327
1106.90 100.7355
1107.00 100.7383
1107.10 100.7412
1107.20 100.744
1107.30 100.7468
1107.40 100.7496
1107.50 100.7525
1107.60 100.7553
1107.70 100.7581
1107.80 100.7609
1107.90 100.7638
1108.00 100.7666
1108.10 100.7694
1108.20 100.7722
1108.30 100.7751
1108.40 100.7779
1108.50 100.7807
1108.60 100.7835
1108.70 100.7864
1108.80 100.7892
1108.90 100.792
1109.00 100.7948
1109.10 100.7977
1109.20 100.8005
1109.30 100.8033
1109.40 100.8061
1109.50 100.809
1109.60 100.8118
1109.70 100.8146
1109.80 100.8174
1109.90 100.8203
1110.00 100.8231
1110.10 100.8173
1110.20 100.8093
1110.30 100.8013
1110.40 100.7933
1110.50 100.7853
1110.60 100.7773
1110.70 100.7693
1110.80 100.7613
1110.90 100.7533
1111.00 100.7453
1111.10 100.7373
1111.20 100.7293
1111.30 100.7213
1111.40 100.7133
1111.50 100.7053
1111.60 100.6973
1111.70 100.6893
1111.80 100.6813
1111.90 100.6734
1112.00 100.6654
1112.10 100.6574
1112.20 100.6494
1112.30 100.6414
1112.40 100.6334
1112.50 100.6254
1112.60 100.6174
1112.70 100.6094
1112.80 100.6014
1112.90 100.5934
1113.00 100.5854
1113.10 100.5774
1113.20 100.5694
1113.30 100.5614
1113.40 100.5534
1113.50 100.5454
1113.60 100.5374
1113.70 100.5294
1113.80 100.5215
1113.90 100.5135
1114.00 100.5055
1114.10 100.4975
1114.20 100.4956
1114.30 100.5082
1114.40 100.5208
1114.50 100.5334
1114.60 100.5459
1114.70 100.5585
1114.80 100.5711
1114.90 100.5836
1115.00 100.5962
1115.10 100.6088
1115.20 100.6213
1115.30 100.6339
1115.40 100.6465
1115.50 100.6591
1115.60 100.6716
1115.70 100.6842
1115.80 100.6968
1115.90 100.7093
1116.00 100.7219
1116.10 100.7345
1116.20 100.747
1116.30 100.7596
1116.40 100.7722
1116.50 100.7847
1116.60 100.7973
1116.70 100.8099
1116.80 100.8225
1116.90 100.835
1117.00 100.8476
1117.10 100.8602
1117.20 100.8727
1117.30 100.8853
1117.40 100.8979
1117.50 100.9104
1117.60 100.923
1117.70 100.9356
1117.80 100.9482
1117.90 100.9607
1118.00 100.9733
1118.10 100.9859
1118.20 100.9984
1118.30 101.011
1118.40 101.0234
1118.50 101.0356
1118.60 101.0478
1118.70 101.06
1118.80 101.0722
1118.90 101.0844
1119.00 101.0966
1119.10 101.1089
1119.20 101.1211
1119.30 101.1333
1119.40 101.1455
1119.50 101.1577
1119.60 101.1699
1119.70 101.1821
1119.80 101.1943
1119.90 101.2066
1120.00 101.2188
1120.10 101.231
1120.20 101.2432
1120.30 101.2554
1120.40 101.2676
1120.50 101.2798
1120.60 101.2921
1120.70 101.3043
1120.80 101.3165
1120.90 101.3287
1121.00 101.3409
1121.10 101.3531
1121.20 101.3653
1121.30 101.3775
1121.40 101.3898
1121.50 101.402
1121.60 101.4142
1121.70 101.4264
1121.80 101.4386
1121.90 101.4508
1122.00 101.463
1122.10 101.4753
1122.20 101.4875
1122.30 101.4997
1122.40 101.5119
1122.50 101.5241
1122.60 101.525
1122.70 101.5247
1122.80 101.5243
1122.90 101.524
1123.00 101.5236
1123.10 101.5233
1123.20 101.5229
1123.30 101.5226
1123.40 101.5223
1123.50 101.5219
1123.60 101.5216
1123.70 101.5212
1123.80 101.5209
1123.90 101.5205
1124.00 101.5202
1124.10 101.5198
1124.20 101.5195
1124.30 101.5192
1124.40 101.5188
1124.50 101.5185
1124.60 101.5181
1124.70 101.5178
1124.80 101.5174
1124.90 101.5171
1125.00 101.5167
1125.10 101.5164
1125.20 101.5161
1125.30 101.5157
1125.40 101.5154
1125.50 101.515
1125.60 101.5147
1125.70 101.5143
1125.80 101.514
1125.90 101.5136
1126.00 101.5133
1126.10 101.513
1126.20 101.5126
1126.30 101.5123
1126.40 101.5119
1126.50 101.5116
1126.60 101.5112
1126.70 101.5085
1126.80 101.4961
1126.90 101.4837
1127.00 101.4714
1127.10 101.459
1127.20 101.4466
1127.30 101.4343
1127.40 101.4219
1127.50 101.4095
1127.60 101.3972
1127.70 101.3848
1127.80 101.3724
1127.90 101.3601
1128.00 101.3477
1128.10 101.3353
1128.20 101.323
1128.30 101.3106
1128.40 101.2982
1128.50 101.2859
1128.60 101.2735
1128.70 101.2611
1128.80 101.2488
1128.90 101.2364
1129.00 101.224
1129.10 101.2117
1129.20 101.1993
1129.30 101.1869
1129.40 101.1746
1129.50 101.1622
1129.60 101.1498
1129.70 101.1375
1129.80 101.1251
1129.90 101.1127
1130.00 101.1004
1130.10 101.088
1130.20 101.0756
1130.30 101.0633
1130.40 101.0509
1130.50 101.0385
1130.60 101.0262
1130.70 101.0138
1130.80 101.0014
1130.90 100.9832
1131.00 100.9511
1131.10 100.9191
1131.20 100.887
1131.30 100.8549
1131.40 100.8229
1131.50 100.7908
1131.60 100.7588
1131.70 100.7267
1131.80 100.6947
1131.90 100.6626
1132.00 100.6306
1132.10 100.5985
1132.20 100.5664
1132.30 100.5344
1132.40 100.5023
1132.50 100.4703
1132.60 100.4382
1132.70 100.4062
1132.80 100.3741
1132.90 100.3421
1133.00 100.31
1133.10 100.2779
1133.20 100.2459
1133.30 100.2138
1133.40 100.1818
1133.50 100.1497
1133.60 100.1177
1133.70 100.0856
1133.80 100.0536
1133.90 100.0215
1134.00 99.98945
1134.10 99.95739
1134.20 99.92534
1134.30 99.89328
1134.40 99.86123
1134.50 99.82917
1134.60 99.79711
1134.70 99.76506
1134.80 99.733
1134.90 99.70095
1135.00 99.66889
1135.10 99.64752
1135.20 99.64216
1135.30 99.63681
1135.40 99.63146
1135.50 99.62611
1135.60 99.62075
1135.70 99.6154
1135.80 99.61005
1135.90 99.60469
1136.00 99.59934
1136.10 99.59399
1136.20 99.58863
1136.30 99.58328
1136.40 99.57793
1136.50 99.57257
1136.60 99.56722
1136.70 99.56187
1136.80 99.55652
1136.90 99.55116
1137.00 99.54581
1137.10 99.54046
1137.20 99.5351
1137.30 99.52975
1137.40 99.5244
1137.50 99.51904
1137.60 99.51369
1137.70 99.50834
1137.80 99.50298
1137.90 99.49763
1138.00 99.49228
1138.10 99.48693
1138.20 99.48157
1138.30 99.47622
1138.40 99.47087
1138.50 99.46551
1138.60 99.46016
1138.70 99.45481
1138.80 99.44945
1138.90 99.4441
1139.00 99.43875
1139.10 99.4334
1139.20 99.42804
1139.30 99.43184
1139.40 99.44935
1139.50 99.46687
1139.60 99.48438
1139.70 99.5019
1139.80 99.51942
1139.90 99.53693
1140.00 99.55445
1140.10 99.57196
1140.20 99.58948
1140.30 99.607
1140.40 99.62451
1140.50 99.64203
1140.60 99.65954
1140.70 99.67706
1140.80 99.69458
1140.90 99.71209
1141.00 99.72961
1141.10 99.74712
1141.20 99.76464
1141.30 99.78216
1141.40 99.79967
1141.50 99.81719
1141.60 99.8347
1141.70 99.85222
1141.80 99.86974
1141.90 99.88725
1142.00 99.90477
1142.10 99.92228
1142.20 99.9398
1142.30 99.95732
1142.40 99.97483
1142.50 99.99235
1142.60 100.0099
1142.70 100.0274
1142.80 100.0449
1142.90 100.0624
1143.00 100.0799
1143.10 100.0974
1143.20 100.115
1143.30 100.1325
1143.40 100.15
1143.50 100.1779
1143.60 100.2303
1143.70 100.2826
1143.80 100.3349
1143.90 100.3872
1144.00 100.4395
1144.10 100.4918
1144.20 100.5442
1144.30 100.5965
1144.40 100.6488
1144.50 100.7011
1144.60 100.7534
1144.70 100.8057
1144.80 100.8581
1144.90 100.9104
1145.00 100.9627
1145.10 101.015
1145.20 101.0673
1145.30 101.1196
1145.40 101.172
1145.50 101.2243
1145.60 101.2766
1145.70 101.3289
1145.80 101.3812
1145.90 101.4335
1146.00 101.4859
1146.10 101.5382
1146.20 101.5905
1146.30 101.6428
1146.40 101.6951
1146.50 101.7474
1146.60 101.7998
1146.70 101.8521
1146.80 101.9044
1146.90 101.9567
1147.00 102.009
1147.10 102.0613
1147.20 102.1137
1147.30 102.166
1147.40 102.2183
1147.50 102.2706
1147.60 102.3229
1147.70 102.372
1147.80 102.4081
1147.90 102.4441
1148.00 102.4802
1148.10 102.5163
1148.20 102.5524
1148.30 102.5885
1148.40 102.6245
1148.50 102.6606
1148.60 102.6967
1148.70 102.7328
1148.80 102.7688
1148.90 102.8049
1149.00 102.841
1149.10 102.8771
1149.20 102.9131
1149.30 102.9492
1149.40 102.9853
1149.50 103.0214
1149.60 103.0575
1149.70 103.0935
1149.80 103.1296
1149.90 103.1657
1150.00 103.2018
1150.10 103.2378
1150.20 103.2739
1150.30 103.31
1150.40 103.3461
1150.50 103.3822
1150.60 103.4182
1150.70 103.4543
1150.80 103.4904
1150.90 103.5265
1151.00 103.5625
1151.10 103.5986
1151.20 103.6347
1151.30 103.6708
1151.40 103.7068
1151.50 103.7429
1151.60 103.779
1151.70 103.8151
1151.80 103.8512
1151.90 103.8872
1152.00 103.8837
1152.10 103.8802
1152.20 103.8767
1152.30 103.8732
1152.40 103.8697
1152.50 103.8662
1152.60 103.8626
1152.70 103.8591
1152.80 103.8556
1152.90 103.8521
1153.00 103.8486
1153.10 103.8451
1153.20 103.8416
1153.30 103.838
1153.40 103.8345
1153.50 103.831
1153.60 103.8275
1153.70 103.824
1153.80 103.8205
1153.90 103.817
1154.00 103.8134
1154.10 103.8099
1154.20 103.8064
1154.30 103.8029
1154.40 103.7994
1154.50 103.7959
1154.60 103.7924
1154.70 103.7888
1154.80 103.7853
1154.90 103.7818
1155.00 103.7783
1155.10 103.7748
1155.20 103.7713
1155.30 103.7678
1155.40 103.7643
1155.50 103.7607
1155.60 103.7572
1155.70 103.7537
1155.80 103.7502
1155.90 103.7467
1156.00 103.7432
1156.10 103.7397
1156.20 103.7228
1156.30 103.7027
1156.40 103.6826
1156.50 103.6624
1156.60 103.6423
1156.70 103.6222
1156.80 103.602
1156.90 103.5819
1157.00 103.5618
1157.10 103.5416
1157.20 103.5215
1157.30 103.5014
1157.40 103.4812
1157.50 103.4611
1157.60 103.441
1157.70 103.4208
1157.80 103.4007
1157.90 103.3806
1158.00 103.3604
1158.10 103.3403
1158.20 103.3202
1158.30 103.3
1158.40 103.2799
1158.50 103.2598
1158.60 103.2396
1158.70 103.2195
1158.80 103.1993
1158.90 103.1792
1159.00 103.1591
1159.10 103.1389
1159.20 103.1188
1159.30 103.0987
1159.40 103.0785
1159.50 103.0584
1159.60 103.0383
1159.70 103.0181
1159.80 102.998
1159.90 102.9779
1160.00 102.9577
1160.10 102.9376
1160.20 102.9175
1160.30 102.8973
1160.40 102.8763
1160.50 102.8543
1160.60 102.8324
1160.70 102.8105
1160.80 102.7885
1160.90 102.7666
1161.00 102.7446
1161.10 102.7227
1161.20 102.7007
1161.30 102.6788
1161.40 102.6569
1161.50 102.6349
1161.60 102.613
1161.70 102.591
1161.80 102.5691
1161.90 102.5471
1162.00 102.5252
1162.10 102.5033
1162.20 102.4813
1162.30 102.4594
1162.40 102.4374
1162.50 102.4155
1162.60 102.3935
1162.70 102.3716
1162.80 102.3496
1162.90 102.3277
1163.00 102.3058
1163.10 102.2838
1163.20 102.2619
1163.30 102.2399
1163.40 102.218
1163.50 102.196
1163.60 102.1741
1163.70 102.1522
1163.80 102.1302
1163.90 102.1083
1164.00 102.0863
1164.10 102.0644
1164.20 102.0424
1164.30 102.0205
1164.40 101.9986
1164.50 101.9766
1164.60 101.9551
1164.70 101.9374
1164.80 101.9198
1164.90 101.9021
1165.00 101.8844
1165.10 101.8668
1165.20 101.8491
1165.30 101.8314
1165.40 101.8138
1165.50 101.7961
1165.60 101.7784
1165.70 101.7608
1165.80 101.7431
1165.90 101.7254
1166.00 101.7077
1166.10 101.6901
1166.20 101.6724
1166.30 101.6547
1166.40 101.6371
1166.50 101.6194
1166.60 101.6017
1166.70 101.5841
1166.80 101.5664
1166.90 101.5487
1167.00 101.5311
1167.10 101.5134
1167.20 101.4957
1167.30 101.4781
1167.40 101.4604
1167.50 101.4427
1167.60 101.4251
1167.70 101.4074
1167.80 101.3897
1167.90 101.3721
1168.00 101.3544
1168.10 101.3367
1168.20 101.3191
1168.30 101.3014
1168.40 101.2837
1168.50 101.2661
1168.60 101.2484
1168.70 101.2307
1168.80 101.2131
1168.90 101.1765
1169.00 101.1318
1169.10 101.0871
1169.20 101.0424
1169.30 100.9978
1169.40 100.9531
1169.50 100.9084
1169.60 100.8637
1169.70 100.819
1169.80 100.7743
1169.90 100.7297
1170.00 100.685
1170.10 100.6403
1170.20 100.5956
1170.30 100.5509
1170.40 100.5063
1170.50 100.4616
1170.60 100.4169
1170.70 100.3722
1170.80 100.3275
1170.90 100.2828
1171.00 100.2382
1171.10 100.1935
1171.20 100.1488
1171.30 100.1041
1171.40 100.0594
1171.50 100.0148
1171.60 99.97007
1171.70 99.92539
1171.80 99.88071
1171.90 99.83602
1172.00 99.79134
1172.10 99.74666
1172.20 99.70198
1172.30 99.6573
1172.40 99.61261
1172.50 99.56793
1172.60 99.52325
1172.70 99.47857
1172.80 99.43389
1172.90 99.3892
1173.00 99.34452
1173.10 99.31085
1173.20 99.3212
1173.30 99.33155
1173.40 99.34191
1173.50 99.35226
1173.60 99.36261
1173.70 99.37296
1173.80 99.38332
1173.90 99.39367
1174.00 99.40402
1174.10 99.41437
1174.20 99.42473
1174.30 99.43508
1174.40 99.44543
1174.50 99.45578
1174.60 99.46614
1174.70 99.47649
1174.80 99.48684
1174.90 99.4972
1175.00 99.50755
1175.10 99.5179
1175.20 99.52825
1175.30 99.53861
1175.40 99.54896
1175.50 99.55931
1175.60 99.56966
1175.70 99.58002
1175.80 99.59037
1175.90 99.60072
1176.00 99.61107
1176.10 99.62143
1176.20 99.63178
1176.30 99.64213
1176.40 99.65249
1176.50 99.66284
1176.60 99.67319
1176.70 99.68354
1176.80 99.6939
1176.90 99.70425
1177.00 99.7146
1177.10 99.72495
1177.20 99.73531
1177.30 99.74566
1177.40 99.76019
1177.50 99.77651
1177.60 99.79283
1177.70 99.80915
1177.80 99.82547
1177.90 99.84179
1178.00 99.85811
1178.10 99.87443
1178.20 99.89075
1178.30 99.90707
1178.40 99.92339
1178.50 99.93971
1178.60 99.95603
1178.70 99.97235
1178.80 99.98867
1178.90 100.005
1179.00 100.0213
1179.10 100.0376
1179.20 100.0539
1179.30 100.0703
1179.40 100.0866
1179.50 100.1029
1179.60 100.1192
1179.70 100.1355
1179.80 100.1519
1179.90 100.1682
1180.00 100.1845
1180.10 100.2008
1180.20 100.2171
1180.30 100.2335
1180.40 100.2498
1180.50 100.2661
1180.60 100.2824
1180.70 100.2987
1180.80 100.3151
1180.90 100.3314
1181.00 100.3477
1181.10 100.364
1181.20 100.3803
1181.30 100.3967
1181.40 100.413
1181.50 100.4293
1181.60 100.4464
1181.70 100.4707
1181.80 100.4949
1181.90 100.5191
1182.00 100.5434
1182.10 100.5676
1182.20 100.5919
1182.30 100.6161
1182.40 100.6403
1182.50 100.6646
1182.60 100.6888
1182.70 100.7131
1182.80 100.7373
1182.90 100.7615
1183.00 100.7858
1183.10 100.81
1183.20 100.8342
1183.30 100.8585
1183.40 100.8827
1183.50 100.907
1183.60 100.9312
1183.70 100.9554
1183.80 100.9797
1183.90 101.0039
1184.00 101.0282
1184.10 101.0524
1184.20 101.0766
1184.30 101.1009
1184.40 101.1251
1184.50 101.1494
1184.60 101.1736
1184.70 101.1978
1184.80 101.2221
1184.90 101.2463
1185.00 101.2706
1185.10 101.2948
1185.20 101.319
1185.30 101.3433
1185.40 101.3675
1185.50 101.3918
1185.60 101.416
1185.70 101.4402
1185.80 101.4645
1185.90 101.4713
1186.00 101.4606
1186.10 101.45
1186.20 101.4393
1186.30 101.4287
1186.40 101.418
1186.50 101.4074
1186.60 101.3967
1186.70 101.3861
1186.80 101.3755
1186.90 101.3648
1187.00 101.3542
1187.10 101.3435
1187.20 101.3329
1187.30 101.3222
1187.40 101.3116
1187.50 101.3009
1187.60 101.2903
1187.70 101.2796
1187.80 101.269
1187.90 101.2583
1188.00 101.2477
1188.10 101.237
1188.20 101.2264
1188.30 101.2157
1188.40 101.2051
1188.50 101.1944
1188.60 101.1838
1188.70 101.1731
1188.80 101.1625
1188.90 101.1518
1189.00 101.1412
1189.10 101.1306
1189.20 101.1199
1189.30 101.1093
1189.40 101.0986
1189.50 101.088
1189.60 101.0773
1189.70 101.0667
1189.80 101.056
1189.90 101.0454
1190.00 101.0347
1190.10 101.0241
1190.20 100.9954
1190.30 100.9623
1190.40 100.9291
1190.50 100.896
1190.60 100.8628
1190.70 100.8297
1190.80 100.7966
1190.90 100.7634
1191.00 100.7303
1191.10 100.6971
1191.20 100.664
1191.30 100.6308
1191.40 100.5977
1191.50 100.5645
1191.60 100.5314
1191.70 100.4982
1191.80 100.4651
1191.90 100.432
1192.00 100.3988
1192.10 100.3657
1192.20 100.3325
1192.30 100.2994
1192.40 100.2662
1192.50 100.2331
1192.60 100.1999
1192.70 100.1668
1192.80 100.1336
1192.90 100.1005
1193.00 100.0674
1193.10 100.0342
1193.20 100.0011
1193.30 99.96791
1193.40 99.93477
1193.50 99.90162
1193.60 99.86848
1193.70 99.83533
1193.80 99.80219
1193.90 99.76904
1194.00 99.73589
1194.10 99.70275
1194.20 99.6696
1194.30 99.63646
1194.40 99.60435
1194.50 99.58154
1194.60 99.55874
1194.70 99.53594
1194.80 99.51313
1194.90 99.49033
1195.00 99.46753
1195.10 99.44472
1195.20 99.42192
1195.30 99.39912
1195.40 99.37631
1195.50 99.35351
1195.60 99.33071
1195.70 99.3079
1195.80 99.2851
1195.90 99.2623
1196.00 99.23949
1196.10 99.21669
1196.20 99.19389
1196.30 99.17108
1196.40 99.14828
1196.50 99.12548
1196.60 99.10267
1196.70 99.07987
1196.80 99.05707
1196.90 99.03426
1197.00 99.01146
1197.10 98.98866
1197.20 98.96585
1197.30 98.94305
1197.40 98.92025
1197.50 98.89744
1197.60 98.87464
1197.70 98.85184
1197.80 98.82904
1197.90 98.80623
1198.00 98.78343
1198.10 98.76063
1198.20 98.73782
1198.30 98.71502
1198.40 98.69222
1198.50 98.66941
1198.60 98.64661
1198.70 98.63209
1198.80 98.62998
1198.90 98.62788
1199.00 98.62578
1199.10 98.62368
1199.20 98.62158
1199.30 98.61947
1199.40 98.61737
1199.50 98.61527
1199.60 98.61317
1199.70 98.61107
1199.80 98.60896
1199.90 98.60686
1200.00 98.60476
1200.10 98.60266
1200.20 98.60055
1200.30 98.59845
1200.40 98.59635
1200.50 98.59425
1200.60 98.59215
1200.70 98.59004
1200.80 98.58794
1200.90 98.58584
1201.00 98.58374
1201.10 98.58164
1201.20 98.57953
1201.30 98.57743
1201.40 98.57533
1201.50 98.57323
1201.60 98.57113
1201.70 98.56902
1201.80 98.56692
1201.90 98.56482
1202.00 98.56272
1202.10 98.56062
1202.20 98.55851
1202.30 98.55641
1202.40 98.55431
1202.50 98.55221
1202.60 98.5501
1202.70 98.548
1202.80 98.5459
1202.90 98.5438
1203.00 98.55947
1203.10 98.587
1203.20 98.61452
1203.30 98.64205
1203.40 98.66958
1203.50 98.6971
1203.60 98.72463
1203.70 98.75215
1203.80 98.77968
1203.90 98.8072
1204.00 98.83473
1204.10 98.86225
1204.20 98.88978
1204.30 98.9173
1204.40 98.94483
1204.50 98.97236
1204.60 98.99988
1204.70 99.02741
1204.80 99.05493
1204.90 99.08246
1205.00 99.10998
1205.10 99.13751
1205.20 99.16503
1205.30 99.19256
1205.40 99.22009
1205.50 99.24761
1205.60 99.27514
1205.70 99.30266
1205.80 99.33019
1205.90 99.35771
1206.00 99.38524
1206.10 99.41276
1206.20 99.44029
1206.30 99.46782
1206.40 99.49534
1206.50 99.52287
1206.60 99.55039
1206.70 99.57792
1206.80 99.60544
1206.90 99.63297
1207.00 99.66049
1207.10 99.68802
1207.20 99.71554
1207.30 99.75778
1207.40 99.8037
1207.50 99.84962
1207.60 99.89554
1207.70 99.94145
1207.80 99.98737
1207.90 100.0333
1208.00 100.0792
1208.10 100.1251
1208.20 100.171
1208.30 100.217
1208.40 100.2629
1208.50 100.3088
1208.60 100.3547
1208.70 100.4006
1208.80 100.4465
1208.90 100.4925
1209.00 100.5384
1209.10 100.5843
1209.20 100.6302
1209.30 100.6761
1209.40 100.722
1209.50 100.768
1209.60 100.8139
1209.70 100.8598
1209.80 100.9057
1209.90 100.9516
1210.00 100.9975
1210.10 101.0435
1210.20 101.0894
1210.30 101.1353
1210.40 101.1812
1210.50 101.2271
1210.60 101.273
1210.70 101.319
1210.80 101.3649
1210.90 101.4108
1211.00 101.4567
1211.10 101.5026
1211.20 101.5486
1211.30 101.5945
1211.40 101.6404
1211.50 101.6863
1211.60 101.7032
1211.70 101.7169
1211.80 101.7306
1211.90 101.7443
1212.00 101.758
1212.10 101.7717
1212.20 101.7854
1212.30 101.7991
1212.40 101.8128
1212.50 101.8265
1212.60 101.8402
1212.70 101.8539
1212.80 101.8676
1212.90 101.8813
1213.00 101.895
1213.10 101.9087
1213.20 101.9224
1213.30 101.9361
1213.40 101.9498
1213.50 101.9635
1213.60 101.9772
1213.70 101.9909
1213.80 102.0046
1213.90 102.0183
1214.00 102.032
1214.10 102.0457
1214.20 102.0594
1214.30 102.0731
1214.40 102.0868
1214.50 102.1005
1214.60 102.1141
1214.70 102.1278
1214.80 102.1415
1214.90 102.1552
1215.00 102.1689
1215.10 102.1826
1215.20 102.1963
1215.30 102.21
1215.40 102.2237
1215.50 102.2374
1215.60 102.2511
1215.70 102.2648
1215.80 102.2785
1215.90 102.3218
1216.00 102.365
1216.10 102.4082
1216.20 102.4515
1216.30 102.4947
1216.40 102.5379
1216.50 102.5812
1216.60 102.6244
1216.70 102.6676
1216.80 102.7109
1216.90 102.7541
1217.00 102.7973
1217.10 102.8406
1217.20 102.8838
1217.30 102.9271
1217.40 102.9703
1217.50 103.0135
1217.60 103.0568
1217.70 103.1
1217.80 103.1432
1217.90 103.1865
1218.00 103.2297
1218.10 103.2729
1218.20 103.3162
1218.30 103.3594
1218.40 103.4026
1218.50 103.4459
1218.60 103.4891
1218.70 103.5324
1218.80 103.5756
1218.90 103.6188
1219.00 103.6621
1219.10 103.7053
1219.20 103.7485
1219.30 103.7918
1219.40 103.835
1219.50 103.8782
1219.60 103.9215
1219.70 103.9647
1219.80 104.0079
1219.90 104.0512
1220.00 104.0944
1220.10 104.1352
1220.20 104.1539
1220.30 104.1727
1220.40 104.1914
1220.50 104.2102
1220.60 104.2289
1220.70 104.2477
1220.80 104.2664
1220.90 104.2851
1221.00 104.3039
1221.10 104.3226
1221.20 104.3414
1221.30 104.3601
1221.40 104.3789
1221.50 104.3976
1221.60 104.4163
1221.70 104.4351
1221.80 104.4538
1221.90 104.4726
1222.00 104.4913
1222.10 104.51
1222.20 104.5288
1222.30 104.5475
1222.40 104.5663
1222.50 104.585
1222.60 104.6038
1222.70 104.6225
1222.80 104.6412
1222.90 104.66
1223.00 104.6787
1223.10 104.6975
1223.20 104.7162
1223.30 104.735
1223.40 104.7537
1223.50 104.7724
1223.60 104.7912
1223.70 104.8099
1223.80 104.8287
1223.90 104.8474
1224.00 104.8661
1224.10 104.8849
1224.20 104.9036
1224.30 104.9224
1224.40 104.9387
1224.50 104.9452
1224.60 104.9517
1224.70 104.9582
1224.80 104.9646
1224.90 104.9711
1225.00 104.9776
1225.10 104.9841
1225.20 104.9906
1225.30 104.9971
1225.40 105.0036
1225.50 105.0101
1225.60 105.0166
1225.70 105.0231
1225.80 105.0296
1225.90 105.0361
1226.00 105.0426
1226.10 105.0491
1226.20 105.0556
1226.30 105.0621
1226.40 105.0686
1226.50 105.0751
1226.60 105.0816
1226.70 105.088
1226.80 105.0945
1226.90 105.101
1227.00 105.1075
1227.10 105.114
1227.20 105.1205
1227.30 105.127
1227.40 105.1335
1227.50 105.14
1227.60 105.1465
1227.70 105.153
1227.80 105.1595
1227.90 105.166
1228.00 105.1725
1228.10 105.179
1228.20 105.1855
1228.30 105.192
1228.40 105.1985
1228.50 105.2049
1228.60 105.2114
1228.70 105.2122
1228.80 105.1899
1228.90 105.1677
1229.00 105.1454
1229.10 105.1232
1229.20 105.101
1229.30 105.0787
1229.40 105.0565
1229.50 105.0342
1229.60 105.012
1229.70 104.9897
1229.80 104.9675
1229.90 104.9452
1230.00 104.923
1230.10 104.9007
1230.20 104.8785
1230.30 104.8562
1230.40 104.834
1230.50 104.8117
1230.60 104.7895
1230.70 104.7672
1230.80 104.745
1230.90 104.7227
1231.00 104.7005
1231.10 104.6783
1231.20 104.656
1231.30 104.6338
1231.40 104.6115
1231.50 104.5893
1231.60 104.567
1231.70 104.5448
1231.80 104.5225
1231.90 104.5003
1232.00 104.478
1232.10 104.4558
1232.20 104.4335
1232.30 104.4113
1232.40 104.389
1232.50 104.3668
1232.60 104.3445
1232.70 104.3223
1232.80 104.3
1232.90 104.2778
1233.00 104.2526
1233.10 104.2154
1233.20 104.1783
1233.30 104.1411
1233.40 104.1039
1233.50 104.0668
1233.60 104.0296
1233.70 103.9925
1233.80 103.9553
1233.90 103.9181
1234.00 103.881
1234.10 103.8438
1234.20 103.8067
1234.30 103.7695
1234.40 103.7323
1234.50 103.6952
1234.60 103.658
1234.70 103.6209
1234.80 103.5837
1234.90 103.5465
1235.00 103.5094
1235.10 103.4722
1235.20 103.4351
1235.30 103.3979
1235.40 103.3607
1235.50 103.3236
1235.60 103.2864
1235.70 103.2493
1235.80 103.2121
1235.90 103.1749
1236.00 103.1378
1236.10 103.1006
1236.20 103.0635
1236.30 103.0263
1236.40 102.9891
1236.50 102.952
1236.60 102.9148
1236.70 102.8777
1236.80 102.8405
1236.90 102.8033
1237.00 102.7662
1237.10 102.729
1237.20 102.6919
1237.30 102.6581
1237.40 102.6382
1237.50 102.6183
1237.60 102.5984
1237.70 102.5785
1237.80 102.5586
1237.90 102.5386
1238.00 102.5187
1238.10 102.4988
1238.20 102.4789
1238.30 102.459
1238.40 102.439
1238.50 102.4191
1238.60 102.3992
1238.70 102.3793
1238.80 102.3594
1238.90 102.3395
1239.00 102.3195
1239.10 102.2996
1239.20 102.2797
1239.30 102.2598
1239.40 102.2399
1239.50 102.2199
1239.60 102.2
1239.70 102.1801
1239.80 102.1602
1239.90 102.1403
1240.00 102.1204
1240.10 102.1004
1240.20 102.0805
1240.30 102.0606
1240.40 102.0407
1240.50 102.0208
1240.60 102.0008
1240.70 101.9809
1240.80 101.961
1240.90 101.9411
1241.00 101.9212
1241.10 101.9012
1241.20 101.8813
1241.30 101.8614
1241.40 101.8415
1241.50 101.8216
1241.60 101.802
1241.70 101.7859
1241.80 101.7697
1241.90 101.7536
1242.00 101.7374
1242.10 101.7213
1242.20 101.7051
1242.30 101.689
1242.40 101.6728
1242.50 101.6567
1242.60 101.6405
1242.70 101.6244
1242.80 101.6082
1242.90 101.5921
1243.00 101.5759
1243.10 101.5598
1243.20 101.5436
1243.30 101.5275
1243.40 101.5113
1243.50 101.4952
1243.60 101.479
1243.70 101.4629
1243.80 101.4467
1243.90 101.4306
1244.00 101.4144
1244.10 101.3983
1244.20 101.3821
1244.30 101.366
1244.40 101.3498
1244.50 101.3337
1244.60 101.3175
1244.70 101.3014
1244.80 101.2852
1244.90 101.2691
1245.00 101.2529
1245.10 101.2368
1245.20 101.2206
1245.30 101.2045
1245.40 101.1883
1245.50 101.1722
1245.60 101.156
1245.70 101.1399
1245.80 101.1237
1245.90 101.1076
1246.00 101.1385
1246.10 101.1695
1246.20 101.2005
1246.30 101.2315
1246.40 101.2625
1246.50 101.2934
1246.60 101.3244
1246.70 101.3554
1246.80 101.3864
1246.90 101.4174
1247.00 101.4483
1247.10 101.4793
1247.20 101.5103
1247.30 101.5413
1247.40 101.5723
1247.50 101.6032
1247.60 101.6342
1247.70 101.6652
1247.80 101.6962
1247.90 101.7272
1248.00 101.7581
1248.10 101.7891
1248.20 101.8201
1248.30 101.8511
1248.40 101.8821
1248.50 101.913
1248.60 101.944
1248.70 101.975
1248.80 102.006
1248.90 102.037
1249.00 102.0679
1249.10 102.0989
1249.20 102.1299
1249.30 102.1609
1249.40 102.1919
1249.50 102.2228
1249.60 102.2538
1249.70 102.2848
1249.80 102.3158
1249.90 102.3467
1250.00 102.3777
1250.10 102.4087
1250.20 102.4397
1250.30 102.4658
1250.40 102.4919
1250.50 102.518
1250.60 102.5441
1250.70 102.5702
1250.80 102.5963
1250.90 102.6224
1251.00 102.6485
1251.10 102.6747
1251.20 102.7008
1251.30 102.7269
1251.40 102.753
1251.50 102.7791
1251.60 102.8052
1251.70 102.8313
1251.80 102.8574
1251.90 102.8835
1252.00 102.9096
1252.10 102.9357
1252.20 102.9618
1252.30 102.9879
1252.40 103.014
1252.50 103.0401
1252.60 103.0663
1252.70 103.0924
1252.80 103.1185
1252.90 103.1446
1253.00 103.1707
1253.10 103.1968
1253.20 103.2229
1253.30 103.249
1253.40 103.2751
1253.50 103.3012
1253.60 103.3273
1253.70 103.3534
1253.80 103.3795
1253.90 103.4056
1254.00 103.4317
1254.10 103.4579
1254.20 103.484
1254.30 103.5101
1254.40 103.5362
1254.50 103.5623
1254.60 103.6052
1254.70 103.65
1254.80 103.6947
1254.90 103.7395
1255.00 103.7843
1255.10 103.829
1255.20 103.8738
1255.30 103.9186
1255.40 103.9634
1255.50 104.0081
1255.60 104.0529
1255.70 104.0977
1255.80 104.1425
1255.90 104.1872
1256.00 104.232
1256.10 104.2768
1256.20 104.3215
1256.30 104.3663
1256.40 104.4111
1256.50 104.4559
1256.60 104.5006
1256.70 104.5454
1256.80 104.5902
1256.90 104.635
1257.00 104.6797
1257.10 104.7245
1257.20 104.7693
1257.30 104.814
1257.40 104.8588
1257.50 104.9036
1257.60 104.9484
1257.70 104.9931
1257.80 105.0379
1257.90 105.0827
1258.00 105.1274
1258.10 105.1722
1258.20 105.217
1258.30 105.2618
1258.40 105.3065
1258.50 105.3513
1258.60 105.3961
1258.70 105.4409
1258.80 105.4856
1258.90 105.532
1259.00 105.5791
1259.10 105.6262
1259.20 105.6733
1259.30 105.7204
1259.40 105.7675
1259.50 105.8146
1259.60 105.8617
1259.70 105.9088
1259.80 105.9559
1259.90 106.003
1260.00 106.0501
1260.10 106.0972
1260.20 106.1442
1260.30 106.1913
1260.40 106.2384
1260.50 106.2855
1260.60 106.3326
1260.70 106.3797
1260.80 106.4268
1260.90 106.4739
1261.00 106.521
1261.10 106.5681
1261.20 106.6152
1261.30 106.6623
1261.40 106.7094
1261.50 106.7565
1261.60 106.8036
1261.70 106.8507
1261.80 106.8977
1261.90 106.9448
1262.00 106.9919
1262.10 107.039
1262.20 107.0861
1262.30 107.1332
1262.40 107.1803
1262.50 107.2274
1262.60 107.2745
1262.70 107.3216
1262.80 107.3687
1262.90 107.4158
1263.00 107.4629
1263.10 107.51
1263.20 107.5455
1263.30 107.5733
1263.40 107.6011
1263.50 107.6289
1263.60 107.6567
1263.70 107.6845
1263.80 107.7123
1263.90 107.7401
1264.00 107.7679
1264.10 107.7957
1264.20 107.8236
1264.30 107.8514
1264.40 107.8792
1264.50 107.907
1264.60 107.9348
1264.70 107.9626
1264.80 107.9904
1264.90 108.0182
1265.00 108.046
1265.10 108.0738
1265.20 108.1016
1265.30 108.1294
1265.40 108.1572
1265.50 108.185
1265.60 108.2128
1265.70 108.2406
1265.80 108.2685
1265.90 108.2963
1266.00 108.3241
1266.10 108.3519
1266.20 108.3797
1266.30 108.4075
1266.40 108.4353
1266.50 108.4631
1266.60 108.4909
1266.70 108.5187
1266.80 108.5465
1266.90 108.5743
1267.00 108.6021
1267.10 108.6299
1267.20 108.6577
1267.30 108.6855
1267.40 108.7134
1267.50 108.7396
1267.60 108.7643
1267.70 108.7889
1267.80 108.8136
1267.90 108.8383
1268.00 108.8629
1268.10 108.8876
1268.20 108.9123
1268.30 108.9369
1268.40 108.9616
1268.50 108.9863
1268.60 109.011
1268.70 109.0356
1268.80 109.0603
1268.90 109.085
1269.00 109.1096
1269.10 109.1343
1269.20 109.159
1269.30 109.1836
1269.40 109.2083
1269.50 109.233
1269.60 109.2576
1269.70 109.2823
1269.80 109.307
1269.90 109.3317
1270.00 109.3563
1270.10 109.381
1270.20 109.4057
1270.30 109.4303
1270.40 109.455
1270.50 109.4797
1270.60 109.5043
1270.70 109.529
1270.80 109.5537
1270.90 109.5784
1271.00 109.603
1271.10 109.6277
1271.20 109.6524
1271.30 109.677
1271.40 109.7017
1271.50 109.7264
1271.60 109.751
1271.70 109.7757
1271.80 109.7935
1271.90 109.7954
1272.00 109.7972
1272.10 109.7991
1272.20 109.8009
1272.30 109.8027
1272.40 109.8046
1272.50 109.8064
1272.60 109.8083
1272.70 109.8101
1272.80 109.812
1272.90 109.8138
1273.00 109.8156
1273.10 109.8175
1273.20 109.8193
1273.30 109.8212
1273.40 109.823
1273.50 109.8249
1273.60 109.8267
1273.70 109.8285
1273.80 109.8304
1273.90 109.8322
1274.00 109.8341
1274.10 109.8359
1274.20 109.8378
1274.30 109.8396
1274.40 109.8414
1274.50 109.8433
1274.60 109.8451
1274.70 109.847
1274.80 109.8488
1274.90 109.8507
1275.00 109.8525
1275.10 109.8543
1275.20 109.8562
1275.30 109.858
1275.40 109.8599
1275.50 109.8617
1275.60 109.8636
1275.70 109.8654
1275.80 109.8672
1275.90 109.8691
1276.00 109.8709
1276.10 109.8715
1276.20 109.8606
1276.30 109.8497
1276.40 109.8388
1276.50 109.8279
1276.60 109.817
1276.70 109.8061
1276.80 109.7952
1276.90 109.7843
1277.00 109.7734
1277.10 109.7625
1277.20 109.7516
1277.30 109.7407
1277.40 109.7298
1277.50 109.7189
1277.60 109.708
1277.70 109.6971
1277.80 109.6862
1277.90 109.6753
1278.00 109.6644
1278.10 109.6535
1278.20 109.6426
1278.30 109.6317
1278.40 109.6208
1278.50 109.6099
1278.60 109.599
1278.70 109.5881
1278.80 109.5772
1278.90 109.5663
1279.00 109.5554
1279.10 109.5445
1279.20 109.5336
1279.30 109.5227
1279.40 109.5118
1279.50 109.5009
1279.60 109.49
1279.70 109.4791
1279.80 109.4682
1279.90 109.4573
1280.00 109.4464
1280.10 109.4355
1280.20 109.4246
1280.30 109.4137
1280.40 109.4028
1280.50 109.4016
1280.60 109.4004
1280.70 109.3991
1280.80 109.3979
1280.90 109.3967
1281.00 109.3954
1281.10 109.3942
1281.20 109.3929
1281.30 109.3917
1281.40 109.3905
1281.50 109.3892
1281.60 109.388
1281.70 109.3868
1281.80 109.3855
1281.90 109.3843
1282.00 109.383
1282.10 109.3818
1282.20 109.3806
1282.30 109.3793
1282.40 109.3781
1282.50 109.3769
1282.60 109.3756
1282.70 109.3744
1282.80 109.3731
1282.90 109.3719
1283.00 109.3707
1283.10 109.3694
1283.20 109.3682
1283.30 109.367
1283.40 109.3657
1283.50 109.3645
1283.60 109.3632
1283.70 109.362
1283.80 109.3608
1283.90 109.3595
1284.00 109.3583
1284.10 109.3571
1284.20 109.3558
1284.30 109.3546
1284.40 109.3533
1284.50 109.3521
1284.60 109.3509
1284.70 109.3496
1284.80 109.3559
1284.90 109.364
1285.00 109.3721
1285.10 109.3802
1285.20 109.3883
1285.30 109.3964
1285.40 109.4045
1285.50 109.4126
1285.60 109.4207
1285.70 109.4289
1285.80 109.437
1285.90 109.4451
1286.00 109.4532
1286.10 109.4613
1286.20 109.4694
1286.30 109.4775
1286.40 109.4856
1286.50 109.4937
1286.60 109.5018
1286.70 109.5099
1286.80 109.5181
1286.90 109.5262
1287.00 109.5343
1287.10 109.5424
1287.20 109.5505
1287.30 109.5586
1287.40 109.5667
1287.50 109.5748
1287.60 109.5829
1287.70 109.591
1287.80 109.5992
1287.90 109.6073
1288.00 109.6154
1288.10 109.6235
1288.20 109.6316
1288.30 109.6397
1288.40 109.6478
1288.50 109.6559
1288.60 109.664
1288.70 109.6721
1288.80 109.6802
1288.90 109.6884
1289.00 109.6965
1289.10 109.689
1289.20 109.6711
1289.30 109.6532
1289.40 109.6354
1289.50 109.6175
1289.60 109.5996
1289.70 109.5818
1289.80 109.5639
1289.90 109.546
1290.00 109.5282
1290.10 109.5103
1290.20 109.4924
1290.30 109.4745
1290.40 109.4567
1290.50 109.4388
1290.60 109.4209
1290.70 109.4031
1290.80 109.3852
1290.90 109.3673
1291.00 109.3494
1291.10 109.3316
1291.20 109.3137
1291.30 109.2958
1291.40 109.278
1291.50 109.2601
1291.60 109.2422
1291.70 109.2244
1291.80 109.2065
1291.90 109.1886
1292.00 109.1707
1292.10 109.1529
1292.20 109.135
1292.30 109.1171
1292.40 109.0993
1292.50 109.0814
1292.60 109.0635
1292.70 109.0457
1292.80 109.0278
1292.90 109.0099
1293.00 108.992
1293.10 108.9742
1293.20 108.9563
1293.30 108.9384
1293.40 108.9263
1293.50 108.9229
1293.60 108.9195
1293.70 108.9161
1293.80 108.9126
1293.90 108.9092
1294.00 108.9058
1294.10 108.9023
1294.20 108.8989
1294.30 108.8955
1294.40 108.8921
1294.50 108.8886
1294.60 108.8852
1294.70 108.8818
1294.80 108.8784
1294.90 108.8749
1295.00 108.8715
1295.10 108.8681
1295.20 108.8646
1295.30 108.8612
1295.40 108.8578
1295.50 108.8544
1295.60 108.8509
1295.70 108.8475
1295.80 108.8441
1295.90 108.8407
1296.00 108.8372
1296.10 108.8338
1296.20 108.8304
1296.30 108.827
1296.40 108.8235
1296.50 108.8201
1296.60 108.8167
1296.70 108.8132
1296.80 108.8098
1296.90 108.8064
1297.00 108.803
1297.10 108.7995
1297.20 108.7961
1297.30 108.7927
1297.40 108.7893
1297.50 108.7858
1297.60 108.7824
1297.70 108.7804
1297.80 108.784
1297.90 108.7876
1298.00 108.7912
1298.10 108.7949
1298.20 108.7985
1298.30 108.8021
1298.40 108.8057
1298.50 108.8093
1298.60 108.8129
1298.70 108.8166
1298.80 108.8202
1298.90 108.8238
1299.00 108.8274
1299.10 108.831
1299.20 108.8347
1299.30 108.8383
1299.40 108.8419
1299.50 108.8455
1299.60 108.8491
1299.70 108.8527
1299.80 108.8564
1299.90 108.86
