# Version 2.1 - nm, norm@500 to 1, cut digits
# Wavelength(nm)  Flambda(ergs/cm^s/s/nm)
300.00 1.154732e-95
300.10 1.154732e-95
300.20 1.154732e-95
300.30 1.154732e-95
300.40 1.154732e-95
300.50 1.154732e-95
300.60 1.154732e-95
300.70 1.154732e-95
300.80 1.154732e-95
300.90 1.154732e-95
301.00 1.154732e-95
301.10 1.154732e-95
301.20 1.154732e-95
301.30 1.154732e-95
301.40 1.154732e-95
301.50 1.154732e-95
301.60 1.154732e-95
301.70 1.154732e-95
301.80 1.154732e-95
301.90 1.154732e-95
302.00 1.154732e-95
302.10 1.154732e-95
302.20 1.154732e-95
302.30 1.154732e-95
302.40 1.154732e-95
302.50 1.154732e-95
302.60 1.154732e-95
302.70 1.154732e-95
302.80 1.154732e-95
302.90 1.154732e-95
303.00 1.154732e-95
303.10 1.154732e-95
303.20 1.154732e-95
303.30 1.154732e-95
303.40 1.154732e-95
303.50 1.154732e-95
303.60 1.154732e-95
303.70 1.154732e-95
303.80 1.154732e-95
303.90 1.154732e-95
304.00 1.154732e-95
304.10 1.154732e-95
304.20 1.154732e-95
304.30 1.154732e-95
304.40 1.154732e-95
304.50 1.154732e-95
304.60 1.154732e-95
304.70 1.154732e-95
304.80 1.154732e-95
304.90 1.154732e-95
305.00 1.154732e-95
305.10 1.154732e-95
305.20 1.154732e-95
305.30 1.154732e-95
305.40 1.154732e-95
305.50 1.154732e-95
305.60 1.154732e-95
305.70 1.154732e-95
305.80 1.154732e-95
305.90 1.154732e-95
306.00 1.154732e-95
306.10 1.154732e-95
306.20 1.154732e-95
306.30 1.154732e-95
306.40 1.154732e-95
306.50 1.154732e-95
306.60 1.154732e-95
306.70 1.154732e-95
306.80 1.154732e-95
306.90 1.154732e-95
307.00 1.154732e-95
307.10 1.154732e-95
307.20 1.154732e-95
307.30 1.154732e-95
307.40 1.154732e-95
307.50 1.154732e-95
307.60 1.154732e-95
307.70 1.154732e-95
307.80 1.154732e-95
307.90 1.154732e-95
308.00 1.154732e-95
308.10 1.154732e-95
308.20 1.154732e-95
308.30 1.154732e-95
308.40 1.154732e-95
308.50 1.154732e-95
308.60 1.154732e-95
308.70 1.154732e-95
308.80 1.154732e-95
308.90 1.154732e-95
309.00 1.154732e-95
309.10 1.154732e-95
309.20 1.154732e-95
309.30 1.154732e-95
309.40 1.154732e-95
309.50 1.154732e-95
309.60 1.154732e-95
309.70 1.154732e-95
309.80 1.154732e-95
309.90 1.154732e-95
310.00 1.154732e-95
310.10 1.154732e-95
310.20 1.154732e-95
310.30 1.154732e-95
310.40 1.154732e-95
310.50 1.154732e-95
310.60 1.154732e-95
310.70 1.154732e-95
310.80 1.154732e-95
310.90 1.154732e-95
311.00 1.154732e-95
311.10 1.154732e-95
311.20 1.154732e-95
311.30 1.154732e-95
311.40 1.154732e-95
311.50 1.154732e-95
311.60 1.154732e-95
311.70 1.154732e-95
311.80 1.154732e-95
311.90 1.154732e-95
312.00 1.154732e-95
312.10 1.154732e-95
312.20 1.154732e-95
312.30 1.154732e-95
312.40 1.154732e-95
312.50 1.154732e-95
312.60 1.154732e-95
312.70 1.154732e-95
312.80 1.154732e-95
312.90 1.154732e-95
313.00 1.154732e-95
313.10 1.154732e-95
313.20 1.154732e-95
313.30 1.154732e-95
313.40 1.154732e-95
313.50 1.154732e-95
313.60 1.154732e-95
313.70 1.154732e-95
313.80 1.154732e-95
313.90 1.154732e-95
314.00 1.154732e-95
314.10 1.154732e-95
314.20 1.154732e-95
314.30 1.154732e-95
314.40 1.154732e-95
314.50 1.154732e-95
314.60 1.154732e-95
314.70 1.154732e-95
314.80 1.154732e-95
314.90 1.154732e-95
315.00 1.154732e-95
315.10 1.154732e-95
315.20 1.154732e-95
315.30 1.154732e-95
315.40 1.154732e-95
315.50 1.154732e-95
315.60 1.154732e-95
315.70 1.154732e-95
315.80 1.154732e-95
315.90 1.154732e-95
316.00 1.154732e-95
316.10 1.154732e-95
316.20 1.154732e-95
316.30 1.154732e-95
316.40 1.154732e-95
316.50 1.154732e-95
316.60 1.154732e-95
316.70 1.154732e-95
316.80 1.154732e-95
316.90 1.154732e-95
317.00 1.154732e-95
317.10 1.154732e-95
317.20 1.154732e-95
317.30 1.154732e-95
317.40 1.154732e-95
317.50 1.154732e-95
317.60 1.154732e-95
317.70 1.154732e-95
317.80 1.154732e-95
317.90 1.154732e-95
318.00 1.154732e-95
318.10 1.154732e-95
318.20 1.154732e-95
318.30 1.154732e-95
318.40 1.154732e-95
318.50 1.154732e-95
318.60 1.154732e-95
318.70 1.154732e-95
318.80 1.154732e-95
318.90 1.154732e-95
319.00 1.154732e-95
319.10 1.154732e-95
319.20 1.154732e-95
319.30 1.154732e-95
319.40 1.154732e-95
319.50 1.154732e-95
319.60 1.154732e-95
319.70 1.154732e-95
319.80 1.154732e-95
319.90 1.154732e-95
320.00 1.154732e-95
320.10 1.154732e-95
320.20 1.154732e-95
320.30 1.154732e-95
320.40 1.154732e-95
320.50 1.154732e-95
320.60 1.154732e-95
320.70 1.154732e-95
320.80 1.154732e-95
320.90 1.154732e-95
321.00 1.154732e-95
321.10 1.154732e-95
321.20 1.154732e-95
321.30 1.154732e-95
321.40 1.154732e-95
321.50 1.154732e-95
321.60 1.154732e-95
321.70 1.154732e-95
321.80 1.154732e-95
321.90 1.154732e-95
322.00 1.154732e-95
322.10 1.154732e-95
322.20 1.154732e-95
322.30 1.154732e-95
322.40 1.154732e-95
322.50 1.154732e-95
322.60 1.154732e-95
322.70 1.154732e-95
322.80 1.154732e-95
322.90 1.154732e-95
323.00 1.154732e-95
323.10 1.154732e-95
323.20 1.154732e-95
323.30 1.154732e-95
323.40 1.154732e-95
323.50 1.154732e-95
323.60 1.154732e-95
323.70 1.154732e-95
323.80 1.154732e-95
323.90 1.154732e-95
324.00 1.154732e-95
324.10 1.154732e-95
324.20 1.154732e-95
324.30 1.154732e-95
324.40 1.154732e-95
324.50 1.154732e-95
324.60 1.154732e-95
324.70 1.154732e-95
324.80 1.154732e-95
324.90 1.154732e-95
325.00 1.154732e-95
325.10 1.154732e-95
325.20 1.154732e-95
325.30 1.154732e-95
325.40 1.154732e-95
325.50 1.154732e-95
325.60 1.154732e-95
325.70 1.154732e-95
325.80 1.154732e-95
325.90 1.154732e-95
326.00 1.154732e-95
326.10 1.154732e-95
326.20 1.154732e-95
326.30 1.154732e-95
326.40 1.154732e-95
326.50 1.154732e-95
326.60 1.154732e-95
326.70 1.154732e-95
326.80 1.154732e-95
326.90 1.154732e-95
327.00 1.154732e-95
327.10 1.154732e-95
327.20 1.154732e-95
327.30 1.154732e-95
327.40 1.154732e-95
327.50 1.154732e-95
327.60 1.154732e-95
327.70 1.154732e-95
327.80 1.154732e-95
327.90 1.154732e-95
328.00 1.154732e-95
328.10 1.154732e-95
328.20 1.154732e-95
328.30 1.154732e-95
328.40 1.154732e-95
328.50 1.154732e-95
328.60 1.154732e-95
328.70 1.154732e-95
328.80 1.154732e-95
328.90 1.154732e-95
329.00 1.154732e-95
329.10 1.154732e-95
329.20 1.154732e-95
329.30 1.154732e-95
329.40 1.154732e-95
329.50 1.154732e-95
329.60 1.154732e-95
329.70 1.154732e-95
329.80 1.154732e-95
329.90 1.154732e-95
330.00 1.154732e-95
330.10 1.154732e-95
330.20 1.154732e-95
330.30 1.154732e-95
330.40 1.154732e-95
330.50 1.154732e-95
330.60 1.154732e-95
330.70 1.154732e-95
330.80 1.154732e-95
330.90 1.154732e-95
331.00 1.154732e-95
331.10 1.154732e-95
331.20 1.154732e-95
331.30 1.154732e-95
331.40 1.154732e-95
331.50 1.154732e-95
331.60 1.154732e-95
331.70 1.154732e-95
331.80 1.154732e-95
331.90 1.154732e-95
332.00 1.154732e-95
332.10 1.154732e-95
332.20 1.154732e-95
332.30 1.154732e-95
332.40 1.154732e-95
332.50 1.154732e-95
332.60 1.154732e-95
332.70 1.154732e-95
332.80 1.154732e-95
332.90 1.154732e-95
333.00 1.154732e-95
333.10 1.154732e-95
333.20 1.154732e-95
333.30 1.154732e-95
333.40 1.154732e-95
333.50 1.154732e-95
333.60 1.154732e-95
333.70 1.154732e-95
333.80 1.154732e-95
333.90 1.154732e-95
334.00 1.154732e-95
334.10 1.154732e-95
334.20 1.154732e-95
334.30 1.154732e-95
334.40 1.154732e-95
334.50 1.154732e-95
334.60 1.154732e-95
334.70 1.154732e-95
334.80 1.154732e-95
334.90 1.154732e-95
335.00 1.154732e-95
335.10 1.154732e-95
335.20 1.154732e-95
335.30 1.154732e-95
335.40 1.154732e-95
335.50 1.154732e-95
335.60 1.154732e-95
335.70 1.154732e-95
335.80 1.154732e-95
335.90 1.154732e-95
336.00 1.154732e-95
336.10 1.154732e-95
336.20 1.154732e-95
336.30 1.154732e-95
336.40 1.154732e-95
336.50 1.154732e-95
336.60 1.154732e-95
336.70 1.154732e-95
336.80 1.154732e-95
336.90 1.154732e-95
337.00 1.154732e-95
337.10 1.154732e-95
337.20 1.154732e-95
337.30 1.154732e-95
337.40 1.154732e-95
337.50 1.154732e-95
337.60 1.154732e-95
337.70 1.154732e-95
337.80 1.154732e-95
337.90 1.154732e-95
338.00 1.154732e-95
338.10 1.154732e-95
338.20 1.154732e-95
338.30 1.154732e-95
338.40 1.154732e-95
338.50 1.154732e-95
338.60 1.154732e-95
338.70 1.154732e-95
338.80 1.154732e-95
338.90 1.154732e-95
339.00 1.154732e-95
339.10 1.154732e-95
339.20 1.154732e-95
339.30 1.154732e-95
339.40 1.154732e-95
339.50 1.154732e-95
339.60 1.154732e-95
339.70 1.154732e-95
339.80 1.154732e-95
339.90 1.154732e-95
340.00 1.154732e-95
340.10 1.154732e-95
340.20 1.154732e-95
340.30 1.154732e-95
340.40 1.154732e-95
340.50 1.154732e-95
340.60 1.154732e-95
340.70 1.154732e-95
340.80 1.154732e-95
340.90 1.154732e-95
341.00 1.154732e-95
341.10 1.154732e-95
341.20 1.154732e-95
341.30 1.154732e-95
341.40 1.154732e-95
341.50 1.154732e-95
341.60 1.154732e-95
341.70 1.154732e-95
341.80 1.154732e-95
341.90 1.154732e-95
342.00 1.154732e-95
342.10 1.154732e-95
342.20 1.154732e-95
342.30 1.154732e-95
342.40 1.154732e-95
342.50 1.154732e-95
342.60 1.154732e-95
342.70 1.154732e-95
342.80 1.154732e-95
342.90 1.154732e-95
343.00 1.154732e-95
343.10 1.154732e-95
343.20 1.154732e-95
343.30 1.154732e-95
343.40 1.154732e-95
343.50 1.154732e-95
343.60 1.154732e-95
343.70 1.154732e-95
343.80 1.154732e-95
343.90 1.154732e-95
344.00 1.154732e-95
344.10 1.154732e-95
344.20 1.154732e-95
344.30 1.154732e-95
344.40 1.154732e-95
344.50 1.154732e-95
344.60 1.154732e-95
344.70 1.154732e-95
344.80 1.154732e-95
344.90 1.154732e-95
345.00 1.154732e-95
345.10 1.154732e-95
345.20 1.154732e-95
345.30 1.154732e-95
345.40 1.154732e-95
345.50 1.154732e-95
345.60 1.154732e-95
345.70 1.154732e-95
345.80 1.154732e-95
345.90 1.154732e-95
346.00 1.154732e-95
346.10 1.154732e-95
346.20 1.154732e-95
346.30 1.154732e-95
346.40 1.154732e-95
346.50 1.154732e-95
346.60 1.154732e-95
346.70 1.154732e-95
346.80 1.154732e-95
346.90 1.154732e-95
347.00 1.154732e-95
347.10 1.154732e-95
347.20 1.154732e-95
347.30 1.154732e-95
347.40 1.154732e-95
347.50 1.154732e-95
347.60 1.154732e-95
347.70 1.154732e-95
347.80 1.154732e-95
347.90 1.154732e-95
348.00 1.154732e-95
348.10 1.154732e-95
348.20 1.154732e-95
348.30 1.154732e-95
348.40 1.154732e-95
348.50 1.154732e-95
348.60 1.154732e-95
348.70 1.154732e-95
348.80 1.154732e-95
348.90 1.154732e-95
349.00 1.154732e-95
349.10 1.154732e-95
349.20 1.154732e-95
349.30 1.154732e-95
349.40 1.154732e-95
349.50 1.154732e-95
349.60 1.154732e-95
349.70 1.154732e-95
349.80 1.154732e-95
349.90 1.154732e-95
350.00 1.154732e-95
350.10 1.154732e-95
350.20 1.154732e-95
350.30 1.154732e-95
350.40 1.154732e-95
350.50 1.154732e-95
350.60 1.154732e-95
350.70 1.154732e-95
350.80 1.154732e-95
350.90 1.154732e-95
351.00 1.154732e-95
351.10 1.154732e-95
351.20 1.154732e-95
351.30 1.154732e-95
351.40 1.154732e-95
351.50 1.154732e-95
351.60 1.154732e-95
351.70 1.154732e-95
351.80 1.154732e-95
351.90 1.154732e-95
352.00 1.154732e-95
352.10 1.154732e-95
352.20 1.154732e-95
352.30 1.154732e-95
352.40 1.154732e-95
352.50 1.154732e-95
352.60 1.154732e-95
352.70 1.154732e-95
352.80 1.154732e-95
352.90 1.154732e-95
353.00 1.154732e-95
353.10 1.154732e-95
353.20 1.154732e-95
353.30 1.154732e-95
353.40 1.154732e-95
353.50 1.154732e-95
353.60 1.154732e-95
353.70 1.154732e-95
353.80 1.154732e-95
353.90 1.154732e-95
354.00 1.154732e-95
354.10 1.154732e-95
354.20 1.154732e-95
354.30 1.154732e-95
354.40 1.154732e-95
354.50 1.154732e-95
354.60 1.154732e-95
354.70 1.154732e-95
354.80 1.154732e-95
354.90 1.154732e-95
355.00 1.154732e-95
355.10 1.154732e-95
355.20 1.154732e-95
355.30 1.154732e-95
355.40 1.154732e-95
355.50 1.154732e-95
355.60 1.154732e-95
355.70 1.154732e-95
355.80 1.154732e-95
355.90 1.154732e-95
356.00 1.154732e-95
356.10 1.154732e-95
356.20 1.154732e-95
356.30 1.154732e-95
356.40 1.154732e-95
356.50 1.154732e-95
356.60 1.154732e-95
356.70 1.154732e-95
356.80 1.154732e-95
356.90 1.154732e-95
357.00 1.154732e-95
357.10 1.154732e-95
357.20 1.154732e-95
357.30 1.154732e-95
357.40 1.154732e-95
357.50 1.154732e-95
357.60 1.154732e-95
357.70 1.154732e-95
357.80 1.154732e-95
357.90 1.154732e-95
358.00 1.154732e-95
358.10 1.154732e-95
358.20 1.154732e-95
358.30 1.154732e-95
358.40 1.154732e-95
358.50 1.154732e-95
358.60 1.154732e-95
358.70 1.154732e-95
358.80 1.154732e-95
358.90 1.154732e-95
359.00 1.154732e-95
359.10 1.154732e-95
359.20 1.154732e-95
359.30 1.154732e-95
359.40 1.154732e-95
359.50 1.154732e-95
359.60 1.154732e-95
359.70 1.154732e-95
359.80 1.154732e-95
359.90 1.154732e-95
360.00 1.154732e-95
360.10 1.154732e-95
360.20 1.154732e-95
360.30 1.154732e-95
360.40 1.154732e-95
360.50 1.154732e-95
360.60 1.154732e-95
360.70 1.154732e-95
360.80 1.154732e-95
360.90 1.154732e-95
361.00 1.154732e-95
361.10 1.154732e-95
361.20 1.154732e-95
361.30 1.154732e-95
361.40 1.154732e-95
361.50 1.154732e-95
361.60 1.154732e-95
361.70 1.154732e-95
361.80 1.154732e-95
361.90 1.154732e-95
362.00 1.154732e-95
362.10 1.154732e-95
362.20 1.154732e-95
362.30 1.154732e-95
362.40 1.154732e-95
362.50 1.154732e-95
362.60 1.154732e-95
362.70 1.154732e-95
362.80 1.154732e-95
362.90 1.154732e-95
363.00 1.154732e-95
363.10 1.154732e-95
363.20 1.154732e-95
363.30 1.154732e-95
363.40 1.154732e-95
363.50 1.154732e-95
363.60 1.154732e-95
363.70 1.154732e-95
363.80 1.154732e-95
363.90 1.154732e-95
364.00 1.154732e-95
364.10 1.154732e-95
364.20 1.154732e-95
364.30 1.154732e-95
364.40 1.154732e-95
364.50 1.154732e-95
364.60 1.154732e-95
364.70 1.154732e-95
364.80 1.154732e-95
364.90 1.154732e-95
365.00 1.154732e-95
365.10 1.154732e-95
365.20 1.154732e-95
365.30 1.154732e-95
365.40 1.154732e-95
365.50 1.154732e-95
365.60 1.154732e-95
365.70 1.154732e-95
365.80 1.154732e-95
365.90 1.154732e-95
366.00 1.154732e-95
366.10 1.154732e-95
366.20 1.154732e-95
366.30 1.154732e-95
366.40 1.154732e-95
366.50 1.154732e-95
366.60 1.154732e-95
366.70 1.154732e-95
366.80 1.154732e-95
366.90 1.154732e-95
367.00 1.154732e-95
367.10 1.154732e-95
367.20 1.154732e-95
367.30 1.154732e-95
367.40 1.154732e-95
367.50 1.154732e-95
367.60 1.154732e-95
367.70 1.154732e-95
367.80 1.154732e-95
367.90 1.154732e-95
368.00 1.154732e-95
368.10 1.154732e-95
368.20 1.154732e-95
368.30 1.154732e-95
368.40 1.154732e-95
368.50 1.154732e-95
368.60 1.154732e-95
368.70 1.154732e-95
368.80 1.154732e-95
368.90 1.154732e-95
369.00 1.154732e-95
369.10 1.154732e-95
369.20 1.154732e-95
369.30 1.154732e-95
369.40 1.154732e-95
369.50 1.154732e-95
369.60 1.154732e-95
369.70 1.154732e-95
369.80 1.154732e-95
369.90 1.154732e-95
370.00 1.154732e-95
370.10 1.154732e-95
370.20 1.154732e-95
370.30 1.154732e-95
370.40 1.154732e-95
370.50 1.154732e-95
370.60 1.154732e-95
370.70 1.154732e-95
370.80 1.154732e-95
370.90 1.154732e-95
371.00 1.154732e-95
371.10 1.154732e-95
371.20 1.154732e-95
371.30 1.154732e-95
371.40 1.154732e-95
371.50 1.154732e-95
371.60 1.154732e-95
371.70 1.154732e-95
371.80 1.154732e-95
371.90 1.154732e-95
372.00 1.154732e-95
372.10 1.154732e-95
372.20 1.154732e-95
372.30 1.154732e-95
372.40 1.154732e-95
372.50 1.154732e-95
372.60 1.154732e-95
372.70 1.154732e-95
372.80 1.154732e-95
372.90 1.154732e-95
373.00 1.154732e-95
373.10 1.154732e-95
373.20 1.154732e-95
373.30 1.154732e-95
373.40 1.154732e-95
373.50 1.154732e-95
373.60 1.154732e-95
373.70 1.154732e-95
373.80 1.154732e-95
373.90 1.154732e-95
374.00 1.154732e-95
374.10 1.154732e-95
374.20 1.154732e-95
374.30 1.154732e-95
374.40 1.154732e-95
374.50 1.154732e-95
374.60 1.154732e-95
374.70 1.154732e-95
374.80 1.154732e-95
374.90 1.154732e-95
375.00 1.154732e-95
375.10 1.154732e-95
375.20 1.154732e-95
375.30 1.154732e-95
375.40 1.154732e-95
375.50 1.154732e-95
375.60 1.154732e-95
375.70 1.154732e-95
375.80 1.154732e-95
375.90 1.154732e-95
376.00 1.154732e-95
376.10 1.154732e-95
376.20 1.154732e-95
376.30 1.154732e-95
376.40 1.154732e-95
376.50 1.154732e-95
376.60 1.154732e-95
376.70 1.154732e-95
376.80 1.154732e-95
376.90 1.154732e-95
377.00 1.154732e-95
377.10 1.154732e-95
377.20 1.154732e-95
377.30 1.154732e-95
377.40 1.154732e-95
377.50 1.154732e-95
377.60 1.154732e-95
377.70 1.154732e-95
377.80 1.154732e-95
377.90 1.154732e-95
378.00 1.154732e-95
378.10 1.154732e-95
378.20 1.154732e-95
378.30 1.154732e-95
378.40 1.154732e-95
378.50 1.154732e-95
378.60 1.154732e-95
378.70 1.154732e-95
378.80 1.154732e-95
378.90 1.154732e-95
379.00 1.154732e-95
379.10 1.154732e-95
379.20 1.154732e-95
379.30 1.154732e-95
379.40 1.154732e-95
379.50 1.154732e-95
379.60 1.154732e-95
379.70 1.154732e-95
379.80 1.154732e-95
379.90 1.154732e-95
380.00 1.154732e-95
380.10 1.154732e-95
380.20 1.154732e-95
380.30 1.154732e-95
380.40 1.154732e-95
380.50 1.154732e-95
380.60 1.154732e-95
380.70 1.154732e-95
380.80 1.154732e-95
380.90 1.154732e-95
381.00 1.154732e-95
381.10 1.154732e-95
381.20 1.154732e-95
381.30 1.154732e-95
381.40 1.154732e-95
381.50 1.154732e-95
381.60 1.154732e-95
381.70 1.154732e-95
381.80 1.154732e-95
381.90 1.154732e-95
382.00 1.154732e-95
382.10 1.154732e-95
382.20 1.154732e-95
382.30 1.154732e-95
382.40 1.154732e-95
382.50 1.154732e-95
382.60 1.154732e-95
382.70 1.154732e-95
382.80 1.154732e-95
382.90 1.154732e-95
383.00 1.154732e-95
383.10 1.154732e-95
383.20 1.154732e-95
383.30 1.154732e-95
383.40 1.154732e-95
383.50 1.154732e-95
383.60 1.154732e-95
383.70 1.154732e-95
383.80 1.154732e-95
383.90 1.154732e-95
384.00 1.154732e-95
384.10 1.154732e-95
384.20 1.154732e-95
384.30 1.154732e-95
384.40 1.154732e-95
384.50 1.154732e-95
384.60 1.154732e-95
384.70 1.154732e-95
384.80 1.154732e-95
384.90 1.154732e-95
385.00 1.154732e-95
385.10 1.154732e-95
385.20 1.154732e-95
385.30 1.154732e-95
385.40 1.154732e-95
385.50 1.154732e-95
385.60 1.154732e-95
385.70 1.154732e-95
385.80 1.154732e-95
385.90 1.154732e-95
386.00 1.154732e-95
386.10 1.154732e-95
386.20 1.154732e-95
386.30 1.154732e-95
386.40 1.154732e-95
386.50 1.154732e-95
386.60 1.154732e-95
386.70 1.154732e-95
386.80 1.154732e-95
386.90 1.154732e-95
387.00 1.154732e-95
387.10 1.154732e-95
387.20 1.154732e-95
387.30 1.154732e-95
387.40 1.154732e-95
387.50 1.154732e-95
387.60 1.154732e-95
387.70 1.154732e-95
387.80 1.154732e-95
387.90 1.154732e-95
388.00 1.154732e-95
388.10 1.154732e-95
388.20 1.154732e-95
388.30 1.154732e-95
388.40 1.154732e-95
388.50 1.154732e-95
388.60 1.154732e-95
388.70 1.154732e-95
388.80 1.154732e-95
388.90 1.154732e-95
389.00 1.154732e-95
389.10 1.154732e-95
389.20 1.154732e-95
389.30 1.154732e-95
389.40 1.154732e-95
389.50 1.154732e-95
389.60 1.154732e-95
389.70 1.154732e-95
389.80 1.154732e-95
389.90 1.154732e-95
390.00 1.154732e-95
390.10 1.154732e-95
390.20 1.154732e-95
390.30 1.154732e-95
390.40 1.154732e-95
390.50 1.154732e-95
390.60 1.154732e-95
390.70 1.154732e-95
390.80 1.154732e-95
390.90 1.154732e-95
391.00 1.154732e-95
391.10 1.154732e-95
391.20 1.154732e-95
391.30 1.154732e-95
391.40 1.154732e-95
391.50 1.154732e-95
391.60 1.154732e-95
391.70 1.154732e-95
391.80 1.154732e-95
391.90 1.154732e-95
392.00 1.154732e-95
392.10 1.154732e-95
392.20 1.154732e-95
392.30 1.154732e-95
392.40 1.154732e-95
392.50 1.154732e-95
392.60 1.154732e-95
392.70 1.154732e-95
392.80 1.154732e-95
392.90 1.154732e-95
393.00 1.154732e-95
393.10 1.154732e-95
393.20 1.154732e-95
393.30 1.154732e-95
393.40 1.154732e-95
393.50 1.154732e-95
393.60 1.154732e-95
393.70 1.154732e-95
393.80 1.154732e-95
393.90 1.154732e-95
394.00 1.154732e-95
394.10 1.154732e-95
394.20 1.154732e-95
394.30 1.154732e-95
394.40 1.154732e-95
394.50 1.154732e-95
394.60 1.154732e-95
394.70 1.154732e-95
394.80 1.154732e-95
394.90 1.154732e-95
395.00 0.01269251
395.10 0.01269251
395.20 0.01269251
395.30 0.01269251
395.40 0.01269251
395.50 0.01269251
395.60 0.01269251
395.70 0.01269251
395.80 0.01269251
395.90 0.01269251
396.00 0.0151992
396.10 0.02131706
396.20 0.02676247
396.30 0.02676247
396.40 0.02676247
396.50 0.02676247
396.60 0.02676247
396.70 0.02676247
396.80 0.02676247
396.90 0.02676247
397.00 0.02676247
397.10 0.02676247
397.20 0.02676247
397.30 0.02676247
397.40 0.02676247
397.50 0.02676247
397.60 0.03154472
397.70 0.04804338
397.80 0.08042281
397.90 0.1288124
398.00 0.1900591
398.10 0.2585557
398.20 0.3265673
398.30 0.3866822
398.40 0.4351198
398.50 0.4721657
398.60 0.5021993
398.70 0.5328333
398.80 0.5729428
398.90 0.6300256
399.00 0.7081655
399.10 0.8081339
399.20 0.9269136
399.30 1.058167
399.40 1.192973
399.50 1.320957
399.60 1.432981
399.70 1.522138
399.80 1.584051
399.90 1.616198
400.00 1.6178
400.10 1.6178
400.20 1.6178
400.30 1.6178
400.40 1.6178
400.50 1.6178
400.60 1.6178
400.70 1.6178
400.80 1.6178
400.90 1.6178
401.00 1.6178
401.10 1.620333
401.20 1.631552
401.30 1.653213
401.40 1.686831
401.50 1.732696
401.60 1.787064
401.70 1.843972
401.80 1.89717
401.90 1.941761
402.00 1.97594
402.10 2.000813
402.20 2.019822
402.30 2.039071
402.40 2.064827
402.50 2.099275
402.60 2.142502
402.70 2.195334
402.80 2.25735
402.90 2.325824
403.00 2.397295
403.10 2.46812
403.20 2.535901
403.30 2.601197
403.40 2.667338
403.50 2.737892
403.60 2.814988
403.70 2.898071
403.80 2.984069
403.90 3.069153
404.00 3.149988
404.10 3.22487
404.20 3.293285
404.30 3.355768
404.40 3.414063
404.50 3.470798
404.60 3.527988
404.70 3.584342
404.80 3.636884
404.90 3.68465
405.00 3.715183
405.10 3.754447
405.20 3.792704
405.30 3.834473
405.40 3.880995
405.50 3.929099
405.60 3.974036
405.70 4.011747
405.80 4.039181
405.90 4.054494
406.00 4.05547
406.10 4.049352
406.20 4.043906
406.30 4.043906
406.40 4.043906
406.50 4.043906
406.60 4.043906
406.70 4.043906
406.80 4.043906
406.90 4.043906
407.00 4.043906
407.10 4.043906
407.20 4.043906
407.30 4.043906
407.40 4.043906
407.50 4.043906
407.60 4.039124
407.70 4.022625
407.80 3.990246
407.90 3.941856
408.00 3.88061
408.10 3.812113
408.20 3.744101
408.30 3.683987
408.40 3.635549
408.50 3.598503
408.60 3.568469
408.70 3.537835
408.80 3.497726
408.90 3.443604
409.00 3.372928
409.10 3.282297
409.20 3.172565
409.30 3.048884
409.40 2.919414
409.50 2.794082
409.60 2.682058
409.70 2.5929
409.80 2.530988
409.90 2.498841
410.00 2.497805
410.10 2.497976
410.20 2.497976
410.30 2.497976
410.40 2.497976
410.50 2.498062
410.60 2.508861
410.70 2.534272
410.80 2.57569
410.90 2.630959
411.00 2.695514
411.10 2.760836
411.20 2.814205
411.30 2.847911
411.40 2.856611
411.50 2.840366
411.60 2.807129
411.70 2.768713
411.80 2.735166
411.90 2.712548
412.00 2.702777
412.10 2.702387
412.20 2.704347
412.30 2.699939
412.40 2.681253
412.50 2.646805
412.60 2.603579
412.70 2.550746
412.80 2.48873
412.90 2.420257
413.00 2.348786
413.10 2.27796
413.20 2.210179
413.30 2.144883
413.40 2.078742
413.50 2.008188
413.60 1.931092
413.70 1.848009
413.80 1.762011
413.90 1.676927
414.00 1.596092
414.10 1.521211
414.20 1.452795
414.30 1.390312
414.40 1.332017
414.50 1.275282
414.60 1.218093
414.70 1.161738
414.80 1.109196
414.90 1.06143
415.00 1.018205
415.10 0.9789405
415.20 0.940684
415.30 0.8989142
415.40 0.8523931
415.50 0.8042886
415.60 0.7593521
415.70 0.721641
415.80 0.6942068
415.90 0.6838302
416.00 0.6952178
416.10 0.7215674
416.20 0.7596168
416.30 0.8088682
416.40 0.8678792
416.50 0.9336869
416.60 1.001355
416.70 1.064948
416.80 1.119293
416.90 1.161325
417.00 1.190325
417.10 1.206954
417.20 1.212154
417.30 1.212154
417.40 1.212154
417.50 1.212154
417.60 1.212154
417.70 1.212154
417.80 1.212154
417.90 1.212154
418.00 1.212154
418.10 1.212154
418.20 1.212154
418.30 1.212154
418.40 1.212154
418.50 1.212154
418.60 1.212154
418.70 1.212154
418.80 1.212154
418.90 1.209193
419.00 1.201729
419.10 1.192392
419.20 1.183344
419.30 1.175771
419.40 1.170435
419.50 1.167784
419.60 1.167784
419.70 1.167784
419.80 1.167784
419.90 1.167784
420.00 1.167218
420.10 1.167047
420.20 1.167047
420.30 1.167047
420.40 1.167047
420.50 1.166961
420.60 1.156162
420.70 1.13075
420.80 1.089333
420.90 1.034064
421.00 0.9695086
421.10 0.901653
421.20 0.8370655
421.30 0.7816983
421.40 0.7393812
421.50 0.7130743
421.60 0.7013583
421.70 0.697701
421.80 0.696976
421.90 0.6984467
422.00 0.7029834
422.10 0.7121061
422.20 0.7276936
422.30 0.7499932
422.40 0.7767948
422.50 0.8034957
422.60 0.8196125
422.70 0.8221174
422.80 0.8221174
422.90 0.8221174
423.00 0.8221174
423.10 0.8221174
423.20 0.8221174
423.30 0.8221174
423.40 0.8221174
423.50 0.8221174
423.60 0.8221174
423.70 0.8221174
423.80 0.8221174
423.90 0.8221174
424.00 0.8221174
424.10 0.8221174
424.20 0.8221174
424.30 0.8221174
424.40 0.8221174
424.50 0.8221174
424.60 0.8320938
424.70 0.8577222
424.80 0.8997885
424.90 0.9570909
425.00 1.027194
425.10 1.105768
425.20 1.186784
425.30 1.264299
425.40 1.333161
425.50 1.389346
425.60 1.432317
425.70 1.465189
425.80 1.492414
425.90 1.514125
426.00 1.528701
426.10 1.535059
426.20 1.532671
426.30 1.521406
426.40 1.501073
426.50 1.472866
426.60 1.440365
426.70 1.408512
426.80 1.382026
426.90 1.364033
427.00 1.354194
427.10 1.348883
427.20 1.344694
427.30 1.344694
427.40 1.344694
427.50 1.344694
427.60 1.344694
427.70 1.344694
427.80 1.344694
427.90 1.344694
428.00 1.344694
428.10 1.344694
428.20 1.344694
428.30 1.344694
428.40 1.344694
428.50 1.344694
428.60 1.344694
428.70 1.344694
428.80 1.344694
428.90 1.344694
429.00 1.344694
429.10 1.344694
429.20 1.344694
429.30 1.351955
429.40 1.367837
429.50 1.391364
429.60 1.423333
429.70 1.464549
429.80 1.514124
429.90 1.571137
430.00 1.635457
430.10 1.705778
430.20 1.778615
430.30 1.848556
430.40 1.90851
430.50 1.951008
430.60 1.971969
430.70 1.974051
430.80 1.974051
430.90 1.974051
431.00 1.983872
431.10 2.009421
431.20 2.050018
431.30 2.098913
431.40 2.145081
431.50 2.17492
431.60 2.178437
431.70 2.163603
431.80 2.144677
431.90 2.121233
432.00 2.092288
432.10 2.058683
432.20 2.022126
432.30 1.984986
432.40 1.951114
432.50 1.924413
432.60 1.908296
432.70 1.905791
432.80 1.905791
432.90 1.905791
433.00 1.905791
433.10 1.905791
433.20 1.905791
433.30 1.905791
433.40 1.905791
433.50 1.905791
433.60 1.905791
433.70 1.905791
433.80 1.905791
433.90 1.905791
434.00 1.905791
434.10 1.905791
434.20 1.905791
434.30 1.905791
434.40 1.905791
434.50 1.905791
434.60 1.895815
434.70 1.870186
434.80 1.82812
434.90 1.770818
435.00 1.700715
435.10 1.62214
435.20 1.541124
435.30 1.463609
435.40 1.394747
435.50 1.338563
435.60 1.295592
435.70 1.262719
435.80 1.235494
435.90 1.208847
436.00 1.179401
436.10 1.146694
436.20 1.111032
436.30 1.073045
436.40 1.034368
436.50 0.9967668
436.60 0.9615997
436.70 0.9346575
436.80 0.9217595
436.90 0.9230361
437.00 0.9365574
437.10 0.9586912
437.20 0.9843174
437.30 0.9983066
437.40 0.9983066
437.50 0.9983066
437.60 0.9983066
437.70 0.9983066
437.80 0.9983066
437.90 0.9983066
438.00 0.9983066
438.10 0.9983066
438.20 0.9983066
438.30 0.9983066
438.40 0.9983066
438.50 0.9983066
438.60 0.9983066
438.70 0.9983066
438.80 0.9983066
438.90 0.9983066
439.00 0.9983066
439.10 0.9983066
439.20 0.9983066
439.30 0.9910463
439.40 0.9751636
439.50 0.9516371
439.60 0.9196684
439.70 0.878452
439.80 0.8288768
439.90 0.7790235
440.00 0.7307009
440.10 0.6828746
440.20 0.635426
440.30 0.5892313
440.40 0.5474405
440.50 0.5160535
440.60 0.4998716
440.70 0.4983169
440.80 0.4983169
440.90 0.4983169
441.00 0.4884956
441.10 0.4629469
441.20 0.4223497
441.30 0.373455
441.40 0.3272868
441.50 0.2941339
441.60 0.2812015
441.70 0.2812015
441.80 0.2812015
441.90 0.2812015
442.00 0.2812015
442.10 0.2835531
442.20 0.2874285
442.30 0.2902805
442.40 0.2902805
442.50 0.2902805
442.60 0.2902805
442.70 0.2902805
442.80 0.2902805
442.90 0.2902805
443.00 0.2902805
443.10 0.2902805
443.20 0.2902805
443.30 0.2902805
443.40 0.2902805
443.50 0.2902805
443.60 0.2904561
443.70 0.2977128
443.80 0.3104422
443.90 0.3272016
444.00 0.3486899
444.10 0.3761463
444.20 0.4105157
444.30 0.4537204
444.40 0.5064686
444.50 0.5666019
444.60 0.6305473
444.70 0.6931621
444.80 0.74726
444.90 0.7867403
445.00 0.8092423
445.10 0.8154573
445.20 0.8154573
445.30 0.8154573
445.40 0.8154573
445.50 0.8154573
445.60 0.8154573
445.70 0.8154573
445.80 0.8154573
445.90 0.8154573
446.00 0.8154573
446.10 0.8154573
446.20 0.8154573
446.30 0.8154573
446.40 0.8154573
446.50 0.8154573
446.60 0.8154573
446.70 0.8106595
446.80 0.7956984
446.90 0.7703826
447.00 0.7377008
447.10 0.7042494
447.20 0.6776118
447.30 0.6663195
447.40 0.6872974
447.50 0.7262365
447.60 0.7801747
447.70 0.8440101
447.80 0.9114977
447.90 0.9764366
448.00 1.033312
448.10 1.078403
448.20 1.110567
448.30 1.130784
448.40 1.141833
448.50 1.14703
448.60 1.148664
448.70 1.148664
448.80 1.148664
448.90 1.148664
449.00 1.150721
449.10 1.15652
449.20 1.165787
449.30 1.1767
449.40 1.186965
449.50 1.194231
449.60 1.196156
449.70 1.196156
449.80 1.196156
449.90 1.188996
450.00 1.173
450.10 1.150505
450.20 1.125116
450.30 1.107869
450.40 1.103063
450.50 1.110318
450.60 1.126479
450.70 1.147151
450.80 1.16471
450.90 1.172741
451.00 1.172741
451.10 1.172741
451.20 1.172741
451.30 1.172741
451.40 1.172741
451.50 1.172741
451.60 1.172741
451.70 1.172741
451.80 1.172741
451.90 1.172741
452.00 1.172741
452.10 1.170389
452.20 1.166514
452.30 1.163662
452.40 1.163855
452.50 1.164697
452.60 1.164697
452.70 1.164697
452.80 1.164697
452.90 1.164697
453.00 1.164697
453.10 1.164697
453.20 1.164697
453.30 1.164697
453.40 1.170019
453.50 1.182352
453.60 1.201011
453.70 1.217788
453.80 1.233601
453.90 1.249484
454.00 1.262298
454.10 1.267098
454.20 1.259787
454.30 1.2366
454.40 1.196693
454.50 1.143929
454.60 1.086056
454.70 1.032578
454.80 0.9934575
454.90 0.9755105
455.00 0.9790883
455.10 0.9999167
455.20 1.02391
455.30 1.042321
455.40 1.055565
455.50 1.065374
455.60 1.073015
455.70 1.078576
455.80 1.081539
455.90 1.081539
456.00 1.081539
456.10 1.081539
456.20 1.081539
456.30 1.081539
456.40 1.081539
456.50 1.081539
456.60 1.081539
456.70 1.081539
456.80 1.081539
456.90 1.081539
457.00 1.081539
457.10 1.081539
457.20 1.094382
457.30 1.117535
457.40 1.131368
457.50 1.130947
457.60 1.113791
457.70 1.080461
457.80 1.034508
457.90 0.9806476
458.00 0.9238256
458.10 0.8787348
458.20 0.8465707
458.30 0.8263537
458.40 0.8153042
458.50 0.8101077
458.60 0.8146782
458.70 0.8330974
458.80 0.863367
458.90 0.9034562
459.00 0.946015
459.10 0.9835667
459.20 1.011308
459.30 1.026434
459.40 1.028316
459.50 1.021051
459.60 1.019125
459.70 1.019125
459.80 1.019125
459.90 1.019125
460.00 1.019125
460.10 1.019125
460.20 1.019125
460.30 1.012626
460.40 0.9992687
460.50 0.9809027
460.60 0.9599627
460.70 0.9387637
460.80 0.9212048
460.90 0.9131737
461.00 0.9131737
461.10 0.9131737
461.20 0.9131737
461.30 0.9131737
461.40 0.9131737
461.50 0.9131737
461.60 0.9131737
461.70 0.9131737
461.80 0.9141603
461.90 0.9141603
462.00 0.9141603
462.10 0.9141603
462.20 0.9141603
462.30 0.9141603
462.40 0.9139674
462.50 0.9131252
462.60 0.9131252
462.70 0.9131252
462.80 0.9131252
462.90 0.9131252
463.00 0.9131252
463.10 0.9131252
463.20 0.9131252
463.30 0.9131252
463.40 0.9078768
463.50 0.9020286
463.60 0.8942727
463.70 0.883768
463.80 0.868803
463.90 0.8471042
464.00 0.8180355
464.10 0.785779
464.20 0.7587203
464.30 0.7387029
464.40 0.7258618
464.50 0.7184928
464.60 0.7124203
464.70 0.7032837
464.80 0.7015266
464.90 0.7064443
465.00 0.7163352
465.10 0.7296863
465.20 0.7451492
465.30 0.7613736
465.40 0.7762742
465.50 0.7883736
465.60 0.7985955
465.70 0.8090455
465.80 0.8217154
465.90 0.8385876
466.00 0.8576725
466.10 0.8786861
466.20 0.900872
466.30 0.923238
466.40 0.9438241
466.50 0.9599794
466.60 0.9691306
466.70 0.9691306
466.80 0.9691306
466.90 0.9691306
467.00 0.9691306
467.10 0.9691306
467.20 0.9562875
467.30 0.9304371
467.40 0.8956267
467.50 0.8571088
467.60 0.820326
467.70 0.789821
467.80 0.7728181
467.90 0.7703211
468.00 0.783035
468.10 0.8003645
468.20 0.8223168
468.30 0.8472527
468.40 0.8718948
468.50 0.8928643
468.60 0.9006513
468.70 0.8861071
468.80 0.8558375
468.90 0.8157482
469.00 0.771133
469.10 0.7277823
469.20 0.6907733
469.30 0.6647348
469.40 0.6525874
469.50 0.6525874
469.60 0.6525874
469.70 0.6660235
469.80 0.692218
469.90 0.7264449
470.00 0.7622802
470.10 0.7930881
470.20 0.8131994
470.30 0.8196201
470.40 0.8196201
470.50 0.8196201
470.60 0.8196201
470.70 0.8196201
470.80 0.8196201
470.90 0.8196201
471.00 0.831166
471.10 0.8530832
471.20 0.8815934
471.30 0.9125904
471.40 0.9426179
471.50 0.9689725
471.60 0.9892172
471.70 1.000937
471.80 1.000843
471.90 1.000843
472.00 1.000843
472.10 1.000843
472.20 1.000843
472.30 1.000843
472.40 1.000843
472.50 1.000843
472.60 1.000843
472.70 1.000843
472.80 1.000843
472.90 1.000843
473.00 1.000843
473.10 1.000843
473.20 1.000843
473.30 1.000843
473.40 1.00077
473.50 0.9942848
473.60 0.9832067
473.70 0.9696773
473.80 0.9561003
473.90 0.9451568
474.00 0.9399229
474.10 0.9399229
474.20 0.9399229
474.30 0.9399229
474.40 0.9399229
474.50 0.9399229
474.60 0.9399229
474.70 0.9399229
474.80 0.9267021
474.90 0.9002511
475.00 0.8642804
475.10 0.8238858
475.20 0.7844297
475.30 0.7497947
475.40 0.72165
475.50 0.6997411
475.60 0.6818782
475.70 0.6658679
475.80 0.6502347
475.90 0.6333625
476.00 0.6142777
476.10 0.5965147
476.20 0.5853255
476.30 0.5818529
476.40 0.5894132
476.50 0.6118815
476.60 0.6518359
476.70 0.7094195
476.80 0.7706848
476.90 0.8281023
477.00 0.8730372
477.10 0.8991927
477.20 0.9044712
477.30 0.9044712
477.40 0.9044712
477.50 0.9044712
477.60 0.9044712
477.70 0.9044712
477.80 0.8999398
477.90 0.8913579
478.00 0.8785906
478.10 0.8612611
478.20 0.8445166
478.30 0.8377918
478.40 0.8436331
478.50 0.861903
478.60 0.8905086
478.70 0.9260344
478.80 0.9562527
478.90 0.9740708
479.00 0.9795993
479.10 0.9795993
479.20 0.9795993
479.30 0.9795993
479.40 0.9795993
479.50 0.9795993
479.60 0.9795993
479.70 0.9661632
479.80 0.9399687
479.90 0.9092511
480.00 0.8814449
480.10 0.8624018
480.20 0.8564104
480.30 0.864079
480.40 0.8757425
480.50 0.8834531
480.60 0.8862667
480.70 0.8862667
480.80 0.8862667
480.90 0.8862667
481.00 0.8753492
481.10 0.8624058
481.20 0.8539313
481.30 0.8578836
481.40 0.8817735
481.50 0.9299268
481.60 1.002534
481.70 1.096162
481.80 1.204438
481.90 1.307847
482.00 1.397152
482.10 1.466338
482.20 1.512172
482.30 1.534906
482.40 1.538888
482.50 1.538888
482.60 1.538888
482.70 1.538888
482.80 1.538888
482.90 1.538888
483.00 1.538888
483.10 1.538888
483.20 1.538888
483.30 1.538888
483.40 1.538888
483.50 1.538888
483.60 1.538888
483.70 1.538888
483.80 1.538888
483.90 1.538888
484.00 1.538888
484.10 1.538888
484.20 1.538888
484.30 1.538888
484.40 1.538909
484.50 1.538909
484.60 1.538909
484.70 1.538909
484.80 1.538909
484.90 1.538909
485.00 1.538909
485.10 1.538909
485.20 1.538909
485.30 1.538909
485.40 1.538909
485.50 1.538909
485.60 1.538909
485.70 1.538909
485.80 1.538909
485.90 1.538909
486.00 1.538909
486.10 1.535658
486.20 1.524662
486.30 1.505768
486.40 1.477622
486.50 1.438998
486.60 1.389893
486.70 1.332309
486.80 1.271044
486.90 1.213626
487.00 1.168691
487.10 1.142536
487.20 1.137257
487.30 1.137257
487.40 1.137257
487.50 1.137257
487.60 1.137257
487.70 1.137257
487.80 1.137257
487.90 1.137257
488.00 1.137257
488.10 1.137257
488.20 1.132049
488.30 1.113838
488.40 1.083355
488.50 1.044116
488.60 1.001518
488.70 0.962117
488.80 0.9318987
488.90 0.916708
489.00 0.9139028
489.10 0.9148399
489.20 0.9148399
489.30 0.9148399
489.40 0.9148399
489.50 0.9148399
489.60 0.9148399
489.70 0.9148399
489.80 0.9160936
489.90 0.921866
490.00 0.9308317
490.10 0.9425285
490.20 0.956624
490.30 0.9729207
490.40 0.9904772
490.50 1.007415
490.60 1.020889
490.70 1.024491
490.80 1.024491
490.90 1.024491
491.00 1.023863
491.10 1.014889
491.20 0.9948535
491.30 0.9599041
491.40 0.9059868
491.50 0.8314787
491.60 0.7386268
491.70 0.6332797
491.80 0.5241097
491.90 0.4207009
492.00 0.3313965
492.10 0.26221
492.20 0.2163758
492.30 0.1936424
492.40 0.1896604
492.50 0.1896604
492.60 0.1980025
492.70 0.2134928
492.80 0.2338683
492.90 0.257697
493.00 0.2839528
493.10 0.3103098
493.20 0.3347671
493.30 0.3564469
493.40 0.3755704
493.50 0.3944672
493.60 0.4166224
493.70 0.444081
493.80 0.4756919
493.90 0.5089718
494.00 0.5412186
494.10 0.5686188
494.20 0.5869908
494.30 0.5930701
494.40 0.5930489
494.50 0.5930489
494.60 0.5930489
494.70 0.5930489
494.80 0.5930489
494.90 0.5930489
495.00 0.5930489
495.10 0.5930489
495.20 0.5930489
495.30 0.5973285
495.40 0.603647
495.50 0.6072603
495.60 0.6072603
495.70 0.6072603
495.80 0.6072603
495.90 0.6072603
496.00 0.6072603
496.10 0.6072603
496.20 0.6072603
496.30 0.6072603
496.40 0.6072603
496.50 0.6072603
496.60 0.6072603
496.70 0.6072603
496.80 0.6072603
496.90 0.6076977
497.00 0.6140383
497.10 0.6257175
497.20 0.6428795
497.30 0.6656765
497.40 0.6939514
497.50 0.7270844
497.60 0.7636645
497.70 0.8018383
497.80 0.8390381
497.90 0.8725209
498.00 0.8997023
498.10 0.9184393
498.20 0.9280822
498.30 0.9290105
498.40 0.9290105
498.50 0.9290105
498.60 0.9290105
498.70 0.9290105
498.80 0.9290105
498.90 0.9263831
499.00 0.9236599
499.10 0.9227228
499.20 0.9227228
499.30 0.9285235
499.40 0.945349
499.50 0.9697119
499.60 0.9956736
499.70 1.016737
499.80 1.026276
499.90 1.016995
500.00 1
500.10 0.9765384
500.20 0.948323
500.30 0.917937
500.40 0.8887169
500.50 0.8640682
500.60 0.8477807
500.70 0.8441786
500.80 0.8441786
500.90 0.8441786
501.00 0.8441786
501.10 0.8441786
501.20 0.8441786
501.30 0.8441786
501.40 0.8441786
501.50 0.8465584
501.60 0.8601845
501.70 0.8833917
501.80 0.9127787
501.90 0.9440758
502.00 0.9732995
502.10 0.9973105
502.20 1.013642
502.30 1.020713
502.40 1.020713
502.50 1.020713
502.60 1.012371
502.70 0.9968806
502.80 0.9765051
502.90 0.9526764
503.00 0.9264207
503.10 0.9000637
503.20 0.8756063
503.30 0.8539265
503.40 0.834803
503.50 0.8159063
503.60 0.7937511
503.70 0.7662925
503.80 0.7346816
503.90 0.7014017
504.00 0.6691548
504.10 0.6417547
504.20 0.6233826
504.30 0.6173034
504.40 0.6173034
504.50 0.6173034
504.60 0.6173034
504.70 0.6173034
504.80 0.6173034
504.90 0.6173034
505.00 0.6192652
505.10 0.6252713
505.20 0.6320188
505.30 0.6318977
505.40 0.6255791
505.50 0.6219658
505.60 0.6219658
505.70 0.6219658
505.80 0.6219658
505.90 0.6219658
506.00 0.6222615
506.10 0.6292441
506.20 0.6429898
506.30 0.6619933
506.40 0.6831773
506.50 0.7032395
506.60 0.7200772
506.70 0.7332933
506.80 0.743249
506.90 0.749401
507.00 0.7465166
507.10 0.7367507
507.20 0.7217185
507.30 0.7021244
507.40 0.6770025
507.50 0.6442025
507.60 0.6076224
507.70 0.5694486
507.80 0.5322488
507.90 0.498766
508.00 0.4715846
508.10 0.4528476
508.20 0.4432047
508.30 0.4422764
508.40 0.4422764
508.50 0.4422764
508.60 0.4422764
508.70 0.4422764
508.80 0.4422764
508.90 0.4422764
509.00 0.4422764
509.10 0.4529795
509.20 0.4787433
509.30 0.5124068
509.40 0.5447473
509.50 0.5730043
509.60 0.5961116
509.70 0.6141808
509.80 0.6280451
509.90 0.6364707
510.00 0.6364707
510.10 0.6364707
510.20 0.6364707
510.30 0.6364707
510.40 0.6364707
510.50 0.6364707
510.60 0.6364707
510.70 0.6364707
510.80 0.6364707
510.90 0.6405908
511.00 0.650169
511.10 0.6639741
511.20 0.6804081
511.30 0.6975396
511.40 0.7129029
511.50 0.7217239
511.60 0.7140588
511.70 0.6916401
511.80 0.6622531
511.90 0.630956
512.00 0.6017323
512.10 0.5796066
512.20 0.5716385
512.30 0.5813277
512.40 0.6070319
512.50 0.6404662
512.60 0.6785983
512.70 0.7177935
512.80 0.7557056
512.90 0.790285
513.00 0.8184829
513.10 0.8375291
513.20 0.8460218
513.30 0.8460218
513.40 0.8460218
513.50 0.8460218
513.60 0.8460218
513.70 0.8460218
513.80 0.8460218
513.90 0.8460218
514.00 0.8460218
514.10 0.8460218
514.20 0.8460218
514.30 0.8460218
514.40 0.8464631
514.50 0.8481005
514.60 0.8494911
514.70 0.8494911
514.80 0.8494911
514.90 0.8494911
515.00 0.8475293
515.10 0.8415232
515.20 0.8347757
515.30 0.8306172
515.40 0.8312726
515.50 0.8349554
515.60 0.8385061
515.70 0.840005
515.80 0.840005
515.90 0.8403163
516.00 0.8425501
516.10 0.8418799
516.20 0.8389815
516.30 0.8352243
516.40 0.8324722
516.50 0.8311991
516.60 0.8296823
516.70 0.8245345
516.80 0.8145788
516.90 0.8079894
517.00 0.8045332
517.10 0.8026199
517.20 0.8004902
517.30 0.7972873
517.40 0.7941343
517.50 0.7938012
517.60 0.7938012
517.70 0.7938012
517.80 0.7938012
517.90 0.7938012
518.00 0.7938012
518.10 0.7938012
518.20 0.7938012
518.30 0.7938012
518.40 0.7938012
518.50 0.7938012
518.60 0.7938012
518.70 0.7938012
518.80 0.7938012
518.90 0.7938012
519.00 0.7938012
519.10 0.7830981
519.20 0.7573343
519.30 0.7178701
519.40 0.6687041
519.50 0.6160842
519.60 0.5670153
519.70 0.5278822
519.80 0.5032251
519.90 0.4947996
520.00 0.4947996
520.10 0.4947996
520.20 0.4947996
520.30 0.4947996
520.40 0.4947996
520.50 0.4947996
520.60 0.4947996
520.70 0.4947996
520.80 0.4947996
520.90 0.4906794
521.00 0.4811012
521.10 0.4726018
521.20 0.4703348
521.30 0.4740161
521.40 0.482883
521.50 0.4950778
521.60 0.5066409
521.70 0.5133272
521.80 0.5133272
521.90 0.5133272
522.00 0.5133272
522.10 0.5114419
522.20 0.503079
522.30 0.4863183
522.40 0.4606142
522.50 0.4271798
522.60 0.3890478
522.70 0.3498525
522.80 0.3132314
522.90 0.2800888
523.00 0.2535627
523.10 0.2377735
523.20 0.2350946
523.30 0.2442467
523.40 0.2573598
523.50 0.2744946
523.60 0.2959379
523.70 0.3215166
523.80 0.3493191
523.90 0.3762678
524.00 0.3984724
524.10 0.4120876
524.20 0.4143672
524.30 0.4143672
524.40 0.4139259
524.50 0.4122886
524.60 0.410898
524.70 0.410898
524.80 0.410898
524.90 0.410898
525.00 0.410898
525.10 0.410898
525.20 0.410898
525.30 0.410898
525.40 0.4102426
525.50 0.4065597
525.60 0.4070969
525.70 0.4155771
525.80 0.4315795
525.90 0.4518547
526.00 0.4711731
526.10 0.4831315
526.20 0.481754
526.30 0.4665077
526.40 0.4480759
526.50 0.4292868
526.60 0.4139659
526.70 0.4058976
526.80 0.4058976
526.90 0.4058976
527.00 0.4058976
527.10 0.4058976
527.20 0.4058976
527.30 0.4058976
527.40 0.4058976
527.50 0.4058976
527.60 0.4058976
527.70 0.4058976
527.80 0.4058976
527.90 0.4058976
528.00 0.4058976
528.10 0.4058976
528.20 0.4058976
528.30 0.4058976
528.40 0.4058976
528.50 0.4058976
528.60 0.4058976
528.70 0.4058976
528.80 0.4058976
528.90 0.4058976
529.00 0.4058976
529.10 0.4058976
529.20 0.4058976
529.30 0.4058976
529.40 0.4058976
529.50 0.4058976
529.60 0.4058976
529.70 0.4058976
529.80 0.4058976
529.90 0.4058976
530.00 0.4058976
530.10 0.4058976
530.20 0.4058976
530.30 0.4058976
530.40 0.4058976
530.50 0.4058976
530.60 0.4058976
530.70 0.4058976
530.80 0.4058976
530.90 0.4058976
531.00 0.4058976
531.10 0.400592
531.20 0.386425
531.30 0.3656122
531.40 0.3413819
531.50 0.3179864
531.60 0.3004623
531.70 0.2929875
531.80 0.2929875
531.90 0.2929875
532.00 0.2929875
532.10 0.2929875
532.20 0.2980631
532.30 0.3094076
532.40 0.3226871
532.50 0.3334263
532.60 0.3374489
532.70 0.3374489
532.80 0.336158
532.90 0.3347212
533.00 0.3330494
533.10 0.3297924
533.20 0.3306559
533.30 0.3360072
533.40 0.3429581
533.50 0.3480806
533.60 0.346757
533.70 0.3356479
533.80 0.3143649
533.90 0.2874162
534.00 0.2652117
534.10 0.2515965
534.20 0.2493168
534.30 0.2493168
534.40 0.2493168
534.50 0.2493168
534.60 0.2493168
534.70 0.2493168
534.80 0.2493168
534.90 0.2493168
535.00 0.2493168
535.10 0.2493168
535.20 0.2493168
535.30 0.2493168
535.40 0.2493168
535.50 0.2493168
535.60 0.245229
535.70 0.2372302
535.80 0.2254173
535.90 0.208264
536.00 0.1864161
536.10 0.1681452
536.20 0.1586754
536.30 0.1586754
536.40 0.1586754
536.50 0.1586754
536.60 0.1586754
536.70 0.1586754
536.80 0.1586754
536.90 0.1586754
537.00 0.1586754
537.10 0.1586754
537.20 0.1586754
537.30 0.1586754
537.40 0.1586754
537.50 0.1586754
537.60 0.1586754
537.70 0.1586754
537.80 0.1630572
537.90 0.1758729
538.00 0.1949296
538.10 0.2171399
538.20 0.2383681
538.30 0.2546472
538.40 0.2640089
538.50 0.266446
538.60 0.266446
538.70 0.266446
538.80 0.266446
538.90 0.266446
539.00 0.266446
539.10 0.266446
539.20 0.2688537
539.30 0.2767136
539.40 0.2875335
539.50 0.2984871
539.60 0.3070541
539.70 0.3113065
539.80 0.3113065
539.90 0.3113065
540.00 0.3113065
540.10 0.3113065
540.20 0.3113065
540.30 0.3113065
540.40 0.3113065
540.50 0.3113065
540.60 0.3113065
540.70 0.3113065
540.80 0.3113065
540.90 0.3113065
541.00 0.3113065
541.10 0.3113065
541.20 0.3113065
541.30 0.3154385
541.40 0.3300074
541.50 0.3538743
541.60 0.3831865
541.70 0.412838
541.80 0.4379669
541.90 0.4549168
542.00 0.4616606
542.10 0.4616606
542.20 0.456585
542.30 0.4452405
542.40 0.431961
542.50 0.4212218
542.60 0.4171992
542.70 0.4171992
542.80 0.4171992
542.90 0.4173237
543.00 0.4261121
543.10 0.4423107
543.20 0.456785
543.30 0.4654267
543.40 0.4677817
543.50 0.4647581
543.60 0.45794
543.70 0.4482907
543.80 0.4417712
543.90 0.4417712
544.00 0.4417712
544.10 0.4417712
544.20 0.4417712
544.30 0.4417712
544.40 0.4417712
544.50 0.4417712
544.60 0.4417712
544.70 0.4417712
544.80 0.4417712
544.90 0.4417712
545.00 0.4417712
545.10 0.4417712
545.20 0.4417712
545.30 0.4417712
545.40 0.4417712
545.50 0.4417712
545.60 0.4417712
545.70 0.4397909
545.80 0.4356014
545.90 0.4321682
546.00 0.4321682
546.10 0.4321682
546.20 0.4321682
546.30 0.4321682
546.40 0.4321682
546.50 0.4321682
546.60 0.4321682
546.70 0.4321682
546.80 0.4321682
546.90 0.4321682
547.00 0.4321682
547.10 0.4321682
547.20 0.4321682
547.30 0.4321682
547.40 0.4327962
547.50 0.4356098
547.60 0.4407995
547.70 0.4481392
547.80 0.4524165
547.90 0.4487215
548.00 0.4383251
548.10 0.4239845
548.20 0.410497
548.30 0.4024853
548.40 0.4026883
548.50 0.4123857
548.60 0.4289706
548.70 0.4517095
548.80 0.4804815
548.90 0.5128806
549.00 0.5453607
549.10 0.5744218
549.20 0.5950491
549.30 0.6028752
549.40 0.6001302
549.50 0.5895053
549.60 0.5809383
549.70 0.5766859
549.80 0.5766859
549.90 0.5766859
550.00 0.3006748
550.10 0.2601784
550.20 0.2072991
550.30 0.1494369
550.40 0.09495926
550.50 0.05390904
550.60 0.03362919
550.70 0.03992759
550.80 0.06157535
550.90 0.08437712
551.00 0.1060278
551.10 0.1257021
551.20 0.145054
551.30 0.1657225
551.40 0.1896342
551.50 0.2199705
551.60 0.2614326
551.70 0.3182799
551.80 0.3902099
551.90 0.4712077
552.00 0.5524079
552.10 0.6250606
552.20 0.6826482
552.30 0.7218633
552.40 0.7420505
552.50 0.7428722
552.60 0.7428722
552.70 0.7428722
552.80 0.7428722
552.90 0.7428722
553.00 0.7428722
553.10 0.7428722
553.20 0.7428722
553.30 0.7428722
553.40 0.7428722
553.50 0.7428722
553.60 0.7428722
553.70 0.7428722
553.80 0.7428722
553.90 0.7428722
554.00 0.7428722
554.10 0.7428722
554.20 0.7466989
554.30 0.764519
554.40 0.7958077
554.50 0.8341167
554.60 0.8729409
554.70 0.9067116
554.80 0.9340585
554.90 0.9561522
555.00 0.9766725
555.10 0.9989936
555.20 1.038211
555.30 1.118084
555.40 1.240495
555.50 1.419359
555.60 1.689652
555.70 2.067816
555.80 2.549418
555.90 3.112844
556.00 3.722857
556.10 4.333627
556.20 4.896338
556.30 5.370487
556.40 5.732343
556.50 5.983279
556.60 6.119105
556.70 6.163281
556.80 6.167253
556.90 6.167253
557.00 6.167253
557.10 6.167253
557.20 6.167253
557.30 6.167253
557.40 6.167253
557.50 6.167253
557.60 6.171712
557.70 6.192911
557.80 6.234879
557.90 6.301732
558.00 6.392822
558.10 6.504618
558.20 6.631654
558.30 6.763275
558.40 6.896736
558.50 7.031822
558.60 7.168873
558.70 7.303642
558.80 7.42724
558.90 7.530869
559.00 7.607835
559.10 7.654812
559.20 7.656234
559.30 7.589936
559.40 7.459583
559.50 7.256882
559.60 6.947289
559.70 6.512277
559.80 5.958745
559.90 5.314322
560.00 4.623109
560.10 3.939686
560.20 3.319388
560.30 2.806023
560.40 2.42398
560.50 2.172223
560.60 2.036397
560.70 1.992221
560.80 1.988249
560.90 1.988249
561.00 1.988249
561.10 1.988249
561.20 1.988249
561.30 1.988249
561.40 1.989823
561.50 2.000444
561.60 2.016743
561.70 2.026106
561.80 2.021757
561.90 1.995993
562.00 1.947517
562.10 1.879611
562.20 1.796048
562.30 1.699325
562.40 1.587088
562.50 1.453118
562.60 1.293914
562.70 1.114936
562.80 0.9423443
562.90 0.7938192
563.00 0.6746829
563.10 0.5857105
563.20 0.5257184
563.30 0.4941048
563.40 0.492545
563.50 0.5046498
563.60 0.5163896
563.70 0.5191479
563.80 0.5191479
563.90 0.5191479
564.00 0.5191479
564.10 0.5235721
564.20 0.5406736
564.30 0.5686122
564.40 0.6011252
564.50 0.6299873
564.60 0.6491149
564.70 0.6569879
564.80 0.6569879
564.90 0.6569879
565.00 0.6643064
565.10 0.6847144
565.20 0.7179468
565.30 0.7582047
565.40 0.7953195
565.50 0.8137339
565.60 0.8065693
565.70 0.776007
565.80 0.7383887
565.90 0.697299
566.00 0.6546844
566.10 0.6107948
566.20 0.5739457
566.30 0.5595154
566.40 0.5707067
566.50 0.6141791
566.60 0.6938489
566.70 0.8071614
566.80 0.9298839
566.90 1.042674
567.00 1.136986
567.10 1.209485
567.20 1.262422
567.30 1.297879
567.40 1.312932
567.50 1.326645
567.60 1.365589
567.70 1.454407
567.80 1.59319
567.90 1.774742
568.00 1.985136
568.10 2.199525
568.20 2.389143
568.30 2.539279
568.40 2.644495
568.50 2.707426
568.60 2.735576
568.70 2.739688
568.80 2.739688
568.90 2.739688
569.00 2.73237
569.10 2.711962
569.20 2.692314
569.30 2.681482
569.40 2.685011
569.50 2.703813
569.60 2.734283
569.70 2.76453
569.80 2.772482
569.90 2.772482
570.00 2.772482
570.10 2.772482
570.20 2.762031
570.30 2.723743
570.40 2.658469
570.50 2.568538
570.60 2.459222
570.70 2.337998
570.80 2.217943
570.90 2.121414
571.00 2.059355
571.10 2.035066
571.20 2.045142
571.30 2.081967
571.40 2.132057
571.50 2.173107
571.60 2.177839
571.70 2.121074
571.80 1.991034
571.90 1.809482
572.00 1.599088
572.10 1.380275
572.20 1.173555
572.30 0.9954805
572.40 0.8577515
572.50 0.7659586
572.60 0.7186806
572.70 0.7066953
572.80 0.7066953
572.90 0.7066953
573.00 0.7066953
573.10 0.7066953
573.20 0.6931111
573.30 0.6636848
573.40 0.6214674
573.50 0.5736301
573.60 0.5295662
573.70 0.4993194
573.80 0.4913674
573.90 0.4913674
574.00 0.4913674
574.10 0.4913674
574.20 0.4970925
574.30 0.5098243
574.40 0.5262609
574.50 0.5433701
574.60 0.5586591
574.70 0.5704977
574.80 0.5771087
574.90 0.570822
575.00 0.5530725
575.10 0.5287356
575.20 0.5030561
575.30 0.4803085
575.40 0.4670724
575.50 0.4722345
575.60 0.5025643
575.70 0.5616034
575.80 0.6494191
575.90 0.7453686
576.00 0.8371315
576.10 0.922345
576.20 0.9993004
576.30 1.066142
576.40 1.122683
576.50 1.169212
576.60 1.20381
576.70 1.224723
576.80 1.23208
576.90 1.23208
577.00 1.23208
577.10 1.23208
577.20 1.23208
577.30 1.23208
577.40 1.23208
577.50 1.23208
577.60 1.23208
577.70 1.23208
577.80 1.23208
577.90 1.23208
578.00 1.23208
578.10 1.236826
578.20 1.260753
578.30 1.300901
578.40 1.355731
578.50 1.420919
578.60 1.490648
578.70 1.55899
578.80 1.618546
578.90 1.662088
579.00 1.6849
579.10 1.682223
579.20 1.650948
579.30 1.598784
579.40 1.532466
579.50 1.453938
579.60 1.36603
579.70 1.27218
579.80 1.175622
579.90 1.079672
580.00 0.9879093
580.10 0.9026957
580.20 0.8257403
580.30 0.7588989
580.40 0.7023577
580.50 0.6558283
580.60 0.6212306
580.70 0.6003178
580.80 0.5929607
580.90 0.5929607
581.00 0.5929607
581.10 0.5929607
581.20 0.5929607
581.30 0.607915
581.40 0.6470533
581.50 0.7012824
581.60 0.7587845
581.70 0.8077422
581.80 0.8398818
581.90 0.8543703
582.00 0.8581671
582.10 0.8561094
582.20 0.8344522
582.30 0.7958701
582.40 0.7427163
582.50 0.6792535
582.60 0.6135256
582.70 0.5554437
582.80 0.5115443
582.90 0.483911
583.00 0.4715925
583.10 0.4727893
583.20 0.4859591
583.30 0.5003665
583.40 0.5061313
583.50 0.5061313
583.60 0.5061313
583.70 0.5061313
583.80 0.5061313
583.90 0.5223511
584.00 0.5765197
584.10 0.6752257
584.20 0.81611
584.30 0.9871865
584.40 1.169312
584.50 1.339605
584.60 1.47751
584.70 1.571645
584.80 1.622601
584.90 1.640609
585.00 1.641092
585.10 1.641092
585.20 1.653396
585.30 1.665654
585.40 1.660901
585.50 1.634947
585.60 1.586577
585.70 1.53762
585.80 1.50548
585.90 1.490992
586.00 1.487195
586.10 1.484507
586.20 1.476512
586.30 1.462214
586.40 1.444101
586.50 1.425267
586.60 1.405977
586.70 1.383878
586.80 1.358943
586.90 1.333061
587.00 1.308064
587.10 1.28567
587.20 1.266442
587.30 1.252035
587.40 1.24627
587.50 1.24627
587.60 1.24627
587.70 1.24627
587.80 1.24627
587.90 1.23005
588.00 1.178798
588.10 1.09874
588.20 0.9792795
588.30 0.8180929
588.40 0.635967
588.50 0.4656747
588.60 0.3277697
588.70 0.2336346
588.80 0.1826782
588.90 0.1646704
589.00 0.1641877
589.10 0.1641877
589.20 0.1525301
589.30 0.1411686
589.40 0.1318676
589.50 0.1304428
589.60 0.1425718
589.70 0.153148
589.80 0.153148
589.90 0.153148
590.00 0.153148
590.10 0.153148
590.20 0.153148
590.30 0.1617296
590.40 0.1955335
590.50 0.2557495
590.60 0.3376369
590.70 0.4309822
590.80 0.5208494
590.90 0.5914278
591.00 0.630101
591.10 0.6304358
591.20 0.6304358
591.30 0.6304358
591.40 0.6304358
591.50 0.6304358
591.60 0.6304358
591.70 0.6304358
591.80 0.6304358
591.90 0.6304358
592.00 0.6275189
592.10 0.6088712
592.20 0.5874474
592.30 0.5775576
592.40 0.5775576
592.50 0.5775576
592.60 0.5775576
592.70 0.5775576
592.80 0.5775576
592.90 0.5775576
593.00 0.5775576
593.10 0.5775576
593.20 0.576911
593.30 0.5610603
593.40 0.5359757
593.50 0.5091254
593.60 0.487864
593.70 0.4772878
593.80 0.4772878
593.90 0.4772878
594.00 0.4772878
594.10 0.4772878
594.20 0.4772878
594.30 0.4687062
594.40 0.4349023
594.50 0.3746863
594.60 0.2927989
594.70 0.1994536
594.80 0.1095865
594.90 0.03900798
595.00 0.0003347841
595.10 0
595.20 0
595.30 0
595.40 0
595.50 0.01495575
595.60 0.04571327
595.70 0.0874457
595.80 0.1350301
595.90 0.1835074
596.00 0.2294337
596.10 0.2709414
596.20 0.3075396
596.30 0.3399262
596.40 0.3678255
596.50 0.390083
596.60 0.406218
596.70 0.4152605
596.80 0.4152605
596.90 0.4152605
597.00 0.4152605
597.10 0.4152605
597.20 0.4152605
597.30 0.4152605
597.40 0.4152605
597.50 0.4152605
597.60 0.4152605
597.70 0.4206113
597.80 0.4453993
597.90 0.488482
598.00 0.5427464
598.10 0.6004825
598.20 0.6572273
598.30 0.7095202
598.40 0.7528342
598.50 0.7841865
598.60 0.8048681
598.70 0.819703
598.80 0.8354134
598.90 0.8596418
599.00 0.8972794
599.10 0.9495045
599.20 1.01532
599.30 1.092438
599.40 1.177316
599.50 1.247996
599.60 1.292986
599.70 1.306201
599.80 1.284967
599.90 1.23649
600.00 2.170573
600.10 2.309444
600.20 2.269793
600.30 2.091715
600.40 1.732562
600.50 1.25409
600.60 0.8272655
600.70 0.5933959
600.80 0.6284164
600.90 0.9691355
601.00 1.505503
601.10 2.089005
601.20 2.632613
601.30 3.084722
601.40 3.395111
601.50 3.425443
601.60 3.029919
601.70 2.197881
601.80 1.054008
601.90 0
602.00 0
602.10 0
602.20 0
602.30 0
602.40 0
602.50 0
602.60 0
602.70 0
602.80 0
602.90 0
603.00 0.9500825
603.10 1.970224
603.20 2.889244
603.30 3.599155
603.40 3.992028
603.50 3.979848
603.60 3.542422
603.70 2.783138
603.80 1.965502
603.90 1.369455
604.00 1.162675
604.10 1.354054
604.20 1.852696
604.30 2.528719
604.40 3.15078
604.50 3.479837
604.60 3.407291
604.70 2.947123
604.80 2.196075
604.90 1.337847
605.00 0.5995235
605.10 0.1404171
605.20 0
605.30 0
605.40 0.1020472
605.50 0.3835431
605.60 0.7103429
605.70 1.095205
605.80 1.587267
605.90 2.156379
606.00 2.716845
606.10 3.160959
606.20 3.390458
606.30 3.323348
606.40 2.962156
606.50 2.453826
606.60 1.989515
606.70 1.674116
606.80 1.51799
606.90 1.518704
607.00 1.66918
607.10 1.934624
607.20 2.259443
607.30 2.604068
607.40 2.954395
607.50 3.297856
607.60 3.621951
607.70 3.92234
607.80 4.203397
607.90 4.440259
608.00 4.589788
608.10 4.601134
608.20 4.4043
608.30 3.986123
608.40 3.418441
608.50 2.728347
608.60 1.940398
608.70 1.1968
608.80 0.6802261
608.90 0.5159182
609.00 0.7394157
609.10 1.274783
609.20 1.913194
609.30 2.401217
609.40 2.570144
609.50 2.46044
609.60 2.251248
609.70 2.067794
609.80 1.951662
609.90 1.994217
610.00 2.270732
610.10 2.705382
610.20 3.126277
610.30 3.39282
610.40 3.481297
610.50 3.437612
610.60 3.396863
610.70 3.52698
610.80 3.895056
610.90 4.374068
611.00 4.764067
611.10 4.953089
611.20 4.902215
611.30 4.603449
611.40 4.095937
611.50 3.445721
611.60 2.761421
611.70 2.183956
611.80 1.78266
611.90 1.602126
612.00 1.622952
612.10 1.755017
612.20 1.909933
612.30 2.046734
612.40 2.13376
612.50 2.096715
612.60 1.909597
612.70 1.632604
612.80 1.331219
612.90 1.066149
613.00 0.9101468
613.10 0.9235282
613.20 1.122885
613.30 1.422914
613.40 1.690308
613.50 1.822171
613.60 1.765521
613.70 1.559778
613.80 1.339052
613.90 1.225477
614.00 1.24559
614.10 1.358889
614.20 1.530194
614.30 1.718218
614.40 1.870412
614.50 1.944927
614.60 1.940554
614.70 1.940509
614.80 2.035917
614.90 2.253225
615.00 2.568742
615.10 2.890993
615.20 3.082653
615.30 3.080511
615.40 2.903118
615.50 2.596912
615.60 2.230765
615.70 1.901961
615.80 1.679927
615.90 1.585868
616.00 1.62104
616.10 1.721373
616.20 1.789413
616.30 1.784372
616.40 1.725826
616.50 1.688247
616.60 1.845302
616.70 2.28743
616.80 2.950549
616.90 3.756062
617.00 4.593224
617.10 5.321028
617.20 5.819484
617.30 6.00188
617.40 5.8054
617.50 5.235674
617.60 4.39541
617.70 3.412189
617.80 2.454807
617.90 1.703231
618.00 1.178596
618.10 0.851315
618.20 0.731541
618.30 0.7703671
618.40 0.8980162
618.50 1.040662
618.60 1.113031
618.70 1.046181
618.80 0.8272501
618.90 0.5258175
619.00 0.2554756
619.10 0.1330175
619.20 0.1774631
619.30 0.2976362
619.40 0.3699141
619.50 0.3477049
619.60 0.3093281
619.70 0.3770906
619.80 0.610042
619.90 0.9800645
620.00 1.409835
620.10 1.809322
620.20 2.111994
620.30 2.254029
620.40 2.184072
620.50 1.887544
620.60 1.458962
620.70 1.062469
620.80 0.8311575
620.90 0.818828
621.00 0.97107
621.10 1.134417
621.20 1.182711
621.30 1.093523
621.40 0.9048192
621.50 0.6679571
621.60 0.412444
621.70 0.1715254
621.80 0.005260547
621.90 0
622.00 0.162302
622.10 0.4244836
622.20 0.7550649
622.30 1.166454
622.40 1.626906
622.50 2.084118
622.60 2.465172
622.70 2.679485
622.80 2.732436
622.90 2.725132
623.00 2.760196
623.10 2.886654
623.20 3.065229
623.30 3.222385
623.40 3.309804
623.50 3.309702
623.60 3.189266
623.70 2.911741
623.80 2.50323
623.90 2.026102
624.00 1.57862
624.10 1.288737
624.20 1.181447
624.30 1.193508
624.40 1.253995
624.50 1.297366
624.60 1.294205
624.70 1.23568
624.80 1.128767
624.90 0.9933265
625.00 0.8331702
625.10 0.6412087
625.20 0.4233383
625.30 0.2252725
625.40 0.1035528
625.50 0.08659831
625.60 0.1808014
625.70 0.3571419
625.80 0.5596587
625.90 0.7214757
626.00 0.8291997
626.10 0.9448144
626.20 1.165305
626.30 1.560621
626.40 2.117018
626.50 2.734093
626.60 3.234356
626.70 3.46847
626.80 3.372116
626.90 2.942726
627.00 2.24525
627.10 1.429534
627.20 0.7049592
627.30 0.2715936
627.40 0.2120778
627.50 0.4562238
627.60 0.8390457
627.70 1.195743
627.80 1.44733
627.90 1.578682
628.00 1.671357
628.10 1.831468
628.20 2.073534
628.30 2.380704
628.40 2.743216
628.50 3.130868
628.60 3.509093
628.70 3.847322
628.80 4.121423
628.90 4.33867
629.00 4.472253
629.10 4.471055
629.20 4.314192
629.30 4.030641
629.40 3.66905
629.50 3.283708
629.60 3.039722
629.70 3.10504
629.80 3.470762
629.90 4.040209
630.00 4.688724
630.10 5.265743
630.20 5.629067
630.30 5.66204
630.40 5.378556
630.50 4.874813
630.60 4.256167
630.70 3.646638
630.80 3.167372
630.90 2.933316
631.00 2.947679
631.10 3.109302
631.20 3.373445
631.30 3.689671
631.40 3.929703
631.50 3.974169
631.60 3.819561
631.70 3.561819
631.80 3.277501
631.90 3.017682
632.00 2.840567
632.10 2.839623
632.20 3.073709
632.30 3.455647
632.40 3.773241
632.50 3.839308
632.60 3.572419
632.70 2.996584
632.80 2.270378
632.90 1.625724
633.00 1.209405
633.10 1.043468
633.20 1.105766
633.30 1.400073
633.40 1.907137
633.50 2.512236
633.60 3.078672
633.70 3.537992
633.80 3.907338
633.90 4.213526
634.00 4.465453
634.10 4.661885
634.20 4.75368
634.30 4.713364
634.40 4.565716
634.50 4.357095
634.60 4.163626
634.70 4.017246
634.80 3.904145
634.90 3.789363
635.00 3.648432
635.10 3.474861
635.20 3.251173
635.30 2.981161
635.40 2.67075
635.50 2.345662
635.60 2.085254
635.70 1.965273
635.80 2.050394
635.90 2.386111
636.00 2.926443
636.10 3.591603
636.20 4.389287
636.30 5.330525
636.40 6.27425
636.50 7.026328
636.60 7.458
636.70 7.508798
636.80 7.200791
636.90 6.607628
637.00 5.824488
637.10 4.994461
637.20 4.240338
637.30 3.651074
637.40 3.370421
637.50 3.463328
637.60 3.77856
637.70 4.097145
637.80 4.274766
637.90 4.218052
638.00 3.915042
638.10 3.448056
638.20 2.939058
638.30 2.535894
638.40 2.383221
638.50 2.542182
638.60 3.006739
638.70 3.695783
638.80 4.412203
638.90 4.97512
639.00 5.308772
639.10 5.428918
639.20 5.424045
639.30 5.390614
639.40 5.350824
639.50 5.25931
639.60 5.066557
639.70 4.749037
639.80 4.319893
639.90 3.824877
640.00 3.328043
640.10 2.915899
640.20 2.675158
640.30 2.663329
640.40 2.881423
640.50 3.253674
640.60 3.663807
640.70 3.999688
640.80 4.211425
640.90 4.340277
641.00 4.434894
641.10 4.503996
641.20 4.546698
641.30 4.564832
641.40 4.547483
641.50 4.477834
641.60 4.350117
641.70 4.184856
641.80 3.989491
641.90 3.744414
642.00 3.438683
642.10 3.072654
642.20 2.673215
642.30 2.276662
642.40 1.930109
642.50 1.688994
642.60 1.588775
642.70 1.649647
642.80 1.921533
642.90 2.43826
643.00 3.137965
643.10 3.857226
643.20 4.449051
643.30 4.835639
643.40 4.960827
643.50 4.828104
643.60 4.446153
643.70 3.837267
643.80 3.112915
643.90 2.429589
644.00 1.931204
644.10 1.683978
644.20 1.666294
644.30 1.850926
644.40 2.206956
644.50 2.693567
644.60 3.237815
644.70 3.751815
644.80 4.227289
644.90 4.674347
645.00 5.125291
645.10 5.585847
645.20 5.967614
645.30 6.165905
645.40 6.093096
645.50 5.750514
645.60 5.23044
645.70 4.62584
645.80 4.065526
645.90 3.677514
646.00 3.506505
646.10 3.568481
646.20 3.827505
646.30 4.245797
646.40 4.766471
646.50 5.291767
646.60 5.730923
646.70 5.981332
646.80 6.045703
646.90 5.991209
647.00 5.82911
647.10 5.566524
647.20 5.216954
647.30 4.814488
647.40 4.45602
647.50 4.227445
647.60 4.160988
647.70 4.18919
647.80 4.208596
647.90 4.187536
648.00 4.136262
648.10 4.11185
648.20 4.083279
648.30 3.994278
648.40 3.907928
648.50 3.928863
648.60 4.148196
648.70 4.590775
648.80 5.186107
648.90 5.827073
649.00 6.376548
649.10 6.701993
649.20 6.741375
649.30 6.499956
649.40 6.138992
649.50 5.883768
649.60 5.898086
649.70 6.217354
649.80 6.738633
649.90 7.289973
650.00 7.656885
650.10 7.645617
650.20 7.188979
650.30 6.343636
650.40 5.277378
650.50 4.250862
650.60 3.495276
650.70 3.190943
650.80 3.356894
650.90 3.839927
651.00 4.464134
651.10 5.085508
651.20 5.579087
651.30 5.839088
651.40 5.835844
651.50 5.652256
651.60 5.410894
651.70 5.212321
651.80 5.118153
651.90 5.149333
652.00 5.313746
652.10 5.540819
652.20 5.712229
652.30 5.758224
652.40 5.663905
652.50 5.482422
652.60 5.314043
652.70 5.276257
652.80 5.447446
652.90 5.807347
653.00 6.280469
653.10 6.770632
653.20 7.199179
653.30 7.499415
653.40 7.659269
653.50 7.733121
653.60 7.73007
653.70 7.618667
653.80 7.389445
653.90 7.059808
654.00 6.618358
654.10 6.061649
654.20 5.500542
654.30 5.106048
654.40 4.96953
654.50 5.06681
654.60 5.308739
654.70 5.611141
654.80 5.863685
654.90 5.952646
655.00 5.859331
655.10 5.649996
655.20 5.388512
655.30 5.100655
655.40 4.854476
655.50 4.747983
655.60 4.802237
655.70 4.997651
655.80 5.344967
655.90 5.867254
656.00 6.543198
656.10 7.29058
656.20 7.995115
656.30 8.529247
656.40 8.816803
656.50 8.840894
656.60 8.633123
656.70 8.248125
656.80 7.731447
656.90 7.149087
657.00 6.577635
657.10 6.074664
657.20 5.690075
657.30 5.475785
657.40 5.472957
657.50 5.736674
657.60 6.285848
657.70 7.033962
657.80 7.804947
657.90 8.415015
658.00 8.745726
658.10 8.736714
658.20 8.421226
658.30 7.877721
658.40 7.188939
658.50 6.47678
658.60 5.854434
658.70 5.398808
658.80 5.158247
658.90 5.114007
659.00 5.186777
659.10 5.301949
659.20 5.404849
659.30 5.47351
659.40 5.542395
659.50 5.661429
659.60 5.831717
659.70 6.025277
659.80 6.26099
659.90 6.573237
660.00 6.965492
660.10 7.365239
660.20 7.630564
660.30 7.634416
660.40 7.354175
660.50 6.885724
660.60 6.355619
660.70 5.878343
660.80 5.504174
660.90 5.254758
661.00 5.135689
661.10 5.132444
661.20 5.200411
661.30 5.273345
661.40 5.294837
661.50 5.270661
661.60 5.28378
661.70 5.416536
661.80 5.683096
661.90 6.01346
662.00 6.315256
662.10 6.510168
662.20 6.536819
662.30 6.386085
662.40 6.143342
662.50 5.921311
662.60 5.790192
662.70 5.76101
662.80 5.825888
662.90 5.976707
663.00 6.176868
663.10 6.387302
663.20 6.587907
663.30 6.782006
663.40 6.972996
663.50 7.144325
663.60 7.321183
663.70 7.537479
663.80 7.764234
663.90 7.930317
664.00 7.975177
664.10 7.930564
664.20 7.868479
664.30 7.831168
664.40 7.845256
664.50 7.891742
664.60 7.899468
664.70 7.7923
664.80 7.561371
664.90 7.25134
665.00 6.896983
665.10 6.563954
665.20 6.350563
665.30 6.338097
665.40 6.577787
665.50 7.030455
665.60 7.576731
665.70 8.097015
665.80 8.528854
665.90 8.83393
666.00 8.987446
666.10 9.009304
666.20 8.943457
666.30 8.826877
666.40 8.675518
666.50 8.493208
666.60 8.277223
666.70 8.046633
666.80 7.872179
666.90 7.865452
667.00 8.137064
667.10 8.738427
667.20 9.543718
667.30 10.31683
667.40 10.87687
667.50 11.12408
667.60 11.03416
667.70 10.65931
667.80 10.10543
667.90 9.490899
668.00 8.947538
668.10 8.595231
668.20 8.461618
668.30 8.483962
668.40 8.578381
668.50 8.679534
668.60 8.765729
668.70 8.866057
668.80 9.017034
668.90 9.269087
669.00 9.670988
669.10 10.19919
669.20 10.78895
669.30 11.37268
669.40 11.85233
669.50 12.11672
669.60 12.09905
669.70 11.79611
669.80 11.23567
669.90 10.45656
670.00 9.548149
670.10 8.616431
670.20 7.768836
670.30 7.082367
670.40 6.554016
670.50 6.191359
670.60 6.020553
670.70 6.023905
670.80 6.177063
670.90 6.501454
671.00 6.988784
671.10 7.539724
671.20 8.032296
671.30 8.395302
671.40 8.597376
671.50 8.654953
671.60 8.611623
671.70 8.520325
671.80 8.464025
671.90 8.490097
672.00 8.626248
672.10 8.916159
672.20 9.350811
672.30 9.817849
672.40 10.18171
672.50 10.39212
672.60 10.46595
672.70 10.40228
672.80 10.2149
672.90 9.970685
673.00 9.743642
673.10 9.559311
673.20 9.39525
673.30 9.242306
673.40 9.113217
673.50 9.016726
673.60 8.939932
673.70 8.857172
673.80 8.754317
673.90 8.664992
674.00 8.646361
674.10 8.71654
674.20 8.902525
674.30 9.245665
674.40 9.765668
674.50 10.49118
674.60 11.3976
674.70 12.35213
674.80 13.14418
674.90 13.55494
675.00 13.48493
675.10 12.98193
675.20 12.17886
675.30 11.19642
675.40 10.14292
675.50 9.197524
675.60 8.51463
675.70 8.155131
675.80 8.104813
675.90 8.230932
676.00 8.3717
676.10 8.483659
676.20 8.57882
676.30 8.652836
676.40 8.684057
676.50 8.632925
676.60 8.470743
676.70 8.211022
676.80 7.941767
676.90 7.773938
677.00 7.775593
677.10 7.957519
677.20 8.26347
677.30 8.6463
677.40 9.096863
677.50 9.611401
677.60 10.17031
677.70 10.70677
677.80 11.18945
677.90 11.65945
678.00 12.16451
678.10 12.69232
678.20 13.13437
678.30 13.37546
678.40 13.36006
678.50 13.08635
678.60 12.6044
678.70 11.98291
678.80 11.2941
678.90 10.582
679.00 9.903069
679.10 9.36494
679.20 9.038802
679.30 8.965085
679.40 9.181079
679.50 9.633129
679.60 10.17783
679.70 10.65351
679.80 10.92678
679.90 10.94538
680.00 10.75993
680.10 10.47223
680.20 10.16486
680.30 9.882311
680.40 9.63241
680.50 9.409959
680.60 9.176488
680.70 8.854544
680.80 8.382237
680.90 7.822115
681.00 7.333418
681.10 7.041405
681.20 6.980237
681.30 7.112885
681.40 7.363144
681.50 7.673456
681.60 8.026511
681.70 8.374457
681.80 8.657189
681.90 8.821137
682.00 8.846271
682.10 8.714995
682.20 8.383205
682.30 7.831799
682.40 7.093097
682.50 6.224244
682.60 5.367052
682.70 4.727143
682.80 4.424569
682.90 4.452082
683.00 4.73103
683.10 5.190413
683.20 5.772334
683.30 6.401944
683.40 6.996654
683.50 7.531769
683.60 7.995517
683.70 8.331717
683.80 8.49855
683.90 8.569766
684.00 8.667718
684.10 8.824663
684.20 9.009825
684.30 9.181442
684.40 9.303295
684.50 9.341179
684.60 9.268904
684.70 9.100682
684.80 8.85893
684.90 8.545935
685.00 8.209055
685.10 7.944617
685.20 7.819288
685.30 7.835664
685.40 7.951445
685.50 8.141191
685.60 8.447755
685.70 8.896171
685.80 9.426143
685.90 9.926888
686.00 10.28372
686.10 10.44051
686.20 10.41747
686.30 10.25379
686.40 9.995792
686.50 9.764121
686.60 9.691578
686.70 9.794591
686.80 9.968337
686.90 10.09256
687.00 10.06871
687.10 9.829683
687.20 9.398126
687.30 8.899707
687.40 8.47264
687.50 8.15583
687.60 7.89461
687.70 7.62951
687.80 7.3324
687.90 6.950789
688.00 6.477912
688.10 6.001487
688.20 5.627071
688.30 5.39576
688.40 5.306095
688.50 5.344469
688.60 5.423731
688.70 5.373598
688.80 5.126549
688.90 4.818824
689.00 4.606714
689.10 4.580404
689.20 4.786883
689.30 5.225801
689.40 5.839642
689.50 6.492662
689.60 7.042256
689.70 7.406973
689.80 7.520623
689.90 7.402509
690.00 7.192925
690.10 7.065409
690.20 7.093555
690.30 7.209717
690.40 7.357823
690.50 7.513357
690.60 7.624047
690.70 7.627654
690.80 7.459422
690.90 7.094417
691.00 6.564818
691.10 5.932414
691.20 5.290031
691.30 4.716214
691.40 4.276098
691.50 4.020948
691.60 3.963566
691.70 4.123662
691.80 4.509721
691.90 5.105886
692.00 5.837474
692.10 6.565857
692.20 7.193621
692.30 7.70781
692.40 8.144095
692.50 8.506121
692.60 8.760998
692.70 8.874911
692.80 8.807969
692.90 8.575696
693.00 8.246623
693.10 7.878621
693.20 7.53258
693.30 7.226256
693.40 7.019927
693.50 7.019343
693.60 7.225885
693.70 7.569647
693.80 7.952996
693.90 8.312498
694.00 8.635287
694.10 8.933929
694.20 9.261323
694.30 9.707269
694.40 10.36428
694.50 11.21968
694.60 12.16634
694.70 13.1235
694.80 13.99076
694.90 14.60511
695.00 14.82362
695.10 14.57113
695.20 13.86681
695.30 12.83241
695.40 11.62995
695.50 10.41298
695.60 9.316753
695.70 8.426704
695.80 7.719029
695.90 7.142714
696.00 6.707076
696.10 6.405218
696.20 6.186436
696.30 6.056822
696.40 6.100714
696.50 6.438557
696.60 7.108694
696.70 7.988232
696.80 8.897752
696.90 9.678396
697.00 10.22439
697.10 10.4735
697.20 10.44778
697.30 10.22736
697.40 9.885398
697.50 9.514154
697.60 9.199418
697.70 8.982217
697.80 8.851761
697.90 8.72615
698.00 8.55832
698.10 8.392236
698.20 8.288664
698.30 8.284983
698.40 8.366823
698.50 8.502069
698.60 8.693703
698.70 8.974906
698.80 9.337945
698.90 9.72569
699.00 10.08483
699.10 10.38993
699.20 10.64067
699.30 10.82273
699.40 10.86609
699.50 10.72355
699.60 10.43632
699.70 10.07988
699.80 9.718964
699.90 9.406532
700.00 9.170301
700.10 8.998796
700.20 8.845714
700.30 8.673438
700.40 8.494142
700.50 8.342293
700.60 8.25023
700.70 8.228037
700.80 8.304172
700.90 8.508822
701.00 8.803814
701.10 9.149347
701.20 9.555989
701.30 10.04165
701.40 10.60993
701.50 11.25403
701.60 11.95614
701.70 12.67614
701.80 13.33664
701.90 13.82473
702.00 14.01253
702.10 13.85592
702.20 13.4089
702.30 12.7633
702.40 12.06819
702.50 11.48578
702.60 11.12665
702.70 11.04546
702.80 11.21129
702.90 11.54617
703.00 11.97545
703.10 12.39211
703.20 12.69451
703.30 12.8537
703.40 12.92845
703.50 13.00524
703.60 13.15683
703.70 13.42882
703.80 13.81579
703.90 14.28712
704.00 14.75092
704.10 15.04759
704.20 15.04848
704.30 14.71954
704.40 14.12929
704.50 13.42836
704.60 12.78904
704.70 12.38971
704.80 12.35131
704.90 12.6296
705.00 13.06312
705.10 13.50511
705.20 13.86212
705.30 14.04872
705.40 14.02856
705.50 13.83737
705.60 13.52809
705.70 13.13492
705.80 12.69069
705.90 12.25087
706.00 11.90151
706.10 11.68991
706.20 11.60264
706.30 11.67007
706.40 11.93082
706.50 12.36138
706.60 12.89306
706.70 13.4403
706.80 13.92493
706.90 14.30602
707.00 14.59996
707.10 14.8539
707.20 15.10559
707.30 15.38431
707.40 15.68785
707.50 15.9476
707.60 16.08216
707.70 16.05003
707.80 15.85808
707.90 15.54142
708.00 15.13793
708.10 14.69621
708.20 14.28324
708.30 13.96802
708.40 13.78821
708.50 13.73122
708.60 13.78939
708.70 13.96338
708.80 14.18373
708.90 14.37631
709.00 14.54254
709.10 14.69889
709.20 14.8221
709.30 14.84065
709.40 14.73851
709.50 14.58381
709.60 14.43083
709.70 14.29801
709.80 14.15216
709.90 13.99946
710.00 13.87672
710.10 13.77489
710.20 13.72317
710.30 13.75109
710.40 13.80807
710.50 13.83323
710.60 13.81332
710.70 13.78551
710.80 13.7607
710.90 13.70834
711.00 13.62926
711.10 13.53222
711.20 13.48455
711.30 13.55812
711.40 13.73969
711.50 13.97563
711.60 14.19296
711.70 14.35943
711.80 14.50545
711.90 14.65904
712.00 14.82781
712.10 15.01971
712.20 15.22783
712.30 15.40775
712.40 15.49466
712.50 15.49517
712.60 15.48785
712.70 15.53881
712.80 15.69301
712.90 15.98186
713.00 16.39106
713.10 16.83605
713.20 17.15689
713.30 17.20923
713.40 16.94395
713.50 16.38927
713.60 15.64616
713.70 14.86878
713.80 14.23174
713.90 13.84998
714.00 13.70524
714.10 13.69663
714.20 13.78221
714.30 14.00114
714.40 14.39749
714.50 14.97804
714.60 15.73469
714.70 16.59523
714.80 17.40742
714.90 18.03012
715.00 18.3287
715.10 18.19291
715.20 17.57904
715.30 16.55462
715.40 15.33151
715.50 14.18647
715.60 13.31123
715.70 12.79196
715.80 12.63332
715.90 12.76919
716.00 13.09661
716.10 13.50545
716.20 13.89986
716.30 14.18417
716.40 14.31995
716.50 14.36264
716.60 14.41113
716.70 14.54052
716.80 14.76082
716.90 15.05715
717.00 15.39727
717.10 15.68146
717.20 15.78905
717.30 15.68447
717.40 15.41984
717.50 15.07088
717.60 14.74692
717.70 14.55062
717.80 14.53716
717.90 14.7254
718.00 15.10081
718.10 15.61687
718.20 16.17423
718.30 16.64389
718.40 16.9368
718.50 17.04035
718.60 17.02017
718.70 16.95563
718.80 16.91754
718.90 16.99477
719.00 17.19966
719.10 17.49518
719.20 17.85039
719.30 18.18591
719.40 18.39308
719.50 18.36817
719.60 18.06705
719.70 17.53524
719.80 16.85112
719.90 16.0834
720.00 15.32654
720.10 14.69702
720.20 14.25242
720.30 13.99255
720.40 13.92284
720.50 14.05583
720.60 14.36645
720.70 14.81178
720.80 15.34113
720.90 15.89057
721.00 16.40475
721.10 16.8186
721.20 17.07204
721.30 17.16878
721.40 17.09973
721.50 16.8208
721.60 16.34534
721.70 15.77047
721.80 15.24835
721.90 14.92877
722.00 14.9054
722.10 15.20243
722.20 15.79335
722.30 16.6349
722.40 17.63603
722.50 18.633
722.60 19.44865
722.70 19.92486
722.80 20.01148
722.90 19.78117
723.00 19.3737
723.10 18.92108
723.20 18.49584
723.30 18.15234
723.40 17.96325
723.50 17.98376
723.60 18.20133
723.70 18.5086
723.80 18.76866
723.90 18.90636
724.00 18.88276
724.10 18.70342
724.20 18.42767
724.30 18.18121
724.40 18.0983
724.50 18.28151
724.60 18.7888
724.70 19.52961
724.80 20.32895
724.90 21.02993
725.00 21.53716
725.10 21.83861
725.20 21.96973
725.30 21.98373
725.40 21.95141
725.50 21.9217
725.60 21.87192
725.70 21.68955
725.80 21.27568
725.90 20.62946
726.00 19.84356
726.10 19.10107
726.20 18.56528
726.30 18.32271
726.40 18.37271
726.50 18.63957
726.60 19.02416
726.70 19.41012
726.80 19.70458
726.90 19.89121
727.00 20.08577
727.10 20.51134
727.20 21.27451
727.30 22.20081
727.40 22.96604
727.50 23.36561
727.60 23.34844
727.70 22.91818
727.80 22.16422
727.90 21.25407
728.00 20.36651
728.10 19.68669
728.20 19.36965
728.30 19.48509
728.40 19.9722
728.50 20.62004
728.60 21.21571
728.70 21.71845
728.80 22.17546
728.90 22.52891
729.00 22.6707
729.10 22.56788
729.20 22.2332
729.30 21.70614
729.40 21.07155
729.50 20.42291
729.60 19.82846
729.70 19.33686
729.80 18.95304
729.90 18.67033
730.00 18.54076
730.10 18.62222
730.20 18.89343
730.30 19.29535
730.40 19.72083
730.50 20.07107
730.60 20.32332
730.70 20.43693
730.80 20.38286
730.90 20.18665
731.00 19.9719
731.10 19.90599
731.20 20.08333
731.30 20.51914
731.40 21.11462
731.50 21.67917
731.60 22.0555
731.70 22.17095
731.80 22.07211
731.90 21.86545
732.00 21.64009
732.10 21.52618
732.20 21.60524
732.30 21.87637
732.40 22.26215
732.50 22.61874
732.60 22.83628
732.70 22.9178
732.80 22.93446
732.90 22.90119
733.00 22.7977
733.10 22.59659
733.20 22.29023
733.30 21.91273
733.40 21.48862
733.50 21.01527
733.60 20.47313
733.70 19.84858
733.80 19.1446
733.90 18.45485
734.00 17.95296
734.10 17.70907
734.20 17.70748
734.30 17.98542
734.40 18.57712
734.50 19.45915
734.60 20.50517
734.70 21.48448
734.80 22.19791
734.90 22.55162
735.00 22.58519
735.10 22.43523
735.20 22.22663
735.30 21.97454
735.40 21.66674
735.50 21.35393
735.60 21.08606
735.70 20.89023
735.80 20.80693
735.90 20.88603
736.00 21.18558
736.10 21.75361
736.20 22.54997
736.30 23.41867
736.40 24.14613
736.50 24.51597
736.60 24.37434
736.70 23.68566
736.80 22.54876
736.90 21.18415
737.00 19.87312
737.10 18.89094
737.20 18.42591
737.30 18.49067
737.40 18.94187
737.50 19.57441
737.60 20.24174
737.70 20.89758
737.80 21.52658
737.90 22.0921
738.00 22.5384
738.10 22.84896
738.20 23.00516
738.30 22.99004
738.40 22.83022
738.50 22.55322
738.60 22.18853
738.70 21.81761
738.80 21.54123
738.90 21.38794
739.00 21.26493
739.10 21.06766
739.20 20.80371
739.30 20.54166
739.40 20.35359
739.50 20.29673
739.60 20.37598
739.70 20.49882
739.80 20.45438
739.90 20.06907
740.00 19.39572
740.10 18.60683
740.20 17.82563
740.30 17.17942
740.40 16.83856
740.50 16.89816
740.60 17.28322
740.70 17.85254
740.80 18.49946
740.90 19.11039
741.00 19.58777
741.10 19.90624
741.20 20.17059
741.30 20.5289
741.40 20.99828
741.50 21.46485
741.60 21.78932
741.70 21.85792
741.80 21.58895
741.90 20.94156
742.00 19.97219
742.10 18.82738
742.20 17.68864
742.30 16.74577
742.40 16.14961
742.50 15.97858
742.60 16.22654
742.70 16.80198
742.80 17.52868
742.90 18.22571
743.00 18.79301
743.10 19.19003
743.20 19.40897
743.30 19.49331
743.40 19.50707
743.50 19.51022
743.60 19.56201
743.70 19.70472
743.80 19.94066
743.90 20.23433
744.00 20.54123
744.10 20.82048
744.20 21.01967
744.30 21.08169
744.40 21.00683
744.50 20.83997
744.60 20.66255
744.70 20.56483
744.80 20.56027
744.90 20.59739
745.00 20.59651
745.10 20.53067
745.20 20.44921
745.30 20.39814
745.40 20.39174
745.50 20.42529
745.60 20.49918
745.70 20.63299
745.80 20.83389
745.90 21.07069
746.00 21.22868
746.10 21.20448
746.20 21.07222
746.30 20.99568
746.40 21.09187
746.50 21.3435
746.60 21.61762
746.70 21.79438
746.80 21.8049
746.90 21.6206
747.00 21.23373
747.10 20.69058
747.20 20.08346
747.30 19.51177
747.40 19.12699
747.50 19.03567
747.60 19.18067
747.70 19.4217
747.80 19.64445
747.90 19.82015
748.00 19.98046
748.10 20.1341
748.20 20.27264
748.30 20.41335
748.40 20.592
748.50 20.81987
748.60 21.06448
748.70 21.27232
748.80 21.36069
748.90 21.2712
749.00 21.03588
749.10 20.72607
749.20 20.39898
749.30 20.0683
749.40 19.72042
749.50 19.35846
749.60 19.00432
749.70 18.66719
749.80 18.35039
749.90 18.08349
750.00 17.92931
750.10 17.94621
750.20 18.15209
750.30 18.52506
750.40 18.98775
750.50 19.45174
750.60 19.86683
750.70 20.21492
750.80 20.5203
750.90 20.81466
751.00 21.08693
751.10 21.31412
751.20 21.51365
751.30 21.72271
751.40 21.9261
751.50 22.07532
751.60 22.12711
751.70 22.00748
751.80 21.66958
751.90 21.1605
752.00 20.59854
752.10 20.12382
752.20 19.93805
752.30 20.1615
752.40 20.72837
752.50 21.49903
752.60 22.28634
752.70 22.88109
752.80 23.1268
752.90 22.96787
753.00 22.44163
753.10 21.68795
753.20 20.87482
753.30 20.11256
753.40 19.45006
753.50 18.9094
753.60 18.38836
753.70 17.82152
753.80 17.32165
753.90 17.00441
754.00 16.92276
754.10 17.06905
754.20 17.38679
754.30 17.78894
754.40 18.20624
754.50 18.59144
754.60 18.90424
754.70 19.12251
754.80 19.23655
754.90 19.24296
755.00 19.16258
755.10 19.01271
755.20 18.73072
755.30 18.26744
755.40 17.68913
755.50 17.10222
755.60 16.61356
755.70 16.30938
755.80 16.23065
755.90 16.38109
756.00 16.709
756.10 17.10149
756.20 17.43562
756.30 17.61866
756.40 17.5923
756.50 17.35076
756.60 17.00396
756.70 16.70707
756.80 16.56455
756.90 16.66515
757.00 17.05014
757.10 17.6838
757.20 18.48193
757.30 19.32925
757.40 20.11386
757.50 20.74082
757.60 21.1391
757.70 21.27268
757.80 21.13787
757.90 20.76211
758.00 20.19176
758.10 19.49582
758.20 18.76298
758.30 18.0607
758.40 17.44949
758.50 16.98235
758.60 16.67513
758.70 16.51205
758.80 16.45754
758.90 16.47462
759.00 16.49058
759.10 16.42961
759.20 16.27185
759.30 16.02983
759.40 15.84044
759.50 15.93282
759.60 16.48088
759.70 17.51806
759.80 18.86377
759.90 20.20621
760.00 21.32282
760.10 22.0147
760.20 22.03733
760.30 21.29935
760.40 19.85746
760.50 17.89384
760.60 15.78897
760.70 14.00778
760.80 12.83
760.90 12.30888
761.00 12.36178
761.10 12.84567
761.20 13.59798
761.30 14.40668
761.40 14.95692
761.50 15.02941
761.60 14.64201
761.70 13.88114
761.80 12.93277
761.90 12.03032
762.00 11.26511
762.10 10.65267
762.20 10.2135
762.30 9.936356
762.40 9.794023
762.50 9.808691
762.60 10.10574
762.70 10.82168
762.80 11.90809
762.90 13.07369
763.00 13.92768
763.10 14.14931
763.20 13.59106
763.30 12.30911
763.40 10.54425
763.50 8.641919
763.60 6.960956
763.70 5.850149
763.80 5.575358
763.90 6.106801
764.00 7.103399
764.10 8.131478
764.20 8.846788
764.30 9.145546
764.40 9.06862
764.50 8.67696
764.60 8.110512
764.70 7.558032
764.80 7.202992
764.90 7.186461
765.00 7.573322
765.10 8.269816
765.20 8.990949
765.30 9.454646
765.40 9.482544
765.50 9.031478
765.60 8.230158
765.70 7.22704
765.80 6.186094
765.90 5.332821
766.00 4.831749
766.10 4.741852
766.20 4.974435
766.30 5.35447
766.40 5.695502
766.50 5.826631
766.60 5.685341
766.70 5.332072
766.80 4.899429
766.90 4.504656
767.00 4.173703
767.10 3.872835
767.20 3.590569
767.30 3.349661
767.40 3.148628
767.50 2.94763
767.60 2.766399
767.70 2.660888
767.80 2.658347
767.90 2.780817
768.00 3.016254
768.10 3.321294
768.20 3.637122
768.30 3.896254
768.40 4.069722
768.50 4.188376
768.60 4.283077
768.70 4.341867
768.80 4.341776
768.90 4.26839
769.00 4.090564
769.10 3.765481
769.20 3.279108
769.30 2.649444
769.40 1.924801
769.50 1.171178
769.60 0.4812946
769.70 0
769.80 0
769.90 0
770.00 0
770.10 0
770.20 0.2197193
770.30 0.7684369
770.40 1.374177
770.50 1.968028
770.60 2.499758
770.70 2.955059
770.80 3.308858
770.90 3.519558
771.00 3.608211
771.10 3.720871
771.20 4.071457
771.30 4.688348
771.40 5.432466
771.50 6.200374
771.60 6.951818
771.70 7.731012
771.80 8.572145
771.90 9.421526
772.00 10.16358
772.10 10.70384
772.20 11.0778
772.30 11.40488
772.40 11.71482
772.50 11.90559
772.60 11.82789
772.70 11.48093
772.80 10.98467
772.90 10.47431
773.00 10.06138
773.10 9.717858
773.20 9.383454
773.30 9.106724
773.40 9.010896
773.50 9.210213
773.60 9.695728
773.70 10.3229
773.80 10.96391
773.90 11.53625
774.00 12.00799
774.10 12.41352
774.20 12.78427
774.30 13.09403
774.40 13.31622
774.50 13.43276
774.60 13.4014
774.70 13.20731
774.80 12.87196
774.90 12.41102
775.00 11.86749
775.10 11.36758
775.20 11.02227
775.30 10.78746
775.40 10.577
775.50 10.38795
775.60 10.28489
775.70 10.36784
775.80 10.65593
775.90 11.13756
776.00 11.82504
776.10 12.66604
776.20 13.51074
776.30 14.20789
776.40 14.65366
776.50 14.75561
776.60 14.49304
776.70 14.08547
776.80 13.79267
776.90 13.72102
777.00 13.90084
777.10 14.22776
777.20 14.57232
777.30 14.89478
777.40 15.13833
777.50 15.2275
777.60 15.19897
777.70 15.14471
777.80 15.13865
777.90 15.22134
778.00 15.35605
778.10 15.45508
778.20 15.4743
778.30 15.4163
778.40 15.28174
778.50 15.10932
778.60 14.94371
778.70 14.83053
778.80 14.90832
778.90 15.27957
779.00 15.88092
779.10 16.56845
779.20 17.23251
779.30 17.78357
779.40 18.10499
779.50 18.05985
779.60 17.52674
779.70 16.46598
779.80 14.97022
779.90 13.33909
780.00 11.99031
780.10 11.19305
780.20 10.9795
780.30 11.31402
780.40 12.08736
780.50 13.10746
780.60 14.17576
780.70 15.14802
780.80 16.04384
780.90 16.96559
781.00 17.96725
781.10 19.05458
781.20 20.17257
781.30 21.16878
781.40 21.88153
781.50 22.23144
781.60 22.21937
781.70 21.82139
781.80 21.09583
781.90 20.30368
782.00 19.72573
782.10 19.50131
782.20 19.63968
782.30 20.12266
782.40 20.88722
782.50 21.79918
782.60 22.70993
782.70 23.44327
782.80 23.80656
782.90 23.69818
783.00 23.18902
783.10 22.50765
783.20 21.86957
783.30 21.27351
783.40 20.62624
783.50 19.98841
783.60 19.46683
783.70 19.057
783.80 18.73326
783.90 18.56067
784.00 18.61779
784.10 18.90042
784.20 19.36367
784.30 19.94686
784.40 20.53725
784.50 21.03262
784.60 21.45958
784.70 21.88569
784.80 22.26667
784.90 22.47661
785.00 22.45873
785.10 22.22963
785.20 21.80987
785.30 21.24877
785.40 20.65531
785.50 20.09377
785.60 19.51009
785.70 18.93371
785.80 18.51845
785.90 18.37594
786.00 18.52062
786.10 18.96939
786.20 19.75917
786.30 20.84469
786.40 22.08314
786.50 23.29745
786.60 24.29317
786.70 24.83508
786.80 24.77494
786.90 24.23619
787.00 23.55122
787.10 22.96937
787.20 22.52536
787.30 22.1683
787.40 21.851
787.50 21.54862
787.60 21.31494
787.70 21.26911
787.80 21.50678
787.90 22.0777
788.00 22.97772
788.10 24.0482
788.20 25.03512
788.30 25.75684
788.40 26.13985
788.50 26.14484
788.60 25.78132
788.70 25.15269
788.80 24.47975
788.90 23.99938
789.00 23.79305
789.10 23.82925
789.20 24.01395
789.30 24.17913
789.40 24.21194
789.50 24.17584
789.60 24.1814
789.70 24.27958
789.80 24.44751
789.90 24.61732
790.00 24.8216
790.10 25.18126
790.20 25.70145
790.30 26.28223
790.40 26.82059
790.50 27.19105
790.60 27.29563
790.70 27.15343
790.80 26.93487
790.90 26.81703
791.00 26.86614
791.10 26.99905
791.20 27.00269
791.30 26.77243
791.40 26.31267
791.50 25.67108
791.60 24.95938
791.70 24.26663
791.80 23.70963
791.90 23.47115
792.00 23.67244
792.10 24.32528
792.20 25.25841
792.30 26.21323
792.40 27.00723
792.50 27.55661
792.60 27.93707
792.70 28.25728
792.80 28.59008
792.90 28.95487
793.00 29.30199
793.10 29.62437
793.20 29.92538
793.30 30.1377
793.40 30.19577
793.50 30.05323
793.60 29.70868
793.70 29.23691
793.80 28.7579
793.90 28.39948
794.00 28.18849
794.10 28.03695
794.20 27.78835
794.30 27.25552
794.40 26.29336
794.50 24.83831
794.60 22.95705
794.70 20.8489
794.80 18.8158
794.90 17.2033
795.00 16.35097
795.10 16.44949
795.20 17.36727
795.30 18.83492
795.40 20.66762
795.50 22.6603
795.60 24.56986
795.70 26.27481
795.80 27.77255
795.90 29.07684
796.00 30.19901
796.10 31.20007
796.20 32.08453
796.30 32.72106
796.40 32.93972
796.50 32.69429
796.60 32.13621
796.70 31.44035
796.80 30.70186
796.90 30.03362
797.00 29.57596
797.10 29.38599
797.20 29.43211
797.30 29.66985
797.40 30.03241
797.50 30.37763
797.60 30.57713
797.70 30.67738
797.80 30.79123
797.90 30.91655
798.00 31.00315
798.10 31.0497
798.20 31.06585
798.30 31.0181
798.40 30.89604
798.50 30.75075
798.60 30.65184
798.70 30.66768
798.80 30.86839
798.90 31.35723
799.00 32.23792
799.10 33.50642
799.20 35.02007
799.30 36.61069
799.40 38.14794
799.50 39.47251
799.60 40.33637
799.70 40.59455
799.80 40.32115
799.90 39.66887
800.00 38.80097
800.10 37.93179
800.20 37.29454
800.30 36.99182
800.40 36.98008
800.50 37.15246
800.60 37.39501
800.70 37.5819
800.80 37.57657
800.90 37.2851
801.00 36.76313
801.10 36.13518
801.20 35.44775
801.30 34.72088
801.40 34.02196
801.50 33.42977
801.60 32.97991
801.70 32.68541
801.80 32.59583
801.90 32.74432
802.00 33.07122
802.10 33.49586
802.20 33.92767
802.30 34.32111
802.40 34.73779
802.50 35.26148
802.60 35.91677
802.70 36.67991
802.80 37.50858
802.90 38.33933
803.00 39.094
803.10 39.66076
803.20 39.89219
803.30 39.70608
803.40 39.12615
803.50 38.23034
803.60 37.2135
803.70 36.31193
803.80 35.67759
803.90 35.40777
804.00 35.55386
804.10 36.11166
804.20 36.98346
804.30 37.98425
804.40 38.90896
804.50 39.65901
804.60 40.24496
804.70 40.6213
804.80 40.77406
804.90 40.73623
805.00 40.47112
805.10 40.00271
805.20 39.47
805.30 39.03328
805.40 38.7884
805.50 38.7626
805.60 38.9692
805.70 39.5224
805.80 40.49908
805.90 41.68607
806.00 42.79763
806.10 43.69634
806.20 44.28223
806.30 44.5519
806.40 44.59858
806.50 44.44345
806.60 44.07512
806.70 43.53669
806.80 42.94314
806.90 42.45371
807.00 42.21184
807.10 42.19974
807.20 42.35466
807.30 42.80016
807.40 43.60963
807.50 44.71117
807.60 45.99383
807.70 47.24831
807.80 48.24043
807.90 48.85408
808.00 49.0926
808.10 49.04306
808.20 48.84637
808.30 48.59912
808.40 48.3501
808.50 48.14923
808.60 48.00499
808.70 47.85203
808.80 47.61651
808.90 47.26436
809.00 46.81379
809.10 46.35566
809.20 45.98794
809.30 45.75574
809.40 45.64002
809.50 45.5148
809.60 45.24851
809.70 44.83703
809.80 44.38564
809.90 43.99804
810.00 43.75425
810.10 43.72671
810.20 43.95019
810.30 44.39899
810.40 45.00396
810.50 45.71708
810.60 46.50028
810.70 47.29558
810.80 48.00082
810.90 48.5325
811.00 48.86841
811.10 49.02361
811.20 48.9835
811.30 48.73485
811.40 48.28102
811.50 47.64586
811.60 46.92919
811.70 46.28051
811.80 45.85669
811.90 45.73273
812.00 45.93803
812.10 46.43651
812.20 47.16462
812.30 48.09432
812.40 49.15494
812.50 50.21453
812.60 51.11259
812.70 51.67416
812.80 51.7736
812.90 51.4333
813.00 50.81016
813.10 50.11597
813.20 49.55061
813.30 49.27095
813.40 49.34527
813.50 49.77959
813.60 50.4861
813.70 51.25982
813.80 51.87003
813.90 52.171
814.00 52.169
814.10 51.9688
814.20 51.7572
814.30 51.71528
814.40 51.88731
814.50 52.19971
814.60 52.52026
814.70 52.67763
814.80 52.53863
814.90 52.07903
815.00 51.40485
815.10 50.70867
815.20 50.14083
815.30 49.83403
815.40 49.93614
815.50 50.54701
815.60 51.62758
815.70 52.96207
815.80 54.25882
815.90 55.29302
816.00 55.98128
816.10 56.31785
816.20 56.30102
816.30 56.01734
816.40 55.65961
816.50 55.43585
816.60 55.55679
816.70 56.07904
816.80 56.83521
816.90 57.54619
817.00 57.98313
817.10 58.11407
817.20 58.01867
817.30 57.70404
817.40 57.07529
817.50 56.14141
817.60 55.07243
817.70 53.97424
817.80 52.78761
817.90 51.36092
818.00 49.58128
818.10 47.4948
818.20 45.35651
818.30 43.59382
818.40 42.61877
818.50 42.62166
818.60 43.56974
818.70 45.30102
818.80 47.51792
818.90 49.76325
819.00 51.49794
819.10 52.2162
819.20 51.60461
819.30 49.74389
819.40 47.12597
819.50 44.41573
819.60 42.19224
819.70 40.83014
819.80 40.48476
819.90 41.0902
820.00 42.42681
820.10 44.24264
820.20 46.27859
820.30 48.26883
820.40 50.0334
820.50 51.59052
820.60 53.04916
820.70 54.38113
820.80 55.4225
820.90 56.05811
821.00 56.26877
821.10 56.11676
821.20 55.73531
821.30 55.3144
821.40 55.06184
821.50 55.08554
821.60 55.40189
821.70 55.99375
821.80 56.76314
821.90 57.49654
822.00 57.98631
822.10 58.1966
822.20 58.22784
822.30 58.20623
822.40 58.28353
822.50 58.61948
822.60 59.32955
822.70 60.42177
822.80 61.73217
822.90 63.00067
823.00 64.00701
823.10 64.60458
823.20 64.74291
823.30 64.49508
823.40 64.04894
823.50 63.63408
823.60 63.41418
823.70 63.44031
823.80 63.66594
823.90 63.96357
824.00 64.16459
824.10 64.15313
824.20 63.94009
824.30 63.63475
824.40 63.32549
824.50 63.14406
824.60 63.20546
824.70 63.51823
824.80 64.04283
824.90 64.65872
825.00 65.16162
825.10 65.27156
825.20 64.82452
825.30 63.88977
825.40 62.62755
825.50 61.24739
825.60 59.97932
825.70 59.0312
825.80 58.63742
825.90 58.89085
826.00 59.71611
826.10 60.93955
826.20 62.26027
826.30 63.33771
826.40 63.8918
826.50 63.83277
826.60 63.17971
826.70 62.03012
826.80 60.67076
826.90 59.46798
827.00 58.74674
827.10 58.59848
827.20 58.83224
827.30 59.32582
827.40 60.10537
827.50 61.09597
827.60 62.1624
827.70 63.31439
827.80 64.65009
827.90 66.1382
828.00 67.62817
828.10 68.94593
828.20 69.9214
828.30 70.40491
828.40 70.32193
828.50 69.79866
828.60 69.04323
828.70 68.05357
828.80 66.80824
828.90 65.53263
829.00 64.44324
829.10 63.5039
829.20 62.49683
829.30 61.3195
829.40 60.10621
829.50 59.01743
829.60 57.93091
829.70 56.6062
829.80 55.07571
829.90 53.6146
830.00 52.57093
830.10 52.2271
830.20 52.61923
830.30 53.56036
830.40 54.80878
830.50 56.19699
830.60 57.7502
830.70 59.52856
830.80 61.39215
830.90 63.06424
831.00 64.53143
831.10 66.00686
831.20 67.51351
831.30 68.85627
831.40 69.79236
831.50 70.21906
831.60 70.16276
831.70 69.69405
831.80 68.92966
831.90 67.92582
832.00 66.63522
832.10 65.08896
832.20 63.43389
832.30 61.86059
832.40 60.53455
832.50 59.56508
832.60 58.95913
832.70 58.65301
832.80 58.60532
832.90 58.7499
833.00 58.99519
833.10 59.24929
833.20 59.44551
833.30 59.58612
833.40 59.7612
833.50 60.0385
833.60 60.35141
833.70 60.60776
833.80 60.89874
833.90 61.41577
834.00 62.30267
834.10 63.63443
834.20 65.34713
834.30 67.20217
834.40 68.85498
834.50 70.03097
834.60 70.69286
834.70 70.86716
834.80 70.31026
834.90 68.77278
835.00 66.49521
835.10 64.11047
835.20 62.16923
835.30 60.97166
835.40 60.61235
835.50 61.00904
835.60 62.00343
835.70 63.39553
835.80 64.97253
835.90 66.48047
836.00 67.60489
836.10 68.21183
836.20 68.58746
836.30 69.1483
836.40 70.01488
836.50 71.03244
836.60 71.93407
836.70 72.49088
836.80 72.58416
836.90 72.21652
837.00 71.48858
837.10 70.59083
837.20 69.71135
837.30 69.00812
837.40 68.59251
837.50 68.42201
837.60 68.33826
837.70 68.13318
837.80 67.67316
837.90 66.93592
838.00 65.99916
838.10 64.99071
838.20 64.05337
838.30 63.28226
838.40 62.78196
838.50 62.73899
838.60 63.27199
838.70 64.27694
838.80 65.50735
838.90 66.75204
839.00 67.8281
839.10 68.58621
839.20 68.9682
839.30 68.98744
839.40 68.64399
839.50 67.99701
839.60 67.34787
839.70 67.12641
839.80 67.5185
839.90 68.38388
840.00 69.53948
840.10 70.87635
840.20 72.28197
840.30 73.59642
840.40 74.6229
840.50 75.18308
840.60 75.11137
840.70 74.36476
840.80 73.20889
840.90 72.00114
841.00 70.91736
841.10 70.03488
841.20 69.45119
841.30 69.19541
841.40 69.11255
841.50 69.08868
841.60 69.12743
841.70 69.17021
841.80 69.1041
841.90 68.90773
842.00 68.75235
842.10 68.9124
842.20 69.5767
842.30 70.91923
842.40 73.03749
842.50 75.73018
842.60 78.61764
842.70 81.2202
842.80 83.11571
842.90 83.98485
843.00 83.53405
843.10 81.76994
843.20 79.09042
843.30 76.09579
843.40 73.36581
843.50 71.23387
843.60 69.75126
843.70 68.71532
843.80 67.83921
843.90 67.00601
844.00 66.21056
844.10 65.57652
844.20 65.28981
844.30 65.43753
844.40 66.01056
844.50 66.83491
844.60 67.73371
844.70 68.59765
844.80 69.25827
844.90 69.56004
845.00 69.38794
845.10 68.72371
845.20 67.68693
845.30 66.41632
845.40 64.99998
845.50 63.45859
845.60 61.83571
845.70 60.31182
845.80 59.17087
845.90 58.64998
846.00 58.80741
846.10 59.5282
846.20 60.68856
846.30 62.18214
846.40 63.83658
846.50 65.40617
846.60 66.57481
846.70 67.05358
846.80 66.77253
846.90 65.89295
847.00 64.60414
847.10 62.96812
847.20 61.06353
847.30 59.14049
847.40 57.49675
847.50 56.31705
847.60 55.56095
847.70 55.01707
847.80 54.47952
847.90 53.85125
848.00 53.18919
848.10 52.62803
848.20 52.26648
848.30 52.16129
848.40 52.34901
848.50 52.8238
848.60 53.4399
848.70 53.97352
848.80 54.25733
848.90 54.18979
849.00 53.77453
849.10 53.23801
849.20 52.96846
849.30 53.13877
849.40 53.63193
849.50 54.33525
849.60 55.18686
849.70 56.13251
849.80 57.1268
849.90 58.23052
850.00 59.64527
850.10 61.42688
850.20 63.33207
850.30 65.0359
850.40 66.30148
850.50 66.90034
850.60 66.65927
850.70 65.6725
850.80 64.24002
850.90 62.72028
851.00 61.46767
851.10 60.69596
851.20 60.48777
851.30 60.78
851.40 61.2794
851.50 61.60712
851.60 61.42822
851.70 60.46099
851.80 58.53645
851.90 55.71722
852.00 52.28492
852.10 48.64787
852.20 45.39087
852.30 43.20055
852.40 42.57355
852.50 43.57679
852.60 45.88838
852.70 48.94587
852.80 52.13101
852.90 54.99664
853.00 57.28065
853.10 58.82713
853.20 59.67504
853.30 60.0632
853.40 60.27522
853.50 60.56799
853.60 61.03117
853.70 61.46926
853.80 61.60936
853.90 61.40218
854.00 60.97368
854.10 60.4656
854.20 60.06035
854.30 59.95607
854.40 60.2864
854.50 61.19987
854.60 62.83031
854.70 65.13155
854.80 67.87301
854.90 70.68823
855.00 73.09464
855.10 74.58283
855.20 74.80473
855.30 73.70319
855.40 71.53116
855.50 68.74353
855.60 65.78914
855.70 62.99472
855.80 60.70927
855.90 59.24973
856.00 58.66137
856.10 58.77811
856.20 59.40461
856.30 60.35424
856.40 61.39792
856.50 62.28481
856.60 62.78846
856.70 62.76061
856.80 62.23036
856.90 61.41807
857.00 60.65022
857.10 60.27513
857.20 60.45355
857.30 61.12085
857.40 62.16721
857.50 63.39657
857.60 64.49798
857.70 65.22819
857.80 65.57942
857.90 65.70113
858.00 65.76067
858.10 65.94293
858.20 66.37518
858.30 67.05386
858.40 67.85462
858.50 68.54015
858.60 68.84012
858.70 68.58934
858.80 67.77874
858.90 66.56035
859.00 65.18829
859.10 63.99274
859.20 63.36075
859.30 63.65048
859.40 65.08764
859.50 67.6468
859.60 70.79512
859.70 73.72755
859.80 75.90774
859.90 77.04751
860.00 77.05314
860.10 76.06766
860.20 74.44163
860.30 72.63138
860.40 71.0586
860.50 69.94586
860.60 69.23194
860.70 68.67163
860.80 67.95675
860.90 66.79918
861.00 65.1684
861.10 63.18559
861.20 60.77028
861.30 57.89067
861.40 54.8233
861.50 51.992
861.60 49.75804
861.70 48.24245
861.80 47.29548
861.90 46.69958
862.00 46.27784
862.10 45.88645
862.20 45.44497
862.30 44.94827
862.40 44.48671
862.50 44.17833
862.60 44.12694
862.70 44.39021
862.80 44.8498
862.90 45.33386
863.00 45.719
863.10 45.98842
863.20 46.29542
863.30 46.7224
863.40 47.19255
863.50 47.60639
863.60 47.88942
863.70 47.92823
863.80 47.60294
863.90 47.01022
864.00 46.49732
864.10 46.31383
864.20 46.47896
864.30 46.86788
864.40 47.30061
864.50 47.62754
864.60 47.75537
864.70 47.78999
864.80 48.00871
864.90 48.67389
865.00 49.91125
865.10 51.68714
865.20 53.78469
865.30 55.55855
865.40 56.22312
865.50 55.4901
865.60 53.79002
865.70 51.88455
865.80 50.40954
865.90 49.81757
866.00 50.38091
866.10 52.12122
866.20 54.7107
866.30 57.5857
866.40 60.10949
866.50 61.77421
866.60 62.38967
866.70 62.26809
866.80 61.88061
866.90 61.37381
867.00 60.51423
867.10 59.1383
867.20 57.52314
867.30 56.06401
867.40 55.0098
867.50 54.51939
867.60 54.72374
867.70 55.54125
867.80 56.71476
867.90 57.92762
868.00 58.85016
868.10 59.23155
868.20 59.01868
868.30 58.42853
868.40 57.85119
868.50 57.51659
868.60 57.27365
868.70 56.84569
868.80 55.99733
868.90 54.48477
869.00 52.15718
869.10 49.15851
869.20 45.86801
869.30 42.81893
869.40 40.55552
869.50 39.38488
869.60 39.34246
869.70 40.299
869.80 42.01268
869.90 44.0997
870.00 46.08636
870.10 47.57317
870.20 48.34539
870.30 48.32394
870.40 47.53523
870.50 46.13297
870.60 44.36964
870.70 42.42206
870.80 40.34167
870.90 38.24284
871.00 36.34638
871.10 34.93843
871.20 34.28517
871.30 34.46551
871.40 35.34302
871.50 36.69551
871.60 38.3067
871.70 39.89397
871.80 41.12747
871.90 41.79577
872.00 41.89179
872.10 41.53649
872.20 40.95846
872.30 40.52339
872.40 40.5999
872.50 41.2857
872.60 42.35957
872.70 43.55785
872.80 44.72258
872.90 45.68621
873.00 46.29017
873.10 46.54083
873.20 46.53759
873.30 46.37232
873.40 46.1249
873.50 45.94687
873.60 46.01431
873.70 46.36757
873.80 46.94469
873.90 47.77796
874.00 48.96086
874.10 50.36434
874.20 51.58393
874.30 52.26666
874.40 52.28557
874.50 51.59745
874.60 50.34599
874.70 48.84484
874.80 47.38467
874.90 46.21391
875.00 45.52565
875.10 45.36083
875.20 45.52804
875.30 45.77266
875.40 45.97248
875.50 46.18694
875.60 46.62053
875.70 47.30256
875.80 47.98249
875.90 48.4775
876.00 48.78317
876.10 48.91038
876.20 48.84142
876.30 48.65017
876.40 48.54309
876.50 48.86945
876.60 50.01938
876.70 52.14746
876.80 55.11581
876.90 58.64847
877.00 62.36934
877.10 65.95243
877.20 69.09173
877.30 71.48995
877.40 73.02992
877.50 73.68803
877.60 73.2969
877.70 71.73024
877.80 69.14951
877.90 65.87584
878.00 62.35697
878.10 59.04593
878.20 56.25642
878.30 54.13148
878.40 52.72882
878.50 52.05535
878.60 52.21951
878.70 53.32634
878.80 55.13434
878.90 57.19886
879.00 59.2814
879.10 61.24536
879.20 62.94878
879.30 64.22437
879.40 64.81571
879.50 64.55983
879.60 63.42296
879.70 61.57027
879.80 59.35419
879.90 57.16409
880.00 55.28205
880.10 53.83229
880.20 52.8748
880.30 52.51537
880.40 52.88169
880.50 53.88888
880.60 55.05611
880.70 55.86976
880.80 56.18093
880.90 56.18538
881.00 56.25442
881.10 56.70844
881.20 57.76354
881.30 59.55228
881.40 62.03307
881.50 65.04391
881.60 68.34329
881.70 71.57772
881.80 74.35763
881.90 76.25829
882.00 77.17508
882.10 77.38369
882.20 77.10522
882.30 76.33183
882.40 74.96156
882.50 73.02729
882.60 70.8535
882.70 69.04238
882.80 68.08844
882.90 68.06452
883.00 68.75559
883.10 69.83459
883.20 70.91491
883.30 71.88308
883.40 72.69017
883.50 73.17603
883.60 73.30928
883.70 73.23452
883.80 73.3057
883.90 73.83229
884.00 74.64808
884.10 75.05865
884.20 74.42084
884.30 72.60672
884.40 69.84866
884.50 66.60359
884.60 63.4976
884.70 61.20295
884.80 60.29042
884.90 60.9631
885.00 63.07265
885.10 66.26665
885.20 69.91974
885.30 73.23072
885.40 75.52432
885.50 76.50612
885.60 76.22378
885.70 74.80606
885.80 72.51933
885.90 69.92406
886.00 67.75121
886.10 66.46534
886.20 66.14566
886.30 66.73618
886.40 68.0276
886.50 69.56645
886.60 70.76429
886.70 71.06921
886.80 70.169
886.90 68.07805
887.00 65.12417
887.10 61.9569
887.20 59.35297
887.30 57.87158
887.40 57.74471
887.50 58.99809
887.60 61.48687
887.70 64.83149
887.80 68.42718
887.90 71.71154
888.00 74.53305
888.10 76.87874
888.20 78.68319
888.30 79.8931
888.40 80.45652
888.50 80.51576
888.60 80.43705
888.70 80.56355
888.80 80.93535
888.90 81.29531
889.00 81.29463
889.10 80.62042
889.20 79.02099
889.30 76.3443
889.40 72.47365
889.50 67.72786
889.60 62.99679
889.70 59.27991
889.80 57.36247
889.90 57.39917
890.00 58.79943
890.10 60.70677
890.20 62.47999
890.30 63.81096
890.40 64.55144
890.50 64.65581
890.60 64.28006
890.70 63.74269
890.80 63.45859
890.90 63.79535
891.00 64.87644
891.10 66.65398
891.20 68.89192
891.30 71.31696
891.40 73.72652
891.50 75.89249
891.60 77.6246
891.70 78.75416
891.80 79.20654
891.90 79.04045
892.00 78.45324
892.10 77.73127
892.20 77.08945
892.30 76.61495
892.40 76.24437
892.50 75.74657
892.60 74.89993
892.70 73.54852
892.80 71.83107
892.90 70.29133
893.00 69.52583
893.10 69.98134
893.20 71.77696
893.30 74.68303
893.40 78.23899
893.50 81.75988
893.60 84.40859
893.70 85.30357
893.80 83.83074
893.90 80.02377
894.00 74.49171
894.10 68.0342
894.20 61.39913
894.30 55.36319
894.40 50.72028
894.50 47.9081
894.60 46.95681
894.70 47.76631
894.80 50.1038
894.90 53.52648
895.00 57.61685
895.10 62.19641
895.20 67.17848
895.30 72.33566
895.40 77.31894
895.50 81.90418
895.60 85.92665
895.70 89.0572
895.80 90.96656
895.90 91.62452
896.00 91.35001
896.10 90.36631
896.20 88.63928
896.30 86.28878
896.40 83.6899
896.50 81.21684
896.60 78.98713
896.70 76.97668
896.80 75.35905
896.90 74.40918
897.00 74.25276
897.10 74.82687
897.20 75.95062
897.30 77.41043
897.40 78.85352
897.50 79.92554
897.60 80.49977
897.70 80.56114
897.80 80.05584
897.90 79.04065
898.00 77.90369
898.10 77.1378
898.20 76.95588
898.30 77.34368
898.40 78.4288
898.50 80.30937
898.60 82.57138
898.70 84.53408
898.80 85.62969
898.90 85.68801
899.00 85.03564
899.10 84.19732
899.20 83.62123
899.30 83.49389
899.40 83.71874
899.50 84.06495
899.60 84.22547
899.70 83.94089
899.80 82.96479
899.90 81.0983
900.00 81.09517
900.10 81.09204
900.20 81.08891
900.30 81.08578
900.40 81.08265
900.50 81.07952
900.60 81.0764
900.70 81.07327
900.80 81.07014
900.90 81.06701
901.00 81.06388
901.10 81.06075
901.20 81.05762
901.30 81.05449
901.40 81.05136
901.50 81.04823
901.60 81.0451
901.70 81.04197
901.80 81.03884
901.90 81.03571
902.00 81.03258
902.10 81.02945
902.20 81.02632
902.30 81.02319
902.40 81.02006
902.50 81.01693
902.60 81.02277
902.70 81.06235
902.80 81.10193
902.90 81.1415
903.00 81.18108
903.10 81.22066
903.20 81.26023
903.30 81.29981
903.40 81.33938
903.50 81.37896
903.60 81.41854
903.70 81.45811
903.80 81.49769
903.90 81.53727
904.00 81.57684
904.10 81.61642
904.20 81.65599
904.30 81.69557
904.40 81.73515
904.50 81.77472
904.60 81.8143
904.70 81.85388
904.80 81.89345
904.90 81.93303
905.00 81.97261
905.10 82.01218
905.20 82.05176
905.30 82.09133
905.40 82.13091
905.50 82.17049
905.60 82.21006
905.70 82.24964
905.80 82.28922
905.90 82.32879
906.00 82.36837
906.10 82.39402
906.20 82.41893
906.30 82.44385
906.40 82.46876
906.50 82.49367
906.60 82.51859
906.70 82.5435
906.80 82.56842
906.90 82.59333
907.00 82.61825
907.10 82.64316
907.20 82.66808
907.30 82.69299
907.40 82.7179
907.50 82.74282
907.60 82.76773
907.70 82.79265
907.80 82.81756
907.90 82.84248
908.00 82.86739
908.10 82.89231
908.20 82.91722
908.30 82.94213
908.40 82.96705
908.50 82.99196
908.60 83.01688
908.70 83.04179
908.80 83.06671
908.90 83.09162
909.00 83.11654
909.10 83.14145
909.20 83.16636
909.30 83.19128
909.40 83.21619
909.50 83.23937
909.60 83.26087
909.70 83.28237
909.80 83.30387
909.90 83.32538
910.00 83.34688
910.10 83.36838
910.20 83.38988
910.30 83.41138
910.40 83.43289
910.50 83.45439
910.60 83.47589
910.70 83.49739
910.80 83.51889
910.90 83.5404
911.00 83.5619
911.10 83.5834
911.20 83.6049
911.30 83.6264
911.40 83.64791
911.50 83.66941
911.60 83.69091
911.70 83.71241
911.80 83.73392
911.90 83.75542
912.00 83.77692
912.10 83.79842
912.20 83.81992
912.30 83.84143
912.40 83.86293
912.50 83.88443
912.60 83.90593
912.70 83.92743
912.80 83.94894
912.90 83.97044
913.00 83.97914
913.10 83.98609
913.20 83.99304
913.30 83.99999
913.40 84.00695
913.50 84.0139
913.60 84.02085
913.70 84.0278
913.80 84.03475
913.90 84.04171
914.00 84.04866
914.10 84.05561
914.20 84.06256
914.30 84.06952
914.40 84.07647
914.50 84.08342
914.60 84.09037
914.70 84.09733
914.80 84.10428
914.90 84.11123
915.00 84.11818
915.10 84.12514
915.20 84.13209
915.30 84.13904
915.40 84.14599
915.50 84.15295
915.60 84.1599
915.70 84.16685
915.80 84.1738
915.90 84.18076
916.00 84.18771
916.10 84.19466
916.20 84.20161
916.30 84.20856
916.40 84.21613
916.50 84.23077
916.60 84.24542
916.70 84.26006
916.80 84.2747
916.90 84.28934
917.00 84.30398
917.10 84.31863
917.20 84.33327
917.30 84.34791
917.40 84.36255
917.50 84.37719
917.60 84.39184
917.70 84.40648
917.80 84.42112
917.90 84.43576
918.00 84.4504
918.10 84.46505
918.20 84.47969
918.30 84.49433
918.40 84.50897
918.50 84.52361
918.60 84.53826
918.70 84.5529
918.80 84.56754
918.90 84.58218
919.00 84.59683
919.10 84.61147
919.20 84.62611
919.30 84.64075
919.40 84.65539
919.50 84.67004
919.60 84.68468
919.70 84.69932
919.80 84.71396
919.90 84.72735
920.00 84.72948
920.10 84.7316
920.20 84.73373
920.30 84.73586
920.40 84.73798
920.50 84.74011
920.60 84.74223
920.70 84.74436
920.80 84.74648
920.90 84.74861
921.00 84.75074
921.10 84.75286
921.20 84.75499
921.30 84.75711
921.40 84.75924
921.50 84.76136
921.60 84.76349
921.70 84.76562
921.80 84.76774
921.90 84.76987
922.00 84.77199
922.10 84.77412
922.20 84.77625
922.30 84.77837
922.40 84.7805
922.50 84.78262
922.60 84.78475
922.70 84.78687
922.80 84.789
922.90 84.79113
923.00 84.79325
923.10 84.79538
923.20 84.7975
923.30 84.79963
923.40 84.80176
923.50 84.82938
923.60 84.85864
923.70 84.88789
923.80 84.91714
923.90 84.9464
924.00 84.97565
924.10 85.00491
924.20 85.03416
924.30 85.06342
924.40 85.09267
924.50 85.12192
924.60 85.15118
924.70 85.18043
924.80 85.20969
924.90 85.23894
925.00 85.26819
925.10 85.29745
925.20 85.3267
925.30 85.35596
925.40 85.38521
925.50 85.41446
925.60 85.44372
925.70 85.47297
925.80 85.50223
925.90 85.53148
926.00 85.56074
926.10 85.58999
926.20 85.61924
926.30 85.6485
926.40 85.67775
926.50 85.70701
926.60 85.73626
926.70 85.76551
926.80 85.79477
926.90 85.82402
927.00 85.84155
927.10 85.85158
927.20 85.86161
927.30 85.87163
927.40 85.88166
927.50 85.89169
927.60 85.90172
927.70 85.91175
927.80 85.92178
927.90 85.9318
928.00 85.94183
928.10 85.95186
928.20 85.96189
928.30 85.97192
928.40 85.98195
928.50 85.99198
928.60 86.002
928.70 86.01203
928.80 86.02206
928.90 86.03209
929.00 86.04212
929.10 86.05215
929.20 86.06217
929.30 86.0722
929.40 86.08223
929.50 86.09226
929.60 86.10229
929.70 86.11232
929.80 86.12235
929.90 86.13237
930.00 86.1424
930.10 86.15243
930.20 86.16246
930.30 86.17249
930.40 86.18252
930.50 86.19192
930.60 86.19625
930.70 86.20057
930.80 86.2049
930.90 86.20923
931.00 86.21356
931.10 86.21788
931.20 86.22221
931.30 86.22654
931.40 86.23087
931.50 86.2352
931.60 86.23952
931.70 86.24385
931.80 86.24818
931.90 86.25251
932.00 86.25684
932.10 86.26116
932.20 86.26549
932.30 86.26982
932.40 86.27415
932.50 86.27847
932.60 86.2828
932.70 86.28713
932.80 86.29146
932.90 86.29579
933.00 86.30011
933.10 86.30444
933.20 86.30877
933.30 86.3131
933.40 86.31743
933.50 86.32175
933.60 86.32608
933.70 86.33041
933.80 86.33474
933.90 86.33907
934.00 86.34339
934.10 86.35457
934.20 86.37445
934.30 86.39433
934.40 86.41421
934.50 86.4341
934.60 86.45398
934.70 86.47386
934.80 86.49375
934.90 86.51363
935.00 86.53351
935.10 86.55339
935.20 86.57328
935.30 86.59316
935.40 86.61304
935.50 86.63293
935.60 86.65281
935.70 86.67269
935.80 86.69257
935.90 86.71246
936.00 86.73234
936.10 86.75222
936.20 86.77211
936.30 86.79199
936.40 86.81187
936.50 86.83175
936.60 86.85164
936.70 86.87152
936.80 86.8914
936.90 86.91129
937.00 86.93117
937.10 86.95105
937.20 86.97093
937.30 86.99082
937.40 87.0107
937.50 87.03058
937.60 87.05047
937.70 87.06684
937.80 87.08087
937.90 87.09491
938.00 87.10895
938.10 87.12298
938.20 87.13702
938.30 87.15105
938.40 87.16509
938.50 87.17912
938.60 87.19316
938.70 87.20719
938.80 87.22123
938.90 87.23526
939.00 87.2493
939.10 87.26333
939.20 87.27737
939.30 87.2914
939.40 87.30544
939.50 87.31947
939.60 87.33351
939.70 87.34754
939.80 87.36158
939.90 87.37561
940.00 87.38965
940.10 87.40368
940.20 87.41772
940.30 87.43176
940.40 87.44579
940.50 87.45983
940.60 87.47386
940.70 87.4879
940.80 87.50193
940.90 87.51597
941.00 87.53
941.10 87.54404
941.20 87.55807
941.30 87.57941
941.40 87.60582
941.50 87.63223
941.60 87.65864
941.70 87.68505
941.80 87.71146
941.90 87.73787
942.00 87.76428
942.10 87.79069
942.20 87.8171
942.30 87.84351
942.40 87.86992
942.50 87.89633
942.60 87.92274
942.70 87.94916
942.80 87.97557
942.90 88.00198
943.00 88.02839
943.10 88.0548
943.20 88.08121
943.30 88.10762
943.40 88.13403
943.50 88.16044
943.60 88.18685
943.70 88.21326
943.80 88.23967
943.90 88.26608
944.00 88.29249
944.10 88.3189
944.20 88.34531
944.30 88.37172
944.40 88.39813
944.50 88.42454
944.60 88.45095
944.70 88.47737
944.80 88.50378
944.90 88.52744
945.00 88.54715
945.10 88.56686
945.20 88.58657
945.30 88.60628
945.40 88.62599
945.50 88.6457
945.60 88.66541
945.70 88.68512
945.80 88.70483
945.90 88.72454
946.00 88.74425
946.10 88.76396
946.20 88.78368
946.30 88.80339
946.40 88.8231
946.50 88.84281
946.60 88.86252
946.70 88.88223
946.80 88.90194
946.90 88.92165
947.00 88.94136
947.10 88.96107
947.20 88.98078
947.30 89.00049
947.40 89.0202
947.50 89.03991
947.60 89.05962
947.70 89.07933
947.80 89.09904
947.90 89.11875
948.00 89.13846
948.10 89.15817
948.20 89.17788
948.30 89.1976
948.40 89.21731
948.50 89.23543
948.60 89.23242
948.70 89.22942
948.80 89.22642
948.90 89.22342
949.00 89.22042
949.10 89.21742
949.20 89.21442
949.30 89.21141
949.40 89.20841
949.50 89.20541
949.60 89.20241
949.70 89.19941
949.80 89.19641
949.90 89.19341
950.00 89.1904
950.10 89.1874
950.20 89.1844
950.30 89.1814
950.40 89.1784
950.50 89.1754
950.60 89.1724
950.70 89.16939
950.80 89.16639
950.90 89.16339
951.00 89.16039
951.10 89.15739
951.20 89.15439
951.30 89.15139
951.40 89.14838
951.50 89.14538
951.60 89.14238
951.70 89.13938
951.80 89.13638
951.90 89.13338
952.00 89.13038
952.10 89.12737
952.20 89.13411
952.30 89.14851
952.40 89.16291
952.50 89.1773
952.60 89.1917
952.70 89.20609
952.80 89.22049
952.90 89.23488
953.00 89.24928
953.10 89.26367
953.20 89.27807
953.30 89.29246
953.40 89.30686
953.50 89.32126
953.60 89.33565
953.70 89.35005
953.80 89.36444
953.90 89.37884
954.00 89.39323
954.10 89.40763
954.20 89.42202
954.30 89.43642
954.40 89.45081
954.50 89.46521
954.60 89.47961
954.70 89.494
954.80 89.5084
954.90 89.52279
955.00 89.53719
955.10 89.55158
955.20 89.56598
955.30 89.58037
955.40 89.59477
955.50 89.60916
955.60 89.62356
955.70 89.63796
955.80 89.65235
955.90 89.65647
956.00 89.65945
956.10 89.66243
956.20 89.66541
956.30 89.66839
956.40 89.67137
956.50 89.67435
956.60 89.67732
956.70 89.6803
956.80 89.68328
956.90 89.68626
957.00 89.68924
957.10 89.69222
957.20 89.6952
957.30 89.69818
957.40 89.70116
957.50 89.70414
957.60 89.70711
957.70 89.71009
957.80 89.71307
957.90 89.71605
958.00 89.71903
958.10 89.72201
958.20 89.72499
958.30 89.72797
958.40 89.73095
958.50 89.73393
958.60 89.73691
958.70 89.73988
958.80 89.74286
958.90 89.74584
959.00 89.74882
959.10 89.7518
959.20 89.75478
959.30 89.75776
959.40 89.76074
959.50 89.7636
959.60 89.76493
959.70 89.76626
959.80 89.76759
959.90 89.76893
960.00 89.77026
960.10 89.77159
960.20 89.77292
960.30 89.77425
960.40 89.77558
960.50 89.77691
960.60 89.77825
960.70 89.77958
960.80 89.78091
960.90 89.78224
961.00 89.78357
961.10 89.7849
961.20 89.78623
961.30 89.78756
961.40 89.7889
961.50 89.79023
961.60 89.79156
961.70 89.79289
961.80 89.79422
961.90 89.79555
962.00 89.79688
962.10 89.79821
962.20 89.79955
962.30 89.80088
962.40 89.80221
962.50 89.80354
962.60 89.80487
962.70 89.8062
962.80 89.80753
962.90 89.80887
963.00 89.8102
963.10 89.81153
963.20 89.81454
963.30 89.83458
963.40 89.85463
963.50 89.87467
963.60 89.89471
963.70 89.91475
963.80 89.93479
963.90 89.95483
964.00 89.97488
964.10 89.99492
964.20 90.01496
964.30 90.035
964.40 90.05504
964.50 90.07508
964.60 90.09513
964.70 90.11517
964.80 90.13521
964.90 90.15525
965.00 90.17529
965.10 90.19533
965.20 90.21538
965.30 90.23542
965.40 90.25546
965.50 90.2755
965.60 90.29554
965.70 90.31558
965.80 90.33563
965.90 90.35567
966.00 90.37571
966.10 90.39575
966.20 90.41579
966.30 90.43583
966.40 90.45588
966.50 90.47592
966.60 90.49596
966.70 90.516
966.80 90.53604
966.90 90.55608
967.00 90.57314
967.10 90.59003
967.20 90.60693
967.30 90.62382
967.40 90.64072
967.50 90.65761
967.60 90.67451
967.70 90.6914
967.80 90.7083
967.90 90.72519
968.00 90.74209
968.10 90.75898
968.20 90.77588
968.30 90.79277
968.40 90.80967
968.50 90.82656
968.60 90.84346
968.70 90.86035
968.80 90.87725
968.90 90.89415
969.00 90.91104
969.10 90.92794
969.20 90.94483
969.30 90.96173
969.40 90.97862
969.50 90.99552
969.60 91.01241
969.70 91.02931
969.80 91.0462
969.90 91.0631
970.00 91.07999
970.10 91.09689
970.20 91.11378
970.30 91.13068
970.40 91.14757
970.50 91.16447
970.60 91.18136
970.70 91.21819
970.80 91.26575
970.90 91.31331
971.00 91.36087
971.10 91.40843
971.20 91.456
971.30 91.50356
971.40 91.55112
971.50 91.59868
971.60 91.64624
971.70 91.6938
971.80 91.74136
971.90 91.78892
972.00 91.83648
972.10 91.88404
972.20 91.9316
972.30 91.97916
972.40 92.02672
972.50 92.07429
972.60 92.12185
972.70 92.16941
972.80 92.21697
972.90 92.26453
973.00 92.31209
973.10 92.35965
973.20 92.40721
973.30 92.45477
973.40 92.50233
973.50 92.54989
973.60 92.59745
973.70 92.64501
973.80 92.69258
973.90 92.74014
974.00 92.7877
974.10 92.83526
974.20 92.88282
974.30 92.93038
974.40 92.96593
974.50 92.95632
974.60 92.94672
974.70 92.93711
974.80 92.9275
974.90 92.91789
975.00 92.90828
975.10 92.89867
975.20 92.88906
975.30 92.87945
975.40 92.86984
975.50 92.86023
975.60 92.85063
975.70 92.84102
975.80 92.83141
975.90 92.8218
976.00 92.81219
976.10 92.80258
976.20 92.79297
976.30 92.78336
976.40 92.77375
976.50 92.76414
976.60 92.75453
976.70 92.74493
976.80 92.73532
976.90 92.72571
977.00 92.7161
977.10 92.70649
977.20 92.69688
977.30 92.68727
977.40 92.67766
977.50 92.66805
977.60 92.65844
977.70 92.64884
977.80 92.63923
977.90 92.62962
978.00 92.62001
978.10 92.6104
978.20 92.60234
978.30 92.59527
978.40 92.5882
978.50 92.58113
978.60 92.57406
978.70 92.56699
978.80 92.55991
978.90 92.55284
979.00 92.54577
979.10 92.5387
979.20 92.53163
979.30 92.52456
979.40 92.51749
979.50 92.51042
979.60 92.50335
979.70 92.49628
979.80 92.48921
979.90 92.48214
980.00 92.47507
980.10 92.468
980.20 92.46093
980.30 92.45385
980.40 92.44678
980.50 92.43971
980.60 92.43264
980.70 92.42557
980.80 92.4185
980.90 92.41143
981.00 92.40436
981.10 92.39729
981.20 92.39022
981.30 92.38315
981.40 92.37608
981.50 92.36901
981.60 92.36194
981.70 92.35487
981.80 92.34779
981.90 92.34072
982.00 92.32374
982.10 92.30515
982.20 92.28655
982.30 92.26796
982.40 92.24937
982.50 92.23077
982.60 92.21218
982.70 92.19358
982.80 92.17499
982.90 92.1564
983.00 92.1378
983.10 92.11921
983.20 92.10061
983.30 92.08202
983.40 92.06343
983.50 92.04483
983.60 92.02624
983.70 92.00764
983.80 91.98905
983.90 91.97045
984.00 91.95186
984.10 91.93327
984.20 91.91467
984.30 91.89608
984.40 91.87748
984.50 91.85889
984.60 91.8403
984.70 91.8217
984.80 91.80311
984.90 91.78451
985.00 91.76592
985.10 91.74733
985.20 91.72873
985.30 91.71014
985.40 91.69154
985.50 91.67295
985.60 91.65435
985.70 91.63576
985.80 91.58134
985.90 91.52581
986.00 91.47028
986.10 91.41476
986.20 91.35923
986.30 91.3037
986.40 91.24817
986.50 91.19264
986.60 91.13711
986.70 91.08159
986.80 91.02606
986.90 90.97053
987.00 90.915
987.10 90.85947
987.20 90.80395
987.30 90.74842
987.40 90.69289
987.50 90.63736
987.60 90.58183
987.70 90.5263
987.80 90.47078
987.90 90.41525
988.00 90.35972
988.10 90.30419
988.20 90.24866
988.30 90.19314
988.40 90.13761
988.50 90.08208
988.60 90.02655
988.70 89.97102
988.80 89.91549
988.90 89.85997
989.00 89.80444
989.10 89.74891
989.20 89.69338
989.30 89.63785
989.40 89.58233
989.50 89.5268
989.60 89.4811
989.70 89.43614
989.80 89.39118
989.90 89.34622
990.00 89.30126
990.10 89.25631
990.20 89.21135
990.30 89.16639
990.40 89.12143
990.50 89.07647
990.60 89.03151
990.70 88.98656
990.80 88.9416
990.90 88.89664
991.00 88.85168
991.10 88.80672
991.20 88.76176
991.30 88.71681
991.40 88.67185
991.50 88.62689
991.60 88.58193
991.70 88.53697
991.80 88.49201
991.90 88.44705
992.00 88.4021
992.10 88.35714
992.20 88.31218
992.30 88.26722
992.40 88.22226
992.50 88.1773
992.60 88.13235
992.70 88.08739
992.80 88.04243
992.90 87.99747
993.00 87.95251
993.10 87.90755
993.20 87.8626
993.30 87.81764
993.40 87.78161
993.50 87.74857
993.60 87.71552
993.70 87.68247
993.80 87.64943
993.90 87.61638
994.00 87.58334
994.10 87.55029
994.20 87.51724
994.30 87.4842
994.40 87.45115
994.50 87.4181
994.60 87.38506
994.70 87.35201
994.80 87.31897
994.90 87.28592
995.00 87.25287
995.10 87.21983
995.20 87.18678
995.30 87.15374
995.40 87.12069
995.50 87.08764
995.60 87.0546
995.70 87.02155
995.80 86.98851
995.90 86.95546
996.00 86.92241
996.10 86.88937
996.20 86.85632
996.30 86.82327
996.40 86.79023
996.50 86.75718
996.60 86.72414
996.70 86.69109
996.80 86.65804
996.90 86.625
997.00 86.59195
997.10 86.55891
997.20 86.54945
997.30 86.57259
997.40 86.59572
997.50 86.61886
997.60 86.64199
997.70 86.66513
997.80 86.68826
997.90 86.71139
998.00 86.73453
998.10 86.75766
998.20 86.7808
998.30 86.80393
998.40 86.82706
998.50 86.8502
998.60 86.87333
998.70 86.89647
998.80 86.9196
998.90 86.94274
999.00 86.96587
999.10 86.989
999.20 87.01214
999.30 87.03527
999.40 87.05841
999.50 87.08154
999.60 87.10467
999.70 87.12781
999.80 87.15094
999.90 87.17408
1000.00 87.19721
1000.10 87.22034
1000.20 87.24348
1000.30 87.26661
1000.40 87.28975
1000.50 87.31288
1000.60 87.33602
1000.70 87.35915
1000.80 87.38228
1000.90 87.40542
1001.00 87.42855
1001.10 87.44628
1001.20 87.46401
1001.30 87.48173
1001.40 87.49946
1001.50 87.51719
1001.60 87.53491
1001.70 87.55264
1001.80 87.57037
1001.90 87.5881
1002.00 87.60582
1002.10 87.62355
1002.20 87.64128
1002.30 87.659
1002.40 87.67673
1002.50 87.69446
1002.60 87.71218
1002.70 87.72991
1002.80 87.74764
1002.90 87.76537
1003.00 87.78309
1003.10 87.80082
1003.20 87.81855
1003.30 87.83627
1003.40 87.854
1003.50 87.87173
1003.60 87.88946
1003.70 87.90718
1003.80 87.92491
1003.90 87.94264
1004.00 87.96036
1004.10 87.97809
1004.20 87.99582
1004.30 88.01354
1004.40 88.03127
1004.50 88.049
1004.60 88.06673
1004.70 88.08445
1004.80 88.10218
1004.90 88.12322
1005.00 88.14922
1005.10 88.17523
1005.20 88.20124
1005.30 88.22724
1005.40 88.25325
1005.50 88.27925
1005.60 88.30526
1005.70 88.33126
1005.80 88.35727
1005.90 88.38328
1006.00 88.40928
1006.10 88.43529
1006.20 88.46129
1006.30 88.4873
1006.40 88.5133
1006.50 88.53931
1006.60 88.56532
1006.70 88.59132
1006.80 88.61733
1006.90 88.64333
1007.00 88.66934
1007.10 88.69534
1007.20 88.72135
1007.30 88.74736
1007.40 88.77336
1007.50 88.79937
1007.60 88.82537
1007.70 88.85138
1007.80 88.87738
1007.90 88.90339
1008.00 88.9294
1008.10 88.9554
1008.20 88.98141
1008.30 89.00741
1008.40 89.03342
1008.50 89.05942
1008.60 89.08543
1008.70 89.11144
1008.80 89.13583
1008.90 89.15914
1009.00 89.18245
1009.10 89.20576
1009.20 89.22907
1009.30 89.25238
1009.40 89.27569
1009.50 89.299
1009.60 89.32231
1009.70 89.34562
1009.80 89.36893
1009.90 89.39224
1010.00 89.41556
1010.10 89.43887
1010.20 89.46218
1010.30 89.48549
1010.40 89.5088
1010.50 89.53211
1010.60 89.55542
1010.70 89.57873
1010.80 89.60204
1010.90 89.62535
1011.00 89.64866
1011.10 89.67198
1011.20 89.69529
1011.30 89.7186
1011.40 89.74191
1011.50 89.76522
1011.60 89.78853
1011.70 89.81184
1011.80 89.83515
1011.90 89.85846
1012.00 89.88177
1012.10 89.90508
1012.20 89.92839
1012.30 89.95171
1012.40 89.97502
1012.50 89.99833
1012.60 90.02164
1012.70 90.03545
1012.80 90.04689
1012.90 90.05833
1013.00 90.06977
1013.10 90.08121
1013.20 90.09265
1013.30 90.10409
1013.40 90.11553
1013.50 90.12697
1013.60 90.13841
1013.70 90.14984
1013.80 90.16128
1013.90 90.17272
1014.00 90.18416
1014.10 90.1956
1014.20 90.20704
1014.30 90.21848
1014.40 90.22992
1014.50 90.24136
1014.60 90.2528
1014.70 90.26424
1014.80 90.27568
1014.90 90.28712
1015.00 90.29856
1015.10 90.30999
1015.20 90.32143
1015.30 90.33287
1015.40 90.34431
1015.50 90.35575
1015.60 90.36719
1015.70 90.37863
1015.80 90.39007
1015.90 90.40151
1016.00 90.41295
1016.10 90.42439
1016.20 90.43583
1016.30 90.44727
1016.40 90.45871
1016.50 90.47015
1016.60 90.46564
1016.70 90.45715
1016.80 90.44866
1016.90 90.44016
1017.00 90.43167
1017.10 90.42318
1017.20 90.41469
1017.30 90.4062
1017.40 90.39771
1017.50 90.38921
1017.60 90.38072
1017.70 90.37223
1017.80 90.36374
1017.90 90.35525
1018.00 90.34676
1018.10 90.33826
1018.20 90.32977
1018.30 90.32128
1018.40 90.31279
1018.50 90.3043
1018.60 90.29581
1018.70 90.28731
1018.80 90.27882
1018.90 90.27033
1019.00 90.26184
1019.10 90.25335
1019.20 90.24486
1019.30 90.23636
1019.40 90.22787
1019.50 90.21938
1019.60 90.21089
1019.70 90.2024
1019.80 90.19391
1019.90 90.18541
1020.00 90.17692
1020.10 90.16843
1020.20 90.15994
1020.30 90.15145
1020.40 90.14296
1020.50 90.15788
1020.60 90.1884
1020.70 90.21893
1020.80 90.24945
1020.90 90.27998
1021.00 90.31051
1021.10 90.34103
1021.20 90.37156
1021.30 90.40208
1021.40 90.43261
1021.50 90.46314
1021.60 90.49366
1021.70 90.52419
1021.80 90.55471
1021.90 90.58524
1022.00 90.61577
1022.10 90.64629
1022.20 90.67682
1022.30 90.70734
1022.40 90.73787
1022.50 90.7684
1022.60 90.79892
1022.70 90.82945
1022.80 90.85998
1022.90 90.8905
1023.00 90.92103
1023.10 90.95155
1023.20 90.98208
1023.30 91.01261
1023.40 91.04313
1023.50 91.07366
1023.60 91.10418
1023.70 91.13471
1023.80 91.16524
1023.90 91.19576
1024.00 91.22629
1024.10 91.25681
1024.20 91.28734
1024.30 91.31787
1024.40 91.33655
1024.50 91.33748
1024.60 91.33841
1024.70 91.33934
1024.80 91.34026
1024.90 91.34119
1025.00 91.34212
1025.10 91.34305
1025.20 91.34397
1025.30 91.3449
1025.40 91.34583
1025.50 91.34676
1025.60 91.34768
1025.70 91.34861
1025.80 91.34954
1025.90 91.35047
1026.00 91.35139
1026.10 91.35232
1026.20 91.35325
1026.30 91.35417
1026.40 91.3551
1026.50 91.35603
1026.60 91.35696
1026.70 91.35788
1026.80 91.35881
1026.90 91.35974
1027.00 91.36067
1027.10 91.36159
1027.20 91.36252
1027.30 91.36345
1027.40 91.36438
1027.50 91.3653
1027.60 91.36623
1027.70 91.36716
1027.80 91.36809
1027.90 91.36901
1028.00 91.36994
1028.10 91.37087
1028.20 91.3718
1028.30 91.37272
1028.40 91.40417
1028.50 91.43562
1028.60 91.46707
1028.70 91.49852
1028.80 91.52997
1028.90 91.56142
1029.00 91.59287
1029.10 91.62431
1029.20 91.65576
1029.30 91.68721
1029.40 91.71866
1029.50 91.75011
1029.60 91.78156
1029.70 91.81301
1029.80 91.84445
1029.90 91.8759
1030.00 91.90735
1030.10 91.9388
1030.20 91.97025
1030.30 92.0017
1030.40 92.03315
1030.50 92.06459
1030.60 92.09604
1030.70 92.12749
1030.80 92.15894
1030.90 92.19039
1031.00 92.22184
1031.10 92.25329
1031.20 92.28474
1031.30 92.31618
1031.40 92.34763
1031.50 92.37908
1031.60 92.41053
1031.70 92.44198
1031.80 92.47343
1031.90 92.50488
1032.00 92.53632
1032.10 92.56777
1032.20 92.59922
1032.30 92.6214
1032.40 92.63431
1032.50 92.64722
1032.60 92.66012
1032.70 92.67303
1032.80 92.68594
1032.90 92.69885
1033.00 92.71176
1033.10 92.72466
1033.20 92.73757
1033.30 92.75048
1033.40 92.76339
1033.50 92.7763
1033.60 92.7892
1033.70 92.80211
1033.80 92.81502
1033.90 92.82793
1034.00 92.84084
1034.10 92.85374
1034.20 92.86665
1034.30 92.87956
1034.40 92.89247
1034.50 92.90538
1034.60 92.91828
1034.70 92.93119
1034.80 92.9441
1034.90 92.95701
1035.00 92.96992
1035.10 92.98282
1035.20 92.99573
1035.30 93.00864
1035.40 93.02155
1035.50 93.03446
1035.60 93.04736
1035.70 93.06027
1035.80 93.07318
1035.90 93.08609
1036.00 93.099
1036.10 93.1119
1036.20 93.12481
1036.30 93.14982
1036.40 93.17784
1036.50 93.20587
1036.60 93.2339
1036.70 93.26193
1036.80 93.28995
1036.90 93.31798
1037.00 93.34601
1037.10 93.37403
1037.20 93.40206
1037.30 93.43009
1037.40 93.45812
1037.50 93.48614
1037.60 93.51417
1037.70 93.5422
1037.80 93.57023
1037.90 93.59825
1038.00 93.62628
1038.10 93.65431
1038.20 93.68234
1038.30 93.71036
1038.40 93.73839
1038.50 93.76642
1038.60 93.79445
1038.70 93.82247
1038.80 93.8505
1038.90 93.87853
1039.00 93.90655
1039.10 93.93458
1039.20 93.96261
1039.30 93.99064
1039.40 94.01866
1039.50 94.04669
1039.60 94.07472
1039.70 94.10275
1039.80 94.13077
1039.90 94.1588
1040.00 94.18683
1040.10 94.21486
1040.20 94.24346
1040.30 94.2773
1040.40 94.31114
1040.50 94.34498
1040.60 94.37882
1040.70 94.41266
1040.80 94.4465
1040.90 94.48034
1041.00 94.51418
1041.10 94.54802
1041.20 94.58186
1041.30 94.6157
1041.40 94.64954
1041.50 94.68338
1041.60 94.71722
1041.70 94.75105
1041.80 94.78489
1041.90 94.81873
1042.00 94.85257
1042.10 94.88641
1042.20 94.92025
1042.30 94.95409
1042.40 94.98793
1042.50 95.02177
1042.60 95.05561
1042.70 95.08945
1042.80 95.12329
1042.90 95.15713
1043.00 95.19097
1043.10 95.22481
1043.20 95.25865
1043.30 95.29248
1043.40 95.32632
1043.50 95.36016
1043.60 95.394
1043.70 95.42784
1043.80 95.46168
1043.90 95.49552
1044.00 95.52936
1044.10 95.5632
1044.20 95.59097
1044.30 95.59447
1044.40 95.59797
1044.50 95.60147
1044.60 95.60497
1044.70 95.60847
1044.80 95.61197
1044.90 95.61547
1045.00 95.61898
1045.10 95.62248
1045.20 95.62598
1045.30 95.62948
1045.40 95.63298
1045.50 95.63648
1045.60 95.63998
1045.70 95.64348
1045.80 95.64698
1045.90 95.65048
1046.00 95.65398
1046.10 95.65748
1046.20 95.66098
1046.30 95.66448
1046.40 95.66798
1046.50 95.67148
1046.60 95.67498
1046.70 95.67848
1046.80 95.68198
1046.90 95.68548
1047.00 95.68898
1047.10 95.69248
1047.20 95.69599
1047.30 95.69949
1047.40 95.70299
1047.50 95.70649
1047.60 95.70999
1047.70 95.71349
1047.80 95.71699
1047.90 95.72049
1048.00 95.72399
1048.10 95.72749
1048.20 95.72724
1048.30 95.71825
1048.40 95.70926
1048.50 95.70027
1048.60 95.69128
1048.70 95.68229
1048.80 95.6733
1048.90 95.66431
1049.00 95.65532
1049.10 95.64633
1049.20 95.63734
1049.30 95.62835
1049.40 95.61936
1049.50 95.61037
1049.60 95.60138
1049.70 95.5924
1049.80 95.58341
1049.90 95.57442
1050.00 95.56543
1050.10 95.55644
1050.20 95.54745
1050.30 95.53846
1050.40 95.52947
1050.50 95.52048
1050.60 95.51149
1050.70 95.5025
1050.80 95.49351
1050.90 95.48452
1051.00 95.47553
1051.10 95.46654
1051.20 95.45755
1051.30 95.44856
1051.40 95.43957
1051.50 95.43058
1051.60 95.42159
1051.70 95.4126
1051.80 95.40361
1051.90 95.39462
1052.00 95.38563
1052.10 95.37664
1052.20 95.37755
1052.30 95.41805
1052.40 95.45855
1052.50 95.49905
1052.60 95.53955
1052.70 95.58005
1052.80 95.62055
1052.90 95.66105
1053.00 95.70155
1053.10 95.74205
1053.20 95.78254
1053.30 95.82304
1053.40 95.86354
1053.50 95.90404
1053.60 95.94454
1053.70 95.98504
1053.80 96.02554
1053.90 96.06604
1054.00 96.10654
1054.10 96.14704
1054.20 96.18754
1054.30 96.22804
1054.40 96.26854
1054.50 96.30904
1054.60 96.34954
1054.70 96.39004
1054.80 96.43054
1054.90 96.47104
1055.00 96.51154
1055.10 96.55204
1055.20 96.59254
1055.30 96.63304
1055.40 96.67354
1055.50 96.71404
1055.60 96.75454
1055.70 96.79504
1055.80 96.83554
1055.90 96.87604
1056.00 96.91654
1056.10 96.95704
1056.20 96.99754
1056.30 96.99438
1056.40 96.99121
1056.50 96.98805
1056.60 96.98488
1056.70 96.98172
1056.80 96.97856
1056.90 96.97539
1057.00 96.97223
1057.10 96.96906
1057.20 96.9659
1057.30 96.96273
1057.40 96.95957
1057.50 96.95641
1057.60 96.95324
1057.70 96.95008
1057.80 96.94691
1057.90 96.94375
1058.00 96.94059
1058.10 96.93742
1058.20 96.93426
1058.30 96.93109
1058.40 96.92793
1058.50 96.92476
1058.60 96.9216
1058.70 96.91844
1058.80 96.91527
1058.90 96.91211
1059.00 96.90894
1059.10 96.90578
1059.20 96.90262
1059.30 96.89945
1059.40 96.89629
1059.50 96.89312
1059.60 96.88996
1059.70 96.88679
1059.80 96.88363
1059.90 96.88047
1060.00 96.8773
1060.10 96.87414
1060.20 96.87097
1060.30 96.88047
1060.40 96.89841
1060.50 96.91634
1060.60 96.93428
1060.70 96.95221
1060.80 96.97015
1060.90 96.98809
1061.00 97.00602
1061.10 97.02396
1061.20 97.04189
1061.30 97.05983
1061.40 97.07777
1061.50 97.0957
1061.60 97.11364
1061.70 97.13158
1061.80 97.14951
1061.90 97.16745
1062.00 97.18538
1062.10 97.20332
1062.20 97.22126
1062.30 97.23919
1062.40 97.25713
1062.50 97.27506
1062.60 97.293
1062.70 97.31094
1062.80 97.32887
1062.90 97.34681
1063.00 97.36474
1063.10 97.38268
1063.20 97.40062
1063.30 97.41855
1063.40 97.43649
1063.50 97.45443
1063.60 97.47236
1063.70 97.4903
1063.80 97.50823
1063.90 97.52617
1064.00 97.54411
1064.10 97.56204
1064.20 97.57998
1064.30 97.59694
1064.40 97.61
1064.50 97.62305
1064.60 97.63611
1064.70 97.64917
1064.80 97.66223
1064.90 97.67529
1065.00 97.68835
1065.10 97.7014
1065.20 97.71446
1065.30 97.72752
1065.40 97.74058
1065.50 97.75364
1065.60 97.7667
1065.70 97.77975
1065.80 97.79281
1065.90 97.80587
1066.00 97.81893
1066.10 97.83199
1066.20 97.84504
1066.30 97.8581
1066.40 97.87116
1066.50 97.88422
1066.60 97.89728
1066.70 97.91034
1066.80 97.92339
1066.90 97.93645
1067.00 97.94951
1067.10 97.96257
1067.20 97.97563
1067.30 97.98868
1067.40 98.00174
1067.50 98.0148
1067.60 98.02786
1067.70 98.04092
1067.80 98.05398
1067.90 98.06703
1068.00 98.08009
1068.10 98.09315
1068.20 98.10621
1068.30 98.11927
1068.40 98.14385
1068.50 98.17337
1068.60 98.20289
1068.70 98.23241
1068.80 98.26193
1068.90 98.29145
1069.00 98.32097
1069.10 98.35049
1069.20 98.38001
1069.30 98.40953
1069.40 98.43905
1069.50 98.46857
1069.60 98.49809
1069.70 98.52761
1069.80 98.55713
1069.90 98.58665
1070.00 98.61617
1070.10 98.64569
1070.20 98.67521
1070.30 98.70473
1070.40 98.73425
1070.50 98.76377
1070.60 98.79328
1070.70 98.8228
1070.80 98.85232
1070.90 98.88184
1071.00 98.91136
1071.10 98.94088
1071.20 98.9704
1071.30 98.99992
1071.40 99.02944
1071.50 99.05896
1071.60 99.08848
1071.70 99.118
1071.80 99.14752
1071.90 99.17704
1072.00 99.20656
1072.10 99.23608
1072.20 99.2656
1072.30 99.29512
1072.40 99.32214
1072.50 99.32664
1072.60 99.33115
1072.70 99.33565
1072.80 99.34015
1072.90 99.34465
1073.00 99.34916
1073.10 99.35366
1073.20 99.35816
1073.30 99.36266
1073.40 99.36717
1073.50 99.37167
1073.60 99.37617
1073.70 99.38067
1073.80 99.38517
1073.90 99.38968
1074.00 99.39418
1074.10 99.39868
1074.20 99.40318
1074.30 99.40769
1074.40 99.41219
1074.50 99.41669
1074.60 99.42119
1074.70 99.4257
1074.80 99.4302
1074.90 99.4347
1075.00 99.4392
1075.10 99.44371
1075.20 99.44821
1075.30 99.45271
1075.40 99.45721
1075.50 99.46172
1075.60 99.46622
1075.70 99.47072
1075.80 99.47522
1075.90 99.47973
1076.00 99.48423
1076.10 99.48873
1076.20 99.49323
1076.30 99.49774
1076.40 99.50224
1076.50 99.51688
1076.60 99.54674
1076.70 99.57659
1076.80 99.60644
1076.90 99.6363
1077.00 99.66615
1077.10 99.696
1077.20 99.72586
1077.30 99.75571
1077.40 99.78557
1077.50 99.81542
1077.60 99.84527
1077.70 99.87513
1077.80 99.90498
1077.90 99.93483
1078.00 99.96469
1078.10 99.99454
1078.20 100.0244
1078.30 100.0542
1078.40 100.0841
1078.50 100.114
1078.60 100.1438
1078.70 100.1737
1078.80 100.2035
1078.90 100.2334
1079.00 100.2632
1079.10 100.2931
1079.20 100.3229
1079.30 100.3528
1079.40 100.3826
1079.50 100.4125
1079.60 100.4423
1079.70 100.4722
1079.80 100.5021
1079.90 100.5319
1080.00 100.5618
1080.10 100.5916
1080.20 100.6215
1080.30 100.6513
1080.40 100.6812
1080.50 100.711
1080.60 100.7311
1080.70 100.7415
1080.80 100.7519
1080.90 100.7622
1081.00 100.7726
1081.10 100.783
1081.20 100.7933
1081.30 100.8037
1081.40 100.8141
1081.50 100.8244
1081.60 100.8348
1081.70 100.8452
1081.80 100.8555
1081.90 100.8659
1082.00 100.8763
1082.10 100.8866
1082.20 100.897
1082.30 100.9073
1082.40 100.9177
1082.50 100.9281
1082.60 100.9384
1082.70 100.9488
1082.80 100.9592
1082.90 100.9695
1083.00 100.9799
1083.10 100.9903
1083.20 101.0006
1083.30 101.011
1083.40 101.0214
1083.50 101.0317
1083.60 101.0421
1083.70 101.0525
1083.80 101.0628
1083.90 101.0732
1084.00 101.0836
1084.10 101.0939
1084.20 101.1043
1084.30 101.1147
1084.40 101.125
1084.50 101.1354
1084.60 101.1457
1084.70 101.1641
1084.80 101.1879
1084.90 101.2116
1085.00 101.2354
1085.10 101.2591
1085.20 101.2829
1085.30 101.3066
1085.40 101.3304
1085.50 101.3541
1085.60 101.3779
1085.70 101.4016
1085.80 101.4254
1085.90 101.4491
1086.00 101.4729
1086.10 101.4966
1086.20 101.5204
1086.30 101.5441
1086.40 101.5679
1086.50 101.5916
1086.60 101.6154
1086.70 101.6391
1086.80 101.6629
1086.90 101.6866
1087.00 101.7104
1087.10 101.7341
1087.20 101.7579
1087.30 101.7816
1087.40 101.8054
1087.50 101.8291
1087.60 101.8528
1087.70 101.8766
1087.80 101.9003
1087.90 101.9241
1088.00 101.9478
1088.10 101.9716
1088.20 101.9953
1088.30 102.0191
1088.40 102.0428
1088.50 102.0666
1088.60 102.0903
1088.70 102.1141
1088.80 102.134
1088.90 102.1512
1089.00 102.1685
1089.10 102.1858
1089.20 102.2031
1089.30 102.2203
1089.40 102.2376
1089.50 102.2549
1089.60 102.2722
1089.70 102.2895
1089.80 102.3067
1089.90 102.324
1090.00 102.3413
1090.10 102.3586
1090.20 102.3759
1090.30 102.3931
1090.40 102.4104
1090.50 102.4277
1090.60 102.445
1090.70 102.4623
1090.80 102.4795
1090.90 102.4968
1091.00 102.5141
1091.10 102.5314
1091.20 102.5487
1091.30 102.5659
1091.40 102.5832
1091.50 102.6005
1091.60 102.6178
1091.70 102.6351
1091.80 102.6523
1091.90 102.6696
1092.00 102.6869
1092.10 102.7042
1092.20 102.7214
1092.30 102.7387
1092.40 102.756
1092.50 102.7733
1092.60 102.7906
1092.70 102.8078
1092.80 102.8251
1092.90 102.8434
1093.00 102.8626
1093.10 102.8818
1093.20 102.901
1093.30 102.9202
1093.40 102.9395
1093.50 102.9587
1093.60 102.9779
1093.70 102.9971
1093.80 103.0163
1093.90 103.0356
1094.00 103.0548
1094.10 103.074
1094.20 103.0932
1094.30 103.1124
1094.40 103.1316
1094.50 103.1509
1094.60 103.1701
1094.70 103.1893
1094.80 103.2085
1094.90 103.2277
1095.00 103.247
1095.10 103.2662
1095.20 103.2854
1095.30 103.3046
1095.40 103.3238
1095.50 103.343
1095.60 103.3623
1095.70 103.3815
1095.80 103.4007
1095.90 103.4199
1096.00 103.4391
1096.10 103.4584
1096.20 103.4776
1096.30 103.4968
1096.40 103.516
1096.50 103.5352
1096.60 103.5544
1096.70 103.5737
1096.80 103.5929
1096.90 103.6121
1097.00 103.6238
1097.10 103.6178
1097.20 103.6119
1097.30 103.6059
1097.40 103.6
1097.50 103.594
1097.60 103.5881
1097.70 103.5821
1097.80 103.5762
1097.90 103.5702
1098.00 103.5643
1098.10 103.5584
1098.20 103.5524
1098.30 103.5465
1098.40 103.5405
1098.50 103.5346
1098.60 103.5286
1098.70 103.5227
1098.80 103.5167
1098.90 103.5108
1099.00 103.5048
1099.10 103.4989
1099.20 103.493
1099.30 103.487
1099.40 103.4811
1099.50 103.4751
1099.60 103.4692
1099.70 103.4632
1099.80 103.4573
1099.90 103.4513
1100.00 103.4454
1100.10 103.4394
1100.20 103.4335
1100.30 103.4275
1100.40 103.4216
1100.50 103.4157
1100.60 103.4097
1100.70 103.4038
1100.80 103.3978
1100.90 103.3919
1101.00 103.3859
1101.10 103.38
1101.20 103.3799
1101.30 103.3798
1101.40 103.3797
1101.50 103.3796
1101.60 103.3795
1101.70 103.3794
1101.80 103.3793
1101.90 103.3792
1102.00 103.3791
1102.10 103.379
1102.20 103.3789
1102.30 103.3789
1102.40 103.3788
1102.50 103.3787
1102.60 103.3786
1102.70 103.3785
1102.80 103.3784
1102.90 103.3783
1103.00 103.3782
1103.10 103.3781
1103.20 103.378
1103.30 103.3779
1103.40 103.3778
1103.50 103.3777
1103.60 103.3776
1103.70 103.3776
1103.80 103.3775
1103.90 103.3774
1104.00 103.3773
1104.10 103.3772
1104.20 103.3771
1104.30 103.377
1104.40 103.3769
1104.50 103.3768
1104.60 103.3767
1104.70 103.3766
1104.80 103.3765
1104.90 103.3764
1105.00 103.3763
1105.10 103.3762
1105.20 103.3762
1105.30 103.3729
1105.40 103.3675
1105.50 103.3621
1105.60 103.3568
1105.70 103.3514
1105.80 103.346
1105.90 103.3406
1106.00 103.3353
1106.10 103.3299
1106.20 103.3245
1106.30 103.3191
1106.40 103.3137
1106.50 103.3084
1106.60 103.303
1106.70 103.2976
1106.80 103.2922
1106.90 103.2869
1107.00 103.2815
1107.10 103.2761
1107.20 103.2707
1107.30 103.2653
1107.40 103.26
1107.50 103.2546
1107.60 103.2492
1107.70 103.2438
1107.80 103.2385
1107.90 103.2331
1108.00 103.2277
1108.10 103.2223
1108.20 103.217
1108.30 103.2116
1108.40 103.2062
1108.50 103.2008
1108.60 103.1954
1108.70 103.1901
1108.80 103.1847
1108.90 103.1793
1109.00 103.1739
1109.10 103.1686
1109.20 103.1632
1109.30 103.1578
1109.40 103.1551
1109.50 103.1628
1109.60 103.1706
1109.70 103.1784
1109.80 103.1861
1109.90 103.1939
1110.00 103.2017
1110.10 103.2094
1110.20 103.2172
1110.30 103.225
1110.40 103.2327
1110.50 103.2405
1110.60 103.2483
1110.70 103.256
1110.80 103.2638
1110.90 103.2716
1111.00 103.2793
1111.10 103.2871
1111.20 103.2949
1111.30 103.3026
1111.40 103.3104
1111.50 103.3182
1111.60 103.3259
1111.70 103.3337
1111.80 103.3415
1111.90 103.3492
1112.00 103.357
1112.10 103.3648
1112.20 103.3725
1112.30 103.3803
1112.40 103.3881
1112.50 103.3958
1112.60 103.4036
1112.70 103.4114
1112.80 103.4191
1112.90 103.4269
1113.00 103.4347
1113.10 103.4424
1113.20 103.4502
1113.30 103.458
1113.40 103.4657
1113.50 103.4735
1113.60 103.4842
1113.70 103.497
1113.80 103.5097
1113.90 103.5225
1114.00 103.5352
1114.10 103.548
1114.20 103.5607
1114.30 103.5734
1114.40 103.5862
1114.50 103.5989
1114.60 103.6117
1114.70 103.6244
1114.80 103.6371
1114.90 103.6499
1115.00 103.6626
1115.10 103.6754
1115.20 103.6881
1115.30 103.7009
1115.40 103.7136
1115.50 103.7263
1115.60 103.7391
1115.70 103.7518
1115.80 103.7646
1115.90 103.7773
1116.00 103.7901
1116.10 103.8028
1116.20 103.8155
1116.30 103.8283
1116.40 103.841
1116.50 103.8538
1116.60 103.8665
1116.70 103.8792
1116.80 103.892
1116.90 103.9047
1117.00 103.9175
1117.10 103.9302
1117.20 103.943
1117.30 103.9557
1117.40 103.9684
1117.50 103.9812
1117.60 103.9939
1117.70 104.0067
1117.80 104.0167
1117.90 104.0267
1118.00 104.0367
1118.10 104.0468
1118.20 104.0568
1118.30 104.0668
1118.40 104.0768
1118.50 104.0869
1118.60 104.0969
1118.70 104.1069
1118.80 104.1169
1118.90 104.127
1119.00 104.137
1119.10 104.147
1119.20 104.157
1119.30 104.1671
1119.40 104.1771
1119.50 104.1871
1119.60 104.1971
1119.70 104.2072
1119.80 104.2172
1119.90 104.2272
1120.00 104.2372
1120.10 104.2473
1120.20 104.2573
1120.30 104.2673
1120.40 104.2773
1120.50 104.2874
1120.60 104.2974
1120.70 104.3074
1120.80 104.3174
1120.90 104.3274
1121.00 104.3375
1121.10 104.3475
1121.20 104.3575
1121.30 104.3675
1121.40 104.3776
1121.50 104.3876
1121.60 104.3976
1121.70 104.4076
1121.80 104.4177
1121.90 104.4214
1122.00 104.4105
1122.10 104.3996
1122.20 104.3887
1122.30 104.3778
1122.40 104.3669
1122.50 104.356
1122.60 104.3451
1122.70 104.3342
1122.80 104.3233
1122.90 104.3124
1123.00 104.3015
1123.10 104.2906
1123.20 104.2797
1123.30 104.2687
1123.40 104.2578
1123.50 104.2469
1123.60 104.236
1123.70 104.2251
1123.80 104.2142
1123.90 104.2033
1124.00 104.1924
1124.10 104.1815
1124.20 104.1706
1124.30 104.1597
1124.40 104.1488
1124.50 104.1379
1124.60 104.127
1124.70 104.1161
1124.80 104.1052
1124.90 104.0943
1125.00 104.0834
1125.10 104.0725
1125.20 104.0616
1125.30 104.0507
1125.40 104.0398
1125.50 104.0288
1125.60 104.0179
1125.70 104.007
1125.80 103.9961
1125.90 103.9852
1126.00 103.9743
1126.10 103.9607
1126.20 103.9443
1126.30 103.9279
1126.40 103.9115
1126.50 103.8951
1126.60 103.8787
1126.70 103.8623
1126.80 103.8459
1126.90 103.8295
1127.00 103.8131
1127.10 103.7967
1127.20 103.7803
1127.30 103.7639
1127.40 103.7475
1127.50 103.7311
1127.60 103.7147
1127.70 103.6983
1127.80 103.6819
1127.90 103.6655
1128.00 103.6491
1128.10 103.6327
1128.20 103.6163
1128.30 103.5999
1128.40 103.5835
1128.50 103.5671
1128.60 103.5507
1128.70 103.5343
1128.80 103.5179
1128.90 103.5015
1129.00 103.4851
1129.10 103.4687
1129.20 103.4523
1129.30 103.4359
1129.40 103.4195
1129.50 103.4031
1129.60 103.3867
1129.70 103.3703
1129.80 103.3539
1129.90 103.3375
1130.00 103.3211
1130.10 103.3047
1130.20 103.2883
1130.30 103.2625
1130.40 103.2327
1130.50 103.2028
1130.60 103.173
1130.70 103.1431
1130.80 103.1133
1130.90 103.0834
1131.00 103.0536
1131.10 103.0237
1131.20 102.9939
1131.30 102.9641
1131.40 102.9342
1131.50 102.9044
1131.60 102.8745
1131.70 102.8447
1131.80 102.8148
1131.90 102.785
1132.00 102.7552
1132.10 102.7253
1132.20 102.6955
1132.30 102.6656
1132.40 102.6358
1132.50 102.6059
1132.60 102.5761
1132.70 102.5462
1132.80 102.5164
1132.90 102.4866
1133.00 102.4567
1133.10 102.4269
1133.20 102.397
1133.30 102.3672
1133.40 102.3373
1133.50 102.3075
1133.60 102.2776
1133.70 102.2478
1133.80 102.218
1133.90 102.1881
1134.00 102.1583
1134.10 102.1284
1134.20 102.0986
1134.30 102.0687
1134.40 102.0389
1134.50 102.0285
1134.60 102.0229
1134.70 102.0174
1134.80 102.0118
1134.90 102.0063
1135.00 102.0007
1135.10 101.9952
1135.20 101.9896
1135.30 101.9841
1135.40 101.9786
1135.50 101.973
1135.60 101.9675
1135.70 101.9619
1135.80 101.9564
1135.90 101.9508
1136.00 101.9453
1136.10 101.9397
1136.20 101.9342
1136.30 101.9286
1136.40 101.9231
1136.50 101.9175
1136.60 101.912
1136.70 101.9064
1136.80 101.9009
1136.90 101.8953
1137.00 101.8898
1137.10 101.8842
1137.20 101.8787
1137.30 101.8731
1137.40 101.8676
1137.50 101.862
1137.60 101.8565
1137.70 101.8509
1137.80 101.8454
1137.90 101.8398
1138.00 101.8343
1138.10 101.8288
1138.20 101.8232
1138.30 101.8177
1138.40 101.8121
1138.50 101.8066
1138.60 101.801
1138.70 101.8201
1138.80 101.8454
1138.90 101.8707
1139.00 101.8959
1139.10 101.9212
1139.20 101.9465
1139.30 101.9718
1139.40 101.997
1139.50 102.0223
1139.60 102.0476
1139.70 102.0729
1139.80 102.0981
1139.90 102.1234
1140.00 102.1487
1140.10 102.174
1140.20 102.1992
1140.30 102.2245
1140.40 102.2498
1140.50 102.2751
1140.60 102.3003
1140.70 102.3256
1140.80 102.3509
1140.90 102.3762
1141.00 102.4014
1141.10 102.4267
1141.20 102.452
1141.30 102.4773
1141.40 102.5025
1141.50 102.5278
1141.60 102.5531
1141.70 102.5784
1141.80 102.6036
1141.90 102.6289
1142.00 102.6542
1142.10 102.6795
1142.20 102.7047
1142.30 102.73
1142.40 102.7553
1142.50 102.7806
1142.60 102.8058
1142.70 102.8311
1142.80 102.8564
1142.90 102.9179
1143.00 102.9884
1143.10 103.0589
1143.20 103.1294
1143.30 103.2
1143.40 103.2705
1143.50 103.341
1143.60 103.4115
1143.70 103.4821
1143.80 103.5526
1143.90 103.6231
1144.00 103.6937
1144.10 103.7642
1144.20 103.8347
1144.30 103.9052
1144.40 103.9758
1144.50 104.0463
1144.60 104.1168
1144.70 104.1873
1144.80 104.2579
1144.90 104.3284
1145.00 104.3989
1145.10 104.4695
1145.20 104.54
1145.30 104.6105
1145.40 104.681
1145.50 104.7516
1145.60 104.8221
1145.70 104.8926
1145.80 104.9632
1145.90 105.0337
1146.00 105.1042
1146.10 105.1747
1146.20 105.2453
1146.30 105.3158
1146.40 105.3863
1146.50 105.4568
1146.60 105.5274
1146.70 105.5979
1146.80 105.6684
1146.90 105.739
1147.00 105.8095
1147.10 105.845
1147.20 105.8572
1147.30 105.8693
1147.40 105.8815
1147.50 105.8937
1147.60 105.9058
1147.70 105.918
1147.80 105.9302
1147.90 105.9423
1148.00 105.9545
1148.10 105.9667
1148.20 105.9788
1148.30 105.991
1148.40 106.0031
1148.50 106.0153
1148.60 106.0275
1148.70 106.0396
1148.80 106.0518
1148.90 106.064
1149.00 106.0761
1149.10 106.0883
1149.20 106.1005
1149.30 106.1126
1149.40 106.1248
1149.50 106.137
1149.60 106.1491
1149.70 106.1613
1149.80 106.1735
1149.90 106.1856
1150.00 106.1978
1150.10 106.21
1150.20 106.2221
1150.30 106.2343
1150.40 106.2465
1150.50 106.2586
1150.60 106.2708
1150.70 106.283
1150.80 106.2951
1150.90 106.3073
1151.00 106.3195
1151.10 106.3316
1151.20 106.3438
1151.30 106.3592
1151.40 106.3778
1151.50 106.3964
1151.60 106.415
1151.70 106.4336
1151.80 106.4522
1151.90 106.4708
1152.00 106.4894
1152.10 106.508
1152.20 106.5265
1152.30 106.5451
1152.40 106.5637
1152.50 106.5823
1152.60 106.6009
1152.70 106.6195
1152.80 106.6381
1152.90 106.6567
1153.00 106.6753
1153.10 106.6939
1153.20 106.7125
1153.30 106.7311
1153.40 106.7497
1153.50 106.7683
1153.60 106.7869
1153.70 106.8055
1153.80 106.8241
1153.90 106.8427
1154.00 106.8613
1154.10 106.8799
1154.20 106.8985
1154.30 106.9171
1154.40 106.9357
1154.50 106.9543
1154.60 106.9729
1154.70 106.9915
1154.80 107.0101
1154.90 107.0287
1155.00 107.0473
1155.10 107.0659
1155.20 107.0845
1155.30 107.1031
1155.40 107.1217
1155.50 107.1336
1155.60 107.1187
1155.70 107.1039
1155.80 107.0891
1155.90 107.0742
1156.00 107.0594
1156.10 107.0446
1156.20 107.0297
1156.30 107.0149
1156.40 107
1156.50 106.9852
1156.60 106.9704
1156.70 106.9555
1156.80 106.9407
1156.90 106.9259
1157.00 106.911
1157.10 106.8962
1157.20 106.8813
1157.30 106.8665
1157.40 106.8517
1157.50 106.8368
1157.60 106.822
1157.70 106.8071
1157.80 106.7923
1157.90 106.7775
1158.00 106.7626
1158.10 106.7478
1158.20 106.733
1158.30 106.7181
1158.40 106.7033
1158.50 106.6884
1158.60 106.6736
1158.70 106.6588
1158.80 106.6439
1158.90 106.6291
1159.00 106.6143
1159.10 106.5994
1159.20 106.5846
1159.30 106.5697
1159.40 106.5549
1159.50 106.5401
1159.60 106.5252
1159.70 106.5104
1159.80 106.4901
1159.90 106.4692
1160.00 106.4482
1160.10 106.4273
1160.20 106.4064
1160.30 106.3855
1160.40 106.3645
1160.50 106.3436
1160.60 106.3227
1160.70 106.3018
1160.80 106.2808
1160.90 106.2599
1161.00 106.239
1161.10 106.2181
1161.20 106.1971
1161.30 106.1762
1161.40 106.1553
1161.50 106.1344
1161.60 106.1134
1161.70 106.0925
1161.80 106.0716
1161.90 106.0506
1162.00 106.0297
1162.10 106.0088
1162.20 105.9879
1162.30 105.9669
1162.40 105.946
1162.50 105.9251
1162.60 105.9042
1162.70 105.8832
1162.80 105.8623
1162.90 105.8414
1163.00 105.8205
1163.10 105.7995
1163.20 105.7786
1163.30 105.7577
1163.40 105.7368
1163.50 105.7158
1163.60 105.6949
1163.70 105.674
1163.80 105.6531
1163.90 105.6321
1164.00 105.6079
1164.10 105.5814
1164.20 105.5548
1164.30 105.5283
1164.40 105.5018
1164.50 105.4753
1164.60 105.4488
1164.70 105.4223
1164.80 105.3958
1164.90 105.3693
1165.00 105.3427
1165.10 105.3162
1165.20 105.2897
1165.30 105.2632
1165.40 105.2367
1165.50 105.2102
1165.60 105.1837
1165.70 105.1572
1165.80 105.1306
1165.90 105.1041
1166.00 105.0776
1166.10 105.0511
1166.20 105.0246
1166.30 104.9981
1166.40 104.9716
1166.50 104.9451
1166.60 104.9185
1166.70 104.892
1166.80 104.8655
1166.90 104.839
1167.00 104.8125
1167.10 104.786
1167.20 104.7595
1167.30 104.733
1167.40 104.7065
1167.50 104.6799
1167.60 104.6534
1167.70 104.6269
1167.80 104.6004
1167.90 104.5739
1168.00 104.5474
1168.10 104.5209
1168.20 104.493
1168.30 104.4595
1168.40 104.4261
1168.50 104.3927
1168.60 104.3593
1168.70 104.3258
1168.80 104.2924
1168.90 104.259
1169.00 104.2256
1169.10 104.1921
1169.20 104.1587
1169.30 104.1253
1169.40 104.0919
1169.50 104.0584
1169.60 104.025
1169.70 103.9916
1169.80 103.9581
1169.90 103.9247
1170.00 103.8913
1170.10 103.8579
1170.20 103.8244
1170.30 103.791
1170.40 103.7576
1170.50 103.7242
1170.60 103.6907
1170.70 103.6573
1170.80 103.6239
1170.90 103.5905
1171.00 103.557
1171.10 103.5236
1171.20 103.4902
1171.30 103.4567
1171.40 103.4233
1171.50 103.3899
1171.60 103.3565
1171.70 103.323
1171.80 103.2896
1171.90 103.2562
1172.00 103.2228
1172.10 103.1893
1172.20 103.1559
1172.30 103.1225
1172.40 103.0891
1172.50 103.0847
1172.60 103.0927
1172.70 103.1008
1172.80 103.1088
1172.90 103.1169
1173.00 103.1249
1173.10 103.133
1173.20 103.141
1173.30 103.1491
1173.40 103.1571
1173.50 103.1652
1173.60 103.1732
1173.70 103.1813
1173.80 103.1893
1173.90 103.1974
1174.00 103.2054
1174.10 103.2135
1174.20 103.2215
1174.30 103.2296
1174.40 103.2376
1174.50 103.2457
1174.60 103.2537
1174.70 103.2618
1174.80 103.2698
1174.90 103.2779
1175.00 103.2859
1175.10 103.294
1175.20 103.302
1175.30 103.3101
1175.40 103.3181
1175.50 103.3262
1175.60 103.3342
1175.70 103.3423
1175.80 103.3503
1175.90 103.3584
1176.00 103.3664
1176.10 103.3745
1176.20 103.3825
1176.30 103.3906
1176.40 103.3986
1176.50 103.4067
1176.60 103.4147
1176.70 103.4236
1176.80 103.4359
1176.90 103.4482
1177.00 103.4605
1177.10 103.4728
1177.20 103.4851
1177.30 103.4974
1177.40 103.5097
1177.50 103.522
1177.60 103.5343
1177.70 103.5466
1177.80 103.5589
1177.90 103.5712
1178.00 103.5835
1178.10 103.5958
1178.20 103.6081
1178.30 103.6204
1178.40 103.6327
1178.50 103.645
1178.60 103.6573
1178.70 103.6696
1178.80 103.6818
1178.90 103.6941
1179.00 103.7064
1179.10 103.7187
1179.20 103.731
1179.30 103.7433
1179.40 103.7556
1179.50 103.7679
1179.60 103.7802
1179.70 103.7925
1179.80 103.8048
1179.90 103.8171
1180.00 103.8294
1180.10 103.8417
1180.20 103.854
1180.30 103.8663
1180.40 103.8786
1180.50 103.8909
1180.60 103.9032
1180.70 103.9155
1180.80 103.9278
1180.90 103.9401
1181.00 103.9682
1181.10 104.0069
1181.20 104.0455
1181.30 104.0842
1181.40 104.1229
1181.50 104.1616
1181.60 104.2002
1181.70 104.2389
1181.80 104.2776
1181.90 104.3163
1182.00 104.3549
1182.10 104.3936
1182.20 104.4323
1182.30 104.471
1182.40 104.5096
1182.50 104.5483
1182.60 104.587
1182.70 104.6257
1182.80 104.6643
1182.90 104.703
1183.00 104.7417
1183.10 104.7804
1183.20 104.819
1183.30 104.8577
1183.40 104.8964
1183.50 104.9351
1183.60 104.9738
1183.70 105.0124
1183.80 105.0511
1183.90 105.0898
1184.00 105.1285
1184.10 105.1671
1184.20 105.2058
1184.30 105.2445
1184.40 105.2832
1184.50 105.3218
1184.60 105.3605
1184.70 105.3992
1184.80 105.4379
1184.90 105.4765
1185.00 105.5152
1185.10 105.5539
1185.20 105.5926
1185.30 105.6136
1185.40 105.6346
1185.50 105.6557
1185.60 105.6767
1185.70 105.6978
1185.80 105.7188
1185.90 105.7398
1186.00 105.7609
1186.10 105.7819
1186.20 105.803
1186.30 105.824
1186.40 105.845
1186.50 105.8661
1186.60 105.8871
1186.70 105.9082
1186.80 105.9292
1186.90 105.9502
1187.00 105.9713
1187.10 105.9923
1187.20 106.0133
1187.30 106.0344
1187.40 106.0554
1187.50 106.0765
1187.60 106.0975
1187.70 106.1185
1187.80 106.1396
1187.90 106.1606
1188.00 106.1817
1188.10 106.2027
1188.20 106.2237
1188.30 106.2448
1188.40 106.2658
1188.50 106.2869
1188.60 106.3079
1188.70 106.3289
1188.80 106.35
1188.90 106.371
1189.00 106.392
1189.10 106.4131
1189.20 106.4341
1189.30 106.4552
1189.40 106.4762
1189.50 106.4747
1189.60 106.4393
1189.70 106.404
1189.80 106.3686
1189.90 106.3333
1190.00 106.2979
1190.10 106.2625
1190.20 106.2272
1190.30 106.1918
1190.40 106.1565
1190.50 106.1211
1190.60 106.0858
1190.70 106.0504
1190.80 106.0151
1190.90 105.9797
1191.00 105.9444
1191.10 105.909
1191.20 105.8736
1191.30 105.8383
1191.40 105.8029
1191.50 105.7676
1191.60 105.7322
1191.70 105.6969
1191.80 105.6615
1191.90 105.6262
1192.00 105.5908
1192.10 105.5554
1192.20 105.5201
1192.30 105.4847
1192.40 105.4494
1192.50 105.414
1192.60 105.3787
1192.70 105.3433
1192.80 105.308
1192.90 105.2726
1193.00 105.2372
1193.10 105.2019
1193.20 105.1665
1193.30 105.1312
1193.40 105.0958
1193.50 105.0605
1193.60 105.0251
1193.70 104.9898
1193.80 104.9604
1193.90 104.9336
1194.00 104.9068
1194.10 104.88
1194.20 104.8532
1194.30 104.8264
1194.40 104.7996
1194.50 104.7728
1194.60 104.746
1194.70 104.7192
1194.80 104.6924
1194.90 104.6656
1195.00 104.6388
1195.10 104.612
1195.20 104.5852
1195.30 104.5584
1195.40 104.5316
1195.50 104.5048
1195.60 104.478
1195.70 104.4512
1195.80 104.4244
1195.90 104.3976
1196.00 104.3708
1196.10 104.344
1196.20 104.3172
1196.30 104.2904
1196.40 104.2636
1196.50 104.2368
1196.60 104.21
1196.70 104.1832
1196.80 104.1564
1196.90 104.1296
1197.00 104.1028
1197.10 104.076
1197.20 104.0492
1197.30 104.0224
1197.40 103.9956
1197.50 103.9688
1197.60 103.942
1197.70 103.9152
1197.80 103.8884
1197.90 103.8616
1198.00 103.8348
1198.10 103.8425
1198.20 103.8541
1198.30 103.8656
1198.40 103.8771
1198.50 103.8887
1198.60 103.9002
1198.70 103.9118
1198.80 103.9233
1198.90 103.9348
1199.00 103.9464
1199.10 103.9579
1199.20 103.9694
1199.30 103.981
1199.40 103.9925
1199.50 104.004
1199.60 104.0156
1199.70 104.0271
1199.80 104.0386
1199.90 104.0502
1200.00 104.0617
1200.10 104.0732
1200.20 104.0848
1200.30 104.0963
1200.40 104.1079
1200.50 104.1194
1200.60 104.1309
1200.70 104.1425
1200.80 104.154
1200.90 104.1655
1201.00 104.1771
1201.10 104.1886
1201.20 104.2001
1201.30 104.2117
1201.40 104.2232
1201.50 104.2347
1201.60 104.2463
1201.70 104.2578
1201.80 104.2693
1201.90 104.2809
1202.00 104.2924
1202.10 104.3039
1202.20 104.3155
1202.30 104.3288
1202.40 104.3579
1202.50 104.3871
1202.60 104.4162
1202.70 104.4453
1202.80 104.4745
1202.90 104.5036
1203.00 104.5328
1203.10 104.5619
1203.20 104.591
1203.30 104.6202
1203.40 104.6493
1203.50 104.6784
1203.60 104.7076
1203.70 104.7367
1203.80 104.7659
1203.90 104.795
1204.00 104.8241
1204.10 104.8533
1204.20 104.8824
1204.30 104.9116
1204.40 104.9407
1204.50 104.9698
1204.60 104.999
1204.70 105.0281
1204.80 105.0573
1204.90 105.0864
1205.00 105.1155
1205.10 105.1447
1205.20 105.1738
1205.30 105.203
1205.40 105.2321
1205.50 105.2612
1205.60 105.2904
1205.70 105.3195
1205.80 105.3486
1205.90 105.3778
1206.00 105.4069
1206.10 105.4361
1206.20 105.4652
1206.30 105.4943
1206.40 105.5235
1206.50 105.5526
1206.60 105.5844
1206.70 105.6223
1206.80 105.6602
1206.90 105.6982
1207.00 105.7361
1207.10 105.774
1207.20 105.8119
1207.30 105.8498
1207.40 105.8877
1207.50 105.9257
1207.60 105.9636
1207.70 106.0015
1207.80 106.0394
1207.90 106.0773
1208.00 106.1153
1208.10 106.1532
1208.20 106.1911
1208.30 106.229
1208.40 106.2669
1208.50 106.3049
1208.60 106.3428
1208.70 106.3807
1208.80 106.4186
1208.90 106.4565
1209.00 106.4945
1209.10 106.5324
1209.20 106.5703
1209.30 106.6082
1209.40 106.6461
1209.50 106.684
1209.60 106.722
1209.70 106.7599
1209.80 106.7978
1209.90 106.8357
1210.00 106.8736
1210.10 106.9116
1210.20 106.9495
1210.30 106.9874
1210.40 107.0253
1210.50 107.0632
1210.60 107.1012
1210.70 107.1391
1210.80 107.177
1210.90 107.2085
1211.00 107.2337
1211.10 107.2589
1211.20 107.2841
1211.30 107.3093
1211.40 107.3345
1211.50 107.3596
1211.60 107.3848
1211.70 107.41
1211.80 107.4352
1211.90 107.4604
1212.00 107.4856
1212.10 107.5107
1212.20 107.5359
1212.30 107.5611
1212.40 107.5863
1212.50 107.6115
1212.60 107.6366
1212.70 107.6618
1212.80 107.687
1212.90 107.7122
1213.00 107.7374
1213.10 107.7626
1213.20 107.7877
1213.30 107.8129
1213.40 107.8381
1213.50 107.8633
1213.60 107.8885
1213.70 107.9136
1213.80 107.9388
1213.90 107.964
1214.00 107.9892
1214.10 108.0144
1214.20 108.0396
1214.30 108.0647
1214.40 108.0899
1214.50 108.1151
1214.60 108.1403
1214.70 108.1655
1214.80 108.1907
1214.90 108.2158
1215.00 108.241
1215.10 108.2662
1215.20 108.2968
1215.30 108.3311
1215.40 108.3654
1215.50 108.3997
1215.60 108.434
1215.70 108.4682
1215.80 108.5025
1215.90 108.5368
1216.00 108.5711
1216.10 108.6053
1216.20 108.6396
1216.30 108.6739
1216.40 108.7082
1216.50 108.7425
1216.60 108.7767
1216.70 108.811
1216.80 108.8453
1216.90 108.8796
1217.00 108.9138
1217.10 108.9481
1217.20 108.9824
1217.30 109.0167
1217.40 109.051
1217.50 109.0852
1217.60 109.1195
1217.70 109.1538
1217.80 109.1881
1217.90 109.2223
1218.00 109.2566
1218.10 109.2909
1218.20 109.3252
1218.30 109.3595
1218.40 109.3937
1218.50 109.428
1218.60 109.4623
1218.70 109.4966
1218.80 109.5309
1218.90 109.5651
1219.00 109.5994
1219.10 109.6337
1219.20 109.668
1219.30 109.7022
1219.40 109.7365
1219.50 109.7649
1219.60 109.7907
1219.70 109.8165
1219.80 109.8424
1219.90 109.8682
1220.00 109.894
1220.10 109.9199
1220.20 109.9457
1220.30 109.9715
1220.40 109.9973
1220.50 110.0232
1220.60 110.049
1220.70 110.0748
1220.80 110.1007
1220.90 110.1265
1221.00 110.1523
1221.10 110.1781
1221.20 110.204
1221.30 110.2298
1221.40 110.2556
1221.50 110.2815
1221.60 110.3073
1221.70 110.3331
1221.80 110.3589
1221.90 110.3848
1222.00 110.4106
1222.10 110.4364
1222.20 110.4623
1222.30 110.4881
1222.40 110.5139
1222.50 110.5397
1222.60 110.5656
1222.70 110.5914
1222.80 110.6172
1222.90 110.6431
1223.00 110.6689
1223.10 110.6947
1223.20 110.7205
1223.30 110.7464
1223.40 110.7722
1223.50 110.798
1223.60 110.8239
1223.70 110.8497
1223.80 110.8586
1223.90 110.8603
1224.00 110.8621
1224.10 110.8638
1224.20 110.8655
1224.30 110.8672
1224.40 110.8689
1224.50 110.8706
1224.60 110.8724
1224.70 110.8741
1224.80 110.8758
1224.90 110.8775
1225.00 110.8792
1225.10 110.8809
1225.20 110.8827
1225.30 110.8844
1225.40 110.8861
1225.50 110.8878
1225.60 110.8895
1225.70 110.8912
1225.80 110.893
1225.90 110.8947
1226.00 110.8964
1226.10 110.8981
1226.20 110.8998
1226.30 110.9015
1226.40 110.9033
1226.50 110.905
1226.60 110.9067
1226.70 110.9084
1226.80 110.9101
1226.90 110.9118
1227.00 110.9135
1227.10 110.9153
1227.20 110.917
1227.30 110.9187
1227.40 110.9204
1227.50 110.9221
1227.60 110.9238
1227.70 110.9256
1227.80 110.9273
1227.90 110.929
1228.00 110.9307
1228.10 110.9286
1228.20 110.9256
1228.30 110.9226
1228.40 110.9196
1228.50 110.9166
1228.60 110.9136
1228.70 110.9106
1228.80 110.9076
1228.90 110.9046
1229.00 110.9016
1229.10 110.8986
1229.20 110.8956
1229.30 110.8926
1229.40 110.8896
1229.50 110.8866
1229.60 110.8836
1229.70 110.8805
1229.80 110.8775
1229.90 110.8745
1230.00 110.8715
1230.10 110.8685
1230.20 110.8655
1230.30 110.8625
1230.40 110.8595
1230.50 110.8565
1230.60 110.8535
1230.70 110.8505
1230.80 110.8475
1230.90 110.8445
1231.00 110.8415
1231.10 110.8385
1231.20 110.8355
1231.30 110.8324
1231.40 110.8294
1231.50 110.8264
1231.60 110.8234
1231.70 110.8204
1231.80 110.8174
1231.90 110.8144
1232.00 110.8114
1232.10 110.8084
1232.20 110.8054
1232.30 110.8024
1232.40 110.7636
1232.50 110.7159
1232.60 110.6682
1232.70 110.6205
1232.80 110.5727
1232.90 110.525
1233.00 110.4773
1233.10 110.4296
1233.20 110.3819
1233.30 110.3342
1233.40 110.2865
1233.50 110.2387
1233.60 110.191
1233.70 110.1433
1233.80 110.0956
1233.90 110.0479
1234.00 110.0002
1234.10 109.9524
1234.20 109.9047
1234.30 109.857
1234.40 109.8093
1234.50 109.7616
1234.60 109.7139
1234.70 109.6661
1234.80 109.6184
1234.90 109.5707
1235.00 109.523
1235.10 109.4753
1235.20 109.4276
1235.30 109.3798
1235.40 109.3321
1235.50 109.2844
1235.60 109.2367
1235.70 109.189
1235.80 109.1413
1235.90 109.0936
1236.00 109.0458
1236.10 108.9981
1236.20 108.9504
1236.30 108.9027
1236.40 108.855
1236.50 108.8073
1236.60 108.7595
1236.70 108.7328
1236.80 108.7151
1236.90 108.6974
1237.00 108.6797
1237.10 108.662
1237.20 108.6443
1237.30 108.6266
1237.40 108.6089
1237.50 108.5912
1237.60 108.5735
1237.70 108.5558
1237.80 108.5381
1237.90 108.5204
1238.00 108.5027
1238.10 108.485
1238.20 108.4673
1238.30 108.4496
1238.40 108.4319
1238.50 108.4142
1238.60 108.3964
1238.70 108.3787
1238.80 108.361
1238.90 108.3433
1239.00 108.3256
1239.10 108.3079
1239.20 108.2902
1239.30 108.2725
1239.40 108.2548
1239.50 108.2371
1239.60 108.2194
1239.70 108.2017
1239.80 108.184
1239.90 108.1663
1240.00 108.1486
1240.10 108.1309
1240.20 108.1132
1240.30 108.0955
1240.40 108.0778
1240.50 108.0601
1240.60 108.0424
1240.70 108.0247
1240.80 108.0069
1240.90 107.9892
1241.00 107.9702
1241.10 107.9507
1241.20 107.9311
1241.30 107.9116
1241.40 107.892
1241.50 107.8725
1241.60 107.8529
1241.70 107.8334
1241.80 107.8138
1241.90 107.7943
1242.00 107.7747
1242.10 107.7552
1242.20 107.7356
1242.30 107.7161
1242.40 107.6965
1242.50 107.677
1242.60 107.6574
1242.70 107.6378
1242.80 107.6183
1242.90 107.5987
1243.00 107.5792
1243.10 107.5596
1243.20 107.5401
1243.30 107.5205
1243.40 107.501
1243.50 107.4814
1243.60 107.4619
1243.70 107.4423
1243.80 107.4228
1243.90 107.4032
1244.00 107.3837
1244.10 107.3641
1244.20 107.3446
1244.30 107.325
1244.40 107.3055
1244.50 107.2859
1244.60 107.2663
1244.70 107.2468
1244.80 107.2272
1244.90 107.2077
1245.00 107.1881
1245.10 107.1686
1245.20 107.149
1245.30 107.1639
1245.40 107.2018
1245.50 107.2397
1245.60 107.2775
1245.70 107.3154
1245.80 107.3532
1245.90 107.3911
1246.00 107.429
1246.10 107.4668
1246.20 107.5047
1246.30 107.5426
1246.40 107.5804
1246.50 107.6183
1246.60 107.6561
1246.70 107.694
1246.80 107.7319
1246.90 107.7697
1247.00 107.8076
1247.10 107.8455
1247.20 107.8833
1247.30 107.9212
1247.40 107.9591
1247.50 107.9969
1247.60 108.0348
1247.70 108.0726
1247.80 108.1105
1247.90 108.1484
1248.00 108.1862
1248.10 108.2241
1248.20 108.262
1248.30 108.2998
1248.40 108.3377
1248.50 108.3756
1248.60 108.4134
1248.70 108.4513
1248.80 108.4891
1248.90 108.527
1249.00 108.5649
1249.10 108.6027
1249.20 108.6406
1249.30 108.6785
1249.40 108.7163
1249.50 108.7542
1249.60 108.7897
1249.70 108.823
1249.80 108.8562
1249.90 108.8895
1250.00 108.9228
1250.10 108.956
1250.20 108.9893
1250.30 109.0225
1250.40 109.0558
1250.50 109.089
1250.60 109.1223
1250.70 109.1555
1250.80 109.1888
1250.90 109.222
1251.00 109.2553
1251.10 109.2885
1251.20 109.3218
1251.30 109.355
1251.40 109.3883
1251.50 109.4215
1251.60 109.4548
1251.70 109.488
1251.80 109.5213
1251.90 109.5545
1252.00 109.5878
1252.10 109.6211
1252.20 109.6543
1252.30 109.6876
1252.40 109.7208
1252.50 109.7541
1252.60 109.7873
1252.70 109.8206
1252.80 109.8538
1252.90 109.8871
1253.00 109.9203
1253.10 109.9536
1253.20 109.9868
1253.30 110.0201
1253.40 110.0533
1253.50 110.0866
1253.60 110.1198
1253.70 110.1531
1253.80 110.1863
1253.90 110.2283
1254.00 110.2832
1254.10 110.3381
1254.20 110.393
1254.30 110.4479
1254.40 110.5028
1254.50 110.5577
1254.60 110.6126
1254.70 110.6675
1254.80 110.7224
1254.90 110.7773
1255.00 110.8322
1255.10 110.8871
1255.20 110.942
1255.30 110.9969
1255.40 111.0518
1255.50 111.1067
1255.60 111.1616
1255.70 111.2165
1255.80 111.2714
1255.90 111.3263
1256.00 111.3812
1256.10 111.4361
1256.20 111.491
1256.30 111.5459
1256.40 111.6008
1256.50 111.6557
1256.60 111.7106
1256.70 111.7655
1256.80 111.8204
1256.90 111.8753
1257.00 111.9302
1257.10 111.9851
1257.20 112.04
1257.30 112.0949
1257.40 112.1498
1257.50 112.2047
1257.60 112.2596
1257.70 112.3145
1257.80 112.3694
1257.90 112.4243
1258.00 112.4792
1258.10 112.5341
1258.20 112.5748
1258.30 112.5825
1258.40 112.5901
1258.50 112.5978
1258.60 112.6054
1258.70 112.613
1258.80 112.6207
1258.90 112.6283
1259.00 112.6359
1259.10 112.6436
1259.20 112.6512
1259.30 112.6589
1259.40 112.6665
1259.50 112.6741
1259.60 112.6818
1259.70 112.6894
1259.80 112.6971
1259.90 112.7047
1260.00 112.7123
1260.10 112.72
1260.20 112.7276
1260.30 112.7352
1260.40 112.7429
1260.50 112.7505
1260.60 112.7582
1260.70 112.7658
1260.80 112.7734
1260.90 112.7811
1261.00 112.7887
1261.10 112.7963
1261.20 112.804
1261.30 112.8116
1261.40 112.8193
1261.50 112.8269
1261.60 112.8345
1261.70 112.8422
1261.80 112.8498
1261.90 112.8574
1262.00 112.8651
1262.10 112.8727
1262.20 112.8804
1262.30 112.888
1262.40 112.8956
1262.50 112.912
1262.60 112.9634
1262.70 113.0147
1262.80 113.0661
1262.90 113.1174
1263.00 113.1688
1263.10 113.2202
1263.20 113.2715
1263.30 113.3229
1263.40 113.3742
1263.50 113.4256
1263.60 113.4769
1263.70 113.5283
1263.80 113.5797
1263.90 113.631
1264.00 113.6824
1264.10 113.7337
1264.20 113.7851
1264.30 113.8364
1264.40 113.8878
1264.50 113.9392
1264.60 113.9905
1264.70 114.0419
1264.80 114.0932
1264.90 114.1446
1265.00 114.1959
1265.10 114.2473
1265.20 114.2986
1265.30 114.35
1265.40 114.4014
1265.50 114.4527
1265.60 114.5041
1265.70 114.5554
1265.80 114.6068
1265.90 114.6581
1266.00 114.7095
1266.10 114.7609
1266.20 114.8122
1266.30 114.8636
1266.40 114.9149
1266.50 114.9663
1266.60 115.0176
1266.70 115.069
1266.80 115.1204
1266.90 115.0892
1267.00 115.058
1267.10 115.0269
1267.20 114.9957
1267.30 114.9646
1267.40 114.9334
1267.50 114.9023
1267.60 114.8711
1267.70 114.84
1267.80 114.8088
1267.90 114.7777
1268.00 114.7465
1268.10 114.7154
1268.20 114.6842
1268.30 114.6531
1268.40 114.6219
1268.50 114.5908
1268.60 114.5596
1268.70 114.5285
1268.80 114.4973
1268.90 114.4662
1269.00 114.435
1269.10 114.4039
1269.20 114.3727
1269.30 114.3415
1269.40 114.3104
1269.50 114.2792
1269.60 114.2481
1269.70 114.2169
1269.80 114.1858
1269.90 114.1546
1270.00 114.1235
1270.10 114.0923
1270.20 114.0612
1270.30 114.03
1270.40 113.9989
1270.50 113.9677
1270.60 113.9366
1270.70 113.9054
1270.80 113.8743
1270.90 113.8431
1271.00 113.812
1271.10 113.7808
1271.20 113.8087
1271.30 113.8432
1271.40 113.8776
1271.50 113.9121
1271.60 113.9466
1271.70 113.981
1271.80 114.0155
1271.90 114.05
1272.00 114.0844
1272.10 114.1189
1272.20 114.1534
1272.30 114.1878
1272.40 114.2223
1272.50 114.2568
1272.60 114.2912
1272.70 114.3257
1272.80 114.3602
1272.90 114.3946
1273.00 114.4291
1273.10 114.4636
1273.20 114.498
1273.30 114.5325
1273.40 114.567
1273.50 114.6014
1273.60 114.6359
1273.70 114.6704
1273.80 114.7048
1273.90 114.7393
1274.00 114.7738
1274.10 114.8082
1274.20 114.8427
1274.30 114.8771
1274.40 114.9116
1274.50 114.9461
1274.60 114.9805
1274.70 115.015
1274.80 115.0495
1274.90 115.0839
1275.00 115.1184
1275.10 115.1529
1275.20 115.1873
1275.30 115.2218
1275.40 115.2563
1275.50 115.2672
1275.60 115.268
1275.70 115.2688
1275.80 115.2696
1275.90 115.2704
1276.00 115.2712
1276.10 115.272
1276.20 115.2728
1276.30 115.2736
1276.40 115.2744
1276.50 115.2752
1276.60 115.276
1276.70 115.2768
1276.80 115.2776
1276.90 115.2784
1277.00 115.2792
1277.10 115.28
1277.20 115.2808
1277.30 115.2816
1277.40 115.2825
1277.50 115.2833
1277.60 115.2841
1277.70 115.2849
1277.80 115.2857
1277.90 115.2865
1278.00 115.2873
1278.10 115.2881
1278.20 115.2889
1278.30 115.2897
1278.40 115.2905
1278.50 115.2913
1278.60 115.2921
1278.70 115.2929
1278.80 115.2937
1278.90 115.2945
1279.00 115.2953
1279.10 115.2961
1279.20 115.2969
1279.30 115.2977
1279.40 115.2985
1279.50 115.2993
1279.60 115.3001
1279.70 115.3009
1279.80 115.3034
1279.90 115.3069
1280.00 115.3104
1280.10 115.3139
1280.20 115.3174
1280.30 115.3209
1280.40 115.3245
1280.50 115.328
1280.60 115.3315
1280.70 115.335
1280.80 115.3385
1280.90 115.342
1281.00 115.3455
1281.10 115.349
1281.20 115.3525
1281.30 115.3561
1281.40 115.3596
1281.50 115.3631
1281.60 115.3666
1281.70 115.3701
1281.80 115.3736
1281.90 115.3771
1282.00 115.3806
1282.10 115.3842
1282.20 115.3877
1282.30 115.3912
1282.40 115.3947
1282.50 115.3982
1282.60 115.4017
1282.70 115.4052
1282.80 115.4087
1282.90 115.4123
1283.00 115.4158
1283.10 115.4193
1283.20 115.4228
1283.30 115.4263
1283.40 115.4298
1283.50 115.4333
1283.60 115.4368
1283.70 115.4404
1283.80 115.4439
1283.90 115.4474
1284.00 115.4509
1284.10 115.4621
1284.20 115.4848
1284.30 115.5076
1284.40 115.5303
1284.50 115.5531
1284.60 115.5758
1284.70 115.5986
1284.80 115.6213
1284.90 115.6441
1285.00 115.6668
1285.10 115.6896
1285.20 115.7123
1285.30 115.735
1285.40 115.7578
1285.50 115.7805
1285.60 115.8033
1285.70 115.826
1285.80 115.8488
1285.90 115.8715
1286.00 115.8943
1286.10 115.917
1286.20 115.9398
1286.30 115.9625
1286.40 115.9852
1286.50 116.008
1286.60 116.0307
1286.70 116.0535
1286.80 116.0762
1286.90 116.099
1287.00 116.1217
1287.10 116.1445
1287.20 116.1672
1287.30 116.19
1287.40 116.2127
1287.50 116.2355
1287.60 116.2582
1287.70 116.2809
1287.80 116.3037
1287.90 116.3264
1288.00 116.3492
1288.10 116.3719
1288.20 116.3947
1288.30 116.4174
1288.40 116.4379
1288.50 116.4493
1288.60 116.4608
1288.70 116.4722
1288.80 116.4836
1288.90 116.4951
1289.00 116.5065
1289.10 116.5179
1289.20 116.5294
1289.30 116.5408
1289.40 116.5522
1289.50 116.5637
1289.60 116.5751
1289.70 116.5865
1289.80 116.598
1289.90 116.6094
1290.00 116.6208
1290.10 116.6323
1290.20 116.6437
1290.30 116.6551
1290.40 116.6666
1290.50 116.678
1290.60 116.6894
1290.70 116.7008
1290.80 116.7123
1290.90 116.7237
1291.00 116.7351
1291.10 116.7466
1291.20 116.758
1291.30 116.7694
1291.40 116.7809
1291.50 116.7923
1291.60 116.8037
1291.70 116.8152
1291.80 116.8266
1291.90 116.838
1292.00 116.8495
1292.10 116.8609
1292.20 116.8723
1292.30 116.8838
1292.40 116.8952
1292.50 116.9066
1292.60 116.9181
1292.70 116.9295
1292.80 116.9356
1292.90 116.9417
1293.00 116.9478
1293.10 116.9538
1293.20 116.9599
1293.30 116.966
1293.40 116.9721
1293.50 116.9782
1293.60 116.9843
1293.70 116.9903
1293.80 116.9964
1293.90 117.0025
1294.00 117.0086
1294.10 117.0147
1294.20 117.0208
1294.30 117.0268
1294.40 117.0329
1294.50 117.039
1294.60 117.0451
1294.70 117.0512
1294.80 117.0573
1294.90 117.0634
1295.00 117.0694
1295.10 117.0755
1295.20 117.0816
1295.30 117.0877
1295.40 117.0938
1295.50 117.0999
1295.60 117.1059
1295.70 117.112
1295.80 117.1181
1295.90 117.1242
1296.00 117.1303
1296.10 117.1364
1296.20 117.1424
1296.30 117.1485
1296.40 117.1546
1296.50 117.1607
1296.60 117.1668
1296.70 117.1729
1296.80 117.179
1296.90 117.185
1297.00 117.1911
1297.10 117.1828
1297.20 117.1709
1297.30 117.159
1297.40 117.1471
1297.50 117.1352
1297.60 117.1233
1297.70 117.1113
1297.80 117.0994
1297.90 117.0875
1298.00 117.0756
1298.10 117.0637
1298.20 117.0518
1298.30 117.0399
1298.40 117.028
1298.50 117.0161
1298.60 117.0041
1298.70 116.9922
1298.80 116.9803
1298.90 116.9684
1299.00 116.9565
1299.10 116.9446
1299.20 116.9327
1299.30 116.9208
1299.40 116.9089
1299.50 116.897
1299.60 116.885
1299.70 116.8731
1299.80 116.8612
1299.90 116.8493
