# Version 2.1 - nm, norm@500 to 1, cut digits
# Wavelength(nm)  Flambda(ergs/cm^s/s/nm)
300.00 1.439098e-95
300.10 1.439098e-95
300.20 1.439098e-95
300.30 1.439098e-95
300.40 1.439098e-95
300.50 1.439098e-95
300.60 1.439098e-95
300.70 1.439098e-95
300.80 1.439098e-95
300.90 1.439098e-95
301.00 1.439098e-95
301.10 1.439098e-95
301.20 1.439098e-95
301.30 1.439098e-95
301.40 1.439098e-95
301.50 1.439098e-95
301.60 1.439098e-95
301.70 1.439098e-95
301.80 1.439098e-95
301.90 1.439098e-95
302.00 1.439098e-95
302.10 1.439098e-95
302.20 1.439098e-95
302.30 1.439098e-95
302.40 1.439098e-95
302.50 1.439098e-95
302.60 1.439098e-95
302.70 1.439098e-95
302.80 1.439098e-95
302.90 1.439098e-95
303.00 1.439098e-95
303.10 1.439098e-95
303.20 1.439098e-95
303.30 1.439098e-95
303.40 1.439098e-95
303.50 1.439098e-95
303.60 1.439098e-95
303.70 1.439098e-95
303.80 1.439098e-95
303.90 1.439098e-95
304.00 1.439098e-95
304.10 1.439098e-95
304.20 1.439098e-95
304.30 1.439098e-95
304.40 1.439098e-95
304.50 1.439098e-95
304.60 1.439098e-95
304.70 1.439098e-95
304.80 1.439098e-95
304.90 1.439098e-95
305.00 1.439098e-95
305.10 1.439098e-95
305.20 1.439098e-95
305.30 1.439098e-95
305.40 1.439098e-95
305.50 1.439098e-95
305.60 1.439098e-95
305.70 1.439098e-95
305.80 1.439098e-95
305.90 1.439098e-95
306.00 1.439098e-95
306.10 1.439098e-95
306.20 1.439098e-95
306.30 1.439098e-95
306.40 1.439098e-95
306.50 1.439098e-95
306.60 1.439098e-95
306.70 1.439098e-95
306.80 1.439098e-95
306.90 1.439098e-95
307.00 1.439098e-95
307.10 1.439098e-95
307.20 1.439098e-95
307.30 1.439098e-95
307.40 1.439098e-95
307.50 1.439098e-95
307.60 1.439098e-95
307.70 1.439098e-95
307.80 1.439098e-95
307.90 1.439098e-95
308.00 1.439098e-95
308.10 1.439098e-95
308.20 1.439098e-95
308.30 1.439098e-95
308.40 1.439098e-95
308.50 1.439098e-95
308.60 1.439098e-95
308.70 1.439098e-95
308.80 1.439098e-95
308.90 1.439098e-95
309.00 1.439098e-95
309.10 1.439098e-95
309.20 1.439098e-95
309.30 1.439098e-95
309.40 1.439098e-95
309.50 1.439098e-95
309.60 1.439098e-95
309.70 1.439098e-95
309.80 1.439098e-95
309.90 1.439098e-95
310.00 1.439098e-95
310.10 1.439098e-95
310.20 1.439098e-95
310.30 1.439098e-95
310.40 1.439098e-95
310.50 1.439098e-95
310.60 1.439098e-95
310.70 1.439098e-95
310.80 1.439098e-95
310.90 1.439098e-95
311.00 1.439098e-95
311.10 1.439098e-95
311.20 1.439098e-95
311.30 1.439098e-95
311.40 1.439098e-95
311.50 1.439098e-95
311.60 1.439098e-95
311.70 1.439098e-95
311.80 1.439098e-95
311.90 1.439098e-95
312.00 1.439098e-95
312.10 1.439098e-95
312.20 1.439098e-95
312.30 1.439098e-95
312.40 1.439098e-95
312.50 1.439098e-95
312.60 1.439098e-95
312.70 1.439098e-95
312.80 1.439098e-95
312.90 1.439098e-95
313.00 1.439098e-95
313.10 1.439098e-95
313.20 1.439098e-95
313.30 1.439098e-95
313.40 1.439098e-95
313.50 1.439098e-95
313.60 1.439098e-95
313.70 1.439098e-95
313.80 1.439098e-95
313.90 1.439098e-95
314.00 1.439098e-95
314.10 1.439098e-95
314.20 1.439098e-95
314.30 1.439098e-95
314.40 1.439098e-95
314.50 1.439098e-95
314.60 1.439098e-95
314.70 1.439098e-95
314.80 1.439098e-95
314.90 1.439098e-95
315.00 1.439098e-95
315.10 1.439098e-95
315.20 1.439098e-95
315.30 1.439098e-95
315.40 1.439098e-95
315.50 1.439098e-95
315.60 1.439098e-95
315.70 1.439098e-95
315.80 1.439098e-95
315.90 1.439098e-95
316.00 1.439098e-95
316.10 1.439098e-95
316.20 1.439098e-95
316.30 1.439098e-95
316.40 1.439098e-95
316.50 1.439098e-95
316.60 1.439098e-95
316.70 1.439098e-95
316.80 1.439098e-95
316.90 1.439098e-95
317.00 1.439098e-95
317.10 1.439098e-95
317.20 1.439098e-95
317.30 1.439098e-95
317.40 1.439098e-95
317.50 1.439098e-95
317.60 1.439098e-95
317.70 1.439098e-95
317.80 1.439098e-95
317.90 1.439098e-95
318.00 1.439098e-95
318.10 1.439098e-95
318.20 1.439098e-95
318.30 1.439098e-95
318.40 1.439098e-95
318.50 1.439098e-95
318.60 1.439098e-95
318.70 1.439098e-95
318.80 1.439098e-95
318.90 1.439098e-95
319.00 1.439098e-95
319.10 1.439098e-95
319.20 1.439098e-95
319.30 1.439098e-95
319.40 1.439098e-95
319.50 1.439098e-95
319.60 1.439098e-95
319.70 1.439098e-95
319.80 1.439098e-95
319.90 1.439098e-95
320.00 1.439098e-95
320.10 1.439098e-95
320.20 1.439098e-95
320.30 1.439098e-95
320.40 1.439098e-95
320.50 1.439098e-95
320.60 1.439098e-95
320.70 1.439098e-95
320.80 1.439098e-95
320.90 1.439098e-95
321.00 1.439098e-95
321.10 1.439098e-95
321.20 1.439098e-95
321.30 1.439098e-95
321.40 1.439098e-95
321.50 1.439098e-95
321.60 1.439098e-95
321.70 1.439098e-95
321.80 1.439098e-95
321.90 1.439098e-95
322.00 1.439098e-95
322.10 1.439098e-95
322.20 1.439098e-95
322.30 1.439098e-95
322.40 1.439098e-95
322.50 1.439098e-95
322.60 1.439098e-95
322.70 1.439098e-95
322.80 1.439098e-95
322.90 1.439098e-95
323.00 1.439098e-95
323.10 1.439098e-95
323.20 1.439098e-95
323.30 1.439098e-95
323.40 1.439098e-95
323.50 1.439098e-95
323.60 1.439098e-95
323.70 1.439098e-95
323.80 1.439098e-95
323.90 1.439098e-95
324.00 1.439098e-95
324.10 1.439098e-95
324.20 1.439098e-95
324.30 1.439098e-95
324.40 1.439098e-95
324.50 1.439098e-95
324.60 1.439098e-95
324.70 1.439098e-95
324.80 1.439098e-95
324.90 1.439098e-95
325.00 1.439098e-95
325.10 1.439098e-95
325.20 1.439098e-95
325.30 1.439098e-95
325.40 1.439098e-95
325.50 1.439098e-95
325.60 1.439098e-95
325.70 1.439098e-95
325.80 1.439098e-95
325.90 1.439098e-95
326.00 1.439098e-95
326.10 1.439098e-95
326.20 1.439098e-95
326.30 1.439098e-95
326.40 1.439098e-95
326.50 1.439098e-95
326.60 1.439098e-95
326.70 1.439098e-95
326.80 1.439098e-95
326.90 1.439098e-95
327.00 1.439098e-95
327.10 1.439098e-95
327.20 1.439098e-95
327.30 1.439098e-95
327.40 1.439098e-95
327.50 1.439098e-95
327.60 1.439098e-95
327.70 1.439098e-95
327.80 1.439098e-95
327.90 1.439098e-95
328.00 1.439098e-95
328.10 1.439098e-95
328.20 1.439098e-95
328.30 1.439098e-95
328.40 1.439098e-95
328.50 1.439098e-95
328.60 1.439098e-95
328.70 1.439098e-95
328.80 1.439098e-95
328.90 1.439098e-95
329.00 1.439098e-95
329.10 1.439098e-95
329.20 1.439098e-95
329.30 1.439098e-95
329.40 1.439098e-95
329.50 1.439098e-95
329.60 1.439098e-95
329.70 1.439098e-95
329.80 1.439098e-95
329.90 1.439098e-95
330.00 1.439098e-95
330.10 1.439098e-95
330.20 1.439098e-95
330.30 1.439098e-95
330.40 1.439098e-95
330.50 1.439098e-95
330.60 1.439098e-95
330.70 1.439098e-95
330.80 1.439098e-95
330.90 1.439098e-95
331.00 1.439098e-95
331.10 1.439098e-95
331.20 1.439098e-95
331.30 1.439098e-95
331.40 1.439098e-95
331.50 1.439098e-95
331.60 1.439098e-95
331.70 1.439098e-95
331.80 1.439098e-95
331.90 1.439098e-95
332.00 1.439098e-95
332.10 1.439098e-95
332.20 1.439098e-95
332.30 1.439098e-95
332.40 1.439098e-95
332.50 1.439098e-95
332.60 1.439098e-95
332.70 1.439098e-95
332.80 1.439098e-95
332.90 1.439098e-95
333.00 1.439098e-95
333.10 1.439098e-95
333.20 1.439098e-95
333.30 1.439098e-95
333.40 1.439098e-95
333.50 1.439098e-95
333.60 1.439098e-95
333.70 1.439098e-95
333.80 1.439098e-95
333.90 1.439098e-95
334.00 1.439098e-95
334.10 1.439098e-95
334.20 1.439098e-95
334.30 1.439098e-95
334.40 1.439098e-95
334.50 1.439098e-95
334.60 1.439098e-95
334.70 1.439098e-95
334.80 1.439098e-95
334.90 1.439098e-95
335.00 1.439098e-95
335.10 1.439098e-95
335.20 1.439098e-95
335.30 1.439098e-95
335.40 1.439098e-95
335.50 1.439098e-95
335.60 1.439098e-95
335.70 1.439098e-95
335.80 1.439098e-95
335.90 1.439098e-95
336.00 1.439098e-95
336.10 1.439098e-95
336.20 1.439098e-95
336.30 1.439098e-95
336.40 1.439098e-95
336.50 1.439098e-95
336.60 1.439098e-95
336.70 1.439098e-95
336.80 1.439098e-95
336.90 1.439098e-95
337.00 1.439098e-95
337.10 1.439098e-95
337.20 1.439098e-95
337.30 1.439098e-95
337.40 1.439098e-95
337.50 1.439098e-95
337.60 1.439098e-95
337.70 1.439098e-95
337.80 1.439098e-95
337.90 1.439098e-95
338.00 1.439098e-95
338.10 1.439098e-95
338.20 1.439098e-95
338.30 1.439098e-95
338.40 1.439098e-95
338.50 1.439098e-95
338.60 1.439098e-95
338.70 1.439098e-95
338.80 1.439098e-95
338.90 1.439098e-95
339.00 1.439098e-95
339.10 1.439098e-95
339.20 1.439098e-95
339.30 1.439098e-95
339.40 1.439098e-95
339.50 1.439098e-95
339.60 1.439098e-95
339.70 1.439098e-95
339.80 1.439098e-95
339.90 1.439098e-95
340.00 1.439098e-95
340.10 1.439098e-95
340.20 1.439098e-95
340.30 1.439098e-95
340.40 1.439098e-95
340.50 1.439098e-95
340.60 1.439098e-95
340.70 1.439098e-95
340.80 1.439098e-95
340.90 1.439098e-95
341.00 1.439098e-95
341.10 1.439098e-95
341.20 1.439098e-95
341.30 1.439098e-95
341.40 1.439098e-95
341.50 1.439098e-95
341.60 1.439098e-95
341.70 1.439098e-95
341.80 1.439098e-95
341.90 1.439098e-95
342.00 1.439098e-95
342.10 1.439098e-95
342.20 1.439098e-95
342.30 1.439098e-95
342.40 1.439098e-95
342.50 1.439098e-95
342.60 1.439098e-95
342.70 1.439098e-95
342.80 1.439098e-95
342.90 1.439098e-95
343.00 1.439098e-95
343.10 1.439098e-95
343.20 1.439098e-95
343.30 1.439098e-95
343.40 1.439098e-95
343.50 1.439098e-95
343.60 1.439098e-95
343.70 1.439098e-95
343.80 1.439098e-95
343.90 1.439098e-95
344.00 1.439098e-95
344.10 1.439098e-95
344.20 1.439098e-95
344.30 1.439098e-95
344.40 1.439098e-95
344.50 1.439098e-95
344.60 1.439098e-95
344.70 1.439098e-95
344.80 1.439098e-95
344.90 1.439098e-95
345.00 1.439098e-95
345.10 1.439098e-95
345.20 1.439098e-95
345.30 1.439098e-95
345.40 1.439098e-95
345.50 1.439098e-95
345.60 1.439098e-95
345.70 1.439098e-95
345.80 1.439098e-95
345.90 1.439098e-95
346.00 1.439098e-95
346.10 1.439098e-95
346.20 1.439098e-95
346.30 1.439098e-95
346.40 1.439098e-95
346.50 1.439098e-95
346.60 1.439098e-95
346.70 1.439098e-95
346.80 1.439098e-95
346.90 1.439098e-95
347.00 1.439098e-95
347.10 1.439098e-95
347.20 1.439098e-95
347.30 1.439098e-95
347.40 1.439098e-95
347.50 1.439098e-95
347.60 1.439098e-95
347.70 1.439098e-95
347.80 1.439098e-95
347.90 1.439098e-95
348.00 1.439098e-95
348.10 1.439098e-95
348.20 1.439098e-95
348.30 1.439098e-95
348.40 1.439098e-95
348.50 1.439098e-95
348.60 1.439098e-95
348.70 1.439098e-95
348.80 1.439098e-95
348.90 1.439098e-95
349.00 1.439098e-95
349.10 1.439098e-95
349.20 1.439098e-95
349.30 1.439098e-95
349.40 1.439098e-95
349.50 1.439098e-95
349.60 1.439098e-95
349.70 1.439098e-95
349.80 1.439098e-95
349.90 1.439098e-95
350.00 1.439098e-95
350.10 1.439098e-95
350.20 1.439098e-95
350.30 1.439098e-95
350.40 1.439098e-95
350.50 1.439098e-95
350.60 1.439098e-95
350.70 1.439098e-95
350.80 1.439098e-95
350.90 1.439098e-95
351.00 1.439098e-95
351.10 1.439098e-95
351.20 1.439098e-95
351.30 1.439098e-95
351.40 1.439098e-95
351.50 1.439098e-95
351.60 1.439098e-95
351.70 1.439098e-95
351.80 1.439098e-95
351.90 1.439098e-95
352.00 1.439098e-95
352.10 1.439098e-95
352.20 1.439098e-95
352.30 1.439098e-95
352.40 1.439098e-95
352.50 1.439098e-95
352.60 1.439098e-95
352.70 1.439098e-95
352.80 1.439098e-95
352.90 1.439098e-95
353.00 1.439098e-95
353.10 1.439098e-95
353.20 1.439098e-95
353.30 1.439098e-95
353.40 1.439098e-95
353.50 1.439098e-95
353.60 1.439098e-95
353.70 1.439098e-95
353.80 1.439098e-95
353.90 1.439098e-95
354.00 1.439098e-95
354.10 1.439098e-95
354.20 1.439098e-95
354.30 1.439098e-95
354.40 1.439098e-95
354.50 1.439098e-95
354.60 1.439098e-95
354.70 1.439098e-95
354.80 1.439098e-95
354.90 1.439098e-95
355.00 1.439098e-95
355.10 1.439098e-95
355.20 1.439098e-95
355.30 1.439098e-95
355.40 1.439098e-95
355.50 1.439098e-95
355.60 1.439098e-95
355.70 1.439098e-95
355.80 1.439098e-95
355.90 1.439098e-95
356.00 1.439098e-95
356.10 1.439098e-95
356.20 1.439098e-95
356.30 1.439098e-95
356.40 1.439098e-95
356.50 1.439098e-95
356.60 1.439098e-95
356.70 1.439098e-95
356.80 1.439098e-95
356.90 1.439098e-95
357.00 1.439098e-95
357.10 1.439098e-95
357.20 1.439098e-95
357.30 1.439098e-95
357.40 1.439098e-95
357.50 1.439098e-95
357.60 1.439098e-95
357.70 1.439098e-95
357.80 1.439098e-95
357.90 1.439098e-95
358.00 1.439098e-95
358.10 1.439098e-95
358.20 1.439098e-95
358.30 1.439098e-95
358.40 1.439098e-95
358.50 1.439098e-95
358.60 1.439098e-95
358.70 1.439098e-95
358.80 1.439098e-95
358.90 1.439098e-95
359.00 1.439098e-95
359.10 1.439098e-95
359.20 1.439098e-95
359.30 1.439098e-95
359.40 1.439098e-95
359.50 1.439098e-95
359.60 1.439098e-95
359.70 1.439098e-95
359.80 1.439098e-95
359.90 1.439098e-95
360.00 1.439098e-95
360.10 1.439098e-95
360.20 1.439098e-95
360.30 1.439098e-95
360.40 1.439098e-95
360.50 1.439098e-95
360.60 1.439098e-95
360.70 1.439098e-95
360.80 1.439098e-95
360.90 1.439098e-95
361.00 1.439098e-95
361.10 1.439098e-95
361.20 1.439098e-95
361.30 1.439098e-95
361.40 1.439098e-95
361.50 1.439098e-95
361.60 1.439098e-95
361.70 1.439098e-95
361.80 1.439098e-95
361.90 1.439098e-95
362.00 1.439098e-95
362.10 1.439098e-95
362.20 1.439098e-95
362.30 1.439098e-95
362.40 1.439098e-95
362.50 1.439098e-95
362.60 1.439098e-95
362.70 1.439098e-95
362.80 1.439098e-95
362.90 1.439098e-95
363.00 1.439098e-95
363.10 1.439098e-95
363.20 1.439098e-95
363.30 1.439098e-95
363.40 1.439098e-95
363.50 1.439098e-95
363.60 1.439098e-95
363.70 1.439098e-95
363.80 1.439098e-95
363.90 1.439098e-95
364.00 1.439098e-95
364.10 1.439098e-95
364.20 1.439098e-95
364.30 1.439098e-95
364.40 1.439098e-95
364.50 1.439098e-95
364.60 1.439098e-95
364.70 1.439098e-95
364.80 1.439098e-95
364.90 1.439098e-95
365.00 1.439098e-95
365.10 1.439098e-95
365.20 1.439098e-95
365.30 1.439098e-95
365.40 1.439098e-95
365.50 1.439098e-95
365.60 1.439098e-95
365.70 1.439098e-95
365.80 1.439098e-95
365.90 1.439098e-95
366.00 1.439098e-95
366.10 1.439098e-95
366.20 1.439098e-95
366.30 1.439098e-95
366.40 1.439098e-95
366.50 1.439098e-95
366.60 1.439098e-95
366.70 1.439098e-95
366.80 1.439098e-95
366.90 1.439098e-95
367.00 1.439098e-95
367.10 1.439098e-95
367.20 1.439098e-95
367.30 1.439098e-95
367.40 1.439098e-95
367.50 1.439098e-95
367.60 1.439098e-95
367.70 1.439098e-95
367.80 1.439098e-95
367.90 1.439098e-95
368.00 1.439098e-95
368.10 1.439098e-95
368.20 1.439098e-95
368.30 1.439098e-95
368.40 1.439098e-95
368.50 1.439098e-95
368.60 1.439098e-95
368.70 1.439098e-95
368.80 1.439098e-95
368.90 1.439098e-95
369.00 1.439098e-95
369.10 1.439098e-95
369.20 1.439098e-95
369.30 1.439098e-95
369.40 1.439098e-95
369.50 1.439098e-95
369.60 1.439098e-95
369.70 1.439098e-95
369.80 1.439098e-95
369.90 1.439098e-95
370.00 1.439098e-95
370.10 1.439098e-95
370.20 1.439098e-95
370.30 1.439098e-95
370.40 1.439098e-95
370.50 1.439098e-95
370.60 1.439098e-95
370.70 1.439098e-95
370.80 1.439098e-95
370.90 1.439098e-95
371.00 1.439098e-95
371.10 1.439098e-95
371.20 1.439098e-95
371.30 1.439098e-95
371.40 1.439098e-95
371.50 1.439098e-95
371.60 1.439098e-95
371.70 1.439098e-95
371.80 1.439098e-95
371.90 1.439098e-95
372.00 1.439098e-95
372.10 1.439098e-95
372.20 1.439098e-95
372.30 1.439098e-95
372.40 1.439098e-95
372.50 1.439098e-95
372.60 1.439098e-95
372.70 1.439098e-95
372.80 1.439098e-95
372.90 1.439098e-95
373.00 1.439098e-95
373.10 1.439098e-95
373.20 1.439098e-95
373.30 1.439098e-95
373.40 1.439098e-95
373.50 1.439098e-95
373.60 1.439098e-95
373.70 1.439098e-95
373.80 1.439098e-95
373.90 1.439098e-95
374.00 1.439098e-95
374.10 1.439098e-95
374.20 1.439098e-95
374.30 1.439098e-95
374.40 1.439098e-95
374.50 1.439098e-95
374.60 1.439098e-95
374.70 1.439098e-95
374.80 1.439098e-95
374.90 1.439098e-95
375.00 1.439098e-95
375.10 1.439098e-95
375.20 1.439098e-95
375.30 1.439098e-95
375.40 1.439098e-95
375.50 1.439098e-95
375.60 1.439098e-95
375.70 1.439098e-95
375.80 1.439098e-95
375.90 1.439098e-95
376.00 1.439098e-95
376.10 1.439098e-95
376.20 1.439098e-95
376.30 1.439098e-95
376.40 1.439098e-95
376.50 1.439098e-95
376.60 1.439098e-95
376.70 1.439098e-95
376.80 1.439098e-95
376.90 1.439098e-95
377.00 1.439098e-95
377.10 1.439098e-95
377.20 1.439098e-95
377.30 1.439098e-95
377.40 1.439098e-95
377.50 1.439098e-95
377.60 1.439098e-95
377.70 1.439098e-95
377.80 1.439098e-95
377.90 1.439098e-95
378.00 1.439098e-95
378.10 1.439098e-95
378.20 1.439098e-95
378.30 1.439098e-95
378.40 1.439098e-95
378.50 1.439098e-95
378.60 1.439098e-95
378.70 1.439098e-95
378.80 1.439098e-95
378.90 1.439098e-95
379.00 1.439098e-95
379.10 1.439098e-95
379.20 1.439098e-95
379.30 1.439098e-95
379.40 1.439098e-95
379.50 1.439098e-95
379.60 1.439098e-95
379.70 1.439098e-95
379.80 1.439098e-95
379.90 1.439098e-95
380.00 1.439098e-95
380.10 1.439098e-95
380.20 1.439098e-95
380.30 1.439098e-95
380.40 1.439098e-95
380.50 1.439098e-95
380.60 1.439098e-95
380.70 1.439098e-95
380.80 1.439098e-95
380.90 1.439098e-95
381.00 1.439098e-95
381.10 1.439098e-95
381.20 1.439098e-95
381.30 1.439098e-95
381.40 1.439098e-95
381.50 1.439098e-95
381.60 1.439098e-95
381.70 1.439098e-95
381.80 1.439098e-95
381.90 1.439098e-95
382.00 1.439098e-95
382.10 1.439098e-95
382.20 1.439098e-95
382.30 1.439098e-95
382.40 1.439098e-95
382.50 1.439098e-95
382.60 1.439098e-95
382.70 1.439098e-95
382.80 1.439098e-95
382.90 1.439098e-95
383.00 1.439098e-95
383.10 1.439098e-95
383.20 1.439098e-95
383.30 1.439098e-95
383.40 1.439098e-95
383.50 1.439098e-95
383.60 1.439098e-95
383.70 1.439098e-95
383.80 1.439098e-95
383.90 1.439098e-95
384.00 1.439098e-95
384.10 1.439098e-95
384.20 1.439098e-95
384.30 1.439098e-95
384.40 1.439098e-95
384.50 1.439098e-95
384.60 1.439098e-95
384.70 1.439098e-95
384.80 1.439098e-95
384.90 1.439098e-95
385.00 1.439098e-95
385.10 1.439098e-95
385.20 1.439098e-95
385.30 1.439098e-95
385.40 1.439098e-95
385.50 1.439098e-95
385.60 1.439098e-95
385.70 1.439098e-95
385.80 1.439098e-95
385.90 1.439098e-95
386.00 1.439098e-95
386.10 1.439098e-95
386.20 1.439098e-95
386.30 1.439098e-95
386.40 1.439098e-95
386.50 1.439098e-95
386.60 1.439098e-95
386.70 1.439098e-95
386.80 1.439098e-95
386.90 1.439098e-95
387.00 1.439098e-95
387.10 1.439098e-95
387.20 1.439098e-95
387.30 1.439098e-95
387.40 1.439098e-95
387.50 1.439098e-95
387.60 1.439098e-95
387.70 1.439098e-95
387.80 1.439098e-95
387.90 1.439098e-95
388.00 1.439098e-95
388.10 1.439098e-95
388.20 1.439098e-95
388.30 1.439098e-95
388.40 1.439098e-95
388.50 1.439098e-95
388.60 1.439098e-95
388.70 1.439098e-95
388.80 1.439098e-95
388.90 1.439098e-95
389.00 1.439098e-95
389.10 1.439098e-95
389.20 1.439098e-95
389.30 1.439098e-95
389.40 1.439098e-95
389.50 1.439098e-95
389.60 1.439098e-95
389.70 1.439098e-95
389.80 1.439098e-95
389.90 1.439098e-95
390.00 1.439098e-95
390.10 1.439098e-95
390.20 1.439098e-95
390.30 1.439098e-95
390.40 1.439098e-95
390.50 1.439098e-95
390.60 1.439098e-95
390.70 1.439098e-95
390.80 1.439098e-95
390.90 1.439098e-95
391.00 1.439098e-95
391.10 1.439098e-95
391.20 1.439098e-95
391.30 1.439098e-95
391.40 1.439098e-95
391.50 1.439098e-95
391.60 1.439098e-95
391.70 1.439098e-95
391.80 1.439098e-95
391.90 1.439098e-95
392.00 1.439098e-95
392.10 1.439098e-95
392.20 1.439098e-95
392.30 1.439098e-95
392.40 1.439098e-95
392.50 1.439098e-95
392.60 1.439098e-95
392.70 1.439098e-95
392.80 1.439098e-95
392.90 1.439098e-95
393.00 1.439098e-95
393.10 1.439098e-95
393.20 1.439098e-95
393.30 1.439098e-95
393.40 1.439098e-95
393.50 1.439098e-95
393.60 1.439098e-95
393.70 1.439098e-95
393.80 1.439098e-95
393.90 1.439098e-95
394.00 1.439098e-95
394.10 1.439098e-95
394.20 1.439098e-95
394.30 1.439098e-95
394.40 1.439098e-95
394.50 1.439098e-95
394.60 1.439098e-95
394.70 1.439098e-95
394.80 1.439098e-95
394.90 1.439098e-95
395.00 0.03288088
395.10 0.04412828
395.20 0.04412828
395.30 0.04412828
395.40 0.04412828
395.50 0.04412828
395.60 0.04412828
395.70 0.04412828
395.80 0.04412828
395.90 0.04832854
396.00 0.06021865
396.10 0.07608685
396.20 0.09165874
396.30 0.1016668
396.40 0.103346
396.50 0.103346
396.60 0.103346
396.70 0.103346
396.80 0.103346
396.90 0.103346
397.00 0.103346
397.10 0.103346
397.20 0.103346
397.30 0.103346
397.40 0.103346
397.50 0.110948
397.60 0.1274476
397.70 0.1564322
397.80 0.2016043
397.90 0.2626973
398.00 0.3363245
398.10 0.4165969
398.20 0.4954303
398.30 0.565109
398.40 0.6216811
398.50 0.6655649
398.60 0.7016563
398.70 0.7382826
398.80 0.7847507
398.90 0.8487528
399.00 0.9343028
399.10 1.041474
399.20 1.166312
399.30 1.301558
399.40 1.437312
399.50 1.56265
399.60 1.668452
399.70 1.748134
399.80 1.797825
399.90 1.815718
400.00 1.815718
400.10 1.815718
400.20 1.815718
400.30 1.815718
400.40 1.815718
400.50 1.815718
400.60 1.815718
400.70 1.815718
400.80 1.815718
400.90 1.81629
401.00 1.823437
401.10 1.836732
401.20 1.857978
401.30 1.88849
401.40 1.929244
401.50 1.980084
401.60 2.037607
401.70 2.096895
401.80 2.152883
401.90 2.201516
402.00 2.241064
402.10 2.271868
402.20 2.296497
402.30 2.320307
402.40 2.349021
402.50 2.384839
402.60 2.428233
402.70 2.480434
402.80 2.541341
402.90 2.608538
403.00 2.678774
403.10 2.748391
403.20 2.81488
403.30 2.878533
403.40 2.942236
403.50 3.009505
403.60 3.083054
403.70 3.163169
403.80 3.247515
403.90 3.332457
404.00 3.414312
404.10 3.491003
404.20 3.561658
404.30 3.626187
404.40 3.685475
404.50 3.741552
404.60 3.79648
404.70 3.849595
404.80 3.898726
404.90 3.943303
405.00 3.950406
405.10 3.974651
405.20 4.008263
405.30 4.044337
405.40 4.084204
405.50 4.124974
405.60 4.162268
405.70 4.192529
405.80 4.213422
405.90 4.219587
406.00 4.20822
406.10 4.192352
406.20 4.17678
406.30 4.166772
406.40 4.165093
406.50 4.165093
406.60 4.165093
406.70 4.165093
406.80 4.165093
406.90 4.165093
407.00 4.165093
407.10 4.165093
407.20 4.165093
407.30 4.165093
407.40 4.165093
407.50 4.157491
407.60 4.140992
407.70 4.112007
407.80 4.066835
407.90 4.005742
408.00 3.932115
408.10 3.851842
408.20 3.773009
408.30 3.70333
408.40 3.646758
408.50 3.602874
408.60 3.566783
408.70 3.530157
408.80 3.483688
408.90 3.422619
409.00 3.344637
409.10 3.247517
409.20 3.133464
409.30 3.00868
409.40 2.882177
409.50 2.764216
409.60 2.663161
409.70 2.586117
409.80 2.539156
409.90 2.524878
410.00 2.528712
410.10 2.531711
410.20 2.532684
410.30 2.532684
410.40 2.532684
410.50 2.538892
410.60 2.556901
410.70 2.589924
410.80 2.638346
410.90 2.698614
411.00 2.759709
411.10 2.816116
411.20 2.859854
411.30 2.884173
411.40 2.884956
411.50 2.863515
411.60 2.828127
411.70 2.789824
411.80 2.757459
411.90 2.735849
412.00 2.72596
412.10 2.724292
412.20 2.724122
412.30 2.717012
412.40 2.695481
412.50 2.659664
412.60 2.616269
412.70 2.564069
412.80 2.503162
412.90 2.435965
413.00 2.365728
413.10 2.296111
413.20 2.229623
413.30 2.165969
413.40 2.102267
413.50 2.034998
413.60 1.961449
413.70 1.881334
413.80 1.796988
413.90 1.712046
414.00 1.630191
414.10 1.553499
414.20 1.482845
414.30 1.418315
414.40 1.359028
414.50 1.302951
414.60 1.248023
414.70 1.194907
414.80 1.145777
414.90 1.101199
415.00 1.061216
415.10 1.025723
415.20 0.992111
415.30 0.9560376
415.40 0.9161708
415.50 0.875401
415.60 0.8381066
415.70 0.8078452
415.80 0.7869527
415.90 0.7786454
416.00 0.7885011
416.10 0.8094504
416.20 0.8418658
416.30 0.8855524
416.40 0.9393021
416.50 1.000461
416.60 1.064324
416.70 1.125072
416.80 1.177511
416.90 1.218489
417.00 1.247226
417.10 1.264283
417.20 1.270486
417.30 1.270486
417.40 1.270486
417.50 1.270486
417.60 1.270486
417.70 1.270486
417.80 1.270486
417.90 1.270486
418.00 1.270486
418.10 1.270486
418.20 1.270486
418.30 1.270486
418.40 1.270486
418.50 1.270486
418.60 1.270486
418.70 1.270486
418.80 1.270486
418.90 1.267553
419.00 1.259986
419.10 1.249934
419.20 1.239149
419.30 1.228688
419.40 1.219437
419.50 1.212059
419.60 1.207312
419.70 1.204674
419.80 1.201944
419.90 1.198329
420.00 1.194495
420.10 1.191496
420.20 1.190523
420.30 1.190523
420.40 1.190523
420.50 1.184315
420.60 1.166306
420.70 1.133283
420.80 1.086673
420.90 1.027417
421.00 0.9591755
421.10 0.8894729
421.20 0.8244887
421.30 0.769658
421.40 0.7281221
421.50 0.6991178
421.60 0.6821378
421.70 0.6713978
421.80 0.6628144
421.90 0.6567561
422.00 0.6552361
422.10 0.6603555
422.20 0.6739369
422.30 0.6960009
422.40 0.7237514
422.50 0.7503407
422.60 0.7650477
422.70 0.7654029
422.80 0.7654029
422.90 0.7654029
423.00 0.7654029
423.10 0.7654029
423.20 0.7654029
423.30 0.7654029
423.40 0.7654029
423.50 0.7654029
423.60 0.7654029
423.70 0.7654029
423.80 0.7654029
423.90 0.7654029
424.00 0.7654029
424.10 0.7654029
424.20 0.7654029
424.30 0.7654029
424.40 0.7654029
424.50 0.7687656
424.60 0.7829488
424.70 0.8106963
424.80 0.8526895
424.90 0.9079814
425.00 0.9746762
425.10 1.049238
425.20 1.126408
425.30 1.200839
425.40 1.267955
425.50 1.324083
425.60 1.368416
425.70 1.403224
425.80 1.432042
425.90 1.457259
426.00 1.475819
426.10 1.48631
426.20 1.48826
426.30 1.482031
426.40 1.467819
426.50 1.446718
426.60 1.42196
426.70 1.398064
426.80 1.379326
426.90 1.368495
427.00 1.364929
427.10 1.364925
427.20 1.365106
427.30 1.365106
427.40 1.365106
427.50 1.365106
427.60 1.365106
427.70 1.365106
427.80 1.365106
427.90 1.365106
428.00 1.365106
428.10 1.365106
428.20 1.365106
428.30 1.365106
428.40 1.365106
428.50 1.365106
428.60 1.365106
428.70 1.365106
428.80 1.365106
428.90 1.365106
429.00 1.365106
429.10 1.365106
429.20 1.365983
429.30 1.375817
429.40 1.393017
429.50 1.416881
429.60 1.44841
429.70 1.488647
429.80 1.536824
429.90 1.591959
430.00 1.653957
430.10 1.721684
430.20 1.791759
430.30 1.85887
430.40 1.91574
430.50 1.954405
430.60 1.970429
430.70 1.970429
430.80 1.968618
430.90 1.967033
431.00 1.967033
431.10 1.982372
431.20 2.013072
431.30 2.052947
431.40 2.091497
431.50 2.118306
431.60 2.121909
431.70 2.111665
431.80 2.096625
431.90 2.07566
432.00 2.047521
432.10 2.013266
432.20 1.975226
432.30 1.936462
432.40 1.901528
432.50 1.874938
432.60 1.860231
432.70 1.859876
432.80 1.859876
432.90 1.859876
433.00 1.859876
433.10 1.859876
433.20 1.859876
433.30 1.859876
433.40 1.859876
433.50 1.859876
433.60 1.859876
433.70 1.859876
433.80 1.859876
433.90 1.859876
434.00 1.859876
434.10 1.859876
434.20 1.859876
434.30 1.859876
434.40 1.859876
434.50 1.856513
434.60 1.84233
434.70 1.814583
434.80 1.772589
434.90 1.717297
435.00 1.650603
435.10 1.576041
435.20 1.498871
435.30 1.42444
435.40 1.357324
435.50 1.301196
435.60 1.256863
435.70 1.222055
435.80 1.193237
435.90 1.165961
436.00 1.137022
436.10 1.105582
436.20 1.071216
436.30 1.033759
436.40 0.9942214
436.50 0.9541631
436.60 0.9150577
436.70 0.8800638
436.80 0.8575035
436.90 0.8478099
437.00 0.849746
437.10 0.8604959
437.20 0.8758672
437.30 0.8867352
437.40 0.8867352
437.50 0.8867352
437.60 0.8867352
437.70 0.8867352
437.80 0.8867352
437.90 0.8867352
438.00 0.8867352
438.10 0.8869745
438.20 0.8897377
438.30 0.892197
438.40 0.892197
438.50 0.892197
438.60 0.892197
438.70 0.892197
438.80 0.892197
438.90 0.892197
439.00 0.892197
439.10 0.892197
439.20 0.8913199
439.30 0.8814855
439.40 0.8642859
439.50 0.8404224
439.60 0.8088929
439.70 0.7686555
439.80 0.7204792
439.90 0.6717945
440.00 0.6267414
440.10 0.5844737
440.20 0.5446409
440.30 0.5073035
440.40 0.4746866
440.50 0.4520107
440.60 0.4433666
440.70 0.4437253
440.80 0.4437253
440.90 0.4437253
441.00 0.4437253
441.10 0.4283863
441.20 0.3976861
441.30 0.3578115
441.40 0.3192618
441.50 0.2920568
441.60 0.2832983
441.70 0.2832983
441.80 0.2832983
441.90 0.2832983
442.00 0.2832983
442.10 0.2851955
442.20 0.2880821
442.30 0.2896042
442.40 0.2896042
442.50 0.2896042
442.60 0.2896042
442.70 0.2896042
442.80 0.2896042
442.90 0.2896042
443.00 0.2896042
443.10 0.2896042
443.20 0.2896042
443.30 0.2896042
443.40 0.2896042
443.50 0.2896042
443.60 0.2896042
443.70 0.2907826
443.80 0.2957611
443.90 0.3042855
444.00 0.3181823
444.10 0.3396015
444.20 0.3699414
444.30 0.4108998
444.40 0.4624656
444.50 0.5216705
444.60 0.5843308
444.70 0.6451326
444.80 0.6970965
444.90 0.7343987
445.00 0.7549023
445.10 0.7593964
445.20 0.7593964
445.30 0.7593964
445.40 0.7593964
445.50 0.7593964
445.60 0.7593964
445.70 0.7593964
445.80 0.7593964
445.90 0.7593964
446.00 0.7593964
446.10 0.7593964
446.20 0.7593964
446.30 0.7593964
446.40 0.7593964
446.50 0.7593964
446.60 0.7593964
446.70 0.7575388
446.80 0.7463983
446.90 0.7259453
447.00 0.6988382
447.10 0.6710349
447.20 0.6492797
447.30 0.6418571
447.40 0.663114
447.50 0.7013917
447.60 0.7535338
447.70 0.8146645
447.80 0.8791499
447.90 0.9415387
448.00 0.9969168
448.10 1.041593
448.20 1.072102
448.30 1.091978
448.40 1.105631
448.50 1.113397
448.60 1.117305
448.70 1.118526
448.80 1.118812
448.90 1.120789
449.00 1.126445
449.10 1.136711
449.20 1.151245
449.30 1.167949
449.40 1.184158
449.50 1.197078
449.60 1.203856
449.70 1.203856
449.80 1.203856
449.90 1.197405
450.00 1.18046
450.10 1.155
450.20 1.124758
450.30 1.100056
450.40 1.087954
450.50 1.089693
450.60 1.103332
450.70 1.12485
450.80 1.143457
450.90 1.152753
451.00 1.152753
451.10 1.152753
451.20 1.152753
451.30 1.152753
451.40 1.152753
451.50 1.152753
451.60 1.152753
451.70 1.152753
451.80 1.152753
451.90 1.152753
452.00 1.152753
452.10 1.150856
452.20 1.14797
452.30 1.146447
452.40 1.148383
452.50 1.151987
452.60 1.155392
452.70 1.157342
452.80 1.157342
452.90 1.157342
453.00 1.157342
453.10 1.157342
453.20 1.157342
453.30 1.159208
453.40 1.167582
453.50 1.18209
453.60 1.201817
453.70 1.224059
453.80 1.24577
453.90 1.267451
454.00 1.285652
454.10 1.295272
454.20 1.292206
454.30 1.272941
454.40 1.23697
454.50 1.188227
454.60 1.134025
454.70 1.082976
454.80 1.044172
454.90 1.024186
455.00 1.023883
455.10 1.040002
455.20 1.058102
455.30 1.072117
455.40 1.083226
455.50 1.093628
455.60 1.104689
455.70 1.116093
455.80 1.12631
455.90 1.132988
456.00 1.132988
456.10 1.132988
456.20 1.132988
456.30 1.132988
456.40 1.132988
456.50 1.132988
456.60 1.132988
456.70 1.132988
456.80 1.132988
456.90 1.132988
457.00 1.132988
457.10 1.132988
457.20 1.144978
457.30 1.166204
457.40 1.178345
457.50 1.177086
457.60 1.160465
457.70 1.129192
457.80 1.08646
457.90 1.036312
458.00 0.9829007
458.10 0.9379857
458.20 0.9047132
458.30 0.8823775
458.40 0.8687252
458.50 0.8609585
458.60 0.8604958
458.70 0.8740745
458.80 0.9000828
458.90 0.9344122
459.00 0.9701838
459.10 1.00087
459.20 1.021848
459.30 1.030583
459.40 1.026647
459.50 1.013726
459.60 1.006949
459.70 1.006949
459.80 1.006949
459.90 1.006949
460.00 1.006949
460.10 1.006949
460.20 1.006949
460.30 1.001878
460.40 0.9897265
460.50 0.9719991
460.60 0.950979
460.70 0.9291026
460.80 0.9104959
460.90 0.9011995
461.00 0.9011995
461.10 0.9011995
461.20 0.9011995
461.30 0.9011995
461.40 0.9011995
461.50 0.9011995
461.60 0.9011995
461.70 0.9011995
461.80 0.9011995
461.90 0.9011995
462.00 0.9011995
462.10 0.9011995
462.20 0.9011995
462.30 0.9011995
462.40 0.8992637
462.50 0.8956598
462.60 0.8922545
462.70 0.8903049
462.80 0.8903049
462.90 0.8903049
463.00 0.8903049
463.10 0.8903049
463.20 0.8903049
463.30 0.888439
463.40 0.8800653
463.50 0.8703484
463.60 0.8597266
463.70 0.8480676
463.80 0.83379
463.90 0.8142563
464.00 0.7882085
464.10 0.7571697
464.20 0.7298962
464.30 0.7082022
464.40 0.6926071
464.50 0.6821456
464.60 0.673687
464.70 0.6639348
464.80 0.662777
464.90 0.6697291
465.00 0.6829965
465.10 0.7006578
465.20 0.7208621
465.30 0.7415603
465.40 0.7597547
465.50 0.7730684
465.60 0.7817615
465.70 0.7877052
465.80 0.793296
465.90 0.8021649
466.00 0.8185408
466.10 0.8360537
466.20 0.8547708
466.30 0.8745042
466.40 0.8938984
466.50 0.9105346
466.60 0.9216402
466.70 0.9239368
466.80 0.9239368
466.90 0.9239368
467.00 0.9239368
467.10 0.9239368
467.20 0.911947
467.30 0.8872757
467.40 0.8538781
467.50 0.8168591
467.60 0.7813377
467.70 0.7514802
467.80 0.7353299
467.90 0.7335194
468.00 0.7462997
468.10 0.7650976
468.20 0.7875199
468.30 0.8116834
468.40 0.8344428
468.50 0.852856
468.60 0.8606639
468.70 0.8472462
468.80 0.8209515
468.90 0.7846452
469.00 0.7432179
469.10 0.7022652
469.20 0.6667534
469.30 0.6413147
469.40 0.6290422
469.50 0.6290422
469.60 0.6290422
469.70 0.641397
469.80 0.6670633
469.90 0.7011847
470.00 0.7371242
470.10 0.7681359
470.20 0.7886997
470.30 0.7961458
470.40 0.7961458
470.50 0.7961458
470.60 0.7961458
470.70 0.7961458
470.80 0.7961458
470.90 0.7988298
471.00 0.813878
471.10 0.8391146
471.20 0.8705614
471.30 0.9039259
471.40 0.9355818
471.50 0.9627841
471.60 0.9831851
471.70 0.9944759
471.80 0.9945647
471.90 0.9945647
472.00 0.9945647
472.10 0.9945647
472.20 0.9945647
472.30 0.9945647
472.40 0.9945647
472.50 0.9945647
472.60 0.9945647
472.70 0.9945647
472.80 0.9945647
472.90 0.9945647
473.00 0.9945647
473.10 0.9945647
473.20 0.9945647
473.30 0.9945647
473.40 0.9945647
473.50 0.9897732
473.60 0.980668
473.70 0.9689063
473.80 0.9564951
473.90 0.9458234
474.00 0.9397726
474.10 0.9397726
474.20 0.9397726
474.30 0.9397726
474.40 0.9397726
474.50 0.9397726
474.60 0.9397726
474.70 0.9397726
474.80 0.9277704
474.90 0.9035019
475.00 0.8700336
475.10 0.8317597
475.20 0.7934553
475.30 0.7587418
475.40 0.7294384
475.50 0.7057226
475.60 0.6859684
475.70 0.6686214
475.80 0.6528129
475.90 0.6372661
476.00 0.6208902
476.10 0.6033772
476.20 0.5903605
476.30 0.5835999
476.40 0.5865
476.50 0.603195
476.60 0.6367412
476.70 0.6885861
476.80 0.7474773
476.90 0.8034734
477.00 0.8477727
477.10 0.8739109
477.20 0.8795302
477.30 0.8795302
477.40 0.8795302
477.50 0.8795302
477.60 0.8795302
477.70 0.8795302
477.80 0.8739268
477.90 0.8634965
478.00 0.8487498
478.10 0.8299519
478.20 0.8161555
478.30 0.8133509
478.40 0.824074
478.50 0.8479173
478.60 0.8824402
478.70 0.9238433
478.80 0.9576206
478.90 0.9790468
479.00 0.987923
479.10 0.987923
479.20 0.987923
479.30 0.987923
479.40 0.987923
479.50 0.987923
479.60 0.987923
479.70 0.9755682
479.80 0.9499018
479.90 0.9190416
480.00 0.8913441
480.10 0.8729129
480.20 0.8677783
480.30 0.8758733
480.40 0.8888614
480.50 0.8978169
480.60 0.90206
480.70 0.90206
480.80 0.90206
480.90 0.899376
481.00 0.8891661
481.10 0.8779524
481.20 0.8723191
481.30 0.8799731
481.40 0.9079256
481.50 0.9599435
481.60 1.035724
481.70 1.13155
481.80 1.240847
481.90 1.342956
482.00 1.429612
482.10 1.495213
482.20 1.537091
482.30 1.556047
482.40 1.556851
482.50 1.556851
482.60 1.556851
482.70 1.556851
482.80 1.556851
482.90 1.556851
483.00 1.556851
483.10 1.556851
483.20 1.556851
483.30 1.556851
483.40 1.556851
483.50 1.556851
483.60 1.556851
483.70 1.556851
483.80 1.556851
483.90 1.556851
484.00 1.556851
484.10 1.557063
484.20 1.55911
484.30 1.562291
484.40 1.565622
484.50 1.567361
484.60 1.567361
484.70 1.567361
484.80 1.567361
484.90 1.567361
485.00 1.567361
485.10 1.567361
485.20 1.567361
485.30 1.567361
485.40 1.567361
485.50 1.567361
485.60 1.567361
485.70 1.567361
485.80 1.567361
485.90 1.567361
486.00 1.567361
486.10 1.567361
486.20 1.56166
486.30 1.548688
486.40 1.526393
486.50 1.493062
486.60 1.44841
486.70 1.394269
486.80 1.335378
486.90 1.279382
487.00 1.235082
487.10 1.208944
487.20 1.203325
487.30 1.203325
487.40 1.203325
487.50 1.203325
487.60 1.203325
487.70 1.203325
487.80 1.203325
487.90 1.203325
488.00 1.203325
488.10 1.203325
488.20 1.194699
488.30 1.17334
488.40 1.139857
488.50 1.097601
488.60 1.051825
488.70 1.00904
488.80 0.9752627
488.90 0.9565079
489.00 0.9506943
489.10 0.9524095
489.20 0.9524095
489.30 0.9524095
489.40 0.9524095
489.50 0.9524095
489.60 0.9524095
489.70 0.9524095
489.80 0.9580497
489.90 0.9686787
490.00 0.9818327
490.10 0.9966144
490.20 1.012616
490.30 1.029779
490.40 1.047316
490.50 1.063393
490.60 1.075181
490.70 1.078263
490.80 1.078263
490.90 1.078263
491.00 1.073424
491.10 1.059402
491.20 1.033588
491.30 0.9925695
491.40 0.9329611
491.50 0.8537408
491.60 0.7575598
491.70 0.6504422
491.80 0.5410566
491.90 0.4389477
492.00 0.3522916
492.10 0.2866907
492.20 0.2448127
492.30 0.2258567
492.40 0.2250529
492.50 0.2272325
492.60 0.2372802
492.70 0.2540874
492.80 0.2757589
492.90 0.3011876
493.00 0.3294146
493.10 0.3579411
493.20 0.3846327
493.30 0.408562
493.40 0.4298496
493.50 0.4507719
493.60 0.4748561
493.70 0.504175
493.80 0.5376526
493.90 0.5729705
494.00 0.607498
494.10 0.6371199
494.20 0.6559213
494.30 0.6612673
494.40 0.6579369
494.50 0.6561979
494.60 0.6561979
494.70 0.6561979
494.80 0.6561979
494.90 0.6561979
495.00 0.6561979
495.10 0.6561979
495.20 0.6561979
495.30 0.658572
495.40 0.6625998
495.50 0.6634521
495.60 0.6634521
495.70 0.6634521
495.80 0.6634521
495.90 0.6634521
496.00 0.6634521
496.10 0.6634521
496.20 0.6634521
496.30 0.6634521
496.40 0.6634521
496.50 0.6634521
496.60 0.6634521
496.70 0.6634521
496.80 0.6634521
496.90 0.6634521
497.00 0.6675394
497.10 0.6755952
497.20 0.687861
497.30 0.7047414
497.40 0.7264671
497.50 0.7528562
497.60 0.782912
497.70 0.8151766
497.80 0.8474165
497.90 0.8771656
498.00 0.9021371
498.10 0.9204411
498.20 0.9315466
498.30 0.9357815
498.40 0.9357815
498.50 0.9357815
498.60 0.9357815
498.70 0.9357815
498.80 0.9357815
498.90 0.9331101
499.00 0.9300476
499.10 0.9283324
499.20 0.9283324
499.30 0.933333
499.40 0.9488758
499.50 0.9724917
499.60 0.9990973
499.70 1.022612
499.80 1.031901
499.90 1.021396
500.00 1
500.10 0.9726378
500.20 0.9412068
500.30 0.9085028
500.40 0.8779782
500.50 0.852945
500.60 0.8369141
500.70 0.8338326
500.80 0.8338326
500.90 0.8338326
501.00 0.8338326
501.10 0.8338326
501.20 0.8338326
501.30 0.8338326
501.40 0.8338326
501.50 0.8363592
501.60 0.848667
501.70 0.8687999
501.80 0.8934057
501.90 0.9186129
502.00 0.9410032
502.10 0.958091
502.20 0.967993
502.30 0.9696526
502.40 0.9696526
502.50 0.967473
502.60 0.9574252
502.70 0.940618
502.80 0.9189465
502.90 0.8935179
503.00 0.8652909
503.10 0.8367644
503.20 0.8100728
503.30 0.7861434
503.40 0.7648558
503.50 0.7439335
503.60 0.7198493
503.70 0.6905305
503.80 0.6570529
503.90 0.621735
504.00 0.5872074
504.10 0.5573731
504.20 0.536525
504.30 0.5279977
504.40 0.5279977
504.50 0.5279977
504.60 0.5279977
504.70 0.5279977
504.80 0.5279977
504.90 0.5279977
505.00 0.5279977
505.10 0.5326291
505.20 0.5393993
505.30 0.5423806
505.40 0.5399946
505.50 0.5391423
505.60 0.5391423
505.70 0.5391423
505.80 0.5391423
505.90 0.5391423
506.00 0.542256
506.10 0.5524889
506.20 0.569914
506.30 0.5928107
506.40 0.6176922
506.50 0.6409861
506.60 0.6604711
506.70 0.6756862
506.80 0.6870191
506.90 0.694408
507.00 0.6939829
507.10 0.6874753
507.20 0.6765017
507.30 0.661702
507.40 0.6420323
507.50 0.6156431
507.60 0.5855873
507.70 0.5533228
507.80 0.5210829
507.90 0.4913338
508.00 0.4663623
508.10 0.4480583
508.20 0.4369527
508.30 0.4327179
508.40 0.4327179
508.50 0.4327179
508.60 0.4327179
508.70 0.4327179
508.80 0.4327179
508.90 0.4327179
509.00 0.4327179
509.10 0.4458974
509.20 0.4731294
509.30 0.5079885
509.40 0.541172
509.50 0.5693217
509.60 0.5909647
509.70 0.6061339
509.80 0.6159053
509.90 0.621389
510.00 0.621389
510.10 0.621389
510.20 0.621389
510.30 0.621389
510.40 0.621389
510.50 0.621389
510.60 0.621389
510.70 0.621389
510.80 0.621389
510.90 0.621389
511.00 0.6269255
511.10 0.6380196
511.20 0.6528632
511.30 0.6691291
511.40 0.6837236
511.50 0.6910434
511.60 0.6823187
511.70 0.6621858
511.80 0.6375801
511.90 0.6123729
512.00 0.5899826
512.10 0.5728948
512.20 0.5673054
512.30 0.5793039
512.40 0.6029618
512.50 0.6354939
512.60 0.673908
512.70 0.7144519
512.80 0.7544511
512.90 0.7915021
513.00 0.822343
513.10 0.844098
513.20 0.8551371
513.30 0.8552289
513.40 0.8552289
513.50 0.8552289
513.60 0.8552289
513.70 0.8552289
513.80 0.8552289
513.90 0.8552289
514.00 0.8552289
514.10 0.8552289
514.20 0.8552289
514.30 0.8552289
514.40 0.859354
514.50 0.8653891
514.60 0.8711376
514.70 0.8744263
514.80 0.8744263
514.90 0.8744263
515.00 0.8744263
515.10 0.8697949
515.20 0.8630247
515.30 0.8576692
515.40 0.8560275
515.50 0.8583305
515.60 0.8608382
515.70 0.8615932
515.80 0.8615932
515.90 0.8615932
516.00 0.8601945
516.10 0.8553591
516.20 0.8478365
516.30 0.8392281
516.40 0.8319982
516.50 0.8272703
516.60 0.8237192
516.70 0.818063
516.80 0.8078439
516.90 0.800455
517.00 0.7967927
517.10 0.7952445
517.20 0.7939523
517.30 0.7918717
517.40 0.7898157
517.50 0.7898157
517.60 0.7898157
517.70 0.7898157
517.80 0.7898157
517.90 0.7898157
518.00 0.7898157
518.10 0.7898157
518.20 0.7898157
518.30 0.7898157
518.40 0.7898157
518.50 0.7898157
518.60 0.7898157
518.70 0.7898157
518.80 0.7898157
518.90 0.7898157
519.00 0.7898157
519.10 0.7766362
519.20 0.7494042
519.30 0.7095444
519.40 0.660818
519.50 0.6090524
519.60 0.5608039
519.70 0.5221198
519.80 0.4974194
519.90 0.4885504
520.00 0.4885504
520.10 0.4885504
520.20 0.4885504
520.30 0.4885756
520.40 0.4885756
520.50 0.4885756
520.60 0.4885756
520.70 0.4885756
520.80 0.4885756
520.90 0.4885756
521.00 0.4830391
521.10 0.4778561
521.20 0.4776669
521.30 0.4827883
521.40 0.493028
521.50 0.5069284
521.60 0.5208408
521.70 0.5281499
521.80 0.5281499
521.90 0.5281499
522.00 0.5281499
522.10 0.5281499
522.20 0.5238372
522.30 0.5101792
522.40 0.4865212
522.50 0.4539892
522.60 0.4169265
522.70 0.3804432
522.80 0.3454219
522.90 0.3128437
523.00 0.2861721
523.10 0.2696049
523.20 0.2656793
523.30 0.2754452
523.40 0.2887689
523.50 0.3057755
523.60 0.3269955
523.70 0.3524787
523.80 0.3804208
523.90 0.4077123
524.00 0.430427
524.10 0.4448078
524.20 0.4482863
524.30 0.4482863
524.40 0.4441613
524.50 0.4381261
524.60 0.4323776
524.70 0.4290889
524.80 0.4290889
524.90 0.4290889
525.00 0.4290889
525.10 0.4290889
525.20 0.4290889
525.30 0.4290889
525.40 0.4290889
525.50 0.4277094
525.60 0.4307746
525.70 0.4410292
525.80 0.4576623
525.90 0.4787724
526.00 0.4996783
526.10 0.5138969
526.20 0.5156635
526.30 0.5013752
526.40 0.4837237
526.50 0.4651576
526.60 0.4492238
526.70 0.4396649
526.80 0.4385511
526.90 0.4385511
527.00 0.4385511
527.10 0.4385511
527.20 0.4385511
527.30 0.4385511
527.40 0.4385511
527.50 0.4385511
527.60 0.4385511
527.70 0.4385511
527.80 0.4385511
527.90 0.4385511
528.00 0.4385511
528.10 0.4385511
528.20 0.4385511
528.30 0.4385511
528.40 0.4385511
528.50 0.4385511
528.60 0.4385511
528.70 0.4385511
528.80 0.4385511
528.90 0.4385511
529.00 0.4385511
529.10 0.4385511
529.20 0.4385511
529.30 0.4385511
529.40 0.4385511
529.50 0.4385511
529.60 0.4385511
529.70 0.4385511
529.80 0.4385511
529.90 0.4385511
530.00 0.4385511
530.10 0.4385511
530.20 0.4385511
530.30 0.4385259
530.40 0.4385259
530.50 0.4385259
530.60 0.4385259
530.70 0.4385259
530.80 0.4385259
530.90 0.4385259
531.00 0.4385259
531.10 0.4326149
531.20 0.4179605
531.30 0.3965731
531.40 0.3717391
531.50 0.3479921
531.60 0.3304966
531.70 0.3231875
531.80 0.3231875
531.90 0.3231875
532.00 0.3231875
532.10 0.3231875
532.20 0.3309666
532.30 0.3447993
532.40 0.3598681
532.50 0.3716491
532.60 0.3748946
532.70 0.370834
532.80 0.3658561
532.90 0.3613833
533.00 0.3572139
533.10 0.3520262
533.20 0.3537781
533.30 0.3599424
533.40 0.3671022
533.50 0.3715942
533.60 0.368791
533.70 0.3556922
533.80 0.3325399
533.90 0.3052484
534.00 0.2825338
534.10 0.268153
534.20 0.2646745
534.30 0.2646745
534.40 0.2646745
534.50 0.2646745
534.60 0.2646745
534.70 0.2646745
534.80 0.2646745
534.90 0.2646745
535.00 0.2646745
535.10 0.2646745
535.20 0.2646745
535.30 0.2646745
535.40 0.2646745
535.50 0.263751
535.60 0.258178
535.70 0.2471685
535.80 0.2319773
535.90 0.2110761
536.00 0.1884551
536.10 0.1688391
536.20 0.1571698
536.30 0.1571698
536.40 0.1571698
536.50 0.1571698
536.60 0.1571698
536.70 0.1571698
536.80 0.1571698
536.90 0.1571698
537.00 0.1571698
537.10 0.1571698
537.20 0.1571698
537.30 0.1571698
537.40 0.1571698
537.50 0.1571698
537.60 0.1571698
537.70 0.1571698
537.80 0.1635886
537.90 0.1784214
538.00 0.1995035
538.10 0.224044
538.20 0.2482806
538.30 0.2685267
538.40 0.2828001
538.50 0.290805
538.60 0.2931396
538.70 0.2931396
538.80 0.2931396
538.90 0.2931396
539.00 0.2931396
539.10 0.2931396
539.20 0.2982351
539.30 0.309162
539.40 0.3235399
539.50 0.3384547
539.60 0.3510997
539.70 0.3591409
539.80 0.3603669
539.90 0.3603669
540.00 0.3603669
540.10 0.3603669
540.20 0.3603669
540.30 0.3603669
540.40 0.3603669
540.50 0.3603669
540.60 0.3613041
540.70 0.3622929
540.80 0.3622929
540.90 0.3622929
541.00 0.3622929
541.10 0.3622929
541.20 0.3622929
541.30 0.3626554
541.40 0.3723348
541.50 0.3913818
541.60 0.4170599
541.70 0.4450384
541.80 0.4707053
541.90 0.4900006
542.00 0.5001096
542.10 0.5001096
542.20 0.4923305
542.30 0.4784979
542.40 0.463429
542.50 0.451648
542.60 0.4470512
542.70 0.4470512
542.80 0.4470512
542.90 0.4470512
543.00 0.4544631
543.10 0.4697609
543.20 0.4814062
543.30 0.4879952
543.40 0.4894799
543.50 0.4868772
543.60 0.4815963
543.70 0.4741127
543.80 0.4693229
543.90 0.4693229
544.00 0.4693229
544.10 0.4693229
544.20 0.4693229
544.30 0.4693229
544.40 0.4693229
544.50 0.4693229
544.60 0.4693229
544.70 0.4693229
544.80 0.4693229
544.90 0.4693229
545.00 0.4693229
545.10 0.4693229
545.20 0.4693229
545.30 0.4693229
545.40 0.4693229
545.50 0.4693229
545.60 0.4693229
545.70 0.4693229
545.80 0.467881
545.90 0.4676722
546.00 0.4676722
546.10 0.4676722
546.20 0.4676722
546.30 0.4676722
546.40 0.4676722
546.50 0.4676722
546.60 0.4676722
546.70 0.4676722
546.80 0.4676722
546.90 0.4676722
547.00 0.4676722
547.10 0.4676722
547.20 0.4709799
547.30 0.4770174
547.40 0.4853392
547.50 0.4957762
547.60 0.5082342
547.70 0.5223245
547.80 0.5309011
547.90 0.5313299
548.00 0.5250468
548.10 0.5145225
548.20 0.5040269
548.30 0.4977427
548.40 0.4981833
548.50 0.5064891
548.60 0.5235404
548.70 0.5476251
548.80 0.5765823
548.90 0.6085303
549.00 0.6404584
549.10 0.6692327
549.20 0.6873946
549.30 0.6931771
549.40 0.6889054
549.50 0.6773751
549.60 0.6647301
549.70 0.6566889
549.80 0.6554629
549.90 0.6554629
550.00 0.2933011
550.10 0.2550567
550.20 0.212049
550.30 0.1706151
550.40 0.1364988
550.50 0.1153517
550.60 0.113657
550.70 0.1366308
550.80 0.174119
550.90 0.212273
551.00 0.2492708
551.10 0.2843113
551.20 0.3186637
551.30 0.3535684
551.40 0.3903534
551.50 0.43113
551.60 0.4795947
551.70 0.5398064
551.80 0.6121996
551.90 0.6920696
552.00 0.7718898
552.10 0.8438255
552.20 0.9019693
552.30 0.9437426
552.40 0.9690081
552.50 0.9774693
552.60 0.9774693
552.70 0.9774693
552.80 0.9774693
552.90 0.9774693
553.00 0.9774693
553.10 0.9774693
553.20 0.9774693
553.30 0.9774693
553.40 0.9774693
553.50 0.9774693
553.60 0.9774693
553.70 0.9774693
553.80 0.9774693
553.90 0.9774693
554.00 0.9774693
554.10 0.9774693
554.20 0.9711546
554.30 0.9766552
554.40 0.9964671
554.50 1.027636
554.60 1.062634
554.70 1.094098
554.80 1.118363
554.90 1.134618
555.00 1.145843
555.10 1.156291
555.20 1.182714
555.30 1.2496
555.40 1.357471
555.50 1.517882
555.60 1.763633
555.70 2.109765
555.80 2.552166
555.90 3.071497
556.00 3.636434
556.10 4.206052
556.20 4.735972
556.30 5.188274
556.40 5.53902
556.50 5.786881
556.60 5.933347
556.70 5.989498
556.80 6.004065
556.90 6.010683
557.00 6.010683
557.10 6.010683
557.20 6.010683
557.30 6.010683
557.40 6.010683
557.50 6.010683
557.60 6.01878
557.70 6.043654
557.80 6.090402
557.90 6.164342
558.00 6.265699
558.10 6.391395
558.20 6.537626
558.30 6.686262
558.40 6.832704
558.50 6.975804
558.60 7.115908
558.70 7.249704
558.80 7.370166
558.90 7.470663
559.00 7.545805
559.10 7.592537
559.20 7.595013
559.30 7.531574
559.40 7.408679
559.50 7.221925
559.60 6.939897
559.70 6.54461
559.80 6.039596
559.90 5.448489
560.00 4.810034
560.10 4.172988
560.20 3.587272
560.30 3.093304
560.40 2.717292
560.50 2.46097
560.60 2.314504
560.70 2.258354
560.80 2.243786
560.90 2.237168
561.00 2.237168
561.10 2.237168
561.20 2.237168
561.30 2.237168
561.40 2.237168
561.50 2.241799
561.60 2.247484
561.70 2.245352
561.80 2.227581
561.90 2.185719
562.00 2.11854
562.10 2.029904
562.20 1.924528
562.30 1.806315
562.40 1.674586
562.50 1.524524
562.60 1.353496
562.70 1.16689
562.80 0.9846754
562.90 0.8297696
563.00 0.7064049
563.10 0.6141835
563.20 0.5509328
563.30 0.5147505
563.40 0.508664
563.50 0.5165048
563.60 0.5244855
563.70 0.5244036
563.80 0.515908
563.90 0.5078146
564.00 0.5015121
564.10 0.5017815
564.20 0.5134189
564.30 0.535024
564.40 0.5587787
564.50 0.5773685
564.60 0.5860348
564.70 0.5860348
564.80 0.5860348
564.90 0.5860348
565.00 0.5901702
565.10 0.6090688
565.20 0.6419234
565.30 0.6822916
565.40 0.7206905
565.50 0.7437016
565.60 0.7415713
565.70 0.7188288
565.80 0.689852
565.90 0.657774
566.00 0.6235962
566.10 0.5865363
566.20 0.5679907
566.30 0.5704342
566.40 0.5955454
566.50 0.6491277
566.60 0.7355365
566.70 0.8541756
566.80 0.9889641
566.90 1.117073
567.00 1.231498
567.10 1.32886
567.20 1.410414
567.30 1.477077
567.40 1.521365
567.50 1.558758
567.60 1.612989
567.70 1.707479
567.80 1.850651
567.90 2.030312
568.00 2.232494
568.10 2.43371
568.20 2.611017
568.30 2.751082
568.40 2.848945
568.50 2.906764
568.60 2.931282
568.70 2.931282
568.80 2.931282
568.90 2.931282
569.00 2.927147
569.10 2.908248
569.20 2.889751
569.30 2.879465
569.40 2.883213
569.50 2.902502
569.60 2.933276
569.70 2.961387
569.80 2.967144
569.90 2.967144
570.00 2.967144
570.10 2.967144
570.20 2.94288
570.30 2.889419
570.40 2.808979
570.50 2.705097
570.60 2.58347
570.70 2.450949
570.80 2.320377
570.90 2.211736
571.00 2.133679
571.10 2.088658
571.20 2.073889
571.30 2.083675
571.40 2.107488
571.50 2.126614
571.60 2.116719
571.70 2.054168
571.80 1.927183
571.90 1.747522
572.00 1.545341
572.10 1.339347
572.20 1.148055
572.30 0.9862775
572.40 0.8646594
572.50 0.7882516
572.60 0.755067
572.70 0.755067
572.80 0.755067
572.90 0.755067
573.00 0.755067
573.10 0.755067
573.20 0.7407095
573.30 0.7106274
573.40 0.6684799
573.50 0.6215491
573.60 0.5791235
573.70 0.5510123
573.80 0.5452559
573.90 0.5452559
574.00 0.5452559
574.10 0.5480441
574.20 0.5583962
574.30 0.5735318
574.40 0.5905793
574.50 0.6070793
574.60 0.6210288
574.70 0.6310491
574.80 0.6334514
574.90 0.6196678
575.00 0.5910975
575.10 0.5530172
575.20 0.5111342
575.30 0.4699987
575.40 0.4365149
575.50 0.419587
575.60 0.4262197
575.70 0.4612272
575.80 0.5265113
575.90 0.6118993
576.00 0.696835
576.10 0.7786171
576.20 0.8544919
576.30 0.9210989
576.40 0.9767203
576.50 1.020471
576.60 1.049908
576.70 1.06339
576.80 1.06339
576.90 1.06339
577.00 1.06339
577.10 1.06339
577.20 1.06339
577.30 1.06339
577.40 1.06339
577.50 1.06339
577.60 1.06339
577.70 1.06339
577.80 1.06339
577.90 1.06339
578.00 1.069838
578.10 1.093459
578.20 1.13118
578.30 1.183735
578.40 1.248898
578.50 1.321974
578.60 1.397106
578.70 1.468662
578.80 1.530022
578.90 1.574991
579.00 1.599834
579.10 1.600635
579.20 1.575733
579.30 1.538251
579.40 1.487959
579.50 1.426092
579.60 1.354956
579.70 1.277033
579.80 1.194278
579.90 1.10889
580.00 1.023954
580.10 0.9421722
580.20 0.8662973
580.30 0.7996903
580.40 0.744069
580.50 0.7003181
580.60 0.670881
580.70 0.6573997
580.80 0.6573997
580.90 0.6573997
581.00 0.6573997
581.10 0.6573997
581.20 0.6573997
581.30 0.6774777
581.40 0.7196675
581.50 0.7747703
581.60 0.8310464
581.70 0.8770031
581.80 0.9048167
581.90 0.9141254
582.00 0.9076766
582.10 0.8812678
582.20 0.8375749
582.30 0.7824091
582.40 0.7179728
582.50 0.6473965
582.60 0.5771493
582.70 0.5156864
582.80 0.4690137
582.90 0.4396367
583.00 0.4276293
583.10 0.4322328
583.20 0.451598
583.30 0.4698295
583.40 0.4832525
583.50 0.4890654
583.60 0.4890654
583.70 0.4890654
583.80 0.4936462
583.90 0.5201391
584.00 0.5814159
584.10 0.6837135
584.20 0.8247981
584.30 0.9932665
584.40 1.171092
584.50 1.337013
584.60 1.471936
584.70 1.565306
584.80 1.618235
584.90 1.641033
585.00 1.648504
585.10 1.656419
585.20 1.676231
585.30 1.689214
585.40 1.684869
585.50 1.658655
585.60 1.60891
585.70 1.562953
585.80 1.53514
585.90 1.525831
586.00 1.525831
586.10 1.525831
586.20 1.521451
586.30 1.508926
586.40 1.491152
586.50 1.472152
586.60 1.453318
586.70 1.433205
586.80 1.411899
586.90 1.390622
587.00 1.36999
587.10 1.350324
587.20 1.330959
587.30 1.312727
587.40 1.299304
587.50 1.293491
587.60 1.293491
587.70 1.293491
587.80 1.288911
587.90 1.262418
588.00 1.201141
588.10 1.113069
588.20 0.9922079
588.30 0.835455
588.40 0.6576297
588.50 0.4917084
588.60 0.3567855
588.70 0.2634153
588.80 0.2104863
588.90 0.1876881
589.00 0.1802177
589.10 0.1723025
589.20 0.1530329
589.30 0.1362865
589.40 0.1234756
589.50 0.1198844
589.60 0.1312246
589.70 0.1369142
589.80 0.1369142
589.90 0.1369142
590.00 0.1369142
590.10 0.1369142
590.20 0.1369142
590.30 0.1369142
590.40 0.1607314
590.50 0.214461
590.60 0.2946589
590.70 0.3913867
590.80 0.4888368
590.90 0.5692816
591.00 0.6177342
591.10 0.6254451
591.20 0.6254451
591.30 0.6254451
591.40 0.6254451
591.50 0.6254451
591.60 0.6254451
591.70 0.6254451
591.80 0.6254451
591.90 0.6254451
592.00 0.6254451
592.10 0.6112193
592.20 0.5909959
592.30 0.5792803
592.40 0.5792803
592.50 0.5792803
592.60 0.5792803
592.70 0.5792803
592.80 0.5792803
592.90 0.5792803
593.00 0.5792803
593.10 0.5792803
593.20 0.5787375
593.30 0.5624231
593.40 0.537389
593.50 0.5120919
593.60 0.4942205
593.70 0.4885309
593.80 0.4885309
593.90 0.4885309
594.00 0.4885309
594.10 0.4885309
594.20 0.4885309
594.30 0.4885309
594.40 0.4647137
594.50 0.4109841
594.60 0.3307862
594.70 0.2340584
594.80 0.1366083
594.90 0.05616348
595.00 0.007710856
595.10 0
595.20 0
595.30 0
595.40 0
595.50 0.01346539
595.60 0.03952949
595.70 0.07367748
595.80 0.1113757
595.90 0.1484844
596.00 0.1829345
596.10 0.2146687
596.20 0.2451715
596.30 0.2766858
596.40 0.3094101
596.50 0.3412944
596.60 0.3700719
596.70 0.3931732
596.80 0.4074885
596.90 0.4115902
597.00 0.4115902
597.10 0.4115902
597.20 0.4115902
597.30 0.4115902
597.40 0.4115902
597.50 0.4115902
597.60 0.4115902
597.70 0.4139379
597.80 0.4363698
597.90 0.4775675
598.00 0.5300617
598.10 0.5857392
598.20 0.6396578
598.30 0.68822
598.40 0.7275822
598.50 0.7563041
598.60 0.7774615
598.70 0.7972406
598.80 0.8227703
598.90 0.8605868
599.00 0.9129342
599.10 0.9777411
599.20 1.051322
599.30 1.129926
599.40 1.209939
599.50 1.272069
599.60 1.30885
599.70 1.316609
599.80 1.29442
599.90 1.257311
600.00 2.09977
600.10 2.2271
600.20 2.156742
600.30 1.942488
600.40 1.574488
600.50 1.148874
600.60 0.846297
600.70 0.791167
600.80 1.021185
600.90 1.512661
601.00 2.093896
601.10 2.592279
601.20 2.943222
601.30 3.144174
601.40 3.200504
601.50 3.023841
601.60 2.513797
601.70 1.676291
601.80 0.6203533
601.90 0
602.00 0
602.10 0
602.20 0
602.30 0
602.40 0
602.50 0
602.60 0
602.70 0
602.80 0
602.90 0
603.00 0.5164518
603.10 1.626254
603.20 2.669589
603.30 3.538172
603.40 4.12078
603.50 4.291217
603.60 3.990835
603.70 3.316107
603.80 2.531991
603.90 1.918608
604.00 1.647443
604.10 1.748847
604.20 2.169329
604.30 2.801906
604.40 3.410789
604.50 3.73333
604.60 3.635899
604.70 3.126174
604.80 2.315817
604.90 1.415911
605.00 0.6642462
605.10 0.2021387
605.20 0
605.30 0
605.40 0.05408498
605.50 0.2539926
605.60 0.4866815
605.70 0.7762449
605.80 1.190357
605.90 1.714769
606.00 2.274077
606.10 2.769859
606.20 3.104269
606.30 3.184016
606.40 2.98008
606.50 2.60439
606.60 2.230709
606.70 1.964626
606.80 1.816124
606.90 1.771566
607.00 1.828179
607.10 1.977925
607.20 2.201637
607.30 2.492062
607.40 2.846957
607.50 3.245924
607.60 3.665328
607.70 4.082401
607.80 4.488567
607.90 4.850276
608.00 5.106653
608.10 5.185352
608.20 5.011286
608.30 4.581416
608.40 3.975327
608.50 3.230469
608.60 2.381076
608.70 1.574375
608.80 1.002841
608.90 0.7983065
609.00 0.9889887
609.10 1.490635
609.20 2.086588
609.30 2.51481
609.40 2.604293
609.50 2.407283
609.60 2.114756
609.70 1.852709
609.80 1.658008
609.90 1.625512
610.00 1.843843
610.10 2.250202
610.20 2.681777
610.30 2.992696
610.40 3.140544
610.50 3.153689
610.60 3.160972
610.70 3.329928
610.80 3.73185
610.90 4.24337
611.00 4.661656
611.10 4.879089
611.20 4.870904
611.30 4.629378
611.40 4.180983
611.50 3.583706
611.60 2.934757
611.70 2.363247
611.80 1.945632
611.90 1.752256
612.00 1.783924
612.10 1.951331
612.20 2.144479
612.30 2.299344
612.40 2.379543
612.50 2.310024
612.60 2.062409
612.70 1.698406
612.80 1.297324
612.90 0.9466876
613.00 0.7528727
613.10 0.8045505
613.20 1.12188
613.30 1.585098
613.40 2.009985
613.50 2.256748
613.60 2.259224
613.70 2.049902
613.80 1.758749
613.90 1.528959
614.00 1.423647
614.10 1.433583
614.20 1.5416
614.30 1.70547
614.40 1.863354
614.50 1.97104
614.60 2.024947
614.70 2.100954
614.80 2.282834
614.90 2.596685
615.00 3.025704
615.10 3.48049
615.20 3.812549
615.30 3.930631
615.40 3.829952
615.50 3.560536
615.60 3.205277
615.70 2.871274
615.80 2.628998
615.90 2.491818
616.00 2.456308
616.10 2.47193
616.20 2.463917
616.30 2.40511
616.40 2.313238
616.50 2.252852
616.60 2.389029
616.70 2.811773
616.80 3.456191
616.90 4.23416
617.00 5.025743
617.10 5.688212
617.20 6.116783
617.30 6.259862
617.40 6.094256
617.50 5.639485
617.60 4.978863
617.70 4.192281
617.80 3.393337
617.90 2.725614
618.00 2.196736
618.10 1.787758
618.20 1.538526
618.30 1.433668
618.40 1.432787
618.50 1.48888
618.60 1.527264
618.70 1.458074
618.80 1.233331
618.90 0.9041517
619.00 0.5847358
619.10 0.4043541
619.20 0.3954444
619.30 0.4741749
619.40 0.5173685
619.50 0.4655083
619.60 0.379326
619.70 0.3817899
619.80 0.5444178
619.90 0.8457563
620.00 1.220479
620.10 1.597738
620.20 1.924699
620.30 2.133078
620.40 2.157208
620.50 1.965627
620.60 1.640445
620.70 1.345574
620.80 1.213717
620.90 1.29997
621.00 1.553548
621.10 1.80509
621.20 1.909204
621.30 1.846617
621.40 1.664524
621.50 1.420588
621.60 1.155125
621.70 0.9168427
621.80 0.7620127
621.90 0.7612997
622.00 0.9117068
622.10 1.118485
622.20 1.347712
622.30 1.613733
622.40 1.893818
622.50 2.163975
622.60 2.388038
622.70 2.504995
622.80 2.533217
622.90 2.566646
623.00 2.681114
623.10 2.888753
623.20 3.12814
623.30 3.319577
623.40 3.418804
623.50 3.419321
623.60 3.297425
623.70 3.021505
623.80 2.617622
623.90 2.153376
624.00 1.737096
624.10 1.498727
624.20 1.457931
624.30 1.542717
624.40 1.666536
624.50 1.746077
624.60 1.733737
624.70 1.618685
624.80 1.428475
624.90 1.207715
625.00 0.9762772
625.10 0.7458302
625.20 0.5446437
625.30 0.4161255
625.40 0.3937042
625.50 0.4806655
625.60 0.6701798
625.70 0.9246487
625.80 1.17748
625.90 1.360692
626.00 1.473143
626.10 1.57729
626.20 1.746322
626.30 2.044768
626.40 2.489171
626.50 3.014122
626.60 3.464575
626.70 3.704339
626.80 3.670606
626.90 3.336583
627.00 2.722339
627.10 1.948122
627.20 1.219657
627.30 0.7444002
627.40 0.6176918
627.50 0.7919403
627.60 1.138666
627.70 1.51032
627.80 1.81715
627.90 2.021793
628.00 2.17451
628.10 2.357693
628.20 2.583116
628.30 2.857498
628.40 3.198858
628.50 3.588068
628.60 3.987142
628.70 4.342807
628.80 4.601239
628.90 4.754873
629.00 4.781002
629.10 4.648004
629.20 4.363277
629.30 3.978146
629.40 3.556854
629.50 3.187466
629.60 3.043139
629.70 3.247933
629.80 3.739546
629.90 4.377216
630.00 5.017038
630.10 5.527537
630.20 5.818247
630.30 5.819637
630.40 5.557213
630.50 5.094741
630.60 4.503423
630.70 3.91338
630.80 3.462936
630.90 3.255124
631.00 3.286505
631.10 3.477313
631.20 3.801163
631.30 4.212891
631.40 4.574554
631.50 4.743949
631.60 4.684545
631.70 4.472926
631.80 4.189547
631.90 3.91634
632.00 3.740933
632.10 3.760135
632.20 4.032875
632.30 4.466297
632.40 4.840559
632.50 4.960578
632.60 4.733426
632.70 4.179751
632.80 3.4621
632.90 2.81634
633.00 2.384529
633.10 2.1697
633.20 2.135944
633.30 2.295038
633.40 2.647102
633.50 3.096946
633.60 3.52495
633.70 3.877147
633.80 4.171419
633.90 4.429378
634.00 4.662073
634.10 4.866893
634.20 4.984276
634.30 4.977516
634.40 4.874407
634.50 4.733949
634.60 4.644653
634.70 4.637102
634.80 4.683284
634.90 4.723908
635.00 4.705442
635.10 4.595016
635.20 4.354657
635.30 3.985673
635.40 3.517101
635.50 3.014544
635.60 2.602658
635.70 2.392156
635.80 2.456821
635.90 2.837353
636.00 3.469434
636.10 4.234924
636.20 5.103811
636.30 6.069626
636.40 6.990994
636.50 7.685957
636.60 8.054586
636.70 8.067131
636.80 7.750817
636.90 7.159844
637.00 6.368563
637.10 5.516421
637.20 4.737161
637.30 4.124168
637.40 3.83259
637.50 3.96172
637.60 4.376739
637.70 4.83943
637.80 5.171865
637.90 5.246648
638.00 5.020304
638.10 4.551313
638.20 3.96793
638.30 3.452551
638.40 3.181912
638.50 3.232336
638.60 3.609041
638.70 4.243892
638.80 4.942041
638.90 5.507081
639.00 5.851372
639.10 5.988728
639.20 6.002848
639.30 5.987978
639.40 5.968461
639.50 5.901634
639.60 5.73477
639.70 5.432992
639.80 5.006374
639.90 4.51216
640.00 4.023935
640.10 3.633811
640.20 3.430593
640.30 3.463201
640.40 3.718022
640.50 4.111286
640.60 4.52743
640.70 4.851221
640.80 5.02852
640.90 5.107595
641.00 5.151053
641.10 5.18521
641.20 5.218753
641.30 5.248171
641.40 5.251975
641.50 5.197052
641.60 5.071652
641.70 4.912992
641.80 4.744677
641.90 4.547934
642.00 4.303556
642.10 4.003143
642.20 3.665171
642.30 3.311079
642.40 2.973035
642.50 2.701042
642.60 2.537061
642.70 2.513697
642.80 2.69408
642.90 3.133041
643.00 3.779484
643.10 4.463208
643.20 5.028642
643.30 5.388512
643.40 5.478758
643.50 5.304874
643.60 4.886085
643.70 4.256089
643.80 3.53629
643.90 2.8882
644.00 2.455449
644.10 2.304036
644.20 2.409742
644.30 2.73004
644.40 3.216348
644.50 3.813512
644.60 4.430475
644.70 4.971518
644.80 5.437192
644.90 5.846117
645.00 6.236995
645.10 6.630927
645.20 6.956541
645.30 7.11984
645.40 7.036673
645.50 6.70133
645.60 6.191131
645.70 5.588082
645.80 5.015815
645.90 4.600552
646.00 4.396195
646.10 4.429869
646.20 4.672324
646.30 5.092264
646.40 5.627914
646.50 6.168275
646.60 6.61306
646.70 6.855634
646.80 6.897587
646.90 6.808401
647.00 6.608579
647.10 6.317564
647.20 5.952902
647.30 5.537742
647.40 5.16016
647.50 4.90932
647.60 4.81937
647.70 4.823087
647.80 4.827704
647.90 4.814181
648.00 4.792705
648.10 4.813486
648.20 4.8441
648.30 4.824655
648.40 4.807237
648.50 4.884499
648.60 5.143465
648.70 5.616628
648.80 6.241255
648.90 6.912938
649.00 7.495455
649.10 7.855058
649.20 7.93391
649.30 7.748124
649.40 7.459448
649.50 7.282321
649.60 7.363647
649.70 7.727713
649.80 8.263602
649.90 8.79131
650.00 9.096975
650.10 8.994038
650.20 8.425655
650.30 7.458841
650.40 6.278647
650.50 5.170192
650.60 4.375593
650.70 4.063681
650.80 4.241732
650.90 4.751794
651.00 5.415441
651.10 6.086534
651.20 6.643917
651.30 6.983337
651.40 7.065552
651.50 6.965963
651.60 6.80511
651.70 6.684663
651.80 6.663822
651.90 6.746236
652.00 6.924309
652.10 7.131313
652.20 7.259911
652.30 7.251877
652.40 7.102471
652.50 6.871257
652.60 6.662747
652.70 6.595045
652.80 6.736764
652.90 7.059229
653.00 7.490863
653.10 7.945065
653.20 8.350451
653.30 8.649677
653.40 8.83503
653.50 8.949441
653.60 8.989304
653.70 8.909989
653.80 8.690765
653.90 8.350189
654.00 7.885679
654.10 7.305996
654.20 6.74304
654.30 6.382287
654.40 6.30591
654.50 6.468589
654.60 6.763916
654.70 7.102307
654.80 7.377968
654.90 7.489618
655.00 7.431001
655.10 7.270143
655.20 7.065408
655.30 6.832429
655.40 6.625653
655.50 6.532434
655.60 6.567213
655.70 6.711561
655.80 6.993317
655.90 7.460201
656.00 8.107534
656.10 8.853198
656.20 9.569216
656.30 10.11433
656.40 10.4051
656.50 10.42628
656.60 10.21525
656.70 9.828229
656.80 9.311595
656.90 8.731699
657.00 8.158387
657.10 7.635951
657.20 7.204635
657.30 6.915042
657.40 6.804605
657.50 6.939962
657.60 7.37139
657.70 8.031774
657.80 8.753439
657.90 9.36219
658.00 9.73836
658.10 9.807389
658.20 9.578465
658.30 9.103682
658.40 8.460616
658.50 7.785053
658.60 7.198434
658.70 6.78046
658.80 6.595688
658.90 6.63251
659.00 6.798727
659.10 7.005267
659.20 7.180771
659.30 7.286893
659.40 7.353621
659.50 7.438564
659.60 7.560965
659.70 7.7155
659.80 7.933057
659.90 8.244747
660.00 8.647242
660.10 9.059639
660.20 9.32782
660.30 9.3157
660.40 8.990683
660.50 8.4472
660.60 7.829221
660.70 7.277473
660.80 6.870539
660.90 6.650854
661.00 6.624876
661.10 6.759076
661.20 6.9752
661.30 7.176105
661.40 7.283284
661.50 7.286427
661.60 7.264597
661.70 7.310683
661.80 7.468945
661.90 7.703878
662.00 7.944523
662.10 8.116504
662.20 8.146825
662.30 8.007441
662.40 7.769219
662.50 7.546536
662.60 7.42134
662.70 7.41183
662.80 7.508109
662.90 7.697458
663.00 7.936065
663.10 8.174809
663.20 8.387802
663.30 8.57628
663.40 8.753859
663.50 8.924532
663.60 9.11993
663.70 9.372514
663.80 9.656615
663.90 9.897095
664.00 10.01554
664.10 10.02101
664.20 9.978199
664.30 9.93155
664.40 9.912985
664.50 9.908645
664.60 9.847249
664.70 9.662515
664.80 9.352477
664.90 8.963063
665.00 8.545976
665.10 8.187641
665.20 7.989986
665.30 8.024241
665.40 8.329806
665.50 8.857579
665.60 9.473324
665.70 10.04538
665.80 10.50904
665.90 10.83701
666.00 11.01944
666.10 11.07827
666.20 11.04883
666.30 10.95996
666.40 10.82454
666.50 10.64056
666.60 10.40148
666.70 10.12876
666.80 9.904277
666.90 9.856326
667.00 10.10947
667.10 10.72079
667.20 11.56167
667.30 12.3836
667.40 12.98728
667.50 13.25565
667.60 13.15963
667.70 12.7583
667.80 12.1647
667.90 11.51073
668.00 10.94306
668.10 10.59569
668.20 10.50621
668.30 10.60868
668.40 10.80054
668.50 10.99424
668.60 11.15069
668.70 11.28612
668.80 11.43601
668.90 11.65985
669.00 12.01491
669.10 12.48194
669.20 12.99981
669.30 13.50157
669.40 13.89616
669.50 14.08453
669.60 14.00666
669.70 13.66122
669.80 13.0737
669.90 12.27504
670.00 11.34748
670.10 10.39864
670.20 9.531029
670.30 8.803712
670.40 8.200144
670.50 7.731108
670.60 7.441019
670.70 7.339096
670.80 7.417798
670.90 7.697889
671.00 8.169003
671.10 8.73727
671.20 9.289609
671.30 9.752705
671.40 10.08112
671.50 10.26849
671.60 10.34452
671.70 10.36273
671.80 10.40411
671.90 10.5127
672.00 10.71057
672.10 11.03723
672.20 11.49039
672.30 11.97162
672.40 12.35333
672.50 12.57914
672.60 12.65366
672.70 12.57289
672.80 12.3561
672.90 12.08231
673.00 11.8327
673.10 11.63732
673.20 11.48555
673.30 11.37381
673.40 11.31265
673.50 11.29852
673.60 11.29746
673.70 11.26623
673.80 11.18047
673.90 11.07202
674.00 11.00521
674.10 11.01547
674.20 11.15186
674.30 11.47128
674.40 11.99892
674.50 12.75532
674.60 13.70083
674.70 14.69153
674.80 15.50738
674.90 15.92105
675.00 15.84028
675.10 15.33348
675.20 14.55646
675.30 13.64175
675.40 12.69415
675.50 11.88231
675.60 11.34042
675.70 11.09939
675.80 11.1176
675.90 11.2537
676.00 11.35216
676.10 11.38237
676.20 11.37762
676.30 11.35935
676.40 11.32079
676.50 11.22733
676.60 11.05123
676.70 10.81012
676.80 10.59832
676.90 10.51763
677.00 10.6121
677.10 10.87362
677.20 11.24411
677.30 11.67785
677.40 12.16171
677.50 12.68251
677.60 13.21436
677.70 13.69401
677.80 14.09515
677.90 14.46604
678.00 14.86663
678.10 15.29702
678.20 15.65989
678.30 15.85243
678.40 15.83321
678.50 15.60336
678.60 15.19173
678.70 14.63735
678.80 13.98856
678.90 13.27972
679.00 12.56443
679.10 11.95027
679.20 11.52525
679.30 11.35059
679.40 11.47837
679.50 11.86725
679.60 12.38489
679.70 12.87237
679.80 13.18405
679.90 13.25089
680.00 13.11616
680.10 12.88542
680.20 12.64601
680.30 12.42701
680.40 12.21524
680.50 12.00303
680.60 11.7533
680.70 11.39123
680.80 10.86204
680.90 10.24067
681.00 9.700914
681.10 9.37912
681.20 9.320407
681.30 9.494938
681.40 9.823763
681.50 10.22926
681.60 10.66716
681.70 11.08076
681.80 11.41078
681.90 11.59705
682.00 11.61666
682.10 11.46174
682.20 11.10824
682.30 10.54635
682.40 9.80514
682.50 8.93581
682.60 8.069866
682.70 7.402034
682.80 7.037932
682.90 6.96285
683.00 7.101806
683.10 7.405864
683.20 7.855372
683.30 8.399643
683.40 8.964597
683.50 9.52635
683.60 10.05841
683.70 10.48513
683.80 10.74675
683.90 10.90256
684.00 11.06693
684.10 11.27109
684.20 11.4954
684.30 11.7096
684.40 11.88612
684.50 11.97998
684.60 11.9381
684.70 11.76422
684.80 11.48371
684.90 11.10175
685.00 10.67172
685.10 10.30529
685.20 10.08876
685.30 10.03772
685.40 10.10831
685.50 10.26227
685.60 10.53017
685.70 10.93006
685.80 11.4042
685.90 11.85621
686.00 12.18416
686.10 12.33382
686.20 12.31837
686.30 12.17347
686.40 11.94631
686.50 11.75085
686.60 11.71707
686.70 11.86678
686.80 12.11087
686.90 12.34281
687.00 12.45317
687.10 12.34984
687.20 12.02216
687.30 11.5645
687.40 11.10166
687.50 10.6794
687.60 10.26688
687.70 9.835014
687.80 9.389366
687.90 8.913831
688.00 8.413216
688.10 7.962036
688.20 7.64555
688.30 7.486018
688.40 7.468117
688.50 7.566084
688.60 7.686934
688.70 7.659421
688.80 7.418181
688.90 7.105691
689.00 6.891371
689.10 6.870661
689.20 7.077173
689.30 7.494365
689.40 8.062483
689.50 8.654952
689.60 9.133124
689.70 9.412139
689.80 9.432539
689.90 9.230263
690.00 8.95981
690.10 8.80427
690.20 8.839633
690.30 8.992882
690.40 9.197149
690.50 9.418982
690.60 9.603049
690.70 9.678353
690.80 9.563204
690.90 9.211237
691.00 8.642775
691.10 7.930326
691.20 7.181578
691.30 6.488117
691.40 5.938949
691.50 5.610001
691.60 5.526028
691.70 5.703177
691.80 6.131772
691.90 6.773818
692.00 7.531322
692.10 8.251441
692.20 8.839596
692.30 9.304579
692.40 9.71312
692.50 10.08378
692.60 10.3897
692.70 10.59423
692.80 10.63433
692.90 10.4943
693.00 10.21908
693.10 9.863111
693.20 9.499913
693.30 9.164389
693.40 8.941992
693.50 8.96412
693.60 9.241527
693.70 9.690965
693.80 10.18412
693.90 10.62936
694.00 11.00134
694.10 11.32038
694.20 11.6441
694.30 12.05274
694.40 12.64292
694.50 13.41781
694.60 14.28295
694.70 15.16528
694.80 15.96992
694.90 16.53976
695.00 16.73648
695.10 16.48709
695.20 15.81109
695.30 14.82781
695.40 13.68734
695.50 12.51914
695.60 11.44515
695.70 10.56311
695.80 9.862675
695.90 9.299556
696.00 8.886503
696.10 8.615404
696.20 8.427092
696.30 8.313189
696.40 8.348393
696.50 8.648866
696.60 9.259658
696.70 10.07799
696.80 10.94334
696.90 11.71029
697.00 12.28454
697.10 12.60402
697.20 12.68127
697.30 12.58761
697.40 12.38579
697.50 12.15301
697.60 11.95436
697.70 11.81409
697.80 11.71431
697.90 11.57806
698.00 11.3671
698.10 11.12738
698.20 10.92576
698.30 10.81075
698.40 10.78324
698.50 10.83236
698.60 10.97753
698.70 11.24616
698.80 11.60943
698.90 11.99765
699.00 12.36167
699.10 12.67919
699.20 12.94389
699.30 13.13812
699.40 13.19092
699.50 13.05114
699.60 12.75348
699.70 12.37659
699.80 11.99355
699.90 11.65888
700.00 11.39712
700.10 11.20146
700.20 11.04065
700.30 10.88057
700.40 10.72328
700.50 10.59404
700.60 10.52126
700.70 10.52409
700.80 10.64309
700.90 10.91524
701.00 11.30588
701.10 11.76608
701.20 12.29101
701.30 12.88601
701.40 13.54332
701.50 14.24429
701.60 14.96037
701.70 15.6494
701.80 16.24055
701.90 16.63679
702.00 16.73481
702.10 16.49317
702.20 15.95439
702.30 15.2196
702.40 14.46155
702.50 13.86496
702.60 13.55544
702.70 13.59076
702.80 13.92452
702.90 14.45248
703.00 15.07492
703.10 15.65742
703.20 16.07728
703.30 16.29912
703.40 16.38419
703.50 16.43763
703.60 16.56183
703.70 16.81729
703.80 17.20167
703.90 17.68564
704.00 18.16763
704.10 18.46639
704.20 18.441
704.30 18.06443
704.40 17.42329
704.50 16.69416
704.60 16.07081
704.70 15.73629
704.80 15.79677
704.90 16.1737
705.00 16.66876
705.10 17.11918
705.20 17.43004
705.30 17.52494
705.40 17.39291
705.50 17.10071
705.60 16.72458
705.70 16.30804
705.80 15.87639
705.90 15.46735
706.00 15.14771
706.10 14.94895
706.20 14.84628
706.30 14.87582
706.40 15.10111
706.50 15.51549
706.60 16.05678
706.70 16.63781
706.80 17.16297
706.90 17.57329
707.00 17.8808
707.10 18.13306
707.20 18.36993
707.30 18.62873
707.40 18.91828
707.50 19.18009
707.60 19.34686
707.70 19.38992
707.80 19.3118
707.90 19.13019
708.00 18.858
708.10 18.51967
708.20 18.17241
708.30 17.89029
708.40 17.71766
708.50 17.64435
708.60 17.66322
708.70 17.77743
708.80 17.92384
708.90 18.03588
709.00 18.12467
709.10 18.21195
709.20 18.27152
709.30 18.23533
709.40 18.09878
709.50 17.93553
709.60 17.7966
709.70 17.68718
709.80 17.55793
709.90 17.40178
710.00 17.24699
710.10 17.08611
710.20 16.955
710.30 16.89096
710.40 16.85521
710.50 16.80678
710.60 16.75483
710.70 16.74122
710.80 16.7636
710.90 16.77192
711.00 16.74527
711.10 16.68033
711.20 16.63886
711.30 16.69281
711.40 16.84732
711.50 17.07347
711.60 17.3147
711.70 17.55159
711.80 17.81842
711.90 18.12635
712.00 18.45258
712.10 18.77445
712.20 19.06167
712.30 19.2582
712.40 19.30235
712.50 19.21653
712.60 19.10979
712.70 19.08291
712.80 19.19784
712.90 19.48955
713.00 19.94389
713.10 20.46391
713.20 20.8662
713.30 20.98431
713.40 20.7566
713.50 20.21099
713.60 19.45177
713.70 18.63997
713.80 17.96169
713.90 17.54705
714.00 17.38816
714.10 17.38791
714.20 17.50111
714.30 17.75341
714.40 18.17931
714.50 18.7831
714.60 19.5544
714.70 20.41842
714.80 21.2216
714.90 21.82497
715.00 22.10381
715.10 21.9594
715.20 21.35437
715.30 20.34975
715.40 19.14347
715.50 18.00612
715.60 17.13399
715.70 16.61905
715.80 16.46464
715.90 16.60107
716.00 16.92336
716.10 17.3264
716.20 17.72399
716.30 18.02477
716.40 18.18916
716.50 18.26427
716.60 18.33437
716.70 18.46496
716.80 18.66342
716.90 18.91603
717.00 19.19751
717.10 19.42043
717.20 19.47536
717.30 19.33547
717.40 19.0575
717.50 18.71873
717.60 18.42783
717.70 18.285
717.80 18.34083
717.90 18.60909
718.00 19.07433
718.10 19.68536
718.20 20.33331
718.30 20.87864
718.40 21.2251
718.50 21.3548
718.60 21.32657
718.70 21.21697
718.80 21.10729
718.90 21.10266
719.00 21.22617
719.10 21.44985
719.20 21.75494
719.30 22.07184
719.40 22.29
719.50 22.29634
719.60 22.03518
719.70 21.54242
719.80 20.88591
719.90 20.13347
720.00 19.38789
720.10 18.77262
720.20 18.34835
720.30 18.11282
720.40 18.07089
720.50 18.22682
720.60 18.53732
720.70 18.9464
720.80 19.40858
720.90 19.88221
721.00 20.33515
721.10 20.70984
721.20 20.94126
721.30 21.02472
721.40 20.94749
721.50 20.66839
721.60 20.20111
721.70 19.64094
721.80 19.13743
721.90 18.83903
722.00 18.83946
722.10 19.16748
722.20 19.8014
722.30 20.68992
722.40 21.72379
722.50 22.73402
722.60 23.55152
722.70 24.02222
722.80 24.09371
722.90 23.83371
723.00 23.38317
723.10 22.88172
723.20 22.40805
723.30 22.0224
723.40 21.80543
723.50 21.80917
723.60 21.99827
723.70 22.25079
723.80 22.443
723.90 22.51897
724.00 22.44615
724.10 22.22554
724.20 21.90848
724.30 21.62938
724.40 21.54863
724.50 21.77613
724.60 22.36296
724.70 23.21854
724.80 24.16654
724.90 25.04477
725.00 25.75063
725.10 26.25218
725.20 26.54987
725.30 26.66153
725.40 26.64479
725.50 26.56967
725.60 26.4498
725.70 26.19397
725.80 25.7016
725.90 24.97911
726.00 24.13923
726.10 23.36943
726.20 22.82039
726.30 22.56277
726.40 22.5898
726.50 22.8312
726.60 23.19972
726.70 23.58807
726.80 23.89186
726.90 24.07279
727.00 24.25071
727.10 24.66033
727.20 25.40474
727.30 26.30676
727.40 27.04575
727.50 27.43879
727.60 27.46386
727.70 27.13113
727.80 26.51533
727.90 25.75845
728.00 25.01014
728.10 24.43851
728.20 24.20332
728.30 24.38214
728.40 24.90339
728.50 25.55012
728.60 26.12813
728.70 26.61875
728.80 27.07723
728.90 27.43722
729.00 27.58531
729.10 27.50607
729.20 27.23253
729.30 26.80763
729.40 26.30265
729.50 25.78256
729.60 25.28303
729.70 24.82327
729.80 24.3892
729.90 23.97934
730.00 23.6596
730.10 23.50988
730.20 23.55728
730.30 23.79806
730.40 24.158
730.50 24.53898
730.60 24.89534
730.70 25.15472
730.80 25.24907
730.90 25.14897
731.00 24.94539
731.10 24.81704
731.20 24.89114
731.30 25.22046
731.40 25.75482
731.50 26.34073
731.60 26.81917
731.70 27.08898
731.80 27.15243
731.90 27.07085
732.00 26.90151
732.10 26.76136
732.20 26.72785
732.30 26.8227
732.40 27.00837
732.50 27.18747
732.60 27.30162
732.70 27.37354
732.80 27.45588
732.90 27.54234
733.00 27.58895
733.10 27.53562
733.20 27.35015
733.30 27.05293
733.40 26.6514
733.50 26.13842
733.60 25.53236
733.70 24.86533
733.80 24.15315
733.90 23.47921
734.00 23.00274
734.10 22.78948
734.20 22.82463
734.30 23.13417
734.40 23.74009
734.50 24.61596
734.60 25.63572
734.70 26.57337
734.80 27.25432
734.90 27.5991
735.00 27.62845
735.10 27.45913
735.20 27.22029
735.30 26.93722
735.40 26.58933
735.50 26.20711
735.60 25.83377
735.70 25.50628
735.80 25.28858
735.90 25.25556
736.00 25.48041
736.10 26.01638
736.20 26.80387
736.30 27.65362
736.40 28.34178
736.50 28.67564
736.60 28.51887
736.70 27.82828
736.80 26.70119
736.90 25.37869
737.00 24.15677
737.10 23.30563
737.20 22.9847
737.30 23.17322
737.40 23.70604
737.50 24.36671
737.60 25.01748
737.70 25.63904
737.80 26.23492
737.90 26.76344
738.00 27.16749
738.10 27.4447
738.20 27.58528
738.30 27.56342
738.40 27.3928
738.50 27.10079
738.60 26.72815
738.70 26.36347
738.80 26.10545
738.90 25.97464
739.00 25.86968
739.10 25.67945
739.20 25.41649
739.30 25.1606
739.40 24.97987
739.50 24.91489
739.60 24.95245
739.70 25.00282
739.80 24.88385
739.90 24.44264
740.00 23.73637
740.10 22.93988
740.20 22.17879
740.30 21.57278
740.40 21.27092
740.50 21.34849
740.60 21.71113
740.70 22.21016
740.80 22.75645
740.90 23.26201
741.00 23.65303
741.10 23.91126
741.20 24.13433
741.30 24.47377
741.40 24.95112
741.50 25.44533
741.60 25.80401
741.70 25.90302
741.80 25.65844
741.90 25.0318
742.00 24.08016
742.10 22.93994
742.20 21.78202
742.30 20.79072
742.40 20.10741
742.50 19.81949
742.60 19.95354
742.70 20.44939
742.80 21.15233
742.90 21.88694
743.00 22.54409
743.10 23.06656
743.20 23.43187
743.30 23.67457
743.40 23.85546
743.50 24.02762
743.60 24.22679
743.70 24.47854
743.80 24.79939
743.90 25.16228
744.00 25.50012
744.10 25.74618
744.20 25.84198
744.30 25.74814
744.40 25.49142
744.50 25.14405
744.60 24.80936
744.70 24.5847
744.80 24.48365
744.90 24.46097
745.00 24.44445
745.10 24.39849
745.20 24.34597
745.30 24.31567
745.40 24.32174
745.50 24.3567
745.60 24.41546
745.70 24.51443
745.80 24.66054
745.90 24.83016
746.00 24.92375
746.10 24.85564
746.20 24.71186
746.30 24.65214
746.40 24.78552
746.50 25.09677
746.60 25.45116
746.70 25.71015
746.80 25.78336
746.90 25.63999
747.00 25.28218
747.10 24.76698
747.20 24.19592
747.30 23.66758
747.40 23.32216
747.50 23.25344
747.60 23.38619
747.70 23.57247
747.80 23.71115
747.90 23.78993
748.00 23.86402
748.10 23.96637
748.20 24.09499
748.30 24.24965
748.40 24.44413
748.50 24.67741
748.60 24.91899
748.70 25.12356
748.80 25.2115
748.90 25.12313
749.00 24.89014
749.10 24.58273
749.20 24.24698
749.30 23.88095
749.40 23.46006
749.50 22.9977
749.60 22.54155
749.70 22.12518
749.80 21.76991
749.90 21.50892
750.00 21.3893
750.10 21.44688
750.20 21.68132
750.30 22.0618
750.40 22.51304
750.50 22.95178
750.60 23.33823
750.70 23.67166
750.80 23.98612
750.90 24.30116
751.00 24.58525
751.10 24.80723
751.20 24.97495
751.30 25.11858
751.40 25.23703
751.50 25.30587
751.60 25.29496
751.70 25.1237
751.80 24.73629
751.90 24.17544
752.00 23.54265
752.10 22.94562
752.20 22.56974
752.30 22.556
752.40 22.88415
752.50 23.45936
752.60 24.13203
752.70 24.72443
752.80 25.08343
752.90 25.12192
753.00 24.8395
753.10 24.34866
753.20 23.78477
753.30 23.21757
753.40 22.67883
753.50 22.20753
753.60 21.71932
753.70 21.14855
753.80 20.6038
753.90 20.20413
754.00 20.01449
754.10 20.03622
754.20 20.22138
754.30 20.50984
754.40 20.86009
754.50 21.23062
754.60 21.57207
754.70 21.85002
754.80 22.03477
754.90 22.09439
755.00 22.02174
755.10 21.81783
755.20 21.42238
755.30 20.80568
755.40 20.06987
755.50 19.3634
755.60 18.82358
755.70 18.54046
755.80 18.54001
755.90 18.80798
756.00 19.26572
756.10 19.7633
756.20 20.14093
756.30 20.29012
756.40 20.17862
756.50 19.83464
756.60 19.38325
756.70 18.98012
756.80 18.72123
756.90 18.69675
757.00 18.96435
757.10 19.51002
757.20 20.26096
757.30 21.10023
757.40 21.90202
757.50 22.55302
757.60 22.97623
757.70 23.13585
757.80 23.01863
757.90 22.64796
758.00 22.07028
758.10 21.35955
758.20 20.61897
758.30 19.91459
758.40 19.29385
758.50 18.79892
758.60 18.44348
758.70 18.21746
758.80 18.10333
758.90 18.09006
759.00 18.12426
759.10 18.11847
759.20 17.99932
759.30 17.74135
759.40 17.49785
759.50 17.53652
759.60 18.06704
759.70 19.13264
759.80 20.55195
759.90 22.04221
760.00 23.38512
760.10 24.32739
760.20 24.56234
760.30 23.9583
760.40 22.55066
760.50 20.53319
760.60 18.33645
760.70 16.46509
760.80 15.1974
760.90 14.56445
761.00 14.45303
761.10 14.72324
761.20 15.23883
761.30 15.7811
761.40 16.0522
761.50 15.89579
761.60 15.37958
761.70 14.61155
761.80 13.76235
761.90 13.01524
762.00 12.40278
762.10 11.89617
762.20 11.50285
762.30 11.21682
762.40 11.02246
762.50 10.9736
762.60 11.22729
762.70 11.92615
762.80 13.00195
762.90 14.13255
763.00 14.91267
763.10 15.01932
763.20 14.31404
763.30 12.87502
763.40 10.97154
763.50 8.972663
763.60 7.240808
763.70 6.126275
763.80 5.905291
763.90 6.534252
764.00 7.637273
764.10 8.755734
764.20 9.537111
764.30 9.879089
764.40 9.813255
764.50 9.382031
764.60 8.716492
764.70 8.014464
764.80 7.486356
764.90 7.308954
765.00 7.589611
765.10 8.25933
765.20 9.014493
765.30 9.538425
765.40 9.618897
765.50 9.174223
765.60 8.303437
765.70 7.156721
765.80 5.93095
765.90 4.897841
766.00 4.266686
766.10 4.126907
766.20 4.40318
766.30 4.912487
766.40 5.424873
766.50 5.722315
766.60 5.724262
766.70 5.47808
766.80 5.107654
766.90 4.747805
767.00 4.451074
767.10 4.198336
767.20 3.977403
767.30 3.799095
767.40 3.650662
767.50 3.488653
767.60 3.327291
767.70 3.214762
767.80 3.177569
767.90 3.24004
768.00 3.395912
768.10 3.61878
768.20 3.871184
768.30 4.099853
768.40 4.280497
768.50 4.435461
768.60 4.580541
768.70 4.687192
768.80 4.719047
768.90 4.657392
769.00 4.468544
769.10 4.107888
769.20 3.571495
769.30 2.892781
769.40 2.123658
769.50 1.324513
769.60 0.5929784
769.70 0.02240229
769.80 0
769.90 0
770.00 0
770.10 0
770.20 0.4207129
770.30 1.032641
770.40 1.691524
770.50 2.32001
770.60 2.850082
770.70 3.244998
770.80 3.465917
770.90 3.471678
771.00 3.257504
771.10 2.946533
771.20 2.821521
771.30 3.007044
771.40 3.406814
771.50 3.956328
771.60 4.676012
771.70 5.647763
771.80 6.890003
771.90 8.279003
772.00 9.604455
772.10 10.68469
772.20 11.49284
772.30 12.11345
772.40 12.5918
772.50 12.87404
772.60 12.81142
772.70 12.39932
772.80 11.8081
772.90 11.21662
773.00 10.73829
773.10 10.3307
773.20 9.928818
773.30 9.606435
773.40 9.519967
773.50 9.790069
773.60 10.38916
773.70 11.13945
773.80 11.88624
773.90 12.53561
774.00 13.04933
774.10 13.46024
774.20 13.81587
774.30 14.10566
774.40 14.28773
774.50 14.34116
774.60 14.26937
774.70 14.09301
774.80 13.82977
774.90 13.49596
775.00 13.14197
775.10 12.87725
775.20 12.77825
775.30 12.76789
775.40 12.72994
775.50 12.63201
775.60 12.52322
775.70 12.5289
775.80 12.72673
775.90 13.14887
776.00 13.8056
776.10 14.63157
776.20 15.48163
776.30 16.19446
776.40 16.63618
776.50 16.70011
776.60 16.36651
776.70 15.85373
776.80 15.43191
776.90 15.24377
777.00 15.35139
777.10 15.65825
777.20 16.04734
777.30 16.4833
777.40 16.88462
777.50 17.13515
777.60 17.2312
777.70 17.2426
777.80 17.24856
777.90 17.31185
778.00 17.42901
778.10 17.54014
778.20 17.60995
778.30 17.62954
778.40 17.58422
778.50 17.50609
778.60 17.41796
778.70 17.32793
778.80 17.35435
778.90 17.60348
779.00 18.01813
779.10 18.47939
779.20 18.91868
779.30 19.284
779.40 19.47786
779.50 19.36267
779.60 18.8079
779.70 17.75638
779.80 16.27255
779.90 14.61564
780.00 13.18111
780.10 12.25636
780.20 11.89806
780.30 12.08884
780.40 12.75686
780.50 13.72364
780.60 14.77614
780.70 15.76093
780.80 16.69707
780.90 17.69575
781.00 18.81777
781.10 20.07867
781.20 21.44214
781.30 22.76084
781.40 23.84226
781.50 24.53585
781.60 24.76036
781.70 24.46629
781.80 23.73945
781.90 22.88137
782.00 22.22192
782.10 21.94793
782.20 22.09549
782.30 22.65467
782.40 23.56018
782.50 24.65542
782.60 25.74401
782.70 26.60795
782.80 27.04317
782.90 26.96895
783.00 26.50256
783.10 25.88706
783.20 25.30859
783.30 24.75016
783.40 24.11195
783.50 23.44622
783.60 22.86062
783.70 22.35636
783.80 21.91619
783.90 21.60065
784.00 21.49146
784.10 21.6143
784.20 21.95469
784.30 22.4735
784.40 23.06754
784.50 23.62968
784.60 24.17361
784.70 24.72086
784.80 25.15129
784.90 25.2939
785.00 25.08033
785.10 24.55437
785.20 23.82802
785.30 23.05608
785.40 22.41304
785.50 21.98674
785.60 21.71463
785.70 21.58156
785.80 21.6787
785.90 22.05435
786.00 22.66098
786.10 23.48171
786.20 24.5561
786.30 25.83694
786.40 27.18111
786.50 28.41204
786.60 29.32045
786.70 29.69351
786.80 29.43831
786.90 28.72134
787.00 27.90652
787.10 27.27059
787.20 26.85387
787.30 26.59069
787.40 26.40874
787.50 26.25327
787.60 26.15469
787.70 26.20563
787.80 26.48738
787.90 27.05983
788.00 27.94199
788.10 29.00009
788.20 29.98576
788.30 30.70269
788.40 31.07698
788.50 31.07836
788.60 30.704
788.70 30.02916
788.80 29.24177
788.90 28.57495
789.00 28.15309
789.10 28.00202
789.20 28.07903
789.30 28.25875
789.40 28.44151
789.50 28.66643
789.60 29.00747
789.70 29.47591
789.80 29.98623
789.90 30.40337
790.00 30.73139
790.10 31.09464
790.20 31.52798
790.30 31.96647
790.40 32.32408
790.50 32.50702
790.60 32.4596
790.70 32.21393
790.80 31.91169
790.90 31.70402
791.00 31.68066
791.10 31.80909
791.20 31.90845
791.30 31.87595
791.40 31.6868
791.50 31.34041
791.60 30.89356
791.70 30.38228
791.80 29.89775
791.90 29.61336
792.00 29.66494
792.10 30.11608
792.20 30.86798
792.30 31.71481
792.40 32.47508
792.50 33.0355
792.60 33.45036
792.70 33.82418
792.80 34.22828
792.90 34.68291
793.00 35.12895
793.10 35.54874
793.20 35.93715
793.30 36.21424
793.40 36.29266
793.50 36.10583
793.60 35.66127
793.70 35.06777
793.80 34.48316
793.90 34.06083
794.00 33.82707
794.10 33.66041
794.20 33.35493
794.30 32.66646
794.40 31.42753
794.50 29.59096
794.60 27.25731
794.70 24.69154
794.80 22.28086
794.90 20.44682
795.00 19.57525
795.10 19.87119
795.20 21.18441
795.30 23.18878
795.40 25.62008
795.50 28.18578
795.60 30.5681
795.70 32.60969
795.80 34.30344
795.90 35.68992
796.00 36.81145
796.10 37.73948
796.20 38.48536
796.30 38.94506
796.40 38.99459
796.50 38.62427
796.60 37.99772
796.70 37.29359
796.80 36.61534
796.90 36.07995
797.00 35.81926
797.10 35.86231
797.20 36.12289
797.30 36.49673
797.40 36.90367
797.50 37.23989
797.60 37.42918
797.70 37.55388
797.80 37.73698
797.90 37.96188
798.00 38.16459
798.10 38.32503
798.20 38.41826
798.30 38.39038
798.40 38.23011
798.50 38.00297
798.60 37.80616
798.70 37.72008
798.80 37.807
798.90 38.17647
799.00 38.94076
799.10 40.07953
799.20 41.45391
799.30 42.94151
799.40 44.45929
799.50 45.88612
799.60 46.99056
799.70 47.60395
799.80 47.75064
799.90 47.52631
800.00 47.04498
800.10 46.48743
800.20 46.06202
800.30 45.85016
800.40 45.81465
800.50 45.90337
800.60 46.05193
800.70 46.14316
800.80 46.04561
800.90 45.68217
801.00 45.1175
801.10 44.4796
801.20 43.81837
801.30 43.147
801.40 42.51065
801.50 41.96825
801.60 41.55903
801.70 41.30513
801.80 41.25993
801.90 41.45488
802.00 41.82042
802.10 42.26486
802.20 42.66877
802.30 42.94635
802.40 43.16848
802.50 43.48032
802.60 43.97547
802.70 44.67785
802.80 45.56749
802.90 46.5808
803.00 47.60324
803.10 48.46614
803.20 48.9661
803.30 48.97189
803.40 48.48243
803.50 47.58901
803.60 46.52697
803.70 45.57874
803.80 44.91635
803.90 44.62573
804.00 44.74527
804.10 45.27741
804.20 46.14001
804.30 47.15899
804.40 48.14564
804.50 49.00968
804.60 49.74657
804.70 50.28481
804.80 50.58315
804.90 50.64984
805.00 50.43869
805.10 49.98657
805.20 49.45435
805.30 49.02039
805.40 48.78781
805.50 48.77669
805.60 48.99406
805.70 49.53999
805.80 50.47854
805.90 51.61036
806.00 52.66849
806.10 53.52832
806.20 54.11184
806.30 54.4386
806.40 54.61286
806.50 54.64796
806.60 54.50846
806.70 54.20954
806.80 53.83807
806.90 53.52781
807.00 53.40175
807.10 53.44054
807.20 53.5799
807.30 53.93085
807.40 54.57488
807.50 55.47473
807.60 56.55451
807.70 57.63811
807.80 58.51206
807.90 59.05816
808.00 59.2715
808.10 59.23648
808.20 59.0948
808.30 58.94408
808.40 58.82861
808.50 58.77468
808.60 58.75534
808.70 58.67344
808.80 58.4471
808.90 58.06118
809.00 57.56153
809.10 57.06431
809.20 56.68667
809.30 56.48511
809.40 56.44114
809.50 56.41129
809.60 56.23236
809.70 55.85994
809.80 55.36349
809.90 54.84017
810.00 54.39406
810.10 54.14386
810.20 54.18086
810.30 54.52155
810.40 55.12728
810.50 55.96156
810.60 56.97549
810.70 58.08597
810.80 59.14446
810.90 60.00779
811.00 60.59528
811.10 60.88969
811.20 60.88171
811.30 60.59231
811.40 60.06915
811.50 59.36986
811.60 58.61009
811.70 57.947
811.80 57.53454
811.90 57.44068
812.00 57.68674
812.10 58.22781
812.20 59.00187
812.30 59.98467
812.40 61.10209
812.50 62.21625
812.60 63.17205
812.70 63.7976
812.80 63.95374
812.90 63.6382
813.00 62.99011
813.10 62.21951
813.20 61.53619
813.30 61.11887
813.40 61.06922
813.50 61.42712
813.60 62.11641
813.70 62.92231
813.80 63.59953
813.90 63.98311
814.00 64.04576
814.10 63.86477
814.20 63.62843
814.30 63.5519
814.40 63.72109
814.50 64.08031
814.60 64.48221
814.70 64.70688
814.80 64.58047
814.90 64.06499
815.00 63.26755
815.10 62.40475
815.20 61.67031
815.30 61.24512
815.40 61.32008
815.50 62.01455
815.60 63.28064
815.70 64.86472
815.80 66.4128
815.90 67.65007
816.00 68.48698
816.10 68.94817
816.20 69.05486
816.30 68.89246
816.40 68.6549
816.50 68.55889
816.60 68.81293
816.70 69.45578
816.80 70.2994
816.90 71.05342
817.00 71.49184
817.10 71.59093
817.20 71.43817
817.30 71.02641
817.40 70.23206
817.50 69.05848
817.60 67.69429
817.70 66.28813
817.80 64.82329
817.90 63.16306
818.00 61.19389
818.10 58.95923
818.20 56.71774
818.30 54.90479
818.40 53.92913
818.50 53.96857
818.60 54.97763
818.70 56.79674
818.80 59.12063
818.90 61.43743
819.00 63.12864
819.10 63.62814
819.20 62.62286
819.30 60.25216
819.40 57.10874
819.50 53.98708
819.60 51.5724
819.70 50.28994
819.80 50.29589
819.90 51.47654
820.00 53.52884
820.10 56.0965
820.20 58.82616
820.30 61.39981
820.40 63.62673
820.50 65.53011
820.60 67.22344
820.70 68.69753
820.80 69.81556
820.90 70.47474
821.00 70.6581
821.10 70.43229
821.20 69.94298
821.30 69.40869
821.40 69.06874
821.50 69.05428
821.60 69.38754
821.70 70.03733
821.80 70.88782
821.90 71.71411
822.00 72.30958
822.10 72.64029
822.20 72.79801
822.30 72.89472
822.40 73.06378
822.50 73.46434
822.60 74.2294
822.70 75.37636
822.80 76.7444
822.90 78.07416
823.00 79.13211
823.10 79.74506
823.20 79.84403
823.30 79.50387
823.40 78.92621
823.50 78.3546
823.60 77.97509
823.70 77.87723
823.80 78.06282
823.90 78.41867
824.00 78.74694
824.10 78.89846
824.20 78.85026
824.30 78.67981
824.40 78.46113
824.50 78.3328
824.60 78.42575
824.70 78.76008
824.80 79.30478
824.90 79.95556
825.00 80.52088
825.10 80.71439
825.20 80.33881
825.30 79.42596
825.40 78.11933
825.50 76.62771
825.60 75.20651
825.70 74.11131
825.80 73.62344
825.90 73.8683
826.00 74.77632
826.10 76.15634
826.20 77.67376
826.30 78.94069
826.40 79.62569
826.50 79.60115
826.60 78.89585
826.70 77.64798
826.80 76.18724
826.90 74.92786
827.00 74.22863
827.10 74.18352
827.20 74.57877
827.30 75.27149
827.40 76.26617
827.50 77.44452
827.60 78.62498
827.70 79.7938
827.80 81.0613
827.90 82.42082
828.00 83.73345
828.10 84.83647
828.20 85.57417
828.30 85.81462
828.40 85.52407
828.50 84.89053
828.60 84.1673
828.70 83.32336
828.80 82.27502
828.90 81.21256
829.00 80.31506
829.10 79.50234
829.20 78.52858
829.30 77.30676
829.40 76.01976
829.50 74.88952
829.60 73.82094
829.70 72.55556
829.80 71.11022
829.90 69.73532
830.00 68.74859
830.10 68.43726
830.20 68.86098
830.30 69.83183
830.40 71.08517
830.50 72.43381
830.60 73.90082
830.70 75.5468
830.80 77.22827
830.90 78.67482
831.00 79.92436
831.10 81.24699
831.20 82.66488
831.30 83.96588
831.40 84.91177
831.50 85.42631
831.60 85.55114
831.70 85.34134
831.80 84.89955
831.90 84.26511
832.00 83.34756
832.10 82.116
832.20 80.66877
832.30 79.17218
832.40 77.78952
832.50 76.66529
832.60 75.87725
832.70 75.44128
832.80 75.37053
832.90 75.59421
833.00 75.97231
833.10 76.36238
833.20 76.6568
833.30 76.82735
833.40 76.95179
833.50 77.1189
833.60 77.29504
833.70 77.42555
833.80 77.64997
833.90 78.20671
834.00 79.25261
834.10 80.80206
834.20 82.66093
834.30 84.47539
834.40 85.89405
834.50 86.72248
834.60 87.02184
834.70 86.90834
834.80 86.20807
834.90 84.69892
835.00 82.60846
835.10 80.53043
835.20 78.96727
835.30 78.15482
835.40 78.11151
835.50 78.71884
835.60 79.84846
835.70 81.34537
835.80 82.98961
835.90 84.5012
836.00 85.57116
836.10 86.10711
836.20 86.44898
836.30 87.05453
836.40 88.07328
836.50 89.34965
836.60 90.56573
836.70 91.41805
836.80 91.70327
836.90 91.35148
837.00 90.45103
837.10 89.23081
837.20 87.946
837.30 86.84606
837.40 86.11679
837.50 85.72317
837.60 85.49238
837.70 85.23579
837.80 84.84254
837.90 84.25507
838.00 83.48956
838.10 82.64105
838.20 81.84748
838.30 81.20402
838.40 80.79258
838.50 80.78
838.60 81.29774
838.70 82.25728
838.80 83.41355
838.90 84.57308
839.00 85.57641
839.10 86.27778
839.20 86.60659
839.30 86.60485
839.40 86.345
839.50 85.93601
839.60 85.66803
839.70 85.91848
839.80 86.80617
839.90 88.10729
840.00 89.55152
840.10 90.97682
840.20 92.28142
840.30 93.3654
840.40 94.11473
840.50 94.42125
840.60 94.18417
840.70 93.41753
840.80 92.38542
840.90 91.38603
841.00 90.54523
841.10 89.91136
841.20 89.56687
841.30 89.53881
841.40 89.66013
841.50 89.78402
841.60 89.87681
841.70 89.8629
841.80 89.62826
841.90 89.18617
842.00 88.7665
842.10 88.68408
842.20 89.13963
842.30 90.28209
842.40 92.16016
842.50 94.55759
842.60 97.13787
842.70 99.48439
842.80 101.2311
842.90 102.0905
843.00 101.768
843.10 100.2489
843.20 97.89007
843.30 95.21465
843.40 92.71109
843.50 90.64404
843.60 89.02943
843.70 87.69008
843.80 86.42465
843.90 85.19282
844.00 84.02559
844.10 83.0799
844.20 82.57619
844.30 82.62813
844.40 83.23803
844.50 84.21504
844.60 85.34509
844.70 86.4818
844.80 87.41353
844.90 87.94018
845.00 87.91274
845.10 87.28344
845.20 86.16225
845.30 84.7078
845.40 83.04391
845.50 81.22796
845.60 79.34983
845.70 77.64616
845.80 76.42696
845.90 75.92832
846.00 76.17842
846.10 76.98317
846.20 78.1121
846.30 79.37557
846.40 80.63172
846.50 81.77957
846.60 82.6434
846.70 83.01503
846.80 82.84458
846.90 82.26111
847.00 81.39296
847.10 80.20802
847.20 78.69879
847.30 77.05259
847.40 75.53088
847.50 74.33109
847.60 73.48046
847.70 72.85742
847.80 72.28826
847.90 71.63886
848.00 70.92565
848.10 70.27541
848.20 69.81547
848.30 69.64812
848.40 69.82263
848.50 70.32452
848.60 71.00348
848.70 71.62459
848.80 72.00563
848.90 72.03201
849.00 71.70506
849.10 71.25082
849.20 71.04795
849.30 71.26691
849.40 71.79866
849.50 72.52916
849.60 73.38108
849.70 74.2876
849.80 75.20184
849.90 76.19575
850.00 77.48338
850.10 79.12535
850.20 80.87803
850.30 82.43173
850.40 83.57996
850.50 84.1261
850.60 83.90957
850.70 82.99727
850.80 81.64923
850.90 80.20522
851.00 79.02225
851.10 78.32048
851.20 78.17974
851.30 78.51001
851.40 78.96791
851.50 79.10982
851.60 78.54167
851.70 76.9379
851.80 74.11377
851.90 70.17082
852.00 65.50835
852.10 60.73236
852.20 56.63591
852.30 54.05757
852.40 53.55234
852.50 55.14989
852.60 58.42185
852.70 62.6618
852.80 67.08962
852.90 71.10551
853.00 74.34365
853.10 76.60871
853.20 77.94972
853.30 78.64513
853.40 79.03046
853.50 79.40324
853.60 79.89081
853.70 80.32505
853.80 80.45472
853.90 80.25509
854.00 79.86873
854.10 79.4327
854.20 79.10674
854.30 79.06836
854.40 79.44169
854.50 80.39502
854.60 82.10898
854.70 84.57983
854.80 87.57739
854.90 90.69242
855.00 93.38891
855.10 95.11533
855.20 95.49336
855.30 94.44492
855.40 92.21251
855.50 89.26336
855.60 86.10555
855.70 83.15768
855.80 80.83613
855.90 79.46116
856.00 79.03339
856.10 79.33719
856.20 80.15445
856.30 81.2836
856.40 82.45781
856.50 83.38612
856.60 83.83171
856.70 83.66421
856.80 82.94292
856.90 81.93138
857.00 80.99288
857.10 80.50077
857.20 80.63686
857.30 81.34779
857.40 82.52449
857.50 83.94555
857.60 85.24505
857.70 86.13094
857.80 86.5802
857.90 86.75469
858.00 86.84526
858.10 87.0456
858.20 87.48121
858.30 88.14907
858.40 88.934
858.50 89.61971
858.60 89.95414
858.70 89.78043
858.80 89.08027
858.90 87.98687
859.00 86.73699
859.10 85.65291
859.20 85.11924
859.30 85.48321
859.40 86.95056
859.50 89.49306
859.60 92.60189
859.70 95.49476
859.80 97.64174
859.90 98.74328
860.00 98.68509
860.10 97.59057
860.20 95.8072
860.30 93.79099
860.40 91.96174
860.50 90.54379
860.60 89.47752
860.70 88.5209
860.80 87.35151
860.90 85.6468
861.00 83.35049
861.10 80.59189
861.20 77.33439
861.30 73.589
861.40 69.67309
861.50 66.07546
861.60 63.21551
861.70 61.23135
861.80 59.94892
861.90 59.10364
862.00 58.45726
862.10 57.81973
862.20 57.10997
862.30 56.36213
862.40 55.71087
862.50 55.30518
862.60 55.24538
862.70 55.57017
862.80 56.13113
862.90 56.6703
863.00 56.94631
863.10 56.88098
863.20 56.66604
863.30 56.48309
863.40 56.37779
863.50 56.36026
863.60 56.41829
863.70 56.44554
863.80 56.29312
863.90 56.01704
864.00 55.92733
864.10 56.21457
864.20 56.81015
864.30 57.53889
864.40 58.24017
864.50 58.80986
864.60 59.18176
864.70 59.47261
864.80 59.96742
864.90 60.9042
865.00 62.36681
865.10 64.33098
865.20 66.63096
865.30 68.64434
865.40 69.57072
865.50 69.11942
865.60 67.75114
865.70 66.23733
865.80 65.16508
865.90 64.91473
866.00 65.71826
866.10 67.59537
866.20 70.23592
866.30 73.12505
866.40 75.67904
866.50 77.38453
866.60 78.00317
866.70 77.81401
866.80 77.28796
866.90 76.57835
867.00 75.46893
867.10 73.85389
867.20 72.09337
867.30 70.6525
867.40 69.79008
867.50 69.60005
867.60 70.1136
867.70 71.16358
867.80 72.43649
867.90 73.59171
868.00 74.29897
868.10 74.33414
868.20 73.70755
868.30 72.74093
868.40 71.93511
868.50 71.57779
868.60 71.5062
868.70 71.36903
868.80 70.80501
868.90 69.4469
869.00 67.05442
869.10 63.72112
869.20 59.8465
869.30 56.05428
869.40 53.02645
869.50 51.21417
869.60 50.75128
869.70 51.53655
869.80 53.28923
869.90 55.54689
870.00 57.74794
870.10 59.42592
870.20 60.34053
870.30 60.40585
870.40 59.64514
870.50 58.20599
870.60 56.34005
870.70 54.22862
870.80 51.92446
870.90 49.55761
871.00 47.38235
871.10 45.72406
871.20 44.89018
871.30 44.98609
871.40 45.87535
871.50 47.30245
871.60 48.992
871.70 50.62234
871.80 51.86312
871.90 52.52368
872.00 52.61297
872.10 52.27229
872.20 51.76211
872.30 51.45548
872.40 51.70862
872.50 52.60996
872.60 53.92299
872.70 55.36125
872.80 56.74599
872.90 57.90054
873.00 58.66957
873.10 59.05447
873.20 59.13874
873.30 59.01416
873.40 58.78975
873.50 58.64527
873.60 58.75974
873.70 59.17426
873.80 59.82981
873.90 60.74811
874.00 62.01003
874.10 63.4883
874.20 64.79781
874.30 65.60241
874.40 65.77282
874.50 65.25622
874.60 64.18041
874.70 62.83571
874.80 61.48589
874.90 60.36649
875.00 59.69031
875.10 59.52471
875.20 59.69174
875.30 59.94724
875.40 60.17931
875.50 60.44907
875.60 60.92767
875.70 61.60991
875.80 62.22765
875.90 62.59943
876.00 62.74611
876.10 62.70632
876.20 62.47854
876.30 62.13165
876.40 61.8486
876.50 61.96414
876.60 62.86598
876.70 64.69193
876.80 67.32675
876.90 70.58012
877.00 74.20048
877.10 77.97627
877.20 81.65908
877.30 84.91156
877.40 87.46897
877.50 89.08468
877.60 89.36551
877.70 88.05543
877.80 85.33675
877.90 81.63707
878.00 77.52864
878.10 73.63195
878.20 70.37743
878.30 67.92964
878.40 66.32445
878.50 65.51812
878.60 65.57594
878.70 66.60274
878.80 68.40684
878.90 70.61772
879.00 73.02948
879.10 75.46622
879.20 77.70196
879.30 79.49107
879.40 80.53264
879.50 80.62798
879.60 79.73089
879.70 78.01456
879.80 75.83084
879.90 73.56162
880.00 71.47407
880.10 69.67326
880.20 68.21245
880.30 67.22707
880.40 66.9315
880.50 67.36241
880.60 68.13156
880.70 68.76841
880.80 69.14151
880.90 69.44063
881.00 70.01248
881.10 71.13942
881.20 72.98282
881.30 75.61265
881.40 78.92305
881.50 82.68811
881.60 86.59752
881.70 90.23557
881.80 93.19302
881.90 95.06915
882.00 95.78787
882.10 95.6598
882.20 94.98731
882.30 93.89048
882.40 92.35136
882.50 90.38072
882.60 88.21848
882.70 86.41642
882.80 85.45038
882.90 85.3808
883.00 86.00072
883.10 87.00959
883.20 88.06446
883.30 89.08405
883.40 90.04095
883.50 90.76708
883.60 91.18132
883.70 91.3619
883.80 91.61327
883.90 92.24556
884.00 93.12727
884.10 93.55118
884.20 92.83364
884.30 90.81461
884.40 87.69235
884.50 83.91458
884.60 80.14311
884.70 77.13601
884.80 75.58096
884.90 75.82755
885.00 77.83237
885.10 81.25547
885.20 85.41039
885.30 89.37036
885.40 92.29807
885.50 93.76004
885.60 93.71967
885.70 92.2871
885.80 89.80689
885.90 86.99617
886.00 84.72957
886.10 83.5386
886.20 83.49466
886.30 84.48162
886.40 86.19353
886.50 88.04709
886.60 89.33046
886.70 89.44491
886.80 88.1215
886.90 85.45195
887.00 81.86539
887.10 78.13501
887.20 75.13978
887.30 73.49841
887.40 73.47155
887.50 75.09698
887.60 78.20932
887.70 82.35164
887.80 86.81515
887.90 90.92953
888.00 94.44136
888.10 97.26312
888.20 99.28098
888.30 100.4293
888.40 100.6961
888.50 100.317
888.60 99.79917
888.70 99.62214
888.80 99.88081
888.90 100.3132
889.00 100.5201
889.10 100.0936
889.20 98.67671
889.30 96.03106
889.40 92.00083
889.50 86.90133
889.60 81.68269
889.70 77.47307
889.80 75.17522
889.90 74.99118
890.00 76.3025
890.10 78.19134
890.20 79.97905
890.30 81.33658
890.40 82.10184
890.50 82.2295
890.60 81.86957
890.70 81.3354
890.80 81.0528
890.90 81.41785
891.00 82.56833
891.10 84.46216
891.20 86.88816
891.30 89.60325
891.40 92.42615
891.50 95.11927
891.60 97.44045
891.70 99.13443
891.80 100.0173
891.90 100.0343
892.00 99.31098
892.10 98.14752
892.20 96.83269
892.30 95.56552
892.40 94.42203
892.50 93.30028
892.60 92.07716
892.70 90.67771
892.80 89.27823
892.90 88.39936
893.00 88.55262
893.10 90.04393
893.20 92.8367
893.30 96.56007
893.40 100.63
893.50 104.2637
893.60 106.589
893.70 106.7526
893.80 104.2284
893.90 99.19421
894.00 92.42269
894.10 84.83265
894.20 77.22987
894.30 70.44765
894.40 65.35292
894.50 62.426
894.60 61.68184
894.70 62.95513
894.80 65.91477
894.90 70.01604
895.00 74.77218
895.10 79.96364
895.20 85.47348
895.30 91.10005
895.40 96.5763
895.50 101.7548
895.60 106.4788
895.70 110.3577
895.80 112.9791
895.90 114.202
896.00 114.223
896.10 113.2
896.20 111.115
896.30 108.1503
896.40 104.7548
896.50 101.4131
896.60 98.40803
896.70 95.83828
896.80 93.90942
896.90 92.91248
897.00 93.02131
897.10 94.17789
897.20 96.0964
897.30 98.4235
897.40 100.6897
897.50 102.4366
897.60 103.4628
897.70 103.7232
897.80 103.1825
897.90 101.9618
898.00 100.5441
898.10 99.53736
898.20 99.27028
898.30 99.82247
898.40 101.3502
898.50 103.885
898.60 106.8771
898.70 109.4323
898.80 110.798
898.90 110.7631
899.00 109.6949
899.10 108.209
899.20 106.8916
899.30 106.0706
899.40 105.7236
899.50 105.6108
899.60 105.4069
899.70 104.8458
899.80 103.6885
899.90 101.774
900.00 101.7623
900.10 101.7506
900.20 101.7389
900.30 101.7272
900.40 101.7155
900.50 101.7038
900.60 101.6921
900.70 101.6804
900.80 101.6687
900.90 101.657
901.00 101.6453
901.10 101.6336
901.20 101.6219
901.30 101.6102
901.40 101.5985
901.50 101.5868
901.60 101.5751
901.70 101.5634
901.80 101.5517
901.90 101.54
902.00 101.5283
902.10 101.5166
902.20 101.5049
902.30 101.4932
902.40 101.4815
902.50 101.4698
902.60 101.4916
902.70 101.6396
902.80 101.7876
902.90 101.9355
903.00 102.0835
903.10 102.2315
903.20 102.3794
903.30 102.5274
903.40 102.6754
903.50 102.8233
903.60 102.9713
903.70 103.1193
903.80 103.2672
903.90 103.4152
904.00 103.5632
904.10 103.7111
904.20 103.8591
904.30 104.0071
904.40 104.155
904.50 104.303
904.60 104.451
904.70 104.5989
904.80 104.7469
904.90 104.8949
905.00 105.0428
905.10 105.1908
905.20 105.3388
905.30 105.4868
905.40 105.6347
905.50 105.7827
905.60 105.9307
905.70 106.0786
905.80 106.2266
905.90 106.3746
906.00 106.5225
906.10 106.6184
906.20 106.7116
906.30 106.8047
906.40 106.8979
906.50 106.991
906.60 107.0842
906.70 107.1773
906.80 107.2705
906.90 107.3636
907.00 107.4568
907.10 107.5499
907.20 107.6431
907.30 107.7362
907.40 107.8294
907.50 107.9225
907.60 108.0157
907.70 108.1088
907.80 108.202
907.90 108.2951
908.00 108.3883
908.10 108.4814
908.20 108.5746
908.30 108.6677
908.40 108.7609
908.50 108.854
908.60 108.9472
908.70 109.0403
908.80 109.1335
908.90 109.2266
909.00 109.3198
909.10 109.4129
909.20 109.5061
909.30 109.5992
909.40 109.6924
909.50 109.779
909.60 109.8594
909.70 109.9398
909.80 110.0202
909.90 110.1006
910.00 110.181
910.10 110.2614
910.20 110.3417
910.30 110.4221
910.40 110.5025
910.50 110.5829
910.60 110.6633
910.70 110.7437
910.80 110.8241
910.90 110.9045
911.00 110.9849
911.10 111.0653
911.20 111.1457
911.30 111.226
911.40 111.3064
911.50 111.3868
911.60 111.4672
911.70 111.5476
911.80 111.628
911.90 111.7084
912.00 111.7888
912.10 111.8692
912.20 111.9496
912.30 112.03
912.40 112.1104
912.50 112.1907
912.60 112.2711
912.70 112.3515
912.80 112.4319
912.90 112.5123
913.00 112.5448
913.10 112.5708
913.20 112.5968
913.30 112.6228
913.40 112.6488
913.50 112.6748
913.60 112.7008
913.70 112.7268
913.80 112.7528
913.90 112.7788
914.00 112.8048
914.10 112.8308
914.20 112.8568
914.30 112.8827
914.40 112.9087
914.50 112.9347
914.60 112.9607
914.70 112.9867
914.80 113.0127
914.90 113.0387
915.00 113.0647
915.10 113.0907
915.20 113.1167
915.30 113.1427
915.40 113.1687
915.50 113.1947
915.60 113.2207
915.70 113.2467
915.80 113.2727
915.90 113.2986
916.00 113.3246
916.10 113.3506
916.20 113.3766
916.30 113.4026
916.40 113.4309
916.50 113.4857
916.60 113.5404
916.70 113.5951
916.80 113.6499
916.90 113.7046
917.00 113.7594
917.10 113.8141
917.20 113.8689
917.30 113.9236
917.40 113.9783
917.50 114.0331
917.60 114.0878
917.70 114.1426
917.80 114.1973
917.90 114.2521
918.00 114.3068
918.10 114.3615
918.20 114.4163
918.30 114.471
918.40 114.5258
918.50 114.5805
918.60 114.6353
918.70 114.69
918.80 114.7448
918.90 114.7995
919.00 114.8542
919.10 114.909
919.20 114.9637
919.30 115.0185
919.40 115.0732
919.50 115.128
919.60 115.1827
919.70 115.2374
919.80 115.2922
919.90 115.3423
920.00 115.3502
920.10 115.3581
920.20 115.3661
920.30 115.374
920.40 115.382
920.50 115.3899
920.60 115.3979
920.70 115.4058
920.80 115.4138
920.90 115.4217
921.00 115.4297
921.10 115.4376
921.20 115.4456
921.30 115.4535
921.40 115.4615
921.50 115.4694
921.60 115.4774
921.70 115.4853
921.80 115.4933
921.90 115.5012
922.00 115.5092
922.10 115.5171
922.20 115.5251
922.30 115.533
922.40 115.541
922.50 115.5489
922.60 115.5568
922.70 115.5648
922.80 115.5727
922.90 115.5807
923.00 115.5886
923.10 115.5966
923.20 115.6045
923.30 115.6125
923.40 115.6204
923.50 115.7237
923.60 115.8331
923.70 115.9425
923.80 116.0518
923.90 116.1612
924.00 116.2706
924.10 116.38
924.20 116.4893
924.30 116.5987
924.40 116.7081
924.50 116.8175
924.60 116.9268
924.70 117.0362
924.80 117.1456
924.90 117.255
925.00 117.3643
925.10 117.4737
925.20 117.5831
925.30 117.6925
925.40 117.8018
925.50 117.9112
925.60 118.0206
925.70 118.13
925.80 118.2393
925.90 118.3487
926.00 118.4581
926.10 118.5675
926.20 118.6768
926.30 118.7862
926.40 118.8956
926.50 119.005
926.60 119.1143
926.70 119.2237
926.80 119.3331
926.90 119.4425
927.00 119.508
927.10 119.5455
927.20 119.583
927.30 119.6205
927.40 119.658
927.50 119.6955
927.60 119.733
927.70 119.7705
927.80 119.8079
927.90 119.8454
928.00 119.8829
928.10 119.9204
928.20 119.9579
928.30 119.9954
928.40 120.0329
928.50 120.0704
928.60 120.1079
928.70 120.1454
928.80 120.1829
928.90 120.2204
929.00 120.2579
929.10 120.2954
929.20 120.3329
929.30 120.3704
929.40 120.4079
929.50 120.4453
929.60 120.4828
929.70 120.5203
929.80 120.5578
929.90 120.5953
930.00 120.6328
930.10 120.6703
930.20 120.7078
930.30 120.7453
930.40 120.7828
930.50 120.8179
930.60 120.8341
930.70 120.8503
930.80 120.8665
930.90 120.8827
931.00 120.8988
931.10 120.915
931.20 120.9312
931.30 120.9474
931.40 120.9636
931.50 120.9798
931.60 120.9959
931.70 121.0121
931.80 121.0283
931.90 121.0445
932.00 121.0607
932.10 121.0768
932.20 121.093
932.30 121.1092
932.40 121.1254
932.50 121.1416
932.60 121.1577
932.70 121.1739
932.80 121.1901
932.90 121.2063
933.00 121.2225
933.10 121.2387
933.20 121.2548
933.30 121.271
933.40 121.2872
933.50 121.3034
933.60 121.3196
933.70 121.3357
933.80 121.3519
933.90 121.3681
934.00 121.3843
934.10 121.426
934.20 121.5004
934.30 121.5747
934.40 121.6491
934.50 121.7234
934.60 121.7977
934.70 121.8721
934.80 121.9464
934.90 122.0208
935.00 122.0951
935.10 122.1694
935.20 122.2438
935.30 122.3181
935.40 122.3924
935.50 122.4668
935.60 122.5411
935.70 122.6155
935.80 122.6898
935.90 122.7641
936.00 122.8385
936.10 122.9128
936.20 122.9871
936.30 123.0615
936.40 123.1358
936.50 123.2102
936.60 123.2845
936.70 123.3588
936.80 123.4332
936.90 123.5075
937.00 123.5818
937.10 123.6562
937.20 123.7305
937.30 123.8049
937.40 123.8792
937.50 123.9535
937.60 124.0279
937.70 124.0891
937.80 124.1416
937.90 124.194
938.00 124.2465
938.10 124.299
938.20 124.3515
938.30 124.4039
938.40 124.4564
938.50 124.5089
938.60 124.5614
938.70 124.6138
938.80 124.6663
938.90 124.7188
939.00 124.7713
939.10 124.8237
939.20 124.8762
939.30 124.9287
939.40 124.9812
939.50 125.0336
939.60 125.0861
939.70 125.1386
939.80 125.1911
939.90 125.2435
940.00 125.296
940.10 125.3485
940.20 125.401
940.30 125.4534
940.40 125.5059
940.50 125.5584
940.60 125.6109
940.70 125.6633
940.80 125.7158
940.90 125.7683
941.00 125.8208
941.10 125.8732
941.20 125.9257
941.30 126.0055
941.40 126.1042
941.50 126.203
941.60 126.3017
941.70 126.4004
941.80 126.4992
941.90 126.5979
942.00 126.6967
942.10 126.7954
942.20 126.8942
942.30 126.9929
942.40 127.0916
942.50 127.1904
942.60 127.2891
942.70 127.3879
942.80 127.4866
942.90 127.5854
943.00 127.6841
943.10 127.7829
943.20 127.8816
943.30 127.9803
943.40 128.0791
943.50 128.1778
943.60 128.2766
943.70 128.3753
943.80 128.4741
943.90 128.5728
944.00 128.6715
944.10 128.7703
944.20 128.869
944.30 128.9678
944.40 129.0665
944.50 129.1653
944.60 129.264
944.70 129.3627
944.80 129.4615
944.90 129.55
945.00 129.6236
945.10 129.6973
945.20 129.771
945.30 129.8447
945.40 129.9184
945.50 129.9921
945.60 130.0658
945.70 130.1395
945.80 130.2132
945.90 130.2869
946.00 130.3606
946.10 130.4343
946.20 130.508
946.30 130.5817
946.40 130.6554
946.50 130.729
946.60 130.8027
946.70 130.8764
946.80 130.9501
946.90 131.0238
947.00 131.0975
947.10 131.1712
947.20 131.2449
947.30 131.3186
947.40 131.3923
947.50 131.466
947.60 131.5397
947.70 131.6134
947.80 131.6871
947.90 131.7608
948.00 131.8344
948.10 131.9081
948.20 131.9818
948.30 132.0555
948.40 132.1292
948.50 132.197
948.60 132.1857
948.70 132.1745
948.80 132.1633
948.90 132.1521
949.00 132.1409
949.10 132.1296
949.20 132.1184
949.30 132.1072
949.40 132.096
949.50 132.0847
949.60 132.0735
949.70 132.0623
949.80 132.0511
949.90 132.0399
950.00 132.0286
950.10 132.0174
950.20 132.0062
950.30 131.995
950.40 131.9838
950.50 131.9725
950.60 131.9613
950.70 131.9501
950.80 131.9389
950.90 131.9276
951.00 131.9164
951.10 131.9052
951.20 131.894
951.30 131.8828
951.40 131.8715
951.50 131.8603
951.60 131.8491
951.70 131.8379
951.80 131.8266
951.90 131.8154
952.00 131.8042
952.10 131.793
952.20 131.8182
952.30 131.872
952.40 131.9258
952.50 131.9797
952.60 132.0335
952.70 132.0873
952.80 132.1411
952.90 132.1949
953.00 132.2488
953.10 132.3026
953.20 132.3564
953.30 132.4102
953.40 132.464
953.50 132.5179
953.60 132.5717
953.70 132.6255
953.80 132.6793
953.90 132.7332
954.00 132.787
954.10 132.8408
954.20 132.8946
954.30 132.9484
954.40 133.0023
954.50 133.0561
954.60 133.1099
954.70 133.1637
954.80 133.2175
954.90 133.2714
955.00 133.3252
955.10 133.379
955.20 133.4328
955.30 133.4867
955.40 133.5405
955.50 133.5943
955.60 133.6481
955.70 133.7019
955.80 133.7558
955.90 133.7712
956.00 133.7823
956.10 133.7934
956.20 133.8046
956.30 133.8157
956.40 133.8269
956.50 133.838
956.60 133.8491
956.70 133.8603
956.80 133.8714
956.90 133.8825
957.00 133.8937
957.10 133.9048
957.20 133.916
957.30 133.9271
957.40 133.9382
957.50 133.9494
957.60 133.9605
957.70 133.9716
957.80 133.9828
957.90 133.9939
958.00 134.0051
958.10 134.0162
958.20 134.0273
958.30 134.0385
958.40 134.0496
958.50 134.0608
958.60 134.0719
958.70 134.083
958.80 134.0942
958.90 134.1053
959.00 134.1164
959.10 134.1276
959.20 134.1387
959.30 134.1499
959.40 134.161
959.50 134.1717
959.60 134.1767
959.70 134.1817
959.80 134.1866
959.90 134.1916
960.00 134.1966
960.10 134.2016
960.20 134.2065
960.30 134.2115
960.40 134.2165
960.50 134.2215
960.60 134.2264
960.70 134.2314
960.80 134.2364
960.90 134.2414
961.00 134.2464
961.10 134.2513
961.20 134.2563
961.30 134.2613
961.40 134.2663
961.50 134.2712
961.60 134.2762
961.70 134.2812
961.80 134.2862
961.90 134.2912
962.00 134.2961
962.10 134.3011
962.20 134.3061
962.30 134.3111
962.40 134.316
962.50 134.321
962.60 134.326
962.70 134.331
962.80 134.336
962.90 134.3409
963.00 134.3459
963.10 134.3509
963.20 134.3622
963.30 134.4371
963.40 134.512
963.50 134.587
963.60 134.6619
963.70 134.7368
963.80 134.8117
963.90 134.8867
964.00 134.9616
964.10 135.0365
964.20 135.1115
964.30 135.1864
964.40 135.2613
964.50 135.3363
964.60 135.4112
964.70 135.4861
964.80 135.5611
964.90 135.636
965.00 135.7109
965.10 135.7859
965.20 135.8608
965.30 135.9357
965.40 136.0107
965.50 136.0856
965.60 136.1605
965.70 136.2354
965.80 136.3104
965.90 136.3853
966.00 136.4602
966.10 136.5352
966.20 136.6101
966.30 136.685
966.40 136.76
966.50 136.8349
966.60 136.9098
966.70 136.9848
966.80 137.0597
966.90 137.1346
967.00 137.1984
967.10 137.2615
967.20 137.3247
967.30 137.3879
967.40 137.451
967.50 137.5142
967.60 137.5774
967.70 137.6405
967.80 137.7037
967.90 137.7669
968.00 137.8301
968.10 137.8932
968.20 137.9564
968.30 138.0196
968.40 138.0827
968.50 138.1459
968.60 138.2091
968.70 138.2722
968.80 138.3354
968.90 138.3986
969.00 138.4617
969.10 138.5249
969.20 138.5881
969.30 138.6512
969.40 138.7144
969.50 138.7776
969.60 138.8407
969.70 138.9039
969.80 138.9671
969.90 139.0302
970.00 139.0934
970.10 139.1566
970.20 139.2197
970.30 139.2829
970.40 139.3461
970.50 139.4092
970.60 139.4724
970.70 139.6101
970.80 139.7879
970.90 139.9657
971.00 140.1436
971.10 140.3214
971.20 140.4992
971.30 140.677
971.40 140.8548
971.50 141.0327
971.60 141.2105
971.70 141.3883
971.80 141.5661
971.90 141.7439
972.00 141.9217
972.10 142.0996
972.20 142.2774
972.30 142.4552
972.40 142.633
972.50 142.8108
972.60 142.9887
972.70 143.1665
972.80 143.3443
972.90 143.5221
973.00 143.6999
973.10 143.8778
973.20 144.0556
973.30 144.2334
973.40 144.4112
973.50 144.589
973.60 144.7669
973.70 144.9447
973.80 145.1225
973.90 145.3003
974.00 145.4781
974.10 145.656
974.20 145.8338
974.30 146.0116
974.40 146.1445
974.50 146.1086
974.60 146.0727
974.70 146.0368
974.80 146.0008
974.90 145.9649
975.00 145.929
975.10 145.893
975.20 145.8571
975.30 145.8212
975.40 145.7853
975.50 145.7493
975.60 145.7134
975.70 145.6775
975.80 145.6416
975.90 145.6056
976.00 145.5697
976.10 145.5338
976.20 145.4979
976.30 145.4619
976.40 145.426
976.50 145.3901
976.60 145.3542
976.70 145.3182
976.80 145.2823
976.90 145.2464
977.00 145.2104
977.10 145.1745
977.20 145.1386
977.30 145.1027
977.40 145.0667
977.50 145.0308
977.60 144.9949
977.70 144.959
977.80 144.923
977.90 144.8871
978.00 144.8512
978.10 144.8153
978.20 144.7851
978.30 144.7587
978.40 144.7323
978.50 144.7058
978.60 144.6794
978.70 144.6529
978.80 144.6265
978.90 144.6001
979.00 144.5736
979.10 144.5472
979.20 144.5208
979.30 144.4943
979.40 144.4679
979.50 144.4415
979.60 144.415
979.70 144.3886
979.80 144.3622
979.90 144.3357
980.00 144.3093
980.10 144.2828
980.20 144.2564
980.30 144.23
980.40 144.2035
980.50 144.1771
980.60 144.1507
980.70 144.1242
980.80 144.0978
980.90 144.0714
981.00 144.0449
981.10 144.0185
981.20 143.9921
981.30 143.9656
981.40 143.9392
981.50 143.9127
981.60 143.8863
981.70 143.8599
981.80 143.8334
981.90 143.807
982.00 143.7435
982.10 143.674
982.20 143.6045
982.30 143.535
982.40 143.4654
982.50 143.3959
982.60 143.3264
982.70 143.2569
982.80 143.1874
982.90 143.1178
983.00 143.0483
983.10 142.9788
983.20 142.9093
983.30 142.8398
983.40 142.7702
983.50 142.7007
983.60 142.6312
983.70 142.5617
983.80 142.4922
983.90 142.4226
984.00 142.3531
984.10 142.2836
984.20 142.2141
984.30 142.1446
984.40 142.0751
984.50 142.0055
984.60 141.936
984.70 141.8665
984.80 141.797
984.90 141.7275
985.00 141.6579
985.10 141.5884
985.20 141.5189
985.30 141.4494
985.40 141.3799
985.50 141.3103
985.60 141.2408
985.70 141.1713
985.80 140.9678
985.90 140.7602
986.00 140.5526
986.10 140.345
986.20 140.1374
986.30 139.9298
986.40 139.7222
986.50 139.5146
986.60 139.307
986.70 139.0994
986.80 138.8918
986.90 138.6841
987.00 138.4765
987.10 138.2689
987.20 138.0613
987.30 137.8537
987.40 137.6461
987.50 137.4385
987.60 137.2309
987.70 137.0233
987.80 136.8157
987.90 136.6081
988.00 136.4005
988.10 136.1929
988.20 135.9852
988.30 135.7776
988.40 135.57
988.50 135.3624
988.60 135.1548
988.70 134.9472
988.80 134.7396
988.90 134.532
989.00 134.3244
989.10 134.1168
989.20 133.9092
989.30 133.7016
989.40 133.4939
989.50 133.2863
989.60 133.1155
989.70 132.9474
989.80 132.7793
989.90 132.6112
990.00 132.4431
990.10 132.275
990.20 132.1069
990.30 131.9389
990.40 131.7708
990.50 131.6027
990.60 131.4346
990.70 131.2665
990.80 131.0984
990.90 130.9303
991.00 130.7622
991.10 130.5941
991.20 130.426
991.30 130.258
991.40 130.0899
991.50 129.9218
991.60 129.7537
991.70 129.5856
991.80 129.4175
991.90 129.2494
992.00 129.0813
992.10 128.9132
992.20 128.7451
992.30 128.5771
992.40 128.409
992.50 128.2409
992.60 128.0728
992.70 127.9047
992.80 127.7366
992.90 127.5685
993.00 127.4004
993.10 127.2323
993.20 127.0642
993.30 126.8962
993.40 126.7615
993.50 126.6379
993.60 126.5144
993.70 126.3908
993.80 126.2673
993.90 126.1437
994.00 126.0202
994.10 125.8966
994.20 125.7731
994.30 125.6495
994.40 125.5259
994.50 125.4024
994.60 125.2788
994.70 125.1553
994.80 125.0317
994.90 124.9082
995.00 124.7846
995.10 124.6611
995.20 124.5375
995.30 124.414
995.40 124.2904
995.50 124.1669
995.60 124.0433
995.70 123.9198
995.80 123.7962
995.90 123.6727
996.00 123.5491
996.10 123.4256
996.20 123.302
996.30 123.1785
996.40 123.0549
996.50 122.9313
996.60 122.8078
996.70 122.6842
996.80 122.5607
996.90 122.4371
997.00 122.3136
997.10 122.19
997.20 122.1547
997.30 122.2412
997.40 122.3277
997.50 122.4142
997.60 122.5007
997.70 122.5872
997.80 122.6737
997.90 122.7602
998.00 122.8466
998.10 122.9331
998.20 123.0196
998.30 123.1061
998.40 123.1926
998.50 123.2791
998.60 123.3656
998.70 123.4521
998.80 123.5386
998.90 123.6251
999.00 123.7116
999.10 123.7981
999.20 123.8846
999.30 123.9711
999.40 124.0576
999.50 124.1441
999.60 124.2305
999.70 124.317
999.80 124.4035
999.90 124.49
1000.00 124.5765
1000.10 124.663
1000.20 124.7495
1000.30 124.836
1000.40 124.9225
1000.50 125.009
1000.60 125.0955
1000.70 125.182
1000.80 125.2685
1000.90 125.355
1001.00 125.4415
1001.10 125.5077
1001.20 125.574
1001.30 125.6403
1001.40 125.7066
1001.50 125.7728
1001.60 125.8391
1001.70 125.9054
1001.80 125.9717
1001.90 126.038
1002.00 126.1042
1002.10 126.1705
1002.20 126.2368
1002.30 126.3031
1002.40 126.3693
1002.50 126.4356
1002.60 126.5019
1002.70 126.5682
1002.80 126.6345
1002.90 126.7007
1003.00 126.767
1003.10 126.8333
1003.20 126.8996
1003.30 126.9658
1003.40 127.0321
1003.50 127.0984
1003.60 127.1647
1003.70 127.231
1003.80 127.2972
1003.90 127.3635
1004.00 127.4298
1004.10 127.4961
1004.20 127.5623
1004.30 127.6286
1004.40 127.6949
1004.50 127.7612
1004.60 127.8274
1004.70 127.8937
1004.80 127.96
1004.90 128.0387
1005.00 128.1359
1005.10 128.2331
1005.20 128.3304
1005.30 128.4276
1005.40 128.5248
1005.50 128.622
1005.60 128.7193
1005.70 128.8165
1005.80 128.9137
1005.90 129.011
1006.00 129.1082
1006.10 129.2054
1006.20 129.3027
1006.30 129.3999
1006.40 129.4971
1006.50 129.5943
1006.60 129.6916
1006.70 129.7888
1006.80 129.886
1006.90 129.9833
1007.00 130.0805
1007.10 130.1777
1007.20 130.2749
1007.30 130.3722
1007.40 130.4694
1007.50 130.5666
1007.60 130.6639
1007.70 130.7611
1007.80 130.8583
1007.90 130.9556
1008.00 131.0528
1008.10 131.15
1008.20 131.2472
1008.30 131.3445
1008.40 131.4417
1008.50 131.5389
1008.60 131.6362
1008.70 131.7334
1008.80 131.8246
1008.90 131.9117
1009.00 131.9989
1009.10 132.086
1009.20 132.1732
1009.30 132.2604
1009.40 132.3475
1009.50 132.4347
1009.60 132.5218
1009.70 132.609
1009.80 132.6961
1009.90 132.7833
1010.00 132.8704
1010.10 132.9576
1010.20 133.0447
1010.30 133.1319
1010.40 133.219
1010.50 133.3062
1010.60 133.3934
1010.70 133.4805
1010.80 133.5677
1010.90 133.6548
1011.00 133.742
1011.10 133.8291
1011.20 133.9163
1011.30 134.0034
1011.40 134.0906
1011.50 134.1777
1011.60 134.2649
1011.70 134.3521
1011.80 134.4392
1011.90 134.5264
1012.00 134.6135
1012.10 134.7007
1012.20 134.7878
1012.30 134.875
1012.40 134.9621
1012.50 135.0493
1012.60 135.1364
1012.70 135.1881
1012.80 135.2309
1012.90 135.2736
1013.00 135.3164
1013.10 135.3592
1013.20 135.4019
1013.30 135.4447
1013.40 135.4875
1013.50 135.5302
1013.60 135.573
1013.70 135.6158
1013.80 135.6585
1013.90 135.7013
1014.00 135.7441
1014.10 135.7869
1014.20 135.8296
1014.30 135.8724
1014.40 135.9152
1014.50 135.9579
1014.60 136.0007
1014.70 136.0435
1014.80 136.0862
1014.90 136.129
1015.00 136.1718
1015.10 136.2145
1015.20 136.2573
1015.30 136.3001
1015.40 136.3429
1015.50 136.3856
1015.60 136.4284
1015.70 136.4712
1015.80 136.5139
1015.90 136.5567
1016.00 136.5995
1016.10 136.6422
1016.20 136.685
1016.30 136.7278
1016.40 136.7705
1016.50 136.8133
1016.60 136.7965
1016.70 136.7647
1016.80 136.733
1016.90 136.7012
1017.00 136.6695
1017.10 136.6377
1017.20 136.606
1017.30 136.5742
1017.40 136.5425
1017.50 136.5107
1017.60 136.479
1017.70 136.4472
1017.80 136.4155
1017.90 136.3837
1018.00 136.352
1018.10 136.3202
1018.20 136.2885
1018.30 136.2567
1018.40 136.225
1018.50 136.1932
1018.60 136.1615
1018.70 136.1298
1018.80 136.098
1018.90 136.0663
1019.00 136.0345
1019.10 136.0028
1019.20 135.971
1019.30 135.9393
1019.40 135.9075
1019.50 135.8758
1019.60 135.844
1019.70 135.8123
1019.80 135.7805
1019.90 135.7488
1020.00 135.717
1020.10 135.6853
1020.20 135.6535
1020.30 135.6218
1020.40 135.59
1020.50 135.6458
1020.60 135.7599
1020.70 135.8741
1020.80 135.9882
1020.90 136.1023
1021.00 136.2165
1021.10 136.3306
1021.20 136.4447
1021.30 136.5588
1021.40 136.673
1021.50 136.7871
1021.60 136.9012
1021.70 137.0154
1021.80 137.1295
1021.90 137.2436
1022.00 137.3578
1022.10 137.4719
1022.20 137.586
1022.30 137.7002
1022.40 137.8143
1022.50 137.9284
1022.60 138.0425
1022.70 138.1567
1022.80 138.2708
1022.90 138.3849
1023.00 138.4991
1023.10 138.6132
1023.20 138.7273
1023.30 138.8415
1023.40 138.9556
1023.50 139.0697
1023.60 139.1838
1023.70 139.298
1023.80 139.4121
1023.90 139.5262
1024.00 139.6404
1024.10 139.7545
1024.20 139.8686
1024.30 139.9828
1024.40 140.0526
1024.50 140.0561
1024.60 140.0596
1024.70 140.063
1024.80 140.0665
1024.90 140.07
1025.00 140.0734
1025.10 140.0769
1025.20 140.0804
1025.30 140.0838
1025.40 140.0873
1025.50 140.0908
1025.60 140.0942
1025.70 140.0977
1025.80 140.1012
1025.90 140.1046
1026.00 140.1081
1026.10 140.1116
1026.20 140.115
1026.30 140.1185
1026.40 140.122
1026.50 140.1254
1026.60 140.1289
1026.70 140.1324
1026.80 140.1358
1026.90 140.1393
1027.00 140.1428
1027.10 140.1463
1027.20 140.1497
1027.30 140.1532
1027.40 140.1567
1027.50 140.1601
1027.60 140.1636
1027.70 140.1671
1027.80 140.1705
1027.90 140.174
1028.00 140.1775
1028.10 140.1809
1028.20 140.1844
1028.30 140.1879
1028.40 140.3054
1028.50 140.423
1028.60 140.5406
1028.70 140.6582
1028.80 140.7758
1028.90 140.8933
1029.00 141.0109
1029.10 141.1285
1029.20 141.2461
1029.30 141.3637
1029.40 141.4812
1029.50 141.5988
1029.60 141.7164
1029.70 141.834
1029.80 141.9516
1029.90 142.0691
1030.00 142.1867
1030.10 142.3043
1030.20 142.4219
1030.30 142.5395
1030.40 142.657
1030.50 142.7746
1030.60 142.8922
1030.70 143.0098
1030.80 143.1274
1030.90 143.2449
1031.00 143.3625
1031.10 143.4801
1031.20 143.5977
1031.30 143.7153
1031.40 143.8328
1031.50 143.9504
1031.60 144.068
1031.70 144.1856
1031.80 144.3032
1031.90 144.4207
1032.00 144.5383
1032.10 144.6559
1032.20 144.7735
1032.30 144.8564
1032.40 144.9047
1032.50 144.9529
1032.60 145.0012
1032.70 145.0494
1032.80 145.0977
1032.90 145.146
1033.00 145.1942
1033.10 145.2425
1033.20 145.2907
1033.30 145.339
1033.40 145.3873
1033.50 145.4355
1033.60 145.4838
1033.70 145.532
1033.80 145.5803
1033.90 145.6286
1034.00 145.6768
1034.10 145.7251
1034.20 145.7733
1034.30 145.8216
1034.40 145.8699
1034.50 145.9181
1034.60 145.9664
1034.70 146.0146
1034.80 146.0629
1034.90 146.1112
1035.00 146.1594
1035.10 146.2077
1035.20 146.2559
1035.30 146.3042
1035.40 146.3525
1035.50 146.4007
1035.60 146.449
1035.70 146.4972
1035.80 146.5455
1035.90 146.5938
1036.00 146.642
1036.10 146.6903
1036.20 146.7385
1036.30 146.832
1036.40 146.9368
1036.50 147.0416
1036.60 147.1464
1036.70 147.2512
1036.80 147.356
1036.90 147.4608
1037.00 147.5655
1037.10 147.6703
1037.20 147.7751
1037.30 147.8799
1037.40 147.9847
1037.50 148.0895
1037.60 148.1943
1037.70 148.2991
1037.80 148.4038
1037.90 148.5086
1038.00 148.6134
1038.10 148.7182
1038.20 148.823
1038.30 148.9278
1038.40 149.0326
1038.50 149.1374
1038.60 149.2422
1038.70 149.3469
1038.80 149.4517
1038.90 149.5565
1039.00 149.6613
1039.10 149.7661
1039.20 149.8709
1039.30 149.9757
1039.40 150.0805
1039.50 150.1852
1039.60 150.29
1039.70 150.3948
1039.80 150.4996
1039.90 150.6044
1040.00 150.7092
1040.10 150.814
1040.20 150.9209
1040.30 151.0475
1040.40 151.174
1040.50 151.3005
1040.60 151.427
1040.70 151.5535
1040.80 151.68
1040.90 151.8066
1041.00 151.9331
1041.10 152.0596
1041.20 152.1861
1041.30 152.3126
1041.40 152.4392
1041.50 152.5657
1041.60 152.6922
1041.70 152.8187
1041.80 152.9452
1041.90 153.0717
1042.00 153.1983
1042.10 153.3248
1042.20 153.4513
1042.30 153.5778
1042.40 153.7043
1042.50 153.8309
1042.60 153.9574
1042.70 154.0839
1042.80 154.2104
1042.90 154.3369
1043.00 154.4634
1043.10 154.59
1043.20 154.7165
1043.30 154.843
1043.40 154.9695
1043.50 155.096
1043.60 155.2226
1043.70 155.3491
1043.80 155.4756
1043.90 155.6021
1044.00 155.7286
1044.10 155.8551
1044.20 155.959
1044.30 155.9721
1044.40 155.9852
1044.50 155.9982
1044.60 156.0113
1044.70 156.0244
1044.80 156.0375
1044.90 156.0506
1045.00 156.0637
1045.10 156.0768
1045.20 156.0899
1045.30 156.1029
1045.40 156.116
1045.50 156.1291
1045.60 156.1422
1045.70 156.1553
1045.80 156.1684
1045.90 156.1815
1046.00 156.1946
1046.10 156.2076
1046.20 156.2207
1046.30 156.2338
1046.40 156.2469
1046.50 156.26
1046.60 156.2731
1046.70 156.2862
1046.80 156.2993
1046.90 156.3123
1047.00 156.3254
1047.10 156.3385
1047.20 156.3516
1047.30 156.3647
1047.40 156.3778
1047.50 156.3909
1047.60 156.404
1047.70 156.417
1047.80 156.4301
1047.90 156.4432
1048.00 156.4563
1048.10 156.4694
1048.20 156.4685
1048.30 156.4349
1048.40 156.4012
1048.50 156.3676
1048.60 156.334
1048.70 156.3004
1048.80 156.2668
1048.90 156.2332
1049.00 156.1996
1049.10 156.166
1049.20 156.1324
1049.30 156.0987
1049.40 156.0651
1049.50 156.0315
1049.60 155.9979
1049.70 155.9643
1049.80 155.9307
1049.90 155.8971
1050.00 155.8635
1050.10 155.8299
1050.20 155.7962
1050.30 155.7626
1050.40 155.729
1050.50 155.6954
1050.60 155.6618
1050.70 155.6282
1050.80 155.5946
1050.90 155.561
1051.00 155.5274
1051.10 155.4937
1051.20 155.4601
1051.30 155.4265
1051.40 155.3929
1051.50 155.3593
1051.60 155.3257
1051.70 155.2921
1051.80 155.2585
1051.90 155.2249
1052.00 155.1912
1052.10 155.1576
1052.20 155.161
1052.30 155.3124
1052.40 155.4639
1052.50 155.6153
1052.60 155.7667
1052.70 155.9181
1052.80 156.0695
1052.90 156.221
1053.00 156.3724
1053.10 156.5238
1053.20 156.6752
1053.30 156.8266
1053.40 156.9781
1053.50 157.1295
1053.60 157.2809
1053.70 157.4323
1053.80 157.5837
1053.90 157.7352
1054.00 157.8866
1054.10 158.038
1054.20 158.1894
1054.30 158.3409
1054.40 158.4923
1054.50 158.6437
1054.60 158.7951
1054.70 158.9465
1054.80 159.098
1054.90 159.2494
1055.00 159.4008
1055.10 159.5522
1055.20 159.7036
1055.30 159.8551
1055.40 160.0065
1055.50 160.1579
1055.60 160.3093
1055.70 160.4607
1055.80 160.6122
1055.90 160.7636
1056.00 160.915
1056.10 161.0664
1056.20 161.2178
1056.30 161.206
1056.40 161.1942
1056.50 161.1823
1056.60 161.1705
1056.70 161.1587
1056.80 161.1469
1056.90 161.135
1057.00 161.1232
1057.10 161.1114
1057.20 161.0995
1057.30 161.0877
1057.40 161.0759
1057.50 161.064
1057.60 161.0522
1057.70 161.0404
1057.80 161.0286
1057.90 161.0167
1058.00 161.0049
1058.10 160.9931
1058.20 160.9812
1058.30 160.9694
1058.40 160.9576
1058.50 160.9457
1058.60 160.9339
1058.70 160.9221
1058.80 160.9103
1058.90 160.8984
1059.00 160.8866
1059.10 160.8748
1059.20 160.8629
1059.30 160.8511
1059.40 160.8393
1059.50 160.8274
1059.60 160.8156
1059.70 160.8038
1059.80 160.792
1059.90 160.7801
1060.00 160.7683
1060.10 160.7565
1060.20 160.7446
1060.30 160.7801
1060.40 160.8472
1060.50 160.9143
1060.60 160.9813
1060.70 161.0484
1060.80 161.1154
1060.90 161.1825
1061.00 161.2495
1061.10 161.3166
1061.20 161.3837
1061.30 161.4507
1061.40 161.5178
1061.50 161.5848
1061.60 161.6519
1061.70 161.719
1061.80 161.786
1061.90 161.8531
1062.00 161.9201
1062.10 161.9872
1062.20 162.0543
1062.30 162.1213
1062.40 162.1884
1062.50 162.2554
1062.60 162.3225
1062.70 162.3896
1062.80 162.4566
1062.90 162.5237
1063.00 162.5907
1063.10 162.6578
1063.20 162.7249
1063.30 162.7919
1063.40 162.859
1063.50 162.926
1063.60 162.9931
1063.70 163.0601
1063.80 163.1272
1063.90 163.1943
1064.00 163.2613
1064.10 163.3284
1064.20 163.3954
1064.30 163.4589
1064.40 163.5077
1064.50 163.5565
1064.60 163.6053
1064.70 163.6541
1064.80 163.703
1064.90 163.7518
1065.00 163.8006
1065.10 163.8494
1065.20 163.8983
1065.30 163.9471
1065.40 163.9959
1065.50 164.0447
1065.60 164.0935
1065.70 164.1424
1065.80 164.1912
1065.90 164.24
1066.00 164.2888
1066.10 164.3376
1066.20 164.3865
1066.30 164.4353
1066.40 164.4841
1066.50 164.5329
1066.60 164.5818
1066.70 164.6306
1066.80 164.6794
1066.90 164.7282
1067.00 164.777
1067.10 164.8259
1067.20 164.8747
1067.30 164.9235
1067.40 164.9723
1067.50 165.0212
1067.60 165.07
1067.70 165.1188
1067.80 165.1676
1067.90 165.2164
1068.00 165.2653
1068.10 165.3141
1068.20 165.3629
1068.30 165.4117
1068.40 165.5036
1068.50 165.614
1068.60 165.7244
1068.70 165.8347
1068.80 165.9451
1068.90 166.0555
1069.00 166.1658
1069.10 166.2762
1069.20 166.3866
1069.30 166.4969
1069.40 166.6073
1069.50 166.7177
1069.60 166.8281
1069.70 166.9384
1069.80 167.0488
1069.90 167.1592
1070.00 167.2695
1070.10 167.3799
1070.20 167.4903
1070.30 167.6006
1070.40 167.711
1070.50 167.8214
1070.60 167.9317
1070.70 168.0421
1070.80 168.1525
1070.90 168.2628
1071.00 168.3732
1071.10 168.4836
1071.20 168.5939
1071.30 168.7043
1071.40 168.8147
1071.50 168.9251
1071.60 169.0354
1071.70 169.1458
1071.80 169.2562
1071.90 169.3665
1072.00 169.4769
1072.10 169.5873
1072.20 169.6976
1072.30 169.808
1072.40 169.909
1072.50 169.9258
1072.60 169.9427
1072.70 169.9595
1072.80 169.9763
1072.90 169.9932
1073.00 170.01
1073.10 170.0268
1073.20 170.0437
1073.30 170.0605
1073.40 170.0773
1073.50 170.0942
1073.60 170.111
1073.70 170.1279
1073.80 170.1447
1073.90 170.1615
1074.00 170.1784
1074.10 170.1952
1074.20 170.212
1074.30 170.2289
1074.40 170.2457
1074.50 170.2625
1074.60 170.2794
1074.70 170.2962
1074.80 170.313
1074.90 170.3299
1075.00 170.3467
1075.10 170.3635
1075.20 170.3804
1075.30 170.3972
1075.40 170.414
1075.50 170.4309
1075.60 170.4477
1075.70 170.4645
1075.80 170.4814
1075.90 170.4982
1076.00 170.515
1076.10 170.5319
1076.20 170.5487
1076.30 170.5655
1076.40 170.5824
1076.50 170.6371
1076.60 170.7487
1076.70 170.8603
1076.80 170.972
1076.90 171.0836
1077.00 171.1952
1077.10 171.3068
1077.20 171.4184
1077.30 171.53
1077.40 171.6417
1077.50 171.7533
1077.60 171.8649
1077.70 171.9765
1077.80 172.0881
1077.90 172.1997
1078.00 172.3114
1078.10 172.423
1078.20 172.5346
1078.30 172.6462
1078.40 172.7578
1078.50 172.8694
1078.60 172.9811
1078.70 173.0927
1078.80 173.2043
1078.90 173.3159
1079.00 173.4275
1079.10 173.5391
1079.20 173.6507
1079.30 173.7624
1079.40 173.874
1079.50 173.9856
1079.60 174.0972
1079.70 174.2088
1079.80 174.3204
1079.90 174.4321
1080.00 174.5437
1080.10 174.6553
1080.20 174.7669
1080.30 174.8785
1080.40 174.9901
1080.50 175.1018
1080.60 175.1769
1080.70 175.2157
1080.80 175.2545
1080.90 175.2932
1081.00 175.332
1081.10 175.3707
1081.20 175.4095
1081.30 175.4482
1081.40 175.487
1081.50 175.5257
1081.60 175.5645
1081.70 175.6032
1081.80 175.642
1081.90 175.6807
1082.00 175.7195
1082.10 175.7582
1082.20 175.797
1082.30 175.8358
1082.40 175.8745
1082.50 175.9133
1082.60 175.952
1082.70 175.9908
1082.80 176.0295
1082.90 176.0683
1083.00 176.107
1083.10 176.1458
1083.20 176.1845
1083.30 176.2233
1083.40 176.262
1083.50 176.3008
1083.60 176.3395
1083.70 176.3783
1083.80 176.4171
1083.90 176.4558
1084.00 176.4946
1084.10 176.5333
1084.20 176.5721
1084.30 176.6108
1084.40 176.6496
1084.50 176.6883
1084.60 176.7271
1084.70 176.7959
1084.80 176.8846
1084.90 176.9734
1085.00 177.0622
1085.10 177.151
1085.20 177.2398
1085.30 177.3286
1085.40 177.4174
1085.50 177.5062
1085.60 177.595
1085.70 177.6838
1085.80 177.7726
1085.90 177.8613
1086.00 177.9501
1086.10 178.0389
1086.20 178.1277
1086.30 178.2165
1086.40 178.3053
1086.50 178.3941
1086.60 178.4829
1086.70 178.5717
1086.80 178.6605
1086.90 178.7493
1087.00 178.838
1087.10 178.9268
1087.20 179.0156
1087.30 179.1044
1087.40 179.1932
1087.50 179.282
1087.60 179.3708
1087.70 179.4596
1087.80 179.5484
1087.90 179.6372
1088.00 179.726
1088.10 179.8147
1088.20 179.9035
1088.30 179.9923
1088.40 180.0811
1088.50 180.1699
1088.60 180.2587
1088.70 180.3475
1088.80 180.4218
1088.90 180.4864
1089.00 180.551
1089.10 180.6156
1089.20 180.6802
1089.30 180.7448
1089.40 180.8094
1089.50 180.874
1089.60 180.9386
1089.70 181.0032
1089.80 181.0678
1089.90 181.1324
1090.00 181.197
1090.10 181.2616
1090.20 181.3262
1090.30 181.3908
1090.40 181.4554
1090.50 181.52
1090.60 181.5846
1090.70 181.6492
1090.80 181.7138
1090.90 181.7784
1091.00 181.843
1091.10 181.9076
1091.20 181.9723
1091.30 182.0369
1091.40 182.1015
1091.50 182.1661
1091.60 182.2307
1091.70 182.2953
1091.80 182.3599
1091.90 182.4245
1092.00 182.4891
1092.10 182.5537
1092.20 182.6183
1092.30 182.6829
1092.40 182.7475
1092.50 182.8121
1092.60 182.8767
1092.70 182.9413
1092.80 183.0059
1092.90 183.0741
1093.00 183.146
1093.10 183.2178
1093.20 183.2897
1093.30 183.3615
1093.40 183.4334
1093.50 183.5053
1093.60 183.5771
1093.70 183.649
1093.80 183.7208
1093.90 183.7927
1094.00 183.8645
1094.10 183.9364
1094.20 184.0082
1094.30 184.0801
1094.40 184.1519
1094.50 184.2238
1094.60 184.2956
1094.70 184.3675
1094.80 184.4393
1094.90 184.5112
1095.00 184.583
1095.10 184.6549
1095.20 184.7267
1095.30 184.7986
1095.40 184.8704
1095.50 184.9423
1095.60 185.0142
1095.70 185.086
1095.80 185.1579
1095.90 185.2297
1096.00 185.3016
1096.10 185.3734
1096.20 185.4453
1096.30 185.5171
1096.40 185.589
1096.50 185.6608
1096.60 185.7327
1096.70 185.8045
1096.80 185.8764
1096.90 185.9482
1097.00 185.9919
1097.10 185.9696
1097.20 185.9474
1097.30 185.9252
1097.40 185.9029
1097.50 185.8807
1097.60 185.8585
1097.70 185.8362
1097.80 185.814
1097.90 185.7918
1098.00 185.7695
1098.10 185.7473
1098.20 185.7251
1098.30 185.7029
1098.40 185.6806
1098.50 185.6584
1098.60 185.6362
1098.70 185.6139
1098.80 185.5917
1098.90 185.5695
1099.00 185.5472
1099.10 185.525
1099.20 185.5028
1099.30 185.4805
1099.40 185.4583
1099.50 185.4361
1099.60 185.4138
1099.70 185.3916
1099.80 185.3694
1099.90 185.3472
1100.00 185.3249
1100.10 185.3027
1100.20 185.2805
1100.30 185.2582
1100.40 185.236
1100.50 185.2138
1100.60 185.1915
1100.70 185.1693
1100.80 185.1471
1100.90 185.1248
1101.00 185.1026
1101.10 185.0804
1101.20 185.08
1101.30 185.0797
1101.40 185.0793
1101.50 185.079
1101.60 185.0786
1101.70 185.0783
1101.80 185.0779
1101.90 185.0776
1102.00 185.0772
1102.10 185.0769
1102.20 185.0765
1102.30 185.0762
1102.40 185.0758
1102.50 185.0755
1102.60 185.0752
1102.70 185.0748
1102.80 185.0745
1102.90 185.0741
1103.00 185.0738
1103.10 185.0734
1103.20 185.0731
1103.30 185.0727
1103.40 185.0724
1103.50 185.072
1103.60 185.0717
1103.70 185.0713
1103.80 185.071
1103.90 185.0706
1104.00 185.0703
1104.10 185.0699
1104.20 185.0696
1104.30 185.0692
1104.40 185.0689
1104.50 185.0685
1104.60 185.0682
1104.70 185.0678
1104.80 185.0675
1104.90 185.0671
1105.00 185.0668
1105.10 185.0664
1105.20 185.0661
1105.30 185.0539
1105.40 185.0338
1105.50 185.0137
1105.60 184.9936
1105.70 184.9735
1105.80 184.9534
1105.90 184.9333
1106.00 184.9132
1106.10 184.8931
1106.20 184.873
1106.30 184.8529
1106.40 184.8327
1106.50 184.8126
1106.60 184.7925
1106.70 184.7724
1106.80 184.7523
1106.90 184.7322
1107.00 184.7121
1107.10 184.692
1107.20 184.6719
1107.30 184.6518
1107.40 184.6317
1107.50 184.6116
1107.60 184.5915
1107.70 184.5714
1107.80 184.5513
1107.90 184.5312
1108.00 184.5111
1108.10 184.491
1108.20 184.4709
1108.30 184.4508
1108.40 184.4307
1108.50 184.4106
1108.60 184.3905
1108.70 184.3703
1108.80 184.3502
1108.90 184.3301
1109.00 184.31
1109.10 184.2899
1109.20 184.2698
1109.30 184.2497
1109.40 184.2394
1109.50 184.2685
1109.60 184.2975
1109.70 184.3266
1109.80 184.3556
1109.90 184.3846
1110.00 184.4137
1110.10 184.4427
1110.20 184.4718
1110.30 184.5008
1110.40 184.5298
1110.50 184.5589
1110.60 184.5879
1110.70 184.6169
1110.80 184.646
1110.90 184.675
1111.00 184.7041
1111.10 184.7331
1111.20 184.7621
1111.30 184.7912
1111.40 184.8202
1111.50 184.8493
1111.60 184.8783
1111.70 184.9073
1111.80 184.9364
1111.90 184.9654
1112.00 184.9944
1112.10 185.0235
1112.20 185.0525
1112.30 185.0816
1112.40 185.1106
1112.50 185.1396
1112.60 185.1687
1112.70 185.1977
1112.80 185.2267
1112.90 185.2558
1113.00 185.2848
1113.10 185.3139
1113.20 185.3429
1113.30 185.3719
1113.40 185.401
1113.50 185.43
1113.60 185.4702
1113.70 185.5179
1113.80 185.5655
1113.90 185.6131
1114.00 185.6608
1114.10 185.7084
1114.20 185.7561
1114.30 185.8037
1114.40 185.8513
1114.50 185.899
1114.60 185.9466
1114.70 185.9943
1114.80 186.0419
1114.90 186.0895
1115.00 186.1372
1115.10 186.1848
1115.20 186.2325
1115.30 186.2801
1115.40 186.3277
1115.50 186.3754
1115.60 186.423
1115.70 186.4707
1115.80 186.5183
1115.90 186.5659
1116.00 186.6136
1116.10 186.6612
1116.20 186.7089
1116.30 186.7565
1116.40 186.8041
1116.50 186.8518
1116.60 186.8994
1116.70 186.947
1116.80 186.9947
1116.90 187.0423
1117.00 187.09
1117.10 187.1376
1117.20 187.1852
1117.30 187.2329
1117.40 187.2805
1117.50 187.3282
1117.60 187.3758
1117.70 187.4234
1117.80 187.4609
1117.90 187.4984
1118.00 187.5359
1118.10 187.5734
1118.20 187.6108
1118.30 187.6483
1118.40 187.6858
1118.50 187.7233
1118.60 187.7608
1118.70 187.7982
1118.80 187.8357
1118.90 187.8732
1119.00 187.9107
1119.10 187.9482
1119.20 187.9856
1119.30 188.0231
1119.40 188.0606
1119.50 188.0981
1119.60 188.1356
1119.70 188.173
1119.80 188.2105
1119.90 188.248
1120.00 188.2855
1120.10 188.3229
1120.20 188.3604
1120.30 188.3979
1120.40 188.4354
1120.50 188.4729
1120.60 188.5103
1120.70 188.5478
1120.80 188.5853
1120.90 188.6228
1121.00 188.6603
1121.10 188.6977
1121.20 188.7352
1121.30 188.7727
1121.40 188.8102
1121.50 188.8477
1121.60 188.8851
1121.70 188.9226
1121.80 188.9601
1121.90 188.9741
1122.00 188.9333
1122.10 188.8926
1122.20 188.8518
1122.30 188.811
1122.40 188.7702
1122.50 188.7295
1122.60 188.6887
1122.70 188.6479
1122.80 188.6072
1122.90 188.5664
1123.00 188.5256
1123.10 188.4849
1123.20 188.4441
1123.30 188.4033
1123.40 188.3625
1123.50 188.3218
1123.60 188.281
1123.70 188.2402
1123.80 188.1995
1123.90 188.1587
1124.00 188.1179
1124.10 188.0772
1124.20 188.0364
1124.30 187.9956
1124.40 187.9548
1124.50 187.9141
1124.60 187.8733
1124.70 187.8325
1124.80 187.7918
1124.90 187.751
1125.00 187.7102
1125.10 187.6694
1125.20 187.6287
1125.30 187.5879
1125.40 187.5471
1125.50 187.5064
1125.60 187.4656
1125.70 187.4248
1125.80 187.3841
1125.90 187.3433
1126.00 187.3025
1126.10 187.2515
1126.20 187.1902
1126.30 187.1288
1126.40 187.0675
1126.50 187.0062
1126.60 186.9449
1126.70 186.8836
1126.80 186.8223
1126.90 186.761
1127.00 186.6997
1127.10 186.6384
1127.20 186.577
1127.30 186.5157
1127.40 186.4544
1127.50 186.3931
1127.60 186.3318
1127.70 186.2705
1127.80 186.2092
1127.90 186.1479
1128.00 186.0865
1128.10 186.0252
1128.20 185.9639
1128.30 185.9026
1128.40 185.8413
1128.50 185.78
1128.60 185.7187
1128.70 185.6574
1128.80 185.596
1128.90 185.5347
1129.00 185.4734
1129.10 185.4121
1129.20 185.3508
1129.30 185.2895
1129.40 185.2282
1129.50 185.1669
1129.60 185.1055
1129.70 185.0442
1129.80 184.9829
1129.90 184.9216
1130.00 184.8603
1130.10 184.799
1130.20 184.7377
1130.30 184.6412
1130.40 184.5296
1130.50 184.418
1130.60 184.3064
1130.70 184.1949
1130.80 184.0833
1130.90 183.9717
1131.00 183.8601
1131.10 183.7485
1131.20 183.6369
1131.30 183.5254
1131.40 183.4138
1131.50 183.3022
1131.60 183.1906
1131.70 183.079
1131.80 182.9675
1131.90 182.8559
1132.00 182.7443
1132.10 182.6327
1132.20 182.5211
1132.30 182.4096
1132.40 182.298
1132.50 182.1864
1132.60 182.0748
1132.70 181.9632
1132.80 181.8517
1132.90 181.7401
1133.00 181.6285
1133.10 181.5169
1133.20 181.4053
1133.30 181.2937
1133.40 181.1822
1133.50 181.0706
1133.60 180.959
1133.70 180.8474
1133.80 180.7358
1133.90 180.6243
1134.00 180.5127
1134.10 180.4011
1134.20 180.2895
1134.30 180.1779
1134.40 180.0664
1134.50 180.0274
1134.60 180.0067
1134.70 179.986
1134.80 179.9652
1134.90 179.9445
1135.00 179.9237
1135.10 179.903
1135.20 179.8822
1135.30 179.8615
1135.40 179.8408
1135.50 179.82
1135.60 179.7993
1135.70 179.7785
1135.80 179.7578
1135.90 179.737
1136.00 179.7163
1136.10 179.6956
1136.20 179.6748
1136.30 179.6541
1136.40 179.6333
1136.50 179.6126
1136.60 179.5918
1136.70 179.5711
1136.80 179.5504
1136.90 179.5296
1137.00 179.5089
1137.10 179.4881
1137.20 179.4674
1137.30 179.4466
1137.40 179.4259
1137.50 179.4051
1137.60 179.3844
1137.70 179.3637
1137.80 179.3429
1137.90 179.3222
1138.00 179.3014
1138.10 179.2807
1138.20 179.2599
1138.30 179.2392
1138.40 179.2185
1138.50 179.1977
1138.60 179.177
1138.70 179.2484
1138.80 179.3429
1138.90 179.4374
1139.00 179.5319
1139.10 179.6264
1139.20 179.7209
1139.30 179.8154
1139.40 179.9099
1139.50 180.0044
1139.60 180.0989
1139.70 180.1934
1139.80 180.2879
1139.90 180.3824
1140.00 180.4769
1140.10 180.5714
1140.20 180.6659
1140.30 180.7604
1140.40 180.8548
1140.50 180.9493
1140.60 181.0438
1140.70 181.1383
1140.80 181.2328
1140.90 181.3273
1141.00 181.4218
1141.10 181.5163
1141.20 181.6108
1141.30 181.7053
1141.40 181.7998
1141.50 181.8943
1141.60 181.9888
1141.70 182.0833
1141.80 182.1778
1141.90 182.2723
1142.00 182.3668
1142.10 182.4613
1142.20 182.5558
1142.30 182.6503
1142.40 182.7448
1142.50 182.8393
1142.60 182.9338
1142.70 183.0283
1142.80 183.1227
1142.90 183.3526
1143.00 183.6163
1143.10 183.88
1143.20 184.1437
1143.30 184.4073
1143.40 184.671
1143.50 184.9347
1143.60 185.1984
1143.70 185.4621
1143.80 185.7258
1143.90 185.9895
1144.00 186.2532
1144.10 186.5168
1144.20 186.7805
1144.30 187.0442
1144.40 187.3079
1144.50 187.5716
1144.60 187.8353
1144.70 188.099
1144.80 188.3627
1144.90 188.6263
1145.00 188.89
1145.10 189.1537
1145.20 189.4174
1145.30 189.6811
1145.40 189.9448
1145.50 190.2085
1145.60 190.4722
1145.70 190.7358
1145.80 190.9995
1145.90 191.2632
1146.00 191.5269
1146.10 191.7906
1146.20 192.0543
1146.30 192.318
1146.40 192.5817
1146.50 192.8453
1146.60 193.109
1146.70 193.3727
1146.80 193.6364
1146.90 193.9001
1147.00 194.1638
1147.10 194.2966
1147.20 194.342
1147.30 194.3875
1147.40 194.433
1147.50 194.4785
1147.60 194.524
1147.70 194.5695
1147.80 194.6149
1147.90 194.6604
1148.00 194.7059
1148.10 194.7514
1148.20 194.7969
1148.30 194.8424
1148.40 194.8879
1148.50 194.9333
1148.60 194.9788
1148.70 195.0243
1148.80 195.0698
1148.90 195.1153
1149.00 195.1608
1149.10 195.2063
1149.20 195.2517
1149.30 195.2972
1149.40 195.3427
1149.50 195.3882
1149.60 195.4337
1149.70 195.4792
1149.80 195.5247
1149.90 195.5701
1150.00 195.6156
1150.10 195.6611
1150.20 195.7066
1150.30 195.7521
1150.40 195.7976
1150.50 195.843
1150.60 195.8885
1150.70 195.934
1150.80 195.9795
1150.90 196.025
1151.00 196.0705
1151.10 196.116
1151.20 196.1614
1151.30 196.219
1151.40 196.2885
1151.50 196.358
1151.60 196.4275
1151.70 196.4971
1151.80 196.5666
1151.90 196.6361
1152.00 196.7057
1152.10 196.7752
1152.20 196.8447
1152.30 196.9143
1152.40 196.9838
1152.50 197.0533
1152.60 197.1229
1152.70 197.1924
1152.80 197.2619
1152.90 197.3315
1153.00 197.401
1153.10 197.4705
1153.20 197.5401
1153.30 197.6096
1153.40 197.6791
1153.50 197.7487
1153.60 197.8182
1153.70 197.8877
1153.80 197.9573
1153.90 198.0268
1154.00 198.0963
1154.10 198.1658
1154.20 198.2354
1154.30 198.3049
1154.40 198.3744
1154.50 198.444
1154.60 198.5135
1154.70 198.583
1154.80 198.6526
1154.90 198.7221
1155.00 198.7916
1155.10 198.8612
1155.20 198.9307
1155.30 199.0002
1155.40 199.0698
1155.50 199.1143
1155.60 199.0588
1155.70 199.0033
1155.80 198.9479
1155.90 198.8924
1156.00 198.8369
1156.10 198.7814
1156.20 198.726
1156.30 198.6705
1156.40 198.615
1156.50 198.5595
1156.60 198.5041
1156.70 198.4486
1156.80 198.3931
1156.90 198.3376
1157.00 198.2822
1157.10 198.2267
1157.20 198.1712
1157.30 198.1157
1157.40 198.0603
1157.50 198.0048
1157.60 197.9493
1157.70 197.8938
1157.80 197.8384
1157.90 197.7829
1158.00 197.7274
1158.10 197.6719
1158.20 197.6165
1158.30 197.561
1158.40 197.5055
1158.50 197.45
1158.60 197.3946
1158.70 197.3391
1158.80 197.2836
1158.90 197.2281
1159.00 197.1727
1159.10 197.1172
1159.20 197.0617
1159.30 197.0062
1159.40 196.9508
1159.50 196.8953
1159.60 196.8398
1159.70 196.7843
1159.80 196.7084
1159.90 196.6302
1160.00 196.5519
1160.10 196.4737
1160.20 196.3954
1160.30 196.3172
1160.40 196.239
1160.50 196.1607
1160.60 196.0825
1160.70 196.0043
1160.80 195.926
1160.90 195.8478
1161.00 195.7696
1161.10 195.6913
1161.20 195.6131
1161.30 195.5349
1161.40 195.4566
1161.50 195.3784
1161.60 195.3002
1161.70 195.2219
1161.80 195.1437
1161.90 195.0655
1162.00 194.9872
1162.10 194.909
1162.20 194.8307
1162.30 194.7525
1162.40 194.6743
1162.50 194.596
1162.60 194.5178
1162.70 194.4396
1162.80 194.3613
1162.90 194.2831
1163.00 194.2049
1163.10 194.1266
1163.20 194.0484
1163.30 193.9702
1163.40 193.8919
1163.50 193.8137
1163.60 193.7355
1163.70 193.6572
1163.80 193.579
1163.90 193.5008
1164.00 193.41
1164.10 193.3109
1164.20 193.2117
1164.30 193.1126
1164.40 193.0135
1164.50 192.9144
1164.60 192.8152
1164.70 192.7161
1164.80 192.617
1164.90 192.5179
1165.00 192.4188
1165.10 192.3196
1165.20 192.2205
1165.30 192.1214
1165.40 192.0223
1165.50 191.9231
1165.60 191.824
1165.70 191.7249
1165.80 191.6258
1165.90 191.5266
1166.00 191.4275
1166.10 191.3284
1166.20 191.2293
1166.30 191.1301
1166.40 191.031
1166.50 190.9319
1166.60 190.8328
1166.70 190.7337
1166.80 190.6345
1166.90 190.5354
1167.00 190.4363
1167.10 190.3372
1167.20 190.238
1167.30 190.1389
1167.40 190.0398
1167.50 189.9407
1167.60 189.8415
1167.70 189.7424
1167.80 189.6433
1167.90 189.5442
1168.00 189.445
1168.10 189.3459
1168.20 189.2416
1168.30 189.1167
1168.40 188.9917
1168.50 188.8667
1168.60 188.7417
1168.70 188.6168
1168.80 188.4918
1168.90 188.3668
1169.00 188.2418
1169.10 188.1169
1169.20 187.9919
1169.30 187.8669
1169.40 187.7419
1169.50 187.617
1169.60 187.492
1169.70 187.367
1169.80 187.242
1169.90 187.1171
1170.00 186.9921
1170.10 186.8671
1170.20 186.7421
1170.30 186.6172
1170.40 186.4922
1170.50 186.3672
1170.60 186.2422
1170.70 186.1173
1170.80 185.9923
1170.90 185.8673
1171.00 185.7423
1171.10 185.6174
1171.20 185.4924
1171.30 185.3674
1171.40 185.2424
1171.50 185.1175
1171.60 184.9925
1171.70 184.8675
1171.80 184.7425
1171.90 184.6176
1172.00 184.4926
1172.10 184.3676
1172.20 184.2426
1172.30 184.1177
1172.40 183.9927
1172.50 183.9763
1172.60 184.0064
1172.70 184.0365
1172.80 184.0666
1172.90 184.0967
1173.00 184.1268
1173.10 184.1569
1173.20 184.187
1173.30 184.2171
1173.40 184.2472
1173.50 184.2773
1173.60 184.3074
1173.70 184.3375
1173.80 184.3676
1173.90 184.3977
1174.00 184.4278
1174.10 184.4579
1174.20 184.488
1174.30 184.5181
1174.40 184.5482
1174.50 184.5783
1174.60 184.6084
1174.70 184.6385
1174.80 184.6686
1174.90 184.6987
1175.00 184.7288
1175.10 184.7589
1175.20 184.789
1175.30 184.8191
1175.40 184.8492
1175.50 184.8793
1175.60 184.9094
1175.70 184.9395
1175.80 184.9696
1175.90 184.9997
1176.00 185.0298
1176.10 185.0599
1176.20 185.09
1176.30 185.1201
1176.40 185.1502
1176.50 185.1803
1176.60 185.2104
1176.70 185.2436
1176.80 185.2896
1176.90 185.3356
1177.00 185.3815
1177.10 185.4275
1177.20 185.4735
1177.30 185.5195
1177.40 185.5654
1177.50 185.6114
1177.60 185.6574
1177.70 185.7033
1177.80 185.7493
1177.90 185.7953
1178.00 185.8412
1178.10 185.8872
1178.20 185.9332
1178.30 185.9792
1178.40 186.0251
1178.50 186.0711
1178.60 186.1171
1178.70 186.163
1178.80 186.209
1178.90 186.255
1179.00 186.3009
1179.10 186.3469
1179.20 186.3929
1179.30 186.4389
1179.40 186.4848
1179.50 186.5308
1179.60 186.5768
1179.70 186.6227
1179.80 186.6687
1179.90 186.7147
1180.00 186.7607
1180.10 186.8066
1180.20 186.8526
1180.30 186.8986
1180.40 186.9445
1180.50 186.9905
1180.60 187.0365
1180.70 187.0824
1180.80 187.1284
1180.90 187.1744
1181.00 187.2795
1181.10 187.4241
1181.20 187.5687
1181.30 187.7133
1181.40 187.8579
1181.50 188.0025
1181.60 188.1471
1181.70 188.2917
1181.80 188.4363
1181.90 188.5809
1182.00 188.7255
1182.10 188.8702
1182.20 189.0148
1182.30 189.1594
1182.40 189.304
1182.50 189.4486
1182.60 189.5932
1182.70 189.7378
1182.80 189.8824
1182.90 190.027
1183.00 190.1716
1183.10 190.3162
1183.20 190.4608
1183.30 190.6054
1183.40 190.75
1183.50 190.8946
1183.60 191.0392
1183.70 191.1838
1183.80 191.3284
1183.90 191.473
1184.00 191.6176
1184.10 191.7622
1184.20 191.9068
1184.30 192.0514
1184.40 192.196
1184.50 192.3406
1184.60 192.4852
1184.70 192.6298
1184.80 192.7744
1184.90 192.919
1185.00 193.0636
1185.10 193.2082
1185.20 193.3528
1185.30 193.4314
1185.40 193.5101
1185.50 193.5888
1185.60 193.6674
1185.70 193.7461
1185.80 193.8247
1185.90 193.9034
1186.00 193.9821
1186.10 194.0607
1186.20 194.1394
1186.30 194.218
1186.40 194.2967
1186.50 194.3754
1186.60 194.454
1186.70 194.5327
1186.80 194.6113
1186.90 194.69
1187.00 194.7687
1187.10 194.8473
1187.20 194.926
1187.30 195.0046
1187.40 195.0833
1187.50 195.162
1187.60 195.2406
1187.70 195.3193
1187.80 195.3979
1187.90 195.4766
1188.00 195.5553
1188.10 195.6339
1188.20 195.7126
1188.30 195.7912
1188.40 195.8699
1188.50 195.9486
1188.60 196.0272
1188.70 196.1059
1188.80 196.1845
1188.90 196.2632
1189.00 196.3419
1189.10 196.4205
1189.20 196.4992
1189.30 196.5778
1189.40 196.6565
1189.50 196.6508
1189.60 196.5186
1189.70 196.3864
1189.80 196.2543
1189.90 196.1221
1190.00 195.9899
1190.10 195.8577
1190.20 195.7255
1190.30 195.5933
1190.40 195.4611
1190.50 195.329
1190.60 195.1968
1190.70 195.0646
1190.80 194.9324
1190.90 194.8002
1191.00 194.668
1191.10 194.5358
1191.20 194.4037
1191.30 194.2715
1191.40 194.1393
1191.50 194.0071
1191.60 193.8749
1191.70 193.7427
1191.80 193.6105
1191.90 193.4783
1192.00 193.3462
1192.10 193.214
1192.20 193.0818
1192.30 192.9496
1192.40 192.8174
1192.50 192.6852
1192.60 192.553
1192.70 192.4209
1192.80 192.2887
1192.90 192.1565
1193.00 192.0243
1193.10 191.8921
1193.20 191.7599
1193.30 191.6277
1193.40 191.4956
1193.50 191.3634
1193.60 191.2312
1193.70 191.099
1193.80 190.9892
1193.90 190.889
1194.00 190.7888
1194.10 190.6886
1194.20 190.5884
1194.30 190.4882
1194.40 190.388
1194.50 190.2878
1194.60 190.1876
1194.70 190.0874
1194.80 189.9873
1194.90 189.8871
1195.00 189.7869
1195.10 189.6867
1195.20 189.5865
1195.30 189.4863
1195.40 189.3861
1195.50 189.2859
1195.60 189.1857
1195.70 189.0855
1195.80 188.9853
1195.90 188.8851
1196.00 188.7849
1196.10 188.6847
1196.20 188.5845
1196.30 188.4843
1196.40 188.3841
1196.50 188.2839
1196.60 188.1837
1196.70 188.0836
1196.80 187.9834
1196.90 187.8832
1197.00 187.783
1197.10 187.6828
1197.20 187.5826
1197.30 187.4824
1197.40 187.3822
1197.50 187.282
1197.60 187.1818
1197.70 187.0816
1197.80 186.9814
1197.90 186.8812
1198.00 186.781
1198.10 186.8098
1198.20 186.8529
1198.30 186.8961
1198.40 186.9392
1198.50 186.9823
1198.60 187.0255
1198.70 187.0686
1198.80 187.1117
1198.90 187.1548
1199.00 187.198
1199.10 187.2411
1199.20 187.2842
1199.30 187.3273
1199.40 187.3705
1199.50 187.4136
1199.60 187.4567
1199.70 187.4999
1199.80 187.543
1199.90 187.5861
1200.00 187.6292
1200.10 187.6724
1200.20 187.7155
1200.30 187.7586
1200.40 187.8017
1200.50 187.8449
1200.60 187.888
1200.70 187.9311
1200.80 187.9743
1200.90 188.0174
1201.00 188.0605
1201.10 188.1036
1201.20 188.1468
1201.30 188.1899
1201.40 188.233
1201.50 188.2762
1201.60 188.3193
1201.70 188.3624
1201.80 188.4055
1201.90 188.4487
1202.00 188.4918
1202.10 188.5349
1202.20 188.578
1202.30 188.6278
1202.40 188.7367
1202.50 188.8456
1202.60 188.9546
1202.70 189.0635
1202.80 189.1725
1202.90 189.2814
1203.00 189.3904
1203.10 189.4993
1203.20 189.6083
1203.30 189.7172
1203.40 189.8261
1203.50 189.9351
1203.60 190.044
1203.70 190.153
1203.80 190.2619
1203.90 190.3709
1204.00 190.4798
1204.10 190.5888
1204.20 190.6977
1204.30 190.8066
1204.40 190.9156
1204.50 191.0245
1204.60 191.1335
1204.70 191.2424
1204.80 191.3514
1204.90 191.4603
1205.00 191.5693
1205.10 191.6782
1205.20 191.7872
1205.30 191.8961
1205.40 192.005
1205.50 192.114
1205.60 192.2229
1205.70 192.3319
1205.80 192.4408
1205.90 192.5498
1206.00 192.6587
1206.10 192.7677
1206.20 192.8766
1206.30 192.9855
1206.40 193.0945
1206.50 193.2034
1206.60 193.3222
1206.70 193.464
1206.80 193.6058
1206.90 193.7475
1207.00 193.8893
1207.10 194.0311
1207.20 194.1729
1207.30 194.3146
1207.40 194.4564
1207.50 194.5982
1207.60 194.7399
1207.70 194.8817
1207.80 195.0235
1207.90 195.1653
1208.00 195.307
1208.10 195.4488
1208.20 195.5906
1208.30 195.7323
1208.40 195.8741
1208.50 196.0159
1208.60 196.1577
1208.70 196.2994
1208.80 196.4412
1208.90 196.583
1209.00 196.7247
1209.10 196.8665
1209.20 197.0083
1209.30 197.1501
1209.40 197.2918
1209.50 197.4336
1209.60 197.5754
1209.70 197.7171
1209.80 197.8589
1209.90 198.0007
1210.00 198.1425
1210.10 198.2842
1210.20 198.426
1210.30 198.5678
1210.40 198.7095
1210.50 198.8513
1210.60 198.9931
1210.70 199.1349
1210.80 199.2766
1210.90 199.3946
1211.00 199.4887
1211.10 199.5829
1211.20 199.677
1211.30 199.7712
1211.40 199.8653
1211.50 199.9595
1211.60 200.0536
1211.70 200.1478
1211.80 200.2419
1211.90 200.3361
1212.00 200.4302
1212.10 200.5244
1212.20 200.6185
1212.30 200.7127
1212.40 200.8068
1212.50 200.901
1212.60 200.9951
1212.70 201.0893
1212.80 201.1834
1212.90 201.2776
1213.00 201.3717
1213.10 201.4659
1213.20 201.56
1213.30 201.6542
1213.40 201.7483
1213.50 201.8425
1213.60 201.9366
1213.70 202.0308
1213.80 202.125
1213.90 202.2191
1214.00 202.3133
1214.10 202.4074
1214.20 202.5016
1214.30 202.5957
1214.40 202.6899
1214.50 202.784
1214.60 202.8782
1214.70 202.9723
1214.80 203.0665
1214.90 203.1606
1215.00 203.2548
1215.10 203.3489
1215.20 203.4635
1215.30 203.5916
1215.40 203.7198
1215.50 203.8479
1215.60 203.9761
1215.70 204.1043
1215.80 204.2324
1215.90 204.3606
1216.00 204.4887
1216.10 204.6169
1216.20 204.7451
1216.30 204.8732
1216.40 205.0014
1216.50 205.1295
1216.60 205.2577
1216.70 205.3858
1216.80 205.514
1216.90 205.6422
1217.00 205.7703
1217.10 205.8985
1217.20 206.0266
1217.30 206.1548
1217.40 206.283
1217.50 206.4111
1217.60 206.5393
1217.70 206.6674
1217.80 206.7956
1217.90 206.9238
1218.00 207.0519
1218.10 207.1801
1218.20 207.3082
1218.30 207.4364
1218.40 207.5645
1218.50 207.6927
1218.60 207.8209
1218.70 207.949
1218.80 208.0772
1218.90 208.2053
1219.00 208.3335
1219.10 208.4617
1219.20 208.5898
1219.30 208.718
1219.40 208.8461
1219.50 208.9522
1219.60 209.0487
1219.70 209.1453
1219.80 209.2419
1219.90 209.3384
1220.00 209.435
1220.10 209.5316
1220.20 209.6281
1220.30 209.7247
1220.40 209.8213
1220.50 209.9178
1220.60 210.0144
1220.70 210.111
1220.80 210.2075
1220.90 210.3041
1221.00 210.4007
1221.10 210.4972
1221.20 210.5938
1221.30 210.6904
1221.40 210.787
1221.50 210.8835
1221.60 210.9801
1221.70 211.0767
1221.80 211.1732
1221.90 211.2698
1222.00 211.3664
1222.10 211.4629
1222.20 211.5595
1222.30 211.6561
1222.40 211.7526
1222.50 211.8492
1222.60 211.9458
1222.70 212.0423
1222.80 212.1389
1222.90 212.2355
1223.00 212.332
1223.10 212.4286
1223.20 212.5252
1223.30 212.6217
1223.40 212.7183
1223.50 212.8149
1223.60 212.9114
1223.70 213.008
1223.80 213.0415
1223.90 213.0479
1224.00 213.0543
1224.10 213.0607
1224.20 213.0671
1224.30 213.0735
1224.40 213.08
1224.50 213.0864
1224.60 213.0928
1224.70 213.0992
1224.80 213.1056
1224.90 213.112
1225.00 213.1185
1225.10 213.1249
1225.20 213.1313
1225.30 213.1377
1225.40 213.1441
1225.50 213.1505
1225.60 213.1569
1225.70 213.1634
1225.80 213.1698
1225.90 213.1762
1226.00 213.1826
1226.10 213.189
1226.20 213.1954
1226.30 213.2019
1226.40 213.2083
1226.50 213.2147
1226.60 213.2211
1226.70 213.2275
1226.80 213.2339
1226.90 213.2404
1227.00 213.2468
1227.10 213.2532
1227.20 213.2596
1227.30 213.266
1227.40 213.2724
1227.50 213.2789
1227.60 213.2853
1227.70 213.2917
1227.80 213.2981
1227.90 213.3045
1228.00 213.3109
1228.10 213.3032
1228.20 213.292
1228.30 213.2808
1228.40 213.2695
1228.50 213.2583
1228.60 213.247
1228.70 213.2358
1228.80 213.2246
1228.90 213.2133
1229.00 213.2021
1229.10 213.1908
1229.20 213.1796
1229.30 213.1684
1229.40 213.1571
1229.50 213.1459
1229.60 213.1346
1229.70 213.1234
1229.80 213.1122
1229.90 213.1009
1230.00 213.0897
1230.10 213.0784
1230.20 213.0672
1230.30 213.056
1230.40 213.0447
1230.50 213.0335
1230.60 213.0222
1230.70 213.011
1230.80 212.9998
1230.90 212.9885
1231.00 212.9773
1231.10 212.966
1231.20 212.9548
1231.30 212.9436
1231.40 212.9323
1231.50 212.9211
1231.60 212.9098
1231.70 212.8986
1231.80 212.8874
1231.90 212.8761
1232.00 212.8649
1232.10 212.8537
1232.20 212.8424
1232.30 212.8312
1232.40 212.6862
1232.50 212.5078
1232.60 212.3294
1232.70 212.151
1232.80 211.9726
1232.90 211.7942
1233.00 211.6158
1233.10 211.4374
1233.20 211.259
1233.30 211.0806
1233.40 210.9022
1233.50 210.7238
1233.60 210.5454
1233.70 210.367
1233.80 210.1886
1233.90 210.0102
1234.00 209.8318
1234.10 209.6534
1234.20 209.475
1234.30 209.2966
1234.40 209.1182
1234.50 208.9398
1234.60 208.7614
1234.70 208.583
1234.80 208.4046
1234.90 208.2262
1235.00 208.0478
1235.10 207.8694
1235.20 207.691
1235.30 207.5126
1235.40 207.3342
1235.50 207.1558
1235.60 206.9774
1235.70 206.799
1235.80 206.6206
1235.90 206.4422
1236.00 206.2638
1236.10 206.0854
1236.20 205.907
1236.30 205.7286
1236.40 205.5502
1236.50 205.3718
1236.60 205.1934
1236.70 205.0936
1236.80 205.0274
1236.90 204.9612
1237.00 204.895
1237.10 204.8288
1237.20 204.7626
1237.30 204.6964
1237.40 204.6302
1237.50 204.564
1237.60 204.4978
1237.70 204.4316
1237.80 204.3654
1237.90 204.2992
1238.00 204.233
1238.10 204.1668
1238.20 204.1007
1238.30 204.0345
1238.40 203.9683
1238.50 203.9021
1238.60 203.8359
1238.70 203.7697
1238.80 203.7035
1238.90 203.6373
1239.00 203.5711
1239.10 203.5049
1239.20 203.4387
1239.30 203.3725
1239.40 203.3063
1239.50 203.2401
1239.60 203.1739
1239.70 203.1078
1239.80 203.0416
1239.90 202.9754
1240.00 202.9092
1240.10 202.843
1240.20 202.7768
1240.30 202.7106
1240.40 202.6444
1240.50 202.5782
1240.60 202.512
1240.70 202.4458
1240.80 202.3796
1240.90 202.3134
1241.00 202.2424
1241.10 202.1693
1241.20 202.0962
1241.30 202.0231
1241.40 201.95
1241.50 201.8769
1241.60 201.8038
1241.70 201.7307
1241.80 201.6576
1241.90 201.5845
1242.00 201.5114
1242.10 201.4383
1242.20 201.3652
1242.30 201.2921
1242.40 201.219
1242.50 201.1459
1242.60 201.0727
1242.70 200.9996
1242.80 200.9265
1242.90 200.8534
1243.00 200.7803
1243.10 200.7072
1243.20 200.6341
1243.30 200.561
1243.40 200.4879
1243.50 200.4148
1243.60 200.3417
1243.70 200.2686
1243.80 200.1955
1243.90 200.1224
1244.00 200.0493
1244.10 199.9762
1244.20 199.9031
1244.30 199.83
1244.40 199.7569
1244.50 199.6838
1244.60 199.6107
1244.70 199.5376
1244.80 199.4645
1244.90 199.3914
1245.00 199.3183
1245.10 199.2452
1245.20 199.1721
1245.30 199.2278
1245.40 199.3693
1245.50 199.5109
1245.60 199.6524
1245.70 199.794
1245.80 199.9356
1245.90 200.0771
1246.00 200.2187
1246.10 200.3603
1246.20 200.5018
1246.30 200.6434
1246.40 200.7849
1246.50 200.9265
1246.60 201.0681
1246.70 201.2096
1246.80 201.3512
1246.90 201.4928
1247.00 201.6343
1247.10 201.7759
1247.20 201.9174
1247.30 202.059
1247.40 202.2006
1247.50 202.3421
1247.60 202.4837
1247.70 202.6253
1247.80 202.7668
1247.90 202.9084
1248.00 203.0499
1248.10 203.1915
1248.20 203.3331
1248.30 203.4746
1248.40 203.6162
1248.50 203.7578
1248.60 203.8993
1248.70 204.0409
1248.80 204.1824
1248.90 204.324
1249.00 204.4656
1249.10 204.6071
1249.20 204.7487
1249.30 204.8903
1249.40 205.0318
1249.50 205.1734
1249.60 205.3063
1249.70 205.4306
1249.80 205.555
1249.90 205.6793
1250.00 205.8036
1250.10 205.9279
1250.20 206.0523
1250.30 206.1766
1250.40 206.3009
1250.50 206.4252
1250.60 206.5496
1250.70 206.6739
1250.80 206.7982
1250.90 206.9225
1251.00 207.0469
1251.10 207.1712
1251.20 207.2955
1251.30 207.4198
1251.40 207.5442
1251.50 207.6685
1251.60 207.7928
1251.70 207.9171
1251.80 208.0415
1251.90 208.1658
1252.00 208.2901
1252.10 208.4144
1252.20 208.5387
1252.30 208.6631
1252.40 208.7874
1252.50 208.9117
1252.60 209.036
1252.70 209.1604
1252.80 209.2847
1252.90 209.409
1253.00 209.5333
1253.10 209.6577
1253.20 209.782
1253.30 209.9063
1253.40 210.0306
1253.50 210.155
1253.60 210.2793
1253.70 210.4036
1253.80 210.5279
1253.90 210.6846
1254.00 210.8899
1254.10 211.0952
1254.20 211.3004
1254.30 211.5057
1254.40 211.711
1254.50 211.9162
1254.60 212.1215
1254.70 212.3268
1254.80 212.532
1254.90 212.7373
1255.00 212.9425
1255.10 213.1478
1255.20 213.3531
1255.30 213.5583
1255.40 213.7636
1255.50 213.9689
1255.60 214.1741
1255.70 214.3794
1255.80 214.5847
1255.90 214.7899
1256.00 214.9952
1256.10 215.2005
1256.20 215.4057
1256.30 215.611
1256.40 215.8163
1256.50 216.0215
1256.60 216.2268
1256.70 216.432
1256.80 216.6373
1256.90 216.8426
1257.00 217.0478
1257.10 217.2531
1257.20 217.4584
1257.30 217.6636
1257.40 217.8689
1257.50 218.0742
1257.60 218.2794
1257.70 218.4847
1257.80 218.69
1257.90 218.8952
1258.00 219.1005
1258.10 219.3058
1258.20 219.458
1258.30 219.4866
1258.40 219.5151
1258.50 219.5437
1258.60 219.5722
1258.70 219.6008
1258.80 219.6293
1258.90 219.6579
1259.00 219.6865
1259.10 219.715
1259.20 219.7436
1259.30 219.7721
1259.40 219.8007
1259.50 219.8292
1259.60 219.8578
1259.70 219.8864
1259.80 219.9149
1259.90 219.9435
1260.00 219.972
1260.10 220.0006
1260.20 220.0291
1260.30 220.0577
1260.40 220.0863
1260.50 220.1148
1260.60 220.1434
1260.70 220.1719
1260.80 220.2005
1260.90 220.229
1261.00 220.2576
1261.10 220.2861
1261.20 220.3147
1261.30 220.3433
1261.40 220.3718
1261.50 220.4004
1261.60 220.4289
1261.70 220.4575
1261.80 220.486
1261.90 220.5146
1262.00 220.5432
1262.10 220.5717
1262.20 220.6003
1262.30 220.6288
1262.40 220.6574
1262.50 220.7186
1262.60 220.9106
1262.70 221.1027
1262.80 221.2947
1262.90 221.4867
1263.00 221.6787
1263.10 221.8707
1263.20 222.0627
1263.30 222.2547
1263.40 222.4467
1263.50 222.6387
1263.60 222.8308
1263.70 223.0228
1263.80 223.2148
1263.90 223.4068
1264.00 223.5988
1264.10 223.7908
1264.20 223.9828
1264.30 224.1748
1264.40 224.3668
1264.50 224.5589
1264.60 224.7509
1264.70 224.9429
1264.80 225.1349
1264.90 225.3269
1265.00 225.5189
1265.10 225.7109
1265.20 225.9029
1265.30 226.0949
1265.40 226.287
1265.50 226.479
1265.60 226.671
1265.70 226.863
1265.80 227.055
1265.90 227.247
1266.00 227.439
1266.10 227.631
1266.20 227.823
1266.30 228.0151
1266.40 228.2071
1266.50 228.3991
1266.60 228.5911
1266.70 228.7831
1266.80 228.9751
1266.90 228.8586
1267.00 228.7422
1267.10 228.6257
1267.20 228.5092
1267.30 228.3928
1267.40 228.2763
1267.50 228.1598
1267.60 228.0433
1267.70 227.9269
1267.80 227.8104
1267.90 227.6939
1268.00 227.5775
1268.10 227.461
1268.20 227.3445
1268.30 227.228
1268.40 227.1116
1268.50 226.9951
1268.60 226.8786
1268.70 226.7622
1268.80 226.6457
1268.90 226.5292
1269.00 226.4127
1269.10 226.2963
1269.20 226.1798
1269.30 226.0633
1269.40 225.9469
1269.50 225.8304
1269.60 225.7139
1269.70 225.5974
1269.80 225.481
1269.90 225.3645
1270.00 225.248
1270.10 225.1316
1270.20 225.0151
1270.30 224.8986
1270.40 224.7821
1270.50 224.6657
1270.60 224.5492
1270.70 224.4327
1270.80 224.3163
1270.90 224.1998
1271.00 224.0833
1271.10 223.9668
1271.20 224.0712
1271.30 224.2
1271.40 224.3289
1271.50 224.4578
1271.60 224.5866
1271.70 224.7155
1271.80 224.8443
1271.90 224.9732
1272.00 225.1021
1272.10 225.2309
1272.20 225.3598
1272.30 225.4886
1272.40 225.6175
1272.50 225.7464
1272.60 225.8752
1272.70 226.0041
1272.80 226.1329
1272.90 226.2618
1273.00 226.3906
1273.10 226.5195
1273.20 226.6484
1273.30 226.7772
1273.40 226.9061
1273.50 227.0349
1273.60 227.1638
1273.70 227.2927
1273.80 227.4215
1273.90 227.5504
1274.00 227.6792
1274.10 227.8081
1274.20 227.937
1274.30 228.0658
1274.40 228.1947
1274.50 228.3235
1274.60 228.4524
1274.70 228.5813
1274.80 228.7101
1274.90 228.839
1275.00 228.9678
1275.10 229.0967
1275.20 229.2256
1275.30 229.3544
1275.40 229.4833
1275.50 229.524
1275.60 229.5271
1275.70 229.5301
1275.80 229.5331
1275.90 229.5361
1276.00 229.5391
1276.10 229.5421
1276.20 229.5451
1276.30 229.5481
1276.40 229.5511
1276.50 229.5541
1276.60 229.5571
1276.70 229.5601
1276.80 229.5631
1276.90 229.5661
1277.00 229.5691
1277.10 229.5722
1277.20 229.5752
1277.30 229.5782
1277.40 229.5812
1277.50 229.5842
1277.60 229.5872
1277.70 229.5902
1277.80 229.5932
1277.90 229.5962
1278.00 229.5992
1278.10 229.6022
1278.20 229.6052
1278.30 229.6082
1278.40 229.6112
1278.50 229.6142
1278.60 229.6173
1278.70 229.6203
1278.80 229.6233
1278.90 229.6263
1279.00 229.6293
1279.10 229.6323
1279.20 229.6353
1279.30 229.6383
1279.40 229.6413
1279.50 229.6443
1279.60 229.6473
1279.70 229.6503
1279.80 229.6594
1279.90 229.6725
1280.00 229.6857
1280.10 229.6988
1280.20 229.7119
1280.30 229.7251
1280.40 229.7382
1280.50 229.7513
1280.60 229.7645
1280.70 229.7776
1280.80 229.7907
1280.90 229.8039
1281.00 229.817
1281.10 229.8301
1281.20 229.8432
1281.30 229.8564
1281.40 229.8695
1281.50 229.8826
1281.60 229.8958
1281.70 229.9089
1281.80 229.922
1281.90 229.9352
1282.00 229.9483
1282.10 229.9614
1282.20 229.9746
1282.30 229.9877
1282.40 230.0008
1282.50 230.014
1282.60 230.0271
1282.70 230.0402
1282.80 230.0534
1282.90 230.0665
1283.00 230.0796
1283.10 230.0927
1283.20 230.1059
1283.30 230.119
1283.40 230.1321
1283.50 230.1453
1283.60 230.1584
1283.70 230.1715
1283.80 230.1847
1283.90 230.1978
1284.00 230.2109
1284.10 230.2528
1284.20 230.3379
1284.30 230.4229
1284.40 230.508
1284.50 230.593
1284.60 230.678
1284.70 230.7631
1284.80 230.8481
1284.90 230.9332
1285.00 231.0182
1285.10 231.1032
1285.20 231.1883
1285.30 231.2733
1285.40 231.3584
1285.50 231.4434
1285.60 231.5284
1285.70 231.6135
1285.80 231.6985
1285.90 231.7836
1286.00 231.8686
1286.10 231.9537
1286.20 232.0387
1286.30 232.1237
1286.40 232.2088
1286.50 232.2938
1286.60 232.3789
1286.70 232.4639
1286.80 232.5489
1286.90 232.634
1287.00 232.719
1287.10 232.8041
1287.20 232.8891
1287.30 232.9741
1287.40 233.0592
1287.50 233.1442
1287.60 233.2293
1287.70 233.3143
1287.80 233.3994
1287.90 233.4844
1288.00 233.5694
1288.10 233.6545
1288.20 233.7395
1288.30 233.8246
1288.40 233.9011
1288.50 233.9439
1288.60 233.9866
1288.70 234.0294
1288.80 234.0721
1288.90 234.1149
1289.00 234.1576
1289.10 234.2003
1289.20 234.2431
1289.30 234.2858
1289.40 234.3286
1289.50 234.3713
1289.60 234.4141
1289.70 234.4568
1289.80 234.4995
1289.90 234.5423
1290.00 234.585
1290.10 234.6278
1290.20 234.6705
1290.30 234.7133
1290.40 234.756
1290.50 234.7988
1290.60 234.8415
1290.70 234.8842
1290.80 234.927
1290.90 234.9697
1291.00 235.0125
1291.10 235.0552
1291.20 235.098
1291.30 235.1407
1291.40 235.1834
1291.50 235.2262
1291.60 235.2689
1291.70 235.3117
1291.80 235.3544
1291.90 235.3972
1292.00 235.4399
1292.10 235.4827
1292.20 235.5254
1292.30 235.5681
1292.40 235.6109
1292.50 235.6536
1292.60 235.6964
1292.70 235.7391
1292.80 235.7619
1292.90 235.7846
1293.00 235.8074
1293.10 235.8301
1293.20 235.8529
1293.30 235.8756
1293.40 235.8983
1293.50 235.9211
1293.60 235.9438
1293.70 235.9666
1293.80 235.9893
1293.90 236.0121
1294.00 236.0348
1294.10 236.0576
1294.20 236.0803
1294.30 236.1031
1294.40 236.1258
1294.50 236.1486
1294.60 236.1713
1294.70 236.1941
1294.80 236.2168
1294.90 236.2396
1295.00 236.2623
1295.10 236.2851
1295.20 236.3078
1295.30 236.3306
1295.40 236.3533
1295.50 236.376
1295.60 236.3988
1295.70 236.4215
1295.80 236.4443
1295.90 236.467
1296.00 236.4898
1296.10 236.5125
1296.20 236.5353
1296.30 236.558
1296.40 236.5808
1296.50 236.6035
1296.60 236.6263
1296.70 236.649
1296.80 236.6718
1296.90 236.6945
1297.00 236.7173
1297.10 236.6862
1297.20 236.6417
1297.30 236.5971
1297.40 236.5526
1297.50 236.5081
1297.60 236.4635
1297.70 236.419
1297.80 236.3745
1297.90 236.3299
1298.00 236.2854
1298.10 236.2409
1298.20 236.1963
1298.30 236.1518
1298.40 236.1073
1298.50 236.0628
1298.60 236.0182
1298.70 235.9737
1298.80 235.9292
1298.90 235.8846
1299.00 235.8401
1299.10 235.7956
1299.20 235.751
1299.30 235.7065
1299.40 235.662
1299.50 235.6174
1299.60 235.5729
1299.70 235.5284
1299.80 235.4838
1299.90 235.4393
