# Version 2.1 - nm, norm@500 to 1, cut digits
# Wavelength(nm)  Flambda(ergs/cm^s/s/nm)
300.00 2.097592e-95
300.10 2.097592e-95
300.20 2.097592e-95
300.30 2.097592e-95
300.40 2.097592e-95
300.50 2.097592e-95
300.60 2.097592e-95
300.70 2.097592e-95
300.80 2.097592e-95
300.90 2.097592e-95
301.00 2.097592e-95
301.10 2.097592e-95
301.20 2.097592e-95
301.30 2.097592e-95
301.40 2.097592e-95
301.50 2.097592e-95
301.60 2.097592e-95
301.70 2.097592e-95
301.80 2.097592e-95
301.90 2.097592e-95
302.00 2.097592e-95
302.10 2.097592e-95
302.20 2.097592e-95
302.30 2.097592e-95
302.40 2.097592e-95
302.50 2.097592e-95
302.60 2.097592e-95
302.70 2.097592e-95
302.80 2.097592e-95
302.90 2.097592e-95
303.00 2.097592e-95
303.10 2.097592e-95
303.20 2.097592e-95
303.30 2.097592e-95
303.40 2.097592e-95
303.50 2.097592e-95
303.60 2.097592e-95
303.70 2.097592e-95
303.80 2.097592e-95
303.90 2.097592e-95
304.00 2.097592e-95
304.10 2.097592e-95
304.20 2.097592e-95
304.30 2.097592e-95
304.40 2.097592e-95
304.50 2.097592e-95
304.60 2.097592e-95
304.70 2.097592e-95
304.80 2.097592e-95
304.90 2.097592e-95
305.00 2.097592e-95
305.10 2.097592e-95
305.20 2.097592e-95
305.30 2.097592e-95
305.40 2.097592e-95
305.50 2.097592e-95
305.60 2.097592e-95
305.70 2.097592e-95
305.80 2.097592e-95
305.90 2.097592e-95
306.00 2.097592e-95
306.10 2.097592e-95
306.20 2.097592e-95
306.30 2.097592e-95
306.40 2.097592e-95
306.50 2.097592e-95
306.60 2.097592e-95
306.70 2.097592e-95
306.80 2.097592e-95
306.90 2.097592e-95
307.00 2.097592e-95
307.10 2.097592e-95
307.20 2.097592e-95
307.30 2.097592e-95
307.40 2.097592e-95
307.50 2.097592e-95
307.60 2.097592e-95
307.70 2.097592e-95
307.80 2.097592e-95
307.90 2.097592e-95
308.00 2.097592e-95
308.10 2.097592e-95
308.20 2.097592e-95
308.30 2.097592e-95
308.40 2.097592e-95
308.50 2.097592e-95
308.60 2.097592e-95
308.70 2.097592e-95
308.80 2.097592e-95
308.90 2.097592e-95
309.00 2.097592e-95
309.10 2.097592e-95
309.20 2.097592e-95
309.30 2.097592e-95
309.40 2.097592e-95
309.50 2.097592e-95
309.60 2.097592e-95
309.70 2.097592e-95
309.80 2.097592e-95
309.90 2.097592e-95
310.00 2.097592e-95
310.10 2.097592e-95
310.20 2.097592e-95
310.30 2.097592e-95
310.40 2.097592e-95
310.50 2.097592e-95
310.60 2.097592e-95
310.70 2.097592e-95
310.80 2.097592e-95
310.90 2.097592e-95
311.00 2.097592e-95
311.10 2.097592e-95
311.20 2.097592e-95
311.30 2.097592e-95
311.40 2.097592e-95
311.50 2.097592e-95
311.60 2.097592e-95
311.70 2.097592e-95
311.80 2.097592e-95
311.90 2.097592e-95
312.00 2.097592e-95
312.10 2.097592e-95
312.20 2.097592e-95
312.30 2.097592e-95
312.40 2.097592e-95
312.50 2.097592e-95
312.60 2.097592e-95
312.70 2.097592e-95
312.80 2.097592e-95
312.90 2.097592e-95
313.00 2.097592e-95
313.10 2.097592e-95
313.20 2.097592e-95
313.30 2.097592e-95
313.40 2.097592e-95
313.50 2.097592e-95
313.60 2.097592e-95
313.70 2.097592e-95
313.80 2.097592e-95
313.90 2.097592e-95
314.00 2.097592e-95
314.10 2.097592e-95
314.20 2.097592e-95
314.30 2.097592e-95
314.40 2.097592e-95
314.50 2.097592e-95
314.60 2.097592e-95
314.70 2.097592e-95
314.80 2.097592e-95
314.90 2.097592e-95
315.00 2.097592e-95
315.10 2.097592e-95
315.20 2.097592e-95
315.30 2.097592e-95
315.40 2.097592e-95
315.50 2.097592e-95
315.60 2.097592e-95
315.70 2.097592e-95
315.80 2.097592e-95
315.90 2.097592e-95
316.00 2.097592e-95
316.10 2.097592e-95
316.20 2.097592e-95
316.30 2.097592e-95
316.40 2.097592e-95
316.50 2.097592e-95
316.60 2.097592e-95
316.70 2.097592e-95
316.80 2.097592e-95
316.90 2.097592e-95
317.00 2.097592e-95
317.10 2.097592e-95
317.20 2.097592e-95
317.30 2.097592e-95
317.40 2.097592e-95
317.50 2.097592e-95
317.60 2.097592e-95
317.70 2.097592e-95
317.80 2.097592e-95
317.90 2.097592e-95
318.00 2.097592e-95
318.10 2.097592e-95
318.20 2.097592e-95
318.30 2.097592e-95
318.40 2.097592e-95
318.50 2.097592e-95
318.60 2.097592e-95
318.70 2.097592e-95
318.80 2.097592e-95
318.90 2.097592e-95
319.00 2.097592e-95
319.10 2.097592e-95
319.20 2.097592e-95
319.30 2.097592e-95
319.40 2.097592e-95
319.50 2.097592e-95
319.60 2.097592e-95
319.70 2.097592e-95
319.80 2.097592e-95
319.90 2.097592e-95
320.00 2.097592e-95
320.10 2.097592e-95
320.20 2.097592e-95
320.30 2.097592e-95
320.40 2.097592e-95
320.50 2.097592e-95
320.60 2.097592e-95
320.70 2.097592e-95
320.80 2.097592e-95
320.90 2.097592e-95
321.00 2.097592e-95
321.10 2.097592e-95
321.20 2.097592e-95
321.30 2.097592e-95
321.40 2.097592e-95
321.50 2.097592e-95
321.60 2.097592e-95
321.70 2.097592e-95
321.80 2.097592e-95
321.90 2.097592e-95
322.00 2.097592e-95
322.10 2.097592e-95
322.20 2.097592e-95
322.30 2.097592e-95
322.40 2.097592e-95
322.50 2.097592e-95
322.60 2.097592e-95
322.70 2.097592e-95
322.80 2.097592e-95
322.90 2.097592e-95
323.00 2.097592e-95
323.10 2.097592e-95
323.20 2.097592e-95
323.30 2.097592e-95
323.40 2.097592e-95
323.50 2.097592e-95
323.60 2.097592e-95
323.70 2.097592e-95
323.80 2.097592e-95
323.90 2.097592e-95
324.00 2.097592e-95
324.10 2.097592e-95
324.20 2.097592e-95
324.30 2.097592e-95
324.40 2.097592e-95
324.50 2.097592e-95
324.60 2.097592e-95
324.70 2.097592e-95
324.80 2.097592e-95
324.90 2.097592e-95
325.00 2.097592e-95
325.10 2.097592e-95
325.20 2.097592e-95
325.30 2.097592e-95
325.40 2.097592e-95
325.50 2.097592e-95
325.60 2.097592e-95
325.70 2.097592e-95
325.80 2.097592e-95
325.90 2.097592e-95
326.00 2.097592e-95
326.10 2.097592e-95
326.20 2.097592e-95
326.30 2.097592e-95
326.40 2.097592e-95
326.50 2.097592e-95
326.60 2.097592e-95
326.70 2.097592e-95
326.80 2.097592e-95
326.90 2.097592e-95
327.00 2.097592e-95
327.10 2.097592e-95
327.20 2.097592e-95
327.30 2.097592e-95
327.40 2.097592e-95
327.50 2.097592e-95
327.60 2.097592e-95
327.70 2.097592e-95
327.80 2.097592e-95
327.90 2.097592e-95
328.00 2.097592e-95
328.10 2.097592e-95
328.20 2.097592e-95
328.30 2.097592e-95
328.40 2.097592e-95
328.50 2.097592e-95
328.60 2.097592e-95
328.70 2.097592e-95
328.80 2.097592e-95
328.90 2.097592e-95
329.00 2.097592e-95
329.10 2.097592e-95
329.20 2.097592e-95
329.30 2.097592e-95
329.40 2.097592e-95
329.50 2.097592e-95
329.60 2.097592e-95
329.70 2.097592e-95
329.80 2.097592e-95
329.90 2.097592e-95
330.00 2.097592e-95
330.10 2.097592e-95
330.20 2.097592e-95
330.30 2.097592e-95
330.40 2.097592e-95
330.50 2.097592e-95
330.60 2.097592e-95
330.70 2.097592e-95
330.80 2.097592e-95
330.90 2.097592e-95
331.00 2.097592e-95
331.10 2.097592e-95
331.20 2.097592e-95
331.30 2.097592e-95
331.40 2.097592e-95
331.50 2.097592e-95
331.60 2.097592e-95
331.70 2.097592e-95
331.80 2.097592e-95
331.90 2.097592e-95
332.00 2.097592e-95
332.10 2.097592e-95
332.20 2.097592e-95
332.30 2.097592e-95
332.40 2.097592e-95
332.50 2.097592e-95
332.60 2.097592e-95
332.70 2.097592e-95
332.80 2.097592e-95
332.90 2.097592e-95
333.00 2.097592e-95
333.10 2.097592e-95
333.20 2.097592e-95
333.30 2.097592e-95
333.40 2.097592e-95
333.50 2.097592e-95
333.60 2.097592e-95
333.70 2.097592e-95
333.80 2.097592e-95
333.90 2.097592e-95
334.00 2.097592e-95
334.10 2.097592e-95
334.20 2.097592e-95
334.30 2.097592e-95
334.40 2.097592e-95
334.50 2.097592e-95
334.60 2.097592e-95
334.70 2.097592e-95
334.80 2.097592e-95
334.90 2.097592e-95
335.00 2.097592e-95
335.10 2.097592e-95
335.20 2.097592e-95
335.30 2.097592e-95
335.40 2.097592e-95
335.50 2.097592e-95
335.60 2.097592e-95
335.70 2.097592e-95
335.80 2.097592e-95
335.90 2.097592e-95
336.00 2.097592e-95
336.10 2.097592e-95
336.20 2.097592e-95
336.30 2.097592e-95
336.40 2.097592e-95
336.50 2.097592e-95
336.60 2.097592e-95
336.70 2.097592e-95
336.80 2.097592e-95
336.90 2.097592e-95
337.00 2.097592e-95
337.10 2.097592e-95
337.20 2.097592e-95
337.30 2.097592e-95
337.40 2.097592e-95
337.50 2.097592e-95
337.60 2.097592e-95
337.70 2.097592e-95
337.80 2.097592e-95
337.90 2.097592e-95
338.00 2.097592e-95
338.10 2.097592e-95
338.20 2.097592e-95
338.30 2.097592e-95
338.40 2.097592e-95
338.50 2.097592e-95
338.60 2.097592e-95
338.70 2.097592e-95
338.80 2.097592e-95
338.90 2.097592e-95
339.00 2.097592e-95
339.10 2.097592e-95
339.20 2.097592e-95
339.30 2.097592e-95
339.40 2.097592e-95
339.50 2.097592e-95
339.60 2.097592e-95
339.70 2.097592e-95
339.80 2.097592e-95
339.90 2.097592e-95
340.00 2.097592e-95
340.10 2.097592e-95
340.20 2.097592e-95
340.30 2.097592e-95
340.40 2.097592e-95
340.50 2.097592e-95
340.60 2.097592e-95
340.70 2.097592e-95
340.80 2.097592e-95
340.90 2.097592e-95
341.00 2.097592e-95
341.10 2.097592e-95
341.20 2.097592e-95
341.30 2.097592e-95
341.40 2.097592e-95
341.50 2.097592e-95
341.60 2.097592e-95
341.70 2.097592e-95
341.80 2.097592e-95
341.90 2.097592e-95
342.00 2.097592e-95
342.10 2.097592e-95
342.20 2.097592e-95
342.30 2.097592e-95
342.40 2.097592e-95
342.50 2.097592e-95
342.60 2.097592e-95
342.70 2.097592e-95
342.80 2.097592e-95
342.90 2.097592e-95
343.00 2.097592e-95
343.10 2.097592e-95
343.20 2.097592e-95
343.30 2.097592e-95
343.40 2.097592e-95
343.50 2.097592e-95
343.60 2.097592e-95
343.70 2.097592e-95
343.80 2.097592e-95
343.90 2.097592e-95
344.00 2.097592e-95
344.10 2.097592e-95
344.20 2.097592e-95
344.30 2.097592e-95
344.40 2.097592e-95
344.50 2.097592e-95
344.60 2.097592e-95
344.70 2.097592e-95
344.80 2.097592e-95
344.90 2.097592e-95
345.00 2.097592e-95
345.10 2.097592e-95
345.20 2.097592e-95
345.30 2.097592e-95
345.40 2.097592e-95
345.50 2.097592e-95
345.60 2.097592e-95
345.70 2.097592e-95
345.80 2.097592e-95
345.90 2.097592e-95
346.00 2.097592e-95
346.10 2.097592e-95
346.20 2.097592e-95
346.30 2.097592e-95
346.40 2.097592e-95
346.50 2.097592e-95
346.60 2.097592e-95
346.70 2.097592e-95
346.80 2.097592e-95
346.90 2.097592e-95
347.00 2.097592e-95
347.10 2.097592e-95
347.20 2.097592e-95
347.30 2.097592e-95
347.40 2.097592e-95
347.50 2.097592e-95
347.60 2.097592e-95
347.70 2.097592e-95
347.80 2.097592e-95
347.90 2.097592e-95
348.00 2.097592e-95
348.10 2.097592e-95
348.20 2.097592e-95
348.30 2.097592e-95
348.40 2.097592e-95
348.50 2.097592e-95
348.60 2.097592e-95
348.70 2.097592e-95
348.80 2.097592e-95
348.90 2.097592e-95
349.00 2.097592e-95
349.10 2.097592e-95
349.20 2.097592e-95
349.30 2.097592e-95
349.40 2.097592e-95
349.50 2.097592e-95
349.60 2.097592e-95
349.70 2.097592e-95
349.80 2.097592e-95
349.90 2.097592e-95
350.00 2.097592e-95
350.10 2.097592e-95
350.20 2.097592e-95
350.30 2.097592e-95
350.40 2.097592e-95
350.50 2.097592e-95
350.60 2.097592e-95
350.70 2.097592e-95
350.80 2.097592e-95
350.90 2.097592e-95
351.00 2.097592e-95
351.10 2.097592e-95
351.20 2.097592e-95
351.30 2.097592e-95
351.40 2.097592e-95
351.50 2.097592e-95
351.60 2.097592e-95
351.70 2.097592e-95
351.80 2.097592e-95
351.90 2.097592e-95
352.00 2.097592e-95
352.10 2.097592e-95
352.20 2.097592e-95
352.30 2.097592e-95
352.40 2.097592e-95
352.50 2.097592e-95
352.60 2.097592e-95
352.70 2.097592e-95
352.80 2.097592e-95
352.90 2.097592e-95
353.00 2.097592e-95
353.10 2.097592e-95
353.20 2.097592e-95
353.30 2.097592e-95
353.40 2.097592e-95
353.50 2.097592e-95
353.60 2.097592e-95
353.70 2.097592e-95
353.80 2.097592e-95
353.90 2.097592e-95
354.00 2.097592e-95
354.10 2.097592e-95
354.20 2.097592e-95
354.30 2.097592e-95
354.40 2.097592e-95
354.50 2.097592e-95
354.60 2.097592e-95
354.70 2.097592e-95
354.80 2.097592e-95
354.90 2.097592e-95
355.00 2.097592e-95
355.10 2.097592e-95
355.20 2.097592e-95
355.30 2.097592e-95
355.40 2.097592e-95
355.50 2.097592e-95
355.60 2.097592e-95
355.70 2.097592e-95
355.80 2.097592e-95
355.90 2.097592e-95
356.00 2.097592e-95
356.10 2.097592e-95
356.20 2.097592e-95
356.30 2.097592e-95
356.40 2.097592e-95
356.50 2.097592e-95
356.60 2.097592e-95
356.70 2.097592e-95
356.80 2.097592e-95
356.90 2.097592e-95
357.00 2.097592e-95
357.10 2.097592e-95
357.20 2.097592e-95
357.30 2.097592e-95
357.40 2.097592e-95
357.50 2.097592e-95
357.60 2.097592e-95
357.70 2.097592e-95
357.80 2.097592e-95
357.90 2.097592e-95
358.00 2.097592e-95
358.10 2.097592e-95
358.20 2.097592e-95
358.30 2.097592e-95
358.40 2.097592e-95
358.50 2.097592e-95
358.60 2.097592e-95
358.70 2.097592e-95
358.80 2.097592e-95
358.90 2.097592e-95
359.00 2.097592e-95
359.10 2.097592e-95
359.20 2.097592e-95
359.30 2.097592e-95
359.40 2.097592e-95
359.50 2.097592e-95
359.60 2.097592e-95
359.70 2.097592e-95
359.80 2.097592e-95
359.90 2.097592e-95
360.00 2.097592e-95
360.10 2.097592e-95
360.20 2.097592e-95
360.30 2.097592e-95
360.40 2.097592e-95
360.50 2.097592e-95
360.60 2.097592e-95
360.70 2.097592e-95
360.80 2.097592e-95
360.90 2.097592e-95
361.00 2.097592e-95
361.10 2.097592e-95
361.20 2.097592e-95
361.30 2.097592e-95
361.40 2.097592e-95
361.50 2.097592e-95
361.60 2.097592e-95
361.70 2.097592e-95
361.80 2.097592e-95
361.90 2.097592e-95
362.00 2.097592e-95
362.10 2.097592e-95
362.20 2.097592e-95
362.30 2.097592e-95
362.40 2.097592e-95
362.50 2.097592e-95
362.60 2.097592e-95
362.70 2.097592e-95
362.80 2.097592e-95
362.90 2.097592e-95
363.00 2.097592e-95
363.10 2.097592e-95
363.20 2.097592e-95
363.30 2.097592e-95
363.40 2.097592e-95
363.50 2.097592e-95
363.60 2.097592e-95
363.70 2.097592e-95
363.80 2.097592e-95
363.90 2.097592e-95
364.00 2.097592e-95
364.10 2.097592e-95
364.20 2.097592e-95
364.30 2.097592e-95
364.40 2.097592e-95
364.50 2.097592e-95
364.60 2.097592e-95
364.70 2.097592e-95
364.80 2.097592e-95
364.90 2.097592e-95
365.00 2.097592e-95
365.10 2.097592e-95
365.20 2.097592e-95
365.30 2.097592e-95
365.40 2.097592e-95
365.50 2.097592e-95
365.60 2.097592e-95
365.70 2.097592e-95
365.80 2.097592e-95
365.90 2.097592e-95
366.00 2.097592e-95
366.10 2.097592e-95
366.20 2.097592e-95
366.30 2.097592e-95
366.40 2.097592e-95
366.50 2.097592e-95
366.60 2.097592e-95
366.70 2.097592e-95
366.80 2.097592e-95
366.90 2.097592e-95
367.00 2.097592e-95
367.10 2.097592e-95
367.20 2.097592e-95
367.30 2.097592e-95
367.40 2.097592e-95
367.50 2.097592e-95
367.60 2.097592e-95
367.70 2.097592e-95
367.80 2.097592e-95
367.90 2.097592e-95
368.00 2.097592e-95
368.10 2.097592e-95
368.20 2.097592e-95
368.30 2.097592e-95
368.40 2.097592e-95
368.50 2.097592e-95
368.60 2.097592e-95
368.70 2.097592e-95
368.80 2.097592e-95
368.90 2.097592e-95
369.00 2.097592e-95
369.10 2.097592e-95
369.20 2.097592e-95
369.30 2.097592e-95
369.40 2.097592e-95
369.50 2.097592e-95
369.60 2.097592e-95
369.70 2.097592e-95
369.80 2.097592e-95
369.90 2.097592e-95
370.00 2.097592e-95
370.10 2.097592e-95
370.20 2.097592e-95
370.30 2.097592e-95
370.40 2.097592e-95
370.50 2.097592e-95
370.60 2.097592e-95
370.70 2.097592e-95
370.80 2.097592e-95
370.90 2.097592e-95
371.00 2.097592e-95
371.10 2.097592e-95
371.20 2.097592e-95
371.30 2.097592e-95
371.40 2.097592e-95
371.50 2.097592e-95
371.60 2.097592e-95
371.70 2.097592e-95
371.80 2.097592e-95
371.90 2.097592e-95
372.00 2.097592e-95
372.10 2.097592e-95
372.20 2.097592e-95
372.30 2.097592e-95
372.40 2.097592e-95
372.50 2.097592e-95
372.60 2.097592e-95
372.70 2.097592e-95
372.80 2.097592e-95
372.90 2.097592e-95
373.00 2.097592e-95
373.10 2.097592e-95
373.20 2.097592e-95
373.30 2.097592e-95
373.40 2.097592e-95
373.50 2.097592e-95
373.60 2.097592e-95
373.70 2.097592e-95
373.80 2.097592e-95
373.90 2.097592e-95
374.00 2.097592e-95
374.10 2.097592e-95
374.20 2.097592e-95
374.30 2.097592e-95
374.40 2.097592e-95
374.50 2.097592e-95
374.60 2.097592e-95
374.70 2.097592e-95
374.80 2.097592e-95
374.90 2.097592e-95
375.00 2.097592e-95
375.10 2.097592e-95
375.20 2.097592e-95
375.30 2.097592e-95
375.40 2.097592e-95
375.50 2.097592e-95
375.60 2.097592e-95
375.70 2.097592e-95
375.80 2.097592e-95
375.90 2.097592e-95
376.00 2.097592e-95
376.10 2.097592e-95
376.20 2.097592e-95
376.30 2.097592e-95
376.40 2.097592e-95
376.50 2.097592e-95
376.60 2.097592e-95
376.70 2.097592e-95
376.80 2.097592e-95
376.90 2.097592e-95
377.00 2.097592e-95
377.10 2.097592e-95
377.20 2.097592e-95
377.30 2.097592e-95
377.40 2.097592e-95
377.50 2.097592e-95
377.60 2.097592e-95
377.70 2.097592e-95
377.80 2.097592e-95
377.90 2.097592e-95
378.00 2.097592e-95
378.10 2.097592e-95
378.20 2.097592e-95
378.30 2.097592e-95
378.40 2.097592e-95
378.50 2.097592e-95
378.60 2.097592e-95
378.70 2.097592e-95
378.80 2.097592e-95
378.90 2.097592e-95
379.00 2.097592e-95
379.10 2.097592e-95
379.20 2.097592e-95
379.30 2.097592e-95
379.40 2.097592e-95
379.50 2.097592e-95
379.60 2.097592e-95
379.70 2.097592e-95
379.80 2.097592e-95
379.90 2.097592e-95
380.00 2.097592e-95
380.10 2.097592e-95
380.20 2.097592e-95
380.30 2.097592e-95
380.40 2.097592e-95
380.50 2.097592e-95
380.60 2.097592e-95
380.70 2.097592e-95
380.80 2.097592e-95
380.90 2.097592e-95
381.00 2.097592e-95
381.10 2.097592e-95
381.20 2.097592e-95
381.30 2.097592e-95
381.40 2.097592e-95
381.50 2.097592e-95
381.60 2.097592e-95
381.70 2.097592e-95
381.80 2.097592e-95
381.90 2.097592e-95
382.00 2.097592e-95
382.10 2.097592e-95
382.20 2.097592e-95
382.30 2.097592e-95
382.40 2.097592e-95
382.50 2.097592e-95
382.60 2.097592e-95
382.70 2.097592e-95
382.80 2.097592e-95
382.90 2.097592e-95
383.00 2.097592e-95
383.10 2.097592e-95
383.20 2.097592e-95
383.30 2.097592e-95
383.40 2.097592e-95
383.50 2.097592e-95
383.60 2.097592e-95
383.70 2.097592e-95
383.80 2.097592e-95
383.90 2.097592e-95
384.00 2.097592e-95
384.10 2.097592e-95
384.20 2.097592e-95
384.30 2.097592e-95
384.40 2.097592e-95
384.50 2.097592e-95
384.60 2.097592e-95
384.70 2.097592e-95
384.80 2.097592e-95
384.90 2.097592e-95
385.00 2.097592e-95
385.10 2.097592e-95
385.20 2.097592e-95
385.30 2.097592e-95
385.40 2.097592e-95
385.50 2.097592e-95
385.60 2.097592e-95
385.70 2.097592e-95
385.80 2.097592e-95
385.90 2.097592e-95
386.00 2.097592e-95
386.10 2.097592e-95
386.20 2.097592e-95
386.30 2.097592e-95
386.40 2.097592e-95
386.50 2.097592e-95
386.60 2.097592e-95
386.70 2.097592e-95
386.80 2.097592e-95
386.90 2.097592e-95
387.00 2.097592e-95
387.10 2.097592e-95
387.20 2.097592e-95
387.30 2.097592e-95
387.40 2.097592e-95
387.50 2.097592e-95
387.60 2.097592e-95
387.70 2.097592e-95
387.80 2.097592e-95
387.90 2.097592e-95
388.00 2.097592e-95
388.10 2.097592e-95
388.20 2.097592e-95
388.30 2.097592e-95
388.40 2.097592e-95
388.50 2.097592e-95
388.60 2.097592e-95
388.70 2.097592e-95
388.80 2.097592e-95
388.90 2.097592e-95
389.00 2.097592e-95
389.10 2.097592e-95
389.20 2.097592e-95
389.30 2.097592e-95
389.40 2.097592e-95
389.50 2.097592e-95
389.60 2.097592e-95
389.70 2.097592e-95
389.80 2.097592e-95
389.90 2.097592e-95
390.00 2.097592e-95
390.10 2.097592e-95
390.20 2.097592e-95
390.30 2.097592e-95
390.40 2.097592e-95
390.50 2.097592e-95
390.60 2.097592e-95
390.70 2.097592e-95
390.80 2.097592e-95
390.90 2.097592e-95
391.00 2.097592e-95
391.10 2.097592e-95
391.20 2.097592e-95
391.30 2.097592e-95
391.40 2.097592e-95
391.50 2.097592e-95
391.60 2.097592e-95
391.70 2.097592e-95
391.80 2.097592e-95
391.90 2.097592e-95
392.00 2.097592e-95
392.10 2.097592e-95
392.20 2.097592e-95
392.30 2.097592e-95
392.40 2.097592e-95
392.50 2.097592e-95
392.60 2.097592e-95
392.70 2.097592e-95
392.80 2.097592e-95
392.90 2.097592e-95
393.00 2.097592e-95
393.10 2.097592e-95
393.20 2.097592e-95
393.30 2.097592e-95
393.40 2.097592e-95
393.50 2.097592e-95
393.60 2.097592e-95
393.70 2.097592e-95
393.80 2.097592e-95
393.90 2.097592e-95
394.00 2.097592e-95
394.10 2.097592e-95
394.20 2.097592e-95
394.30 2.097592e-95
394.40 2.097592e-95
394.50 2.097592e-95
394.60 2.097592e-95
394.70 2.097592e-95
394.80 2.097592e-95
394.90 2.097592e-95
395.00 0.08523157
395.10 0.1476364
395.20 0.1888197
395.30 0.2108483
395.40 0.2180483
395.50 0.2180483
395.60 0.2182272
395.70 0.2257278
395.80 0.2441954
395.90 0.2730368
396.00 0.3095334
396.10 0.3506863
396.20 0.3925917
396.30 0.4297336
396.40 0.4578905
396.50 0.4742882
396.60 0.4764194
396.70 0.4764194
396.80 0.4764194
396.90 0.4764194
397.00 0.4764194
397.10 0.4764194
397.20 0.4764194
397.30 0.4828346
397.40 0.5043334
397.50 0.5395779
397.60 0.5866707
397.70 0.6473337
397.80 0.7237111
397.90 0.8144793
398.00 0.9158886
398.10 1.021758
398.20 1.123705
398.30 1.21381
398.40 1.287973
398.50 1.346942
398.60 1.396621
398.70 1.446614
398.80 1.506652
398.90 1.584333
399.00 1.683158
399.10 1.801292
399.20 1.932547
399.30 2.067736
399.40 2.195097
399.50 2.303094
399.60 2.383391
399.70 2.430813
399.80 2.443186
399.90 2.443186
400.00 2.443186
400.10 2.443186
400.20 2.443186
400.30 2.443186
400.40 2.443186
400.50 2.443186
400.60 2.443186
400.70 2.443186
400.80 2.453653
400.90 2.47983
401.00 2.515545
401.10 2.557088
401.20 2.603939
401.30 2.656103
401.40 2.713003
401.50 2.77329
401.60 2.83476
401.70 2.89574
401.80 2.954803
401.90 3.010519
402.00 3.061498
402.10 3.105974
402.20 3.143924
402.30 3.178236
402.40 3.212691
402.50 3.249345
402.60 3.289688
402.70 3.335947
402.80 3.388909
402.90 3.447194
403.00 3.508389
403.10 3.569086
403.20 3.626677
403.30 3.68071
403.40 3.732617
403.50 3.785498
403.60 3.843436
403.70 3.908986
403.80 3.982013
403.90 4.059702
404.00 4.137718
404.10 4.213142
404.20 4.284188
404.30 4.349074
404.40 4.406273
404.50 4.456024
404.60 4.500351
404.70 4.540346
404.80 4.576209
404.90 4.608494
405.00 4.551181
405.10 4.511123
405.20 4.48818
405.30 4.483786
405.40 4.495099
405.50 4.512588
405.60 4.525865
405.70 4.525881
405.80 4.508792
405.90 4.479951
406.00 4.443454
406.10 4.402301
406.20 4.360396
406.30 4.323254
406.40 4.295097
406.50 4.278699
406.60 4.276568
406.70 4.276568
406.80 4.276568
406.90 4.276568
407.00 4.276568
407.10 4.276568
407.20 4.276568
407.30 4.270153
407.40 4.248654
407.50 4.213409
407.60 4.166317
407.70 4.105654
407.80 4.029276
407.90 3.938508
408.00 3.837099
408.10 3.731229
408.20 3.629282
408.30 3.539177
408.40 3.465014
408.50 3.406045
408.60 3.356366
408.70 3.306373
408.80 3.246336
408.90 3.171273
409.00 3.079687
409.10 2.972739
409.20 2.856132
409.30 2.738428
409.40 2.630238
409.50 2.5419
409.60 2.480108
409.70 2.449367
409.80 2.452739
409.90 2.467198
410.00 2.479628
410.10 2.490088
410.20 2.498952
410.30 2.507578
410.40 2.52017
410.50 2.542555
410.60 2.578755
410.70 2.629851
410.80 2.682974
410.90 2.727899
411.00 2.764953
411.10 2.79251
411.20 2.806471
411.30 2.803244
411.40 2.782393
411.50 2.748528
411.60 2.71014
411.70 2.675241
411.80 2.648714
411.90 2.631597
412.00 2.622185
412.10 2.617169
412.20 2.611209
412.30 2.597312
412.40 2.56977
412.50 2.533116
412.60 2.492773
412.70 2.446514
412.80 2.393551
412.90 2.335267
413.00 2.274071
413.10 2.213375
413.20 2.155784
413.30 2.101751
413.40 2.049844
413.50 1.996963
413.60 1.939025
413.70 1.873475
413.80 1.800447
413.90 1.722758
414.00 1.644742
414.10 1.569319
414.20 1.498273
414.30 1.433386
414.40 1.376188
414.50 1.326437
414.60 1.28211
414.70 1.242115
414.80 1.206252
414.90 1.173967
415.00 1.146048
415.10 1.123702
415.20 1.105462
415.30 1.087826
415.40 1.069314
415.50 1.055077
415.60 1.044039
415.70 1.036523
415.80 1.035144
415.90 1.035144
416.00 1.035144
416.10 1.039685
416.20 1.054129
416.30 1.079121
416.40 1.114189
416.50 1.157738
416.60 1.206071
416.70 1.254155
416.80 1.29716
416.90 1.331952
417.00 1.35765
417.10 1.374496
417.20 1.382932
417.30 1.383638
417.40 1.383638
417.50 1.383638
417.60 1.383638
417.70 1.383638
417.80 1.383638
417.90 1.383638
418.00 1.383638
418.10 1.383638
418.20 1.383638
418.30 1.383638
418.40 1.383638
418.50 1.383638
418.60 1.388606
418.70 1.394997
418.80 1.399334
418.90 1.396715
419.00 1.389476
419.10 1.378291
419.20 1.363643
419.30 1.346158
419.40 1.326987
419.50 1.307328
419.60 1.288823
419.70 1.272724
419.80 1.256979
419.90 1.24252
420.00 1.230091
420.10 1.219631
420.20 1.210767
420.30 1.20214
420.40 1.189549
420.50 1.17117
420.60 1.14521
420.70 1.109644
420.80 1.065077
420.90 1.013167
421.00 0.9571893
421.10 0.900584
421.20 0.8464399
421.30 0.798061
421.40 0.7620115
421.50 0.7355886
421.60 0.7125081
421.70 0.6864272
421.80 0.6571251
421.90 0.6310416
422.00 0.6131414
422.10 0.6069391
422.20 0.6139563
422.30 0.6335948
422.40 0.6616871
422.50 0.6858229
422.60 0.6954995
422.70 0.6954995
422.80 0.6954995
422.90 0.6954995
423.00 0.6954995
423.10 0.6954995
423.20 0.6954995
423.30 0.6954995
423.40 0.6954995
423.50 0.6954995
423.60 0.6954995
423.70 0.6954995
423.80 0.6976096
423.90 0.7063705
424.00 0.7195683
424.10 0.7342532
424.20 0.748076
424.30 0.7611922
424.40 0.7761864
424.50 0.795209
424.60 0.8197081
424.70 0.8509864
424.80 0.8893857
424.90 0.9347298
425.00 0.9867464
425.10 1.044346
425.20 1.104797
425.30 1.164807
425.40 1.221743
425.50 1.269928
425.60 1.311968
425.70 1.349235
425.80 1.380063
425.90 1.406848
426.00 1.432065
426.10 1.452972
426.20 1.466582
426.30 1.474579
426.40 1.478194
426.50 1.478161
426.60 1.476503
426.70 1.47622
426.80 1.480109
426.90 1.489667
427.00 1.503482
427.10 1.51794
427.20 1.530011
427.30 1.53936
427.40 1.54185
427.50 1.54185
427.60 1.54185
427.70 1.542052
427.80 1.544231
427.90 1.547818
428.00 1.551035
428.10 1.551347
428.20 1.551347
428.30 1.551347
428.40 1.551347
428.50 1.551347
428.60 1.546379
428.70 1.539988
428.80 1.535651
428.90 1.535651
429.00 1.538316
429.10 1.54549
429.20 1.557434
429.30 1.573487
429.40 1.592885
429.50 1.615737
429.60 1.643521
429.70 1.677256
429.80 1.717725
429.90 1.763286
430.00 1.813947
430.10 1.869133
430.20 1.926016
430.30 1.979989
430.40 2.023858
430.50 2.044945
430.60 2.035983
430.70 2.020455
430.80 2.00143
430.90 1.982239
431.00 1.965448
431.10 1.952952
431.20 1.947536
431.30 1.959052
431.40 1.973727
431.50 1.982526
431.60 1.982526
431.70 1.982526
431.80 1.979291
431.90 1.966776
432.00 1.943109
432.10 1.909851
432.20 1.870844
432.30 1.83079
432.40 1.795785
432.50 1.771649
432.60 1.761973
432.70 1.761973
432.80 1.761973
432.90 1.761973
433.00 1.761973
433.10 1.761973
433.20 1.761973
433.30 1.761973
433.40 1.761973
433.50 1.764652
433.60 1.77267
433.70 1.782211
433.80 1.788017
433.90 1.78342
434.00 1.770222
434.10 1.755537
434.20 1.741715
434.30 1.728598
434.40 1.713604
434.50 1.694582
434.60 1.670082
434.70 1.638804
434.80 1.600405
434.90 1.562732
435.00 1.527077
435.10 1.490858
435.20 1.452537
435.30 1.411521
435.40 1.367582
435.50 1.321151
435.60 1.276692
435.70 1.239425
435.80 1.208597
435.90 1.181812
436.00 1.156596
436.10 1.131147
436.20 1.103093
436.30 1.070104
436.40 1.031421
436.50 0.9879051
436.60 0.94123
436.70 0.8934297
436.80 0.8465358
436.90 0.8077346
437.00 0.7779471
437.10 0.7568095
437.20 0.7429958
437.30 0.7344257
437.40 0.7319359
437.50 0.7319359
437.60 0.7319359
437.70 0.7317333
437.80 0.7349211
437.90 0.7440824
438.00 0.7602149
438.10 0.7821571
438.20 0.8030148
438.30 0.8187772
438.40 0.8260711
438.50 0.8260711
438.60 0.8260711
438.70 0.8260711
438.80 0.8260711
438.90 0.8260711
439.00 0.8234057
439.10 0.8162315
439.20 0.8042875
439.30 0.7882344
439.40 0.7688366
439.50 0.7459843
439.60 0.7182005
439.70 0.6838833
439.80 0.6434135
439.90 0.6018487
440.00 0.5693464
440.10 0.5456418
440.20 0.5297806
440.30 0.5195956
440.40 0.5146123
440.50 0.5175055
440.60 0.5300992
440.70 0.5300992
440.80 0.5300992
440.90 0.5300992
441.00 0.5300992
441.10 0.5300992
441.20 0.5288477
441.30 0.5167744
441.40 0.5021
441.50 0.4933011
441.60 0.4933011
441.70 0.4933011
441.80 0.4933011
441.90 0.4933011
442.00 0.4933011
442.10 0.4938068
442.20 0.4938068
442.30 0.4938068
442.40 0.4938068
442.50 0.4938068
442.60 0.4938068
442.70 0.4938068
442.80 0.4959188
442.90 0.5044882
443.00 0.5176899
443.10 0.5329878
443.20 0.5470467
443.30 0.5562454
443.40 0.5582225
443.50 0.555543
443.60 0.5475248
443.70 0.5379841
443.80 0.5300677
443.90 0.525904
444.00 0.525904
444.10 0.5291418
444.20 0.5460496
444.30 0.5775762
444.40 0.6217514
444.50 0.6736403
444.60 0.7277334
444.70 0.7786799
444.80 0.8206281
444.90 0.8413088
445.00 0.838348
445.10 0.8169676
445.20 0.7948365
445.30 0.7758427
445.40 0.7628463
445.50 0.7578405
445.60 0.7578405
445.70 0.7578405
445.80 0.7578405
445.90 0.7578405
446.00 0.7578405
446.10 0.7578405
446.20 0.7578405
446.30 0.7578405
446.40 0.7578405
446.50 0.7578405
446.60 0.7578405
446.70 0.7578405
446.80 0.7578405
446.90 0.7522911
447.00 0.7425651
447.10 0.7323996
447.20 0.7257061
447.30 0.7294278
447.40 0.7497265
447.50 0.7831076
447.60 0.8261404
447.70 0.8749595
447.80 0.9206846
447.90 0.9583334
448.00 0.9858055
448.10 1.004357
448.20 1.017102
448.30 1.027643
448.40 1.039989
448.50 1.054131
448.60 1.063918
448.70 1.070623
448.80 1.077002
448.90 1.086519
449.00 1.101525
449.10 1.123134
449.20 1.150844
449.30 1.181975
449.40 1.21307
449.50 1.240354
449.60 1.259804
449.70 1.269253
449.80 1.269276
449.90 1.26528
450.00 1.247121
450.10 1.21564
450.20 1.174618
450.30 1.131597
450.40 1.100596
450.50 1.087163
450.60 1.09283
450.70 1.114783
450.80 1.134741
450.90 1.146733
451.00 1.146733
451.10 1.146733
451.20 1.146733
451.30 1.146733
451.40 1.146733
451.50 1.146733
451.60 1.146733
451.70 1.146733
451.80 1.146733
451.90 1.146733
452.00 1.146733
452.10 1.146227
452.20 1.146227
452.30 1.147675
452.40 1.154203
452.50 1.165041
452.60 1.178197
452.70 1.191537
452.80 1.201046
452.90 1.2013
453.00 1.194352
453.10 1.184641
453.20 1.178142
453.30 1.180505
453.40 1.194542
453.50 1.213803
453.60 1.234368
453.70 1.254224
453.80 1.273706
453.90 1.294829
454.00 1.318327
454.10 1.340301
454.20 1.349048
454.30 1.34203
454.40 1.319693
454.50 1.285846
454.60 1.246029
454.70 1.205724
454.80 1.170919
454.90 1.146993
455.00 1.136141
455.10 1.137565
455.20 1.138144
455.30 1.139051
455.40 1.143443
455.50 1.154619
455.60 1.174105
455.70 1.200507
455.80 1.229666
455.90 1.255889
456.00 1.273115
456.10 1.277132
456.20 1.277132
456.30 1.277132
456.40 1.277132
456.50 1.277132
456.60 1.277132
456.70 1.277132
456.80 1.277132
456.90 1.277132
457.00 1.277132
457.10 1.277132
457.20 1.285828
457.30 1.300085
457.40 1.306635
457.50 1.303195
457.60 1.289375
457.70 1.266236
457.80 1.235737
457.90 1.199757
458.00 1.159956
458.10 1.11915
458.20 1.085548
458.30 1.059244
458.40 1.039604
458.50 1.025462
458.60 1.015675
458.70 1.01271
458.80 1.01967
458.90 1.033216
459.00 1.047602
459.10 1.057101
459.20 1.057953
459.30 1.048569
459.40 1.029096
459.50 1.00253
459.60 0.9830796
459.70 0.9736306
459.80 0.9736081
459.90 0.9736081
460.00 0.9736081
460.10 0.9736081
460.20 0.9736081
460.30 0.972841
460.40 0.9649562
460.50 0.9504021
460.60 0.930863
460.70 0.9089094
460.80 0.8889519
460.90 0.8769596
461.00 0.8769596
461.10 0.8769596
461.20 0.8769596
461.30 0.8769596
461.40 0.8769596
461.50 0.8769596
461.60 0.8769596
461.70 0.8769596
461.80 0.8769596
461.90 0.8769596
462.00 0.8769596
462.10 0.8769596
462.20 0.8769596
462.30 0.8755122
462.40 0.8689837
462.50 0.8581461
462.60 0.8449897
462.70 0.8316497
462.80 0.820029
462.90 0.8112056
463.00 0.804952
463.10 0.7993649
463.20 0.7918055
463.30 0.7802428
463.40 0.7642296
463.50 0.7449688
463.60 0.7273962
463.70 0.7135348
463.80 0.7022844
463.90 0.6902292
464.00 0.6745186
464.10 0.6527718
464.20 0.6271177
464.30 0.6026092
464.40 0.5807709
464.50 0.5627288
464.60 0.5484523
464.70 0.5378112
464.80 0.5383799
464.90 0.5503134
465.00 0.5717083
465.10 0.5996861
465.20 0.6311764
465.30 0.6623912
465.40 0.6880899
465.50 0.7036362
465.60 0.7074608
465.70 0.7006454
465.80 0.686495
465.90 0.6709505
466.00 0.6613959
466.10 0.6639369
466.20 0.671689
466.30 0.682654
466.40 0.6972324
466.50 0.7138342
466.60 0.7293674
466.70 0.7391462
466.80 0.7391462
466.90 0.7391462
467.00 0.7391462
467.10 0.7391462
467.20 0.7304506
467.30 0.7109868
467.40 0.6841385
467.50 0.6541967
467.60 0.6249839
467.70 0.5993043
467.80 0.5867828
467.90 0.5869892
468.00 0.5989172
468.10 0.6201963
468.20 0.6420868
468.30 0.662192
468.40 0.6779818
468.50 0.6879413
468.60 0.6908215
468.70 0.6870813
468.80 0.6737431
468.90 0.6506795
469.00 0.6212876
469.10 0.5901798
469.20 0.5616181
469.30 0.5398703
469.40 0.5282489
469.50 0.5275312
469.60 0.5275312
469.70 0.535941
469.80 0.5580934
469.90 0.5891688
470.00 0.6224869
470.10 0.6515468
470.20 0.6716813
470.30 0.6813195
470.40 0.6822498
470.50 0.6822498
470.60 0.6822498
470.70 0.6822498
470.80 0.6837264
470.90 0.6956461
471.00 0.7190205
471.10 0.7512617
471.20 0.7881679
471.30 0.8252859
471.40 0.8588198
471.50 0.8861328
471.60 0.9053104
471.70 0.91452
471.80 0.91452
471.90 0.91452
472.00 0.91452
472.10 0.91452
472.20 0.91452
472.30 0.91452
472.40 0.91452
472.50 0.91452
472.60 0.91452
472.70 0.91452
472.80 0.91452
472.90 0.91452
473.00 0.91452
473.10 0.91452
473.20 0.91452
473.30 0.91452
473.40 0.91452
473.50 0.91452
473.60 0.9115267
473.70 0.9055324
473.80 0.8973011
473.90 0.8882331
474.00 0.8804454
474.10 0.8769805
474.20 0.8769805
474.30 0.8769805
474.40 0.8769805
474.50 0.8769805
474.60 0.8769805
474.70 0.8769805
474.80 0.8692688
474.90 0.8529092
475.00 0.8289652
475.10 0.7995635
475.20 0.7674937
475.30 0.7390741
475.40 0.7130191
475.50 0.686327
475.60 0.6630164
475.70 0.6434295
475.80 0.6284212
475.90 0.6177425
476.00 0.6100718
476.10 0.6035131
476.20 0.595761
476.30 0.584796
476.40 0.5747641
476.50 0.574378
476.60 0.5877516
476.70 0.6183583
476.80 0.6660197
476.90 0.7136161
477.00 0.7526024
477.10 0.7765803
477.20 0.7826737
477.30 0.7826737
477.40 0.7826737
477.50 0.7826737
477.60 0.7826737
477.70 0.7826737
477.80 0.7746026
477.90 0.759979
478.00 0.7410306
478.10 0.7267849
478.20 0.7221366
478.30 0.7302405
478.40 0.7533989
478.50 0.7905005
478.60 0.8383559
478.70 0.8869029
478.80 0.9276468
478.90 0.9571724
479.00 0.9744528
479.10 0.9802863
479.20 0.9802863
479.30 0.9802863
479.40 0.9802863
479.50 0.9802863
479.60 0.9802863
479.70 0.9718765
479.80 0.9497241
479.90 0.92097
480.00 0.895808
480.10 0.8805341
480.20 0.8781492
480.30 0.8867517
480.40 0.9013684
480.50 0.912992
480.60 0.9207871
480.70 0.9256491
480.80 0.9286049
480.90 0.9247922
481.00 0.9173357
481.10 0.9117416
481.20 0.9143056
481.30 0.9314268
481.40 0.9681895
481.50 1.026532
481.60 1.104831
481.70 1.198904
481.80 1.300034
481.90 1.390346
482.00 1.462781
482.10 1.513309
482.20 1.541021
482.30 1.548152
482.40 1.548152
482.50 1.548152
482.60 1.548152
482.70 1.548152
482.80 1.548152
482.90 1.548152
483.00 1.548152
483.10 1.548152
483.20 1.548152
483.30 1.548152
483.40 1.548152
483.50 1.548152
483.60 1.548152
483.70 1.548152
483.80 1.55046
483.90 1.556531
484.00 1.566785
484.10 1.580551
484.20 1.595856
484.30 1.610588
484.40 1.622666
484.50 1.629598
484.60 1.629598
484.70 1.629598
484.80 1.629598
484.90 1.629598
485.00 1.629598
485.10 1.629598
485.20 1.629598
485.30 1.625897
485.40 1.62186
485.50 1.621831
485.60 1.621831
485.70 1.621831
485.80 1.621831
485.90 1.621831
486.00 1.621831
486.10 1.621831
486.20 1.621831
486.30 1.621831
486.40 1.617284
486.50 1.601068
486.60 1.572162
486.70 1.531776
486.80 1.484115
486.90 1.436518
487.00 1.397532
487.10 1.373554
487.20 1.367461
487.30 1.367461
487.40 1.367461
487.50 1.367461
487.60 1.367461
487.70 1.367461
487.80 1.367461
487.90 1.367461
488.00 1.367461
488.10 1.360427
488.20 1.343185
488.30 1.314976
488.40 1.276028
488.50 1.228967
488.60 1.178231
488.70 1.129684
488.80 1.08894
488.90 1.06199
489.00 1.048449
489.10 1.046312
489.20 1.049342
489.30 1.051228
489.40 1.052701
489.50 1.055225
489.60 1.060178
489.70 1.0698
489.80 1.086937
489.90 1.10994
490.00 1.133443
490.10 1.155435
490.20 1.175337
490.30 1.193473
490.40 1.209537
490.50 1.221971
490.60 1.228211
490.70 1.224763
490.80 1.220331
490.90 1.212224
491.00 1.196306
491.10 1.169659
491.20 1.130189
491.30 1.07595
491.40 1.005653
491.50 0.9199972
491.60 0.8225207
491.70 0.7192386
491.80 0.6181085
491.90 0.5277959
492.00 0.4553616
492.10 0.4048336
492.20 0.377121
492.30 0.3699902
492.40 0.3734805
492.50 0.3818905
492.60 0.3957736
492.70 0.4148103
492.80 0.4382611
492.90 0.4659937
493.00 0.4973099
493.10 0.5294418
493.20 0.5600634
493.30 0.5881876
493.40 0.613651
493.50 0.6384012
493.60 0.6657944
493.70 0.6978119
493.80 0.731361
493.90 0.7633068
494.00 0.7910034
494.10 0.8112919
494.20 0.8218969
494.30 0.8216726
494.40 0.8111525
494.50 0.8042201
494.60 0.8042201
494.70 0.8042201
494.80 0.8042201
494.90 0.8042201
495.00 0.8042201
495.10 0.8042201
495.20 0.8042201
495.30 0.8042201
495.40 0.8042201
495.50 0.8042201
495.60 0.8042201
495.70 0.8042201
495.80 0.8042201
495.90 0.8042201
496.00 0.8042201
496.10 0.8042201
496.20 0.8042201
496.30 0.8042201
496.40 0.8042201
496.50 0.8042201
496.60 0.8042201
496.70 0.8042201
496.80 0.8042201
496.90 0.8042201
497.00 0.8042201
497.10 0.8042201
497.20 0.8042201
497.30 0.8042201
497.40 0.8063443
497.50 0.8122246
497.60 0.8220733
497.70 0.835628
497.80 0.8517471
497.90 0.8689176
498.00 0.8858489
498.10 0.9014933
498.20 0.9156866
498.30 0.9285887
498.40 0.9405064
498.50 0.951592
498.60 0.9610677
498.70 0.9678137
498.80 0.970834
498.90 0.9682589
499.00 0.9645192
499.10 0.9608225
499.20 0.9577931
499.30 0.9583228
499.40 0.9676411
499.50 0.9847884
499.60 1.006044
499.70 1.024715
499.80 1.032571
499.90 1.024532
500.00 1
500.10 0.9642217
500.20 0.9265698
500.30 0.8901936
500.40 0.8585823
500.50 0.834525
500.60 0.8204893
500.70 0.8190751
500.80 0.8190751
500.90 0.8190751
501.00 0.8190751
501.10 0.8190751
501.20 0.8190751
501.30 0.8190751
501.40 0.8190751
501.50 0.8217977
501.60 0.8295184
501.70 0.839647
501.80 0.8492357
501.90 0.8558115
502.00 0.8577723
502.10 0.8577723
502.20 0.8577723
502.30 0.8577723
502.40 0.854282
502.50 0.845872
502.60 0.8319889
502.70 0.8129522
502.80 0.7895014
502.90 0.7617688
503.00 0.7304526
503.10 0.6983207
503.20 0.6676992
503.30 0.6395749
503.40 0.6141115
503.50 0.5893614
503.60 0.5619681
503.70 0.5299506
503.80 0.4940933
503.90 0.4560774
504.00 0.4181267
504.10 0.3840715
504.20 0.3581619
504.30 0.343654
504.40 0.3420963
504.50 0.3420963
504.60 0.3420963
504.70 0.3420963
504.80 0.3420963
504.90 0.3420963
505.00 0.3420963
505.10 0.3426074
505.20 0.3488921
505.30 0.3570762
505.40 0.364013
505.50 0.3686498
505.60 0.3715148
505.70 0.3734419
505.80 0.3755862
505.90 0.3803334
506.00 0.3908741
506.10 0.4091357
506.20 0.4351777
506.30 0.4668317
506.40 0.4997768
506.50 0.5299933
506.60 0.5551161
506.70 0.5745481
506.80 0.5887173
506.90 0.5976873
507.00 0.6016151
507.10 0.6020432
507.20 0.6020432
507.30 0.6020432
507.40 0.599919
507.50 0.5940387
507.60 0.58419
507.70 0.5706352
507.80 0.5545162
507.90 0.5373457
508.00 0.5204143
508.10 0.50477
508.20 0.4905767
508.30 0.4776746
508.40 0.4657569
508.50 0.4546712
508.60 0.4451956
508.70 0.4384495
508.80 0.4354292
508.90 0.4354292
509.00 0.4439039
509.10 0.4627655
509.20 0.4917967
509.30 0.5270953
509.40 0.5598934
509.50 0.5854752
509.60 0.6013785
509.70 0.6074195
509.80 0.6052486
509.90 0.5973238
510.00 0.5901969
510.10 0.5901969
510.20 0.5901969
510.30 0.5901969
510.40 0.5901969
510.50 0.5901969
510.60 0.5901969
510.70 0.5901969
510.80 0.5901969
510.90 0.5901969
511.00 0.5901969
511.10 0.5930073
511.20 0.6023173
511.30 0.61491
511.40 0.6262295
511.50 0.6288675
511.60 0.6211469
511.70 0.6110182
511.80 0.6014295
511.90 0.5948537
512.00 0.5928929
512.10 0.5928929
512.20 0.5928929
512.30 0.5969928
512.40 0.6131628
512.50 0.6406062
512.60 0.6766834
512.70 0.7176244
512.80 0.760077
512.90 0.8008673
513.00 0.8364168
513.10 0.8637938
513.20 0.8808787
513.30 0.8862904
513.40 0.8862904
513.50 0.8862904
513.60 0.8862904
513.70 0.8862904
513.80 0.8862904
513.90 0.8862904
514.00 0.8862904
514.10 0.8862904
514.20 0.8862904
514.30 0.8925068
514.40 0.9063356
514.50 0.9238661
514.60 0.9410241
514.70 0.953972
514.80 0.9595888
514.90 0.9595888
515.00 0.9595888
515.10 0.9590778
515.20 0.952793
515.30 0.944609
515.40 0.9376722
515.50 0.9330354
515.60 0.9301704
515.70 0.9282433
515.80 0.9260989
515.90 0.9213518
516.00 0.9108111
516.10 0.895017
516.20 0.875503
516.30 0.854372
516.40 0.8355253
516.50 0.8217663
516.60 0.8129592
516.70 0.806375
516.80 0.7993765
516.90 0.7909562
517.00 0.7870284
517.10 0.7866003
517.20 0.7866003
517.30 0.7866003
517.40 0.7866003
517.50 0.7866003
517.60 0.7866003
517.70 0.7866003
517.80 0.7866003
517.90 0.7866003
518.00 0.7866003
518.10 0.7866003
518.20 0.7866003
518.30 0.7866003
518.40 0.7866003
518.50 0.7866003
518.60 0.7866003
518.70 0.7866003
518.80 0.7866003
518.90 0.7866003
519.00 0.7781256
519.10 0.761124
519.20 0.7353558
519.30 0.6988652
519.40 0.6552756
519.50 0.6100226
519.60 0.5679102
519.70 0.5335768
519.80 0.5107551
519.90 0.5024536
520.00 0.5120632
520.10 0.5295942
520.20 0.553541
520.30 0.580832
520.40 0.6067479
520.50 0.6267587
520.60 0.6383461
520.70 0.6416833
520.80 0.6416833
520.90 0.6416833
521.00 0.6417503
521.10 0.6460228
521.20 0.6515104
521.30 0.6601418
521.40 0.6732939
521.50 0.6907183
521.60 0.7067214
521.70 0.7129881
521.80 0.7129881
521.90 0.7129881
522.00 0.7129881
522.10 0.7129881
522.20 0.7129881
522.30 0.7133574
522.40 0.7069935
522.50 0.6929994
522.60 0.6724361
522.70 0.6474339
522.80 0.619603
522.90 0.5911965
523.00 0.5662846
523.10 0.5489367
523.20 0.5419315
523.30 0.5475037
523.40 0.560324
523.50 0.5756063
523.60 0.5945026
523.70 0.6176653
523.80 0.6437287
523.90 0.6697481
524.00 0.6920164
524.10 0.7073206
524.20 0.7137846
524.30 0.7075681
524.40 0.6937393
524.50 0.6762089
524.60 0.6590509
524.70 0.646103
524.80 0.6404861
524.90 0.6404861
525.00 0.6404861
525.10 0.6404861
525.20 0.6404861
525.30 0.6404861
525.40 0.6420216
525.50 0.6475942
525.60 0.6567633
525.70 0.6696904
525.80 0.6866973
525.90 0.7075273
526.00 0.7304263
526.10 0.749654
526.20 0.7598448
526.30 0.7574866
526.40 0.7433881
526.50 0.7269306
526.60 0.710615
526.70 0.6977672
526.80 0.6905965
526.90 0.6900468
527.00 0.6900468
527.10 0.6900468
527.20 0.6938747
527.30 0.7035291
527.40 0.7148
527.50 0.723509
527.60 0.7257352
527.70 0.7257352
527.80 0.7257352
527.90 0.7257352
528.00 0.7257352
528.10 0.7257352
528.20 0.7257352
528.30 0.7257352
528.40 0.7257352
528.50 0.7257352
528.60 0.7257352
528.70 0.7257352
528.80 0.7257352
528.90 0.7257352
529.00 0.7281889
529.10 0.7284555
529.20 0.7251926
529.30 0.7239683
529.40 0.7239683
529.50 0.7239683
529.60 0.7239683
529.70 0.7239683
529.80 0.7239683
529.90 0.7229094
530.00 0.7132998
530.10 0.6957687
530.20 0.671822
530.30 0.644531
530.40 0.618615
530.50 0.5986042
530.60 0.5870168
530.70 0.5843792
530.80 0.5870617
530.90 0.591357
531.00 0.59644
531.10 0.5936904
531.20 0.5803757
531.30 0.5591516
531.40 0.5346799
531.50 0.511895
531.60 0.4958919
531.70 0.4896252
531.80 0.4896252
531.90 0.4896252
532.00 0.4896252
532.10 0.4944756
532.20 0.5089923
532.30 0.5240172
532.40 0.532937
532.50 0.5331552
532.60 0.5234312
532.70 0.5074924
532.80 0.4928706
532.90 0.480487
533.00 0.4698494
533.10 0.4660408
533.20 0.4700718
533.30 0.4779531
533.40 0.4851034
533.50 0.4875143
533.60 0.480906
533.70 0.4634446
533.80 0.4373812
533.90 0.4113619
534.00 0.3890935
534.10 0.3737893
534.20 0.3673254
534.30 0.3673254
534.40 0.3673254
534.50 0.3673254
534.60 0.3673254
534.70 0.3673254
534.80 0.3673254
534.90 0.3673254
535.00 0.3673254
535.10 0.3673254
535.20 0.3673254
535.30 0.3673254
535.40 0.3657899
535.50 0.3602173
535.60 0.3510483
535.70 0.3381211
535.80 0.3211142
535.90 0.3002842
536.00 0.2773852
536.10 0.25569
536.20 0.2389712
536.30 0.2308064
536.40 0.2308064
536.50 0.2308064
536.60 0.2308064
536.70 0.2308064
536.80 0.2308064
536.90 0.2308064
537.00 0.2308064
537.10 0.2308064
537.20 0.2269785
537.30 0.2173241
537.40 0.2060532
537.50 0.1973442
537.60 0.195118
537.70 0.1959546
537.80 0.2074044
537.90 0.2265344
538.00 0.2514313
538.10 0.2803371
538.20 0.3108115
538.30 0.3402298
538.40 0.3667326
538.50 0.3892614
538.60 0.4072485
538.70 0.4200645
538.80 0.4274684
538.90 0.4309457
539.00 0.4313588
539.10 0.4352429
539.20 0.4472504
539.30 0.4656507
539.40 0.488561
539.50 0.5130634
539.60 0.535798
539.70 0.5535127
539.80 0.5630853
539.90 0.5630853
540.00 0.5630853
540.10 0.5630853
540.20 0.5630853
540.30 0.5630853
540.40 0.5630853
540.50 0.5699386
540.60 0.5835645
540.70 0.599263
540.80 0.6108247
540.90 0.6148268
541.00 0.6106109
541.10 0.6062777
541.20 0.6047948
541.30 0.6047948
541.40 0.6047948
541.50 0.6091688
541.60 0.6228687
541.70 0.644027
541.80 0.6690848
541.90 0.6932109
542.00 0.7116722
542.10 0.7163943
542.20 0.7018777
542.30 0.6823836
542.40 0.6636575
542.50 0.6499901
542.60 0.6442002
542.70 0.6442002
542.80 0.6442002
542.90 0.6442002
543.00 0.6472623
543.10 0.6526482
543.20 0.6556437
543.30 0.6561073
543.40 0.6551005
543.50 0.6538549
543.60 0.6531894
543.70 0.652212
543.80 0.652212
543.90 0.652212
544.00 0.652212
544.10 0.652212
544.20 0.652212
544.30 0.652212
544.40 0.652212
544.50 0.652212
544.60 0.652212
544.70 0.652212
544.80 0.652212
544.90 0.652212
545.00 0.652212
545.10 0.652212
545.20 0.652212
545.30 0.652212
545.40 0.652212
545.50 0.652212
545.60 0.652212
545.70 0.652212
545.80 0.652212
545.90 0.652212
546.00 0.652212
546.10 0.652212
546.20 0.652212
546.30 0.652212
546.40 0.652212
546.50 0.652212
546.60 0.652212
546.70 0.652212
546.80 0.6528437
546.90 0.6595468
547.00 0.6719405
547.10 0.6898539
547.20 0.7124189
547.30 0.7384847
547.40 0.7670973
547.50 0.7974626
547.60 0.8287182
547.70 0.8592268
547.80 0.8788246
547.90 0.890455
548.00 0.8958879
548.10 0.8966129
548.20 0.8951179
548.30 0.8940489
548.40 0.8951014
548.50 0.8989437
548.60 0.9064075
548.70 0.919396
548.80 0.9391133
548.90 0.963772
549.00 0.988748
549.10 1.008404
549.20 1.01838
549.30 1.018126
549.40 1.01004
549.50 0.9969752
549.60 0.9818043
549.70 0.9682285
549.80 0.9603974
549.90 0.9608201
550.00 0.2988194
550.10 0.3145869
550.20 0.3282339
550.30 0.3450766
550.40 0.3691982
550.50 0.4039924
550.60 0.4530752
550.70 0.5196284
550.80 0.5972475
550.90 0.6741486
551.00 0.749973
551.10 0.8240499
551.20 0.8964983
551.30 0.9673718
551.40 1.03626
551.50 1.102188
551.60 1.165815
551.70 1.230326
551.80 1.298129
551.90 1.368469
552.00 1.438076
552.10 1.502243
552.20 1.557202
552.30 1.602569
552.40 1.639629
552.50 1.668222
552.60 1.687131
552.70 1.697479
552.80 1.701833
552.90 1.702889
553.00 1.703334
553.10 1.704057
553.20 1.70604
553.30 1.70988
553.40 1.714013
553.50 1.715756
553.60 1.715756
553.70 1.715756
553.80 1.714177
553.90 1.697419
554.00 1.666435
554.10 1.621652
554.20 1.565239
554.30 1.526564
554.40 1.513502
554.50 1.522697
554.60 1.544438
554.70 1.567075
554.80 1.58098
554.90 1.580011
555.00 1.565
555.10 1.542255
555.20 1.531678
555.30 1.55777
555.40 1.617304
555.50 1.714467
555.60 1.873479
555.70 2.104349
555.80 2.404169
555.90 2.761369
556.00 3.157815
556.10 3.569254
556.20 3.966985
556.30 4.323194
556.40 4.615314
556.50 4.834759
556.60 4.979467
556.70 5.053358
556.80 5.091265
556.90 5.11985
557.00 5.137838
557.10 5.146041
557.20 5.146724
557.30 5.143645
557.40 5.141708
557.50 5.147105
557.60 5.164458
557.70 5.197337
557.80 5.25333
557.90 5.340602
558.00 5.461739
558.10 5.615149
558.20 5.798554
558.30 5.981537
558.40 6.151511
558.50 6.304879
558.60 6.441975
558.70 6.562303
558.80 6.664483
558.90 6.74832
559.00 6.81242
559.10 6.854707
559.20 6.859852
559.30 6.809332
559.40 6.716692
559.50 6.588489
559.60 6.404368
559.70 6.151054
559.80 5.826768
559.90 5.440767
560.00 5.012999
560.10 4.573295
560.20 4.155673
560.30 3.790297
560.40 3.500408
560.50 3.295581
560.60 3.178191
560.70 3.139441
560.80 3.13547
560.90 3.129624
561.00 3.117134
561.10 3.108207
561.20 3.105542
561.30 3.10478
561.40 3.102585
561.50 3.095444
561.60 3.078091
561.70 3.045212
561.80 2.992307
561.90 2.909965
562.00 2.797255
562.10 2.659299
562.20 2.503009
562.30 2.335795
562.40 2.161604
562.50 1.979826
562.60 1.790405
562.70 1.598102
562.80 1.410462
562.90 1.250693
563.00 1.12578
563.10 1.032161
563.20 0.965145
563.30 0.9194392
563.40 0.9015105
563.50 0.8970987
563.60 0.8941917
563.70 0.8846036
563.80 0.86598
563.90 0.8405756
564.00 0.8114366
564.10 0.7808878
564.20 0.7501838
564.30 0.7169749
564.40 0.6776831
564.50 0.634472
564.60 0.5882448
564.70 0.5427566
564.80 0.504467
564.90 0.4806711
565.00 0.4747291
565.10 0.4879871
565.20 0.5171562
565.30 0.5545614
565.40 0.5890664
565.50 0.6106781
565.60 0.6160941
565.70 0.6160941
565.80 0.6130061
565.90 0.6080761
566.00 0.6001779
566.10 0.6119511
566.20 0.6447777
566.30 0.693001
566.40 0.7540108
566.50 0.8308085
566.60 0.9285943
566.70 1.052156
566.80 1.202861
566.90 1.362355
567.00 1.522331
567.10 1.679568
567.20 1.832506
567.30 1.978807
567.40 2.099173
567.50 2.198068
567.60 2.289569
567.70 2.391877
567.80 2.515399
567.90 2.659249
568.00 2.813561
568.10 2.962621
568.20 3.092047
568.30 3.193349
568.40 3.261236
568.50 3.289546
568.60 3.289546
568.70 3.289546
568.80 3.289546
568.90 3.289546
569.00 3.289546
569.10 3.276288
569.20 3.262423
569.30 3.254455
569.40 3.258499
569.50 3.277555
569.60 3.30667
569.70 3.32669
569.80 3.32669
569.90 3.32669
570.00 3.326162
570.10 3.298934
570.20 3.238993
570.30 3.148512
570.40 3.033247
570.50 2.899753
570.60 2.754411
570.70 2.601825
570.80 2.453149
570.90 2.320292
571.00 2.204951
571.10 2.10708
571.20 2.025807
571.30 1.961127
571.40 1.911415
571.50 1.869262
571.60 1.820308
571.70 1.74705
571.80 1.638655
571.90 1.49766
572.00 1.337631
572.10 1.183219
572.20 1.049428
572.30 0.9451358
572.40 0.8772486
572.50 0.8489383
572.60 0.8489383
572.70 0.8489383
572.80 0.8489383
572.90 0.8489383
573.00 0.8489383
573.10 0.8489383
573.20 0.8336346
573.30 0.8041975
573.40 0.765648
573.50 0.7249809
573.60 0.6904492
573.70 0.6704297
573.80 0.6704297
573.90 0.6774723
574.00 0.6935053
574.10 0.71454
574.20 0.736663
574.30 0.7571248
574.40 0.7744587
574.50 0.7879649
574.60 0.7971366
574.70 0.8013925
574.80 0.7932995
574.90 0.7666621
575.00 0.7220266
575.10 0.6626604
575.20 0.5909962
575.30 0.5086342
575.40 0.4226865
575.50 0.3469371
575.60 0.2884639
575.70 0.2551609
575.80 0.2537736
575.90 0.2844913
576.00 0.3405284
576.10 0.4063494
576.20 0.4731461
576.30 0.5337295
576.40 0.5823482
576.50 0.6149909
576.60 0.6279873
576.70 0.6279873
576.80 0.6279873
576.90 0.6279873
577.00 0.6279873
577.10 0.6279873
577.20 0.6279873
577.30 0.6380569
577.40 0.6601868
577.50 0.6936978
577.60 0.7364769
577.70 0.7872642
577.80 0.8456463
577.90 0.9039078
578.00 0.9609907
578.10 1.023257
578.20 1.095514
578.30 1.177627
578.40 1.265676
578.50 1.35434
578.60 1.438119
578.70 1.512644
578.80 1.572797
578.90 1.611558
579.00 1.628817
579.10 1.628817
579.20 1.628817
579.30 1.628817
579.40 1.626258
579.50 1.614789
579.60 1.595104
579.70 1.566879
579.80 1.528426
579.90 1.478719
580.00 1.419252
580.10 1.353431
580.20 1.286634
580.30 1.226051
580.40 1.177432
580.50 1.144789
580.60 1.131793
580.70 1.131793
580.80 1.131793
580.90 1.131793
581.00 1.131793
581.10 1.131793
581.20 1.142417
581.30 1.164763
581.40 1.189727
581.50 1.209245
581.60 1.214852
581.70 1.198129
581.80 1.153525
581.90 1.08822
582.00 1.015105
582.10 0.9318039
582.20 0.8374231
582.30 0.74153
582.40 0.6515608
582.50 0.5673075
582.60 0.4904248
582.70 0.4247181
582.80 0.3742621
582.90 0.3425089
583.00 0.3323198
583.10 0.3429633
583.20 0.3611377
583.30 0.388315
583.40 0.42152
583.50 0.4565919
583.60 0.4905419
583.70 0.523927
583.80 0.5621642
583.90 0.6145071
584.00 0.6901987
584.10 0.7940126
584.20 0.9242373
584.30 1.07198
584.40 1.223712
584.50 1.36431
584.60 1.480199
584.70 1.563937
584.80 1.617962
584.90 1.65197
585.00 1.677877
585.10 1.706885
585.20 1.734929
585.30 1.748837
585.40 1.745955
585.50 1.721151
585.60 1.672765
585.70 1.6387
585.80 1.624922
585.90 1.624922
586.00 1.624922
586.10 1.624922
586.20 1.624922
586.30 1.618241
586.40 1.602828
586.50 1.584911
586.60 1.568843
586.70 1.555768
586.80 1.546071
586.90 1.539064
587.00 1.531993
587.10 1.52135
587.20 1.503175
587.30 1.475998
587.40 1.442793
587.50 1.407721
587.60 1.373771
587.70 1.340386
587.80 1.302149
587.90 1.249806
588.00 1.174114
588.10 1.071328
588.20 0.9564206
588.30 0.8244208
588.40 0.6763444
588.50 0.5357463
588.60 0.4198565
588.70 0.3361188
588.80 0.2820936
588.90 0.248086
589.00 0.2221794
589.10 0.1931714
589.20 0.1547189
589.30 0.1246537
589.40 0.1033147
589.50 0.09411066
589.60 0.1013006
589.70 0.1013006
589.80 0.1013006
589.90 0.1013006
590.00 0.1013006
590.10 0.1013006
590.20 0.1013006
590.30 0.1013006
590.40 0.1013006
590.50 0.1330128
590.60 0.2021238
590.70 0.3002486
590.80 0.4104821
590.90 0.5113074
591.00 0.5824898
591.10 0.6096755
591.20 0.6096755
591.30 0.6096755
591.40 0.6096755
591.50 0.6096755
591.60 0.6096755
591.70 0.6096755
591.80 0.6096755
591.90 0.6096755
592.00 0.6096755
592.10 0.6086484
592.20 0.5933307
592.30 0.5775876
592.40 0.5739326
592.50 0.5739326
592.60 0.5788564
592.70 0.595297
592.80 0.6153852
592.90 0.6324474
593.00 0.6411703
593.10 0.6411703
593.20 0.640954
593.30 0.6246952
593.40 0.6018223
593.50 0.5828025
593.60 0.5756126
593.70 0.5756126
593.80 0.5795645
593.90 0.5849243
594.00 0.5864401
594.10 0.5864401
594.20 0.5864401
594.30 0.5864401
594.40 0.5864401
594.50 0.5547278
594.60 0.4856168
594.70 0.3874921
594.80 0.2772585
594.90 0.1764332
595.00 0.1052508
595.10 0.07806518
595.20 0.07806518
595.30 0.07806518
595.40 0.07935344
595.50 0.08766938
595.60 0.09883784
595.70 0.1095593
595.80 0.1172721
595.90 0.1204043
596.00 0.1207994
596.10 0.1233373
596.20 0.1347654
596.30 0.1613556
596.40 0.2045812
596.50 0.260119
596.60 0.3160943
596.70 0.3591945
596.80 0.391323
596.90 0.4150223
597.00 0.4337836
597.10 0.4468452
597.20 0.4468452
597.30 0.4468452
597.40 0.4468452
597.50 0.4468452
597.60 0.4468452
597.70 0.4468452
597.80 0.457092
597.90 0.4844632
598.00 0.5263748
598.10 0.571942
598.20 0.6138008
598.30 0.6482718
598.40 0.673684
598.50 0.6929167
598.60 0.7136601
598.70 0.7453124
598.80 0.7955333
598.90 0.8673173
599.00 0.9555138
599.10 1.049364
599.20 1.138155
599.30 1.214455
599.40 1.273454
599.50 1.307266
599.60 1.318704
599.70 1.310972
599.80 1.303259
599.90 1.300127
600.00 1.737097
600.10 1.822687
600.20 1.67435
600.30 1.378842
600.40 1.016488
600.50 0.7693064
600.60 0.8297374
600.70 1.26609
600.80 2.008836
600.90 2.871359
601.00 3.527862
601.10 3.754023
601.20 3.551627
601.30 3.051985
601.40 2.411509
601.50 1.685112
601.60 0.9042593
601.70 0.1195612
601.80 0
601.90 0
602.00 0
602.10 0
602.20 0
602.30 0
602.40 0
602.50 0
602.60 0
602.70 0
602.80 0
602.90 0
603.00 0
603.10 0.5575404
603.20 1.855261
603.30 3.085976
603.40 4.138469
603.50 4.792717
603.60 4.890033
603.70 4.500248
603.80 3.870855
603.90 3.259825
604.00 2.835144
604.10 2.683189
604.20 2.856709
604.30 3.319768
604.40 3.843518
604.50 4.122233
604.60 3.964871
604.70 3.361324
604.80 2.454872
604.90 1.514152
605.00 0.7869022
605.10 0.3539752
605.20 0.120736
605.30 0
605.40 0
605.50 0
605.60 0
605.70 0
605.80 0.01263253
605.90 0.372855
606.00 0.8837922
606.10 1.480279
606.20 2.073513
606.30 2.546966
606.40 2.788003
606.50 2.8041
606.60 2.707573
606.70 2.597377
606.80 2.481654
606.90 2.317343
607.00 2.113624
607.10 1.936013
607.20 1.866144
607.30 1.985408
607.40 2.324057
607.50 2.842016
607.60 3.487209
607.70 4.188503
607.80 4.902728
607.90 5.575375
608.00 6.102165
608.10 6.358024
608.20 6.260064
608.30 5.833086
608.40 5.171345
608.50 4.337481
608.60 3.389337
608.70 2.475906
608.80 1.800822
608.90 1.503215
609.00 1.589068
609.10 1.958278
609.20 2.390366
609.30 2.621024
609.40 2.486807
609.50 2.067833
609.60 1.571885
609.70 1.116872
609.80 0.7238284
609.90 0.489464
610.00 0.531607
610.10 0.8280293
610.20 1.253815
610.30 1.660512
610.40 1.958178
610.50 2.125112
610.60 2.262685
610.70 2.523806
610.80 2.98546
610.90 3.544203
611.00 4.005752
611.10 4.28302
611.20 4.391816
611.30 4.325778
611.40 4.074717
611.50 3.669969
611.60 3.169809
611.70 2.660727
611.80 2.232405
611.90 2.019672
612.00 2.078321
612.10 2.328496
612.20 2.610198
612.30 2.801765
612.40 2.85688
612.50 2.704497
612.60 2.312059
612.70 1.7404
612.80 1.100091
612.90 0.5446502
613.00 0.263472
613.10 0.4153216
613.20 1.028446
613.30 1.898871
613.40 2.718542
613.50 3.258435
613.60 3.421812
613.70 3.219663
613.80 2.76015
613.90 2.232276
614.00 1.793722
614.10 1.521212
614.20 1.448051
614.30 1.53286
614.40 1.693484
614.50 1.88285
614.60 2.091199
614.70 2.368286
614.80 2.77108
614.90 3.322618
615.00 4.026222
615.10 4.805367
615.20 5.49314
615.30 5.929262
615.40 6.04575
615.50 5.898359
615.60 5.601487
615.70 5.280318
615.80 5.002473
615.90 4.758888
616.00 4.533655
616.10 4.317196
616.20 4.102603
616.30 3.90205
616.40 3.7268
616.50 3.609151
616.60 3.677431
616.70 4.013181
616.80 4.554547
616.90 5.194575
617.00 5.79797
617.10 6.228862
617.20 6.432365
617.30 6.456747
617.40 6.388652
617.50 6.283874
617.60 6.166143
617.70 5.978948
617.80 5.676298
617.90 5.291036
618.00 4.793352
618.10 4.19483
618.20 3.613004
618.30 3.125115
618.40 2.774089
618.50 2.589812
618.60 2.532489
618.70 2.462519
618.80 2.240107
618.90 1.861935
619.00 1.434625
619.10 1.110997
619.20 0.9574266
619.30 0.9168704
619.40 0.877324
619.50 0.748864
619.60 0.5393895
619.70 0.3637298
619.80 0.3215944
619.90 0.4114238
620.00 0.6058608
620.10 0.8920555
620.20 1.258763
620.30 1.631072
620.40 1.909616
620.50 2.019481
620.60 2.00233
620.70 2.008194
620.80 2.157987
620.90 2.505881
621.00 3.015079
621.10 3.486598
621.20 3.734393
621.30 3.749348
621.40 3.599987
621.50 3.356497
621.60 3.085384
621.70 2.873547
621.80 2.762391
621.90 2.779882
622.00 2.879964
622.10 2.919063
622.20 2.853592
622.30 2.702012
622.40 2.467993
622.50 2.206627
622.60 1.98481
622.70 1.827042
622.80 1.7856
622.90 1.927313
623.00 2.248885
623.10 2.660939
623.20 3.046673
623.30 3.316044
623.40 3.43942
623.50 3.441582
623.60 3.325563
623.70 3.076324
623.80 2.717699
623.90 2.326087
624.00 2.028475
624.10 1.949743
624.20 2.093425
624.30 2.369518
624.40 2.65589
624.50 2.827558
624.60 2.791205
624.70 2.531429
624.80 2.129634
624.90 1.694244
625.00 1.287288
625.10 0.9706062
625.20 0.8311437
625.30 0.9025171
625.40 1.152474
625.50 1.515553
625.60 1.949449
625.70 2.396228
625.80 2.765717
625.90 2.992412
626.00 3.108656
626.10 3.173134
626.20 3.18829
626.30 3.198657
626.40 3.301978
626.50 3.53347
626.60 3.811788
626.70 4.047564
626.80 4.187186
626.90 4.140019
627.00 3.802219
627.10 3.20367
627.20 2.523494
627.30 1.972514
627.40 1.672964
627.50 1.642671
627.60 1.863012
627.70 2.245375
627.80 2.677928
627.90 3.065725
628.00 3.369699
628.10 3.600938
628.20 3.76279
628.30 3.925651
628.40 4.181782
628.50 4.54377
628.60 4.967389
628.70 5.341814
628.80 5.536658
628.90 5.50454
629.00 5.235769
629.10 4.754394
629.20 4.144288
629.30 3.513509
629.40 2.963603
629.50 2.667548
629.60 2.806435
629.70 3.374717
629.80 4.169609
629.90 4.941622
630.00 5.506036
630.10 5.79401
630.20 5.863362
630.30 5.778583
630.40 5.594759
630.50 5.282126
630.60 4.813078
630.70 4.323827
630.80 3.988333
630.90 3.868829
631.00 3.944046
631.10 4.198947
631.20 4.659304
631.30 5.297971
631.40 5.961814
631.50 6.457917
631.60 6.662725
631.70 6.59389
631.80 6.335977
631.90 6.04838
632.00 5.891804
632.10 5.964348
632.20 6.320366
632.30 6.85903
632.40 7.357442
632.50 7.614768
632.60 7.514255
632.70 7.065716
632.80 6.429394
632.90 5.832823
633.00 5.393711
633.10 5.063029
633.20 4.770276
633.30 4.548084
633.40 4.449345
633.50 4.439789
633.60 4.455995
633.70 4.487834
633.80 4.553754
633.90 4.659448
634.00 4.820927
634.10 5.032044
634.20 5.209659
634.30 5.294879
634.40 5.321463
634.50 5.378091
634.60 5.579862
634.70 5.9512
634.80 6.42766
634.90 6.888444
635.00 7.205161
635.10 7.275721
635.20 7.00937
635.30 6.400534
635.40 5.538889
635.50 4.593397
635.60 3.802065
635.70 3.361931
635.80 3.365629
635.90 3.837511
636.00 4.668486
636.10 5.645473
636.20 6.638129
636.30 7.592832
636.40 8.378798
636.50 8.861952
636.60 9.029004
636.70 8.936303
636.80 8.622926
636.90 8.085691
637.00 7.336201
637.10 6.492685
637.20 5.707932
637.30 5.079837
637.40 4.782064
637.50 4.999453
637.60 5.652818
637.70 6.470763
637.80 7.198155
637.90 7.625195
638.00 7.626047
638.10 7.189507
638.20 6.450604
638.30 5.671126
638.40 5.100936
638.50 4.851544
638.60 4.958419
638.70 5.394283
638.80 5.986207
638.90 6.511355
639.00 6.856801
639.10 7.029946
639.20 7.094676
639.30 7.131585
639.40 7.168881
639.50 7.174725
639.60 7.091891
639.70 6.857404
639.80 6.472157
639.90 6.02008
640.00 5.594782
640.10 5.296196
640.20 5.211652
640.30 5.362701
640.40 5.696998
640.50 6.115724
640.60 6.514604
640.70 6.779274
640.80 6.848407
640.90 6.785457
641.00 6.686006
641.10 6.622186
641.20 6.628059
641.30 6.685843
641.40 6.746979
641.50 6.736621
641.60 6.627674
641.70 6.499822
641.80 6.418821
641.90 6.369685
642.00 6.312237
642.10 6.2149
642.20 6.071732
642.30 5.861962
642.40 5.574431
642.50 5.240291
642.60 4.915826
642.70 4.66483
642.80 4.581306
642.90 4.772885
643.00 5.221938
643.10 5.753562
643.20 6.201373
643.30 6.459353
643.40 6.44709
643.50 6.175109
643.60 5.689803
643.70 5.053215
643.80 4.404011
643.90 3.904323
644.00 3.685396
644.10 3.807291
644.20 4.240663
644.30 4.904726
644.40 5.706701
644.50 6.556824
644.60 7.322038
644.70 7.89303
644.80 8.294356
644.90 8.56632
645.00 8.76193
645.10 8.942479
645.20 9.088769
645.30 9.143517
645.40 9.038852
645.50 8.750341
645.60 8.3083
645.70 7.758227
645.80 7.199656
645.90 6.743707
646.00 6.465005
646.10 6.418839
646.20 6.596549
646.30 6.98703
646.40 7.520184
646.50 8.05791
646.60 8.482074
646.70 8.68369
646.80 8.661166
646.90 8.484661
647.00 8.198209
647.10 7.853257
647.20 7.476953
647.30 7.060768
647.40 6.661629
647.50 6.3704
647.60 6.223708
647.70 6.160408
647.80 6.124353
647.90 6.132463
648.00 6.193914
648.10 6.336155
648.20 6.525562
648.30 6.697212
648.40 6.869028
648.50 7.093523
648.60 7.439544
648.70 7.957791
648.80 8.611743
648.90 9.312822
649.00 9.93828
649.10 10.36189
649.20 10.54191
649.30 10.52273
649.40 10.45436
649.50 10.50435
649.60 10.76169
649.70 11.21838
649.80 11.75076
649.90 12.17141
650.00 12.28548
650.10 11.94109
650.20 11.11417
650.30 9.894538
650.40 8.499302
650.50 7.257194
650.60 6.420528
650.70 6.113182
650.80 6.309809
650.90 6.852285
651.00 7.569745
651.10 8.322061
651.20 9.008235
651.30 9.536614
651.40 9.845039
651.50 9.982378
651.60 10.0539
651.70 10.15607
651.80 10.33671
651.90 10.55206
652.00 10.75296
652.10 10.88855
652.20 10.89009
652.30 10.73549
652.40 10.44807
652.50 10.10004
652.60 9.799037
652.70 9.655291
652.80 9.705254
652.90 9.899647
653.00 10.18334
653.10 10.50284
653.20 10.81235
653.30 11.08463
653.40 11.32448
653.50 11.54015
653.60 11.69372
653.70 11.70825
653.80 11.534
653.90 11.19114
654.00 10.70135
654.10 10.10593
654.20 9.583452
654.30 9.343796
654.40 9.437466
654.50 9.765191
654.60 10.18214
654.70 10.59124
654.80 10.9076
654.90 11.07205
655.00 11.11272
655.10 11.09695
655.20 11.06339
655.30 10.99878
655.40 10.91608
655.50 10.86657
655.60 10.84547
655.70 10.83901
655.80 10.91935
655.90 11.19753
656.00 11.71457
656.10 12.39528
656.20 13.0847
656.30 13.61566
656.40 13.89169
656.50 13.90324
656.60 13.70036
656.70 13.33913
656.80 12.86438
656.90 12.33808
657.00 11.80605
657.10 11.27281
657.20 10.74904
657.30 10.27767
657.40 9.882952
657.50 9.657616
657.60 9.733335
657.70 10.10129
657.80 10.63022
657.90 11.18617
658.00 11.6558
658.10 11.93189
658.20 11.95734
658.30 11.7082
658.40 11.24168
658.50 10.72045
658.60 10.2786
658.70 9.99701
658.80 9.979187
658.90 10.23391
659.00 10.64131
659.10 11.08011
659.20 11.43926
659.30 11.63887
659.40 11.69433
659.50 11.67951
659.60 11.66154
659.70 11.69725
659.80 11.84775
659.90 12.13272
660.00 12.53058
660.10 12.9441
660.20 13.19839
660.30 13.14373
660.40 12.72298
660.50 12.01899
660.60 11.21153
660.70 10.50146
660.80 10.03815
660.90 9.91724
661.00 10.14701
661.10 10.64487
661.20 11.24722
661.30 11.78057
661.40 12.11257
661.50 12.18989
661.60 12.0746
661.70 11.8808
661.80 11.73118
661.90 11.68709
662.00 11.74166
662.10 11.83726
662.20 11.87513
662.30 11.77794
662.40 11.57129
662.50 11.36484
662.60 11.2659
662.70 11.31076
662.80 11.48482
662.90 11.76384
663.00 12.08792
663.10 12.3845
663.20 12.61403
663.30 12.77195
663.40 12.89864
663.50 13.05372
663.60 13.28384
663.70 13.61488
663.80 14.03227
663.90 14.45603
664.00 14.76539
664.10 14.90688
664.20 14.92006
664.30 14.85174
664.40 14.7457
664.50 14.60322
664.60 14.35845
664.70 13.9773
664.80 13.47677
664.90 12.90254
665.00 12.34824
665.10 11.94992
665.20 11.81112
665.30 11.96991
665.40 12.43027
665.50 13.12002
665.60 13.87528
665.70 14.54215
665.80 15.05505
665.90 15.41889
666.00 15.66533
666.10 15.82016
666.20 15.8923
666.30 15.88612
666.40 15.80509
666.50 15.63142
666.60 15.34874
666.70 14.98328
666.80 14.64061
666.90 14.48421
667.00 14.66655
667.10 15.25559
667.20 16.12546
667.30 17.01397
667.40 17.68774
667.50 17.99207
667.60 17.88721
667.70 17.44619
667.80 16.79234
667.90 16.08376
668.00 15.49574
668.10 15.18993
668.20 15.22794
668.30 15.54045
668.40 15.98231
668.50 16.41249
668.60 16.74775
668.70 16.96786
668.80 17.10266
668.90 17.23154
669.00 17.43026
669.10 17.69286
669.20 17.97298
669.30 18.2108
669.40 18.34176
669.50 18.30774
669.60 18.07213
669.70 17.63885
669.80 17.02502
669.90 16.23765
670.00 15.33291
670.10 14.41413
670.20 13.56211
670.30 12.78229
670.40 12.02256
670.50 11.30158
670.60 10.70993
670.70 10.32939
670.80 10.19886
670.90 10.3356
671.00 10.72444
671.10 11.29398
671.20 11.96452
671.30 12.6629
671.40 13.30903
671.50 13.83489
671.60 14.23001
671.70 14.54514
671.80 14.84932
671.90 15.17398
672.00 15.52402
672.10 15.92442
672.20 16.39137
672.30 16.87237
672.40 17.27183
672.50 17.52137
672.60 17.59172
672.70 17.47091
672.80 17.19148
672.90 16.85925
673.00 16.56835
673.10 16.35866
673.20 16.25264
673.30 16.26222
673.40 16.39107
673.50 16.60251
673.60 16.8079
673.70 16.91961
673.80 16.88735
673.90 16.73555
674.00 16.54288
674.10 16.38902
674.20 16.37927
674.30 16.60822
674.40 17.11401
674.50 17.89344
674.60 18.86903
674.70 19.8782
674.80 20.69291
674.90 21.0811
675.00 20.97752
675.10 20.50134
675.20 19.85811
675.30 19.20193
675.40 18.61945
675.50 18.23715
675.60 18.12328
675.70 18.22455
675.80 18.42802
675.90 18.58029
676.00 18.55552
676.10 18.36055
676.20 18.08393
676.30 17.8157
676.40 17.59012
676.50 17.38888
676.60 17.18909
676.70 17.01817
676.80 16.98005
676.90 17.14331
677.00 17.48305
677.10 17.94031
677.20 18.4567
677.30 18.99409
677.40 19.52955
677.50 20.02532
677.60 20.44044
677.70 20.72654
677.80 20.87306
677.90 20.94393
678.00 21.02746
678.10 21.15761
678.20 21.27542
678.30 21.3201
678.40 21.292
678.50 21.20022
678.60 21.0135
678.70 20.68681
678.80 20.19949
678.90 19.55687
679.00 18.8003
679.10 18.02865
679.20 17.36856
679.30 16.93296
679.40 16.81004
679.50 16.99537
679.60 17.39742
679.70 17.87767
679.80 18.2688
679.90 18.46169
680.00 18.47602
680.10 18.41913
680.20 18.38428
680.30 18.35612
680.40 18.26538
680.50 18.09823
680.60 17.82436
680.70 17.38225
680.80 16.74084
680.90 16.00283
681.00 15.36757
681.10 14.99065
681.20 14.94337
681.30 15.21791
681.40 15.73423
681.50 16.36632
681.60 17
681.70 17.55905
681.80 17.99122
681.90 18.22327
682.00 18.22623
682.10 18.01943
682.20 17.63535
682.30 17.0903
682.40 16.40219
682.50 15.60184
682.60 14.78205
682.70 14.09212
682.80 13.58981
682.90 13.24125
683.00 12.98752
683.10 12.84377
683.20 12.89614
683.30 13.16389
683.40 13.60209
683.50 14.19101
683.60 14.86618
683.70 15.50507
683.80 16.00382
683.90 16.37753
684.00 16.70959
684.10 17.0259
684.20 17.33873
684.30 17.65166
684.40 17.96284
684.50 18.20164
684.60 18.24595
684.70 18.07071
684.80 17.7073
684.90 17.16828
685.00 16.51921
685.10 15.90451
685.20 15.45697
685.30 15.22638
685.40 15.16812
685.50 15.21212
685.60 15.35302
685.70 15.58835
685.80 15.87204
685.90 16.15471
686.00 16.37745
686.10 16.49557
686.20 16.50205
686.30 16.42006
686.40 16.29529
686.50 16.21427
686.60 16.28886
686.70 16.5537
686.80 16.96973
686.90 17.47645
687.00 17.94355
687.10 18.21833
687.20 18.20016
687.30 17.89056
687.40 17.36766
687.50 16.69221
687.60 15.90081
687.70 15.04944
687.80 14.23509
687.90 13.54207
688.00 13.00635
688.10 12.66043
688.20 12.52737
688.30 12.57632
688.40 12.75541
688.50 13.00783
688.60 13.23223
688.70 13.26858
688.80 13.06267
688.90 12.76246
689.00 12.55944
689.10 12.55566
689.20 12.74557
689.30 13.06984
689.40 13.46744
689.50 13.84703
689.60 14.09194
689.70 14.11488
689.80 13.87954
689.90 13.46429
690.00 13.04985
690.10 12.83052
690.20 12.8827
690.30 13.12461
690.40 13.46539
690.50 13.84994
690.60 14.21906
690.70 14.48363
690.80 14.52244
690.90 14.23445
691.00 13.60605
691.10 12.73309
691.20 11.75505
691.30 10.79165
691.40 9.989734
691.50 9.486294
691.60 9.336655
691.70 9.54595
691.80 10.0558
691.90 10.77095
692.00 11.53783
692.10 12.17722
692.20 12.6099
692.30 12.90322
692.40 13.20313
692.50 13.56737
692.60 13.98765
692.70 14.42252
692.80 14.75104
692.90 14.87369
693.00 14.76744
693.10 14.47305
693.20 14.09247
693.30 13.7045
693.40 13.4563
693.50 13.53853
693.60 13.9866
693.70 14.68765
693.80 15.44013
693.90 16.08301
694.00 16.55895
694.10 16.90776
694.20 17.1953
694.30 17.46926
694.40 17.82961
694.50 18.32249
694.60 18.8956
694.70 19.50267
694.80 20.07164
694.90 20.47414
695.00 20.59561
695.10 20.37482
695.20 19.83061
695.30 19.06612
695.40 18.18678
695.50 17.24588
695.60 16.31929
695.70 15.53039
695.80 14.90632
695.90 14.42468
696.00 14.10655
696.10 13.94118
696.20 13.85112
696.30 13.78923
696.40 13.79792
696.50 13.97228
696.60 14.37199
696.70 14.9574
696.80 15.63245
696.90 16.30005
697.00 16.90488
697.10 17.39029
697.20 17.74185
697.30 18.00115
697.40 18.1975
697.50 18.36082
697.60 18.49456
697.70 18.57526
697.80 18.56711
697.90 18.41287
698.00 18.10147
698.10 17.68049
698.20 17.22799
698.30 16.81893
698.40 16.49571
698.50 16.30616
698.60 16.313
698.70 16.52566
698.80 16.8602
698.90 17.21833
699.00 17.56621
699.10 17.89189
699.20 18.17322
699.30 18.38495
699.40 18.45916
699.50 18.33821
699.60 18.03622
699.70 17.63404
699.80 17.22171
699.90 16.8535
700.00 16.54334
700.10 16.29769
700.20 16.12883
700.30 16.01491
700.40 15.9303
700.50 15.8731
700.60 15.85876
700.70 15.92954
700.80 16.15572
700.90 16.5898
701.00 17.20947
701.10 17.94492
701.20 18.74971
701.30 19.59453
701.40 20.44129
701.50 21.24053
701.60 21.93678
701.70 22.48572
701.80 22.84016
701.90 22.9541
702.00 22.79955
702.10 22.34577
702.20 21.60049
702.30 20.6821
702.40 19.81383
702.50 19.22682
702.60 19.07749
702.70 19.42743
702.80 20.19177
702.90 21.20314
703.00 22.30161
703.10 23.28888
703.20 23.99487
703.30 24.36947
703.40 24.47578
703.50 24.46128
703.60 24.5008
703.70 24.69056
703.80 25.03682
703.90 25.51612
704.00 26.0087
704.10 26.28899
704.20 26.19406
704.30 25.71817
704.40 24.99017
704.50 24.24317
704.60 23.71371
704.70 23.58281
704.80 23.90784
704.90 24.52309
705.00 25.14581
705.10 25.58279
705.20 25.74275
705.30 25.58012
705.40 25.15394
705.50 24.61013
705.60 24.08226
705.70 23.63573
705.80 23.27324
705.90 22.98114
706.00 22.76829
706.10 22.62063
706.20 22.48431
706.30 22.40819
706.40 22.51864
706.50 22.85545
706.60 23.37915
706.70 24.00528
706.80 24.59842
706.90 25.05522
707.00 25.37484
707.10 25.60213
707.20 25.7795
707.30 25.96308
707.40 26.19109
707.50 26.43735
707.60 26.67841
707.70 26.92286
707.80 27.16122
707.90 27.36226
708.00 27.46983
708.10 27.44059
708.20 27.30044
708.30 27.13133
708.40 26.99221
708.50 26.88033
708.60 26.79064
708.70 26.7327
708.80 26.66582
708.90 26.54933
709.00 26.41995
709.10 26.31197
709.20 26.19331
709.30 26.01089
709.40 25.79164
709.50 25.61828
709.60 25.52888
709.70 25.49205
709.80 25.41849
709.90 25.26553
710.00 25.03596
710.10 24.72717
710.20 24.39036
710.30 24.08092
710.40 23.79538
710.50 23.55037
710.60 23.41529
710.70 23.44146
710.80 23.59063
710.90 23.7636
711.00 23.88197
711.10 23.90975
711.20 23.88854
711.30 23.88469
711.40 23.95297
711.50 24.13415
711.60 24.42099
711.70 24.8306
711.80 25.40504
711.90 26.10861
712.00 26.83753
712.10 27.48752
712.20 27.96704
712.30 28.19297
712.40 28.11701
712.50 27.8029
712.60 27.4339
712.70 27.19712
712.80 27.19573
712.90 27.47166
713.00 28.01223
713.10 28.6947
713.20 29.28637
713.30 29.57415
713.40 29.46721
713.50 28.99041
713.60 28.24869
713.70 27.40874
713.80 26.67292
713.90 26.2022
714.00 26.01762
714.10 26.04014
714.20 26.21946
714.30 26.54229
714.40 27.01429
714.50 27.63256
714.60 28.38147
714.70 29.1851
714.80 29.89878
714.90 30.40074
715.00 30.60324
715.10 30.447
715.20 29.915
715.30 29.04552
715.40 27.98261
715.50 26.95818
715.60 26.165
715.70 25.70351
715.80 25.5731
715.90 25.70002
716.00 25.9823
716.10 26.33696
716.20 26.71106
716.30 27.03238
716.40 27.26143
716.50 27.41882
716.60 27.54213
716.70 27.66544
716.80 27.78834
716.90 27.90141
717.00 28.00034
717.10 28.03831
717.20 27.94531
717.30 27.72049
717.40 27.42865
717.50 27.14507
717.60 26.96775
717.70 26.98218
717.80 27.22226
717.90 27.68686
718.00 28.35928
718.10 29.17969
718.20 30.02209
718.30 30.72953
718.40 31.19391
718.50 31.38437
718.60 31.33647
718.70 31.11296
718.80 30.81706
718.90 30.58978
719.00 30.48154
719.10 30.49139
719.20 30.63528
719.30 30.8758
719.40 31.10628
719.50 31.19725
719.60 31.0661
719.70 30.71956
719.80 30.19136
719.90 29.54135
720.00 28.88683
720.10 28.3601
720.20 28.02553
720.30 27.87538
720.40 27.91252
720.50 28.11837
720.60 28.40343
720.70 28.68064
720.80 28.92244
720.90 29.15123
721.00 29.40068
721.10 29.63837
721.20 29.7911
721.30 29.83163
721.40 29.73834
721.50 29.48132
721.60 29.07412
721.70 28.5993
721.80 28.18718
721.90 27.97062
722.00 28.03591
722.10 28.42182
722.20 29.12165
722.30 30.06635
722.40 31.10585
722.50 32.07053
722.60 32.82698
722.70 33.2446
722.80 33.2691
722.90 32.94924
723.00 32.41775
723.10 31.82378
723.20 31.25645
723.30 30.78713
723.40 30.51173
723.50 30.46944
723.60 30.56571
723.70 30.64861
723.80 30.6404
723.90 30.54206
724.00 30.34103
724.10 30.02576
724.20 29.6218
724.30 29.27632
724.40 29.20796
724.50 29.53775
724.60 30.29391
724.70 31.39304
724.80 32.66945
724.90 33.95964
725.00 35.14967
725.10 36.1559
725.20 36.8834
725.30 37.25211
725.40 37.27918
725.50 37.08641
725.60 36.78526
725.70 36.34995
725.80 35.68348
725.90 34.81159
726.00 33.8925
726.10 33.11052
726.20 32.56977
726.30 32.29196
726.40 32.25422
726.50 32.40672
726.60 32.70167
726.70 33.06515
726.80 33.3698
726.90 33.52058
727.00 33.63875
727.10 33.97184
727.20 34.60496
727.30 35.36786
727.40 35.97562
727.50 36.3191
727.60 36.45726
727.70 36.41713
727.80 36.22759
727.90 35.94952
728.00 35.64114
728.10 35.41048
728.20 35.41737
728.30 35.75442
728.40 36.32654
728.50 36.91799
728.60 37.40111
728.70 37.81906
728.80 38.24449
728.90 38.5932
729.00 38.74647
729.10 38.7379
729.20 38.65303
729.30 38.54085
729.40 38.42985
729.50 38.30213
729.60 38.10158
729.70 37.76576
729.80 37.22986
729.90 36.50668
730.00 35.69462
730.10 34.92709
730.20 34.36084
730.30 34.14308
730.40 34.29534
730.50 34.72928
730.60 35.34046
730.70 35.97609
730.80 36.46723
730.90 36.63712
731.00 36.48043
731.10 36.1923
731.20 35.9791
731.30 35.99165
731.40 36.31625
731.50 36.91302
731.60 37.63101
731.70 38.2996
731.80 38.80014
731.90 39.06596
732.00 39.06296
732.10 38.86264
732.20 38.5251
732.30 38.13193
732.40 37.75736
732.50 37.43836
732.60 37.26155
732.70 37.30152
732.80 37.55618
732.90 37.96185
733.00 38.41371
733.10 38.76735
733.20 38.92628
733.30 38.87181
733.40 38.5643
733.50 37.98481
733.60 37.25357
733.70 36.5247
733.80 35.84776
733.90 35.27139
734.00 34.90267
734.10 34.79011
734.20 34.92254
734.30 35.29318
734.40 35.88884
734.50 36.67712
734.60 37.54291
734.70 38.29122
734.80 38.82861
734.90 39.12121
735.00 39.13668
735.10 38.9283
735.20 38.62638
735.30 38.28176
735.40 37.85275
735.50 37.3123
735.60 36.68178
735.70 36.02202
735.80 35.45568
735.90 35.11983
736.00 35.12297
736.10 35.52827
736.20 36.22794
736.30 36.95734
736.40 37.48278
736.50 37.69162
736.60 37.50626
736.70 36.8663
736.80 35.85706
736.90 34.75621
737.00 33.87591
737.10 33.45059
737.20 33.54824
737.30 34.05876
737.40 34.77089
737.50 35.45483
737.60 36.00786
737.70 36.48575
737.80 36.94322
737.90 37.3282
738.00 37.58446
738.10 37.74837
738.20 37.83506
738.30 37.79659
738.40 37.61034
738.50 37.30102
738.60 36.93686
738.70 36.61868
738.80 36.43152
738.90 36.37254
739.00 36.32524
739.10 36.1696
739.20 35.93059
739.30 35.71216
739.40 35.56603
739.50 35.48417
739.60 35.40511
739.70 35.25394
739.80 34.94151
739.90 34.38365
740.00 33.64478
740.10 32.89197
740.20 32.24724
740.30 31.79975
740.40 31.62852
740.50 31.74879
740.60 32.02104
740.70 32.28821
740.80 32.5161
740.90 32.6937
741.00 32.81783
741.10 32.89099
741.20 32.98356
741.30 33.24414
741.40 33.70461
741.50 34.23421
741.60 34.6571
741.70 34.83095
741.80 34.67262
741.90 34.1532
742.00 33.32678
742.10 32.29124
742.20 31.17469
742.30 30.13156
742.40 29.26602
742.50 28.68286
742.60 28.49571
742.70 28.73463
742.80 29.31597
742.90 30.09358
743.00 30.94244
743.10 31.76451
743.20 32.49909
743.30 33.15365
743.40 33.77533
743.50 34.39409
743.60 34.97873
743.70 35.50725
743.80 36.03351
743.90 36.55567
744.00 36.95049
744.10 37.08625
744.20 36.89259
744.30 36.38166
744.40 35.65014
744.50 34.839
744.60 34.10285
744.70 33.55047
744.80 33.19468
744.90 33.01091
745.00 32.95309
745.10 32.96504
745.20 32.9956
745.30 33.02433
745.40 33.06388
745.50 33.09988
745.60 33.11268
745.70 33.10868
745.80 33.09369
745.90 33.06655
746.00 32.97711
746.10 32.79487
746.20 32.63131
746.30 32.62228
746.40 32.84618
746.50 33.29471
746.60 33.83919
746.70 34.30127
746.80 34.53941
746.90 34.51915
747.00 34.26944
747.10 33.87206
747.20 33.4454
747.30 33.0779
747.40 32.86768
747.50 32.86608
747.60 32.95473
747.70 32.97675
747.80 32.87516
747.90 32.68348
748.00 32.51665
748.10 32.47095
748.20 32.56218
748.30 32.74231
748.40 32.96422
748.50 33.19338
748.60 33.40717
748.70 33.5863
748.80 33.66594
748.90 33.5878
749.00 33.37997
749.10 33.10396
749.20 32.77176
749.30 32.33901
749.40 31.75317
749.50 31.05464
749.60 30.35742
749.70 29.75882
749.80 29.32741
749.90 29.10364
750.00 29.08786
750.10 29.25159
750.20 29.54494
750.30 29.91514
750.40 30.29868
750.50 30.63314
750.60 30.91031
750.70 31.17686
750.80 31.49062
750.90 31.83655
751.00 32.12987
751.10 32.31969
751.20 32.3872
751.30 32.34094
751.40 32.21834
751.50 32.06264
751.60 31.88176
751.70 31.58365
751.80 31.09266
751.90 30.43609
752.00 29.66147
752.10 28.77942
752.20 27.91593
752.30 27.25704
752.40 26.90816
752.50 26.90434
752.60 27.21026
752.70 27.74836
752.80 28.38702
752.90 28.96032
753.00 29.36507
753.10 29.63013
753.20 29.79093
753.30 29.80107
753.40 29.64311
753.50 29.39891
753.60 29.0396
753.70 28.50427
753.80 27.88128
753.90 27.28933
754.00 26.82075
754.10 26.50133
754.20 26.31028
754.30 26.26565
754.40 26.40489
754.50 26.70549
754.60 27.09737
754.70 27.51551
754.80 27.87797
754.90 28.07775
755.00 28.03204
755.10 27.69738
755.20 27.02473
755.30 26.03985
755.40 24.93438
755.50 23.95922
755.60 23.32367
755.70 23.12082
755.80 23.33367
755.90 23.90023
756.00 24.67471
756.10 25.41843
756.20 25.88407
756.30 25.92898
756.40 25.59447
756.50 24.99919
756.60 24.29931
756.70 23.6393
756.80 23.08424
756.90 22.72092
757.00 22.64704
757.10 22.90884
757.20 23.4705
757.30 24.21999
757.40 25.00374
757.50 25.66764
757.60 26.12455
757.70 26.34225
757.80 26.28242
757.90 25.9556
758.00 25.40462
758.10 24.71107
758.20 24.00926
758.30 23.35609
758.40 22.75959
758.50 22.22893
758.60 21.77085
758.70 21.39159
758.80 21.12421
758.90 21.02936
759.00 21.11047
759.10 21.25551
759.20 21.2512
759.30 20.97062
759.40 20.59937
759.50 20.48855
759.60 20.92839
759.70 21.98529
759.80 23.49041
759.90 25.26297
760.00 27.11391
760.10 28.66228
760.20 29.45675
760.30 29.2665
760.40 28.06599
760.50 26.06489
760.60 23.7954
760.70 21.82963
760.80 20.41946
760.90 19.53296
761.00 18.98281
761.10 18.64896
761.20 18.47783
761.30 18.25032
761.40 17.7389
761.50 16.97144
761.60 16.14598
761.70 15.42054
761.80 14.9102
761.90 14.64676
762.00 14.50002
762.10 14.32271
762.20 14.08613
762.30 13.79902
762.40 13.47861
762.50 13.2606
762.60 13.37561
762.70 13.97145
762.80 14.93136
762.90 15.8752
763.00 16.39098
763.10 16.17572
763.20 15.12685
763.30 13.37615
763.40 11.24883
763.50 9.148499
763.60 7.41798
763.70 6.383398
763.80 6.326891
763.90 7.170719
764.00 8.474551
764.10 9.748862
764.20 10.64709
764.30 11.07919
764.40 11.0489
764.50 10.54473
764.60 9.662994
764.70 8.610236
764.80 7.65325
764.90 7.05185
765.00 7.020436
765.10 7.563058
765.20 8.349897
765.30 8.995602
765.40 9.212818
765.50 8.821508
765.60 7.831842
765.70 6.386557
765.80 4.756272
765.90 3.316669
766.00 2.382089
766.10 2.117691
766.20 2.490676
766.30 3.311048
766.40 4.248913
766.50 4.975472
766.60 5.367551
766.70 5.433061
766.80 5.262107
766.90 5.026509
767.00 4.847015
767.10 4.745852
767.20 4.709898
767.30 4.716577
767.40 4.723466
767.50 4.68079
767.60 4.586612
767.70 4.46406
767.80 4.33545
767.90 4.229388
768.00 4.155865
768.10 4.136815
768.20 4.195997
768.30 4.323175
768.40 4.508767
768.50 4.750142
768.60 5.020762
768.70 5.249205
768.80 5.365531
768.90 5.340823
769.00 5.137209
769.10 4.70878
769.20 4.079458
769.30 3.321962
769.40 2.49382
769.50 1.63524
769.60 0.8493544
769.70 0.2463198
769.80 0
769.90 0
770.00 0
770.10 0.2997459
770.20 0.9343645
770.30 1.669059
770.40 2.419478
770.50 3.09153
770.60 3.574231
770.70 3.772683
770.80 3.613676
770.90 3.060558
771.00 2.038562
771.10 0.5984295
771.20 0
771.30 0
771.40 0
771.50 0
771.60 0
771.70 0
771.80 1.749538
771.90 4.496594
772.00 7.304518
772.10 9.768717
772.20 11.69462
772.30 13.06489
772.40 13.96344
772.50 14.47209
772.60 14.45562
772.70 13.89932
772.80 13.09719
772.90 12.33248
773.00 11.71464
773.10 11.16542
773.20 10.61215
773.30 10.19144
773.40 10.13746
773.50 10.5786
773.60 11.43873
773.70 12.46382
773.80 13.43846
773.90 14.24526
774.00 14.83184
774.10 15.22416
774.20 15.50984
774.30 15.72181
774.40 15.77982
774.50 15.65699
774.60 15.48085
774.70 15.36704
774.80 15.32158
774.90 15.36113
775.00 15.55224
775.10 15.94975
775.20 16.52989
775.30 17.13195
775.40 17.56709
775.50 17.72539
775.60 17.6098
775.70 17.40442
775.80 17.34032
775.90 17.56626
776.00 18.08609
776.10 18.80438
776.20 19.60032
776.30 20.29824
776.40 20.69322
776.50 20.64838
776.60 20.14821
776.70 19.39019
776.80 18.65093
776.90 18.16059
777.00 18.06278
777.10 18.29017
777.20 18.76916
777.30 19.47912
777.40 20.27789
777.50 20.94783
777.60 21.37555
777.70 21.56495
777.80 21.60317
777.90 21.60851
778.00 21.66838
778.10 21.80348
778.20 22.00548
778.30 22.23491
778.40 22.43643
778.50 22.62153
778.60 22.75164
778.70 22.73196
778.80 22.61628
778.90 22.51253
779.00 22.38494
779.10 22.19237
779.20 21.98372
779.30 21.81337
779.40 21.64397
779.50 21.34726
779.60 20.77832
779.70 19.83699
779.80 18.50562
779.90 16.91238
780.00 15.36017
780.10 14.16283
780.20 13.43909
780.30 13.22276
780.40 13.54979
780.50 14.29317
780.60 15.21751
780.70 16.15681
780.80 17.12718
780.90 18.25471
781.00 19.61401
781.10 21.24588
781.20 23.16802
781.30 25.25883
781.40 27.25736
781.50 28.83132
781.60 29.68231
781.70 29.69513
781.80 29.02358
781.90 28.05523
782.00 27.22703
782.10 26.84012
782.20 27.00078
782.30 27.72241
782.40 28.93877
782.50 30.44486
782.60 31.93002
782.70 33.07998
782.80 33.67602
782.90 33.70085
783.00 33.38868
783.10 33.00243
783.20 32.63314
783.30 32.22239
783.40 31.6605
783.50 30.97252
783.60 30.25987
783.70 29.53905
783.80 28.81724
783.90 28.1377
784.00 27.58413
784.10 27.26166
784.20 27.23979
784.30 27.54124
784.40 28.0972
784.50 28.79583
784.60 29.6145
784.70 30.44759
784.80 30.97794
784.90 30.92559
785.00 30.19606
785.10 28.90376
785.20 27.40072
785.30 26.11669
785.40 25.39056
785.50 25.36722
785.60 25.96607
785.70 27.05167
785.80 28.53714
785.90 30.29426
786.00 32.1106
786.10 33.87845
786.20 35.64151
786.30 37.35102
786.40 38.87459
786.50 40.05129
786.60 40.64834
786.70 40.53117
786.80 39.76511
786.90 38.62049
787.00 37.51773
787.10 36.78585
787.20 36.47718
787.30 36.49108
787.40 36.69263
787.50 36.95004
787.60 37.22755
787.70 37.53805
787.80 37.91712
787.90 38.44746
788.00 39.20967
788.10 40.14844
788.20 41.05104
788.30 41.69697
788.40 42.01722
788.50 42.00867
788.60 41.63504
788.70 40.88885
788.80 39.85324
788.90 38.7323
789.00 37.75727
789.10 37.10814
789.20 36.88553
789.30 37.09032
789.40 37.66688
789.50 38.58486
789.60 39.81241
789.70 41.25184
789.80 42.65385
789.90 43.71123
790.00 44.34985
790.10 44.69353
790.20 44.85518
790.30 44.87056
790.40 44.70673
790.50 44.36391
790.60 43.90617
790.70 43.39844
790.80 42.89261
790.90 42.45696
791.00 42.23803
791.10 42.34388
791.20 42.69602
791.30 43.20502
791.40 43.76851
791.50 44.25443
791.60 44.56541
791.70 44.58992
791.80 44.34201
791.90 43.9555
792.00 43.59499
792.10 43.46009
792.20 43.6574
792.30 44.14151
792.40 44.74843
792.50 45.29361
792.60 45.76866
792.70 46.25832
792.80 46.82404
792.90 47.48672
793.00 48.16623
793.10 48.81749
793.20 49.41265
793.30 49.84382
793.40 49.97135
793.50 49.67896
793.60 48.99782
793.70 48.12063
793.80 47.29553
793.90 46.73321
794.00 46.45628
794.10 46.26192
794.20 45.82616
794.30 44.76924
794.40 42.87635
794.50 40.14868
794.60 36.77104
794.70 33.16576
794.80 29.92118
794.90 27.63174
795.00 26.77819
795.10 27.58813
795.20 29.87268
795.30 33.17748
795.40 37.04325
795.50 40.9629
795.60 44.44077
795.70 47.23461
795.80 49.32551
795.90 50.82385
796.00 51.85297
796.10 52.50698
796.20 52.81496
796.30 52.75568
796.40 52.34037
796.50 51.65967
796.60 50.8972
796.70 50.22748
796.80 49.7682
796.90 49.63806
797.00 49.93516
797.10 50.60964
797.20 51.43351
797.30 52.14801
797.40 52.64294
797.50 52.92747
797.60 53.07363
797.70 53.25489
797.80 53.61186
797.90 54.08994
798.00 54.59265
798.10 55.05043
798.20 55.34614
798.30 55.37463
798.40 55.12324
798.50 54.69142
798.60 54.24377
798.70 53.88694
798.80 53.65678
798.90 53.67112
799.00 54.05647
799.10 54.74971
799.20 55.6335
799.30 56.7201
799.40 58.06217
799.50 59.65226
799.60 61.32292
799.70 62.85461
799.80 64.13408
799.90 65.09396
800.00 65.7049
800.10 66.04152
800.20 66.22772
800.30 66.28056
800.40 66.18312
800.50 66.03675
800.60 65.91719
800.70 65.74041
800.80 65.39943
800.90 64.86929
801.00 64.23392
801.10 63.62046
801.20 63.08409
801.30 62.61821
801.40 62.20378
801.50 61.8409
801.60 61.5755
801.70 61.45278
801.80 61.53216
801.90 61.83791
802.00 62.2792
802.10 62.74165
802.20 63.03691
802.30 62.97633
802.40 62.65039
802.50 62.35979
802.60 62.37858
802.70 62.85863
802.80 63.84246
802.90 65.27132
803.00 66.9407
803.10 68.54073
803.20 69.73199
803.30 70.26019
803.40 70.0568
803.50 69.24212
803.60 68.14278
803.70 67.14404
803.80 66.45877
803.90 66.13502
804.00 66.17251
804.10 66.59174
804.20 67.35952
804.30 68.34567
804.40 69.42136
804.50 70.52613
804.60 71.61476
804.70 72.55061
804.80 73.22152
804.90 73.5676
805.00 73.52055
805.10 73.14935
805.20 72.66148
805.30 72.27012
805.40 72.08987
805.50 72.11966
805.60 72.34879
805.70 72.83077
805.80 73.58956
805.90 74.47957
806.00 75.30656
806.10 75.99093
806.20 76.52083
806.30 76.97675
806.40 77.48455
806.50 78.03513
806.60 78.53042
806.70 78.90828
806.80 79.17196
806.90 79.37499
807.00 79.57467
807.10 79.749
807.20 79.83467
807.30 79.89964
807.40 80.04079
807.50 80.31835
807.60 80.75801
807.70 81.28841
807.80 81.76973
807.90 82.08765
808.00 82.21514
808.10 82.22249
808.20 82.24218
808.30 82.36667
808.40 82.62439
808.50 82.9752
808.60 83.29778
808.70 83.4161
808.80 83.2331
808.90 82.78632
809.00 82.19333
809.10 81.6298
809.20 81.25567
809.30 81.15389
809.40 81.30898
809.50 81.54139
809.60 81.61498
809.70 81.37909
809.80 80.79998
809.90 79.94919
810.00 78.98784
810.10 78.1512
810.20 77.67708
810.30 77.69565
810.40 78.2545
810.50 79.35146
810.60 80.9121
810.70 82.79158
810.80 84.72705
810.90 86.42426
811.00 87.64978
811.10 88.29969
811.20 88.37989
811.30 88.00287
811.40 87.33307
811.50 86.51559
811.60 85.6998
811.70 85.05105
811.80 84.70287
811.90 84.69863
812.00 85.03584
812.10 85.64924
812.20 86.48593
812.30 87.53397
812.40 88.71581
812.50 89.8886
812.60 90.92446
812.70 91.67378
812.80 91.97178
812.90 91.7492
813.00 91.08552
813.10 90.16902
813.20 89.21954
813.30 88.46086
813.40 88.07741
813.50 88.19814
813.60 88.7848
813.70 89.61322
813.80 90.4183
813.90 90.99595
814.00 91.22973
814.10 91.1157
814.20 90.83107
814.30 90.66641
814.40 90.81417
814.50 91.27191
814.60 91.863
814.70 92.25288
814.80 92.171
814.90 91.54492
815.00 90.47608
815.10 89.22906
815.20 88.10002
815.30 87.38664
815.40 87.38154
815.50 88.24768
815.60 89.91691
815.70 92.05298
815.80 94.16073
815.90 95.85131
816.00 97.0256
816.10 97.78908
816.20 98.22371
816.30 98.40488
816.40 98.51399
816.50 98.77383
816.60 99.36999
816.70 100.2895
816.80 101.3032
816.90 102.1135
817.00 102.5205
817.10 102.5248
817.20 102.2281
817.30 101.585
817.40 100.4036
817.50 98.67179
817.60 96.61351
817.70 94.48191
817.80 92.3774
817.90 90.21506
818.00 87.88863
818.10 85.43088
818.20 83.08937
818.30 81.28606
818.40 80.38762
818.50 80.52344
818.60 81.6171
818.70 83.52847
818.80 85.956
818.90 88.28024
819.00 89.71626
819.10 89.57933
819.20 87.5826
819.30 84.01396
819.40 79.69279
819.50 75.70246
819.60 72.96206
819.70 72.00025
819.80 72.96304
819.90 75.61555
820.00 79.45201
820.10 83.86068
820.20 88.25988
820.30 92.21511
820.40 95.52182
820.50 98.21483
820.60 100.4107
820.70 102.1529
820.80 103.3894
820.90 104.0595
821.00 104.1537
821.10 103.7451
821.20 103.0014
821.30 102.2013
821.40 101.6508
821.50 101.5335
821.60 101.8859
821.70 102.641
821.80 103.6437
821.90 104.6563
822.00 105.4917
822.10 106.1238
822.20 106.6133
822.30 107.0247
822.40 107.4301
822.50 107.9743
822.60 108.8273
822.70 110.0307
822.80 111.4452
822.90 112.8344
823.00 113.9475
823.10 114.5527
823.20 114.5365
823.30 113.9722
823.40 113.0829
823.50 112.1304
823.60 111.3467
823.70 110.9189
823.80 110.9804
823.90 111.4661
824.00 112.1145
824.10 112.6979
824.20 113.1027
824.30 113.3136
824.40 113.3594
824.50 113.3862
824.60 113.5576
824.70 113.9236
824.80 114.4791
824.90 115.1723
825.00 115.862
825.10 116.2676
825.20 116.1171
825.30 115.3377
825.40 114.0156
825.50 112.3409
825.60 110.6174
825.70 109.21
825.80 108.5052
825.90 108.7069
826.00 109.767
826.10 111.4621
826.20 113.3928
826.30 115.0736
826.40 116.06
826.50 116.1314
826.60 115.3407
826.70 113.926
826.80 112.3071
826.90 110.9953
827.00 110.4125
827.10 110.6522
827.20 111.4555
827.30 112.6348
827.40 114.1353
827.50 115.7299
827.60 117.1257
827.70 118.2458
827.80 119.2251
827.90 120.1243
828.00 120.8476
828.10 121.2763
828.20 121.3065
828.30 120.8652
828.40 120.0326
828.50 119.1498
828.60 118.5728
828.70 118.1941
828.80 117.7673
828.90 117.3715
829.00 117.0694
829.10 116.6674
829.20 115.8631
829.30 114.6189
829.40 113.2351
829.50 112.0832
829.60 111.1499
829.70 110.1485
829.80 109.052
829.90 108.0232
830.00 107.2713
830.10 107.0738
830.20 107.5493
830.30 108.5226
830.40 109.6881
830.50 110.8198
830.60 111.9334
830.70 113.0856
830.80 114.1349
830.90 114.8499
831.00 115.4054
831.10 116.2048
831.20 117.2662
831.30 118.3482
831.40 119.2444
831.50 119.9567
831.60 120.565
831.70 121.0776
831.80 121.5505
831.90 121.9739
832.00 122.147
832.10 121.8725
832.20 121.1086
832.30 119.942
832.40 118.5168
832.50 117.0618
832.60 115.8413
832.70 115.0868
832.80 114.9589
832.90 115.38
833.00 116.0894
833.10 116.8185
833.20 117.3567
833.30 117.595
833.40 117.5714
833.50 117.4248
833.60 117.214
833.70 116.9911
833.80 117.016
833.90 117.6359
834.00 119.0305
834.10 121.0479
834.20 123.1547
834.30 124.7119
834.40 125.3779
834.50 125.1923
834.60 124.4797
834.70 123.5912
834.80 122.5568
834.90 121.2469
835.00 119.8352
835.10 118.7609
835.20 118.3543
835.30 118.6569
835.40 119.4781
835.50 120.6103
835.60 122.0171
835.70 123.6786
835.80 125.3731
835.90 126.7724
836.00 127.6075
836.10 127.9067
836.20 128.1289
836.30 128.8074
836.40 130.1584
836.50 132.0368
836.60 134.0113
836.70 135.6
836.80 136.3851
836.90 136.105
837.00 134.8073
837.10 132.807
837.20 130.5216
837.30 128.4297
837.40 126.9047
837.50 125.935
837.60 125.3222
837.70 124.946
837.80 124.7664
837.90 124.6345
838.00 124.3976
838.10 124.0534
838.20 123.7157
838.30 123.4722
838.40 123.3361
838.50 123.4073
838.60 123.8416
838.70 124.5999
838.80 125.4607
838.90 126.2944
839.00 127.0185
839.10 127.5085
839.20 127.6659
839.30 127.6071
839.40 127.596
839.50 127.8686
839.60 128.6608
839.70 130.1769
839.80 132.3432
839.90 134.7265
840.00 136.8404
840.10 138.3914
840.20 139.3153
840.30 139.6837
840.40 139.6172
840.50 139.2078
840.60 138.5393
840.70 137.78
840.80 137.1686
840.90 136.8177
841.00 136.707
841.10 136.8017
841.20 137.1369
841.30 137.7316
841.40 138.3994
841.50 138.9159
841.60 139.1485
841.70 138.9812
841.80 138.3063
841.90 137.2305
842.00 136.1245
842.10 135.3881
842.20 135.238
842.30 135.743
842.40 136.8148
842.50 138.2139
842.60 139.7486
842.70 141.2077
842.80 142.4079
842.90 143.1713
843.00 143.2244
843.10 142.4955
843.20 141.2013
843.30 139.612
843.40 137.9277
843.50 136.2046
843.60 134.3608
843.70 132.3031
843.80 130.0791
843.90 127.8607
844.00 125.7748
844.10 124.0564
844.20 123.0021
844.30 122.7889
844.40 123.45
844.50 124.7639
844.60 126.4327
844.70 128.2208
844.80 129.8159
844.90 130.9127
845.00 131.2817
845.10 130.7984
845.20 129.5378
845.30 127.7001
845.40 125.4962
845.50 123.0789
845.60 120.6571
845.70 118.6013
845.80 117.2675
845.90 116.8698
846.00 117.3521
846.10 118.3206
846.20 119.2726
846.30 119.807
846.40 119.8763
846.50 119.7822
846.60 119.7457
846.70 119.7954
846.80 119.94
846.90 120.2106
847.00 120.5588
847.10 120.6987
847.20 120.3888
847.30 119.63
847.40 118.5638
847.50 117.4063
847.60 116.3668
847.70 115.5785
847.80 114.9692
847.90 114.3147
848.00 113.5198
848.10 112.6794
848.20 111.9885
848.30 111.6653
848.40 111.7898
848.50 112.3249
848.60 113.1203
848.70 113.9296
848.80 114.5447
848.90 114.8249
849.00 114.765
849.10 114.5717
849.20 114.5669
849.30 114.9007
849.40 115.4946
849.50 116.2401
849.60 117.024
849.70 117.7506
849.80 118.3728
849.90 118.9872
850.00 119.8244
850.10 120.9531
850.20 122.1485
850.30 123.1676
850.40 123.9032
850.50 124.2615
850.60 124.1294
850.70 123.4937
850.80 122.4848
850.90 121.3638
851.00 120.4663
851.10 120.0118
851.20 120.0663
851.30 120.4735
851.40 120.7812
851.50 120.4054
851.60 118.8226
851.70 115.614
851.80 110.567
851.90 103.8809
852.00 96.24343
852.10 88.75019
852.20 82.69758
852.30 79.27041
852.40 79.13781
852.50 82.22557
852.60 87.84985
852.70 94.96894
852.80 102.4248
852.90 109.2503
853.00 114.8265
853.10 118.8664
853.20 121.4425
853.30 122.9189
853.40 123.7454
853.50 124.306
853.60 124.8206
853.70 125.2093
853.80 125.3
853.90 125.1371
854.00 124.8968
854.10 124.6923
854.20 124.6088
854.30 124.7531
854.40 125.2134
854.50 126.1982
854.60 128.0012
854.70 130.7345
854.80 134.1875
854.90 137.8676
855.00 141.1366
855.10 143.3725
855.20 144.1454
855.30 143.3264
855.40 141.1099
855.50 137.9591
855.60 134.5023
855.70 131.3746
855.80 129.1424
855.90 128.109
856.00 128.1534
856.10 128.9423
856.20 130.2133
856.30 131.7403
856.40 133.1753
856.50 134.1414
856.60 134.3928
856.70 133.8583
856.80 132.6748
856.90 131.2021
857.00 129.8745
857.10 129.1033
857.20 129.1131
857.30 129.8854
857.40 131.3221
857.50 133.1506
857.60 134.8848
857.70 136.1233
857.80 136.8034
857.90 137.1075
858.00 137.2753
858.10 137.5088
858.20 137.9183
858.30 138.5027
858.40 139.181
858.50 139.8118
858.60 140.2131
858.70 140.2634
858.80 139.9208
858.90 139.2564
859.00 138.4404
859.10 137.7477
859.20 137.5251
859.30 138.0619
859.40 139.4929
859.50 141.7845
859.60 144.5344
859.70 147.0856
859.80 148.9685
859.90 149.8768
860.00 149.6494
860.10 148.3463
860.20 146.2784
860.30 143.864
860.40 141.4838
860.50 139.3489
860.60 137.4087
860.70 135.4495
860.80 133.1363
860.90 130.0785
861.00 126.1544
861.10 121.505
861.20 116.216
861.30 110.4144
861.40 104.503
861.50 99.10809
861.60 94.77368
861.70 91.67315
861.80 89.58036
861.90 88.12389
862.00 86.91768
862.10 85.661
862.20 84.27762
862.30 82.90592
862.40 81.79045
862.50 81.15239
862.60 81.0745
862.70 81.54068
862.80 82.33251
862.90 82.97821
863.00 82.93459
863.10 81.96241
863.20 80.34268
863.30 78.51258
863.40 76.84784
863.50 75.65634
863.60 75.09661
863.70 75.09013
863.80 75.42109
863.90 76.03009
864.00 77.10076
864.10 78.64738
864.20 80.36769
864.30 81.96347
864.40 83.33978
864.50 84.52488
864.60 85.5318
864.70 86.49727
864.80 87.70436
864.90 89.30546
865.00 91.26357
865.10 93.582
865.20 96.24763
865.30 98.75088
865.40 100.3157
865.50 100.6685
865.60 100.315
865.70 99.9907
865.80 100.1026
865.90 100.8033
866.00 102.1963
866.10 104.2945
866.20 106.8607
866.30 109.5547
866.40 111.9846
866.50 113.6632
866.60 114.2406
866.70 113.8826
866.80 113.0215
866.90 111.8166
867.00 110.1161
867.10 107.9801
867.20 105.9658
867.30 104.6912
867.40 104.4211
867.50 105.0649
867.60 106.3794
867.70 107.978
867.80 109.4188
867.90 110.3236
868.00 110.3871
868.10 109.476
868.20 107.7728
868.30 105.8585
868.40 104.4953
868.50 104.1049
868.60 104.506
868.70 105.1723
868.80 105.4286
868.90 104.6012
869.00 102.2253
869.10 98.24965
869.20 93.09666
869.30 87.58612
869.40 82.7202
869.50 79.30612
869.60 77.73495
869.70 77.99008
869.80 79.70732
869.90 82.24742
870.00 84.8547
870.10 86.91794
870.20 88.14656
870.30 88.44303
870.40 87.82013
870.50 86.39681
870.60 84.40213
870.70 82.01494
870.80 79.28733
870.90 76.3815
871.00 73.62245
871.10 71.41609
871.20 70.15746
871.30 70.01555
871.40 70.86495
871.50 72.37996
871.60 74.14645
871.70 75.76236
871.80 76.92267
871.90 77.50874
872.00 77.57246
872.10 77.29917
872.20 77.0151
872.30 77.08323
872.40 77.79718
872.50 79.21298
872.60 81.0715
872.70 83.04738
872.80 84.91967
872.90 86.50108
873.00 87.65773
873.10 88.37731
873.20 88.69317
873.30 88.68954
873.40 88.54599
873.50 88.50458
873.60 88.73797
873.70 89.28588
873.80 90.10211
873.90 91.17789
874.00 92.55311
874.10 94.11565
874.20 95.56433
874.30 96.63595
874.40 97.20539
874.50 97.1979
874.60 96.68764
874.70 95.87795
874.80 94.93795
874.90 94.04898
875.00 93.4604
875.10 93.30604
875.20 93.45909
875.30 93.72356
875.40 94.02477
875.50 94.42338
875.60 94.98593
875.70 95.61358
875.80 96.01193
875.90 96.0179
876.00 95.71951
876.10 95.22788
876.20 94.58578
876.30 93.84285
876.40 93.10319
876.50 92.63493
876.60 92.78791
876.70 93.64299
876.80 95.15604
876.90 97.38539
877.00 100.4392
877.10 104.4348
877.20 109.3008
877.30 114.618
877.40 119.741
877.50 123.8353
877.60 125.9244
877.70 125.4194
877.80 122.5446
877.90 117.9832
878.00 112.6005
878.10 107.423
878.20 103.1646
878.30 100.035
878.40 98.00774
878.50 96.90458
878.60 96.66794
878.70 97.39366
878.80 99.04132
878.90 101.4723
879.00 104.5861
879.10 108.1141
879.20 111.6195
879.30 114.6632
879.40 116.8474
879.50 117.892
879.60 117.7208
879.70 116.5148
879.80 114.5957
879.90 112.2944
880.00 109.8156
880.10 107.2039
880.20 104.4897
880.30 101.8784
880.40 99.80325
880.50 98.62909
880.60 98.25137
880.70 98.355
880.80 98.86669
880.90 99.94452
881.00 101.8402
881.10 104.7096
881.20 108.5519
881.30 113.2609
881.40 118.5642
881.50 124.08
881.60 129.3355
881.70 133.7792
881.80 136.9814
881.90 138.639
882.00 138.7599
882.10 137.7248
882.20 136.0331
882.30 134.1436
882.40 132.2688
882.50 130.3584
882.60 128.4025
882.70 126.7708
882.80 125.8498
882.90 125.6614
883.00 126.0374
883.10 126.7736
883.20 127.6739
883.30 128.7511
883.40 130.0389
883.50 131.361
883.60 132.5074
883.70 133.3691
883.80 134.0911
883.90 134.9603
884.00 135.9504
884.10 136.3763
884.20 135.4996
884.30 133.0854
884.40 129.2232
884.50 124.2994
884.60 119.0195
884.70 114.3142
884.80 111.1342
884.90 110.1998
885.00 111.7572
885.10 115.5278
885.20 120.7142
885.30 126.1224
885.40 130.5413
885.50 133.1934
885.60 133.8156
885.70 132.4584
885.80 129.6515
885.90 126.4809
886.00 124.1421
886.10 123.306
886.20 124.017
886.30 126.0043
886.40 128.7236
886.50 131.2848
886.60 132.6975
886.70 132.2837
886.80 129.9142
886.90 125.8839
887.00 120.8634
887.10 115.9002
887.20 112.0809
887.30 110.1363
887.40 110.3841
887.50 112.8919
887.60 117.4517
887.70 123.4327
887.80 129.9
887.90 135.9434
888.00 141.0523
888.10 144.9431
888.20 147.3793
888.30 148.2668
888.40 147.704
888.50 146.161
888.60 144.4887
888.70 143.4989
888.80 143.4284
888.90 144.0231
889.00 144.779
889.10 145.0619
889.20 144.257
889.30 141.9098
889.40 137.7705
889.50 132.1195
889.60 125.9943
889.70 120.7823
889.80 117.6337
889.90 116.8631
890.00 117.826
890.10 119.5118
890.20 121.1944
890.30 122.5146
890.40 123.2855
890.50 123.4663
890.60 123.1786
890.70 122.6963
890.80 122.4406
890.90 122.8533
891.00 124.0998
891.10 126.1574
891.20 128.8997
891.30 132.1856
891.40 135.9066
891.50 139.8183
891.60 143.557
891.70 146.6519
891.80 148.6365
891.90 149.1508
892.00 148.1152
892.10 145.8428
892.20 142.8005
892.30 139.4759
892.40 136.3189
892.50 133.5877
892.60 131.4376
892.70 130.0204
892.80 129.6004
892.90 130.5933
893.00 133.2376
893.10 137.4307
893.20 142.7147
893.30 148.3641
893.40 153.5052
893.50 157.1527
893.60 158.4089
893.70 156.5663
893.80 151.3814
893.90 143.4103
894.00 133.809
894.10 123.7467
894.20 114.1217
894.30 105.8543
894.40 99.94035
894.50 96.9374
894.60 96.81778
894.70 99.25188
894.80 103.6675
894.90 109.2862
895.00 115.4719
895.10 121.911
895.20 128.4135
895.30 134.8641
895.40 141.2409
895.50 147.6172
895.60 153.871
895.70 159.4755
895.80 163.8251
895.90 166.4885
896.00 167.3128
896.10 166.2653
896.20 163.3734
896.30 158.9751
896.40 153.6834
896.50 148.245
896.60 143.3702
896.70 139.4842
896.80 136.8632
896.90 135.8186
897.00 136.6414
897.10 139.2916
897.20 143.2206
897.30 147.7227
897.40 152.0483
897.50 155.493
897.60 157.6679
897.70 158.4496
897.80 157.8562
897.90 156.1739
898.00 154.1062
898.10 152.5244
898.20 152.0469
898.30 153.0023
898.40 155.6124
898.50 159.7253
898.60 164.4648
898.70 168.4277
898.80 170.4188
898.90 170.1328
899.00 168.0181
899.10 164.8876
899.20 161.657
899.30 159.0123
899.40 157.1351
899.50 155.7806
899.60 154.6004
899.70 153.331
899.80 151.7737
899.90 149.8831
900.00 149.849
900.10 149.8149
900.20 149.7808
900.30 149.7467
900.40 149.7126
900.50 149.6785
900.60 149.6444
900.70 149.6103
900.80 149.5762
900.90 149.542
901.00 149.5079
901.10 149.4738
901.20 149.4397
901.30 149.4056
901.40 149.3715
901.50 149.3374
901.60 149.3033
901.70 149.2692
901.80 149.2351
901.90 149.201
902.00 149.1669
902.10 149.1327
902.20 149.0986
902.30 149.0645
902.40 149.0304
902.50 148.9963
902.60 149.0599
902.70 149.4913
902.80 149.9226
902.90 150.354
903.00 150.7853
903.10 151.2167
903.20 151.648
903.30 152.0794
903.40 152.5107
903.50 152.9421
903.60 153.3734
903.70 153.8048
903.80 154.2361
903.90 154.6675
904.00 155.0988
904.10 155.5301
904.20 155.9615
904.30 156.3928
904.40 156.8242
904.50 157.2555
904.60 157.6869
904.70 158.1182
904.80 158.5496
904.90 158.9809
905.00 159.4123
905.10 159.8436
905.20 160.275
905.30 160.7063
905.40 161.1377
905.50 161.569
905.60 162.0003
905.70 162.4317
905.80 162.863
905.90 163.2944
906.00 163.7257
906.10 164.0053
906.20 164.2768
906.30 164.5484
906.40 164.8199
906.50 165.0915
906.60 165.363
906.70 165.6345
906.80 165.9061
906.90 166.1776
907.00 166.4492
907.10 166.7207
907.20 166.9923
907.30 167.2638
907.40 167.5354
907.50 167.8069
907.60 168.0785
907.70 168.35
907.80 168.6215
907.90 168.8931
908.00 169.1646
908.10 169.4362
908.20 169.7077
908.30 169.9793
908.40 170.2508
908.50 170.5224
908.60 170.7939
908.70 171.0655
908.80 171.337
908.90 171.6085
909.00 171.8801
909.10 172.1516
909.20 172.4232
909.30 172.6947
909.40 172.9663
909.50 173.2189
909.60 173.4532
909.70 173.6876
909.80 173.9219
909.90 174.1563
910.00 174.3906
910.10 174.625
910.20 174.8593
910.30 175.0937
910.40 175.328
910.50 175.5624
910.60 175.7967
910.70 176.0311
910.80 176.2654
910.90 176.4998
911.00 176.7342
911.10 176.9685
911.20 177.2029
911.30 177.4372
911.40 177.6716
911.50 177.9059
911.60 178.1403
911.70 178.3746
911.80 178.609
911.90 178.8433
912.00 179.0777
912.10 179.312
912.20 179.5464
912.30 179.7807
912.40 180.0151
912.50 180.2495
912.60 180.4838
912.70 180.7182
912.80 180.9525
912.90 181.1869
913.00 181.2817
913.10 181.3574
913.20 181.4332
913.30 181.509
913.40 181.5848
913.50 181.6605
913.60 181.7363
913.70 181.8121
913.80 181.8879
913.90 181.9636
914.00 182.0394
914.10 182.1152
914.20 182.191
914.30 182.2667
914.40 182.3425
914.50 182.4183
914.60 182.4941
914.70 182.5698
914.80 182.6456
914.90 182.7214
915.00 182.7972
915.10 182.8729
915.20 182.9487
915.30 183.0245
915.40 183.1003
915.50 183.176
915.60 183.2518
915.70 183.3276
915.80 183.4034
915.90 183.4791
916.00 183.5549
916.10 183.6307
916.20 183.7065
916.30 183.7822
916.40 183.8647
916.50 184.0243
916.60 184.1839
916.70 184.3435
916.80 184.5031
916.90 184.6626
917.00 184.8222
917.10 184.9818
917.20 185.1414
917.30 185.301
917.40 185.4606
917.50 185.6202
917.60 185.7797
917.70 185.9393
917.80 186.0989
917.90 186.2585
918.00 186.4181
918.10 186.5777
918.20 186.7372
918.30 186.8968
918.40 187.0564
918.50 187.216
918.60 187.3756
918.70 187.5352
918.80 187.6948
918.90 187.8543
919.00 188.0139
919.10 188.1735
919.20 188.3331
919.30 188.4927
919.40 188.6523
919.50 188.8119
919.60 188.9714
919.70 189.131
919.80 189.2906
919.90 189.4366
920.00 189.4597
920.10 189.4829
920.20 189.5061
920.30 189.5292
920.40 189.5524
920.50 189.5756
920.60 189.5987
920.70 189.6219
920.80 189.6451
920.90 189.6683
921.00 189.6914
921.10 189.7146
921.20 189.7378
921.30 189.7609
921.40 189.7841
921.50 189.8073
921.60 189.8304
921.70 189.8536
921.80 189.8768
921.90 189.8999
922.00 189.9231
922.10 189.9463
922.20 189.9695
922.30 189.9926
922.40 190.0158
922.50 190.039
922.60 190.0621
922.70 190.0853
922.80 190.1085
922.90 190.1316
923.00 190.1548
923.10 190.178
923.20 190.2012
923.30 190.2243
923.40 190.2475
923.50 190.5486
923.60 190.8674
923.70 191.1863
923.80 191.5051
923.90 191.824
924.00 192.1428
924.10 192.4617
924.20 192.7805
924.30 193.0993
924.40 193.4182
924.50 193.737
924.60 194.0559
924.70 194.3747
924.80 194.6936
924.90 195.0124
925.00 195.3313
925.10 195.6501
925.20 195.9689
925.30 196.2878
925.40 196.6066
925.50 196.9255
925.60 197.2443
925.70 197.5632
925.80 197.882
925.90 198.2009
926.00 198.5197
926.10 198.8385
926.20 199.1574
926.30 199.4762
926.40 199.7951
926.50 200.1139
926.60 200.4328
926.70 200.7516
926.80 201.0704
926.90 201.3893
927.00 201.5803
927.10 201.6896
927.20 201.7989
927.30 201.9082
927.40 202.0175
927.50 202.1268
927.60 202.2361
927.70 202.3454
927.80 202.4547
927.90 202.564
928.00 202.6733
928.10 202.7826
928.20 202.8919
928.30 203.0012
928.40 203.1105
928.50 203.2198
928.60 203.3291
928.70 203.4384
928.80 203.5477
928.90 203.657
929.00 203.7663
929.10 203.8756
929.20 203.9849
929.30 204.0942
929.40 204.2035
929.50 204.3128
929.60 204.4221
929.70 204.5314
929.80 204.6407
929.90 204.75
930.00 204.8593
930.10 204.9686
930.20 205.0779
930.30 205.1872
930.40 205.2965
930.50 205.399
930.60 205.4462
930.70 205.4934
930.80 205.5405
930.90 205.5877
931.00 205.6349
931.10 205.682
931.20 205.7292
931.30 205.7764
931.40 205.8235
931.50 205.8707
931.60 205.9179
931.70 205.9651
931.80 206.0122
931.90 206.0594
932.00 206.1066
932.10 206.1537
932.20 206.2009
932.30 206.2481
932.40 206.2952
932.50 206.3424
932.60 206.3896
932.70 206.4368
932.80 206.4839
932.90 206.5311
933.00 206.5783
933.10 206.6254
933.20 206.6726
933.30 206.7198
933.40 206.7669
933.50 206.8141
933.60 206.8613
933.70 206.9085
933.80 206.9556
933.90 207.0028
934.00 207.05
934.10 207.1717
934.20 207.3884
934.30 207.6051
934.40 207.8218
934.50 208.0386
934.60 208.2553
934.70 208.472
934.80 208.6887
934.90 208.9054
935.00 209.1221
935.10 209.3388
935.20 209.5555
935.30 209.7722
935.40 209.9889
935.50 210.2056
935.60 210.4223
935.70 210.639
935.80 210.8557
935.90 211.0724
936.00 211.2891
936.10 211.5058
936.20 211.7225
936.30 211.9393
936.40 212.156
936.50 212.3727
936.60 212.5894
936.70 212.8061
936.80 213.0228
936.90 213.2395
937.00 213.4562
937.10 213.6729
937.20 213.8896
937.30 214.1063
937.40 214.323
937.50 214.5397
937.60 214.7564
937.70 214.9349
937.80 215.0879
937.90 215.2408
938.00 215.3938
938.10 215.5468
938.20 215.6997
938.30 215.8527
938.40 216.0057
938.50 216.1587
938.60 216.3116
938.70 216.4646
938.80 216.6176
938.90 216.7705
939.00 216.9235
939.10 217.0765
939.20 217.2295
939.30 217.3824
939.40 217.5354
939.50 217.6884
939.60 217.8413
939.70 217.9943
939.80 218.1473
939.90 218.3003
940.00 218.4532
940.10 218.6062
940.20 218.7592
940.30 218.9121
940.40 219.0651
940.50 219.2181
940.60 219.3711
940.70 219.524
940.80 219.677
940.90 219.83
941.00 219.9829
941.10 220.1359
941.20 220.2889
941.30 220.5214
941.40 220.8093
941.50 221.0971
941.60 221.385
941.70 221.6728
941.80 221.9607
941.90 222.2485
942.00 222.5364
942.10 222.8242
942.20 223.1121
942.30 223.3999
942.40 223.6878
942.50 223.9756
942.60 224.2635
942.70 224.5513
942.80 224.8392
942.90 225.1271
943.00 225.4149
943.10 225.7028
943.20 225.9906
943.30 226.2785
943.40 226.5663
943.50 226.8542
943.60 227.142
943.70 227.4299
943.80 227.7177
943.90 228.0056
944.00 228.2934
944.10 228.5813
944.20 228.8691
944.30 229.157
944.40 229.4448
944.50 229.7327
944.60 230.0205
944.70 230.3084
944.80 230.5962
944.90 230.8541
945.00 231.069
945.10 231.2838
945.20 231.4986
945.30 231.7134
945.40 231.9283
945.50 232.1431
945.60 232.3579
945.70 232.5727
945.80 232.7876
945.90 233.0024
946.00 233.2172
946.10 233.432
946.20 233.6469
946.30 233.8617
946.40 234.0765
946.50 234.2914
946.60 234.5062
946.70 234.721
946.80 234.9358
946.90 235.1507
947.00 235.3655
947.10 235.5803
947.20 235.7951
947.30 236.01
947.40 236.2248
947.50 236.4396
947.60 236.6544
947.70 236.8693
947.80 237.0841
947.90 237.2989
948.00 237.5138
948.10 237.7286
948.20 237.9434
948.30 238.1582
948.40 238.3731
948.50 238.5706
948.60 238.5378
948.70 238.5051
948.80 238.4724
948.90 238.4397
949.00 238.407
949.10 238.3743
949.20 238.3416
949.30 238.3089
949.40 238.2761
949.50 238.2434
949.60 238.2107
949.70 238.178
949.80 238.1453
949.90 238.1126
950.00 238.0799
950.10 238.0471
950.20 238.0144
950.30 237.9817
950.40 237.949
950.50 237.9163
950.60 237.8836
950.70 237.8509
950.80 237.8182
950.90 237.7854
951.00 237.7527
951.10 237.72
951.20 237.6873
951.30 237.6546
951.40 237.6219
951.50 237.5892
951.60 237.5565
951.70 237.5237
951.80 237.491
951.90 237.4583
952.00 237.4256
952.10 237.3929
952.20 237.4664
952.30 237.6233
952.40 237.7801
952.50 237.937
952.60 238.0939
952.70 238.2508
952.80 238.4077
952.90 238.5646
953.00 238.7215
953.10 238.8784
953.20 239.0353
953.30 239.1922
953.40 239.3491
953.50 239.506
953.60 239.6629
953.70 239.8198
953.80 239.9767
953.90 240.1336
954.00 240.2905
954.10 240.4474
954.20 240.6043
954.30 240.7612
954.40 240.9181
954.50 241.075
954.60 241.2319
954.70 241.3888
954.80 241.5457
954.90 241.7026
955.00 241.8595
955.10 242.0164
955.20 242.1733
955.30 242.3302
955.40 242.4871
955.50 242.644
955.60 242.8009
955.70 242.9578
955.80 243.1147
955.90 243.1596
956.00 243.192
956.10 243.2245
956.20 243.257
956.30 243.2895
956.40 243.3219
956.50 243.3544
956.60 243.3869
956.70 243.4193
956.80 243.4518
956.90 243.4843
957.00 243.5167
957.10 243.5492
957.20 243.5817
957.30 243.6141
957.40 243.6466
957.50 243.6791
957.60 243.7115
957.70 243.744
957.80 243.7765
957.90 243.809
958.00 243.8414
958.10 243.8739
958.20 243.9064
958.30 243.9388
958.40 243.9713
958.50 244.0038
958.60 244.0362
958.70 244.0687
958.80 244.1012
958.90 244.1336
959.00 244.1661
959.10 244.1986
959.20 244.231
959.30 244.2635
959.40 244.296
959.50 244.3272
959.60 244.3417
959.70 244.3562
959.80 244.3707
959.90 244.3852
960.00 244.3997
960.10 244.4143
960.20 244.4288
960.30 244.4433
960.40 244.4578
960.50 244.4723
960.60 244.4868
960.70 244.5013
960.80 244.5158
960.90 244.5303
961.00 244.5448
961.10 244.5594
961.20 244.5739
961.30 244.5884
961.40 244.6029
961.50 244.6174
961.60 244.6319
961.70 244.6464
961.80 244.6609
961.90 244.6754
962.00 244.6899
962.10 244.7045
962.20 244.719
962.30 244.7335
962.40 244.748
962.50 244.7625
962.60 244.777
962.70 244.7915
962.80 244.806
962.90 244.8205
963.00 244.835
963.10 244.8496
963.20 244.8824
963.30 245.1009
963.40 245.3193
963.50 245.5377
963.60 245.7562
963.70 245.9746
963.80 246.193
963.90 246.4115
964.00 246.6299
964.10 246.8483
964.20 247.0668
964.30 247.2852
964.40 247.5036
964.50 247.7221
964.60 247.9405
964.70 248.159
964.80 248.3774
964.90 248.5958
965.00 248.8143
965.10 249.0327
965.20 249.2511
965.30 249.4696
965.40 249.688
965.50 249.9064
965.60 250.1249
965.70 250.3433
965.80 250.5618
965.90 250.7802
966.00 250.9986
966.10 251.2171
966.20 251.4355
966.30 251.6539
966.40 251.8724
966.50 252.0908
966.60 252.3092
966.70 252.5277
966.80 252.7461
966.90 252.9646
967.00 253.1504
967.10 253.3346
967.20 253.5187
967.30 253.7028
967.40 253.887
967.50 254.0711
967.60 254.2553
967.70 254.4394
967.80 254.6236
967.90 254.8077
968.00 254.9918
968.10 255.176
968.20 255.3601
968.30 255.5443
968.40 255.7284
968.50 255.9125
968.60 256.0967
968.70 256.2808
968.80 256.465
968.90 256.6491
969.00 256.8333
969.10 257.0174
969.20 257.2015
969.30 257.3857
969.40 257.5698
969.50 257.754
969.60 257.9381
969.70 258.1223
969.80 258.3064
969.90 258.4905
970.00 258.6747
970.10 258.8588
970.20 259.043
970.30 259.2271
970.40 259.4113
970.50 259.5954
970.60 259.7795
970.70 260.1809
970.80 260.6993
970.90 261.2177
971.00 261.736
971.10 262.2544
971.20 262.7728
971.30 263.2912
971.40 263.8095
971.50 264.3279
971.60 264.8463
971.70 265.3646
971.80 265.883
971.90 266.4014
972.00 266.9197
972.10 267.4381
972.20 267.9565
972.30 268.4749
972.40 268.9932
972.50 269.5116
972.60 270.03
972.70 270.5483
972.80 271.0667
972.90 271.5851
973.00 272.1034
973.10 272.6218
973.20 273.1402
973.30 273.6586
973.40 274.1769
973.50 274.6953
973.60 275.2137
973.70 275.732
973.80 276.2504
973.90 276.7688
974.00 277.2871
974.10 277.8055
974.20 278.3239
974.30 278.8423
974.40 279.2298
974.50 279.125
974.60 279.0203
974.70 278.9156
974.80 278.8109
974.90 278.7061
975.00 278.6014
975.10 278.4967
975.20 278.3919
975.30 278.2872
975.40 278.1825
975.50 278.0777
975.60 277.973
975.70 277.8683
975.80 277.7636
975.90 277.6588
976.00 277.5541
976.10 277.4494
976.20 277.3446
976.30 277.2399
976.40 277.1352
976.50 277.0304
976.60 276.9257
976.70 276.821
976.80 276.7163
976.90 276.6115
977.00 276.5068
977.10 276.4021
977.20 276.2973
977.30 276.1926
977.40 276.0879
977.50 275.9831
977.60 275.8784
977.70 275.7737
977.80 275.669
977.90 275.5642
978.00 275.4595
978.10 275.3548
978.20 275.2669
978.30 275.1898
978.40 275.1128
978.50 275.0357
978.60 274.9587
978.70 274.8816
978.80 274.8045
978.90 274.7275
979.00 274.6504
979.10 274.5733
979.20 274.4963
979.30 274.4192
979.40 274.3421
979.50 274.2651
979.60 274.188
979.70 274.1109
979.80 274.0339
979.90 273.9568
980.00 273.8798
980.10 273.8027
980.20 273.7256
980.30 273.6486
980.40 273.5715
980.50 273.4944
980.60 273.4174
980.70 273.3403
980.80 273.2632
980.90 273.1862
981.00 273.1091
981.10 273.0321
981.20 272.955
981.30 272.8779
981.40 272.8009
981.50 272.7238
981.60 272.6467
981.70 272.5697
981.80 272.4926
981.90 272.4155
982.00 272.2305
982.10 272.0278
982.20 271.8251
982.30 271.6225
982.40 271.4198
982.50 271.2172
982.60 271.0145
982.70 270.8118
982.80 270.6092
982.90 270.4065
983.00 270.2039
983.10 270.0012
983.20 269.7986
983.30 269.5959
983.40 269.3932
983.50 269.1906
983.60 268.9879
983.70 268.7853
983.80 268.5826
983.90 268.3799
984.00 268.1773
984.10 267.9746
984.20 267.772
984.30 267.5693
984.40 267.3666
984.50 267.164
984.60 266.9613
984.70 266.7587
984.80 266.556
984.90 266.3533
985.00 266.1507
985.10 265.948
985.20 265.7454
985.30 265.5427
985.40 265.34
985.50 265.1374
985.60 264.9347
985.70 264.7321
985.80 264.1389
985.90 263.5337
986.00 262.9285
986.10 262.3233
986.20 261.7181
986.30 261.1129
986.40 260.5077
986.50 259.9025
986.60 259.2973
986.70 258.6921
986.80 258.0869
986.90 257.4816
987.00 256.8764
987.10 256.2712
987.20 255.666
987.30 255.0608
987.40 254.4556
987.50 253.8504
987.60 253.2452
987.70 252.64
987.80 252.0348
987.90 251.4296
988.00 250.8244
988.10 250.2192
988.20 249.6139
988.30 249.0087
988.40 248.4035
988.50 247.7983
988.60 247.1931
988.70 246.5879
988.80 245.9827
988.90 245.3775
989.00 244.7723
989.10 244.1671
989.20 243.5619
989.30 242.9567
989.40 242.3514
989.50 241.7462
989.60 241.2482
989.70 240.7582
989.80 240.2682
989.90 239.7781
990.00 239.2881
990.10 238.7981
990.20 238.3081
990.30 237.8181
990.40 237.3281
990.50 236.8381
990.60 236.3481
990.70 235.8581
990.80 235.3681
990.90 234.8781
991.00 234.3881
991.10 233.8981
991.20 233.4081
991.30 232.9181
991.40 232.428
991.50 231.938
991.60 231.448
991.70 230.958
991.80 230.468
991.90 229.978
992.00 229.488
992.10 228.998
992.20 228.508
992.30 228.018
992.40 227.528
992.50 227.038
992.60 226.548
992.70 226.058
992.80 225.5679
992.90 225.0779
993.00 224.5879
993.10 224.0979
993.20 223.6079
993.30 223.1179
993.40 222.7253
993.50 222.3651
993.60 222.0049
993.70 221.6448
993.80 221.2846
993.90 220.9244
994.00 220.5642
994.10 220.2041
994.20 219.8439
994.30 219.4837
994.40 219.1235
994.50 218.7634
994.60 218.4032
994.70 218.043
994.80 217.6829
994.90 217.3227
995.00 216.9625
995.10 216.6023
995.20 216.2422
995.30 215.882
995.40 215.5218
995.50 215.1616
995.60 214.8015
995.70 214.4413
995.80 214.0811
995.90 213.7209
996.00 213.3608
996.10 213.0006
996.20 212.6404
996.30 212.2802
996.40 211.9201
996.50 211.5599
996.60 211.1997
996.70 210.8396
996.80 210.4794
996.90 210.1192
997.00 209.759
997.10 209.3989
997.20 209.2959
997.30 209.548
997.40 209.8001
997.50 210.0523
997.60 210.3044
997.70 210.5566
997.80 210.8087
997.90 211.0608
998.00 211.313
998.10 211.5651
998.20 211.8173
998.30 212.0694
998.40 212.3216
998.50 212.5737
998.60 212.8258
998.70 213.078
998.80 213.3301
998.90 213.5823
999.00 213.8344
999.10 214.0865
999.20 214.3387
999.30 214.5908
999.40 214.843
999.50 215.0951
999.60 215.3473
999.70 215.5994
999.80 215.8515
999.90 216.1037
1000.00 216.3558
1000.10 216.608
1000.20 216.8601
1000.30 217.1122
1000.40 217.3644
1000.50 217.6165
1000.60 217.8687
1000.70 218.1208
1000.80 218.3729
1000.90 218.6251
1001.00 218.8772
1001.10 219.0704
1001.20 219.2637
1001.30 219.4569
1001.40 219.6501
1001.50 219.8433
1001.60 220.0365
1001.70 220.2297
1001.80 220.4229
1001.90 220.6161
1002.00 220.8093
1002.10 221.0025
1002.20 221.1957
1002.30 221.389
1002.40 221.5822
1002.50 221.7754
1002.60 221.9686
1002.70 222.1618
1002.80 222.355
1002.90 222.5482
1003.00 222.7414
1003.10 222.9346
1003.20 223.1278
1003.30 223.321
1003.40 223.5143
1003.50 223.7075
1003.60 223.9007
1003.70 224.0939
1003.80 224.2871
1003.90 224.4803
1004.00 224.6735
1004.10 224.8667
1004.20 225.0599
1004.30 225.2531
1004.40 225.4463
1004.50 225.6396
1004.60 225.8328
1004.70 226.026
1004.80 226.2192
1004.90 226.4485
1005.00 226.7319
1005.10 227.0154
1005.20 227.2988
1005.30 227.5822
1005.40 227.8657
1005.50 228.1491
1005.60 228.4326
1005.70 228.716
1005.80 228.9994
1005.90 229.2829
1006.00 229.5663
1006.10 229.8498
1006.20 230.1332
1006.30 230.4166
1006.40 230.7001
1006.50 230.9835
1006.60 231.267
1006.70 231.5504
1006.80 231.8338
1006.90 232.1173
1007.00 232.4007
1007.10 232.6841
1007.20 232.9676
1007.30 233.251
1007.40 233.5345
1007.50 233.8179
1007.60 234.1013
1007.70 234.3848
1007.80 234.6682
1007.90 234.9517
1008.00 235.2351
1008.10 235.5185
1008.20 235.802
1008.30 236.0854
1008.40 236.3689
1008.50 236.6523
1008.60 236.9357
1008.70 237.2192
1008.80 237.485
1008.90 237.7391
1009.00 237.9931
1009.10 238.2472
1009.20 238.5013
1009.30 238.7553
1009.40 239.0094
1009.50 239.2635
1009.60 239.5175
1009.70 239.7716
1009.80 240.0257
1009.90 240.2797
1010.00 240.5338
1010.10 240.7879
1010.20 241.0419
1010.30 241.296
1010.40 241.5501
1010.50 241.8041
1010.60 242.0582
1010.70 242.3123
1010.80 242.5663
1010.90 242.8204
1011.00 243.0745
1011.10 243.3286
1011.20 243.5826
1011.30 243.8367
1011.40 244.0908
1011.50 244.3448
1011.60 244.5989
1011.70 244.853
1011.80 245.107
1011.90 245.3611
1012.00 245.6152
1012.10 245.8692
1012.20 246.1233
1012.30 246.3774
1012.40 246.6314
1012.50 246.8855
1012.60 247.1396
1012.70 247.2901
1012.80 247.4148
1012.90 247.5395
1013.00 247.6642
1013.10 247.7888
1013.20 247.9135
1013.30 248.0382
1013.40 248.1629
1013.50 248.2875
1013.60 248.4122
1013.70 248.5369
1013.80 248.6616
1013.90 248.7863
1014.00 248.9109
1014.10 249.0356
1014.20 249.1603
1014.30 249.285
1014.40 249.4097
1014.50 249.5343
1014.60 249.659
1014.70 249.7837
1014.80 249.9084
1014.90 250.033
1015.00 250.1577
1015.10 250.2824
1015.20 250.4071
1015.30 250.5318
1015.40 250.6564
1015.50 250.7811
1015.60 250.9058
1015.70 251.0305
1015.80 251.1551
1015.90 251.2798
1016.00 251.4045
1016.10 251.5292
1016.20 251.6539
1016.30 251.7785
1016.40 251.9032
1016.50 252.0279
1016.60 251.9788
1016.70 251.8862
1016.80 251.7937
1016.90 251.7011
1017.00 251.6086
1017.10 251.516
1017.20 251.4235
1017.30 251.3309
1017.40 251.2384
1017.50 251.1458
1017.60 251.0533
1017.70 250.9607
1017.80 250.8682
1017.90 250.7756
1018.00 250.6831
1018.10 250.5905
1018.20 250.498
1018.30 250.4054
1018.40 250.3129
1018.50 250.2203
1018.60 250.1278
1018.70 250.0352
1018.80 249.9427
1018.90 249.8501
1019.00 249.7576
1019.10 249.665
1019.20 249.5724
1019.30 249.4799
1019.40 249.3873
1019.50 249.2948
1019.60 249.2022
1019.70 249.1097
1019.80 249.0171
1019.90 248.9246
1020.00 248.832
1020.10 248.7395
1020.20 248.6469
1020.30 248.5544
1020.40 248.4618
1020.50 248.6244
1020.60 248.9571
1020.70 249.2898
1020.80 249.6226
1020.90 249.9553
1021.00 250.288
1021.10 250.6207
1021.20 250.9534
1021.30 251.2861
1021.40 251.6188
1021.50 251.9515
1021.60 252.2842
1021.70 252.6169
1021.80 252.9496
1021.90 253.2823
1022.00 253.615
1022.10 253.9477
1022.20 254.2805
1022.30 254.6132
1022.40 254.9459
1022.50 255.2786
1022.60 255.6113
1022.70 255.944
1022.80 256.2767
1022.90 256.6094
1023.00 256.9421
1023.10 257.2748
1023.20 257.6075
1023.30 257.9402
1023.40 258.2729
1023.50 258.6056
1023.60 258.9384
1023.70 259.2711
1023.80 259.6038
1023.90 259.9365
1024.00 260.2692
1024.10 260.6019
1024.20 260.9346
1024.30 261.2673
1024.40 261.471
1024.50 261.4811
1024.60 261.4912
1024.70 261.5013
1024.80 261.5114
1024.90 261.5215
1025.00 261.5316
1025.10 261.5417
1025.20 261.5518
1025.30 261.5619
1025.40 261.5721
1025.50 261.5822
1025.60 261.5923
1025.70 261.6024
1025.80 261.6125
1025.90 261.6226
1026.00 261.6327
1026.10 261.6428
1026.20 261.6529
1026.30 261.663
1026.40 261.6731
1026.50 261.6833
1026.60 261.6934
1026.70 261.7035
1026.80 261.7136
1026.90 261.7237
1027.00 261.7338
1027.10 261.7439
1027.20 261.754
1027.30 261.7641
1027.40 261.7742
1027.50 261.7843
1027.60 261.7944
1027.70 261.8046
1027.80 261.8147
1027.90 261.8248
1028.00 261.8349
1028.10 261.845
1028.20 261.8551
1028.30 261.8652
1028.40 262.208
1028.50 262.5507
1028.60 262.8935
1028.70 263.2363
1028.80 263.579
1028.90 263.9218
1029.00 264.2645
1029.10 264.6073
1029.20 264.9501
1029.30 265.2928
1029.40 265.6356
1029.50 265.9784
1029.60 266.3211
1029.70 266.6639
1029.80 267.0066
1029.90 267.3494
1030.00 267.6922
1030.10 268.0349
1030.20 268.3777
1030.30 268.7205
1030.40 269.0632
1030.50 269.406
1030.60 269.7487
1030.70 270.0915
1030.80 270.4343
1030.90 270.777
1031.00 271.1198
1031.10 271.4626
1031.20 271.8053
1031.30 272.1481
1031.40 272.4908
1031.50 272.8336
1031.60 273.1764
1031.70 273.5191
1031.80 273.8619
1031.90 274.2047
1032.00 274.5474
1032.10 274.8902
1032.20 275.2329
1032.30 275.4747
1032.40 275.6154
1032.50 275.756
1032.60 275.8967
1032.70 276.0374
1032.80 276.1781
1032.90 276.3188
1033.00 276.4595
1033.10 276.6002
1033.20 276.7408
1033.30 276.8815
1033.40 277.0222
1033.50 277.1629
1033.60 277.3036
1033.70 277.4443
1033.80 277.585
1033.90 277.7256
1034.00 277.8663
1034.10 278.007
1034.20 278.1477
1034.30 278.2884
1034.40 278.4291
1034.50 278.5698
1034.60 278.7104
1034.70 278.8511
1034.80 278.9918
1034.90 279.1325
1035.00 279.2732
1035.10 279.4139
1035.20 279.5545
1035.30 279.6952
1035.40 279.8359
1035.50 279.9766
1035.60 280.1173
1035.70 280.258
1035.80 280.3987
1035.90 280.5393
1036.00 280.68
1036.10 280.8207
1036.20 280.9614
1036.30 281.2339
1036.40 281.5394
1036.50 281.8449
1036.60 282.1503
1036.70 282.4558
1036.80 282.7613
1036.90 283.0668
1037.00 283.3722
1037.10 283.6777
1037.20 283.9832
1037.30 284.2887
1037.40 284.5941
1037.50 284.8996
1037.60 285.2051
1037.70 285.5106
1037.80 285.816
1037.90 286.1215
1038.00 286.427
1038.10 286.7324
1038.20 287.0379
1038.30 287.3434
1038.40 287.6489
1038.50 287.9543
1038.60 288.2598
1038.70 288.5653
1038.80 288.8708
1038.90 289.1762
1039.00 289.4817
1039.10 289.7872
1039.20 290.0927
1039.30 290.3981
1039.40 290.7036
1039.50 291.0091
1039.60 291.3145
1039.70 291.62
1039.80 291.9255
1039.90 292.231
1040.00 292.5364
1040.10 292.8419
1040.20 293.1537
1040.30 293.5225
1040.40 293.8914
1040.50 294.2602
1040.60 294.629
1040.70 294.9978
1040.80 295.3666
1040.90 295.7355
1041.00 296.1043
1041.10 296.4731
1041.20 296.8419
1041.30 297.2107
1041.40 297.5795
1041.50 297.9484
1041.60 298.3172
1041.70 298.686
1041.80 299.0548
1041.90 299.4236
1042.00 299.7925
1042.10 300.1613
1042.20 300.5301
1042.30 300.8989
1042.40 301.2677
1042.50 301.6366
1042.60 302.0054
1042.70 302.3742
1042.80 302.743
1042.90 303.1118
1043.00 303.4807
1043.10 303.8495
1043.20 304.2183
1043.30 304.5871
1043.40 304.9559
1043.50 305.3247
1043.60 305.6936
1043.70 306.0624
1043.80 306.4312
1043.90 306.8
1044.00 307.1688
1044.10 307.5377
1044.20 307.8403
1044.30 307.8785
1044.40 307.9166
1044.50 307.9548
1044.60 307.993
1044.70 308.0311
1044.80 308.0693
1044.90 308.1074
1045.00 308.1456
1045.10 308.1837
1045.20 308.2219
1045.30 308.26
1045.40 308.2982
1045.50 308.3363
1045.60 308.3745
1045.70 308.4126
1045.80 308.4508
1045.90 308.4889
1046.00 308.5271
1046.10 308.5652
1046.20 308.6034
1046.30 308.6415
1046.40 308.6797
1046.50 308.7178
1046.60 308.756
1046.70 308.7941
1046.80 308.8323
1046.90 308.8704
1047.00 308.9086
1047.10 308.9468
1047.20 308.9849
1047.30 309.0231
1047.40 309.0612
1047.50 309.0994
1047.60 309.1375
1047.70 309.1757
1047.80 309.2138
1047.90 309.252
1048.00 309.2901
1048.10 309.3283
1048.20 309.3256
1048.30 309.2276
1048.40 309.1296
1048.50 309.0316
1048.60 308.9337
1048.70 308.8357
1048.80 308.7377
1048.90 308.6397
1049.00 308.5417
1049.10 308.4438
1049.20 308.3458
1049.30 308.2478
1049.40 308.1498
1049.50 308.0518
1049.60 307.9538
1049.70 307.8559
1049.80 307.7579
1049.90 307.6599
1050.00 307.5619
1050.10 307.4639
1050.20 307.366
1050.30 307.268
1050.40 307.17
1050.50 307.072
1050.60 306.974
1050.70 306.876
1050.80 306.7781
1050.90 306.6801
1051.00 306.5821
1051.10 306.4841
1051.20 306.3861
1051.30 306.2882
1051.40 306.1902
1051.50 306.0922
1051.60 305.9942
1051.70 305.8962
1051.80 305.7983
1051.90 305.7003
1052.00 305.6023
1052.10 305.5043
1052.20 305.5142
1052.30 305.9556
1052.40 306.397
1052.50 306.8384
1052.60 307.2799
1052.70 307.7213
1052.80 308.1627
1052.90 308.6041
1053.00 309.0455
1053.10 309.4869
1053.20 309.9283
1053.30 310.3697
1053.40 310.8112
1053.50 311.2526
1053.60 311.694
1053.70 312.1354
1053.80 312.5768
1053.90 313.0182
1054.00 313.4596
1054.10 313.901
1054.20 314.3425
1054.30 314.7839
1054.40 315.2253
1054.50 315.6667
1054.60 316.1081
1054.70 316.5495
1054.80 316.9909
1054.90 317.4323
1055.00 317.8737
1055.10 318.3152
1055.20 318.7566
1055.30 319.198
1055.40 319.6394
1055.50 320.0808
1055.60 320.5222
1055.70 320.9636
1055.80 321.405
1055.90 321.8465
1056.00 322.2879
1056.10 322.7293
1056.20 323.1707
1056.30 323.1362
1056.40 323.1017
1056.50 323.0672
1056.60 323.0327
1056.70 322.9983
1056.80 322.9638
1056.90 322.9293
1057.00 322.8948
1057.10 322.8603
1057.20 322.8258
1057.30 322.7913
1057.40 322.7569
1057.50 322.7224
1057.60 322.6879
1057.70 322.6534
1057.80 322.6189
1057.90 322.5844
1058.00 322.5499
1058.10 322.5155
1058.20 322.481
1058.30 322.4465
1058.40 322.412
1058.50 322.3775
1058.60 322.343
1058.70 322.3085
1058.80 322.274
1058.90 322.2396
1059.00 322.2051
1059.10 322.1706
1059.20 322.1361
1059.30 322.1016
1059.40 322.0671
1059.50 322.0326
1059.60 321.9982
1059.70 321.9637
1059.80 321.9292
1059.90 321.8947
1060.00 321.8602
1060.10 321.8257
1060.20 321.7912
1060.30 321.8947
1060.40 322.0902
1060.50 322.2857
1060.60 322.4812
1060.70 322.6767
1060.80 322.8722
1060.90 323.0677
1061.00 323.2631
1061.10 323.4586
1061.20 323.6541
1061.30 323.8496
1061.40 324.0451
1061.50 324.2406
1061.60 324.4361
1061.70 324.6316
1061.80 324.827
1061.90 325.0225
1062.00 325.218
1062.10 325.4135
1062.20 325.609
1062.30 325.8045
1062.40 326
1062.50 326.1955
1062.60 326.3909
1062.70 326.5864
1062.80 326.7819
1062.90 326.9774
1063.00 327.1729
1063.10 327.3684
1063.20 327.5639
1063.30 327.7594
1063.40 327.9548
1063.50 328.1503
1063.60 328.3458
1063.70 328.5413
1063.80 328.7368
1063.90 328.9323
1064.00 329.1278
1064.10 329.3233
1064.20 329.5187
1064.30 329.7036
1064.40 329.8459
1064.50 329.9882
1064.60 330.1306
1064.70 330.2729
1064.80 330.4152
1064.90 330.5575
1065.00 330.6999
1065.10 330.8422
1065.20 330.9845
1065.30 331.1268
1065.40 331.2692
1065.50 331.4115
1065.60 331.5538
1065.70 331.6961
1065.80 331.8384
1065.90 331.9808
1066.00 332.1231
1066.10 332.2654
1066.20 332.4077
1066.30 332.5501
1066.40 332.6924
1066.50 332.8347
1066.60 332.977
1066.70 333.1194
1066.80 333.2617
1066.90 333.404
1067.00 333.5463
1067.10 333.6886
1067.20 333.831
1067.30 333.9733
1067.40 334.1156
1067.50 334.2579
1067.60 334.4003
1067.70 334.5426
1067.80 334.6849
1067.90 334.8272
1068.00 334.9696
1068.10 335.1119
1068.20 335.2542
1068.30 335.3965
1068.40 335.6644
1068.50 335.9862
1068.60 336.3079
1068.70 336.6297
1068.80 336.9514
1068.90 337.2731
1069.00 337.5949
1069.10 337.9166
1069.20 338.2384
1069.30 338.5601
1069.40 338.8818
1069.50 339.2036
1069.60 339.5253
1069.70 339.8471
1069.80 340.1688
1069.90 340.4905
1070.00 340.8123
1070.10 341.134
1070.20 341.4558
1070.30 341.7775
1070.40 342.0992
1070.50 342.421
1070.60 342.7427
1070.70 343.0645
1070.80 343.3862
1070.90 343.7079
1071.00 344.0297
1071.10 344.3514
1071.20 344.6732
1071.30 344.9949
1071.40 345.3166
1071.50 345.6384
1071.60 345.9601
1071.70 346.2819
1071.80 346.6036
1071.90 346.9253
1072.00 347.2471
1072.10 347.5688
1072.20 347.8906
1072.30 348.2123
1072.40 348.5068
1072.50 348.5558
1072.60 348.6049
1072.70 348.654
1072.80 348.7031
1072.90 348.7521
1073.00 348.8012
1073.10 348.8503
1073.20 348.8994
1073.30 348.9484
1073.40 348.9975
1073.50 349.0466
1073.60 349.0956
1073.70 349.1447
1073.80 349.1938
1073.90 349.2429
1074.00 349.2919
1074.10 349.341
1074.20 349.3901
1074.30 349.4392
1074.40 349.4882
1074.50 349.5373
1074.60 349.5864
1074.70 349.6354
1074.80 349.6845
1074.90 349.7336
1075.00 349.7827
1075.10 349.8317
1075.20 349.8808
1075.30 349.9299
1075.40 349.979
1075.50 350.028
1075.60 350.0771
1075.70 350.1262
1075.80 350.1753
1075.90 350.2243
1076.00 350.2734
1076.10 350.3225
1076.20 350.3715
1076.30 350.4206
1076.40 350.4697
1076.50 350.6293
1076.60 350.9547
1076.70 351.28
1076.80 351.6054
1076.90 351.9308
1077.00 352.2562
1077.10 352.5816
1077.20 352.9069
1077.30 353.2323
1077.40 353.5577
1077.50 353.8831
1077.60 354.2084
1077.70 354.5338
1077.80 354.8592
1077.90 355.1846
1078.00 355.51
1078.10 355.8353
1078.20 356.1607
1078.30 356.4861
1078.40 356.8115
1078.50 357.1368
1078.60 357.4622
1078.70 357.7876
1078.80 358.113
1078.90 358.4384
1079.00 358.7637
1079.10 359.0891
1079.20 359.4145
1079.30 359.7399
1079.40 360.0653
1079.50 360.3906
1079.60 360.716
1079.70 361.0414
1079.80 361.3668
1079.90 361.6921
1080.00 362.0175
1080.10 362.3429
1080.20 362.6683
1080.30 362.9937
1080.40 363.319
1080.50 363.6444
1080.60 363.8636
1080.70 363.9766
1080.80 364.0895
1080.90 364.2025
1081.00 364.3155
1081.10 364.4284
1081.20 364.5414
1081.30 364.6544
1081.40 364.7674
1081.50 364.8803
1081.60 364.9933
1081.70 365.1063
1081.80 365.2192
1081.90 365.3322
1082.00 365.4452
1082.10 365.5582
1082.20 365.6711
1082.30 365.7841
1082.40 365.8971
1082.50 366.0101
1082.60 366.123
1082.70 366.236
1082.80 366.349
1082.90 366.4619
1083.00 366.5749
1083.10 366.6879
1083.20 366.8009
1083.30 366.9138
1083.40 367.0268
1083.50 367.1398
1083.60 367.2527
1083.70 367.3657
1083.80 367.4787
1083.90 367.5917
1084.00 367.7046
1084.10 367.8176
1084.20 367.9306
1084.30 368.0435
1084.40 368.1565
1084.50 368.2695
1084.60 368.3825
1084.70 368.583
1084.80 368.8418
1084.90 369.1006
1085.00 369.3595
1085.10 369.6183
1085.20 369.8771
1085.30 370.136
1085.40 370.3948
1085.50 370.6537
1085.60 370.9125
1085.70 371.1713
1085.80 371.4302
1085.90 371.689
1086.00 371.9478
1086.10 372.2067
1086.20 372.4655
1086.30 372.7244
1086.40 372.9832
1086.50 373.242
1086.60 373.5009
1086.70 373.7597
1086.80 374.0186
1086.90 374.2774
1087.00 374.5362
1087.10 374.7951
1087.20 375.0539
1087.30 375.3127
1087.40 375.5716
1087.50 375.8304
1087.60 376.0893
1087.70 376.3481
1087.80 376.6069
1087.90 376.8658
1088.00 377.1246
1088.10 377.3834
1088.20 377.6423
1088.30 377.9011
1088.40 378.16
1088.50 378.4188
1088.60 378.6776
1088.70 378.9365
1088.80 379.153
1088.90 379.3413
1089.00 379.5297
1089.10 379.718
1089.20 379.9063
1089.30 380.0947
1089.40 380.283
1089.50 380.4713
1089.60 380.6596
1089.70 380.848
1089.80 381.0363
1089.90 381.2246
1090.00 381.413
1090.10 381.6013
1090.20 381.7896
1090.30 381.9779
1090.40 382.1663
1090.50 382.3546
1090.60 382.5429
1090.70 382.7313
1090.80 382.9196
1090.90 383.1079
1091.00 383.2963
1091.10 383.4846
1091.20 383.6729
1091.30 383.8612
1091.40 384.0496
1091.50 384.2379
1091.60 384.4262
1091.70 384.6146
1091.80 384.8029
1091.90 384.9912
1092.00 385.1795
1092.10 385.3679
1092.20 385.5562
1092.30 385.7445
1092.40 385.9329
1092.50 386.1212
1092.60 386.3095
1092.70 386.4979
1092.80 386.6862
1092.90 386.8851
1093.00 387.0945
1093.10 387.304
1093.20 387.5135
1093.30 387.7229
1093.40 387.9324
1093.50 388.1418
1093.60 388.3513
1093.70 388.5608
1093.80 388.7702
1093.90 388.9797
1094.00 389.1891
1094.10 389.3986
1094.20 389.6081
1094.30 389.8175
1094.40 390.027
1094.50 390.2364
1094.60 390.4459
1094.70 390.6554
1094.80 390.8648
1094.90 391.0743
1095.00 391.2837
1095.10 391.4932
1095.20 391.7027
1095.30 391.9121
1095.40 392.1216
1095.50 392.331
1095.60 392.5405
1095.70 392.75
1095.80 392.9594
1095.90 393.1689
1096.00 393.3783
1096.10 393.5878
1096.20 393.7973
1096.30 394.0067
1096.40 394.2162
1096.50 394.4256
1096.60 394.6351
1096.70 394.8446
1096.80 395.054
1096.90 395.2635
1097.00 395.3907
1097.10 395.3258
1097.20 395.261
1097.30 395.1962
1097.40 395.1314
1097.50 395.0666
1097.60 395.0018
1097.70 394.937
1097.80 394.8722
1097.90 394.8074
1098.00 394.7426
1098.10 394.6778
1098.20 394.613
1098.30 394.5482
1098.40 394.4834
1098.50 394.4185
1098.60 394.3537
1098.70 394.2889
1098.80 394.2241
1098.90 394.1593
1099.00 394.0945
1099.10 394.0297
1099.20 393.9649
1099.30 393.9001
1099.40 393.8353
1099.50 393.7705
1099.60 393.7057
1099.70 393.6409
1099.80 393.576
1099.90 393.5112
1100.00 393.4464
1100.10 393.3816
1100.20 393.3168
1100.30 393.252
1100.40 393.1872
1100.50 393.1224
1100.60 393.0576
1100.70 392.9928
1100.80 392.928
1100.90 392.8632
1101.00 392.7984
1101.10 392.7335
1101.20 392.7325
1101.30 392.7315
1101.40 392.7305
1101.50 392.7295
1101.60 392.7285
1101.70 392.7275
1101.80 392.7264
1101.90 392.7254
1102.00 392.7244
1102.10 392.7234
1102.20 392.7224
1102.30 392.7214
1102.40 392.7204
1102.50 392.7193
1102.60 392.7183
1102.70 392.7173
1102.80 392.7163
1102.90 392.7153
1103.00 392.7143
1103.10 392.7132
1103.20 392.7122
1103.30 392.7112
1103.40 392.7102
1103.50 392.7092
1103.60 392.7082
1103.70 392.7072
1103.80 392.7061
1103.90 392.7051
1104.00 392.7041
1104.10 392.7031
1104.20 392.7021
1104.30 392.7011
1104.40 392.7
1104.50 392.699
1104.60 392.698
1104.70 392.697
1104.80 392.696
1104.90 392.695
1105.00 392.694
1105.10 392.6929
1105.20 392.6919
1105.30 392.6564
1105.40 392.5978
1105.50 392.5391
1105.60 392.4805
1105.70 392.4219
1105.80 392.3633
1105.90 392.3047
1106.00 392.2461
1106.10 392.1875
1106.20 392.1289
1106.30 392.0703
1106.40 392.0117
1106.50 391.9531
1106.60 391.8945
1106.70 391.8359
1106.80 391.7773
1106.90 391.7186
1107.00 391.66
1107.10 391.6014
1107.20 391.5428
1107.30 391.4842
1107.40 391.4256
1107.50 391.367
1107.60 391.3084
1107.70 391.2498
1107.80 391.1912
1107.90 391.1326
1108.00 391.074
1108.10 391.0154
1108.20 390.9567
1108.30 390.8981
1108.40 390.8395
1108.50 390.7809
1108.60 390.7223
1108.70 390.6637
1108.80 390.6051
1108.90 390.5465
1109.00 390.4879
1109.10 390.4293
1109.20 390.3707
1109.30 390.3121
1109.40 390.2821
1109.50 390.3668
1109.60 390.4514
1109.70 390.5361
1109.80 390.6207
1109.90 390.7054
1110.00 390.79
1110.10 390.8747
1110.20 390.9593
1110.30 391.044
1110.40 391.1286
1110.50 391.2133
1110.60 391.2979
1110.70 391.3826
1110.80 391.4672
1110.90 391.5519
1111.00 391.6365
1111.10 391.7212
1111.20 391.8058
1111.30 391.8905
1111.40 391.9751
1111.50 392.0598
1111.60 392.1444
1111.70 392.2291
1111.80 392.3137
1111.90 392.3984
1112.00 392.483
1112.10 392.5677
1112.20 392.6523
1112.30 392.737
1112.40 392.8216
1112.50 392.9063
1112.60 392.991
1112.70 393.0756
1112.80 393.1603
1112.90 393.2449
1113.00 393.3296
1113.10 393.4142
1113.20 393.4989
1113.30 393.5835
1113.40 393.6682
1113.50 393.7528
1113.60 393.87
1113.70 394.0089
1113.80 394.1478
1113.90 394.2866
1114.00 394.4255
1114.10 394.5644
1114.20 394.7033
1114.30 394.8421
1114.40 394.981
1114.50 395.1199
1114.60 395.2588
1114.70 395.3976
1114.80 395.5365
1114.90 395.6754
1115.00 395.8143
1115.10 395.9532
1115.20 396.092
1115.30 396.2309
1115.40 396.3698
1115.50 396.5087
1115.60 396.6475
1115.70 396.7864
1115.80 396.9253
1115.90 397.0642
1116.00 397.203
1116.10 397.3419
1116.20 397.4808
1116.30 397.6197
1116.40 397.7586
1116.50 397.8974
1116.60 398.0363
1116.70 398.1752
1116.80 398.3141
1116.90 398.4529
1117.00 398.5918
1117.10 398.7307
1117.20 398.8696
1117.30 399.0084
1117.40 399.1473
1117.50 399.2862
1117.60 399.4251
1117.70 399.5639
1117.80 399.6732
1117.90 399.7825
1118.00 399.8917
1118.10 400.001
1118.20 400.1102
1118.30 400.2195
1118.40 400.3288
1118.50 400.438
1118.60 400.5473
1118.70 400.6565
1118.80 400.7658
1118.90 400.875
1119.00 400.9843
1119.10 401.0936
1119.20 401.2028
1119.30 401.3121
1119.40 401.4213
1119.50 401.5306
1119.60 401.6398
1119.70 401.7491
1119.80 401.8584
1119.90 401.9676
1120.00 402.0769
1120.10 402.1861
1120.20 402.2954
1120.30 402.4046
1120.40 402.5139
1120.50 402.6232
1120.60 402.7324
1120.70 402.8417
1120.80 402.9509
1120.90 403.0602
1121.00 403.1695
1121.10 403.2787
1121.20 403.388
1121.30 403.4972
1121.40 403.6065
1121.50 403.7157
1121.60 403.825
1121.70 403.9343
1121.80 404.0435
1121.90 404.0843
1122.00 403.9655
1122.10 403.8466
1122.20 403.7278
1122.30 403.6089
1122.40 403.4901
1122.50 403.3712
1122.60 403.2524
1122.70 403.1335
1122.80 403.0147
1122.90 402.8958
1123.00 402.777
1123.10 402.6581
1123.20 402.5393
1123.30 402.4204
1123.40 402.3016
1123.50 402.1827
1123.60 402.0639
1123.70 401.945
1123.80 401.8262
1123.90 401.7073
1124.00 401.5884
1124.10 401.4696
1124.20 401.3507
1124.30 401.2319
1124.40 401.113
1124.50 400.9942
1124.60 400.8753
1124.70 400.7565
1124.80 400.6376
1124.90 400.5188
1125.00 400.3999
1125.10 400.2811
1125.20 400.1622
1125.30 400.0434
1125.40 399.9245
1125.50 399.8057
1125.60 399.6868
1125.70 399.568
1125.80 399.4491
1125.90 399.3303
1126.00 399.2114
1126.10 399.0626
1126.20 398.8839
1126.30 398.7052
1126.40 398.5264
1126.50 398.3477
1126.60 398.1689
1126.70 397.9902
1126.80 397.8115
1126.90 397.6327
1127.00 397.454
1127.10 397.2753
1127.20 397.0965
1127.30 396.9178
1127.40 396.7391
1127.50 396.5603
1127.60 396.3816
1127.70 396.2029
1127.80 396.0241
1127.90 395.8454
1128.00 395.6667
1128.10 395.4879
1128.20 395.3092
1128.30 395.1305
1128.40 394.9517
1128.50 394.773
1128.60 394.5943
1128.70 394.4155
1128.80 394.2368
1128.90 394.0581
1129.00 393.8793
1129.10 393.7006
1129.20 393.5219
1129.30 393.3431
1129.40 393.1644
1129.50 392.9857
1129.60 392.8069
1129.70 392.6282
1129.80 392.4495
1129.90 392.2707
1130.00 392.092
1130.10 391.9133
1130.20 391.7345
1130.30 391.4532
1130.40 391.1279
1130.50 390.8027
1130.60 390.4774
1130.70 390.1521
1130.80 389.8268
1130.90 389.5016
1131.00 389.1763
1131.10 388.851
1131.20 388.5257
1131.30 388.2005
1131.40 387.8752
1131.50 387.5499
1131.60 387.2246
1131.70 386.8994
1131.80 386.5741
1131.90 386.2488
1132.00 385.9235
1132.10 385.5983
1132.20 385.273
1132.30 384.9477
1132.40 384.6224
1132.50 384.2972
1132.60 383.9719
1132.70 383.6466
1132.80 383.3213
1132.90 382.9961
1133.00 382.6708
1133.10 382.3455
1133.20 382.0202
1133.30 381.695
1133.40 381.3697
1133.50 381.0444
1133.60 380.7191
1133.70 380.3939
1133.80 380.0686
1133.90 379.7433
1134.00 379.418
1134.10 379.0928
1134.20 378.7675
1134.30 378.4422
1134.40 378.1169
1134.50 378.0035
1134.60 377.943
1134.70 377.8826
1134.80 377.8221
1134.90 377.7616
1135.00 377.7012
1135.10 377.6407
1135.20 377.5802
1135.30 377.5197
1135.40 377.4593
1135.50 377.3988
1135.60 377.3383
1135.70 377.2779
1135.80 377.2174
1135.90 377.1569
1136.00 377.0965
1136.10 377.036
1136.20 376.9755
1136.30 376.9151
1136.40 376.8546
1136.50 376.7941
1136.60 376.7336
1136.70 376.6732
1136.80 376.6127
1136.90 376.5522
1137.00 376.4918
1137.10 376.4313
1137.20 376.3708
1137.30 376.3104
1137.40 376.2499
1137.50 376.1894
1137.60 376.129
1137.70 376.0685
1137.80 376.008
1137.90 375.9475
1138.00 375.8871
1138.10 375.8266
1138.20 375.7661
1138.30 375.7057
1138.40 375.6452
1138.50 375.5847
1138.60 375.5243
1138.70 375.7325
1138.80 376.008
1138.90 376.2835
1139.00 376.5589
1139.10 376.8344
1139.20 377.1099
1139.30 377.3854
1139.40 377.6608
1139.50 377.9363
1139.60 378.2118
1139.70 378.4872
1139.80 378.7627
1139.90 379.0382
1140.00 379.3136
1140.10 379.5891
1140.20 379.8646
1140.30 380.14
1140.40 380.4155
1140.50 380.691
1140.60 380.9665
1140.70 381.2419
1140.80 381.5174
1140.90 381.7929
1141.00 382.0683
1141.10 382.3438
1141.20 382.6193
1141.30 382.8947
1141.40 383.1702
1141.50 383.4457
1141.60 383.7211
1141.70 383.9966
1141.80 384.2721
1141.90 384.5476
1142.00 384.823
1142.10 385.0985
1142.20 385.374
1142.30 385.6494
1142.40 385.9249
1142.50 386.2004
1142.60 386.4758
1142.70 386.7513
1142.80 387.0268
1142.90 387.6968
1143.00 388.4655
1143.10 389.2342
1143.20 390.0029
1143.30 390.7716
1143.40 391.5403
1143.50 392.3089
1143.60 393.0776
1143.70 393.8463
1143.80 394.615
1143.90 395.3837
1144.00 396.1524
1144.10 396.9211
1144.20 397.6898
1144.30 398.4585
1144.40 399.2271
1144.50 399.9958
1144.60 400.7645
1144.70 401.5332
1144.80 402.3019
1144.90 403.0706
1145.00 403.8393
1145.10 404.608
1145.20 405.3767
1145.30 406.1453
1145.40 406.914
1145.50 407.6827
1145.60 408.4514
1145.70 409.2201
1145.80 409.9888
1145.90 410.7575
1146.00 411.5262
1146.10 412.2949
1146.20 413.0635
1146.30 413.8322
1146.40 414.6009
1146.50 415.3696
1146.60 416.1383
1146.70 416.907
1146.80 417.6757
1146.90 418.4444
1147.00 419.213
1147.10 419.6001
1147.20 419.7327
1147.30 419.8653
1147.40 419.9979
1147.50 420.1305
1147.60 420.2631
1147.70 420.3957
1147.80 420.5283
1147.90 420.6608
1148.00 420.7934
1148.10 420.926
1148.20 421.0586
1148.30 421.1912
1148.40 421.3238
1148.50 421.4564
1148.60 421.589
1148.70 421.7216
1148.80 421.8542
1148.90 421.9868
1149.00 422.1194
1149.10 422.252
1149.20 422.3846
1149.30 422.5172
1149.40 422.6498
1149.50 422.7824
1149.60 422.915
1149.70 423.0476
1149.80 423.1802
1149.90 423.3128
1150.00 423.4454
1150.10 423.578
1150.20 423.7106
1150.30 423.8431
1150.40 423.9757
1150.50 424.1083
1150.60 424.2409
1150.70 424.3735
1150.80 424.5061
1150.90 424.6387
1151.00 424.7713
1151.10 424.9039
1151.20 425.0365
1151.30 425.2042
1151.40 425.4069
1151.50 425.6096
1151.60 425.8122
1151.70 426.0149
1151.80 426.2176
1151.90 426.4203
1152.00 426.623
1152.10 426.8257
1152.20 427.0284
1152.30 427.2311
1152.40 427.4338
1152.50 427.6365
1152.60 427.8392
1152.70 428.0419
1152.80 428.2446
1152.90 428.4473
1153.00 428.65
1153.10 428.8527
1153.20 429.0554
1153.30 429.2581
1153.40 429.4608
1153.50 429.6635
1153.60 429.8662
1153.70 430.0689
1153.80 430.2716
1153.90 430.4743
1154.00 430.677
1154.10 430.8796
1154.20 431.0823
1154.30 431.285
1154.40 431.4877
1154.50 431.6904
1154.60 431.8931
1154.70 432.0958
1154.80 432.2985
1154.90 432.5012
1155.00 432.7039
1155.10 432.9066
1155.20 433.1093
1155.30 433.312
1155.40 433.5147
1155.50 433.6445
1155.60 433.4828
1155.70 433.3211
1155.80 433.1594
1155.90 432.9976
1156.00 432.8359
1156.10 432.6742
1156.20 432.5125
1156.30 432.3508
1156.40 432.189
1156.50 432.0273
1156.60 431.8656
1156.70 431.7039
1156.80 431.5422
1156.90 431.3805
1157.00 431.2187
1157.10 431.057
1157.20 430.8953
1157.30 430.7336
1157.40 430.5719
1157.50 430.4102
1157.60 430.2484
1157.70 430.0867
1157.80 429.925
1157.90 429.7633
1158.00 429.6016
1158.10 429.4398
1158.20 429.2781
1158.30 429.1164
1158.40 428.9547
1158.50 428.793
1158.60 428.6313
1158.70 428.4695
1158.80 428.3078
1158.90 428.1461
1159.00 427.9844
1159.10 427.8227
1159.20 427.661
1159.30 427.4992
1159.40 427.3375
1159.50 427.1758
1159.60 427.0141
1159.70 426.8524
1159.80 426.6309
1159.90 426.4029
1160.00 426.1748
1160.10 425.9467
1160.20 425.7187
1160.30 425.4906
1160.40 425.2625
1160.50 425.0345
1160.60 424.8064
1160.70 424.5783
1160.80 424.3503
1160.90 424.1222
1161.00 423.8941
1161.10 423.6661
1161.20 423.438
1161.30 423.2099
1161.40 422.9819
1161.50 422.7538
1161.60 422.5257
1161.70 422.2977
1161.80 422.0696
1161.90 421.8415
1162.00 421.6135
1162.10 421.3854
1162.20 421.1573
1162.30 420.9293
1162.40 420.7012
1162.50 420.4731
1162.60 420.2451
1162.70 420.017
1162.80 419.7889
1162.90 419.5609
1163.00 419.3328
1163.10 419.1047
1163.20 418.8767
1163.30 418.6486
1163.40 418.4205
1163.50 418.1925
1163.60 417.9644
1163.70 417.7363
1163.80 417.5083
1163.90 417.2802
1164.00 417.0156
1164.10 416.7267
1164.20 416.4377
1164.30 416.1487
1164.40 415.8598
1164.50 415.5708
1164.60 415.2819
1164.70 414.9929
1164.80 414.7039
1164.90 414.415
1165.00 414.126
1165.10 413.8371
1165.20 413.5481
1165.30 413.2591
1165.40 412.9702
1165.50 412.6812
1165.60 412.3923
1165.70 412.1033
1165.80 411.8143
1165.90 411.5254
1166.00 411.2364
1166.10 410.9475
1166.20 410.6585
1166.30 410.3695
1166.40 410.0806
1166.50 409.7916
1166.60 409.5026
1166.70 409.2137
1166.80 408.9247
1166.90 408.6358
1167.00 408.3468
1167.10 408.0578
1167.20 407.7689
1167.30 407.4799
1167.40 407.191
1167.50 406.902
1167.60 406.613
1167.70 406.3241
1167.80 406.0351
1167.90 405.7462
1168.00 405.4572
1168.10 405.1682
1168.20 404.8642
1168.30 404.4999
1168.40 404.1356
1168.50 403.7713
1168.60 403.4069
1168.70 403.0426
1168.80 402.6783
1168.90 402.314
1169.00 401.9497
1169.10 401.5853
1169.20 401.221
1169.30 400.8567
1169.40 400.4924
1169.50 400.1281
1169.60 399.7637
1169.70 399.3994
1169.80 399.0351
1169.90 398.6708
1170.00 398.3065
1170.10 397.9421
1170.20 397.5778
1170.30 397.2135
1170.40 396.8492
1170.50 396.4849
1170.60 396.1205
1170.70 395.7562
1170.80 395.3919
1170.90 395.0276
1171.00 394.6633
1171.10 394.2989
1171.20 393.9346
1171.30 393.5703
1171.40 393.206
1171.50 392.8416
1171.60 392.4773
1171.70 392.113
1171.80 391.7487
1171.90 391.3844
1172.00 391.02
1172.10 390.6557
1172.20 390.2914
1172.30 389.9271
1172.40 389.5628
1172.50 389.5149
1172.60 389.6026
1172.70 389.6904
1172.80 389.7781
1172.90 389.8659
1173.00 389.9536
1173.10 390.0414
1173.20 390.1291
1173.30 390.2169
1173.40 390.3046
1173.50 390.3923
1173.60 390.4801
1173.70 390.5678
1173.80 390.6556
1173.90 390.7433
1174.00 390.8311
1174.10 390.9188
1174.20 391.0066
1174.30 391.0943
1174.40 391.1821
1174.50 391.2698
1174.60 391.3575
1174.70 391.4453
1174.80 391.533
1174.90 391.6208
1175.00 391.7085
1175.10 391.7963
1175.20 391.884
1175.30 391.9718
1175.40 392.0595
1175.50 392.1473
1175.60 392.235
1175.70 392.3227
1175.80 392.4105
1175.90 392.4982
1176.00 392.586
1176.10 392.6737
1176.20 392.7615
1176.30 392.8492
1176.40 392.937
1176.50 393.0247
1176.60 393.1125
1176.70 393.2095
1176.80 393.3435
1176.90 393.4775
1177.00 393.6115
1177.10 393.7455
1177.20 393.8795
1177.30 394.0135
1177.40 394.1475
1177.50 394.2815
1177.60 394.4156
1177.70 394.5496
1177.80 394.6836
1177.90 394.8176
1178.00 394.9516
1178.10 395.0856
1178.20 395.2196
1178.30 395.3536
1178.40 395.4876
1178.50 395.6217
1178.60 395.7557
1178.70 395.8897
1178.80 396.0237
1178.90 396.1577
1179.00 396.2917
1179.10 396.4257
1179.20 396.5597
1179.30 396.6937
1179.40 396.8277
1179.50 396.9618
1179.60 397.0958
1179.70 397.2298
1179.80 397.3638
1179.90 397.4978
1180.00 397.6318
1180.10 397.7658
1180.20 397.8998
1180.30 398.0338
1180.40 398.1679
1180.50 398.3019
1180.60 398.4359
1180.70 398.5699
1180.80 398.7039
1180.90 398.8379
1181.00 399.1444
1181.10 399.566
1181.20 399.9875
1181.30 400.409
1181.40 400.8306
1181.50 401.2521
1181.60 401.6736
1181.70 402.0952
1181.80 402.5167
1181.90 402.9382
1182.00 403.3598
1182.10 403.7813
1182.20 404.2028
1182.30 404.6244
1182.40 405.0459
1182.50 405.4674
1182.60 405.889
1182.70 406.3105
1182.80 406.732
1182.90 407.1536
1183.00 407.5751
1183.10 407.9966
1183.20 408.4182
1183.30 408.8397
1183.40 409.2613
1183.50 409.6828
1183.60 410.1043
1183.70 410.5259
1183.80 410.9474
1183.90 411.3689
1184.00 411.7905
1184.10 412.212
1184.20 412.6335
1184.30 413.0551
1184.40 413.4766
1184.50 413.8981
1184.60 414.3197
1184.70 414.7412
1184.80 415.1627
1184.90 415.5843
1185.00 416.0058
1185.10 416.4273
1185.20 416.8489
1185.30 417.0782
1185.40 417.3075
1185.50 417.5368
1185.60 417.7661
1185.70 417.9954
1185.80 418.2247
1185.90 418.454
1186.00 418.6833
1186.10 418.9126
1186.20 419.1419
1186.30 419.3712
1186.40 419.6005
1186.50 419.8298
1186.60 420.0591
1186.70 420.2884
1186.80 420.5177
1186.90 420.747
1187.00 420.9764
1187.10 421.2057
1187.20 421.435
1187.30 421.6643
1187.40 421.8936
1187.50 422.1229
1187.60 422.3522
1187.70 422.5815
1187.80 422.8108
1187.90 423.0401
1188.00 423.2694
1188.10 423.4987
1188.20 423.728
1188.30 423.9573
1188.40 424.1866
1188.50 424.4159
1188.60 424.6452
1188.70 424.8745
1188.80 425.1038
1188.90 425.3331
1189.00 425.5625
1189.10 425.7918
1189.20 426.0211
1189.30 426.2504
1189.40 426.4797
1189.50 426.4631
1189.60 426.0778
1189.70 425.6924
1189.80 425.3071
1189.90 424.9217
1190.00 424.5364
1190.10 424.1511
1190.20 423.7657
1190.30 423.3804
1190.40 422.995
1190.50 422.6097
1190.60 422.2243
1190.70 421.839
1190.80 421.4537
1190.90 421.0683
1191.00 420.683
1191.10 420.2976
1191.20 419.9123
1191.30 419.5269
1191.40 419.1416
1191.50 418.7563
1191.60 418.3709
1191.70 417.9856
1191.80 417.6002
1191.90 417.2149
1192.00 416.8295
1192.10 416.4442
1192.20 416.0589
1192.30 415.6735
1192.40 415.2882
1192.50 414.9028
1192.60 414.5175
1192.70 414.1321
1192.80 413.7468
1192.90 413.3615
1193.00 412.9761
1193.10 412.5908
1193.20 412.2054
1193.30 411.8201
1193.40 411.4347
1193.50 411.0494
1193.60 410.6641
1193.70 410.2787
1193.80 409.9587
1193.90 409.6666
1194.00 409.3745
1194.10 409.0824
1194.20 408.7903
1194.30 408.4982
1194.40 408.2062
1194.50 407.9141
1194.60 407.622
1194.70 407.3299
1194.80 407.0378
1194.90 406.7457
1195.00 406.4537
1195.10 406.1616
1195.20 405.8695
1195.30 405.5774
1195.40 405.2853
1195.50 404.9933
1195.60 404.7012
1195.70 404.4091
1195.80 404.117
1195.90 403.8249
1196.00 403.5328
1196.10 403.2408
1196.20 402.9487
1196.30 402.6566
1196.40 402.3645
1196.50 402.0724
1196.60 401.7803
1196.70 401.4883
1196.80 401.1962
1196.90 400.9041
1197.00 400.612
1197.10 400.3199
1197.20 400.0278
1197.30 399.7358
1197.40 399.4437
1197.50 399.1516
1197.60 398.8595
1197.70 398.5674
1197.80 398.2753
1197.90 397.9833
1198.00 397.6912
1198.10 397.7751
1198.20 397.9008
1198.30 398.0266
1198.40 398.1523
1198.50 398.278
1198.60 398.4037
1198.70 398.5295
1198.80 398.6552
1198.90 398.7809
1199.00 398.9066
1199.10 399.0324
1199.20 399.1581
1199.30 399.2838
1199.40 399.4095
1199.50 399.5352
1199.60 399.661
1199.70 399.7867
1199.80 399.9124
1199.90 400.0381
1200.00 400.1639
1200.10 400.2896
1200.20 400.4153
1200.30 400.541
1200.40 400.6668
1200.50 400.7925
1200.60 400.9182
1200.70 401.0439
1200.80 401.1696
1200.90 401.2954
1201.00 401.4211
1201.10 401.5468
1201.20 401.6725
1201.30 401.7983
1201.40 401.924
1201.50 402.0497
1201.60 402.1754
1201.70 402.3012
1201.80 402.4269
1201.90 402.5526
1202.00 402.6783
1202.10 402.804
1202.20 402.9298
1202.30 403.0747
1202.40 403.3923
1202.50 403.7099
1202.60 404.0275
1202.70 404.345
1202.80 404.6626
1202.90 404.9802
1203.00 405.2978
1203.10 405.6154
1203.20 405.933
1203.30 406.2506
1203.40 406.5682
1203.50 406.8858
1203.60 407.2034
1203.70 407.5209
1203.80 407.8385
1203.90 408.1561
1204.00 408.4737
1204.10 408.7913
1204.20 409.1089
1204.30 409.4265
1204.40 409.7441
1204.50 410.0617
1204.60 410.3793
1204.70 410.6969
1204.80 411.0144
1204.90 411.332
1205.00 411.6496
1205.10 411.9672
1205.20 412.2848
1205.30 412.6024
1205.40 412.92
1205.50 413.2376
1205.60 413.5552
1205.70 413.8728
1205.80 414.1903
1205.90 414.5079
1206.00 414.8255
1206.10 415.1431
1206.20 415.4607
1206.30 415.7783
1206.40 416.0959
1206.50 416.4135
1206.60 416.7598
1206.70 417.1731
1206.80 417.5863
1206.90 417.9996
1207.00 418.4129
1207.10 418.8262
1207.20 419.2395
1207.30 419.6528
1207.40 420.0661
1207.50 420.4793
1207.60 420.8926
1207.70 421.3059
1207.80 421.7192
1207.90 422.1325
1208.00 422.5458
1208.10 422.959
1208.20 423.3723
1208.30 423.7856
1208.40 424.1989
1208.50 424.6122
1208.60 425.0255
1208.70 425.4388
1208.80 425.852
1208.90 426.2653
1209.00 426.6786
1209.10 427.0919
1209.20 427.5052
1209.30 427.9185
1209.40 428.3317
1209.50 428.745
1209.60 429.1583
1209.70 429.5716
1209.80 429.9849
1209.90 430.3982
1210.00 430.8114
1210.10 431.2247
1210.20 431.638
1210.30 432.0513
1210.40 432.4646
1210.50 432.8779
1210.60 433.2912
1210.70 433.7044
1210.80 434.1177
1210.90 434.4616
1211.00 434.7361
1211.10 435.0105
1211.20 435.285
1211.30 435.5594
1211.40 435.8339
1211.50 436.1084
1211.60 436.3828
1211.70 436.6573
1211.80 436.9318
1211.90 437.2062
1212.00 437.4807
1212.10 437.7552
1212.20 438.0296
1212.30 438.3041
1212.40 438.5785
1212.50 438.853
1212.60 439.1275
1212.70 439.4019
1212.80 439.6764
1212.90 439.9509
1213.00 440.2253
1213.10 440.4998
1213.20 440.7742
1213.30 441.0487
1213.40 441.3232
1213.50 441.5976
1213.60 441.8721
1213.70 442.1466
1213.80 442.421
1213.90 442.6955
1214.00 442.9699
1214.10 443.2444
1214.20 443.5189
1214.30 443.7933
1214.40 444.0678
1214.50 444.3423
1214.60 444.6167
1214.70 444.8912
1214.80 445.1657
1214.90 445.4401
1215.00 445.7146
1215.10 445.989
1215.20 446.323
1215.30 446.6966
1215.40 447.0702
1215.50 447.4438
1215.60 447.8174
1215.70 448.191
1215.80 448.5646
1215.90 448.9382
1216.00 449.3118
1216.10 449.6854
1216.20 450.059
1216.30 450.4326
1216.40 450.8062
1216.50 451.1798
1216.60 451.5534
1216.70 451.927
1216.80 452.3006
1216.90 452.6742
1217.00 453.0478
1217.10 453.4214
1217.20 453.795
1217.30 454.1686
1217.40 454.5422
1217.50 454.9158
1217.60 455.2894
1217.70 455.663
1217.80 456.0366
1217.90 456.4102
1218.00 456.7838
1218.10 457.1574
1218.20 457.531
1218.30 457.9046
1218.40 458.2782
1218.50 458.6518
1218.60 459.0254
1218.70 459.399
1218.80 459.7727
1218.90 460.1463
1219.00 460.5199
1219.10 460.8935
1219.20 461.2671
1219.30 461.6407
1219.40 462.0143
1219.50 462.3234
1219.60 462.6049
1219.70 462.8864
1219.80 463.1679
1219.90 463.4494
1220.00 463.7309
1220.10 464.0124
1220.20 464.2939
1220.30 464.5755
1220.40 464.857
1220.50 465.1385
1220.60 465.42
1220.70 465.7015
1220.80 465.983
1220.90 466.2645
1221.00 466.546
1221.10 466.8275
1221.20 467.109
1221.30 467.3905
1221.40 467.672
1221.50 467.9535
1221.60 468.2351
1221.70 468.5166
1221.80 468.7981
1221.90 469.0796
1222.00 469.3611
1222.10 469.6426
1222.20 469.9241
1222.30 470.2056
1222.40 470.4871
1222.50 470.7686
1222.60 471.0501
1222.70 471.3316
1222.80 471.6131
1222.90 471.8946
1223.00 472.1762
1223.10 472.4577
1223.20 472.7392
1223.30 473.0207
1223.40 473.3022
1223.50 473.5837
1223.60 473.8652
1223.70 474.1467
1223.80 474.2443
1223.90 474.263
1224.00 474.2817
1224.10 474.3004
1224.20 474.3191
1224.30 474.3378
1224.40 474.3565
1224.50 474.3752
1224.60 474.3939
1224.70 474.4126
1224.80 474.4313
1224.90 474.45
1225.00 474.4687
1225.10 474.4874
1225.20 474.5061
1225.30 474.5248
1225.40 474.5435
1225.50 474.5622
1225.60 474.5809
1225.70 474.5996
1225.80 474.6183
1225.90 474.637
1226.00 474.6558
1226.10 474.6745
1226.20 474.6932
1226.30 474.7119
1226.40 474.7306
1226.50 474.7493
1226.60 474.768
1226.70 474.7867
1226.80 474.8054
1226.90 474.8241
1227.00 474.8428
1227.10 474.8615
1227.20 474.8802
1227.30 474.8989
1227.40 474.9176
1227.50 474.9363
1227.60 474.955
1227.70 474.9737
1227.80 474.9924
1227.90 475.0111
1228.00 475.0298
1228.10 475.0074
1228.20 474.9746
1228.30 474.9418
1228.40 474.9091
1228.50 474.8763
1228.60 474.8435
1228.70 474.8108
1228.80 474.778
1228.90 474.7453
1229.00 474.7125
1229.10 474.6797
1229.20 474.647
1229.30 474.6142
1229.40 474.5814
1229.50 474.5487
1229.60 474.5159
1229.70 474.4831
1229.80 474.4504
1229.90 474.4176
1230.00 474.3848
1230.10 474.3521
1230.20 474.3193
1230.30 474.2865
1230.40 474.2538
1230.50 474.221
1230.60 474.1883
1230.70 474.1555
1230.80 474.1227
1230.90 474.09
1231.00 474.0572
1231.10 474.0244
1231.20 473.9917
1231.30 473.9589
1231.40 473.9261
1231.50 473.8934
1231.60 473.8606
1231.70 473.8278
1231.80 473.7951
1231.90 473.7623
1232.00 473.7295
1232.10 473.6968
1232.20 473.664
1232.30 473.6312
1232.40 473.2086
1232.50 472.6886
1232.60 472.1685
1232.70 471.6485
1232.80 471.1284
1232.90 470.6083
1233.00 470.0883
1233.10 469.5682
1233.20 469.0481
1233.30 468.5281
1233.40 468.008
1233.50 467.488
1233.60 466.9679
1233.70 466.4478
1233.80 465.9278
1233.90 465.4077
1234.00 464.8877
1234.10 464.3676
1234.20 463.8475
1234.30 463.3275
1234.40 462.8074
1234.50 462.2873
1234.60 461.7673
1234.70 461.2472
1234.80 460.7272
1234.90 460.2071
1235.00 459.687
1235.10 459.167
1235.20 458.6469
1235.30 458.1268
1235.40 457.6068
1235.50 457.0867
1235.60 456.5667
1235.70 456.0466
1235.80 455.5265
1235.90 455.0065
1236.00 454.4864
1236.10 453.9663
1236.20 453.4463
1236.30 452.9262
1236.40 452.4062
1236.50 451.8861
1236.60 451.366
1236.70 451.0749
1236.80 450.882
1236.90 450.689
1237.00 450.4961
1237.10 450.3031
1237.20 450.1101
1237.30 449.9172
1237.40 449.7242
1237.50 449.5312
1237.60 449.3383
1237.70 449.1453
1237.80 448.9523
1237.90 448.7594
1238.00 448.5664
1238.10 448.3735
1238.20 448.1805
1238.30 447.9875
1238.40 447.7946
1238.50 447.6016
1238.60 447.4086
1238.70 447.2157
1238.80 447.0227
1238.90 446.8297
1239.00 446.6368
1239.10 446.4438
1239.20 446.2508
1239.30 446.0579
1239.40 445.8649
1239.50 445.672
1239.60 445.479
1239.70 445.286
1239.80 445.0931
1239.90 444.9001
1240.00 444.7071
1240.10 444.5142
1240.20 444.3212
1240.30 444.1282
1240.40 443.9353
1240.50 443.7423
1240.60 443.5494
1240.70 443.3564
1240.80 443.1634
1240.90 442.9705
1241.00 442.7634
1241.10 442.5503
1241.20 442.3372
1241.30 442.1241
1241.40 441.911
1241.50 441.6979
1241.60 441.4848
1241.70 441.2717
1241.80 441.0585
1241.90 440.8454
1242.00 440.6323
1242.10 440.4192
1242.20 440.2061
1242.30 439.993
1242.40 439.7799
1242.50 439.5668
1242.60 439.3537
1242.70 439.1406
1242.80 438.9275
1242.90 438.7144
1243.00 438.5013
1243.10 438.2882
1243.20 438.0751
1243.30 437.8619
1243.40 437.6488
1243.50 437.4357
1243.60 437.2226
1243.70 437.0095
1243.80 436.7964
1243.90 436.5833
1244.00 436.3702
1244.10 436.1571
1244.20 435.944
1244.30 435.7309
1244.40 435.5178
1244.50 435.3047
1244.60 435.0916
1244.70 434.8785
1244.80 434.6653
1244.90 434.4522
1245.00 434.2391
1245.10 434.026
1245.20 433.8129
1245.30 433.9753
1245.40 434.388
1245.50 434.8006
1245.60 435.2133
1245.70 435.626
1245.80 436.0387
1245.90 436.4513
1246.00 436.864
1246.10 437.2767
1246.20 437.6894
1246.30 438.102
1246.40 438.5147
1246.50 438.9274
1246.60 439.3401
1246.70 439.7527
1246.80 440.1654
1246.90 440.5781
1247.00 440.9908
1247.10 441.4034
1247.20 441.8161
1247.30 442.2288
1247.40 442.6415
1247.50 443.0541
1247.60 443.4668
1247.70 443.8795
1247.80 444.2922
1247.90 444.7048
1248.00 445.1175
1248.10 445.5302
1248.20 445.9429
1248.30 446.3555
1248.40 446.7682
1248.50 447.1809
1248.60 447.5936
1248.70 448.0062
1248.80 448.4189
1248.90 448.8316
1249.00 449.2443
1249.10 449.6569
1249.20 450.0696
1249.30 450.4823
1249.40 450.895
1249.50 451.3076
1249.60 451.6952
1249.70 452.0576
1249.80 452.42
1249.90 452.7825
1250.00 453.1449
1250.10 453.5073
1250.20 453.8697
1250.30 454.2322
1250.40 454.5946
1250.50 454.957
1250.60 455.3194
1250.70 455.6818
1250.80 456.0443
1250.90 456.4067
1251.00 456.7691
1251.10 457.1315
1251.20 457.494
1251.30 457.8564
1251.40 458.2188
1251.50 458.5812
1251.60 458.9437
1251.70 459.3061
1251.80 459.6685
1251.90 460.0309
1252.00 460.3934
1252.10 460.7558
1252.20 461.1182
1252.30 461.4806
1252.40 461.843
1252.50 462.2055
1252.60 462.5679
1252.70 462.9303
1252.80 463.2927
1252.90 463.6552
1253.00 464.0176
1253.10 464.38
1253.20 464.7424
1253.30 465.1049
1253.40 465.4673
1253.50 465.8297
1253.60 466.1921
1253.70 466.5545
1253.80 466.917
1253.90 467.3738
1254.00 467.9722
1254.10 468.5705
1254.20 469.1689
1254.30 469.7673
1254.40 470.3657
1254.50 470.964
1254.60 471.5624
1254.70 472.1608
1254.80 472.7592
1254.90 473.3575
1255.00 473.9559
1255.10 474.5543
1255.20 475.1527
1255.30 475.7511
1255.40 476.3494
1255.50 476.9478
1255.60 477.5462
1255.70 478.1446
1255.80 478.7429
1255.90 479.3413
1256.00 479.9397
1256.10 480.5381
1256.20 481.1364
1256.30 481.7348
1256.40 482.3332
1256.50 482.9316
1256.60 483.53
1256.70 484.1283
1256.80 484.7267
1256.90 485.3251
1257.00 485.9235
1257.10 486.5218
1257.20 487.1202
1257.30 487.7186
1257.40 488.317
1257.50 488.9153
1257.60 489.5137
1257.70 490.1121
1257.80 490.7105
1257.90 491.3089
1258.00 491.9072
1258.10 492.5056
1258.20 492.9494
1258.30 493.0327
1258.40 493.1159
1258.50 493.1992
1258.60 493.2824
1258.70 493.3657
1258.80 493.4489
1258.90 493.5322
1259.00 493.6154
1259.10 493.6987
1259.20 493.7819
1259.30 493.8652
1259.40 493.9484
1259.50 494.0317
1259.60 494.1149
1259.70 494.1982
1259.80 494.2814
1259.90 494.3646
1260.00 494.4479
1260.10 494.5311
1260.20 494.6144
1260.30 494.6976
1260.40 494.7809
1260.50 494.8641
1260.60 494.9474
1260.70 495.0306
1260.80 495.1139
1260.90 495.1971
1261.00 495.2804
1261.10 495.3636
1261.20 495.4469
1261.30 495.5301
1261.40 495.6134
1261.50 495.6966
1261.60 495.7798
1261.70 495.8631
1261.80 495.9463
1261.90 496.0296
1262.00 496.1128
1262.10 496.1961
1262.20 496.2793
1262.30 496.3626
1262.40 496.4458
1262.50 496.6244
1262.60 497.1841
1262.70 497.7439
1262.80 498.3036
1262.90 498.8633
1263.00 499.4231
1263.10 499.9828
1263.20 500.5426
1263.30 501.1023
1263.40 501.662
1263.50 502.2218
1263.60 502.7815
1263.70 503.3413
1263.80 503.901
1263.90 504.4607
1264.00 505.0205
1264.10 505.5802
1264.20 506.14
1264.30 506.6997
1264.40 507.2594
1264.50 507.8192
1264.60 508.3789
1264.70 508.9387
1264.80 509.4984
1264.90 510.0581
1265.00 510.6179
1265.10 511.1776
1265.20 511.7374
1265.30 512.2971
1265.40 512.8568
1265.50 513.4166
1265.60 513.9763
1265.70 514.5361
1265.80 515.0958
1265.90 515.6556
1266.00 516.2153
1266.10 516.775
1266.20 517.3348
1266.30 517.8945
1266.40 518.4543
1266.50 519.014
1266.60 519.5737
1266.70 520.1335
1266.80 520.6932
1266.90 520.3537
1267.00 520.0142
1267.10 519.6746
1267.20 519.3351
1267.30 518.9956
1267.40 518.656
1267.50 518.3165
1267.60 517.977
1267.70 517.6374
1267.80 517.2979
1267.90 516.9584
1268.00 516.6188
1268.10 516.2793
1268.20 515.9398
1268.30 515.6003
1268.40 515.2607
1268.50 514.9212
1268.60 514.5817
1268.70 514.2421
1268.80 513.9026
1268.90 513.5631
1269.00 513.2235
1269.10 512.884
1269.20 512.5445
1269.30 512.2049
1269.40 511.8654
1269.50 511.5259
1269.60 511.1864
1269.70 510.8468
1269.80 510.5073
1269.90 510.1678
1270.00 509.8282
1270.10 509.4887
1270.20 509.1492
1270.30 508.8096
1270.40 508.4701
1270.50 508.1306
1270.60 507.791
1270.70 507.4515
1270.80 507.112
1270.90 506.7725
1271.00 506.4329
1271.10 506.0934
1271.20 506.3975
1271.30 506.7732
1271.40 507.1488
1271.50 507.5245
1271.60 507.9001
1271.70 508.2757
1271.80 508.6514
1271.90 509.027
1272.00 509.4027
1272.10 509.7783
1272.20 510.154
1272.30 510.5296
1272.40 510.9053
1272.50 511.2809
1272.60 511.6566
1272.70 512.0322
1272.80 512.4078
1272.90 512.7835
1273.00 513.1591
1273.10 513.5348
1273.20 513.9104
1273.30 514.2861
1273.40 514.6617
1273.50 515.0374
1273.60 515.413
1273.70 515.7887
1273.80 516.1643
1273.90 516.5399
1274.00 516.9156
1274.10 517.2912
1274.20 517.6669
1274.30 518.0425
1274.40 518.4182
1274.50 518.7938
1274.60 519.1695
1274.70 519.5451
1274.80 519.9208
1274.90 520.2964
1275.00 520.672
1275.10 521.0477
1275.20 521.4233
1275.30 521.799
1275.40 522.1746
1275.50 522.2935
1275.60 522.3022
1275.70 522.311
1275.80 522.3197
1275.90 522.3285
1276.00 522.3373
1276.10 522.346
1276.20 522.3548
1276.30 522.3636
1276.40 522.3723
1276.50 522.3811
1276.60 522.3899
1276.70 522.3986
1276.80 522.4074
1276.90 522.4162
1277.00 522.4249
1277.10 522.4337
1277.20 522.4425
1277.30 522.4512
1277.40 522.46
1277.50 522.4687
1277.60 522.4775
1277.70 522.4863
1277.80 522.495
1277.90 522.5038
1278.00 522.5126
1278.10 522.5213
1278.20 522.5301
1278.30 522.5389
1278.40 522.5476
1278.50 522.5564
1278.60 522.5652
1278.70 522.5739
1278.80 522.5827
1278.90 522.5915
1279.00 522.6002
1279.10 522.609
1279.20 522.6177
1279.30 522.6265
1279.40 522.6353
1279.50 522.644
1279.60 522.6528
1279.70 522.6616
1279.80 522.688
1279.90 522.7263
1280.00 522.7646
1280.10 522.8029
1280.20 522.8412
1280.30 522.8794
1280.40 522.9177
1280.50 522.956
1280.60 522.9943
1280.70 523.0326
1280.80 523.0709
1280.90 523.1091
1281.00 523.1474
1281.10 523.1857
1281.20 523.224
1281.30 523.2623
1281.40 523.3005
1281.50 523.3388
1281.60 523.3771
1281.70 523.4154
1281.80 523.4537
1281.90 523.4919
1282.00 523.5302
1282.10 523.5685
1282.20 523.6068
1282.30 523.6451
1282.40 523.6833
1282.50 523.7216
1282.60 523.7599
1282.70 523.7982
1282.80 523.8365
1282.90 523.8747
1283.00 523.913
1283.10 523.9513
1283.20 523.9896
1283.30 524.0279
1283.40 524.0661
1283.50 524.1044
1283.60 524.1427
1283.70 524.181
1283.80 524.2193
1283.90 524.2575
1284.00 524.2958
1284.10 524.418
1284.20 524.6659
1284.30 524.9138
1284.40 525.1617
1284.50 525.4096
1284.60 525.6575
1284.70 525.9054
1284.80 526.1533
1284.90 526.4012
1285.00 526.6491
1285.10 526.897
1285.20 527.1449
1285.30 527.3929
1285.40 527.6408
1285.50 527.8887
1285.60 528.1366
1285.70 528.3845
1285.80 528.6324
1285.90 528.8803
1286.00 529.1282
1286.10 529.3761
1286.20 529.624
1286.30 529.8719
1286.40 530.1198
1286.50 530.3677
1286.60 530.6157
1286.70 530.8636
1286.80 531.1115
1286.90 531.3594
1287.00 531.6073
1287.10 531.8552
1287.20 532.1031
1287.30 532.351
1287.40 532.5989
1287.50 532.8468
1287.60 533.0947
1287.70 533.3426
1287.80 533.5905
1287.90 533.8385
1288.00 534.0864
1288.10 534.3343
1288.20 534.5822
1288.30 534.8301
1288.40 535.0533
1288.50 535.1779
1288.60 535.3025
1288.70 535.4271
1288.80 535.5517
1288.90 535.6763
1289.00 535.801
1289.10 535.9256
1289.20 536.0502
1289.30 536.1748
1289.40 536.2994
1289.50 536.424
1289.60 536.5486
1289.70 536.6732
1289.80 536.7978
1289.90 536.9224
1290.00 537.047
1290.10 537.1716
1290.20 537.2962
1290.30 537.4208
1290.40 537.5454
1290.50 537.67
1290.60 537.7946
1290.70 537.9192
1290.80 538.0438
1290.90 538.1684
1291.00 538.293
1291.10 538.4176
1291.20 538.5422
1291.30 538.6669
1291.40 538.7915
1291.50 538.9161
1291.60 539.0407
1291.70 539.1653
1291.80 539.2899
1291.90 539.4145
1292.00 539.5391
1292.10 539.6637
1292.20 539.7883
1292.30 539.9129
1292.40 540.0375
1292.50 540.1621
1292.60 540.2867
1292.70 540.4113
1292.80 540.4776
1292.90 540.5439
1293.00 540.6102
1293.10 540.6766
1293.20 540.7429
1293.30 540.8092
1293.40 540.8755
1293.50 540.9418
1293.60 541.0081
1293.70 541.0744
1293.80 541.1407
1293.90 541.2071
1294.00 541.2734
1294.10 541.3397
1294.20 541.406
1294.30 541.4723
1294.40 541.5386
1294.50 541.6049
1294.60 541.6712
1294.70 541.7376
1294.80 541.8039
1294.90 541.8702
1295.00 541.9365
1295.10 542.0028
1295.20 542.0691
1295.30 542.1354
1295.40 542.2017
1295.50 542.2681
1295.60 542.3344
1295.70 542.4007
1295.80 542.467
1295.90 542.5333
1296.00 542.5996
1296.10 542.6659
1296.20 542.7322
1296.30 542.7986
1296.40 542.8649
1296.50 542.9312
1296.60 542.9975
1296.70 543.0638
1296.80 543.1301
1296.90 543.1964
1297.00 543.2627
1297.10 543.1722
1297.20 543.0423
1297.30 542.9125
1297.40 542.7827
1297.50 542.6529
1297.60 542.5231
1297.70 542.3933
1297.80 542.2635
1297.90 542.1336
1298.00 542.0038
1298.10 541.874
1298.20 541.7442
1298.30 541.6144
1298.40 541.4846
1298.50 541.3548
1298.60 541.2249
1298.70 541.0951
1298.80 540.9653
1298.90 540.8355
1299.00 540.7057
1299.10 540.5759
1299.20 540.4461
1299.30 540.3162
1299.40 540.1864
1299.50 540.0566
1299.60 539.9268
1299.70 539.797
1299.80 539.6672
1299.90 539.5374
