# Version 2.1 - nm, norm@500 to 1, cut digits
# Wavelength(nm)  Flambda(ergs/cm^s/s/nm)
300.00 2.214681e-95
300.10 2.214681e-95
300.20 2.214681e-95
300.30 2.214681e-95
300.40 2.214681e-95
300.50 2.214681e-95
300.60 2.214681e-95
300.70 2.214681e-95
300.80 2.214681e-95
300.90 2.214681e-95
301.00 2.214681e-95
301.10 2.214681e-95
301.20 2.214681e-95
301.30 2.214681e-95
301.40 2.214681e-95
301.50 2.214681e-95
301.60 2.214681e-95
301.70 2.214681e-95
301.80 2.214681e-95
301.90 2.214681e-95
302.00 2.214681e-95
302.10 2.214681e-95
302.20 2.214681e-95
302.30 2.214681e-95
302.40 2.214681e-95
302.50 2.214681e-95
302.60 2.214681e-95
302.70 2.214681e-95
302.80 2.214681e-95
302.90 2.214681e-95
303.00 2.214681e-95
303.10 2.214681e-95
303.20 2.214681e-95
303.30 2.214681e-95
303.40 2.214681e-95
303.50 2.214681e-95
303.60 2.214681e-95
303.70 2.214681e-95
303.80 2.214681e-95
303.90 2.214681e-95
304.00 2.214681e-95
304.10 2.214681e-95
304.20 2.214681e-95
304.30 2.214681e-95
304.40 2.214681e-95
304.50 2.214681e-95
304.60 2.214681e-95
304.70 2.214681e-95
304.80 2.214681e-95
304.90 2.214681e-95
305.00 2.214681e-95
305.10 2.214681e-95
305.20 2.214681e-95
305.30 2.214681e-95
305.40 2.214681e-95
305.50 2.214681e-95
305.60 2.214681e-95
305.70 2.214681e-95
305.80 2.214681e-95
305.90 2.214681e-95
306.00 2.214681e-95
306.10 2.214681e-95
306.20 2.214681e-95
306.30 2.214681e-95
306.40 2.214681e-95
306.50 2.214681e-95
306.60 2.214681e-95
306.70 2.214681e-95
306.80 2.214681e-95
306.90 2.214681e-95
307.00 2.214681e-95
307.10 2.214681e-95
307.20 2.214681e-95
307.30 2.214681e-95
307.40 2.214681e-95
307.50 2.214681e-95
307.60 2.214681e-95
307.70 2.214681e-95
307.80 2.214681e-95
307.90 2.214681e-95
308.00 2.214681e-95
308.10 2.214681e-95
308.20 2.214681e-95
308.30 2.214681e-95
308.40 2.214681e-95
308.50 2.214681e-95
308.60 2.214681e-95
308.70 2.214681e-95
308.80 2.214681e-95
308.90 2.214681e-95
309.00 2.214681e-95
309.10 2.214681e-95
309.20 2.214681e-95
309.30 2.214681e-95
309.40 2.214681e-95
309.50 2.214681e-95
309.60 2.214681e-95
309.70 2.214681e-95
309.80 2.214681e-95
309.90 2.214681e-95
310.00 2.214681e-95
310.10 2.214681e-95
310.20 2.214681e-95
310.30 2.214681e-95
310.40 2.214681e-95
310.50 2.214681e-95
310.60 2.214681e-95
310.70 2.214681e-95
310.80 2.214681e-95
310.90 2.214681e-95
311.00 2.214681e-95
311.10 2.214681e-95
311.20 2.214681e-95
311.30 2.214681e-95
311.40 2.214681e-95
311.50 2.214681e-95
311.60 2.214681e-95
311.70 2.214681e-95
311.80 2.214681e-95
311.90 2.214681e-95
312.00 2.214681e-95
312.10 2.214681e-95
312.20 2.214681e-95
312.30 2.214681e-95
312.40 2.214681e-95
312.50 2.214681e-95
312.60 2.214681e-95
312.70 2.214681e-95
312.80 2.214681e-95
312.90 2.214681e-95
313.00 2.214681e-95
313.10 2.214681e-95
313.20 2.214681e-95
313.30 2.214681e-95
313.40 2.214681e-95
313.50 2.214681e-95
313.60 2.214681e-95
313.70 2.214681e-95
313.80 2.214681e-95
313.90 2.214681e-95
314.00 2.214681e-95
314.10 2.214681e-95
314.20 2.214681e-95
314.30 2.214681e-95
314.40 2.214681e-95
314.50 2.214681e-95
314.60 2.214681e-95
314.70 2.214681e-95
314.80 2.214681e-95
314.90 2.214681e-95
315.00 2.214681e-95
315.10 2.214681e-95
315.20 2.214681e-95
315.30 2.214681e-95
315.40 2.214681e-95
315.50 2.214681e-95
315.60 2.214681e-95
315.70 2.214681e-95
315.80 2.214681e-95
315.90 2.214681e-95
316.00 2.214681e-95
316.10 2.214681e-95
316.20 2.214681e-95
316.30 2.214681e-95
316.40 2.214681e-95
316.50 2.214681e-95
316.60 2.214681e-95
316.70 2.214681e-95
316.80 2.214681e-95
316.90 2.214681e-95
317.00 2.214681e-95
317.10 2.214681e-95
317.20 2.214681e-95
317.30 2.214681e-95
317.40 2.214681e-95
317.50 2.214681e-95
317.60 2.214681e-95
317.70 2.214681e-95
317.80 2.214681e-95
317.90 2.214681e-95
318.00 2.214681e-95
318.10 2.214681e-95
318.20 2.214681e-95
318.30 2.214681e-95
318.40 2.214681e-95
318.50 2.214681e-95
318.60 2.214681e-95
318.70 2.214681e-95
318.80 2.214681e-95
318.90 2.214681e-95
319.00 2.214681e-95
319.10 2.214681e-95
319.20 2.214681e-95
319.30 2.214681e-95
319.40 2.214681e-95
319.50 2.214681e-95
319.60 2.214681e-95
319.70 2.214681e-95
319.80 2.214681e-95
319.90 2.214681e-95
320.00 2.214681e-95
320.10 2.214681e-95
320.20 2.214681e-95
320.30 2.214681e-95
320.40 2.214681e-95
320.50 2.214681e-95
320.60 2.214681e-95
320.70 2.214681e-95
320.80 2.214681e-95
320.90 2.214681e-95
321.00 2.214681e-95
321.10 2.214681e-95
321.20 2.214681e-95
321.30 2.214681e-95
321.40 2.214681e-95
321.50 2.214681e-95
321.60 2.214681e-95
321.70 2.214681e-95
321.80 2.214681e-95
321.90 2.214681e-95
322.00 2.214681e-95
322.10 2.214681e-95
322.20 2.214681e-95
322.30 2.214681e-95
322.40 2.214681e-95
322.50 2.214681e-95
322.60 2.214681e-95
322.70 2.214681e-95
322.80 2.214681e-95
322.90 2.214681e-95
323.00 2.214681e-95
323.10 2.214681e-95
323.20 2.214681e-95
323.30 2.214681e-95
323.40 2.214681e-95
323.50 2.214681e-95
323.60 2.214681e-95
323.70 2.214681e-95
323.80 2.214681e-95
323.90 2.214681e-95
324.00 2.214681e-95
324.10 2.214681e-95
324.20 2.214681e-95
324.30 2.214681e-95
324.40 2.214681e-95
324.50 2.214681e-95
324.60 2.214681e-95
324.70 2.214681e-95
324.80 2.214681e-95
324.90 2.214681e-95
325.00 2.214681e-95
325.10 2.214681e-95
325.20 2.214681e-95
325.30 2.214681e-95
325.40 2.214681e-95
325.50 2.214681e-95
325.60 2.214681e-95
325.70 2.214681e-95
325.80 2.214681e-95
325.90 2.214681e-95
326.00 2.214681e-95
326.10 2.214681e-95
326.20 2.214681e-95
326.30 2.214681e-95
326.40 2.214681e-95
326.50 2.214681e-95
326.60 2.214681e-95
326.70 2.214681e-95
326.80 2.214681e-95
326.90 2.214681e-95
327.00 2.214681e-95
327.10 2.214681e-95
327.20 2.214681e-95
327.30 2.214681e-95
327.40 2.214681e-95
327.50 2.214681e-95
327.60 2.214681e-95
327.70 2.214681e-95
327.80 2.214681e-95
327.90 2.214681e-95
328.00 2.214681e-95
328.10 2.214681e-95
328.20 2.214681e-95
328.30 2.214681e-95
328.40 2.214681e-95
328.50 2.214681e-95
328.60 2.214681e-95
328.70 2.214681e-95
328.80 2.214681e-95
328.90 2.214681e-95
329.00 2.214681e-95
329.10 2.214681e-95
329.20 2.214681e-95
329.30 2.214681e-95
329.40 2.214681e-95
329.50 2.214681e-95
329.60 2.214681e-95
329.70 2.214681e-95
329.80 2.214681e-95
329.90 2.214681e-95
330.00 2.214681e-95
330.10 2.214681e-95
330.20 2.214681e-95
330.30 2.214681e-95
330.40 2.214681e-95
330.50 2.214681e-95
330.60 2.214681e-95
330.70 2.214681e-95
330.80 2.214681e-95
330.90 2.214681e-95
331.00 2.214681e-95
331.10 2.214681e-95
331.20 2.214681e-95
331.30 2.214681e-95
331.40 2.214681e-95
331.50 2.214681e-95
331.60 2.214681e-95
331.70 2.214681e-95
331.80 2.214681e-95
331.90 2.214681e-95
332.00 2.214681e-95
332.10 2.214681e-95
332.20 2.214681e-95
332.30 2.214681e-95
332.40 2.214681e-95
332.50 2.214681e-95
332.60 2.214681e-95
332.70 2.214681e-95
332.80 2.214681e-95
332.90 2.214681e-95
333.00 2.214681e-95
333.10 2.214681e-95
333.20 2.214681e-95
333.30 2.214681e-95
333.40 2.214681e-95
333.50 2.214681e-95
333.60 2.214681e-95
333.70 2.214681e-95
333.80 2.214681e-95
333.90 2.214681e-95
334.00 2.214681e-95
334.10 2.214681e-95
334.20 2.214681e-95
334.30 2.214681e-95
334.40 2.214681e-95
334.50 2.214681e-95
334.60 2.214681e-95
334.70 2.214681e-95
334.80 2.214681e-95
334.90 2.214681e-95
335.00 2.214681e-95
335.10 2.214681e-95
335.20 2.214681e-95
335.30 2.214681e-95
335.40 2.214681e-95
335.50 2.214681e-95
335.60 2.214681e-95
335.70 2.214681e-95
335.80 2.214681e-95
335.90 2.214681e-95
336.00 2.214681e-95
336.10 2.214681e-95
336.20 2.214681e-95
336.30 2.214681e-95
336.40 2.214681e-95
336.50 2.214681e-95
336.60 2.214681e-95
336.70 2.214681e-95
336.80 2.214681e-95
336.90 2.214681e-95
337.00 2.214681e-95
337.10 2.214681e-95
337.20 2.214681e-95
337.30 2.214681e-95
337.40 2.214681e-95
337.50 2.214681e-95
337.60 2.214681e-95
337.70 2.214681e-95
337.80 2.214681e-95
337.90 2.214681e-95
338.00 2.214681e-95
338.10 2.214681e-95
338.20 2.214681e-95
338.30 2.214681e-95
338.40 2.214681e-95
338.50 2.214681e-95
338.60 2.214681e-95
338.70 2.214681e-95
338.80 2.214681e-95
338.90 2.214681e-95
339.00 2.214681e-95
339.10 2.214681e-95
339.20 2.214681e-95
339.30 2.214681e-95
339.40 2.214681e-95
339.50 2.214681e-95
339.60 2.214681e-95
339.70 2.214681e-95
339.80 2.214681e-95
339.90 2.214681e-95
340.00 2.214681e-95
340.10 2.214681e-95
340.20 2.214681e-95
340.30 2.214681e-95
340.40 2.214681e-95
340.50 2.214681e-95
340.60 2.214681e-95
340.70 2.214681e-95
340.80 2.214681e-95
340.90 2.214681e-95
341.00 2.214681e-95
341.10 2.214681e-95
341.20 2.214681e-95
341.30 2.214681e-95
341.40 2.214681e-95
341.50 2.214681e-95
341.60 2.214681e-95
341.70 2.214681e-95
341.80 2.214681e-95
341.90 2.214681e-95
342.00 2.214681e-95
342.10 2.214681e-95
342.20 2.214681e-95
342.30 2.214681e-95
342.40 2.214681e-95
342.50 2.214681e-95
342.60 2.214681e-95
342.70 2.214681e-95
342.80 2.214681e-95
342.90 2.214681e-95
343.00 2.214681e-95
343.10 2.214681e-95
343.20 2.214681e-95
343.30 2.214681e-95
343.40 2.214681e-95
343.50 2.214681e-95
343.60 2.214681e-95
343.70 2.214681e-95
343.80 2.214681e-95
343.90 2.214681e-95
344.00 2.214681e-95
344.10 2.214681e-95
344.20 2.214681e-95
344.30 2.214681e-95
344.40 2.214681e-95
344.50 2.214681e-95
344.60 2.214681e-95
344.70 2.214681e-95
344.80 2.214681e-95
344.90 2.214681e-95
345.00 2.214681e-95
345.10 2.214681e-95
345.20 2.214681e-95
345.30 2.214681e-95
345.40 2.214681e-95
345.50 2.214681e-95
345.60 2.214681e-95
345.70 2.214681e-95
345.80 2.214681e-95
345.90 2.214681e-95
346.00 2.214681e-95
346.10 2.214681e-95
346.20 2.214681e-95
346.30 2.214681e-95
346.40 2.214681e-95
346.50 2.214681e-95
346.60 2.214681e-95
346.70 2.214681e-95
346.80 2.214681e-95
346.90 2.214681e-95
347.00 2.214681e-95
347.10 2.214681e-95
347.20 2.214681e-95
347.30 2.214681e-95
347.40 2.214681e-95
347.50 2.214681e-95
347.60 2.214681e-95
347.70 2.214681e-95
347.80 2.214681e-95
347.90 2.214681e-95
348.00 2.214681e-95
348.10 2.214681e-95
348.20 2.214681e-95
348.30 2.214681e-95
348.40 2.214681e-95
348.50 2.214681e-95
348.60 2.214681e-95
348.70 2.214681e-95
348.80 2.214681e-95
348.90 2.214681e-95
349.00 2.214681e-95
349.10 2.214681e-95
349.20 2.214681e-95
349.30 2.214681e-95
349.40 2.214681e-95
349.50 2.214681e-95
349.60 2.214681e-95
349.70 2.214681e-95
349.80 2.214681e-95
349.90 2.214681e-95
350.00 2.214681e-95
350.10 2.214681e-95
350.20 2.214681e-95
350.30 2.214681e-95
350.40 2.214681e-95
350.50 2.214681e-95
350.60 2.214681e-95
350.70 2.214681e-95
350.80 2.214681e-95
350.90 2.214681e-95
351.00 2.214681e-95
351.10 2.214681e-95
351.20 2.214681e-95
351.30 2.214681e-95
351.40 2.214681e-95
351.50 2.214681e-95
351.60 2.214681e-95
351.70 2.214681e-95
351.80 2.214681e-95
351.90 2.214681e-95
352.00 2.214681e-95
352.10 2.214681e-95
352.20 2.214681e-95
352.30 2.214681e-95
352.40 2.214681e-95
352.50 2.214681e-95
352.60 2.214681e-95
352.70 2.214681e-95
352.80 2.214681e-95
352.90 2.214681e-95
353.00 2.214681e-95
353.10 2.214681e-95
353.20 2.214681e-95
353.30 2.214681e-95
353.40 2.214681e-95
353.50 2.214681e-95
353.60 2.214681e-95
353.70 2.214681e-95
353.80 2.214681e-95
353.90 2.214681e-95
354.00 2.214681e-95
354.10 2.214681e-95
354.20 2.214681e-95
354.30 2.214681e-95
354.40 2.214681e-95
354.50 2.214681e-95
354.60 2.214681e-95
354.70 2.214681e-95
354.80 2.214681e-95
354.90 2.214681e-95
355.00 2.214681e-95
355.10 2.214681e-95
355.20 2.214681e-95
355.30 2.214681e-95
355.40 2.214681e-95
355.50 2.214681e-95
355.60 2.214681e-95
355.70 2.214681e-95
355.80 2.214681e-95
355.90 2.214681e-95
356.00 2.214681e-95
356.10 2.214681e-95
356.20 2.214681e-95
356.30 2.214681e-95
356.40 2.214681e-95
356.50 2.214681e-95
356.60 2.214681e-95
356.70 2.214681e-95
356.80 2.214681e-95
356.90 2.214681e-95
357.00 2.214681e-95
357.10 2.214681e-95
357.20 2.214681e-95
357.30 2.214681e-95
357.40 2.214681e-95
357.50 2.214681e-95
357.60 2.214681e-95
357.70 2.214681e-95
357.80 2.214681e-95
357.90 2.214681e-95
358.00 2.214681e-95
358.10 2.214681e-95
358.20 2.214681e-95
358.30 2.214681e-95
358.40 2.214681e-95
358.50 2.214681e-95
358.60 2.214681e-95
358.70 2.214681e-95
358.80 2.214681e-95
358.90 2.214681e-95
359.00 2.214681e-95
359.10 2.214681e-95
359.20 2.214681e-95
359.30 2.214681e-95
359.40 2.214681e-95
359.50 2.214681e-95
359.60 2.214681e-95
359.70 2.214681e-95
359.80 2.214681e-95
359.90 2.214681e-95
360.00 2.214681e-95
360.10 2.214681e-95
360.20 2.214681e-95
360.30 2.214681e-95
360.40 2.214681e-95
360.50 2.214681e-95
360.60 2.214681e-95
360.70 2.214681e-95
360.80 2.214681e-95
360.90 2.214681e-95
361.00 2.214681e-95
361.10 2.214681e-95
361.20 2.214681e-95
361.30 2.214681e-95
361.40 2.214681e-95
361.50 2.214681e-95
361.60 2.214681e-95
361.70 2.214681e-95
361.80 2.214681e-95
361.90 2.214681e-95
362.00 2.214681e-95
362.10 2.214681e-95
362.20 2.214681e-95
362.30 2.214681e-95
362.40 2.214681e-95
362.50 2.214681e-95
362.60 2.214681e-95
362.70 2.214681e-95
362.80 2.214681e-95
362.90 2.214681e-95
363.00 2.214681e-95
363.10 2.214681e-95
363.20 2.214681e-95
363.30 2.214681e-95
363.40 2.214681e-95
363.50 2.214681e-95
363.60 2.214681e-95
363.70 2.214681e-95
363.80 2.214681e-95
363.90 2.214681e-95
364.00 2.214681e-95
364.10 2.214681e-95
364.20 2.214681e-95
364.30 2.214681e-95
364.40 2.214681e-95
364.50 2.214681e-95
364.60 2.214681e-95
364.70 2.214681e-95
364.80 2.214681e-95
364.90 2.214681e-95
365.00 2.214681e-95
365.10 2.214681e-95
365.20 2.214681e-95
365.30 2.214681e-95
365.40 2.214681e-95
365.50 2.214681e-95
365.60 2.214681e-95
365.70 2.214681e-95
365.80 2.214681e-95
365.90 2.214681e-95
366.00 2.214681e-95
366.10 2.214681e-95
366.20 2.214681e-95
366.30 2.214681e-95
366.40 2.214681e-95
366.50 2.214681e-95
366.60 2.214681e-95
366.70 2.214681e-95
366.80 2.214681e-95
366.90 2.214681e-95
367.00 2.214681e-95
367.10 2.214681e-95
367.20 2.214681e-95
367.30 2.214681e-95
367.40 2.214681e-95
367.50 2.214681e-95
367.60 2.214681e-95
367.70 2.214681e-95
367.80 2.214681e-95
367.90 2.214681e-95
368.00 2.214681e-95
368.10 2.214681e-95
368.20 2.214681e-95
368.30 2.214681e-95
368.40 2.214681e-95
368.50 2.214681e-95
368.60 2.214681e-95
368.70 2.214681e-95
368.80 2.214681e-95
368.90 2.214681e-95
369.00 2.214681e-95
369.10 2.214681e-95
369.20 2.214681e-95
369.30 2.214681e-95
369.40 2.214681e-95
369.50 2.214681e-95
369.60 2.214681e-95
369.70 2.214681e-95
369.80 2.214681e-95
369.90 2.214681e-95
370.00 2.214681e-95
370.10 2.214681e-95
370.20 2.214681e-95
370.30 2.214681e-95
370.40 2.214681e-95
370.50 2.214681e-95
370.60 2.214681e-95
370.70 2.214681e-95
370.80 2.214681e-95
370.90 2.214681e-95
371.00 2.214681e-95
371.10 2.214681e-95
371.20 2.214681e-95
371.30 2.214681e-95
371.40 2.214681e-95
371.50 2.214681e-95
371.60 2.214681e-95
371.70 2.214681e-95
371.80 2.214681e-95
371.90 2.214681e-95
372.00 2.214681e-95
372.10 2.214681e-95
372.20 2.214681e-95
372.30 2.214681e-95
372.40 2.214681e-95
372.50 2.214681e-95
372.60 2.214681e-95
372.70 2.214681e-95
372.80 2.214681e-95
372.90 2.214681e-95
373.00 2.214681e-95
373.10 2.214681e-95
373.20 2.214681e-95
373.30 2.214681e-95
373.40 2.214681e-95
373.50 2.214681e-95
373.60 2.214681e-95
373.70 2.214681e-95
373.80 2.214681e-95
373.90 2.214681e-95
374.00 2.214681e-95
374.10 2.214681e-95
374.20 2.214681e-95
374.30 2.214681e-95
374.40 2.214681e-95
374.50 2.214681e-95
374.60 2.214681e-95
374.70 2.214681e-95
374.80 2.214681e-95
374.90 2.214681e-95
375.00 2.214681e-95
375.10 2.214681e-95
375.20 2.214681e-95
375.30 2.214681e-95
375.40 2.214681e-95
375.50 2.214681e-95
375.60 2.214681e-95
375.70 2.214681e-95
375.80 2.214681e-95
375.90 2.214681e-95
376.00 2.214681e-95
376.10 2.214681e-95
376.20 2.214681e-95
376.30 2.214681e-95
376.40 2.214681e-95
376.50 2.214681e-95
376.60 2.214681e-95
376.70 2.214681e-95
376.80 2.214681e-95
376.90 2.214681e-95
377.00 2.214681e-95
377.10 2.214681e-95
377.20 2.214681e-95
377.30 2.214681e-95
377.40 2.214681e-95
377.50 2.214681e-95
377.60 2.214681e-95
377.70 2.214681e-95
377.80 2.214681e-95
377.90 2.214681e-95
378.00 2.214681e-95
378.10 2.214681e-95
378.20 2.214681e-95
378.30 2.214681e-95
378.40 2.214681e-95
378.50 2.214681e-95
378.60 2.214681e-95
378.70 2.214681e-95
378.80 2.214681e-95
378.90 2.214681e-95
379.00 2.214681e-95
379.10 2.214681e-95
379.20 2.214681e-95
379.30 2.214681e-95
379.40 2.214681e-95
379.50 2.214681e-95
379.60 2.214681e-95
379.70 2.214681e-95
379.80 2.214681e-95
379.90 2.214681e-95
380.00 2.214681e-95
380.10 2.214681e-95
380.20 2.214681e-95
380.30 2.214681e-95
380.40 2.214681e-95
380.50 2.214681e-95
380.60 2.214681e-95
380.70 2.214681e-95
380.80 2.214681e-95
380.90 2.214681e-95
381.00 2.214681e-95
381.10 2.214681e-95
381.20 2.214681e-95
381.30 2.214681e-95
381.40 2.214681e-95
381.50 2.214681e-95
381.60 2.214681e-95
381.70 2.214681e-95
381.80 2.214681e-95
381.90 2.214681e-95
382.00 2.214681e-95
382.10 2.214681e-95
382.20 2.214681e-95
382.30 2.214681e-95
382.40 2.214681e-95
382.50 2.214681e-95
382.60 2.214681e-95
382.70 2.214681e-95
382.80 2.214681e-95
382.90 2.214681e-95
383.00 2.214681e-95
383.10 2.214681e-95
383.20 2.214681e-95
383.30 2.214681e-95
383.40 2.214681e-95
383.50 2.214681e-95
383.60 2.214681e-95
383.70 2.214681e-95
383.80 2.214681e-95
383.90 2.214681e-95
384.00 2.214681e-95
384.10 2.214681e-95
384.20 2.214681e-95
384.30 2.214681e-95
384.40 2.214681e-95
384.50 2.214681e-95
384.60 2.214681e-95
384.70 2.214681e-95
384.80 2.214681e-95
384.90 2.214681e-95
385.00 2.214681e-95
385.10 2.214681e-95
385.20 2.214681e-95
385.30 2.214681e-95
385.40 2.214681e-95
385.50 2.214681e-95
385.60 2.214681e-95
385.70 2.214681e-95
385.80 2.214681e-95
385.90 2.214681e-95
386.00 2.214681e-95
386.10 2.214681e-95
386.20 2.214681e-95
386.30 2.214681e-95
386.40 2.214681e-95
386.50 2.214681e-95
386.60 2.214681e-95
386.70 2.214681e-95
386.80 2.214681e-95
386.90 2.214681e-95
387.00 2.214681e-95
387.10 2.214681e-95
387.20 2.214681e-95
387.30 2.214681e-95
387.40 2.214681e-95
387.50 2.214681e-95
387.60 2.214681e-95
387.70 2.214681e-95
387.80 2.214681e-95
387.90 2.214681e-95
388.00 2.214681e-95
388.10 2.214681e-95
388.20 2.214681e-95
388.30 2.214681e-95
388.40 2.214681e-95
388.50 2.214681e-95
388.60 2.214681e-95
388.70 2.214681e-95
388.80 2.214681e-95
388.90 2.214681e-95
389.00 2.214681e-95
389.10 2.214681e-95
389.20 2.214681e-95
389.30 2.214681e-95
389.40 2.214681e-95
389.50 2.214681e-95
389.60 2.214681e-95
389.70 2.214681e-95
389.80 2.214681e-95
389.90 2.214681e-95
390.00 2.214681e-95
390.10 2.214681e-95
390.20 2.214681e-95
390.30 2.214681e-95
390.40 2.214681e-95
390.50 2.214681e-95
390.60 2.214681e-95
390.70 2.214681e-95
390.80 2.214681e-95
390.90 2.214681e-95
391.00 2.214681e-95
391.10 2.214681e-95
391.20 2.214681e-95
391.30 2.214681e-95
391.40 2.214681e-95
391.50 2.214681e-95
391.60 2.214681e-95
391.70 2.214681e-95
391.80 2.214681e-95
391.90 2.214681e-95
392.00 2.214681e-95
392.10 2.214681e-95
392.20 2.214681e-95
392.30 2.214681e-95
392.40 2.214681e-95
392.50 2.214681e-95
392.60 2.214681e-95
392.70 2.214681e-95
392.80 2.214681e-95
392.90 2.214681e-95
393.00 2.214681e-95
393.10 2.214681e-95
393.20 2.214681e-95
393.30 2.214681e-95
393.40 2.214681e-95
393.50 2.214681e-95
393.60 2.214681e-95
393.70 2.214681e-95
393.80 2.214681e-95
393.90 2.214681e-95
394.00 2.214681e-95
394.10 2.214681e-95
394.20 2.214681e-95
394.30 2.214681e-95
394.40 2.214681e-95
394.50 2.214681e-95
394.60 2.214681e-95
394.70 2.214681e-95
394.80 2.214681e-95
394.90 2.214681e-95
395.00 0.1031185
395.10 0.1851999
395.20 0.2471362
395.30 0.2902063
395.40 0.317646
395.50 0.3356885
395.60 0.3518219
395.70 0.372828
395.80 0.4025258
395.90 0.4409729
396.00 0.486252
396.10 0.5360454
396.20 0.5870502
396.30 0.6342032
396.40 0.67298
396.50 0.6992226
396.60 0.7087807
396.70 0.7087807
396.80 0.7087807
396.90 0.7087807
397.00 0.7087807
397.10 0.7087807
397.20 0.7087807
397.30 0.722964
397.40 0.7538432
397.50 0.7995594
397.60 0.8573909
397.70 0.9279213
397.80 1.01227
397.90 1.108711
398.00 1.213701
398.10 1.321562
398.20 1.42464
398.30 1.515742
398.40 1.591126
398.50 1.651628
398.60 1.703051
398.70 1.75464
398.80 1.815321
398.90 1.891847
399.00 1.987084
399.10 2.098411
399.20 2.219147
399.30 2.340082
399.40 2.449737
399.50 2.537476
399.60 2.59624
399.70 2.622124
399.80 2.622124
399.90 2.622124
400.00 2.622124
400.10 2.622124
400.20 2.622124
400.30 2.622124
400.40 2.622124
400.50 2.622124
400.60 2.622124
400.70 2.622124
400.80 2.641427
400.90 2.677984
401.00 2.724596
401.10 2.776258
401.20 2.831314
401.30 2.889096
401.40 2.948293
401.50 3.007083
401.60 3.064109
401.70 3.119541
401.80 3.173967
401.90 3.227454
402.00 3.278933
402.10 3.325742
402.20 3.366533
402.30 3.402622
402.40 3.436397
402.50 3.469624
402.60 3.504156
402.70 3.5425
402.80 3.585814
402.90 3.633394
403.00 3.683513
403.10 3.733247
403.20 3.780215
403.30 3.823627
403.40 3.864021
403.50 3.903958
403.60 3.947791
403.70 3.998973
403.80 4.058511
403.90 4.124305
404.00 4.192143
404.10 4.25898
404.20 4.32275
404.30 4.380994
404.40 4.431102
404.50 4.472373
404.60 4.506598
404.70 4.535655
404.80 4.560938
404.90 4.583521
405.00 4.499194
405.10 4.430364
405.20 4.376863
405.30 4.340115
405.40 4.318286
405.50 4.303949
405.60 4.287815
405.70 4.266809
405.80 4.237111
405.90 4.198664
406.00 4.153385
406.10 4.103592
406.20 4.052587
406.30 4.005528
406.40 3.972191
406.50 3.955966
406.60 3.958083
406.70 3.967223
406.80 3.970288
406.90 3.970288
407.00 3.970288
407.10 3.970288
407.20 3.970288
407.30 3.956104
407.40 3.925225
407.50 3.879509
407.60 3.821677
407.70 3.751147
407.80 3.666798
407.90 3.570358
408.00 3.465367
408.10 3.357506
408.20 3.254429
408.30 3.163326
408.40 3.087942
408.50 3.027441
408.60 2.976018
408.70 2.924428
408.80 2.863747
408.90 2.789403
409.00 2.700477
409.10 2.599739
409.20 2.494092
409.30 2.392404
409.40 2.304991
409.50 2.241144
409.60 2.205995
409.70 2.202242
409.80 2.223005
409.90 2.241505
410.00 2.257036
410.10 2.270224
410.20 2.282203
410.30 2.295119
410.40 2.313205
410.50 2.341534
410.60 2.383257
410.70 2.438246
410.80 2.483626
410.90 2.515953
411.00 2.536776
411.10 2.546634
411.20 2.543851
411.30 2.526833
411.40 2.497078
411.50 2.460403
411.60 2.424515
411.70 2.395034
411.80 2.374293
411.90 2.361282
412.00 2.353105
412.10 2.3469
412.20 2.338596
412.30 2.322681
412.40 2.294952
412.50 2.261725
412.60 2.227193
412.70 2.188849
412.80 2.145535
412.90 2.097955
413.00 2.047836
413.10 1.998102
413.20 1.951134
413.30 1.907966
413.40 1.867571
413.50 1.827635
413.60 1.783801
413.70 1.73262
413.80 1.673082
413.90 1.607288
414.00 1.53945
414.10 1.472613
414.20 1.408842
414.30 1.350599
414.40 1.30049
414.50 1.25922
414.60 1.224995
414.70 1.195938
414.80 1.170655
414.90 1.148072
415.00 1.12928
415.10 1.116029
415.20 1.107593
415.30 1.101271
415.40 1.100707
415.50 1.105039
415.60 1.110814
415.70 1.110867
415.80 1.110867
415.90 1.110867
416.00 1.110867
416.10 1.110867
416.20 1.114571
416.30 1.12725
416.40 1.143606
416.50 1.163521
416.60 1.187127
416.70 1.214514
416.80 1.245091
416.90 1.273049
417.00 1.294485
417.10 1.309449
417.20 1.318142
417.30 1.321087
417.40 1.321087
417.50 1.321087
417.60 1.321087
417.70 1.321087
417.80 1.321087
417.90 1.321087
418.00 1.321087
418.10 1.321087
418.20 1.321087
418.30 1.321087
418.40 1.325101
418.50 1.338227
418.60 1.357415
418.70 1.379018
418.80 1.399612
418.90 1.414264
419.00 1.418585
419.10 1.411206
419.20 1.396117
419.30 1.37687
419.40 1.354627
419.50 1.333682
419.60 1.319767
419.70 1.309637
419.80 1.299015
419.90 1.286878
420.00 1.273295
420.10 1.260108
420.20 1.248128
420.30 1.235213
420.40 1.221316
420.50 1.203544
420.60 1.178599
420.70 1.145754
420.80 1.106925
420.90 1.064244
421.00 1.020453
421.10 0.9775674
421.20 0.9365608
421.30 0.8985827
421.40 0.8691407
421.50 0.8470252
421.60 0.8258883
421.70 0.7999371
421.80 0.7662519
421.90 0.7326404
422.00 0.7082209
422.10 0.6968633
422.20 0.699775
422.30 0.7161029
422.40 0.7414147
422.50 0.7617524
422.60 0.7678303
422.70 0.7678303
422.80 0.7678303
422.90 0.7678303
423.00 0.7678303
423.10 0.7678303
423.20 0.7678303
423.30 0.7675866
423.40 0.7675866
423.50 0.7675866
423.60 0.7675866
423.70 0.7684638
423.80 0.7765582
423.90 0.7920243
424.00 0.8131728
424.10 0.8368779
424.20 0.8603116
424.30 0.8829046
424.40 0.9061979
424.50 0.9312522
424.60 0.9584654
424.70 0.9882639
424.80 1.020779
424.90 1.056249
425.00 1.095263
425.10 1.138101
425.20 1.183616
425.30 1.229914
425.40 1.270591
425.50 1.30617
425.60 1.340242
425.70 1.374796
425.80 1.403412
425.90 1.427127
426.00 1.447781
426.10 1.467477
426.20 1.485638
426.30 1.500091
426.40 1.51247
426.50 1.523248
426.60 1.533614
426.70 1.545474
426.80 1.56056
426.90 1.579573
427.00 1.60085
427.10 1.621206
427.20 1.638106
427.30 1.651244
427.40 1.660331
427.50 1.665822
427.60 1.670726
427.70 1.676303
427.80 1.682738
427.90 1.689692
428.00 1.695973
428.10 1.699723
428.20 1.699723
428.30 1.699723
428.40 1.69571
428.50 1.682583
428.60 1.663396
428.70 1.645126
428.80 1.632886
428.90 1.627351
429.00 1.629743
429.10 1.64126
429.20 1.657624
429.30 1.675178
429.40 1.693663
429.50 1.710646
429.60 1.723885
429.70 1.739552
429.80 1.761669
429.90 1.791161
430.00 1.828729
430.10 1.871674
430.20 1.915804
430.30 1.95736
430.40 1.985754
430.50 1.99069
430.60 1.973912
430.70 1.951768
430.80 1.925915
430.90 1.899711
431.00 1.876067
431.10 1.857432
431.20 1.846166
431.30 1.843381
431.40 1.844264
431.50 1.844264
431.60 1.844264
431.70 1.844264
431.80 1.844264
431.90 1.837399
432.00 1.818517
432.10 1.789269
432.20 1.75387
432.30 1.719806
432.40 1.688448
432.50 1.66811
432.60 1.662032
432.70 1.662032
432.80 1.662032
432.90 1.662032
433.00 1.662032
433.10 1.662032
433.20 1.662032
433.30 1.662032
433.40 1.662032
433.50 1.669093
433.60 1.683352
433.70 1.699743
433.80 1.707775
433.90 1.703902
434.00 1.68752
434.10 1.663815
434.20 1.640382
434.30 1.617789
434.40 1.594495
434.50 1.569441
434.60 1.542228
434.70 1.512429
434.80 1.484639
434.90 1.467351
435.00 1.45734
435.10 1.450047
435.20 1.441592
435.30 1.428924
435.40 1.409585
435.50 1.382394
435.60 1.347767
435.70 1.313159
435.80 1.284544
435.90 1.260829
436.00 1.240175
436.10 1.220478
436.20 1.198614
436.30 1.171388
436.40 1.137213
436.50 1.096502
436.60 1.050855
436.70 1.002468
436.80 0.9537401
436.90 0.9067698
437.00 0.8640564
437.10 0.8287852
437.20 0.8031908
437.30 0.7871076
437.40 0.7780212
437.50 0.7725297
437.60 0.7723369
437.70 0.7777183
437.80 0.7892489
437.90 0.8072348
438.00 0.8310469
438.10 0.8585021
438.20 0.8864474
438.30 0.9073754
438.40 0.9179202
438.50 0.9179202
438.60 0.9179202
438.70 0.9145865
438.80 0.906233
438.90 0.8949334
439.00 0.8819102
439.10 0.8671839
439.20 0.8508196
439.30 0.8332656
439.40 0.8147812
439.50 0.7948519
439.60 0.7719131
439.70 0.7442436
439.80 0.7119852
439.90 0.6784462
440.00 0.655802
440.10 0.6441139
440.20 0.6422186
440.30 0.6470339
440.40 0.6567504
440.50 0.6724555
440.60 0.6881979
440.70 0.6881979
440.80 0.6881979
440.90 0.6881979
441.00 0.6881979
441.10 0.6881979
441.20 0.6881979
441.30 0.6881979
441.40 0.6873149
441.50 0.6873149
441.60 0.6873149
441.70 0.6873149
441.80 0.6873149
441.90 0.6873149
442.00 0.6874173
442.10 0.6874173
442.20 0.6874173
442.30 0.6849808
442.40 0.6849808
442.50 0.6849808
442.60 0.6849808
442.70 0.6849808
442.80 0.6925999
442.90 0.7089324
443.00 0.7317885
443.10 0.7576866
443.20 0.7819733
443.30 0.7995849
443.40 0.8067967
443.50 0.7997363
443.60 0.7854766
443.70 0.7682091
443.80 0.7520824
443.90 0.7404895
444.00 0.7357223
444.10 0.7357223
444.20 0.7439606
444.30 0.7673317
444.40 0.8030677
444.50 0.845744
444.60 0.8897507
444.70 0.9302812
444.80 0.9579528
444.90 0.9605482
445.00 0.9398924
445.10 0.9043486
445.20 0.8672883
445.30 0.8336579
445.40 0.8072744
445.50 0.7908471
445.60 0.7856288
445.70 0.7856288
445.80 0.7856288
445.90 0.7856288
446.00 0.7856288
446.10 0.7856288
446.20 0.7856288
446.30 0.7856288
446.40 0.7856288
446.50 0.7856288
446.60 0.7856288
446.70 0.7856288
446.80 0.7856288
446.90 0.7856288
447.00 0.7856288
447.10 0.7855808
447.20 0.7855808
447.30 0.7911429
447.40 0.8088143
447.50 0.8361712
447.60 0.8652926
447.70 0.8917007
447.80 0.9125808
447.90 0.9265831
448.00 0.9339958
448.10 0.9371941
448.20 0.9394852
448.30 0.9441282
448.40 0.9542294
448.50 0.9701537
448.60 0.9819261
448.70 0.9907393
448.80 0.999572
448.90 1.011956
449.00 1.030179
449.10 1.055333
449.20 1.086886
449.30 1.122143
449.40 1.157602
449.50 1.189383
449.60 1.213288
449.70 1.226836
449.80 1.230324
449.90 1.228007
450.00 1.211136
450.10 1.179879
450.20 1.137644
450.30 1.091273
450.40 1.053839
450.50 1.034037
450.60 1.035018
450.70 1.054701
450.80 1.073251
450.90 1.085365
451.00 1.086115
451.10 1.086115
451.20 1.086115
451.30 1.086115
451.40 1.086115
451.50 1.086115
451.60 1.086115
451.70 1.086115
451.80 1.086115
451.90 1.086115
452.00 1.086013
452.10 1.086013
452.20 1.086013
452.30 1.08867
452.40 1.096867
452.50 1.110275
452.60 1.127049
452.70 1.144829
452.80 1.153858
452.90 1.151815
453.00 1.140895
453.10 1.126101
453.20 1.114259
453.30 1.111968
453.40 1.123004
453.50 1.142676
453.60 1.161508
453.70 1.177446
453.80 1.19118
453.90 1.205422
454.00 1.222036
454.10 1.241606
454.20 1.255492
454.30 1.255494
454.40 1.242502
454.50 1.219858
454.60 1.19161
454.70 1.161057
454.80 1.131965
454.90 1.111188
455.00 1.10284
455.10 1.10284
455.20 1.10284
455.30 1.10284
455.40 1.103325
455.50 1.113722
455.60 1.135479
455.70 1.166798
455.80 1.202605
455.90 1.236095
456.00 1.260638
456.10 1.271847
456.20 1.271847
456.30 1.271847
456.40 1.271847
456.50 1.271847
456.60 1.271847
456.70 1.271847
456.80 1.271847
456.90 1.271847
457.00 1.271847
457.10 1.271847
457.20 1.277938
457.30 1.287121
457.40 1.290113
457.50 1.285917
457.60 1.274988
457.70 1.258455
457.80 1.23744
457.90 1.212514
458.00 1.183883
458.10 1.151705
458.20 1.121469
458.30 1.095898
458.40 1.075252
458.50 1.059327
458.60 1.047555
458.70 1.038742
458.80 1.035197
458.90 1.036657
459.00 1.038559
459.10 1.03619
459.20 1.026628
459.30 1.008937
459.40 0.9835425
459.50 0.9533554
459.60 0.9294505
459.70 0.9159033
459.80 0.9124152
459.90 0.9124152
460.00 0.9124152
460.10 0.9124152
460.20 0.9124152
460.30 0.9124152
460.40 0.9075488
460.50 0.8961538
460.60 0.8794304
460.70 0.859747
460.80 0.8411966
460.90 0.829083
461.00 0.8283329
461.10 0.8283329
461.20 0.8283329
461.30 0.8283329
461.40 0.8283329
461.50 0.8283329
461.60 0.8283329
461.70 0.8283329
461.80 0.8283329
461.90 0.8283329
462.00 0.8283329
462.10 0.8283329
462.20 0.8283329
462.30 0.8256759
462.40 0.8174783
462.50 0.8040704
462.60 0.7872961
462.70 0.7695168
462.80 0.7535051
462.90 0.741732
463.00 0.7313976
463.10 0.7202932
463.20 0.7078483
463.30 0.692528
463.40 0.6742808
463.50 0.6546086
463.60 0.6357763
463.70 0.6222435
463.80 0.6137298
463.90 0.6067793
464.00 0.5980245
464.10 0.5841867
464.20 0.5625655
464.30 0.539192
464.40 0.5164488
464.50 0.4964164
464.60 0.4806576
464.70 0.4706802
464.80 0.4720747
464.90 0.4826559
465.00 0.4991948
465.10 0.5209516
465.20 0.5464488
465.30 0.5738604
465.40 0.6007046
465.50 0.6157604
465.60 0.6166852
465.70 0.6040416
465.80 0.5812533
465.90 0.5548208
466.00 0.5326763
466.10 0.521716
466.20 0.5230277
466.30 0.5283409
466.40 0.5389151
466.50 0.5537524
466.60 0.5699225
466.70 0.5825106
466.80 0.5861241
466.90 0.5861241
467.00 0.5861241
467.10 0.5861241
467.20 0.5800333
467.30 0.5652887
467.40 0.5446249
467.50 0.521464
467.60 0.4985611
467.70 0.4777267
467.80 0.4683842
467.90 0.4696035
468.00 0.4798393
468.10 0.4979263
468.20 0.5172407
468.30 0.5331487
468.40 0.5437017
468.50 0.5482767
468.60 0.5482767
468.70 0.5482767
468.80 0.5429883
468.90 0.5291447
469.00 0.5090192
469.10 0.4862347
469.20 0.4642436
469.30 0.4466773
469.40 0.4366128
469.50 0.435019
469.60 0.435019
469.70 0.4405203
469.80 0.4585392
469.90 0.4847824
470.00 0.5132501
470.10 0.5382512
470.20 0.5560469
470.30 0.5657955
470.40 0.5692964
470.50 0.5692964
470.60 0.5692964
470.70 0.5696041
470.80 0.5757726
470.90 0.5911758
471.00 0.616362
471.10 0.6488041
471.20 0.6846277
471.30 0.7197656
471.40 0.7507345
471.50 0.7752304
471.60 0.7917627
471.70 0.7989357
471.80 0.7989357
471.90 0.7989357
472.00 0.7989357
472.10 0.7989357
472.20 0.7989357
472.30 0.7989357
472.40 0.7989357
472.50 0.7989357
472.60 0.7989357
472.70 0.7989357
472.80 0.7982988
472.90 0.7995902
473.00 0.8051467
473.10 0.8124832
473.20 0.8180061
473.30 0.8212399
473.40 0.8231927
473.50 0.8254078
473.60 0.8286592
473.70 0.8298213
473.80 0.826309
473.90 0.8190176
474.00 0.8111584
474.10 0.8054264
474.20 0.8049235
474.30 0.8049235
474.40 0.8049235
474.50 0.8049235
474.60 0.8049235
474.70 0.8049235
474.80 0.8002242
474.90 0.7896431
475.00 0.7731041
475.10 0.7513474
475.20 0.729393
475.30 0.7126844
475.40 0.6978796
475.50 0.681723
475.60 0.6623122
475.70 0.6436372
475.80 0.6306186
475.90 0.6235607
476.00 0.6211627
476.10 0.6209135
476.20 0.6196017
476.30 0.6142886
476.40 0.6037144
476.50 0.5946067
476.60 0.596225
476.70 0.6127166
476.80 0.6459891
476.90 0.6842686
477.00 0.7164273
477.10 0.7367742
477.20 0.7424696
477.30 0.7424696
477.40 0.7424696
477.50 0.7424696
477.60 0.7424696
477.70 0.7424696
477.80 0.7339819
477.90 0.7187459
478.00 0.7028994
478.10 0.6940511
478.20 0.6945848
478.30 0.7074318
478.40 0.7345325
478.50 0.7745317
478.60 0.8224732
478.70 0.868868
478.80 0.9088986
478.90 0.9394723
479.00 0.9592457
479.10 0.9683826
479.20 0.9688612
479.30 0.9688612
479.40 0.9688612
479.50 0.9688612
479.60 0.9688612
479.70 0.9633599
479.80 0.945341
479.90 0.9206928
480.00 0.8994789
480.10 0.8874317
480.20 0.8867083
480.30 0.8946659
480.40 0.906389
480.50 0.9181582
480.60 0.9269553
480.70 0.9336861
480.80 0.9352256
480.90 0.9318525
481.00 0.926593
481.10 0.9244703
481.20 0.9309695
481.30 0.9511458
481.40 0.9885598
481.50 1.044008
481.60 1.115361
481.70 1.198635
481.80 1.28489
481.90 1.359649
482.00 1.417166
482.10 1.454646
482.20 1.472176
482.30 1.47249
482.40 1.47249
482.50 1.47249
482.60 1.47249
482.70 1.47249
482.80 1.47249
482.90 1.468683
483.00 1.461525
483.10 1.454188
483.20 1.448665
483.30 1.445432
483.40 1.443479
483.50 1.441264
483.60 1.438012
483.70 1.43773
483.80 1.443132
483.90 1.454343
484.00 1.470022
484.10 1.489293
484.20 1.509788
484.30 1.528896
484.40 1.54419
484.50 1.553057
484.60 1.553057
484.70 1.553057
484.80 1.553057
484.90 1.553057
485.00 1.553057
485.10 1.553057
485.20 1.549514
485.30 1.538811
485.40 1.526287
485.50 1.516991
485.60 1.51372
485.70 1.51372
485.80 1.51372
485.90 1.51372
486.00 1.51372
486.10 1.51372
486.20 1.51372
486.30 1.51372
486.40 1.51372
486.50 1.50799
486.60 1.490201
486.70 1.461122
486.80 1.424236
486.90 1.385956
487.00 1.353798
487.10 1.333451
487.20 1.327755
487.30 1.327755
487.40 1.327755
487.50 1.327755
487.60 1.327755
487.70 1.327755
487.80 1.327755
487.90 1.327755
488.00 1.324492
488.10 1.313027
488.20 1.293179
488.30 1.264424
488.40 1.22677
488.50 1.182196
488.60 1.134255
488.70 1.08786
488.80 1.047829
488.90 1.01951
489.00 1.00343
489.10 0.9986178
489.20 1.002543
489.30 1.006515
489.40 1.010753
489.50 1.016681
489.60 1.025626
489.70 1.039604
489.80 1.060835
489.90 1.087765
490.00 1.114103
490.10 1.137481
490.20 1.15729
490.30 1.174016
490.40 1.187635
490.50 1.196891
490.60 1.199629
490.70 1.193001
490.80 1.185293
490.90 1.173263
491.00 1.153336
491.10 1.123017
491.20 1.080694
491.30 1.02538
491.40 0.9569967
491.50 0.877052
491.60 0.7891673
491.70 0.6987198
491.80 0.6124653
491.90 0.5377065
492.00 0.4814889
492.10 0.446348
492.20 0.4321783
492.30 0.4368811
492.40 0.4444266
492.50 0.4551478
492.60 0.4695377
492.70 0.487715
492.80 0.5096111
492.90 0.5356077
493.00 0.5652135
493.10 0.595814
493.20 0.6252296
493.30 0.6525466
493.40 0.6774729
493.50 0.7015825
493.60 0.7277909
493.70 0.7545391
493.80 0.7807337
493.90 0.8049231
494.00 0.8249571
494.10 0.8383231
494.20 0.8436077
494.30 0.8405495
494.40 0.8300369
494.50 0.8211698
494.60 0.8211698
494.70 0.8211698
494.80 0.8211698
494.90 0.8211698
495.00 0.8211698
495.10 0.8211698
495.20 0.8211698
495.30 0.8211698
495.40 0.8211698
495.50 0.8211698
495.60 0.8211698
495.70 0.8211698
495.80 0.8211698
495.90 0.8211698
496.00 0.8211698
496.10 0.8211698
496.20 0.8211698
496.30 0.8211698
496.40 0.8211698
496.50 0.8211698
496.60 0.8211698
496.70 0.8211698
496.80 0.8211698
496.90 0.8211698
497.00 0.8211698
497.10 0.8211698
497.20 0.8211698
497.30 0.8211698
497.40 0.8211698
497.50 0.8211698
497.60 0.8211698
497.70 0.8237007
497.80 0.829854
497.90 0.8387653
498.00 0.8497907
498.10 0.8624247
498.20 0.8767086
498.30 0.8926992
498.40 0.9104678
498.50 0.9298961
498.60 0.949868
498.70 0.9684551
498.80 0.9833781
498.90 0.9904792
499.00 0.9901566
499.10 0.9858324
499.20 0.9814288
499.30 0.9782933
499.40 0.981274
499.50 0.9909238
499.60 1.005227
499.70 1.019015
499.80 1.02531
499.90 1.019381
500.00 1
500.10 0.9675985
500.20 0.9307171
500.30 0.8962845
500.40 0.8674418
500.50 0.8464165
500.60 0.8348811
500.70 0.834471
500.80 0.834471
500.90 0.834471
501.00 0.834471
501.10 0.834471
501.20 0.834471
501.30 0.834471
501.40 0.834471
501.50 0.8370076
501.60 0.8415628
501.70 0.8454937
501.80 0.8463701
501.90 0.8463701
502.00 0.8450704
502.10 0.8427318
502.20 0.8393713
502.30 0.8343541
502.40 0.8268085
502.50 0.8160873
502.60 0.8016975
502.70 0.7835201
502.80 0.761624
502.90 0.7356275
503.00 0.7060216
503.10 0.6754211
503.20 0.6460055
503.30 0.6186886
503.40 0.5937622
503.50 0.5696527
503.60 0.5434442
503.70 0.5134112
503.80 0.4801059
503.90 0.4447059
504.00 0.4089924
504.10 0.3763552
504.20 0.3505754
504.30 0.3345259
504.40 0.3297444
504.50 0.3297444
504.60 0.3297444
504.70 0.3297444
504.80 0.3297444
504.90 0.3297444
505.00 0.3297444
505.10 0.3297444
505.20 0.3351189
505.30 0.3438928
505.40 0.352816
505.50 0.3604355
505.60 0.3667613
505.70 0.3722313
505.80 0.3777654
505.90 0.3856143
506.00 0.3988557
506.10 0.4193145
506.20 0.4470367
506.30 0.4798525
506.40 0.5134676
506.50 0.5440559
506.60 0.5694274
506.70 0.588978
506.80 0.6031113
506.90 0.6119485
507.00 0.6155993
507.10 0.6155993
507.20 0.6155993
507.30 0.6155993
507.40 0.6155993
507.50 0.6155993
507.60 0.6155993
507.70 0.6130684
507.80 0.606915
507.90 0.5980038
508.00 0.5869783
508.10 0.5743444
508.20 0.5600605
508.30 0.5440698
508.40 0.5263013
508.50 0.506873
508.60 0.4869011
508.70 0.468314
508.80 0.4544848
508.90 0.4506052
509.00 0.4593341
509.10 0.4791259
509.20 0.5060255
509.30 0.5378356
509.40 0.5669849
509.50 0.5885577
509.60 0.5998434
509.70 0.6005663
509.80 0.5924976
509.90 0.5785283
510.00 0.5643173
510.10 0.5603877
510.20 0.5603877
510.30 0.5603877
510.40 0.5603877
510.50 0.5603877
510.60 0.5603877
510.70 0.5603877
510.80 0.5603877
510.90 0.5603877
511.00 0.5603877
511.10 0.5603877
511.20 0.5658795
511.30 0.5752629
511.40 0.5837115
511.50 0.5836702
511.60 0.579115
511.70 0.5751841
511.80 0.5743077
511.90 0.5743077
512.00 0.5743077
512.10 0.5743077
512.20 0.5743077
512.30 0.5743077
512.40 0.5849352
512.50 0.6068807
512.60 0.6379631
512.70 0.6748001
512.80 0.7140445
512.90 0.752461
513.00 0.7866854
513.10 0.8140659
513.20 0.8324546
513.30 0.8400258
513.40 0.8400258
513.50 0.8400258
513.60 0.8400258
513.70 0.8400258
513.80 0.8400258
513.90 0.8400258
514.00 0.8400258
514.10 0.8400258
514.20 0.8400258
514.30 0.8488663
514.40 0.866218
514.50 0.8878007
514.60 0.9090062
514.70 0.9255467
514.80 0.9341929
514.90 0.9341929
515.00 0.9341929
515.10 0.9341929
515.20 0.9288184
515.30 0.9200445
515.40 0.9111213
515.50 0.9035018
515.60 0.897176
515.70 0.891706
515.80 0.8861719
515.90 0.878323
516.00 0.8650816
516.10 0.8453277
516.20 0.8217156
516.30 0.796384
516.40 0.7735613
516.50 0.7566172
516.60 0.7460405
516.70 0.739673
516.80 0.735063
516.90 0.7308752
517.00 0.7272244
517.10 0.7272244
517.20 0.7272244
517.30 0.7272244
517.40 0.7272244
517.50 0.7272244
517.60 0.7272244
517.70 0.7272244
517.80 0.7272244
517.90 0.7272244
518.00 0.7272244
518.10 0.7272244
518.20 0.7272244
518.30 0.7272244
518.40 0.7272244
518.50 0.7272244
518.60 0.7272244
518.70 0.7272244
518.80 0.7261306
518.90 0.7206542
519.00 0.7085544
519.10 0.6927416
519.20 0.671095
519.30 0.6419499
519.40 0.6055846
519.50 0.5684338
519.60 0.5339
519.70 0.5054109
519.80 0.4863705
519.90 0.4866464
520.00 0.5050582
520.10 0.5324946
520.20 0.5672301
520.30 0.6056364
520.40 0.6423727
520.50 0.6723452
520.60 0.6926787
520.70 0.7033646
520.80 0.7067338
520.90 0.7069571
521.00 0.7087586
521.10 0.7156973
521.20 0.7235196
521.30 0.7330433
521.40 0.7463057
521.50 0.7637043
521.60 0.7772581
521.70 0.7823306
521.80 0.7823306
521.90 0.7823306
522.00 0.7823306
522.10 0.7830177
522.20 0.7896828
522.30 0.8024411
522.40 0.809399
522.50 0.8077324
522.60 0.7977966
522.70 0.7813146
522.80 0.7601006
522.90 0.7368229
523.00 0.7154348
523.10 0.6995118
523.20 0.6916639
523.30 0.6944985
523.40 0.7057117
523.50 0.7185015
523.60 0.7342176
523.70 0.7537528
523.80 0.7761101
523.90 0.7987391
524.00 0.8184355
524.10 0.8326031
524.20 0.8399184
524.30 0.8310779
524.40 0.8137263
524.50 0.7921435
524.60 0.7709381
524.70 0.7543975
524.80 0.7457513
524.90 0.7457513
525.00 0.7457513
525.10 0.7457513
525.20 0.7457513
525.30 0.7457513
525.40 0.7495598
525.50 0.756931
525.60 0.76698
525.70 0.7795307
525.80 0.7949398
525.90 0.8134346
526.00 0.8340667
526.10 0.8538409
526.20 0.8672809
526.30 0.8716196
526.40 0.8652009
526.50 0.8515566
526.60 0.8367618
526.70 0.8235787
526.80 0.8140554
526.90 0.809406
527.00 0.809406
527.10 0.8162554
527.20 0.8304313
527.30 0.8487214
527.40 0.866698
527.50 0.8800972
527.60 0.8849955
527.70 0.8849955
527.80 0.8849955
527.90 0.8849955
528.00 0.8849955
528.10 0.8849955
528.20 0.8849955
528.30 0.8849955
528.40 0.8849955
528.50 0.8849955
528.60 0.8849955
528.70 0.8849955
528.80 0.8849955
528.90 0.8901631
529.00 0.8993558
529.10 0.9032256
529.20 0.9000983
529.30 0.8965971
529.40 0.8965944
529.50 0.8965944
529.60 0.8965944
529.70 0.8965944
529.80 0.8961782
529.90 0.8872745
530.00 0.8688627
530.10 0.8414264
530.20 0.8066909
530.30 0.7682846
530.40 0.7315483
530.50 0.7015758
530.60 0.6829872
530.70 0.678086
530.80 0.6832773
530.90 0.6933913
531.00 0.7023336
531.10 0.7042339
531.20 0.695424
531.30 0.6765168
531.40 0.6548059
531.50 0.6349119
531.60 0.6213581
531.70 0.6162856
531.80 0.6162856
531.90 0.6162856
532.00 0.6162856
532.10 0.6233179
532.20 0.6330981
532.30 0.640687
532.40 0.6417334
532.50 0.6346516
532.60 0.6192976
532.70 0.5989426
532.80 0.5809123
532.90 0.5657735
533.00 0.5539775
533.10 0.5513187
533.20 0.5560947
533.30 0.5640274
533.40 0.5704205
533.50 0.5715103
533.60 0.5636453
533.70 0.5457832
533.80 0.5234259
533.90 0.5007969
534.00 0.4811005
534.10 0.4669329
534.20 0.4596176
534.30 0.4596176
534.40 0.4596176
534.50 0.4596176
534.60 0.4596176
534.70 0.4596176
534.80 0.4596176
534.90 0.4596176
535.00 0.4596176
535.10 0.4596176
535.20 0.4596176
535.30 0.4596176
535.40 0.455809
535.50 0.4484379
535.60 0.4383889
535.70 0.4258382
535.80 0.4104291
535.90 0.3919343
536.00 0.3713022
536.10 0.3508231
536.20 0.333273
536.30 0.3214501
536.40 0.3170765
536.50 0.3170765
536.60 0.3170765
536.70 0.3170765
536.80 0.3170765
536.90 0.3170765
537.00 0.3170765
537.10 0.3102271
537.20 0.2960512
537.30 0.2777611
537.40 0.2597845
537.50 0.2463853
537.60 0.241487
537.70 0.2449732
537.80 0.2577992
537.90 0.2771207
538.00 0.3013548
538.10 0.3294585
538.20 0.3599263
538.30 0.3909545
538.40 0.4209422
538.50 0.4485509
538.60 0.4726748
538.70 0.4920392
538.80 0.5056942
538.90 0.5093613
539.00 0.5072452
539.10 0.5085134
539.20 0.5206775
539.30 0.5409754
539.40 0.5658522
539.50 0.5926947
539.60 0.6182129
539.70 0.639026
539.80 0.6518731
539.90 0.6549399
540.00 0.6549399
540.10 0.6549399
540.20 0.6549399
540.30 0.6549399
540.40 0.6557831
540.50 0.666352
540.60 0.6833082
540.70 0.7001008
540.80 0.7122667
540.90 0.716024
541.00 0.7103541
541.10 0.7015151
541.20 0.6970109
541.30 0.6970109
541.40 0.6970109
541.50 0.6970109
541.60 0.7031249
541.70 0.7185583
541.80 0.7406671
541.90 0.7647327
542.00 0.7855362
542.10 0.7916415
542.20 0.7798055
542.30 0.7594583
542.40 0.7408264
542.50 0.7276294
542.60 0.7218367
542.70 0.7218367
542.80 0.7218367
542.90 0.7218367
543.00 0.7213049
543.10 0.720998
543.20 0.719241
543.30 0.7165136
543.40 0.7143348
543.50 0.7139164
543.60 0.7156885
543.70 0.7181514
543.80 0.7181514
543.90 0.7181514
544.00 0.7181514
544.10 0.7181514
544.20 0.7181514
544.30 0.7181514
544.40 0.7181514
544.50 0.7181514
544.60 0.7181514
544.70 0.7181514
544.80 0.7181514
544.90 0.7181514
545.00 0.7181514
545.10 0.7181514
545.20 0.7181514
545.30 0.7181514
545.40 0.7181514
545.50 0.7181514
545.60 0.7181514
545.70 0.7181514
545.80 0.7181514
545.90 0.7181514
546.00 0.7181514
546.10 0.7181514
546.20 0.7181514
546.30 0.7181514
546.40 0.7181514
546.50 0.7181514
546.60 0.7181514
546.70 0.7190567
546.80 0.7264106
546.90 0.7401538
547.00 0.759785
547.10 0.7850803
547.20 0.8151497
547.30 0.8487469
547.40 0.8847578
547.50 0.9221508
547.60 0.9597605
547.70 0.9931728
547.80 1.016362
547.90 1.032515
548.00 1.043386
548.10 1.049806
548.20 1.053085
548.30 1.054804
548.40 1.05606
548.50 1.057208
548.60 1.058968
548.70 1.063576
548.80 1.073246
548.90 1.087632
549.00 1.103373
549.10 1.115628
549.20 1.120355
549.30 1.117032
549.40 1.107839
549.50 1.095362
549.60 1.082434
549.70 1.072791
549.80 1.070409
549.90 1.077893
550.00 0.3048605
550.10 0.3468694
550.20 0.3881432
550.30 0.4331084
550.40 0.4845669
550.50 0.5443968
550.60 0.6143629
550.70 0.6962689
550.80 0.7863073
550.90 0.8749936
551.00 0.962757
551.10 1.049065
551.20 1.133433
551.30 1.2153
551.40 1.293408
551.50 1.365301
551.60 1.430012
551.70 1.489941
551.80 1.548255
551.90 1.606305
552.00 1.66335
552.10 1.716779
552.20 1.764322
552.30 1.806759
552.40 1.84597
552.50 1.881882
552.60 1.913357
552.70 1.941283
552.80 1.967446
552.90 1.993824
553.00 2.0227
553.10 2.054176
553.20 2.087323
553.30 2.120113
553.40 2.148836
553.50 2.169539
553.60 2.178186
553.70 2.175923
553.80 2.157538
553.90 2.12318
554.00 2.074102
554.10 2.010864
554.20 1.93569
554.30 1.878423
554.40 1.849873
554.50 1.846828
554.60 1.859481
554.70 1.875207
554.80 1.882335
554.90 1.872632
555.00 1.845743
555.10 1.808363
555.20 1.779919
555.30 1.78234
555.40 1.810814
555.50 1.865308
555.60 1.963094
555.70 2.110544
555.80 2.305678
555.90 2.542124
556.00 2.810424
556.10 3.09743
556.20 3.385502
556.30 3.654938
556.40 3.886248
556.50 4.068026
556.60 4.191751
556.70 4.253609
556.80 4.279465
556.90 4.291421
557.00 4.289112
557.10 4.274934
557.20 4.253158
557.30 4.229568
557.40 4.210326
557.50 4.20209
557.60 4.213719
557.70 4.247244
557.80 4.302089
557.90 4.387016
558.00 4.505554
558.10 4.657041
558.20 4.839214
558.30 5.020563
558.40 5.184725
558.50 5.327223
558.60 5.448351
558.70 5.54911
558.80 5.63116
558.90 5.69763
559.00 5.74932
559.10 5.784878
559.20 5.790851
559.30 5.752273
559.40 5.684901
559.50 5.600223
559.60 5.4857
559.70 5.331867
559.80 5.134411
559.90 4.89424
560.00 4.619559
560.10 4.327352
560.20 4.039901
560.30 3.778934
560.40 3.564541
560.50 3.408794
560.60 3.3195
560.70 3.294611
560.80 3.298849
560.90 3.299818
561.00 3.29114
561.10 3.273842
561.20 3.262471
561.30 3.253271
561.40 3.24379
561.50 3.231323
561.60 3.211047
561.70 3.177521
561.80 3.122677
561.90 3.037749
562.00 2.919211
562.10 2.77047
562.20 2.604507
562.30 2.429751
562.40 2.252106
562.50 2.073185
562.60 1.894259
562.70 1.719268
562.80 1.552707
562.90 1.407255
563.00 1.29469
563.10 1.210205
563.20 1.148308
563.30 1.102597
563.40 1.08048
563.50 1.070247
563.60 1.062061
563.70 1.048605
563.80 1.026746
563.90 0.9969238
564.00 0.9601189
564.10 0.9169753
564.20 0.8688118
564.30 0.8179066
564.40 0.7617776
564.50 0.699835
564.60 0.6339287
564.70 0.5690346
564.80 0.512777
564.90 0.4734735
565.00 0.455585
565.10 0.4645545
565.20 0.488764
565.30 0.5207134
565.40 0.5495903
565.50 0.5658347
565.60 0.5674823
565.70 0.5674823
565.80 0.5674823
565.90 0.5674823
566.00 0.5806736
566.10 0.6183969
566.20 0.6741225
566.30 0.7407558
566.40 0.8137616
566.50 0.8943878
566.60 0.9877208
566.70 1.100807
566.80 1.2397
566.90 1.398512
567.00 1.565023
567.10 1.73643
567.20 1.909894
567.30 2.081584
567.40 2.228312
567.50 2.34835
567.60 2.449343
567.70 2.544896
567.80 2.645342
567.90 2.753895
568.00 2.866432
568.10 2.973053
568.20 3.063269
568.30 3.1271
568.40 3.160281
568.50 3.160939
568.60 3.160939
568.70 3.160939
568.80 3.160939
568.90 3.160939
569.00 3.160939
569.10 3.15197
569.20 3.141939
569.30 3.135999
569.40 3.13977
569.50 3.1567
569.60 3.181902
569.70 3.195664
569.80 3.195664
569.90 3.195664
570.00 3.182473
570.10 3.142004
570.20 3.070068
570.30 2.970116
570.40 2.849116
570.50 2.714476
570.60 2.572263
570.70 2.425437
570.80 2.283118
570.90 2.151818
571.00 2.029487
571.10 1.914803
571.20 1.807967
571.30 1.711893
571.40 1.629694
571.50 1.560541
571.60 1.496702
571.70 1.42566
571.80 1.338205
571.90 1.234444
572.00 1.12291
572.10 1.015257
572.20 0.9250397
572.30 0.8612095
572.40 0.8280281
572.50 0.8273696
572.60 0.8273696
572.70 0.8273696
572.80 0.8273696
572.90 0.8273696
573.00 0.8273696
573.10 0.8273696
573.20 0.8131907
573.30 0.7871818
573.40 0.754534
573.50 0.7213591
573.60 0.6945101
573.70 0.6807479
573.80 0.6866821
573.90 0.7048989
574.00 0.7308916
574.10 0.7590733
574.20 0.7849067
574.30 0.8059477
574.40 0.8216047
574.50 0.8321541
574.60 0.8379098
574.70 0.8387609
574.80 0.8295305
574.90 0.8020184
575.00 0.7578377
575.10 0.7011145
575.20 0.6344875
575.30 0.5588709
575.40 0.4772491
575.50 0.3948873
575.60 0.3179479
575.70 0.253346
575.80 0.2179037
575.90 0.2147821
576.00 0.2400654
576.10 0.286721
576.20 0.3418325
576.30 0.3929515
576.40 0.4328625
576.50 0.4563723
576.60 0.4595675
576.70 0.4595675
576.80 0.4595675
576.90 0.4595675
577.00 0.4595675
577.10 0.4595675
577.20 0.4702168
577.30 0.5014397
577.40 0.5513247
577.50 0.6175176
577.60 0.6959232
577.70 0.7829644
577.80 0.8700388
577.90 0.9484491
578.00 1.022078
578.10 1.097616
578.20 1.179988
578.30 1.268623
578.40 1.359148
578.50 1.446479
578.60 1.525879
578.70 1.594086
578.80 1.643896
578.90 1.672477
579.00 1.680031
579.10 1.680031
579.20 1.680031
579.30 1.680031
579.40 1.680031
579.50 1.680031
579.60 1.680031
579.70 1.680031
579.80 1.668349
579.90 1.642175
580.00 1.60203
580.10 1.551323
580.20 1.496211
580.30 1.445092
580.40 1.405181
580.50 1.381672
580.60 1.378476
580.70 1.378476
580.80 1.378476
580.90 1.378476
581.00 1.378476
581.10 1.378476
581.20 1.387185
581.30 1.391296
581.40 1.386065
581.50 1.366258
581.60 1.327099
581.70 1.264438
581.80 1.176558
581.90 1.079931
582.00 0.980309
582.10 0.8765888
582.20 0.7683838
582.30 0.6616882
582.40 0.5680874
582.50 0.4856831
582.60 0.4134859
582.70 0.3525158
582.80 0.3054279
582.90 0.2768464
583.00 0.2692926
583.10 0.274188
583.20 0.2898393
583.30 0.3187459
583.40 0.3586049
583.50 0.4049959
583.60 0.4534736
583.70 0.5022126
583.80 0.5536916
583.90 0.6137876
584.00 0.6889096
584.10 0.7825782
584.20 0.89353
584.30 1.015096
584.40 1.137477
584.50 1.250291
584.60 1.344224
584.70 1.414209
584.80 1.463112
584.90 1.499292
585.00 1.53193
585.10 1.568706
585.20 1.593622
585.30 1.606541
585.40 1.604713
585.50 1.583241
585.60 1.543994
585.70 1.519614
585.80 1.514485
585.90 1.514485
586.00 1.514485
586.10 1.514485
586.20 1.514485
586.30 1.511505
586.40 1.498924
586.50 1.483448
586.60 1.470489
586.70 1.462401
586.80 1.45968
586.90 1.45968
587.00 1.45968
587.10 1.454784
587.20 1.439133
587.30 1.410226
587.40 1.370367
587.50 1.323976
587.60 1.275499
587.70 1.22676
587.80 1.175281
587.90 1.115185
588.00 1.040063
588.10 0.9463941
588.20 0.8466318
588.30 0.7412186
588.40 0.6277358
588.50 0.5149215
588.60 0.4209889
588.70 0.3510032
588.80 0.3021001
588.90 0.2659206
589.00 0.2332824
589.10 0.1965064
589.20 0.1522593
589.30 0.1185253
589.40 0.0950568
589.50 0.08394194
589.60 0.08489595
589.70 0.08489595
589.80 0.08489595
589.90 0.08489595
590.00 0.08489595
590.10 0.08489595
590.20 0.08489595
590.30 0.08489595
590.40 0.08489595
590.50 0.101977
590.60 0.158129
590.70 0.2466458
590.80 0.3518385
590.90 0.4525098
591.00 0.5278625
591.10 0.5621779
591.20 0.5621779
591.30 0.5621779
591.40 0.5621779
591.50 0.5621779
591.60 0.5621779
591.70 0.5621779
591.80 0.5621779
591.90 0.5621779
592.00 0.5621779
592.10 0.5621779
592.20 0.5509884
592.30 0.5348358
592.40 0.5259376
592.50 0.5301851
592.60 0.5525741
592.70 0.5852592
592.80 0.6199453
592.90 0.6502658
593.00 0.6714828
593.10 0.6804888
593.20 0.6804627
593.30 0.6659431
593.40 0.6465855
593.50 0.632787
593.60 0.631833
593.70 0.6386416
593.80 0.6550084
593.90 0.6771672
594.00 0.7001937
594.10 0.7184484
594.20 0.7273074
594.30 0.7273074
594.40 0.7273074
594.50 0.7102263
594.60 0.6540744
594.70 0.5655576
594.80 0.4603649
594.90 0.3596935
595.00 0.2843409
595.10 0.2500255
595.20 0.2500255
595.30 0.2500255
595.40 0.2531963
595.50 0.2579957
595.60 0.2603479
595.70 0.2603479
595.80 0.2603479
595.90 0.2603479
596.00 0.2603479
596.10 0.2603479
596.20 0.2607887
596.30 0.2820551
596.40 0.3261195
596.50 0.3837
596.60 0.43228
596.70 0.4715638
596.80 0.5030429
596.90 0.5280006
597.00 0.5479218
597.10 0.5631792
597.20 0.5700649
597.30 0.5700649
597.40 0.5700649
597.50 0.5700649
597.60 0.5700649
597.70 0.5632563
597.80 0.5553709
597.90 0.558156
598.00 0.5693364
598.10 0.586668
598.20 0.6090771
598.30 0.6326927
598.40 0.648275
598.50 0.6606163
598.60 0.6789647
598.70 0.7133772
598.80 0.7709801
598.90 0.8526357
599.00 0.9499423
599.10 1.048817
599.20 1.136068
599.30 1.203157
599.40 1.243812
599.50 1.259539
599.60 1.257187
599.70 1.257187
599.80 1.257187
599.90 1.257187
600.00 1.368279
600.10 1.423452
600.20 1.250722
600.30 0.9446244
600.40 0.6232925
600.50 0.4936511
600.60 0.7339393
600.70 1.3765
600.80 2.304115
600.90 3.266224
601.00 3.892262
601.10 3.954982
601.20 3.490031
601.30 2.68357
601.40 1.753036
601.50 0.8210677
601.60 0
601.70 0
601.80 0
601.90 0
602.00 0
602.10 0
602.20 0
602.30 0
602.40 0
602.50 0
602.60 0
602.70 0
602.80 0
602.90 0
603.00 0
603.10 0
603.20 1.242321
603.30 2.529308
603.40 3.712101
603.50 4.545695
603.60 4.836783
603.70 4.634181
603.80 4.150381
603.90 3.604848
604.00 3.146101
604.10 2.880166
604.20 2.908743
604.30 3.23612
604.40 3.661092
604.50 3.887998
604.60 3.716451
604.70 3.128279
604.80 2.267907
604.90 1.405231
605.00 0.7670258
605.10 0.3946195
605.20 0.1774052
605.30 0.01025911
605.40 0
605.50 0
605.60 0
605.70 0
605.80 0
605.90 0
606.00 0.07761436
606.10 0.6629988
606.20 1.326585
606.30 1.952186
606.40 2.396123
606.50 2.611505
606.60 2.667309
606.70 2.648673
606.80 2.561942
606.90 2.353489
607.00 2.03766
607.10 1.710809
607.20 1.49769
607.30 1.516605
607.40 1.811288
607.50 2.335788
607.60 3.02892
607.70 3.802225
607.80 4.599328
607.90 5.360705
608.00 5.970783
608.10 6.290601
608.20 6.241989
608.30 5.86142
608.40 5.240758
608.50 4.448973
608.60 3.549934
608.70 2.677863
608.80 2.02069
608.90 1.706653
609.00 1.729697
609.10 1.992122
609.20 2.294688
609.30 2.39973
609.40 2.164882
609.50 1.676129
609.60 1.128013
609.70 0.6218885
609.80 0.168454
609.90 0
610.00 0
610.10 0.01136072
610.20 0.3893757
610.30 0.8024133
610.40 1.145614
610.50 1.373873
610.60 1.563807
610.70 1.844732
610.80 2.288453
610.90 2.812631
611.00 3.247809
611.10 3.526598
611.20 3.683956
611.30 3.714888
611.40 3.591471
611.50 3.328073
611.60 2.956864
611.70 2.533371
611.80 2.144624
611.90 1.944345
612.00 2.010663
612.10 2.276973
612.20 2.574463
612.30 2.7647
612.40 2.801149
612.50 2.622292
612.60 2.196854
612.70 1.57882
612.80 0.883165
612.90 0.2811065
613.00 0
613.10 0.171956
613.20 0.8723052
613.30 1.860034
613.40 2.795977
613.50 3.429433
613.60 3.658159
613.70 3.480959
613.80 2.98343
613.90 2.358186
614.00 1.794831
614.10 1.406105
614.20 1.247702
614.30 1.28303
614.40 1.428159
614.50 1.6395
614.60 1.905153
614.70 2.256235
614.80 2.729972
614.90 3.345407
615.00 4.115835
615.10 4.979389
615.20 5.77727
615.30 6.330651
615.40 6.546285
615.50 6.476999
615.60 6.241314
615.70 5.960522
615.80 5.693666
615.90 5.421126
616.00 5.122268
616.10 4.809531
616.20 4.511546
616.30 4.259382
616.40 4.0598
616.50 3.925156
616.60 3.951422
616.70 4.207218
616.80 4.63876
616.90 5.140684
617.00 5.584055
617.10 5.850814
617.20 5.917451
617.30 5.878379
617.40 5.867469
617.50 5.953255
617.60 6.126403
617.70 6.266377
617.80 6.250159
617.90 6.050331
618.00 5.621014
618.10 4.988235
618.20 4.297015
618.30 3.663973
618.40 3.170265
618.50 2.882072
618.60 2.781685
618.70 2.718677
618.80 2.520862
618.90 2.157348
619.00 1.719652
619.10 1.356593
619.20 1.144973
619.30 1.047493
619.40 0.9696633
619.50 0.8154255
619.60 0.5647452
619.70 0.3161944
619.80 0.1734531
619.90 0.145331
620.00 0.2268271
620.10 0.4361948
620.20 0.784708
620.30 1.201935
620.40 1.58168
620.50 1.834621
620.60 1.977287
620.70 2.136806
620.80 2.415318
620.90 2.860825
621.00 3.447572
621.10 3.982324
621.20 4.277751
621.30 4.33091
621.40 4.214055
621.50 3.996413
621.60 3.750928
621.70 3.574947
621.80 3.49789
621.90 3.522878
622.00 3.586615
622.10 3.535583
622.20 3.325827
622.30 2.975975
622.40 2.502855
622.50 1.996329
622.60 1.569125
622.70 1.287028
622.80 1.21421
622.90 1.396561
623.00 1.790537
623.10 2.264096
623.20 2.684317
623.30 2.965324
623.40 3.088106
623.50 3.090884
623.60 2.990088
623.70 2.78076
623.80 2.483086
623.90 2.169937
624.00 1.964515
624.10 1.975956
624.20 2.199154
624.30 2.544333
624.40 2.883961
624.50 3.084824
624.60 3.039979
624.70 2.733295
624.80 2.265237
624.90 1.765557
625.00 1.311384
625.10 0.9837863
625.20 0.8906608
625.30 1.057065
625.40 1.420446
625.50 1.886965
625.60 2.400569
625.70 2.898991
625.80 3.289445
625.90 3.514594
626.00 3.620552
626.10 3.657898
626.20 3.592523
626.30 3.454021
626.40 3.371503
626.50 3.4281
626.60 3.588832
626.70 3.797754
626.80 4.011613
626.90 4.116559
627.00 3.956112
627.10 3.510656
627.20 2.926818
627.30 2.394967
627.40 2.038271
627.50 1.90624
627.60 2.038563
627.70 2.386189
627.80 2.837722
627.90 3.278671
628.00 3.628253
628.10 3.859813
628.20 3.972024
628.30 4.060542
628.40 4.246002
628.50 4.555938
628.60 4.947576
628.70 5.292228
628.80 5.433952
628.90 5.309927
629.00 4.918157
629.10 4.308722
629.20 3.595897
629.30 2.905475
629.40 2.347453
629.50 2.120166
629.60 2.389724
629.70 3.084673
629.80 3.951505
629.90 4.711202
630.00 5.177547
630.10 5.321071
630.20 5.269574
630.30 5.149512
630.40 5.025349
630.50 4.822476
630.60 4.465501
630.70 4.079433
630.80 3.838206
630.90 3.776576
631.00 3.866366
631.10 4.127325
631.20 4.609269
631.30 5.297152
631.40 6.046159
631.50 6.657657
631.60 6.976451
631.70 6.988103
631.80 6.770392
631.90 6.505673
632.00 6.375231
632.10 6.467506
632.20 6.828784
632.30 7.364757
632.40 7.874414
632.50 8.175101
632.60 8.150127
632.70 7.802715
632.80 7.275066
632.90 6.766497
633.00 6.369842
633.10 6.014524
633.20 5.619714
633.30 5.225309
633.40 4.905706
633.50 4.661492
633.60 4.46475
633.70 4.328902
633.80 4.270747
633.90 4.28721
634.00 4.395166
634.10 4.587301
634.20 4.777126
634.30 4.900562
634.40 4.99088
634.50 5.14265
634.60 5.472503
634.70 5.99913
634.80 6.646182
634.90 7.274016
635.00 7.729351
635.10 7.885329
635.20 7.633669
635.30 6.965856
635.40 5.993232
635.50 4.920007
635.60 4.017289
635.70 3.505669
635.80 3.477703
635.90 3.946795
636.00 4.792365
636.10 5.77505
636.20 6.72675
636.30 7.575301
636.40 8.20911
636.50 8.532775
636.60 8.578845
636.70 8.441908
636.80 8.163011
636.90 7.709871
637.00 7.060678
637.10 6.310341
637.20 5.60534
637.30 5.035585
637.40 4.765965
637.50 5.005756
637.60 5.712641
637.70 6.626761
637.80 7.480223
637.90 8.043031
638.00 8.16034
638.10 7.786378
638.20 7.045443
638.30 6.212503
638.40 5.548644
638.50 5.171693
638.60 5.128907
638.70 5.416833
638.80 5.891986
638.90 6.341413
639.00 6.651106
639.10 6.824392
639.20 6.908272
639.30 6.967859
639.40 7.030376
639.50 7.072883
639.60 7.04187
639.70 6.866575
639.80 6.543084
639.90 6.160191
640.00 5.811922
640.10 5.591709
640.20 5.576937
640.30 5.772852
640.40 6.112743
640.50 6.500474
640.60 6.848528
640.70 7.055023
640.80 7.061395
640.90 6.932213
641.00 6.769915
641.10 6.66255
641.20 6.653612
641.30 6.719868
641.40 6.803981
641.50 6.817573
641.60 6.72853
641.70 6.629934
641.80 6.602246
641.90 6.633999
642.00 6.678486
642.10 6.695565
642.20 6.667391
642.30 6.553727
642.40 6.322362
642.50 5.991499
642.60 5.618848
642.70 5.277492
642.80 5.067377
642.90 5.111897
643.00 5.412444
643.10 5.810108
643.20 6.150463
643.30 6.329031
643.40 6.265473
643.50 5.971788
643.60 5.503423
643.70 4.930435
643.80 4.385752
643.90 4.014768
644.00 3.928563
644.10 4.177834
644.20 4.733692
644.30 5.504229
644.40 6.383752
644.50 7.274189
644.60 8.034939
644.70 8.561214
644.80 8.887305
644.90 9.060395
645.00 9.135256
645.10 9.187346
645.20 9.226255
645.30 9.219557
645.40 9.114878
645.50 8.880747
645.60 8.52018
645.70 8.055161
645.80 7.562387
645.90 7.13354
646.00 6.846026
646.10 6.763761
646.20 6.88956
646.30 7.223844
646.40 7.699619
646.50 8.179415
646.60 8.548371
646.70 8.707763
646.80 8.654533
646.90 8.451808
647.00 8.151055
647.10 7.814731
647.20 7.472048
647.30 7.099128
647.40 6.730927
647.50 6.449621
647.60 6.289257
647.70 6.198239
647.80 6.145114
647.90 6.163468
648.00 6.260993
648.10 6.450575
648.20 6.701509
648.30 6.953126
648.40 7.203937
648.50 7.480338
648.60 7.83461
648.70 8.321454
648.80 8.921643
648.90 9.564035
649.00 10.14571
649.10 10.55758
649.20 10.77056
649.30 10.83887
649.40 10.8907
649.50 11.05194
649.60 11.37249
649.70 11.82864
649.80 12.3032
649.90 12.62468
650.00 12.62846
650.10 12.19645
650.20 11.32392
650.30 10.10292
650.40 8.744171
650.50 7.564195
650.60 6.793981
650.70 6.521315
650.80 6.706783
650.90 7.208808
651.00 7.878384
651.10 8.593208
651.20 9.273252
651.30 9.842967
651.40 10.23498
651.50 10.47941
651.60 10.66261
651.70 10.86822
651.80 11.13321
651.90 11.39411
652.00 11.58558
652.10 11.67025
652.20 11.60647
652.30 11.39295
652.40 11.06496
652.50 10.69363
652.60 10.37685
652.70 10.20922
652.80 10.20686
652.90 10.3151
653.00 10.49306
653.10 10.70984
653.20 10.93759
653.30 11.1674
653.40 11.40997
653.50 11.6549
653.60 11.85064
653.70 11.91179
653.80 11.77893
653.90 11.47098
654.00 11.01976
654.10 10.47892
654.20 10.03217
654.30 9.879851
654.40 10.0509
654.50 10.4288
654.60 10.86427
654.70 11.2666
654.80 11.57056
654.90 11.74478
655.00 11.8321
655.10 11.89242
655.20 11.95021
655.30 11.97876
655.40 11.96842
655.50 11.94654
655.60 11.89899
655.70 11.81584
655.80 11.78441
655.90 11.93652
656.00 12.33232
656.10 12.90808
656.20 13.51132
656.30 13.97915
656.40 14.21858
656.50 14.22397
656.60 14.04662
656.70 13.73663
656.80 13.33332
656.90 12.88988
657.00 12.43501
657.10 11.95234
657.20 11.43625
657.30 10.92124
657.40 10.42221
657.50 10.03556
657.60 9.920841
657.70 10.10006
657.80 10.47448
657.90 10.94485
658.00 11.41301
658.10 11.76627
658.20 11.91953
658.30 11.81234
658.40 11.48548
658.50 11.09826
658.60 10.77717
658.70 10.59517
658.80 10.66486
658.90 11.00456
659.00 11.49282
659.10 12.00459
659.20 12.42016
659.30 12.64673
659.40 12.69056
659.50 12.62614
659.60 12.53804
659.70 12.50904
659.80 12.6093
659.90 12.85058
660.00 13.2042
660.10 13.5748
660.20 13.7952
660.30 13.72446
660.40 13.29888
660.50 12.58662
660.60 11.76692
660.70 11.05036
660.80 10.60688
660.90 10.54935
661.00 10.88615
661.10 11.51817
661.20 12.25526
661.30 12.90304
661.40 13.31543
661.50 13.42267
661.60 13.27156
661.70 12.9751
661.80 12.68329
661.90 12.50071
662.00 12.45408
662.10 12.50044
662.20 12.53819
662.30 12.47287
662.40 12.30417
662.50 12.12776
662.60 12.0527
662.70 12.12073
662.80 12.31637
662.90 12.61205
663.00 12.94587
663.10 13.24091
663.20 13.45477
663.30 13.58041
663.40 13.66765
663.50 13.79842
663.60 14.02214
663.70 14.3586
663.80 14.80044
663.90 15.27363
664.00 15.64838
664.10 15.84476
664.20 15.88527
664.30 15.81302
664.40 15.67327
664.50 15.47492
664.60 15.16183
664.70 14.72003
664.80 14.17445
664.90 13.56582
665.00 12.99947
665.10 12.62255
665.20 12.52854
665.30 12.73451
665.40 13.22583
665.50 13.9261
665.60 14.67345
665.70 15.31881
665.80 15.80299
665.90 16.14695
666.00 16.4003
666.10 16.58808
666.20 16.70474
666.30 16.74163
666.40 16.69702
666.50 16.54692
666.60 16.27162
666.70 15.89703
666.80 15.5298
666.90 15.33422
667.00 15.46106
667.10 15.97668
667.20 16.7699
667.30 17.59908
667.40 18.2379
667.50 18.52867
667.60 18.4303
667.70 18.01533
667.80 17.39937
667.90 16.73732
668.00 16.20074
668.10 15.94842
668.20 16.04784
668.30 16.4352
668.40 16.95881
668.50 17.46505
668.60 17.85675
668.70 18.09715
668.80 18.21003
668.90 18.27663
669.00 18.37425
669.10 18.50434
669.20 18.63303
669.30 18.71044
669.40 18.69237
669.50 18.54785
669.60 18.25612
669.70 17.82337
669.80 17.26062
669.90 16.5619
670.00 15.76405
670.10 14.95737
670.20 14.20299
670.30 13.47828
670.40 12.71839
670.50 11.94403
670.60 11.25993
670.70 10.77651
670.80 10.55238
670.90 10.60119
671.00 10.90692
671.10 11.41718
671.20 12.07781
671.30 12.8234
671.40 13.56453
671.50 14.2087
671.60 14.72593
671.70 15.16021
671.80 15.5672
671.90 15.96855
672.00 16.35981
672.10 16.75591
672.20 17.1808
672.30 17.61107
672.40 17.97761
672.50 18.21307
672.60 18.27387
672.70 18.14524
672.80 17.86308
672.90 17.53582
673.00 17.25435
673.10 17.05938
673.20 16.98799
673.30 17.05879
673.40 17.27155
673.50 17.57646
673.60 17.86615
673.70 18.03942
673.80 18.038
673.90 17.87994
674.00 17.64298
674.10 17.42111
674.20 17.33743
674.30 17.49588
674.40 17.93724
674.50 18.64648
674.60 19.53484
674.70 20.44731
674.80 21.17572
674.90 21.50998
675.00 21.4056
675.10 20.99524
675.20 20.48832
675.30 20.03379
675.40 19.6999
675.50 19.57818
675.60 19.69584
675.70 19.96205
675.80 20.23914
675.90 20.38369
676.00 20.29832
676.10 20.00835
676.20 19.62138
676.30 19.25313
676.40 18.95535
676.50 18.72
676.60 18.52907
676.70 18.41215
676.80 18.46714
676.90 18.73835
677.00 19.16817
677.10 19.67773
677.20 20.21463
677.30 20.74865
677.40 21.25424
677.50 21.685
677.60 21.99657
677.70 22.15327
677.80 22.15376
677.90 22.06327
678.00 21.97537
678.10 21.93781
678.20 21.9175
678.30 21.88164
678.40 21.85194
678.50 21.84065
678.60 21.78895
678.70 21.61343
678.80 21.26021
678.90 20.71918
679.00 20.02104
679.10 19.24979
679.20 18.53857
679.30 18.01494
679.40 17.77635
679.50 17.83777
679.60 18.13822
679.70 18.56423
679.80 18.95496
679.90 19.19221
680.00 19.28151
680.10 19.31978
680.20 19.39353
680.30 19.46623
680.40 19.44713
680.50 19.32067
680.60 19.06325
680.70 18.62659
680.80 17.9951
680.90 17.27491
681.00 16.65751
681.10 16.29196
681.20 16.25552
681.30 16.55248
681.40 17.11065
681.50 17.79247
681.60 18.45991
681.70 19.03474
681.80 19.47385
681.90 19.70497
682.00 19.69907
682.10 19.48742
682.20 19.12807
682.30 18.649
682.40 18.06053
682.50 17.37977
682.60 16.66992
682.70 16.04125
682.80 15.52089
682.90 15.06871
683.00 14.64024
683.10 14.28191
683.20 14.12505
683.30 14.22276
683.40 14.54984
683.50 15.09073
683.60 15.76827
683.70 16.44878
683.80 17.01669
683.90 17.46286
684.00 17.846
684.10 18.18656
684.20 18.51188
684.30 18.84253
684.40 19.19006
684.50 19.47807
684.60 19.56195
684.70 19.40445
684.80 19.03674
684.90 18.47387
685.00 17.78073
685.10 17.10335
685.20 16.58439
685.30 16.28596
685.40 16.16773
685.50 16.1507
685.60 16.21162
685.70 16.33778
685.80 16.49393
685.90 16.65998
686.00 16.80531
686.10 16.89483
686.20 16.91188
686.30 16.87078
686.40 16.81166
686.50 16.79787
686.60 16.92021
686.70 17.21624
686.80 17.6767
686.90 18.27105
687.00 18.87202
687.10 19.31184
687.20 19.45436
687.30 19.25329
687.40 18.75459
687.50 18.02033
687.60 17.11785
687.70 16.14086
687.80 15.22305
687.90 14.49139
688.00 13.99403
688.10 13.7385
688.20 13.71354
688.30 13.86429
688.40 14.12558
688.50 14.43068
688.60 14.68458
688.70 14.74986
688.80 14.58375
688.90 14.32142
689.00 14.14556
689.10 14.15087
689.20 14.31228
689.30 14.55476
689.40 14.82305
689.50 15.0535
689.60 15.15297
689.70 15.04214
689.80 14.70038
689.90 14.21958
690.00 13.77487
690.10 13.5459
690.20 13.60121
690.30 13.86315
690.40 14.23811
690.50 14.66566
690.60 15.09087
690.70 15.4247
690.80 15.53839
690.90 15.31353
691.00 14.7205
691.10 13.85705
691.20 12.8643
691.30 11.86379
691.40 11.0166
691.50 10.47662
691.60 10.30904
691.70 10.5128
691.80 11.01069
691.90 11.6881
692.00 12.3791
692.10 12.9098
692.20 13.2172
692.30 13.39159
692.40 13.60423
692.50 13.92684
692.60 14.36156
692.70 14.86884
692.80 15.31076
692.90 15.55525
693.00 15.54685
693.10 15.31503
693.20 14.96557
693.30 14.59152
693.40 14.3562
693.50 14.4606
693.60 14.94908
693.70 15.70544
693.80 16.51178
693.90 17.1884
694.00 17.66758
694.10 17.99497
694.20 18.23369
694.30 18.40974
694.40 18.61428
694.50 18.91064
694.60 19.27363
694.70 19.67563
694.80 20.06383
694.90 20.33814
695.00 20.40823
695.10 20.22535
695.20 19.806
695.30 19.23419
695.40 18.58132
695.50 17.85602
695.60 17.10254
695.70 16.44443
695.80 15.92519
695.90 15.53602
696.00 15.30007
696.10 15.20633
696.20 15.17614
696.30 15.14745
696.40 15.14162
696.50 15.23294
696.60 15.48231
696.70 15.88665
696.80 16.39304
696.90 16.93944
697.00 17.49631
697.10 18.01577
697.20 18.47106
697.30 18.88413
697.40 19.26408
697.50 19.6134
697.60 19.90358
697.70 20.08914
697.80 20.12886
697.90 19.98162
698.00 19.65146
698.10 19.18179
698.20 18.64821
698.30 18.13135
698.40 17.69044
698.50 17.39841
698.60 17.33356
698.70 17.49514
698.80 17.77974
698.90 18.08475
699.00 18.38775
699.10 18.68334
699.20 18.94361
699.30 19.14203
699.40 19.21942
699.50 19.12086
699.60 18.84841
699.70 18.47559
699.80 18.09161
699.90 17.74494
700.00 17.44259
700.10 17.19714
700.20 17.04191
700.30 16.96366
700.40 16.92524
700.50 16.91101
700.60 16.92816
700.70 17.02634
700.80 17.28371
700.90 17.75518
701.00 18.42714
701.10 19.2264
701.20 20.09007
701.30 20.97417
701.40 21.82901
701.50 22.59457
701.60 23.20739
701.70 23.62671
701.80 23.82242
701.90 23.77955
702.00 23.5117
702.10 22.99685
702.20 22.22406
702.30 21.30812
702.40 20.47467
702.50 19.95434
702.60 19.9029
702.70 20.3774
702.80 21.2822
702.90 22.43513
703.00 23.66221
703.10 24.75325
703.20 25.53173
703.30 25.94528
703.40 26.0513
703.50 26.00347
703.60 25.99539
703.70 26.13149
703.80 26.42176
703.90 26.84823
704.00 27.29442
704.10 27.53575
704.20 27.41512
704.30 26.93836
704.40 26.24241
704.50 25.56484
704.60 25.13924
704.70 25.12657
704.80 25.55312
704.90 26.22588
705.00 26.84857
705.10 27.23267
705.20 27.2984
705.30 27.02077
705.40 26.48853
705.50 25.87287
705.60 25.32271
705.70 24.90777
705.80 24.61891
705.90 24.41752
706.00 24.28186
706.10 24.17593
706.20 24.03669
706.30 23.91439
706.40 23.95431
706.50 24.21589
706.60 24.67546
706.70 25.25885
706.80 25.82445
706.90 26.25703
707.00 26.54924
707.10 26.7398
707.20 26.86798
707.30 26.99367
707.40 27.16611
707.50 27.37848
707.60 27.63229
707.70 27.95433
707.80 28.32996
707.90 28.70613
708.00 28.9972
708.10 29.12959
708.20 29.11043
708.30 29.01709
708.40 28.90979
708.50 28.7899
708.60 28.65395
708.70 28.5138
708.80 28.34455
708.90 28.12308
709.00 27.89539
709.10 27.69862
709.20 27.50101
709.30 27.26277
709.40 27.02417
709.50 26.86386
709.60 26.80928
709.70 26.81356
709.80 26.77631
709.90 26.64108
710.00 26.3973
710.10 26.04512
710.20 25.63824
710.30 25.23547
710.40 24.85183
710.50 24.53177
710.60 24.36825
710.70 24.41208
710.80 24.61059
710.90 24.84982
711.00 25.03014
711.10 25.10255
711.20 25.09397
711.30 25.06087
711.40 25.07773
711.50 25.21677
711.60 25.49684
711.70 25.95195
711.80 26.62374
711.90 27.45625
712.00 28.31504
712.10 29.06496
712.20 29.59267
712.30 29.80991
712.40 29.68033
712.50 29.28216
712.60 28.81745
712.70 28.49791
712.80 28.43699
712.90 28.67579
713.00 29.20373
713.10 29.89772
713.20 30.52429
713.30 30.86883
713.40 30.83508
713.50 30.44376
713.60 29.78905
713.70 29.02304
713.80 28.33512
713.90 27.88516
714.00 27.70683
714.10 27.73865
714.20 27.93303
714.30 28.25807
714.40 28.70406
714.50 29.2647
714.60 29.92332
714.70 30.61142
714.80 31.2041
714.90 31.60122
715.00 31.74326
715.10 31.59739
715.20 31.15882
715.30 30.45016
715.40 29.57263
715.50 28.71391
715.60 28.04469
715.70 27.65917
715.80 27.5548
715.90 27.66349
716.00 27.89554
716.10 28.18806
716.20 28.51075
716.30 28.8088
716.40 29.04692
716.50 29.22996
716.60 29.36759
716.70 29.47419
716.80 29.5454
716.90 29.57499
717.00 29.56986
717.10 29.50896
717.20 29.34986
717.30 29.10514
717.40 28.83689
717.50 28.61145
717.60 28.51106
717.70 28.60464
717.80 28.91397
717.90 29.43041
718.00 30.13836
718.10 30.97985
718.20 31.83336
718.30 32.54953
718.40 33.02553
718.50 33.22712
718.60 33.17418
718.70 32.91575
718.80 32.55546
718.90 32.23787
719.00 32.02214
719.10 31.92126
719.20 31.96732
719.30 32.14335
719.40 32.35591
719.50 32.48071
719.60 32.43005
719.70 32.19499
719.80 31.78818
719.90 31.25912
720.00 30.72017
720.10 30.29428
720.20 30.04093
720.30 29.95037
720.40 30.02417
720.50 30.23397
720.60 30.47598
720.70 30.65639
720.80 30.75968
720.90 30.83881
721.00 30.95762
721.10 31.10003
721.20 31.19631
721.30 31.21056
721.40 31.11885
721.50 30.9002
721.60 30.56666
721.70 30.18558
721.80 29.86372
721.90 29.71192
722.00 29.8036
722.10 30.17861
722.20 30.83862
722.30 31.71274
722.40 32.64575
722.50 33.48556
722.60 34.1311
722.70 34.47755
722.80 34.47537
722.90 34.15845
723.00 33.64136
723.10 33.06244
723.20 32.50675
723.30 32.04388
723.40 31.76749
723.50 31.70605
723.60 31.74456
723.70 31.73173
723.80 31.62157
723.90 31.44415
724.00 31.1985
724.10 30.86786
724.20 30.46182
724.30 30.11864
724.40 30.06384
724.50 30.41139
724.60 31.17485
724.70 32.28327
724.80 33.59385
724.90 34.95961
725.00 36.27279
725.10 37.43205
725.20 38.30348
725.30 38.76526
725.40 38.81196
725.50 38.57912
725.60 38.21665
725.70 37.73508
725.80 37.04943
725.90 36.19263
726.00 35.32962
726.10 34.62367
726.20 34.14407
726.30 33.88514
726.40 33.81814
726.50 33.909
726.60 34.13517
726.70 34.44764
726.80 34.72068
726.90 34.84013
727.00 34.91522
727.10 35.17399
727.20 35.68341
727.30 36.29468
727.40 36.77117
727.50 37.05308
727.60 37.23472
727.70 37.34891
727.80 37.39798
727.90 37.39479
728.00 37.34453
728.10 37.31305
728.20 37.44339
728.30 37.82614
728.40 38.36416
728.50 38.86502
728.60 39.24864
728.70 39.58534
728.80 39.94905
728.90 40.25528
729.00 40.39508
729.10 40.42366
729.20 40.44452
729.30 40.50456
729.40 40.60734
729.50 40.69432
729.60 40.66826
729.70 40.43134
729.80 39.89959
729.90 39.09178
730.00 38.11261
730.10 37.10892
730.20 36.28745
730.30 35.85738
730.40 35.88709
730.50 36.30254
730.60 36.98014
730.70 37.7419
730.80 38.3849
730.90 38.67541
731.00 38.55926
731.10 38.21949
731.20 37.88133
731.30 37.73007
731.40 37.91292
731.50 38.45246
731.60 39.2178
731.70 40.0206
731.80 40.69269
731.90 41.10875
732.00 41.1914
732.10 40.98128
732.20 40.52331
732.30 39.92116
732.40 39.29861
732.50 38.75766
732.60 38.45019
732.70 38.46957
732.80 38.78583
732.90 39.31257
733.00 39.92476
733.10 40.44996
733.20 40.76884
733.30 40.84463
733.40 40.6177
733.50 40.06507
733.60 39.34655
733.70 38.66266
733.80 38.07502
733.90 37.60934
734.00 37.33469
734.10 37.28564
734.20 37.45403
734.30 37.81702
734.40 38.34474
734.50 39.00514
734.60 39.70085
734.70 40.2733
734.80 40.68051
734.90 40.91554
735.00 40.92227
735.10 40.71578
735.20 40.41326
735.30 40.07333
735.40 39.64785
735.50 39.0831
735.60 38.38699
735.70 37.6262
735.80 36.94061
735.90 36.48475
736.00 36.37383
736.10 36.66946
736.20 37.25045
736.30 37.84138
736.40 38.22805
736.50 38.35079
736.60 38.17027
736.70 37.62362
736.80 36.78102
736.90 35.9097
737.00 35.29726
737.10 35.13514
737.20 35.43723
737.30 36.05922
737.40 36.7884
737.50 37.41231
737.60 37.85701
737.70 38.21092
737.80 38.54926
737.90 38.8201
738.00 38.97359
738.10 39.06213
738.20 39.11204
738.30 39.06911
738.40 38.89443
738.50 38.60879
738.60 38.28729
738.70 38.02644
738.80 37.89532
738.90 37.8794
739.00 37.86665
739.10 37.74513
739.20 37.54355
739.30 37.36733
739.40 37.25432
739.50 37.17242
739.60 37.04185
739.70 36.8032
739.80 36.4244
739.90 35.8654
740.00 35.18754
740.10 34.53635
740.20 34.01915
740.30 33.70005
740.40 33.61387
740.50 33.74338
740.60 33.94061
740.70 34.06073
740.80 34.10131
740.90 34.09199
741.00 34.06615
741.10 34.03668
741.20 34.05257
741.30 34.24528
741.40 34.64864
741.50 35.14066
741.60 35.552
741.70 35.74594
741.80 35.64852
741.90 35.23874
742.00 34.56352
742.10 33.69064
742.20 32.71279
742.30 31.75283
742.40 30.88488
742.50 30.21163
742.60 29.8794
742.70 29.96138
742.80 30.41917
742.90 31.13703
743.00 31.99492
743.10 32.88418
743.20 33.7309
743.30 34.52786
743.40 35.31024
743.50 36.09299
743.60 36.81385
743.70 37.42874
743.80 38.00501
743.90 38.55392
744.00 38.93643
744.10 39.00133
744.20 38.67955
744.30 38.00843
744.40 37.11031
744.50 36.14661
744.60 35.28198
744.70 34.61961
744.80 34.17058
744.90 33.9235
745.00 33.85058
745.10 33.89098
745.20 33.96095
745.30 34.01694
745.40 34.0695
745.50 34.10224
745.60 34.09012
745.70 34.03372
745.80 33.93766
745.90 33.81245
746.00 33.63853
746.10 33.41691
746.20 33.26042
746.30 33.27834
746.40 33.52512
746.50 33.99688
746.60 34.58158
746.70 35.09922
746.80 35.3969
746.90 35.44193
747.00 35.27395
747.10 34.97882
747.20 34.67113
747.30 34.42481
747.40 34.30606
747.50 34.33906
747.60 34.39575
747.70 34.3312
747.80 34.11704
747.90 33.80679
748.00 33.53392
748.10 33.41709
748.20 33.47953
748.30 33.65379
748.40 33.86642
748.50 34.06935
748.60 34.24639
748.70 34.39362
748.80 34.46063
748.90 34.39595
749.00 34.2229
749.10 33.99204
749.20 33.69661
749.30 33.27516
749.40 32.66635
749.50 31.92017
749.60 31.17264
749.70 30.54355
749.80 30.11847
749.90 29.93733
750.00 29.97649
750.10 30.17745
750.20 30.47015
750.30 30.79612
750.40 31.10458
750.50 31.35035
750.60 31.54231
750.70 31.7465
750.80 32.02689
750.90 32.35227
751.00 32.61946
751.10 32.77282
751.20 32.78181
751.30 32.64301
751.40 32.40966
751.50 32.15515
751.60 31.90611
751.70 31.5743
751.80 31.08183
751.90 30.44524
752.00 29.67937
752.10 28.74392
752.20 27.72115
752.30 26.80064
752.40 26.14116
752.50 25.84072
752.60 25.92631
752.70 26.37994
752.80 27.09486
752.90 27.88218
753.00 28.59686
753.10 29.22179
753.20 29.73742
753.30 30.04266
753.40 30.09665
753.50 29.99464
753.60 29.73926
753.70 29.27844
753.80 28.68086
753.90 28.05255
754.00 27.49019
754.10 27.02937
754.20 26.66543
754.30 26.45464
754.40 26.47098
754.50 26.70409
754.60 27.0806
754.70 27.52665
754.80 27.94214
754.90 28.1928
755.00 28.16571
755.10 27.7992
755.20 27.05513
755.30 25.98501
755.40 24.80622
755.50 23.79583
755.60 23.17804
755.70 23.03772
755.80 23.3376
755.90 23.99772
756.00 24.85318
756.10 25.64492
756.20 26.1067
756.30 26.0934
756.40 25.67969
756.50 25.01813
756.60 24.26442
756.70 23.54208
756.80 22.8935
756.90 22.39458
757.00 22.1533
757.10 22.24194
757.20 22.6474
757.30 23.27198
757.40 23.96401
757.50 24.56467
757.60 24.9908
757.70 25.21538
757.80 25.19128
757.90 24.92134
758.00 24.44204
758.10 23.83027
758.20 23.2222
758.30 22.66402
758.40 22.14271
758.50 21.64957
758.60 21.18703
758.70 20.76906
758.80 20.45121
758.90 20.32448
759.00 20.42113
759.10 20.62828
759.20 20.68334
759.30 20.42068
759.40 20.02295
759.50 19.84711
759.60 20.19415
759.70 21.13539
759.80 22.52616
759.90 24.25703
760.00 26.17383
760.10 27.87019
760.20 28.8681
760.30 28.91013
760.40 27.94219
760.50 26.16004
760.60 24.09202
760.70 22.28466
760.80 20.94977
760.90 20.02648
761.00 19.30916
761.10 18.70056
761.20 18.19517
761.30 17.59671
761.40 16.73769
761.50 15.73752
761.60 14.84028
761.70 14.21302
761.80 13.9302
761.90 13.94259
762.00 14.05019
762.10 14.06047
762.20 13.92919
762.30 13.67172
762.40 13.32036
762.50 13.03852
762.60 13.0703
762.70 13.5506
762.80 14.35006
762.90 15.09878
763.00 15.42469
763.10 15.06695
763.20 13.95218
763.30 12.2258
763.40 10.2075
763.50 8.276112
763.60 6.728359
763.70 5.843648
763.80 5.877459
763.90 6.742724
764.00 8.01238
764.10 9.23256
764.20 10.09622
764.30 10.52908
764.40 10.52021
764.50 10.03168
764.60 9.131808
764.70 8.009902
764.80 6.933602
764.90 6.177979
765.00 5.989784
765.10 6.410115
765.20 7.130413
765.30 7.770645
765.40 8.035153
765.50 7.71239
765.60 6.765872
765.70 5.319498
765.80 3.653241
765.90 2.156586
766.00 1.164691
766.10 0.8641855
766.20 1.247537
766.30 2.141161
766.40 3.198608
766.50 4.068848
766.60 4.619803
766.70 4.838311
766.80 4.787669
766.90 4.640598
767.00 4.540131
767.10 4.527367
767.20 4.590087
767.30 4.690957
767.40 4.776798
767.50 4.799827
767.60 4.750023
767.70 4.635223
767.80 4.473252
767.90 4.291894
768.00 4.108433
768.10 3.967288
768.20 3.921124
768.30 3.982859
768.40 4.151461
768.50 4.411765
768.60 4.718312
768.70 4.985194
768.80 5.132612
768.90 5.129457
769.00 4.939693
769.10 4.521576
769.20 3.9108
769.30 3.192592
769.40 2.421309
769.50 1.62258
769.60 0.8915025
769.70 0.3352675
769.80 0
769.90 0
770.00 0.02953433
770.10 0.4641119
770.20 1.099545
770.30 1.819912
770.40 2.53833
770.50 3.162019
770.60 3.56963
770.70 3.646421
770.80 3.309249
770.90 2.527636
771.00 1.198777
771.10 0
771.20 0
771.30 0
771.40 0
771.50 0
771.60 0
771.70 0
771.80 0
771.90 2.083174
772.00 5.356131
772.10 8.270999
772.20 10.56765
772.30 12.17829
772.40 13.19785
772.50 13.76913
772.60 13.77807
772.70 13.20633
772.80 12.3804
772.90 11.60729
773.00 10.98289
773.10 10.4188
773.20 9.846093
773.30 9.419205
773.40 9.387575
773.50 9.870041
773.60 10.77358
773.70 11.83178
773.80 12.82075
773.90 13.62341
774.00 14.18565
774.10 14.52716
774.20 14.7469
774.30 14.89664
774.40 14.88492
774.50 14.68458
774.60 14.47344
774.70 14.4037
774.80 14.47474
774.90 14.70165
775.00 15.15228
775.10 15.84768
775.20 16.71516
775.30 17.56803
775.40 18.20007
775.50 18.47315
775.60 18.36623
775.70 18.0742
775.80 17.88248
775.90 17.984
776.00 18.37891
776.10 18.96638
776.20 19.65081
776.30 20.26765
776.40 20.59709
776.50 20.50118
776.60 19.96818
776.70 19.16412
776.80 18.3398
776.90 17.74603
777.00 17.55313
777.10 17.71583
777.20 18.19054
777.30 18.96636
777.40 19.88496
777.50 20.69956
777.60 21.25242
777.70 21.5132
777.80 21.56395
777.90 21.53899
778.00 21.56318
778.10 21.69637
778.20 21.94492
778.30 22.25786
778.40 22.5648
778.50 22.86544
778.60 23.09382
778.70 23.1123
778.80 22.9359
778.90 22.66204
779.00 22.26973
779.10 21.76201
779.20 21.24294
779.30 20.81572
779.40 20.47781
779.50 20.11919
779.60 19.60285
779.70 18.81709
779.80 17.70401
779.90 16.31107
780.00 14.86181
780.10 13.65062
780.20 12.81556
780.30 12.41316
780.40 12.53087
780.50 13.08142
780.60 13.84277
780.70 14.6599
780.80 15.54573
780.90 16.62072
781.00 17.95871
781.10 19.60919
781.20 21.61566
781.30 23.88256
781.40 26.14127
781.50 28.00122
781.60 29.08405
781.70 29.25295
781.80 28.68042
781.90 27.7574
782.00 26.92977
782.10 26.52565
782.20 26.67612
782.30 27.40515
782.40 28.65299
782.50 30.21136
782.60 31.74369
782.70 32.91939
782.80 33.5352
782.90 33.60823
783.00 33.40803
783.10 33.18002
783.20 32.95689
783.30 32.66512
783.40 32.20149
783.50 31.57449
783.60 30.87164
783.70 30.11557
783.80 29.32524
783.90 28.53047
784.00 27.8072
784.10 27.29022
784.20 27.08482
784.30 27.24304
784.40 27.72097
784.50 28.41611
784.60 29.28958
784.70 30.18164
784.80 30.70746
784.90 30.5606
785.00 29.64315
785.10 28.0937
785.20 26.3504
785.30 24.93877
785.40 24.24641
785.50 24.43225
785.60 25.41486
785.70 27.01139
785.80 29.05275
785.90 31.33365
786.00 33.57943
786.10 35.64714
786.20 37.57796
786.30 39.3275
786.40 40.78278
786.50 41.80786
786.60 42.18238
786.70 41.82605
786.80 40.87853
786.90 39.63497
787.00 38.50054
787.10 37.79644
787.20 37.57567
787.30 37.73025
787.40 38.10732
787.50 38.54945
787.60 38.99069
787.70 39.40167
787.80 39.79076
787.90 40.24371
788.00 40.86418
788.10 41.64297
788.20 42.40798
788.30 42.94952
788.40 43.20836
788.50 43.19561
788.60 42.86168
788.70 42.15739
788.80 41.10342
788.90 39.86747
789.00 38.71127
789.10 37.87495
789.20 37.52205
789.30 37.71816
789.40 38.43606
789.50 39.61298
789.60 41.16613
789.70 42.95221
789.80 44.66412
789.90 45.93867
790.00 46.66943
790.10 46.9669
790.20 46.97218
790.30 46.76889
790.40 46.35481
790.50 45.77836
790.60 45.1583
790.70 44.56956
790.80 44.01251
790.90 43.50575
791.00 43.20953
791.10 43.29266
791.20 43.73742
791.30 44.47064
791.40 45.36094
791.50 46.22269
791.60 46.88969
791.70 47.18647
791.80 47.08603
791.90 46.6878
792.00 46.15384
792.10 45.7325
792.20 45.62456
792.30 45.87166
792.40 46.33606
792.50 46.81606
792.60 47.272
792.70 47.76956
792.80 48.35866
792.90 49.05834
793.00 49.78612
793.10 50.4876
793.20 51.1262
793.30 51.59103
793.40 51.73034
793.50 51.41456
793.60 50.68373
793.70 49.75331
793.80 48.89166
793.90 48.31669
794.00 48.04676
794.10 47.85865
794.20 47.4019
794.30 46.26718
794.40 44.23799
794.50 41.34021
794.60 37.78241
794.70 34.02322
794.80 30.69225
794.90 28.41009
795.00 27.6556
795.10 28.64399
795.20 31.18643
795.30 34.8106
795.40 39.00548
795.50 43.20726
795.60 46.88119
795.70 49.76695
795.80 51.84158
795.90 53.23965
796.00 54.11308
796.10 54.55772
796.20 54.60866
796.30 54.28938
796.40 53.67932
796.50 52.91103
796.60 52.15906
796.70 51.57746
796.80 51.27883
796.90 51.37027
797.00 51.92224
797.10 52.84966
797.20 53.87581
797.30 54.68988
797.40 55.17787
797.50 55.40595
797.60 55.5146
797.70 55.7058
797.80 56.1144
797.90 56.67206
798.00 57.27576
798.10 57.83791
798.20 58.20637
798.30 58.26078
798.40 57.9891
798.50 57.49772
798.60 56.96849
798.70 56.51032
798.80 56.14173
798.90 55.97238
799.00 56.12279
799.10 56.51454
799.20 57.05368
799.30 57.82024
799.40 58.93097
799.50 60.4375
799.60 62.22284
799.70 64.06443
799.80 65.79038
799.90 67.25673
800.00 68.3637
800.10 69.1236
800.20 69.60394
800.30 69.78702
800.40 69.66806
800.50 69.41649
800.60 69.17197
800.70 68.87631
800.80 68.44633
800.90 67.88645
801.00 67.28167
801.10 66.7453
801.20 66.32941
801.30 66.01797
801.40 65.76098
801.50 65.52837
801.60 65.36467
801.70 65.32215
801.80 65.45709
801.90 65.78752
802.00 66.22123
802.10 66.64426
802.20 66.85271
802.30 66.62504
802.40 66.05225
802.50 65.48318
802.60 65.25564
802.70 65.57112
802.80 66.49976
802.90 67.99143
803.00 69.81704
803.10 71.62685
803.20 73.04739
803.30 73.788
803.40 73.75276
803.50 73.06419
803.60 72.06138
803.70 71.14182
803.80 70.51691
803.90 70.21024
804.00 70.2017
804.10 70.51889
804.20 71.15724
804.30 72.0228
804.40 73.03097
804.50 74.143
804.60 75.29751
804.70 76.33886
804.80 77.1303
804.90 77.58329
805.00 77.62537
805.10 77.33474
805.20 76.92095
805.30 76.59262
805.40 76.45818
805.50 76.50582
805.60 76.71688
805.70 77.11534
805.80 77.70207
805.90 78.3744
806.00 78.9958
806.10 79.51816
806.20 79.96479
806.30 80.43899
806.40 81.06447
806.50 81.82155
806.60 82.59037
806.70 83.27564
806.80 83.83739
806.90 84.28236
807.00 84.62813
807.10 84.85365
807.20 84.90276
807.30 84.81419
807.40 84.68253
807.50 84.61166
807.60 84.6767
807.70 84.86751
807.80 85.09678
807.90 85.26418
808.00 85.33422
808.10 85.36254
808.20 85.46294
808.30 85.7155
808.40 86.13754
808.50 86.65907
808.60 87.1231
808.70 87.33169
808.80 87.19016
808.90 86.75918
809.00 86.1807
809.10 85.64245
809.20 85.30948
809.30 85.2696
809.40 85.51048
809.50 85.85297
809.60 86.04836
809.70 85.90733
809.80 85.34675
809.90 84.41749
810.00 83.29299
810.10 82.24354
810.20 81.55711
810.30 81.40849
810.40 81.88449
810.50 83.00078
810.60 84.67766
810.70 86.75387
810.80 88.93557
810.90 90.88196
811.00 92.30583
811.10 93.06971
811.20 93.18672
811.30 92.80442
811.40 92.12987
811.50 91.33777
811.60 90.57909
811.70 90.00595
811.80 89.72738
811.90 89.76956
812.00 90.11804
812.10 90.70401
812.20 91.48479
812.30 92.45603
812.40 93.54655
812.50 94.62603
812.60 95.59396
812.70 96.32793
812.80 96.66735
812.90 96.51587
813.00 95.91403
813.10 95.01912
813.20 94.033
813.30 93.17904
813.40 92.66471
813.50 92.65107
813.60 93.12336
813.70 93.87617
813.80 94.66213
813.90 95.27855
814.00 95.57552
814.10 95.50783
814.20 95.22837
814.30 95.03584
814.40 95.15706
814.50 95.61718
814.60 96.24312
814.70 96.67673
814.80 96.62631
814.90 96.00936
815.00 94.91376
815.10 93.60086
815.20 92.38819
815.30 91.60204
815.40 91.55641
815.50 92.41948
815.60 94.11987
815.70 96.31435
815.80 98.48742
815.90 100.2327
816.00 101.4565
816.10 102.2947
816.20 102.8518
816.30 103.1902
816.40 103.4656
816.50 103.8807
816.60 104.5896
816.70 105.5543
816.80 106.5486
816.90 107.3025
817.00 107.6506
817.10 107.6058
817.20 107.2664
817.30 106.5723
817.40 105.3167
817.50 103.4807
817.60 101.283
817.70 99.00352
817.80 96.79231
817.90 94.59991
818.00 92.335
818.10 90.02141
818.20 87.87497
818.30 86.26634
818.40 85.50203
818.50 85.67301
818.60 86.69499
818.70 88.45257
818.80 90.67786
818.90 92.76136
819.00 93.91538
819.10 93.46638
819.20 91.17115
819.30 87.36347
819.40 82.89281
819.50 78.87673
819.60 76.25758
819.70 75.56146
819.80 76.91377
819.90 80.04224
820.00 84.39026
820.10 89.27946
820.20 94.07222
820.30 98.32002
820.40 101.8327
820.50 104.6474
820.60 106.8701
820.70 108.5665
820.80 109.7337
820.90 110.3389
821.00 110.3774
821.10 109.9179
821.20 109.1221
821.30 108.2699
821.40 107.6692
821.50 107.5115
821.60 107.8367
821.70 108.5663
821.80 109.5416
821.90 110.5432
822.00 111.4138
822.10 112.1339
822.20 112.7422
822.30 113.2717
822.40 113.7557
822.50 114.3163
822.60 115.1248
822.70 116.2305
822.80 117.5199
822.90 118.7934
823.00 119.8177
823.10 120.3553
823.20 120.2817
823.30 119.6618
823.40 118.7062
823.50 117.6585
823.60 116.7499
823.70 116.1979
823.80 116.1892
823.90 116.6905
824.00 117.4349
824.10 118.1785
824.20 118.7731
824.30 119.1574
824.40 119.3341
824.50 119.4375
824.60 119.6311
824.70 119.9749
824.80 120.4775
824.90 121.1195
825.00 121.8005
825.10 122.2721
825.20 122.2529
825.30 121.624
825.40 120.4332
825.50 118.8408
825.60 117.1435
825.70 115.724
825.80 114.982
825.90 115.1404
826.00 116.167
826.10 117.8454
826.20 119.785
826.30 121.5012
826.40 122.5384
826.50 122.6515
826.60 121.9003
826.70 120.5487
826.80 119.0191
826.90 117.8184
827.00 117.3567
827.10 117.7172
827.20 118.6453
827.30 119.9502
827.40 121.5522
827.50 123.1926
827.60 124.552
827.70 125.5293
827.80 126.2576
827.90 126.8261
828.00 127.171
828.10 127.2087
828.20 126.8728
828.30 126.1283
828.40 125.1051
828.50 124.1874
828.60 123.746
828.70 123.6459
828.80 123.5828
828.90 123.5706
829.00 123.6058
829.10 123.4568
829.20 122.8241
829.30 121.6992
829.40 120.4114
829.50 119.3696
829.60 118.6039
829.70 117.8433
829.80 117.0411
829.90 116.2981
830.00 115.7458
830.10 115.6274
830.20 116.0794
830.30 116.9516
830.40 117.9494
830.50 118.8508
830.60 119.6658
830.70 120.4435
830.80 121.0582
830.90 121.3227
831.00 121.4637
831.10 121.9106
831.20 122.6774
831.30 123.5333
831.40 124.3096
831.50 125.0484
831.60 125.8407
831.70 126.67
831.80 127.5624
831.90 128.4839
832.00 129.1982
832.10 129.4435
832.20 129.1105
832.30 128.236
832.40 126.939
832.50 125.4673
832.60 124.1534
832.70 123.3149
832.80 123.1712
832.90 123.6492
833.00 124.454
833.10 125.2802
833.20 125.8868
833.30 126.1348
833.40 126.0378
833.50 125.7456
833.60 125.3585
833.70 124.9778
833.80 124.8977
833.90 125.4848
834.00 126.9115
834.10 128.9567
834.20 130.9691
834.30 132.2305
834.40 132.4402
834.50 131.7541
834.60 130.5972
834.70 129.4046
834.80 128.3078
834.90 127.2379
835.00 126.323
835.10 125.8766
835.20 126.1061
835.30 126.9488
835.40 128.1271
835.50 129.4094
835.60 130.8103
835.70 132.3814
835.80 133.9234
835.90 135.1179
836.00 135.7446
836.10 135.8909
836.20 136.0284
836.30 136.6728
836.40 138.0522
836.50 140.0417
836.60 142.1976
836.70 143.9968
836.80 144.9558
836.90 144.7419
837.00 143.3769
837.10 141.187
837.20 138.6288
837.30 136.2481
837.40 134.4754
837.50 133.3121
837.60 132.5678
837.70 132.1699
837.80 132.1189
837.90 132.2346
838.00 132.2936
838.10 132.2445
838.20 132.1762
838.30 132.1633
838.40 132.1828
838.50 132.2896
838.60 132.6354
838.70 133.2106
838.80 133.8292
838.90 134.4081
839.00 134.9127
839.10 135.2428
839.20 135.2957
839.30 135.2138
839.40 135.3315
839.50 135.925
839.60 137.1778
839.70 139.1836
839.80 141.7778
839.90 144.4654
840.00 146.7005
840.10 148.1528
840.20 148.7842
840.30 148.7467
840.40 148.2688
840.50 147.5351
840.60 146.7157
840.70 146.0401
840.80 145.7088
840.90 145.7275
841.00 146.0029
841.10 146.4615
841.20 147.11
841.30 147.9616
841.40 148.8395
841.50 149.5031
841.60 149.7828
841.70 149.5545
841.80 148.7248
841.90 147.437
842.00 146.0954
842.10 145.1011
842.20 144.656
842.30 144.7809
842.40 145.3263
842.50 146.066
842.60 146.9029
842.70 147.7533
842.80 148.5468
842.90 149.1807
843.00 149.4208
843.10 149.174
843.20 148.5621
843.30 147.6972
843.40 146.6104
843.50 145.245
843.60 143.4777
843.70 141.2679
843.80 138.7862
843.90 136.2951
844.00 133.9575
844.10 132.0235
844.20 130.7977
844.30 130.4709
844.40 131.0887
844.50 132.4372
844.60 134.2068
844.70 136.1408
844.80 137.9085
844.90 139.1823
845.00 139.7158
845.10 139.3583
845.20 138.1589
845.30 136.3179
845.40 134.0688
845.50 131.5975
845.60 129.1516
845.70 127.1314
845.80 125.8791
845.90 125.5751
846.00 126.1258
846.10 127.0764
846.20 127.8375
846.30 127.9416
846.40 127.3948
846.50 126.6735
846.60 126.179
846.70 126.0582
846.80 126.3493
846.90 127.0295
847.00 127.9651
847.10 128.7699
847.20 129.1078
847.30 128.8841
847.40 128.1637
847.50 127.1497
847.60 126.1228
847.70 125.3325
847.80 124.7668
847.90 124.1786
848.00 123.4254
848.10 122.5758
848.20 121.8392
848.30 121.4701
848.40 121.5557
848.50 122.0516
848.60 122.823
848.70 123.6437
848.80 124.3142
848.90 124.6951
849.00 124.7785
849.10 124.7394
849.20 124.8367
849.30 125.1943
849.40 125.7576
849.50 126.4323
849.60 127.0989
849.70 127.6568
849.80 128.0637
849.90 128.4187
850.00 128.9367
850.10 129.6834
850.20 130.4672
850.30 131.1047
850.40 131.5513
850.50 131.7756
850.60 131.7007
850.70 131.2738
850.80 130.5449
850.90 129.7077
851.00 129.051
851.10 128.7712
851.20 128.92
851.30 129.3238
851.40 129.5222
851.50 128.9203
851.60 126.9835
851.70 123.2894
851.80 117.6331
851.90 110.2433
852.00 101.8833
852.10 93.78463
852.20 87.36539
852.30 83.86338
852.40 83.9359
852.50 87.46321
852.60 93.7024
852.70 101.5494
852.80 109.7741
852.90 117.3227
853.00 123.5115
853.10 128.0368
853.20 130.9755
853.30 132.6972
853.40 133.6629
853.50 134.2609
853.60 134.7353
853.70 135.0597
853.80 135.1209
853.90 134.994
854.00 134.8539
854.10 134.7897
854.20 134.8393
854.30 135.0621
854.40 135.5186
854.50 136.416
854.60 138.075
854.70 140.6552
854.80 143.9786
854.90 147.5614
855.00 150.78
855.10 153.0421
855.20 153.9362
855.30 153.3211
855.40 151.346
855.50 148.4232
855.60 145.1767
855.70 142.286
855.80 140.3344
855.90 139.585
856.00 139.8669
856.10 140.8217
856.20 142.1917
856.30 143.7621
856.40 145.1798
856.50 146.0637
856.60 146.189
856.70 145.5225
856.80 144.2264
856.90 142.6721
857.00 141.2846
857.10 140.4514
857.20 140.3953
857.30 141.1179
857.40 142.5368
857.50 144.382
857.60 146.1567
857.70 147.4457
857.80 148.1726
857.90 148.5113
858.00 148.7011
858.10 148.9269
858.20 149.28
858.30 149.76
858.40 150.3124
858.50 150.8486
858.60 151.2419
858.70 151.4019
858.80 151.2787
858.90 150.9042
859.00 150.3968
859.10 149.9777
859.20 149.938
859.30 150.5071
859.40 151.7688
859.50 153.6906
859.60 155.967
859.70 158.0745
859.80 159.6239
859.90 160.3375
860.00 160.0473
860.10 158.7742
860.20 156.7779
860.30 154.4133
860.40 152.0009
860.50 149.7228
860.60 147.5385
860.70 145.2712
860.80 142.6145
860.90 139.1845
861.00 134.8382
861.10 129.708
861.20 123.9335
861.30 117.6874
861.40 111.3744
861.50 105.6252
861.60 100.9904
861.70 97.64348
861.80 95.35519
861.90 93.73845
862.00 92.37196
862.10 90.9299
862.20 89.34652
862.30 87.79913
862.40 86.56289
862.50 85.87277
862.60 85.79379
862.70 86.28345
862.80 87.1104
862.90 87.74281
863.00 87.53981
863.10 86.20472
863.20 84.0348
863.30 81.5523
863.40 79.26276
863.50 77.5944
863.60 76.77667
863.70 76.75358
863.80 77.29767
863.90 78.29663
864.00 79.84989
864.10 81.87982
864.20 83.99608
864.30 85.86873
864.40 87.4465
864.50 88.8226
864.60 90.04932
864.70 91.25927
864.80 92.70475
864.90 94.47816
865.00 96.48443
865.10 98.74065
865.20 101.3134
865.30 103.8045
865.40 105.5322
865.50 106.2604
865.60 106.4646
865.70 106.7846
865.80 107.4922
865.90 108.6071
866.00 110.1559
866.10 112.1467
866.20 114.4047
866.30 116.7153
866.40 118.8257
866.50 120.314
866.60 120.8094
866.70 120.4024
866.80 119.4601
866.90 118.128
867.00 116.3032
867.10 114.1247
867.20 112.1922
867.30 111.137
867.40 111.1991
867.50 112.2029
867.60 113.79
867.70 115.5017
867.80 116.8771
867.90 117.5582
868.00 117.2848
868.10 115.9842
868.20 113.9079
868.30 111.7089
868.40 110.2032
868.50 109.837
868.60 110.4383
868.70 111.4466
868.80 112.0968
868.90 111.6287
869.00 109.5112
869.10 105.6244
869.20 100.3578
869.30 94.54565
869.40 89.24882
869.50 85.37226
869.60 83.39788
869.70 83.35422
869.80 84.87259
869.90 87.29031
870.00 89.83164
870.10 91.87543
870.20 93.13586
870.30 93.5197
870.40 93.03304
870.50 91.76761
870.60 89.91676
870.70 87.63929
870.80 84.98145
870.90 82.10487
871.00 79.33665
871.10 77.0813
871.20 75.73721
871.30 75.48823
871.40 76.22781
871.50 77.62852
871.60 79.24861
871.70 80.68708
871.80 81.68404
871.90 82.17023
872.00 82.21413
872.10 82.00417
872.20 81.86597
872.30 82.11918
872.40 82.9944
872.50 84.52513
872.60 86.46793
872.70 88.5117
872.80 90.43708
872.90 92.07108
873.00 93.30487
873.10 94.12041
873.20 94.52185
873.30 94.58064
873.40 94.49367
873.50 94.50949
873.60 94.77933
873.70 95.33802
873.80 96.1508
873.90 97.19416
874.00 98.4828
874.10 99.92417
874.20 101.2918
874.30 102.3877
874.40 103.1019
874.50 103.3563
874.60 103.1899
874.70 102.7398
874.80 102.109
874.90 101.4317
875.00 100.95
875.10 100.8177
875.20 100.9474
875.30 101.1887
875.40 101.4937
875.50 101.9164
875.60 102.4629
875.70 102.9965
875.80 103.2404
875.90 103.0581
876.00 102.5627
876.10 101.8911
876.20 101.104
876.30 100.2361
876.40 99.34
876.50 98.62154
876.60 98.37427
876.70 98.64134
876.80 99.41974
876.90 100.8892
877.00 103.3311
877.10 107.019
877.20 111.9801
877.30 117.7969
877.40 123.697
877.50 128.632
877.60 131.4289
877.70 131.3899
877.80 128.7375
877.90 124.2141
878.00 118.744
878.10 113.4543
878.20 109.1289
878.30 105.9789
878.40 103.9484
878.50 102.8091
878.60 102.4463
878.70 102.9412
878.80 104.3352
878.90 106.6233
879.00 109.7696
879.10 113.4862
879.20 117.2741
879.30 120.6412
879.40 123.1816
879.50 124.6033
879.60 124.8224
879.70 124.0051
879.80 122.4238
879.90 120.3481
880.00 117.9294
880.10 115.1765
880.20 112.105
880.30 108.9343
880.40 106.1647
880.50 104.2907
880.60 103.3644
880.70 103.1836
880.80 103.7125
880.90 105.0764
881.00 107.4517
881.10 110.913
881.20 115.3765
881.30 120.6566
881.40 126.4242
881.50 132.2577
881.60 137.6508
881.70 142.0402
881.80 145.031
881.90 146.4021
882.00 146.2036
882.10 144.8122
882.20 142.7756
882.30 140.6783
882.40 138.8286
882.50 137.1501
882.60 135.5057
882.70 134.1331
882.80 133.3322
882.90 133.1027
883.00 133.314
883.10 133.8328
883.20 134.5591
883.30 135.5526
883.40 136.8745
883.50 138.3633
883.60 139.7646
883.70 140.8851
883.80 141.7726
883.90 142.6718
884.00 143.6133
884.10 143.9955
884.20 143.1293
884.30 140.7665
884.40 136.9311
884.50 131.9374
884.60 126.4393
884.70 121.358
884.80 117.6789
884.90 116.2371
885.00 117.4011
885.10 120.9532
885.20 126.123
885.30 131.7051
885.40 136.4239
885.50 139.4075
885.60 140.3041
885.70 139.1284
885.80 136.4493
885.90 133.4277
886.00 131.2979
886.10 130.7318
886.20 131.7552
886.30 134.0467
886.40 136.9966
886.50 139.6514
886.60 140.9817
886.70 140.3405
886.80 137.6836
886.90 133.3793
887.00 128.1515
887.10 123.0781
887.20 119.238
887.30 117.3424
887.40 117.705
887.50 120.4016
887.60 125.2241
887.70 131.5191
887.80 138.3338
887.90 144.7308
888.00 150.1214
888.10 154.1513
888.20 156.5458
888.30 157.2062
888.40 156.277
888.50 154.2993
888.60 152.2106
888.70 150.9081
888.80 150.6762
888.90 151.2915
889.00 152.2496
889.10 152.8665
889.20 152.4602
889.30 150.5131
889.40 146.7535
889.50 141.4141
889.60 135.4683
889.70 130.2906
889.80 127.0368
889.90 126.0464
890.00 126.7293
890.10 128.1335
890.20 129.5852
890.30 130.7473
890.40 131.44
890.50 131.629
890.60 131.4086
890.70 131.0037
890.80 130.7888
890.90 131.1824
891.00 132.347
891.10 134.2721
891.20 136.8882
891.30 140.1212
891.40 143.9113
891.50 148.0366
891.60 152.109
891.70 155.597
891.80 157.9379
891.90 158.6531
892.00 157.5663
892.10 154.9642
892.20 151.3558
892.30 147.3256
892.40 143.4678
892.50 140.1984
892.60 137.7991
892.70 136.5219
892.80 136.6486
892.90 138.4972
893.00 142.1411
893.10 147.2789
893.20 153.2849
893.30 159.3278
893.40 164.4776
893.50 167.7484
893.60 168.3239
893.70 165.6461
893.80 159.6418
893.90 151.0029
894.00 140.9602
894.10 130.6883
894.20 121.0388
894.30 112.8794
894.40 107.1674
894.50 104.4415
894.60 104.6548
894.70 107.4283
894.80 112.1262
894.90 117.9321
895.00 124.2003
895.10 130.6018
895.20 136.9294
895.30 143.1241
895.40 149.2918
895.50 155.6117
895.60 161.9922
895.70 167.8921
895.80 172.6706
895.90 175.7927
896.00 176.9425
896.10 175.9926
896.20 172.9911
896.30 168.32
896.40 162.6125
896.50 156.6707
896.60 151.3497
896.70 147.1974
896.80 144.4972
896.90 143.538
897.00 144.6405
897.10 147.778
897.20 152.3249
897.30 157.4691
897.40 162.396
897.50 166.3491
897.60 168.8845
897.70 169.8513
897.80 169.2933
897.90 167.5513
898.00 165.3676
898.10 163.6573
898.20 163.1221
898.30 164.1839
898.40 167.0746
898.50 171.5641
898.60 176.7014
898.70 180.9695
898.80 183.0718
898.90 182.6871
899.00 180.2581
899.10 176.6133
899.20 172.7413
899.30 169.4393
899.40 166.9746
899.50 165.1258
899.60 163.5688
899.70 162.0697
899.80 160.471
899.90 158.7917
900.00 158.7497
900.10 158.7077
900.20 158.6656
900.30 158.6236
900.40 158.5816
900.50 158.5396
900.60 158.4976
900.70 158.4556
900.80 158.4136
900.90 158.3715
901.00 158.3295
901.10 158.2875
901.20 158.2455
901.30 158.2035
901.40 158.1615
901.50 158.1195
901.60 158.0774
901.70 158.0354
901.80 157.9934
901.90 157.9514
902.00 157.9094
902.10 157.8674
902.20 157.8253
902.30 157.7833
902.40 157.7413
902.50 157.6993
902.60 157.7777
902.70 158.309
902.80 158.8403
902.90 159.3717
903.00 159.903
903.10 160.4343
903.20 160.9657
903.30 161.497
903.40 162.0283
903.50 162.5596
903.60 163.091
903.70 163.6223
903.80 164.1536
903.90 164.685
904.00 165.2163
904.10 165.7476
904.20 166.279
904.30 166.8103
904.40 167.3416
904.50 167.8729
904.60 168.4043
904.70 168.9356
904.80 169.4669
904.90 169.9983
905.00 170.5296
905.10 171.0609
905.20 171.5922
905.30 172.1236
905.40 172.6549
905.50 173.1862
905.60 173.7176
905.70 174.2489
905.80 174.7802
905.90 175.3115
906.00 175.8429
906.10 176.1872
906.20 176.5217
906.30 176.8562
906.40 177.1907
906.50 177.5252
906.60 177.8596
906.70 178.1941
906.80 178.5286
906.90 178.8631
907.00 179.1976
907.10 179.5321
907.20 179.8666
907.30 180.2011
907.40 180.5355
907.50 180.87
907.60 181.2045
907.70 181.539
907.80 181.8735
907.90 182.208
908.00 182.5425
908.10 182.877
908.20 183.2114
908.30 183.5459
908.40 183.8804
908.50 184.2149
908.60 184.5494
908.70 184.8839
908.80 185.2184
908.90 185.5529
909.00 185.8873
909.10 186.2218
909.20 186.5563
909.30 186.8908
909.40 187.2253
909.50 187.5364
909.60 187.8251
909.70 188.1138
909.80 188.4024
909.90 188.6911
910.00 188.9798
910.10 189.2685
910.20 189.5571
910.30 189.8458
910.40 190.1345
910.50 190.4232
910.60 190.7118
910.70 191.0005
910.80 191.2892
910.90 191.5778
911.00 191.8665
911.10 192.1552
911.20 192.4439
911.30 192.7325
911.40 193.0212
911.50 193.3099
911.60 193.5986
911.70 193.8872
911.80 194.1759
911.90 194.4646
912.00 194.7533
912.10 195.0419
912.20 195.3306
912.30 195.6193
912.40 195.908
912.50 196.1966
912.60 196.4853
912.70 196.774
912.80 197.0627
912.90 197.3513
913.00 197.4681
913.10 197.5614
913.20 197.6548
913.30 197.7481
913.40 197.8415
913.50 197.9348
913.60 198.0281
913.70 198.1215
913.80 198.2148
913.90 198.3082
914.00 198.4015
914.10 198.4948
914.20 198.5882
914.30 198.6815
914.40 198.7749
914.50 198.8682
914.60 198.9615
914.70 199.0549
914.80 199.1482
914.90 199.2415
915.00 199.3349
915.10 199.4282
915.20 199.5216
915.30 199.6149
915.40 199.7082
915.50 199.8016
915.60 199.8949
915.70 199.9883
915.80 200.0816
915.90 200.1749
916.00 200.2683
916.10 200.3616
916.20 200.4549
916.30 200.5483
916.40 200.6499
916.50 200.8465
916.60 201.043
916.70 201.2396
916.80 201.4362
916.90 201.6328
917.00 201.8293
917.10 202.0259
917.20 202.2225
917.30 202.4191
917.40 202.6156
917.50 202.8122
917.60 203.0088
917.70 203.2054
917.80 203.4019
917.90 203.5985
918.00 203.7951
918.10 203.9917
918.20 204.1882
918.30 204.3848
918.40 204.5814
918.50 204.778
918.60 204.9745
918.70 205.1711
918.80 205.3677
918.90 205.5643
919.00 205.7608
919.10 205.9574
919.20 206.154
919.30 206.3506
919.40 206.5472
919.50 206.7437
919.60 206.9403
919.70 207.1369
919.80 207.3335
919.90 207.5132
920.00 207.5418
920.10 207.5703
920.20 207.5988
920.30 207.6274
920.40 207.6559
920.50 207.6845
920.60 207.713
920.70 207.7415
920.80 207.7701
920.90 207.7986
921.00 207.8272
921.10 207.8557
921.20 207.8842
921.30 207.9128
921.40 207.9413
921.50 207.9699
921.60 207.9984
921.70 208.0269
921.80 208.0555
921.90 208.084
922.00 208.1126
922.10 208.1411
922.20 208.1696
922.30 208.1982
922.40 208.2267
922.50 208.2553
922.60 208.2838
922.70 208.3123
922.80 208.3409
922.90 208.3694
923.00 208.398
923.10 208.4265
923.20 208.455
923.30 208.4836
923.40 208.5121
923.50 208.883
923.60 209.2758
923.70 209.6685
923.80 210.0613
923.90 210.454
924.00 210.8468
924.10 211.2395
924.20 211.6323
924.30 212.025
924.40 212.4178
924.50 212.8105
924.60 213.2033
924.70 213.596
924.80 213.9888
924.90 214.3815
925.00 214.7743
925.10 215.167
925.20 215.5598
925.30 215.9525
925.40 216.3453
925.50 216.738
925.60 217.1308
925.70 217.5235
925.80 217.9163
925.90 218.309
926.00 218.7018
926.10 219.0945
926.20 219.4873
926.30 219.88
926.40 220.2728
926.50 220.6655
926.60 221.0582
926.70 221.451
926.80 221.8437
926.90 222.2365
927.00 222.4718
927.10 222.6064
927.20 222.7411
927.30 222.8757
927.40 223.0103
927.50 223.145
927.60 223.2796
927.70 223.4142
927.80 223.5489
927.90 223.6835
928.00 223.8182
928.10 223.9528
928.20 224.0874
928.30 224.2221
928.40 224.3567
928.50 224.4913
928.60 224.626
928.70 224.7606
928.80 224.8952
928.90 225.0299
929.00 225.1645
929.10 225.2992
929.20 225.4338
929.30 225.5684
929.40 225.7031
929.50 225.8377
929.60 225.9723
929.70 226.107
929.80 226.2416
929.90 226.3762
930.00 226.5109
930.10 226.6455
930.20 226.7801
930.30 226.9148
930.40 227.0494
930.50 227.1756
930.60 227.2337
930.70 227.2918
930.80 227.3499
930.90 227.4081
931.00 227.4662
931.10 227.5243
931.20 227.5824
931.30 227.6405
931.40 227.6986
931.50 227.7567
931.60 227.8148
931.70 227.8729
931.80 227.931
931.90 227.9891
932.00 228.0472
932.10 228.1053
932.20 228.1634
932.30 228.2215
932.40 228.2796
932.50 228.3377
932.60 228.3958
932.70 228.4539
932.80 228.512
932.90 228.5701
933.00 228.6282
933.10 228.6863
933.20 228.7444
933.30 228.8025
933.40 228.8606
933.50 228.9187
933.60 228.9769
933.70 229.035
933.80 229.0931
933.90 229.1512
934.00 229.2093
934.10 229.3593
934.20 229.6262
934.30 229.8931
934.40 230.1601
934.50 230.427
934.60 230.6939
934.70 230.9609
934.80 231.2278
934.90 231.4947
935.00 231.7617
935.10 232.0286
935.20 232.2955
935.30 232.5625
935.40 232.8294
935.50 233.0964
935.60 233.3633
935.70 233.6302
935.80 233.8972
935.90 234.1641
936.00 234.431
936.10 234.698
936.20 234.9649
936.30 235.2318
936.40 235.4988
936.50 235.7657
936.60 236.0327
936.70 236.2996
936.80 236.5665
936.90 236.8335
937.00 237.1004
937.10 237.3673
937.20 237.6343
937.30 237.9012
937.40 238.1681
937.50 238.4351
937.60 238.702
937.70 238.9218
937.80 239.1103
937.90 239.2987
938.00 239.4871
938.10 239.6756
938.20 239.864
938.30 240.0524
938.40 240.2408
938.50 240.4293
938.60 240.6177
938.70 240.8061
938.80 240.9946
938.90 241.183
939.00 241.3714
939.10 241.5598
939.20 241.7483
939.30 241.9367
939.40 242.1251
939.50 242.3136
939.60 242.502
939.70 242.6904
939.80 242.8788
939.90 243.0673
940.00 243.2557
940.10 243.4441
940.20 243.6326
940.30 243.821
940.40 244.0094
940.50 244.1978
940.60 244.3863
940.70 244.5747
940.80 244.7631
940.90 244.9516
941.00 245.14
941.10 245.3284
941.20 245.5168
941.30 245.8033
941.40 246.1579
941.50 246.5124
941.60 246.867
941.70 247.2216
941.80 247.5762
941.90 247.9307
942.00 248.2853
942.10 248.6399
942.20 248.9944
942.30 249.349
942.40 249.7036
942.50 250.0582
942.60 250.4127
942.70 250.7673
942.80 251.1219
942.90 251.4765
943.00 251.831
943.10 252.1856
943.20 252.5402
943.30 252.8947
943.40 253.2493
943.50 253.6039
943.60 253.9585
943.70 254.313
943.80 254.6676
943.90 255.0222
944.00 255.3767
944.10 255.7313
944.20 256.0859
944.30 256.4405
944.40 256.795
944.50 257.1496
944.60 257.5042
944.70 257.8587
944.80 258.2133
944.90 258.531
945.00 258.7956
945.10 259.0603
945.20 259.3249
945.30 259.5895
945.40 259.8541
945.50 260.1187
945.60 260.3834
945.70 260.648
945.80 260.9126
945.90 261.1772
946.00 261.4418
946.10 261.7065
946.20 261.9711
946.30 262.2357
946.40 262.5003
946.50 262.765
946.60 263.0296
946.70 263.2942
946.80 263.5588
946.90 263.8234
947.00 264.0881
947.10 264.3527
947.20 264.6173
947.30 264.8819
947.40 265.1465
947.50 265.4112
947.60 265.6758
947.70 265.9404
947.80 266.205
947.90 266.4697
948.00 266.7343
948.10 266.9989
948.20 267.2635
948.30 267.5281
948.40 267.7928
948.50 268.036
948.60 267.9957
948.70 267.9554
948.80 267.9152
948.90 267.8749
949.00 267.8346
949.10 267.7943
949.20 267.754
949.30 267.7137
949.40 267.6734
949.50 267.6331
949.60 267.5928
949.70 267.5525
949.80 267.5122
949.90 267.4719
950.00 267.4316
950.10 267.3913
950.20 267.351
950.30 267.3107
950.40 267.2704
950.50 267.2301
950.60 267.1898
950.70 267.1495
950.80 267.1092
950.90 267.0689
951.00 267.0286
951.10 266.9883
951.20 266.9481
951.30 266.9078
951.40 266.8675
951.50 266.8272
951.60 266.7869
951.70 266.7466
951.80 266.7063
951.90 266.666
952.00 266.6257
952.10 266.5854
952.20 266.6759
952.30 266.8692
952.40 267.0624
952.50 267.2557
952.60 267.449
952.70 267.6422
952.80 267.8355
952.90 268.0287
953.00 268.222
953.10 268.4153
953.20 268.6085
953.30 268.8018
953.40 268.9951
953.50 269.1883
953.60 269.3816
953.70 269.5749
953.80 269.7681
953.90 269.9614
954.00 270.1547
954.10 270.3479
954.20 270.5412
954.30 270.7345
954.40 270.9277
954.50 271.121
954.60 271.3143
954.70 271.5075
954.80 271.7008
954.90 271.894
955.00 272.0873
955.10 272.2806
955.20 272.4738
955.30 272.6671
955.40 272.8604
955.50 273.0536
955.60 273.2469
955.70 273.4402
955.80 273.6334
955.90 273.6888
956.00 273.7287
956.10 273.7687
956.20 273.8087
956.30 273.8487
956.40 273.8887
956.50 273.9287
956.60 273.9687
956.70 274.0087
956.80 274.0487
956.90 274.0887
957.00 274.1287
957.10 274.1687
957.20 274.2087
957.30 274.2487
957.40 274.2887
957.50 274.3287
957.60 274.3687
957.70 274.4087
957.80 274.4486
957.90 274.4886
958.00 274.5286
958.10 274.5686
958.20 274.6086
958.30 274.6486
958.40 274.6886
958.50 274.7286
958.60 274.7686
958.70 274.8086
958.80 274.8486
958.90 274.8886
959.00 274.9286
959.10 274.9686
959.20 275.0086
959.30 275.0486
959.40 275.0886
959.50 275.127
959.60 275.1449
959.70 275.1628
959.80 275.1806
959.90 275.1985
960.00 275.2164
960.10 275.2342
960.20 275.2521
960.30 275.27
960.40 275.2879
960.50 275.3057
960.60 275.3236
960.70 275.3415
960.80 275.3594
960.90 275.3772
961.00 275.3951
961.10 275.413
961.20 275.4309
961.30 275.4487
961.40 275.4666
961.50 275.4845
961.60 275.5023
961.70 275.5202
961.80 275.5381
961.90 275.556
962.00 275.5738
962.10 275.5917
962.20 275.6096
962.30 275.6275
962.40 275.6453
962.50 275.6632
962.60 275.6811
962.70 275.699
962.80 275.7168
962.90 275.7347
963.00 275.7526
963.10 275.7704
963.20 275.8109
963.30 276.08
963.40 276.3491
963.50 276.6181
963.60 276.8872
963.70 277.1563
963.80 277.4253
963.90 277.6944
964.00 277.9635
964.10 278.2325
964.20 278.5016
964.30 278.7707
964.40 279.0397
964.50 279.3088
964.60 279.5779
964.70 279.8469
964.80 280.116
964.90 280.3851
965.00 280.6541
965.10 280.9232
965.20 281.1923
965.30 281.4613
965.40 281.7304
965.50 281.9995
965.60 282.2686
965.70 282.5376
965.80 282.8067
965.90 283.0758
966.00 283.3448
966.10 283.6139
966.20 283.883
966.30 284.152
966.40 284.4211
966.50 284.6902
966.60 284.9592
966.70 285.2283
966.80 285.4974
966.90 285.7664
967.00 285.9954
967.10 286.2222
967.20 286.449
967.30 286.6758
967.40 286.9027
967.50 287.1295
967.60 287.3563
967.70 287.5831
967.80 287.81
967.90 288.0368
968.00 288.2636
968.10 288.4904
968.20 288.7173
968.30 288.9441
968.40 289.1709
968.50 289.3977
968.60 289.6246
968.70 289.8514
968.80 290.0782
968.90 290.305
969.00 290.5319
969.10 290.7587
969.20 290.9855
969.30 291.2123
969.40 291.4392
969.50 291.666
969.60 291.8928
969.70 292.1196
969.80 292.3465
969.90 292.5733
970.00 292.8001
970.10 293.0269
970.20 293.2538
970.30 293.4806
970.40 293.7074
970.50 293.9342
970.60 294.1611
970.70 294.6555
970.80 295.294
970.90 295.9325
971.00 296.5711
971.10 297.2096
971.20 297.8481
971.30 298.4866
971.40 299.1252
971.50 299.7637
971.60 300.4022
971.70 301.0407
971.80 301.6793
971.90 302.3178
972.00 302.9563
972.10 303.5948
972.20 304.2334
972.30 304.8719
972.40 305.5104
972.50 306.1489
972.60 306.7874
972.70 307.426
972.80 308.0645
972.90 308.703
973.00 309.3415
973.10 309.9801
973.20 310.6186
973.30 311.2571
973.40 311.8956
973.50 312.5342
973.60 313.1727
973.70 313.8112
973.80 314.4497
973.90 315.0883
974.00 315.7268
974.10 316.3653
974.20 317.0038
974.30 317.6423
974.40 318.1197
974.50 317.9907
974.60 317.8617
974.70 317.7327
974.80 317.6037
974.90 317.4747
975.00 317.3457
975.10 317.2166
975.20 317.0876
975.30 316.9586
975.40 316.8296
975.50 316.7006
975.60 316.5716
975.70 316.4426
975.80 316.3136
975.90 316.1846
976.00 316.0556
976.10 315.9266
976.20 315.7976
976.30 315.6686
976.40 315.5396
976.50 315.4106
976.60 315.2816
976.70 315.1526
976.80 315.0236
976.90 314.8945
977.00 314.7655
977.10 314.6365
977.20 314.5075
977.30 314.3785
977.40 314.2495
977.50 314.1205
977.60 313.9915
977.70 313.8625
977.80 313.7335
977.90 313.6045
978.00 313.4755
978.10 313.3465
978.20 313.2383
978.30 313.1433
978.40 313.0484
978.50 312.9535
978.60 312.8586
978.70 312.7636
978.80 312.6687
978.90 312.5738
979.00 312.4789
979.10 312.3839
979.20 312.289
979.30 312.1941
979.40 312.0991
979.50 312.0042
979.60 311.9093
979.70 311.8144
979.80 311.7194
979.90 311.6245
980.00 311.5296
980.10 311.4347
980.20 311.3397
980.30 311.2448
980.40 311.1499
980.50 311.055
980.60 310.96
980.70 310.8651
980.80 310.7702
980.90 310.6752
981.00 310.5803
981.10 310.4854
981.20 310.3905
981.30 310.2955
981.40 310.2006
981.50 310.1057
981.60 310.0108
981.70 309.9158
981.80 309.8209
981.90 309.726
982.00 309.498
982.10 309.2484
982.20 308.9987
982.30 308.7491
982.40 308.4995
982.50 308.2498
982.60 308.0002
982.70 307.7506
982.80 307.5009
982.90 307.2513
983.00 307.0017
983.10 306.752
983.20 306.5024
983.30 306.2528
983.40 306.0031
983.50 305.7535
983.60 305.5039
983.70 305.2542
983.80 305.0046
983.90 304.755
984.00 304.5053
984.10 304.2557
984.20 304.0061
984.30 303.7564
984.40 303.5068
984.50 303.2572
984.60 303.0075
984.70 302.7579
984.80 302.5083
984.90 302.2586
985.00 302.009
985.10 301.7594
985.20 301.5097
985.30 301.2601
985.40 301.0105
985.50 300.7608
985.60 300.5112
985.70 300.2615
985.80 299.5309
985.90 298.7854
986.00 298.04
986.10 297.2945
986.20 296.549
986.30 295.8035
986.40 295.058
986.50 294.3125
986.60 293.567
986.70 292.8215
986.80 292.076
986.90 291.3305
987.00 290.5851
987.10 289.8396
987.20 289.0941
987.30 288.3486
987.40 287.6031
987.50 286.8576
987.60 286.1121
987.70 285.3666
987.80 284.6211
987.90 283.8756
988.00 283.1302
988.10 282.3847
988.20 281.6392
988.30 280.8937
988.40 280.1482
988.50 279.4027
988.60 278.6572
988.70 277.9117
988.80 277.1662
988.90 276.4208
989.00 275.6753
989.10 274.9298
989.20 274.1843
989.30 273.4388
989.40 272.6933
989.50 271.9478
989.60 271.3343
989.70 270.7307
989.80 270.1271
989.90 269.5235
990.00 268.92
990.10 268.3164
990.20 267.7128
990.30 267.1092
990.40 266.5056
990.50 265.902
990.60 265.2984
990.70 264.6948
990.80 264.0913
990.90 263.4877
991.00 262.8841
991.10 262.2805
991.20 261.6769
991.30 261.0733
991.40 260.4697
991.50 259.8662
991.60 259.2626
991.70 258.659
991.80 258.0554
991.90 257.4518
992.00 256.8482
992.10 256.2446
992.20 255.6411
992.30 255.0375
992.40 254.4339
992.50 253.8303
992.60 253.2267
992.70 252.6231
992.80 252.0195
992.90 251.416
993.00 250.8124
993.10 250.2088
993.20 249.6052
993.30 249.0016
993.40 248.518
993.50 248.0743
993.60 247.6307
993.70 247.187
993.80 246.7433
993.90 246.2997
994.00 245.856
994.10 245.4124
994.20 244.9687
994.30 244.525
994.40 244.0814
994.50 243.6377
994.60 243.1941
994.70 242.7504
994.80 242.3068
994.90 241.8631
995.00 241.4194
995.10 240.9758
995.20 240.5321
995.30 240.0885
995.40 239.6448
995.50 239.2011
995.60 238.7575
995.70 238.3138
995.80 237.8702
995.90 237.4265
996.00 236.9829
996.10 236.5392
996.20 236.0955
996.30 235.6519
996.40 235.2082
996.50 234.7646
996.60 234.3209
996.70 233.8772
996.80 233.4336
996.90 232.9899
997.00 232.5463
997.10 232.1026
997.20 231.9757
997.30 232.2863
997.40 232.5969
997.50 232.9075
997.60 233.2181
997.70 233.5287
997.80 233.8392
997.90 234.1498
998.00 234.4604
998.10 234.771
998.20 235.0816
998.30 235.3922
998.40 235.7028
998.50 236.0133
998.60 236.3239
998.70 236.6345
998.80 236.9451
998.90 237.2557
999.00 237.5663
999.10 237.8769
999.20 238.1874
999.30 238.498
999.40 238.8086
999.50 239.1192
999.60 239.4298
999.70 239.7404
999.80 240.051
999.90 240.3615
1000.00 240.6721
1000.10 240.9827
1000.20 241.2933
1000.30 241.6039
1000.40 241.9145
1000.50 242.2251
1000.60 242.5356
1000.70 242.8462
1000.80 243.1568
1000.90 243.4674
1001.00 243.778
1001.10 244.016
1001.20 244.254
1001.30 244.492
1001.40 244.73
1001.50 244.9679
1001.60 245.2059
1001.70 245.4439
1001.80 245.6819
1001.90 245.9199
1002.00 246.1579
1002.10 246.3959
1002.20 246.6339
1002.30 246.8719
1002.40 247.1099
1002.50 247.3479
1002.60 247.5859
1002.70 247.8239
1002.80 248.0619
1002.90 248.2999
1003.00 248.5378
1003.10 248.7758
1003.20 249.0138
1003.30 249.2518
1003.40 249.4898
1003.50 249.7278
1003.60 249.9658
1003.70 250.2038
1003.80 250.4418
1003.90 250.6798
1004.00 250.9178
1004.10 251.1558
1004.20 251.3938
1004.30 251.6318
1004.40 251.8698
1004.50 252.1077
1004.60 252.3457
1004.70 252.5837
1004.80 252.8217
1004.90 253.1042
1005.00 253.4533
1005.10 253.8025
1005.20 254.1516
1005.30 254.5007
1005.40 254.8499
1005.50 255.199
1005.60 255.5481
1005.70 255.8973
1005.80 256.2464
1005.90 256.5956
1006.00 256.9447
1006.10 257.2938
1006.20 257.643
1006.30 257.9921
1006.40 258.3412
1006.50 258.6904
1006.60 259.0395
1006.70 259.3887
1006.80 259.7378
1006.90 260.0869
1007.00 260.4361
1007.10 260.7852
1007.20 261.1344
1007.30 261.4835
1007.40 261.8326
1007.50 262.1818
1007.60 262.5309
1007.70 262.88
1007.80 263.2292
1007.90 263.5783
1008.00 263.9275
1008.10 264.2766
1008.20 264.6257
1008.30 264.9749
1008.40 265.324
1008.50 265.6731
1008.60 266.0223
1008.70 266.3714
1008.80 266.6989
1008.90 267.0118
1009.00 267.3248
1009.10 267.6377
1009.20 267.9507
1009.30 268.2636
1009.40 268.5766
1009.50 268.8896
1009.60 269.2025
1009.70 269.5155
1009.80 269.8284
1009.90 270.1414
1010.00 270.4544
1010.10 270.7673
1010.20 271.0803
1010.30 271.3932
1010.40 271.7062
1010.50 272.0191
1010.60 272.3321
1010.70 272.6451
1010.80 272.958
1010.90 273.271
1011.00 273.5839
1011.10 273.8969
1011.20 274.2099
1011.30 274.5228
1011.40 274.8358
1011.50 275.1487
1011.60 275.4617
1011.70 275.7746
1011.80 276.0876
1011.90 276.4006
1012.00 276.7135
1012.10 277.0265
1012.20 277.3394
1012.30 277.6524
1012.40 277.9653
1012.50 278.2783
1012.60 278.5913
1012.70 278.7767
1012.80 278.9303
1012.90 279.0839
1013.00 279.2375
1013.10 279.391
1013.20 279.5446
1013.30 279.6982
1013.40 279.8518
1013.50 280.0053
1013.60 280.1589
1013.70 280.3125
1013.80 280.4661
1013.90 280.6196
1014.00 280.7732
1014.10 280.9268
1014.20 281.0804
1014.30 281.234
1014.40 281.3875
1014.50 281.5411
1014.60 281.6947
1014.70 281.8483
1014.80 282.0018
1014.90 282.1554
1015.00 282.309
1015.10 282.4626
1015.20 282.6162
1015.30 282.7697
1015.40 282.9233
1015.50 283.0769
1015.60 283.2305
1015.70 283.384
1015.80 283.5376
1015.90 283.6912
1016.00 283.8448
1016.10 283.9984
1016.20 284.1519
1016.30 284.3055
1016.40 284.4591
1016.50 284.6127
1016.60 284.5522
1016.70 284.4382
1016.80 284.3242
1016.90 284.2102
1017.00 284.0962
1017.10 283.9822
1017.20 283.8682
1017.30 283.7541
1017.40 283.6401
1017.50 283.5261
1017.60 283.4121
1017.70 283.2981
1017.80 283.1841
1017.90 283.0701
1018.00 282.9561
1018.10 282.8421
1018.20 282.7281
1018.30 282.6141
1018.40 282.5001
1018.50 282.3861
1018.60 282.2721
1018.70 282.1581
1018.80 282.0441
1018.90 281.9301
1019.00 281.8161
1019.10 281.7021
1019.20 281.5881
1019.30 281.4741
1019.40 281.3601
1019.50 281.2461
1019.60 281.132
1019.70 281.018
1019.80 280.904
1019.90 280.79
1020.00 280.676
1020.10 280.562
1020.20 280.448
1020.30 280.334
1020.40 280.22
1020.50 280.4203
1020.60 280.8301
1020.70 281.24
1020.80 281.6498
1020.90 282.0596
1021.00 282.4694
1021.10 282.8793
1021.20 283.2891
1021.30 283.6989
1021.40 284.1087
1021.50 284.5186
1021.60 284.9284
1021.70 285.3382
1021.80 285.748
1021.90 286.1579
1022.00 286.5677
1022.10 286.9775
1022.20 287.3873
1022.30 287.7972
1022.40 288.207
1022.50 288.6168
1022.60 289.0266
1022.70 289.4365
1022.80 289.8463
1022.90 290.2561
1023.00 290.6659
1023.10 291.0758
1023.20 291.4856
1023.30 291.8954
1023.40 292.3053
1023.50 292.7151
1023.60 293.1249
1023.70 293.5347
1023.80 293.9446
1023.90 294.3544
1024.00 294.7642
1024.10 295.174
1024.20 295.5839
1024.30 295.9937
1024.40 296.2446
1024.50 296.257
1024.60 296.2695
1024.70 296.2819
1024.80 296.2944
1024.90 296.3068
1025.00 296.3193
1025.10 296.3317
1025.20 296.3442
1025.30 296.3566
1025.40 296.3691
1025.50 296.3815
1025.60 296.394
1025.70 296.4064
1025.80 296.4189
1025.90 296.4313
1026.00 296.4438
1026.10 296.4562
1026.20 296.4687
1026.30 296.4811
1026.40 296.4936
1026.50 296.506
1026.60 296.5185
1026.70 296.5309
1026.80 296.5434
1026.90 296.5559
1027.00 296.5683
1027.10 296.5808
1027.20 296.5932
1027.30 296.6057
1027.40 296.6181
1027.50 296.6306
1027.60 296.643
1027.70 296.6555
1027.80 296.6679
1027.90 296.6804
1028.00 296.6928
1028.10 296.7053
1028.20 296.7177
1028.30 296.7302
1028.40 297.1524
1028.50 297.5746
1028.60 297.9968
1028.70 298.419
1028.80 298.8412
1028.90 299.2634
1029.00 299.6857
1029.10 300.1079
1029.20 300.5301
1029.30 300.9523
1029.40 301.3745
1029.50 301.7967
1029.60 302.2189
1029.70 302.6411
1029.80 303.0633
1029.90 303.4856
1030.00 303.9078
1030.10 304.33
1030.20 304.7522
1030.30 305.1744
1030.40 305.5966
1030.50 306.0188
1030.60 306.441
1030.70 306.8633
1030.80 307.2855
1030.90 307.7077
1031.00 308.1299
1031.10 308.5521
1031.20 308.9743
1031.30 309.3965
1031.40 309.8187
1031.50 310.2409
1031.60 310.6632
1031.70 311.0854
1031.80 311.5076
1031.90 311.9298
1032.00 312.352
1032.10 312.7742
1032.20 313.1964
1032.30 313.4942
1032.40 313.6675
1032.50 313.8408
1032.60 314.0141
1032.70 314.1874
1032.80 314.3607
1032.90 314.534
1033.00 314.7072
1033.10 314.8805
1033.20 315.0538
1033.30 315.2271
1033.40 315.4004
1033.50 315.5737
1033.60 315.747
1033.70 315.9203
1033.80 316.0936
1033.90 316.2669
1034.00 316.4402
1034.10 316.6135
1034.20 316.7868
1034.30 316.9601
1034.40 317.1334
1034.50 317.3067
1034.60 317.48
1034.70 317.6533
1034.80 317.8266
1034.90 317.9999
1035.00 318.1732
1035.10 318.3464
1035.20 318.5197
1035.30 318.693
1035.40 318.8663
1035.50 319.0396
1035.60 319.2129
1035.70 319.3862
1035.80 319.5595
1035.90 319.7328
1036.00 319.9061
1036.10 320.0794
1036.20 320.2527
1036.30 320.5884
1036.40 320.9647
1036.50 321.3409
1036.60 321.7172
1036.70 322.0935
1036.80 322.4698
1036.90 322.8461
1037.00 323.2223
1037.10 323.5986
1037.20 323.9749
1037.30 324.3512
1037.40 324.7275
1037.50 325.1037
1037.60 325.48
1037.70 325.8563
1037.80 326.2326
1037.90 326.6089
1038.00 326.9851
1038.10 327.3614
1038.20 327.7377
1038.30 328.114
1038.40 328.4902
1038.50 328.8665
1038.60 329.2428
1038.70 329.6191
1038.80 329.9954
1038.90 330.3716
1039.00 330.7479
1039.10 331.1242
1039.20 331.5005
1039.30 331.8768
1039.40 332.253
1039.50 332.6293
1039.60 333.0056
1039.70 333.3819
1039.80 333.7582
1039.90 334.1344
1040.00 334.5107
1040.10 334.887
1040.20 335.2711
1040.30 335.7254
1040.40 336.1797
1040.50 336.634
1040.60 337.0883
1040.70 337.5426
1040.80 337.9969
1040.90 338.4512
1041.00 338.9055
1041.10 339.3598
1041.20 339.8142
1041.30 340.2685
1041.40 340.7228
1041.50 341.1771
1041.60 341.6314
1041.70 342.0857
1041.80 342.54
1041.90 342.9943
1042.00 343.4486
1042.10 343.9029
1042.20 344.3572
1042.30 344.8115
1042.40 345.2659
1042.50 345.7202
1042.60 346.1745
1042.70 346.6288
1042.80 347.0831
1042.90 347.5374
1043.00 347.9917
1043.10 348.446
1043.20 348.9003
1043.30 349.3546
1043.40 349.8089
1043.50 350.2632
1043.60 350.7175
1043.70 351.1719
1043.80 351.6262
1043.90 352.0805
1044.00 352.5348
1044.10 352.9891
1044.20 353.3619
1044.30 353.4089
1044.40 353.4559
1044.50 353.5029
1044.60 353.5499
1044.70 353.5969
1044.80 353.6439
1044.90 353.6909
1045.00 353.7379
1045.10 353.7849
1045.20 353.8319
1045.30 353.8789
1045.40 353.9259
1045.50 353.9729
1045.60 354.0199
1045.70 354.0669
1045.80 354.1139
1045.90 354.1608
1046.00 354.2078
1046.10 354.2548
1046.20 354.3018
1046.30 354.3488
1046.40 354.3958
1046.50 354.4428
1046.60 354.4898
1046.70 354.5368
1046.80 354.5838
1046.90 354.6308
1047.00 354.6778
1047.10 354.7248
1047.20 354.7718
1047.30 354.8188
1047.40 354.8658
1047.50 354.9128
1047.60 354.9598
1047.70 355.0068
1047.80 355.0538
1047.90 355.1008
1048.00 355.1477
1048.10 355.1947
1048.20 355.1914
1048.30 355.0707
1048.40 354.95
1048.50 354.8294
1048.60 354.7087
1048.70 354.588
1048.80 354.4673
1048.90 354.3466
1049.00 354.2259
1049.10 354.1052
1049.20 353.9845
1049.30 353.8638
1049.40 353.7431
1049.50 353.6224
1049.60 353.5017
1049.70 353.381
1049.80 353.2604
1049.90 353.1397
1050.00 353.019
1050.10 352.8983
1050.20 352.7776
1050.30 352.6569
1050.40 352.5362
1050.50 352.4155
1050.60 352.2948
1050.70 352.1741
1050.80 352.0534
1050.90 351.9327
1051.00 351.812
1051.10 351.6913
1051.20 351.5707
1051.30 351.45
1051.40 351.3293
1051.50 351.2086
1051.60 351.0879
1051.70 350.9672
1051.80 350.8465
1051.90 350.7258
1052.00 350.6051
1052.10 350.4844
1052.20 350.4966
1052.30 351.0403
1052.40 351.5841
1052.50 352.1278
1052.60 352.6715
1052.70 353.2152
1052.80 353.759
1052.90 354.3027
1053.00 354.8464
1053.10 355.3902
1053.20 355.9339
1053.30 356.4776
1053.40 357.0213
1053.50 357.5651
1053.60 358.1088
1053.70 358.6525
1053.80 359.1963
1053.90 359.74
1054.00 360.2837
1054.10 360.8274
1054.20 361.3712
1054.30 361.9149
1054.40 362.4586
1054.50 363.0023
1054.60 363.5461
1054.70 364.0898
1054.80 364.6335
1054.90 365.1773
1055.00 365.721
1055.10 366.2647
1055.20 366.8084
1055.30 367.3522
1055.40 367.8959
1055.50 368.4396
1055.60 368.9833
1055.70 369.5271
1055.80 370.0708
1055.90 370.6145
1056.00 371.1583
1056.10 371.702
1056.20 372.2457
1056.30 372.2032
1056.40 372.1608
1056.50 372.1183
1056.60 372.0758
1056.70 372.0333
1056.80 371.9908
1056.90 371.9483
1057.00 371.9059
1057.10 371.8634
1057.20 371.8209
1057.30 371.7784
1057.40 371.7359
1057.50 371.6935
1057.60 371.651
1057.70 371.6085
1057.80 371.566
1057.90 371.5235
1058.00 371.4811
1058.10 371.4386
1058.20 371.3961
1058.30 371.3536
1058.40 371.3111
1058.50 371.2687
1058.60 371.2262
1058.70 371.1837
1058.80 371.1412
1058.90 371.0987
1059.00 371.0563
1059.10 371.0138
1059.20 370.9713
1059.30 370.9288
1059.40 370.8863
1059.50 370.8439
1059.60 370.8014
1059.70 370.7589
1059.80 370.7164
1059.90 370.6739
1060.00 370.6315
1060.10 370.589
1060.20 370.5465
1060.30 370.674
1060.40 370.9148
1060.50 371.1556
1060.60 371.3964
1060.70 371.6372
1060.80 371.878
1060.90 372.1188
1061.00 372.3596
1061.10 372.6004
1061.20 372.8412
1061.30 373.082
1061.40 373.3228
1061.50 373.5636
1061.60 373.8044
1061.70 374.0452
1061.80 374.286
1061.90 374.5268
1062.00 374.7676
1062.10 375.0084
1062.20 375.2492
1062.30 375.49
1062.40 375.7308
1062.50 375.9716
1062.60 376.2124
1062.70 376.4532
1062.80 376.694
1062.90 376.9348
1063.00 377.1756
1063.10 377.4164
1063.20 377.6572
1063.30 377.898
1063.40 378.1388
1063.50 378.3796
1063.60 378.6204
1063.70 378.8612
1063.80 379.102
1063.90 379.3428
1064.00 379.5836
1064.10 379.8244
1064.20 380.0652
1064.30 380.2929
1064.40 380.4682
1064.50 380.6435
1064.60 380.8188
1064.70 380.9941
1064.80 381.1694
1064.90 381.3448
1065.00 381.5201
1065.10 381.6954
1065.20 381.8707
1065.30 382.046
1065.40 382.2213
1065.50 382.3966
1065.60 382.5719
1065.70 382.7473
1065.80 382.9226
1065.90 383.0979
1066.00 383.2732
1066.10 383.4485
1066.20 383.6238
1066.30 383.7991
1066.40 383.9744
1066.50 384.1498
1066.60 384.3251
1066.70 384.5004
1066.80 384.6757
1066.90 384.851
1067.00 385.0263
1067.10 385.2016
1067.20 385.3769
1067.30 385.5523
1067.40 385.7276
1067.50 385.9029
1067.60 386.0782
1067.70 386.2535
1067.80 386.4288
1067.90 386.6041
1068.00 386.7794
1068.10 386.9547
1068.20 387.1301
1068.30 387.3054
1068.40 387.6354
1068.50 388.0317
1068.60 388.428
1068.70 388.8243
1068.80 389.2207
1068.90 389.617
1069.00 390.0133
1069.10 390.4096
1069.20 390.8059
1069.30 391.2022
1069.40 391.5986
1069.50 391.9949
1069.60 392.3912
1069.70 392.7875
1069.80 393.1838
1069.90 393.5801
1070.00 393.9765
1070.10 394.3728
1070.20 394.7691
1070.30 395.1654
1070.40 395.5617
1070.50 395.958
1070.60 396.3543
1070.70 396.7507
1070.80 397.147
1070.90 397.5433
1071.00 397.9396
1071.10 398.3359
1071.20 398.7322
1071.30 399.1286
1071.40 399.5249
1071.50 399.9212
1071.60 400.3175
1071.70 400.7138
1071.80 401.1101
1071.90 401.5065
1072.00 401.9028
1072.10 402.2991
1072.20 402.6954
1072.30 403.0917
1072.40 403.4545
1072.50 403.5149
1072.60 403.5754
1072.70 403.6358
1072.80 403.6962
1072.90 403.7567
1073.00 403.8171
1073.10 403.8776
1073.20 403.938
1073.30 403.9985
1073.40 404.0589
1073.50 404.1194
1073.60 404.1798
1073.70 404.2403
1073.80 404.3007
1073.90 404.3612
1074.00 404.4216
1074.10 404.4821
1074.20 404.5425
1074.30 404.603
1074.40 404.6634
1074.50 404.7239
1074.60 404.7843
1074.70 404.8448
1074.80 404.9052
1074.90 404.9656
1075.00 405.0261
1075.10 405.0865
1075.20 405.147
1075.30 405.2074
1075.40 405.2679
1075.50 405.3283
1075.60 405.3888
1075.70 405.4492
1075.80 405.5097
1075.90 405.5701
1076.00 405.6306
1076.10 405.691
1076.20 405.7515
1076.30 405.8119
1076.40 405.8724
1076.50 406.069
1076.60 406.4697
1076.70 406.8705
1076.80 407.2713
1076.90 407.6721
1077.00 408.0729
1077.10 408.4737
1077.20 408.8745
1077.30 409.2753
1077.40 409.6761
1077.50 410.0769
1077.60 410.4777
1077.70 410.8785
1077.80 411.2793
1077.90 411.6801
1078.00 412.0809
1078.10 412.4817
1078.20 412.8825
1078.30 413.2833
1078.40 413.6841
1078.50 414.0849
1078.60 414.4857
1078.70 414.8865
1078.80 415.2873
1078.90 415.6881
1079.00 416.0889
1079.10 416.4897
1079.20 416.8905
1079.30 417.2913
1079.40 417.6921
1079.50 418.0929
1079.60 418.4937
1079.70 418.8945
1079.80 419.2953
1079.90 419.6961
1080.00 420.0969
1080.10 420.4977
1080.20 420.8985
1080.30 421.2993
1080.40 421.7001
1080.50 422.1009
1080.60 422.3708
1080.70 422.51
1080.80 422.6492
1080.90 422.7883
1081.00 422.9275
1081.10 423.0666
1081.20 423.2058
1081.30 423.3449
1081.40 423.4841
1081.50 423.6233
1081.60 423.7624
1081.70 423.9016
1081.80 424.0407
1081.90 424.1799
1082.00 424.319
1082.10 424.4582
1082.20 424.5974
1082.30 424.7365
1082.40 424.8757
1082.50 425.0148
1082.60 425.154
1082.70 425.2932
1082.80 425.4323
1082.90 425.5715
1083.00 425.7106
1083.10 425.8498
1083.20 425.9889
1083.30 426.1281
1083.40 426.2673
1083.50 426.4064
1083.60 426.5456
1083.70 426.6847
1083.80 426.8239
1083.90 426.963
1084.00 427.1022
1084.10 427.2414
1084.20 427.3805
1084.30 427.5197
1084.40 427.6588
1084.50 427.798
1084.60 427.9371
1084.70 428.1841
1084.80 428.5029
1084.90 428.8218
1085.00 429.1406
1085.10 429.4595
1085.20 429.7783
1085.30 430.0971
1085.40 430.416
1085.50 430.7348
1085.60 431.0536
1085.70 431.3725
1085.80 431.6913
1085.90 432.0101
1086.00 432.329
1086.10 432.6478
1086.20 432.9666
1086.30 433.2855
1086.40 433.6043
1086.50 433.9231
1086.60 434.242
1086.70 434.5608
1086.80 434.8796
1086.90 435.1985
1087.00 435.5173
1087.10 435.8361
1087.20 436.155
1087.30 436.4738
1087.40 436.7926
1087.50 437.1115
1087.60 437.4303
1087.70 437.7491
1087.80 438.068
1087.90 438.3868
1088.00 438.7056
1088.10 439.0245
1088.20 439.3433
1088.30 439.6621
1088.40 439.981
1088.50 440.2998
1088.60 440.6187
1088.70 440.9375
1088.80 441.2042
1088.90 441.4362
1089.00 441.6682
1089.10 441.9002
1089.20 442.1321
1089.30 442.3641
1089.40 442.5961
1089.50 442.8281
1089.60 443.0601
1089.70 443.2921
1089.80 443.524
1089.90 443.756
1090.00 443.988
1090.10 444.22
1090.20 444.452
1090.30 444.6839
1090.40 444.9159
1090.50 445.1479
1090.60 445.3799
1090.70 445.6119
1090.80 445.8439
1090.90 446.0758
1091.00 446.3078
1091.10 446.5398
1091.20 446.7718
1091.30 447.0038
1091.40 447.2358
1091.50 447.4677
1091.60 447.6997
1091.70 447.9317
1091.80 448.1637
1091.90 448.3957
1092.00 448.6276
1092.10 448.8596
1092.20 449.0916
1092.30 449.3236
1092.40 449.5556
1092.50 449.7876
1092.60 450.0195
1092.70 450.2515
1092.80 450.4835
1092.90 450.7285
1093.00 450.9865
1093.10 451.2445
1093.20 451.5025
1093.30 451.7605
1093.40 452.0186
1093.50 452.2766
1093.60 452.5346
1093.70 452.7926
1093.80 453.0506
1093.90 453.3086
1094.00 453.5666
1094.10 453.8246
1094.20 454.0826
1094.30 454.3407
1094.40 454.5987
1094.50 454.8567
1094.60 455.1147
1094.70 455.3727
1094.80 455.6307
1094.90 455.8887
1095.00 456.1467
1095.10 456.4047
1095.20 456.6628
1095.30 456.9208
1095.40 457.1788
1095.50 457.4368
1095.60 457.6948
1095.70 457.9528
1095.80 458.2108
1095.90 458.4688
1096.00 458.7268
1096.10 458.9848
1096.20 459.2429
1096.30 459.5009
1096.40 459.7589
1096.50 460.0169
1096.60 460.2749
1096.70 460.5329
1096.80 460.7909
1096.90 461.0489
1097.00 461.2056
1097.10 461.1258
1097.20 461.0459
1097.30 460.9661
1097.40 460.8863
1097.50 460.8064
1097.60 460.7266
1097.70 460.6468
1097.80 460.567
1097.90 460.4871
1098.00 460.4073
1098.10 460.3275
1098.20 460.2476
1098.30 460.1678
1098.40 460.088
1098.50 460.0082
1098.60 459.9283
1098.70 459.8485
1098.80 459.7687
1098.90 459.6888
1099.00 459.609
1099.10 459.5292
1099.20 459.4494
1099.30 459.3695
1099.40 459.2897
1099.50 459.2099
1099.60 459.13
1099.70 459.0502
1099.80 458.9704
1099.90 458.8905
1100.00 458.8107
1100.10 458.7309
1100.20 458.6511
1100.30 458.5712
1100.40 458.4914
1100.50 458.4116
1100.60 458.3317
1100.70 458.2519
1100.80 458.1721
1100.90 458.0923
1101.00 458.0124
1101.10 457.9326
1101.20 457.9313
1101.30 457.9301
1101.40 457.9288
1101.50 457.9276
1101.60 457.9263
1101.70 457.9251
1101.80 457.9238
1101.90 457.9226
1102.00 457.9213
1102.10 457.9201
1102.20 457.9188
1102.30 457.9176
1102.40 457.9163
1102.50 457.9151
1102.60 457.9138
1102.70 457.9126
1102.80 457.9113
1102.90 457.9101
1103.00 457.9088
1103.10 457.9076
1103.20 457.9063
1103.30 457.9051
1103.40 457.9038
1103.50 457.9026
1103.60 457.9013
1103.70 457.9001
1103.80 457.8988
1103.90 457.8976
1104.00 457.8963
1104.10 457.8951
1104.20 457.8938
1104.30 457.8926
1104.40 457.8913
1104.50 457.8901
1104.60 457.8888
1104.70 457.8876
1104.80 457.8863
1104.90 457.8851
1105.00 457.8838
1105.10 457.8826
1105.20 457.8813
1105.30 457.8375
1105.40 457.7653
1105.50 457.6931
1105.60 457.6209
1105.70 457.5487
1105.80 457.4766
1105.90 457.4044
1106.00 457.3322
1106.10 457.26
1106.20 457.1878
1106.30 457.1156
1106.40 457.0434
1106.50 456.9712
1106.60 456.899
1106.70 456.8268
1106.80 456.7546
1106.90 456.6824
1107.00 456.6103
1107.10 456.5381
1107.20 456.4659
1107.30 456.3937
1107.40 456.3215
1107.50 456.2493
1107.60 456.1771
1107.70 456.1049
1107.80 456.0327
1107.90 455.9605
1108.00 455.8883
1108.10 455.8161
1108.20 455.744
1108.30 455.6718
1108.40 455.5996
1108.50 455.5274
1108.60 455.4552
1108.70 455.383
1108.80 455.3108
1108.90 455.2386
1109.00 455.1664
1109.10 455.0942
1109.20 455.022
1109.30 454.9498
1109.40 454.9129
1109.50 455.0172
1109.60 455.1215
1109.70 455.2258
1109.80 455.33
1109.90 455.4343
1110.00 455.5386
1110.10 455.6429
1110.20 455.7471
1110.30 455.8514
1110.40 455.9557
1110.50 456.0599
1110.60 456.1642
1110.70 456.2685
1110.80 456.3728
1110.90 456.477
1111.00 456.5813
1111.10 456.6856
1111.20 456.7898
1111.30 456.8941
1111.40 456.9984
1111.50 457.1027
1111.60 457.2069
1111.70 457.3112
1111.80 457.4155
1111.90 457.5198
1112.00 457.624
1112.10 457.7283
1112.20 457.8326
1112.30 457.9368
1112.40 458.0411
1112.50 458.1454
1112.60 458.2497
1112.70 458.3539
1112.80 458.4582
1112.90 458.5625
1113.00 458.6668
1113.10 458.771
1113.20 458.8753
1113.30 458.9796
1113.40 459.0838
1113.50 459.1881
1113.60 459.3325
1113.70 459.5035
1113.80 459.6746
1113.90 459.8457
1114.00 460.0167
1114.10 460.1878
1114.20 460.3589
1114.30 460.5299
1114.40 460.701
1114.50 460.8721
1114.60 461.0431
1114.70 461.2142
1114.80 461.3853
1114.90 461.5563
1115.00 461.7274
1115.10 461.8985
1115.20 462.0695
1115.30 462.2406
1115.40 462.4117
1115.50 462.5827
1115.60 462.7538
1115.70 462.9249
1115.80 463.0959
1115.90 463.267
1116.00 463.4381
1116.10 463.6091
1116.20 463.7802
1116.30 463.9513
1116.40 464.1223
1116.50 464.2934
1116.60 464.4645
1116.70 464.6355
1116.80 464.8066
1116.90 464.9777
1117.00 465.1488
1117.10 465.3198
1117.20 465.4909
1117.30 465.662
1117.40 465.833
1117.50 466.0041
1117.60 466.1752
1117.70 466.3462
1117.80 466.4808
1117.90 466.6154
1118.00 466.75
1118.10 466.8846
1118.20 467.0191
1118.30 467.1537
1118.40 467.2883
1118.50 467.4229
1118.60 467.5575
1118.70 467.692
1118.80 467.8266
1118.90 467.9612
1119.00 468.0958
1119.10 468.2304
1119.20 468.365
1119.30 468.4995
1119.40 468.6341
1119.50 468.7687
1119.60 468.9033
1119.70 469.0379
1119.80 469.1725
1119.90 469.307
1120.00 469.4416
1120.10 469.5762
1120.20 469.7108
1120.30 469.8454
1120.40 469.98
1120.50 470.1145
1120.60 470.2491
1120.70 470.3837
1120.80 470.5183
1120.90 470.6529
1121.00 470.7874
1121.10 470.922
1121.20 471.0566
1121.30 471.1912
1121.40 471.3258
1121.50 471.4604
1121.60 471.5949
1121.70 471.7295
1121.80 471.8641
1121.90 471.9144
1122.00 471.768
1122.10 471.6216
1122.20 471.4752
1122.30 471.3288
1122.40 471.1824
1122.50 471.036
1122.60 470.8896
1122.70 470.7432
1122.80 470.5968
1122.90 470.4504
1123.00 470.304
1123.10 470.1576
1123.20 470.0112
1123.30 469.8648
1123.40 469.7184
1123.50 469.572
1123.60 469.4256
1123.70 469.2792
1123.80 469.1328
1123.90 468.9864
1124.00 468.84
1124.10 468.6936
1124.20 468.5472
1124.30 468.4008
1124.40 468.2544
1124.50 468.108
1124.60 467.9616
1124.70 467.8152
1124.80 467.6688
1124.90 467.5224
1125.00 467.376
1125.10 467.2296
1125.20 467.0832
1125.30 466.9368
1125.40 466.7904
1125.50 466.644
1125.60 466.4976
1125.70 466.3512
1125.80 466.2048
1125.90 466.0584
1126.00 465.912
1126.10 465.7287
1126.20 465.5085
1126.30 465.2884
1126.40 465.0682
1126.50 464.848
1126.60 464.6279
1126.70 464.4077
1126.80 464.1875
1126.90 463.9674
1127.00 463.7472
1127.10 463.5271
1127.20 463.3069
1127.30 463.0867
1127.40 462.8666
1127.50 462.6464
1127.60 462.4262
1127.70 462.2061
1127.80 461.9859
1127.90 461.7658
1128.00 461.5456
1128.10 461.3254
1128.20 461.1053
1128.30 460.8851
1128.40 460.6649
1128.50 460.4448
1128.60 460.2246
1128.70 460.0045
1128.80 459.7843
1128.90 459.5641
1129.00 459.344
1129.10 459.1238
1129.20 458.9036
1129.30 458.6835
1129.40 458.4633
1129.50 458.2432
1129.60 458.023
1129.70 457.8028
1129.80 457.5827
1129.90 457.3625
1130.00 457.1423
1130.10 456.9222
1130.20 456.702
1130.30 456.3555
1130.40 455.9548
1130.50 455.5542
1130.60 455.1535
1130.70 454.7528
1130.80 454.3521
1130.90 453.9515
1131.00 453.5508
1131.10 453.1501
1131.20 452.7495
1131.30 452.3488
1131.40 451.9481
1131.50 451.5474
1131.60 451.1468
1131.70 450.7461
1131.80 450.3454
1131.90 449.9448
1132.00 449.5441
1132.10 449.1434
1132.20 448.7428
1132.30 448.3421
1132.40 447.9414
1132.50 447.5407
1132.60 447.1401
1132.70 446.7394
1132.80 446.3387
1132.90 445.9381
1133.00 445.5374
1133.10 445.1367
1133.20 444.736
1133.30 444.3354
1133.40 443.9347
1133.50 443.534
1133.60 443.1334
1133.70 442.7327
1133.80 442.332
1133.90 441.9313
1134.00 441.5307
1134.10 441.13
1134.20 440.7293
1134.30 440.3287
1134.40 439.928
1134.50 439.7883
1134.60 439.7138
1134.70 439.6393
1134.80 439.5648
1134.90 439.4903
1135.00 439.4158
1135.10 439.3414
1135.20 439.2669
1135.30 439.1924
1135.40 439.1179
1135.50 439.0434
1135.60 438.9689
1135.70 438.8944
1135.80 438.82
1135.90 438.7455
1136.00 438.671
1136.10 438.5965
1136.20 438.522
1136.30 438.4475
1136.40 438.373
1136.50 438.2986
1136.60 438.2241
1136.70 438.1496
1136.80 438.0751
1136.90 438.0006
1137.00 437.9261
1137.10 437.8516
1137.20 437.7772
1137.30 437.7027
1137.40 437.6282
1137.50 437.5537
1137.60 437.4792
1137.70 437.4047
1137.80 437.3302
1137.90 437.2558
1138.00 437.1813
1138.10 437.1068
1138.20 437.0323
1138.30 436.9578
1138.40 436.8833
1138.50 436.8088
1138.60 436.7344
1138.70 436.9909
1138.80 437.3302
1138.90 437.6696
1139.00 438.0089
1139.10 438.3482
1139.20 438.6875
1139.30 439.0268
1139.40 439.3662
1139.50 439.7055
1139.60 440.0448
1139.70 440.3841
1139.80 440.7234
1139.90 441.0628
1140.00 441.4021
1140.10 441.7414
1140.20 442.0807
1140.30 442.42
1140.40 442.7594
1140.50 443.0987
1140.60 443.438
1140.70 443.7773
1140.80 444.1166
1140.90 444.456
1141.00 444.7953
1141.10 445.1346
1141.20 445.4739
1141.30 445.8132
1141.40 446.1526
1141.50 446.4919
1141.60 446.8312
1141.70 447.1705
1141.80 447.5098
1141.90 447.8492
1142.00 448.1885
1142.10 448.5278
1142.20 448.8671
1142.30 449.2064
1142.40 449.5458
1142.50 449.8851
1142.60 450.2244
1142.70 450.5637
1142.80 450.903
1142.90 451.7284
1143.00 452.6753
1143.10 453.6221
1143.20 454.569
1143.30 455.5159
1143.40 456.4627
1143.50 457.4096
1143.60 458.3564
1143.70 459.3033
1143.80 460.2502
1143.90 461.197
1144.00 462.1439
1144.10 463.0908
1144.20 464.0376
1144.30 464.9845
1144.40 465.9314
1144.50 466.8782
1144.60 467.8251
1144.70 468.7719
1144.80 469.7188
1144.90 470.6657
1145.00 471.6125
1145.10 472.5594
1145.20 473.5063
1145.30 474.4531
1145.40 475.4
1145.50 476.3468
1145.60 477.2937
1145.70 478.2406
1145.80 479.1874
1145.90 480.1343
1146.00 481.0812
1146.10 482.028
1146.20 482.9749
1146.30 483.9218
1146.40 484.8686
1146.50 485.8155
1146.60 486.7623
1146.70 487.7092
1146.80 488.6561
1146.90 489.6029
1147.00 490.5498
1147.10 491.0265
1147.20 491.1899
1147.30 491.3532
1147.40 491.5165
1147.50 491.6799
1147.60 491.8432
1147.70 492.0065
1147.80 492.1699
1147.90 492.3332
1148.00 492.4965
1148.10 492.6598
1148.20 492.8232
1148.30 492.9865
1148.40 493.1498
1148.50 493.3132
1148.60 493.4765
1148.70 493.6398
1148.80 493.8032
1148.90 493.9665
1149.00 494.1298
1149.10 494.2932
1149.20 494.4565
1149.30 494.6198
1149.40 494.7831
1149.50 494.9465
1149.60 495.1098
1149.70 495.2731
1149.80 495.4365
1149.90 495.5998
1150.00 495.7631
1150.10 495.9265
1150.20 496.0898
1150.30 496.2531
1150.40 496.4164
1150.50 496.5798
1150.60 496.7431
1150.70 496.9064
1150.80 497.0698
1150.90 497.2331
1151.00 497.3964
1151.10 497.5598
1151.20 497.7231
1151.30 497.9296
1151.40 498.1793
1151.50 498.429
1151.60 498.6786
1151.70 498.9283
1151.80 499.178
1151.90 499.4277
1152.00 499.6774
1152.10 499.927
1152.20 500.1767
1152.30 500.4264
1152.40 500.6761
1152.50 500.9257
1152.60 501.1754
1152.70 501.4251
1152.80 501.6748
1152.90 501.9245
1153.00 502.1741
1153.10 502.4238
1153.20 502.6735
1153.30 502.9232
1153.40 503.1729
1153.50 503.4225
1153.60 503.6722
1153.70 503.9219
1153.80 504.1716
1153.90 504.4213
1154.00 504.6709
1154.10 504.9206
1154.20 505.1703
1154.30 505.42
1154.40 505.6696
1154.50 505.9193
1154.60 506.169
1154.70 506.4187
1154.80 506.6684
1154.90 506.918
1155.00 507.1677
1155.10 507.4174
1155.20 507.6671
1155.30 507.9168
1155.40 508.1664
1155.50 508.3263
1155.60 508.1271
1155.70 507.9279
1155.80 507.7287
1155.90 507.5295
1156.00 507.3303
1156.10 507.1311
1156.20 506.9319
1156.30 506.7327
1156.40 506.5335
1156.50 506.3343
1156.60 506.1351
1156.70 505.9359
1156.80 505.7367
1156.90 505.5375
1157.00 505.3383
1157.10 505.1391
1157.20 504.9399
1157.30 504.7407
1157.40 504.5415
1157.50 504.3423
1157.60 504.1431
1157.70 503.9439
1157.80 503.7447
1157.90 503.5455
1158.00 503.3463
1158.10 503.1471
1158.20 502.9479
1158.30 502.7487
1158.40 502.5495
1158.50 502.3503
1158.60 502.1511
1158.70 501.9519
1158.80 501.7527
1158.90 501.5535
1159.00 501.3543
1159.10 501.1551
1159.20 500.9558
1159.30 500.7566
1159.40 500.5574
1159.50 500.3582
1159.60 500.159
1159.70 499.9598
1159.80 499.6871
1159.90 499.4062
1160.00 499.1252
1160.10 498.8443
1160.20 498.5634
1160.30 498.2824
1160.40 498.0015
1160.50 497.7206
1160.60 497.4396
1160.70 497.1587
1160.80 496.8778
1160.90 496.5969
1161.00 496.3159
1161.10 496.035
1161.20 495.7541
1161.30 495.4731
1161.40 495.1922
1161.50 494.9113
1161.60 494.6303
1161.70 494.3494
1161.80 494.0685
1161.90 493.7876
1162.00 493.5066
1162.10 493.2257
1162.20 492.9448
1162.30 492.6638
1162.40 492.3829
1162.50 492.102
1162.60 491.821
1162.70 491.5401
1162.80 491.2592
1162.90 490.9783
1163.00 490.6973
1163.10 490.4164
1163.20 490.1355
1163.30 489.8545
1163.40 489.5736
1163.50 489.2927
1163.60 489.0117
1163.70 488.7308
1163.80 488.4499
1163.90 488.169
1164.00 487.843
1164.10 487.4871
1164.20 487.1311
1164.30 486.7752
1164.40 486.4193
1164.50 486.0633
1164.60 485.7074
1164.70 485.3515
1164.80 484.9955
1164.90 484.6396
1165.00 484.2836
1165.10 483.9277
1165.20 483.5718
1165.30 483.2158
1165.40 482.8599
1165.50 482.5039
1165.60 482.148
1165.70 481.7921
1165.80 481.4361
1165.90 481.0802
1166.00 480.7243
1166.10 480.3683
1166.20 480.0124
1166.30 479.6564
1166.40 479.3005
1166.50 478.9446
1166.60 478.5886
1166.70 478.2327
1166.80 477.8767
1166.90 477.5208
1167.00 477.1649
1167.10 476.8089
1167.20 476.453
1167.30 476.0971
1167.40 475.7411
1167.50 475.3852
1167.60 475.0292
1167.70 474.6733
1167.80 474.3174
1167.90 473.9614
1168.00 473.6055
1168.10 473.2495
1168.20 472.875
1168.30 472.4263
1168.40 471.9775
1168.50 471.5287
1168.60 471.08
1168.70 470.6312
1168.80 470.1824
1168.90 469.7337
1169.00 469.2849
1169.10 468.8361
1169.20 468.3874
1169.30 467.9386
1169.40 467.4898
1169.50 467.0411
1169.60 466.5923
1169.70 466.1435
1169.80 465.6948
1169.90 465.246
1170.00 464.7972
1170.10 464.3485
1170.20 463.8997
1170.30 463.451
1170.40 463.0022
1170.50 462.5534
1170.60 462.1047
1170.70 461.6559
1170.80 461.2071
1170.90 460.7584
1171.00 460.3096
1171.10 459.8608
1171.20 459.4121
1171.30 458.9633
1171.40 458.5145
1171.50 458.0658
1171.60 457.617
1171.70 457.1682
1171.80 456.7195
1171.90 456.2707
1172.00 455.8219
1172.10 455.3732
1172.20 454.9244
1172.30 454.4756
1172.40 454.0269
1172.50 453.9679
1172.60 454.076
1172.70 454.1841
1172.80 454.2921
1172.90 454.4002
1173.00 454.5083
1173.10 454.6164
1173.20 454.7245
1173.30 454.8326
1173.40 454.9406
1173.50 455.0487
1173.60 455.1568
1173.70 455.2649
1173.80 455.373
1173.90 455.4811
1174.00 455.5891
1174.10 455.6972
1174.20 455.8053
1174.30 455.9134
1174.40 456.0215
1174.50 456.1296
1174.60 456.2377
1174.70 456.3457
1174.80 456.4538
1174.90 456.5619
1175.00 456.67
1175.10 456.7781
1175.20 456.8862
1175.30 456.9942
1175.40 457.1023
1175.50 457.2104
1175.60 457.3185
1175.70 457.4266
1175.80 457.5347
1175.90 457.6427
1176.00 457.7508
1176.10 457.8589
1176.20 457.967
1176.30 458.0751
1176.40 458.1832
1176.50 458.2913
1176.60 458.3993
1176.70 458.5188
1176.80 458.6839
1176.90 458.849
1177.00 459.014
1177.10 459.1791
1177.20 459.3442
1177.30 459.5093
1177.40 459.6743
1177.50 459.8394
1177.60 460.0045
1177.70 460.1695
1177.80 460.3346
1177.90 460.4997
1178.00 460.6648
1178.10 460.8298
1178.20 460.9949
1178.30 461.16
1178.40 461.3251
1178.50 461.4901
1178.60 461.6552
1178.70 461.8203
1178.80 461.9854
1178.90 462.1504
1179.00 462.3155
1179.10 462.4806
1179.20 462.6456
1179.30 462.8107
1179.40 462.9758
1179.50 463.1409
1179.60 463.3059
1179.70 463.471
1179.80 463.6361
1179.90 463.8012
1180.00 463.9662
1180.10 464.1313
1180.20 464.2964
1180.30 464.4615
1180.40 464.6265
1180.50 464.7916
1180.60 464.9567
1180.70 465.1217
1180.80 465.2868
1180.90 465.4519
1181.00 465.8295
1181.10 466.3487
1181.20 466.868
1181.30 467.3872
1181.40 467.9064
1181.50 468.4257
1181.60 468.9449
1181.70 469.4642
1181.80 469.9834
1181.90 470.5026
1182.00 471.0219
1182.10 471.5411
1182.20 472.0604
1182.30 472.5796
1182.40 473.0989
1182.50 473.6181
1182.60 474.1373
1182.70 474.6566
1182.80 475.1758
1182.90 475.6951
1183.00 476.2143
1183.10 476.7335
1183.20 477.2528
1183.30 477.772
1183.40 478.2913
1183.50 478.8105
1183.60 479.3298
1183.70 479.849
1183.80 480.3682
1183.90 480.8875
1184.00 481.4067
1184.10 481.926
1184.20 482.4452
1184.30 482.9644
1184.40 483.4837
1184.50 484.0029
1184.60 484.5222
1184.70 485.0414
1184.80 485.5607
1184.90 486.0799
1185.00 486.5991
1185.10 487.1184
1185.20 487.6376
1185.30 487.9201
1185.40 488.2025
1185.50 488.485
1185.60 488.7674
1185.70 489.0499
1185.80 489.3324
1185.90 489.6148
1186.00 489.8973
1186.10 490.1797
1186.20 490.4622
1186.30 490.7446
1186.40 491.0271
1186.50 491.3095
1186.60 491.592
1186.70 491.8745
1186.80 492.1569
1186.90 492.4394
1187.00 492.7218
1187.10 493.0043
1187.20 493.2867
1187.30 493.5692
1187.40 493.8516
1187.50 494.1341
1187.60 494.4166
1187.70 494.699
1187.80 494.9815
1187.90 495.2639
1188.00 495.5464
1188.10 495.8288
1188.20 496.1113
1188.30 496.3938
1188.40 496.6762
1188.50 496.9587
1188.60 497.2411
1188.70 497.5236
1188.80 497.806
1188.90 498.0885
1189.00 498.3709
1189.10 498.6534
1189.20 498.9359
1189.30 499.2183
1189.40 499.5008
1189.50 499.4804
1189.60 499.0057
1189.70 498.531
1189.80 498.0564
1189.90 497.5817
1190.00 497.1071
1190.10 496.6324
1190.20 496.1577
1190.30 495.6831
1190.40 495.2084
1190.50 494.7338
1190.60 494.2591
1190.70 493.7844
1190.80 493.3098
1190.90 492.8351
1191.00 492.3604
1191.10 491.8858
1191.20 491.4111
1191.30 490.9365
1191.40 490.4618
1191.50 489.9871
1191.60 489.5125
1191.70 489.0378
1191.80 488.5632
1191.90 488.0885
1192.00 487.6138
1192.10 487.1392
1192.20 486.6645
1192.30 486.1898
1192.40 485.7152
1192.50 485.2405
1192.60 484.7659
1192.70 484.2912
1192.80 483.8165
1192.90 483.3419
1193.00 482.8672
1193.10 482.3925
1193.20 481.9179
1193.30 481.4432
1193.40 480.9686
1193.50 480.4939
1193.60 480.0192
1193.70 479.5446
1193.80 479.1503
1193.90 478.7905
1194.00 478.4308
1194.10 478.071
1194.20 477.7112
1194.30 477.3514
1194.40 476.9916
1194.50 476.6318
1194.60 476.272
1194.70 475.9123
1194.80 475.5525
1194.90 475.1927
1195.00 474.8329
1195.10 474.4731
1195.20 474.1133
1195.30 473.7536
1195.40 473.3938
1195.50 473.034
1195.60 472.6742
1195.70 472.3144
1195.80 471.9546
1195.90 471.5948
1196.00 471.2351
1196.10 470.8753
1196.20 470.5155
1196.30 470.1557
1196.40 469.7959
1196.50 469.4361
1196.60 469.0764
1196.70 468.7166
1196.80 468.3568
1196.90 467.997
1197.00 467.6372
1197.10 467.2774
1197.20 466.9176
1197.30 466.5579
1197.40 466.1981
1197.50 465.8383
1197.60 465.4785
1197.70 465.1187
1197.80 464.7589
1197.90 464.3991
1198.00 464.0394
1198.10 464.1428
1198.20 464.2976
1198.30 464.4525
1198.40 464.6074
1198.50 464.7622
1198.60 464.9171
1198.70 465.072
1198.80 465.2268
1198.90 465.3817
1199.00 465.5365
1199.10 465.6914
1199.20 465.8463
1199.30 466.0011
1199.40 466.156
1199.50 466.3109
1199.60 466.4657
1199.70 466.6206
1199.80 466.7755
1199.90 466.9303
1200.00 467.0852
1200.10 467.2401
1200.20 467.3949
1200.30 467.5498
1200.40 467.7046
1200.50 467.8595
1200.60 468.0144
1200.70 468.1692
1200.80 468.3241
1200.90 468.479
1201.00 468.6338
1201.10 468.7887
1201.20 468.9436
1201.30 469.0984
1201.40 469.2533
1201.50 469.4082
1201.60 469.563
1201.70 469.7179
1201.80 469.8728
1201.90 470.0276
1202.00 470.1825
1202.10 470.3373
1202.20 470.4922
1202.30 470.6707
1202.40 471.0619
1202.50 471.4531
1202.60 471.8443
1202.70 472.2355
1202.80 472.6267
1202.90 473.0179
1203.00 473.4091
1203.10 473.8003
1203.20 474.1916
1203.30 474.5828
1203.40 474.974
1203.50 475.3652
1203.60 475.7564
1203.70 476.1476
1203.80 476.5388
1203.90 476.93
1204.00 477.3212
1204.10 477.7124
1204.20 478.1036
1204.30 478.4948
1204.40 478.886
1204.50 479.2772
1204.60 479.6684
1204.70 480.0596
1204.80 480.4508
1204.90 480.842
1205.00 481.2332
1205.10 481.6245
1205.20 482.0157
1205.30 482.4069
1205.40 482.7981
1205.50 483.1893
1205.60 483.5805
1205.70 483.9717
1205.80 484.3629
1205.90 484.7541
1206.00 485.1453
1206.10 485.5365
1206.20 485.9277
1206.30 486.3189
1206.40 486.7101
1206.50 487.1013
1206.60 487.5279
1206.70 488.037
1206.80 488.546
1206.90 489.0551
1207.00 489.5642
1207.10 490.0733
1207.20 490.5824
1207.30 491.0914
1207.40 491.6005
1207.50 492.1096
1207.60 492.6187
1207.70 493.1278
1207.80 493.6368
1207.90 494.1459
1208.00 494.655
1208.10 495.1641
1208.20 495.6732
1208.30 496.1822
1208.40 496.6913
1208.50 497.2004
1208.60 497.7095
1208.70 498.2186
1208.80 498.7276
1208.90 499.2367
1209.00 499.7458
1209.10 500.2549
1209.20 500.764
1209.30 501.273
1209.40 501.7821
1209.50 502.2912
1209.60 502.8003
1209.70 503.3094
1209.80 503.8184
1209.90 504.3275
1210.00 504.8366
1210.10 505.3457
1210.20 505.8548
1210.30 506.3638
1210.40 506.8729
1210.50 507.382
1210.60 507.8911
1210.70 508.4002
1210.80 508.9092
1210.90 509.3328
1211.00 509.6709
1211.10 510.009
1211.20 510.3471
1211.30 510.6851
1211.40 511.0232
1211.50 511.3613
1211.60 511.6994
1211.70 512.0375
1211.80 512.3756
1211.90 512.7136
1212.00 513.0517
1212.10 513.3898
1212.20 513.7279
1212.30 514.066
1212.40 514.404
1212.50 514.7421
1212.60 515.0802
1212.70 515.4183
1212.80 515.7564
1212.90 516.0944
1213.00 516.4325
1213.10 516.7706
1213.20 517.1087
1213.30 517.4468
1213.40 517.7848
1213.50 518.1229
1213.60 518.461
1213.70 518.7991
1213.80 519.1372
1213.90 519.4753
1214.00 519.8133
1214.10 520.1514
1214.20 520.4895
1214.30 520.8276
1214.40 521.1657
1214.50 521.5037
1214.60 521.8418
1214.70 522.1799
1214.80 522.518
1214.90 522.8561
1215.00 523.1941
1215.10 523.5322
1215.20 523.9436
1215.30 524.4038
1215.40 524.864
1215.50 525.3242
1215.60 525.7844
1215.70 526.2446
1215.80 526.7048
1215.90 527.165
1216.00 527.6252
1216.10 528.0854
1216.20 528.5456
1216.30 529.0058
1216.40 529.466
1216.50 529.9262
1216.60 530.3864
1216.70 530.8466
1216.80 531.3068
1216.90 531.767
1217.00 532.2272
1217.10 532.6874
1217.20 533.1476
1217.30 533.6078
1217.40 534.068
1217.50 534.5282
1217.60 534.9884
1217.70 535.4486
1217.80 535.9088
1217.90 536.369
1218.00 536.8292
1218.10 537.2894
1218.20 537.7496
1218.30 538.2098
1218.40 538.67
1218.50 539.1302
1218.60 539.5903
1218.70 540.0505
1218.80 540.5107
1218.90 540.9709
1219.00 541.4311
1219.10 541.8913
1219.20 542.3515
1219.30 542.8117
1219.40 543.2719
1219.50 543.6527
1219.60 543.9995
1219.70 544.3463
1219.80 544.693
1219.90 545.0398
1220.00 545.3865
1220.10 545.7333
1220.20 546.08
1220.30 546.4268
1220.40 546.7736
1220.50 547.1203
1220.60 547.4671
1220.70 547.8138
1220.80 548.1606
1220.90 548.5073
1221.00 548.8541
1221.10 549.2009
1221.20 549.5476
1221.30 549.8944
1221.40 550.2411
1221.50 550.5879
1221.60 550.9347
1221.70 551.2814
1221.80 551.6282
1221.90 551.9749
1222.00 552.3217
1222.10 552.6684
1222.20 553.0152
1222.30 553.362
1222.40 553.7087
1222.50 554.0555
1222.60 554.4022
1222.70 554.749
1222.80 555.0958
1222.90 555.4425
1223.00 555.7893
1223.10 556.136
1223.20 556.4828
1223.30 556.8295
1223.40 557.1763
1223.50 557.5231
1223.60 557.8698
1223.70 558.2166
1223.80 558.3367
1223.90 558.3598
1224.00 558.3828
1224.10 558.4059
1224.20 558.4289
1224.30 558.4519
1224.40 558.475
1224.50 558.498
1224.60 558.5211
1224.70 558.5441
1224.80 558.5671
1224.90 558.5902
1225.00 558.6132
1225.10 558.6363
1225.20 558.6593
1225.30 558.6823
1225.40 558.7054
1225.50 558.7284
1225.60 558.7515
1225.70 558.7745
1225.80 558.7975
1225.90 558.8206
1226.00 558.8436
1226.10 558.8667
1226.20 558.8897
1226.30 558.9127
1226.40 558.9358
1226.50 558.9588
1226.60 558.9819
1226.70 559.0049
1226.80 559.0279
1226.90 559.051
1227.00 559.074
1227.10 559.0971
1227.20 559.1201
1227.30 559.1431
1227.40 559.1662
1227.50 559.1892
1227.60 559.2123
1227.70 559.2353
1227.80 559.2583
1227.90 559.2814
1228.00 559.3044
1228.10 559.2767
1228.20 559.2364
1228.30 559.196
1228.40 559.1557
1228.50 559.1153
1228.60 559.0749
1228.70 559.0346
1228.80 558.9942
1228.90 558.9539
1229.00 558.9135
1229.10 558.8731
1229.20 558.8328
1229.30 558.7924
1229.40 558.7521
1229.50 558.7117
1229.60 558.6713
1229.70 558.631
1229.80 558.5906
1229.90 558.5503
1230.00 558.5099
1230.10 558.4695
1230.20 558.4292
1230.30 558.3888
1230.40 558.3485
1230.50 558.3081
1230.60 558.2678
1230.70 558.2274
1230.80 558.187
1230.90 558.1467
1231.00 558.1063
1231.10 558.066
1231.20 558.0256
1231.30 557.9852
1231.40 557.9449
1231.50 557.9045
1231.60 557.8642
1231.70 557.8238
1231.80 557.7834
1231.90 557.7431
1232.00 557.7027
1232.10 557.6624
1232.20 557.622
1232.30 557.5816
1232.40 557.0611
1232.50 556.4205
1232.60 555.7799
1232.70 555.1393
1232.80 554.4987
1232.90 553.858
1233.00 553.2174
1233.10 552.5768
1233.20 551.9362
1233.30 551.2956
1233.40 550.655
1233.50 550.0144
1233.60 549.3738
1233.70 548.7332
1233.80 548.0926
1233.90 547.452
1234.00 546.8114
1234.10 546.1708
1234.20 545.5301
1234.30 544.8895
1234.40 544.2489
1234.50 543.6083
1234.60 542.9677
1234.70 542.3271
1234.80 541.6865
1234.90 541.0459
1235.00 540.4053
1235.10 539.7647
1235.20 539.1241
1235.30 538.4835
1235.40 537.8429
1235.50 537.2022
1235.60 536.5616
1235.70 535.921
1235.80 535.2804
1235.90 534.6398
1236.00 533.9992
1236.10 533.3586
1236.20 532.718
1236.30 532.0774
1236.40 531.4368
1236.50 530.7962
1236.60 530.1556
1236.70 529.797
1236.80 529.5593
1236.90 529.3216
1237.00 529.0839
1237.10 528.8462
1237.20 528.6085
1237.30 528.3708
1237.40 528.1332
1237.50 527.8955
1237.60 527.6578
1237.70 527.4201
1237.80 527.1824
1237.90 526.9447
1238.00 526.707
1238.10 526.4693
1238.20 526.2316
1238.30 525.9939
1238.40 525.7562
1238.50 525.5186
1238.60 525.2809
1238.70 525.0432
1238.80 524.8055
1238.90 524.5678
1239.00 524.3301
1239.10 524.0924
1239.20 523.8547
1239.30 523.617
1239.40 523.3793
1239.50 523.1416
1239.60 522.904
1239.70 522.6663
1239.80 522.4286
1239.90 522.1909
1240.00 521.9532
1240.10 521.7155
1240.20 521.4778
1240.30 521.2401
1240.40 521.0024
1240.50 520.7647
1240.60 520.527
1240.70 520.2894
1240.80 520.0517
1240.90 519.814
1241.00 519.5589
1241.10 519.2964
1241.20 519.0339
1241.30 518.7714
1241.40 518.5089
1241.50 518.2464
1241.60 517.9839
1241.70 517.7214
1241.80 517.4589
1241.90 517.1964
1242.00 516.9339
1242.10 516.6714
1242.20 516.4089
1242.30 516.1464
1242.40 515.8839
1242.50 515.6214
1242.60 515.3589
1242.70 515.0964
1242.80 514.8339
1242.90 514.5714
1243.00 514.3089
1243.10 514.0463
1243.20 513.7838
1243.30 513.5213
1243.40 513.2588
1243.50 512.9963
1243.60 512.7338
1243.70 512.4713
1243.80 512.2088
1243.90 511.9463
1244.00 511.6838
1244.10 511.4213
1244.20 511.1588
1244.30 510.8963
1244.40 510.6338
1244.50 510.3713
1244.60 510.1088
1244.70 509.8463
1244.80 509.5838
1244.90 509.3213
1245.00 509.0588
1245.10 508.7963
1245.20 508.5338
1245.30 508.7338
1245.40 509.2421
1245.50 509.7504
1245.60 510.2588
1245.70 510.7671
1245.80 511.2754
1245.90 511.7838
1246.00 512.2921
1246.10 512.8004
1246.20 513.3088
1246.30 513.8171
1246.40 514.3254
1246.50 514.8337
1246.60 515.3421
1246.70 515.8504
1246.80 516.3587
1246.90 516.8671
1247.00 517.3754
1247.10 517.8837
1247.20 518.392
1247.30 518.9004
1247.40 519.4087
1247.50 519.917
1247.60 520.4254
1247.70 520.9337
1247.80 521.442
1247.90 521.9504
1248.00 522.4587
1248.10 522.967
1248.20 523.4753
1248.30 523.9837
1248.40 524.492
1248.50 525.0003
1248.60 525.5087
1248.70 526.017
1248.80 526.5253
1248.90 527.0337
1249.00 527.542
1249.10 528.0503
1249.20 528.5586
1249.30 529.067
1249.40 529.5753
1249.50 530.0836
1249.60 530.561
1249.70 531.0074
1249.80 531.4539
1249.90 531.9003
1250.00 532.3467
1250.10 532.7932
1250.20 533.2396
1250.30 533.686
1250.40 534.1324
1250.50 534.5789
1250.60 535.0253
1250.70 535.4717
1250.80 535.9182
1250.90 536.3646
1251.00 536.811
1251.10 537.2575
1251.20 537.7039
1251.30 538.1503
1251.40 538.5967
1251.50 539.0432
1251.60 539.4896
1251.70 539.936
1251.80 540.3825
1251.90 540.8289
1252.00 541.2753
1252.10 541.7218
1252.20 542.1682
1252.30 542.6146
1252.40 543.061
1252.50 543.5075
1252.60 543.9539
1252.70 544.4003
1252.80 544.8468
1252.90 545.2932
1253.00 545.7396
1253.10 546.186
1253.20 546.6325
1253.30 547.0789
1253.40 547.5253
1253.50 547.9718
1253.60 548.4182
1253.70 548.8646
1253.80 549.3111
1253.90 549.8737
1254.00 550.6108
1254.10 551.3479
1254.20 552.085
1254.30 552.822
1254.40 553.5591
1254.50 554.2962
1254.60 555.0333
1254.70 555.7703
1254.80 556.5074
1254.90 557.2445
1255.00 557.9816
1255.10 558.7186
1255.20 559.4557
1255.30 560.1928
1255.40 560.9299
1255.50 561.6669
1255.60 562.404
1255.70 563.1411
1255.80 563.8782
1255.90 564.6152
1256.00 565.3523
1256.10 566.0894
1256.20 566.8265
1256.30 567.5635
1256.40 568.3006
1256.50 569.0377
1256.60 569.7748
1256.70 570.5118
1256.80 571.2489
1256.90 571.986
1257.00 572.7231
1257.10 573.4601
1257.20 574.1972
1257.30 574.9343
1257.40 575.6714
1257.50 576.4085
1257.60 577.1455
1257.70 577.8826
1257.80 578.6197
1257.90 579.3568
1258.00 580.0938
1258.10 580.8309
1258.20 581.3776
1258.30 581.4802
1258.40 581.5827
1258.50 581.6852
1258.60 581.7878
1258.70 581.8903
1258.80 581.9929
1258.90 582.0954
1259.00 582.198
1259.10 582.3005
1259.20 582.403
1259.30 582.5056
1259.40 582.6081
1259.50 582.7107
1259.60 582.8132
1259.70 582.9158
1259.80 583.0183
1259.90 583.1208
1260.00 583.2234
1260.10 583.3259
1260.20 583.4285
1260.30 583.531
1260.40 583.6336
1260.50 583.7361
1260.60 583.8387
1260.70 583.9412
1260.80 584.0437
1260.90 584.1463
1261.00 584.2488
1261.10 584.3514
1261.20 584.4539
1261.30 584.5565
1261.40 584.659
1261.50 584.7615
1261.60 584.8641
1261.70 584.9666
1261.80 585.0692
1261.90 585.1717
1262.00 585.2743
1262.10 585.3768
1262.20 585.4793
1262.30 585.5819
1262.40 585.6844
1262.50 585.9044
1262.60 586.5938
1262.70 587.2833
1262.80 587.9728
1262.90 588.6623
1263.00 589.3518
1263.10 590.0413
1263.20 590.7307
1263.30 591.4202
1263.40 592.1097
1263.50 592.7992
1263.60 593.4887
1263.70 594.1782
1263.80 594.8676
1263.90 595.5571
1264.00 596.2466
1264.10 596.9361
1264.20 597.6256
1264.30 598.3151
1264.40 599.0045
1264.50 599.694
1264.60 600.3835
1264.70 601.073
1264.80 601.7625
1264.90 602.452
1265.00 603.1414
1265.10 603.8309
1265.20 604.5204
1265.30 605.2099
1265.40 605.8994
1265.50 606.5889
1265.60 607.2783
1265.70 607.9678
1265.80 608.6573
1265.90 609.3468
1266.00 610.0363
1266.10 610.7258
1266.20 611.4152
1266.30 612.1047
1266.40 612.7942
1266.50 613.4837
1266.60 614.1732
1266.70 614.8627
1266.80 615.5521
1266.90 615.1339
1267.00 614.7157
1267.10 614.2975
1267.20 613.8792
1267.30 613.461
1267.40 613.0428
1267.50 612.6245
1267.60 612.2063
1267.70 611.7881
1267.80 611.3698
1267.90 610.9516
1268.00 610.5334
1268.10 610.1151
1268.20 609.6969
1268.30 609.2787
1268.40 608.8604
1268.50 608.4422
1268.60 608.024
1268.70 607.6058
1268.80 607.1875
1268.90 606.7693
1269.00 606.3511
1269.10 605.9328
1269.20 605.5146
1269.30 605.0964
1269.40 604.6781
1269.50 604.2599
1269.60 603.8417
1269.70 603.4234
1269.80 603.0052
1269.90 602.587
1270.00 602.1688
1270.10 601.7505
1270.20 601.3323
1270.30 600.9141
1270.40 600.4958
1270.50 600.0776
1270.60 599.6594
1270.70 599.2411
1270.80 598.8229
1270.90 598.4047
1271.00 597.9864
1271.10 597.5682
1271.20 597.9428
1271.30 598.4056
1271.40 598.8683
1271.50 599.331
1271.60 599.7937
1271.70 600.2564
1271.80 600.7191
1271.90 601.1819
1272.00 601.6446
1272.10 602.1073
1272.20 602.57
1272.30 603.0327
1272.40 603.4954
1272.50 603.9582
1272.60 604.4209
1272.70 604.8836
1272.80 605.3463
1272.90 605.809
1273.00 606.2717
1273.10 606.7344
1273.20 607.1972
1273.30 607.6599
1273.40 608.1226
1273.50 608.5853
1273.60 609.048
1273.70 609.5107
1273.80 609.9735
1273.90 610.4362
1274.00 610.8989
1274.10 611.3616
1274.20 611.8243
1274.30 612.287
1274.40 612.7498
1274.50 613.2125
1274.60 613.6752
1274.70 614.1379
1274.80 614.6006
1274.90 615.0633
1275.00 615.5261
1275.10 615.9888
1275.20 616.4515
1275.30 616.9142
1275.40 617.3769
1275.50 617.5233
1275.60 617.5341
1275.70 617.5449
1275.80 617.5557
1275.90 617.5665
1276.00 617.5773
1276.10 617.5881
1276.20 617.5989
1276.30 617.6097
1276.40 617.6205
1276.50 617.6313
1276.60 617.6421
1276.70 617.6529
1276.80 617.6637
1276.90 617.6744
1277.00 617.6852
1277.10 617.696
1277.20 617.7068
1277.30 617.7176
1277.40 617.7284
1277.50 617.7392
1277.60 617.75
1277.70 617.7608
1277.80 617.7716
1277.90 617.7824
1278.00 617.7932
1278.10 617.804
1278.20 617.8148
1278.30 617.8256
1278.40 617.8364
1278.50 617.8472
1278.60 617.858
1278.70 617.8688
1278.80 617.8796
1278.90 617.8904
1279.00 617.9012
1279.10 617.912
1279.20 617.9228
1279.30 617.9336
1279.40 617.9444
1279.50 617.9551
1279.60 617.9659
1279.70 617.9767
1279.80 618.0094
1279.90 618.0565
1280.00 618.1037
1280.10 618.1508
1280.20 618.198
1280.30 618.2451
1280.40 618.2923
1280.50 618.3394
1280.60 618.3866
1280.70 618.4337
1280.80 618.4809
1280.90 618.528
1281.00 618.5752
1281.10 618.6224
1281.20 618.6695
1281.30 618.7167
1281.40 618.7638
1281.50 618.811
1281.60 618.8581
1281.70 618.9053
1281.80 618.9524
1281.90 618.9996
1282.00 619.0467
1282.10 619.0939
1282.20 619.141
1282.30 619.1882
1282.40 619.2353
1282.50 619.2825
1282.60 619.3297
1282.70 619.3768
1282.80 619.424
1282.90 619.4711
1283.00 619.5183
1283.10 619.5654
1283.20 619.6126
1283.30 619.6597
1283.40 619.7069
1283.50 619.754
1283.60 619.8012
1283.70 619.8483
1283.80 619.8955
1283.90 619.9427
1284.00 619.9898
1284.10 620.1402
1284.20 620.4456
1284.30 620.751
1284.40 621.0564
1284.50 621.3617
1284.60 621.6671
1284.70 621.9725
1284.80 622.2778
1284.90 622.5832
1285.00 622.8886
1285.10 623.194
1285.20 623.4993
1285.30 623.8047
1285.40 624.1101
1285.50 624.4154
1285.60 624.7208
1285.70 625.0262
1285.80 625.3315
1285.90 625.6369
1286.00 625.9423
1286.10 626.2477
1286.20 626.553
1286.30 626.8584
1286.40 627.1638
1286.50 627.4691
1286.60 627.7745
1286.70 628.0799
1286.80 628.3852
1286.90 628.6906
1287.00 628.996
1287.10 629.3014
1287.20 629.6067
1287.30 629.9121
1287.40 630.2175
1287.50 630.5228
1287.60 630.8282
1287.70 631.1336
1287.80 631.439
1287.90 631.7443
1288.00 632.0497
1288.10 632.3551
1288.20 632.6604
1288.30 632.9658
1288.40 633.2408
1288.50 633.3943
1288.60 633.5478
1288.70 633.7013
1288.80 633.8547
1288.90 634.0082
1289.00 634.1617
1289.10 634.3152
1289.20 634.4687
1289.30 634.6222
1289.40 634.7757
1289.50 634.9291
1289.60 635.0826
1289.70 635.2361
1289.80 635.3896
1289.90 635.5431
1290.00 635.6966
1290.10 635.8501
1290.20 636.0036
1290.30 636.157
1290.40 636.3105
1290.50 636.464
1290.60 636.6175
1290.70 636.771
1290.80 636.9245
1290.90 637.078
1291.00 637.2314
1291.10 637.3849
1291.20 637.5384
1291.30 637.6919
1291.40 637.8454
1291.50 637.9989
1291.60 638.1524
1291.70 638.3058
1291.80 638.4593
1291.90 638.6128
1292.00 638.7663
1292.10 638.9198
1292.20 639.0733
1292.30 639.2268
1292.40 639.3803
1292.50 639.5337
1292.60 639.6872
1292.70 639.8407
1292.80 639.9224
1292.90 640.0041
1293.00 640.0858
1293.10 640.1674
1293.20 640.2491
1293.30 640.3308
1293.40 640.4125
1293.50 640.4942
1293.60 640.5759
1293.70 640.6575
1293.80 640.7392
1293.90 640.8209
1294.00 640.9026
1294.10 640.9843
1294.20 641.066
1294.30 641.1476
1294.40 641.2293
1294.50 641.311
1294.60 641.3927
1294.70 641.4744
1294.80 641.5561
1294.90 641.6377
1295.00 641.7194
1295.10 641.8011
1295.20 641.8828
1295.30 641.9645
1295.40 642.0461
1295.50 642.1278
1295.60 642.2095
1295.70 642.2912
1295.80 642.3729
1295.90 642.4546
1296.00 642.5362
1296.10 642.6179
1296.20 642.6996
1296.30 642.7813
1296.40 642.863
1296.50 642.9447
1296.60 643.0263
1296.70 643.108
1296.80 643.1897
1296.90 643.2714
1297.00 643.3531
1297.10 643.2415
1297.20 643.0816
1297.30 642.9217
1297.40 642.7618
1297.50 642.6019
1297.60 642.442
1297.70 642.2821
1297.80 642.1222
1297.90 641.9623
1298.00 641.8024
1298.10 641.6424
1298.20 641.4825
1298.30 641.3226
1298.40 641.1627
1298.50 641.0028
1298.60 640.8429
1298.70 640.683
1298.80 640.5231
1298.90 640.3632
1299.00 640.2033
1299.10 640.0434
1299.20 639.8835
1299.30 639.7236
1299.40 639.5637
1299.50 639.4038
1299.60 639.2439
1299.70 639.084
1299.80 638.9241
1299.90 638.7642
