# Version 2.1 - nm, norm@500 to 1, cut digits
# Wavelength(nm)  Flambda(ergs/cm^s/s/nm)
300.00 2.207811e-95
300.10 2.207811e-95
300.20 2.207811e-95
300.30 2.207811e-95
300.40 2.207811e-95
300.50 2.207811e-95
300.60 2.207811e-95
300.70 2.207811e-95
300.80 2.207811e-95
300.90 2.207811e-95
301.00 2.207811e-95
301.10 2.207811e-95
301.20 2.207811e-95
301.30 2.207811e-95
301.40 2.207811e-95
301.50 2.207811e-95
301.60 2.207811e-95
301.70 2.207811e-95
301.80 2.207811e-95
301.90 2.207811e-95
302.00 2.207811e-95
302.10 2.207811e-95
302.20 2.207811e-95
302.30 2.207811e-95
302.40 2.207811e-95
302.50 2.207811e-95
302.60 2.207811e-95
302.70 2.207811e-95
302.80 2.207811e-95
302.90 2.207811e-95
303.00 2.207811e-95
303.10 2.207811e-95
303.20 2.207811e-95
303.30 2.207811e-95
303.40 2.207811e-95
303.50 2.207811e-95
303.60 2.207811e-95
303.70 2.207811e-95
303.80 2.207811e-95
303.90 2.207811e-95
304.00 2.207811e-95
304.10 2.207811e-95
304.20 2.207811e-95
304.30 2.207811e-95
304.40 2.207811e-95
304.50 2.207811e-95
304.60 2.207811e-95
304.70 2.207811e-95
304.80 2.207811e-95
304.90 2.207811e-95
305.00 2.207811e-95
305.10 2.207811e-95
305.20 2.207811e-95
305.30 2.207811e-95
305.40 2.207811e-95
305.50 2.207811e-95
305.60 2.207811e-95
305.70 2.207811e-95
305.80 2.207811e-95
305.90 2.207811e-95
306.00 2.207811e-95
306.10 2.207811e-95
306.20 2.207811e-95
306.30 2.207811e-95
306.40 2.207811e-95
306.50 2.207811e-95
306.60 2.207811e-95
306.70 2.207811e-95
306.80 2.207811e-95
306.90 2.207811e-95
307.00 2.207811e-95
307.10 2.207811e-95
307.20 2.207811e-95
307.30 2.207811e-95
307.40 2.207811e-95
307.50 2.207811e-95
307.60 2.207811e-95
307.70 2.207811e-95
307.80 2.207811e-95
307.90 2.207811e-95
308.00 2.207811e-95
308.10 2.207811e-95
308.20 2.207811e-95
308.30 2.207811e-95
308.40 2.207811e-95
308.50 2.207811e-95
308.60 2.207811e-95
308.70 2.207811e-95
308.80 2.207811e-95
308.90 2.207811e-95
309.00 2.207811e-95
309.10 2.207811e-95
309.20 2.207811e-95
309.30 2.207811e-95
309.40 2.207811e-95
309.50 2.207811e-95
309.60 2.207811e-95
309.70 2.207811e-95
309.80 2.207811e-95
309.90 2.207811e-95
310.00 2.207811e-95
310.10 2.207811e-95
310.20 2.207811e-95
310.30 2.207811e-95
310.40 2.207811e-95
310.50 2.207811e-95
310.60 2.207811e-95
310.70 2.207811e-95
310.80 2.207811e-95
310.90 2.207811e-95
311.00 2.207811e-95
311.10 2.207811e-95
311.20 2.207811e-95
311.30 2.207811e-95
311.40 2.207811e-95
311.50 2.207811e-95
311.60 2.207811e-95
311.70 2.207811e-95
311.80 2.207811e-95
311.90 2.207811e-95
312.00 2.207811e-95
312.10 2.207811e-95
312.20 2.207811e-95
312.30 2.207811e-95
312.40 2.207811e-95
312.50 2.207811e-95
312.60 2.207811e-95
312.70 2.207811e-95
312.80 2.207811e-95
312.90 2.207811e-95
313.00 2.207811e-95
313.10 2.207811e-95
313.20 2.207811e-95
313.30 2.207811e-95
313.40 2.207811e-95
313.50 2.207811e-95
313.60 2.207811e-95
313.70 2.207811e-95
313.80 2.207811e-95
313.90 2.207811e-95
314.00 2.207811e-95
314.10 2.207811e-95
314.20 2.207811e-95
314.30 2.207811e-95
314.40 2.207811e-95
314.50 2.207811e-95
314.60 2.207811e-95
314.70 2.207811e-95
314.80 2.207811e-95
314.90 2.207811e-95
315.00 2.207811e-95
315.10 2.207811e-95
315.20 2.207811e-95
315.30 2.207811e-95
315.40 2.207811e-95
315.50 2.207811e-95
315.60 2.207811e-95
315.70 2.207811e-95
315.80 2.207811e-95
315.90 2.207811e-95
316.00 2.207811e-95
316.10 2.207811e-95
316.20 2.207811e-95
316.30 2.207811e-95
316.40 2.207811e-95
316.50 2.207811e-95
316.60 2.207811e-95
316.70 2.207811e-95
316.80 2.207811e-95
316.90 2.207811e-95
317.00 2.207811e-95
317.10 2.207811e-95
317.20 2.207811e-95
317.30 2.207811e-95
317.40 2.207811e-95
317.50 2.207811e-95
317.60 2.207811e-95
317.70 2.207811e-95
317.80 2.207811e-95
317.90 2.207811e-95
318.00 2.207811e-95
318.10 2.207811e-95
318.20 2.207811e-95
318.30 2.207811e-95
318.40 2.207811e-95
318.50 2.207811e-95
318.60 2.207811e-95
318.70 2.207811e-95
318.80 2.207811e-95
318.90 2.207811e-95
319.00 2.207811e-95
319.10 2.207811e-95
319.20 2.207811e-95
319.30 2.207811e-95
319.40 2.207811e-95
319.50 2.207811e-95
319.60 2.207811e-95
319.70 2.207811e-95
319.80 2.207811e-95
319.90 2.207811e-95
320.00 2.207811e-95
320.10 2.207811e-95
320.20 2.207811e-95
320.30 2.207811e-95
320.40 2.207811e-95
320.50 2.207811e-95
320.60 2.207811e-95
320.70 2.207811e-95
320.80 2.207811e-95
320.90 2.207811e-95
321.00 2.207811e-95
321.10 2.207811e-95
321.20 2.207811e-95
321.30 2.207811e-95
321.40 2.207811e-95
321.50 2.207811e-95
321.60 2.207811e-95
321.70 2.207811e-95
321.80 2.207811e-95
321.90 2.207811e-95
322.00 2.207811e-95
322.10 2.207811e-95
322.20 2.207811e-95
322.30 2.207811e-95
322.40 2.207811e-95
322.50 2.207811e-95
322.60 2.207811e-95
322.70 2.207811e-95
322.80 2.207811e-95
322.90 2.207811e-95
323.00 2.207811e-95
323.10 2.207811e-95
323.20 2.207811e-95
323.30 2.207811e-95
323.40 2.207811e-95
323.50 2.207811e-95
323.60 2.207811e-95
323.70 2.207811e-95
323.80 2.207811e-95
323.90 2.207811e-95
324.00 2.207811e-95
324.10 2.207811e-95
324.20 2.207811e-95
324.30 2.207811e-95
324.40 2.207811e-95
324.50 2.207811e-95
324.60 2.207811e-95
324.70 2.207811e-95
324.80 2.207811e-95
324.90 2.207811e-95
325.00 2.207811e-95
325.10 2.207811e-95
325.20 2.207811e-95
325.30 2.207811e-95
325.40 2.207811e-95
325.50 2.207811e-95
325.60 2.207811e-95
325.70 2.207811e-95
325.80 2.207811e-95
325.90 2.207811e-95
326.00 2.207811e-95
326.10 2.207811e-95
326.20 2.207811e-95
326.30 2.207811e-95
326.40 2.207811e-95
326.50 2.207811e-95
326.60 2.207811e-95
326.70 2.207811e-95
326.80 2.207811e-95
326.90 2.207811e-95
327.00 2.207811e-95
327.10 2.207811e-95
327.20 2.207811e-95
327.30 2.207811e-95
327.40 2.207811e-95
327.50 2.207811e-95
327.60 2.207811e-95
327.70 2.207811e-95
327.80 2.207811e-95
327.90 2.207811e-95
328.00 2.207811e-95
328.10 2.207811e-95
328.20 2.207811e-95
328.30 2.207811e-95
328.40 2.207811e-95
328.50 2.207811e-95
328.60 2.207811e-95
328.70 2.207811e-95
328.80 2.207811e-95
328.90 2.207811e-95
329.00 2.207811e-95
329.10 2.207811e-95
329.20 2.207811e-95
329.30 2.207811e-95
329.40 2.207811e-95
329.50 2.207811e-95
329.60 2.207811e-95
329.70 2.207811e-95
329.80 2.207811e-95
329.90 2.207811e-95
330.00 2.207811e-95
330.10 2.207811e-95
330.20 2.207811e-95
330.30 2.207811e-95
330.40 2.207811e-95
330.50 2.207811e-95
330.60 2.207811e-95
330.70 2.207811e-95
330.80 2.207811e-95
330.90 2.207811e-95
331.00 2.207811e-95
331.10 2.207811e-95
331.20 2.207811e-95
331.30 2.207811e-95
331.40 2.207811e-95
331.50 2.207811e-95
331.60 2.207811e-95
331.70 2.207811e-95
331.80 2.207811e-95
331.90 2.207811e-95
332.00 2.207811e-95
332.10 2.207811e-95
332.20 2.207811e-95
332.30 2.207811e-95
332.40 2.207811e-95
332.50 2.207811e-95
332.60 2.207811e-95
332.70 2.207811e-95
332.80 2.207811e-95
332.90 2.207811e-95
333.00 2.207811e-95
333.10 2.207811e-95
333.20 2.207811e-95
333.30 2.207811e-95
333.40 2.207811e-95
333.50 2.207811e-95
333.60 2.207811e-95
333.70 2.207811e-95
333.80 2.207811e-95
333.90 2.207811e-95
334.00 2.207811e-95
334.10 2.207811e-95
334.20 2.207811e-95
334.30 2.207811e-95
334.40 2.207811e-95
334.50 2.207811e-95
334.60 2.207811e-95
334.70 2.207811e-95
334.80 2.207811e-95
334.90 2.207811e-95
335.00 2.207811e-95
335.10 2.207811e-95
335.20 2.207811e-95
335.30 2.207811e-95
335.40 2.207811e-95
335.50 2.207811e-95
335.60 2.207811e-95
335.70 2.207811e-95
335.80 2.207811e-95
335.90 2.207811e-95
336.00 2.207811e-95
336.10 2.207811e-95
336.20 2.207811e-95
336.30 2.207811e-95
336.40 2.207811e-95
336.50 2.207811e-95
336.60 2.207811e-95
336.70 2.207811e-95
336.80 2.207811e-95
336.90 2.207811e-95
337.00 2.207811e-95
337.10 2.207811e-95
337.20 2.207811e-95
337.30 2.207811e-95
337.40 2.207811e-95
337.50 2.207811e-95
337.60 2.207811e-95
337.70 2.207811e-95
337.80 2.207811e-95
337.90 2.207811e-95
338.00 2.207811e-95
338.10 2.207811e-95
338.20 2.207811e-95
338.30 2.207811e-95
338.40 2.207811e-95
338.50 2.207811e-95
338.60 2.207811e-95
338.70 2.207811e-95
338.80 2.207811e-95
338.90 2.207811e-95
339.00 2.207811e-95
339.10 2.207811e-95
339.20 2.207811e-95
339.30 2.207811e-95
339.40 2.207811e-95
339.50 2.207811e-95
339.60 2.207811e-95
339.70 2.207811e-95
339.80 2.207811e-95
339.90 2.207811e-95
340.00 2.207811e-95
340.10 2.207811e-95
340.20 2.207811e-95
340.30 2.207811e-95
340.40 2.207811e-95
340.50 2.207811e-95
340.60 2.207811e-95
340.70 2.207811e-95
340.80 2.207811e-95
340.90 2.207811e-95
341.00 2.207811e-95
341.10 2.207811e-95
341.20 2.207811e-95
341.30 2.207811e-95
341.40 2.207811e-95
341.50 2.207811e-95
341.60 2.207811e-95
341.70 2.207811e-95
341.80 2.207811e-95
341.90 2.207811e-95
342.00 2.207811e-95
342.10 2.207811e-95
342.20 2.207811e-95
342.30 2.207811e-95
342.40 2.207811e-95
342.50 2.207811e-95
342.60 2.207811e-95
342.70 2.207811e-95
342.80 2.207811e-95
342.90 2.207811e-95
343.00 2.207811e-95
343.10 2.207811e-95
343.20 2.207811e-95
343.30 2.207811e-95
343.40 2.207811e-95
343.50 2.207811e-95
343.60 2.207811e-95
343.70 2.207811e-95
343.80 2.207811e-95
343.90 2.207811e-95
344.00 2.207811e-95
344.10 2.207811e-95
344.20 2.207811e-95
344.30 2.207811e-95
344.40 2.207811e-95
344.50 2.207811e-95
344.60 2.207811e-95
344.70 2.207811e-95
344.80 2.207811e-95
344.90 2.207811e-95
345.00 2.207811e-95
345.10 2.207811e-95
345.20 2.207811e-95
345.30 2.207811e-95
345.40 2.207811e-95
345.50 2.207811e-95
345.60 2.207811e-95
345.70 2.207811e-95
345.80 2.207811e-95
345.90 2.207811e-95
346.00 2.207811e-95
346.10 2.207811e-95
346.20 2.207811e-95
346.30 2.207811e-95
346.40 2.207811e-95
346.50 2.207811e-95
346.60 2.207811e-95
346.70 2.207811e-95
346.80 2.207811e-95
346.90 2.207811e-95
347.00 2.207811e-95
347.10 2.207811e-95
347.20 2.207811e-95
347.30 2.207811e-95
347.40 2.207811e-95
347.50 2.207811e-95
347.60 2.207811e-95
347.70 2.207811e-95
347.80 2.207811e-95
347.90 2.207811e-95
348.00 2.207811e-95
348.10 2.207811e-95
348.20 2.207811e-95
348.30 2.207811e-95
348.40 2.207811e-95
348.50 2.207811e-95
348.60 2.207811e-95
348.70 2.207811e-95
348.80 2.207811e-95
348.90 2.207811e-95
349.00 2.207811e-95
349.10 2.207811e-95
349.20 2.207811e-95
349.30 2.207811e-95
349.40 2.207811e-95
349.50 2.207811e-95
349.60 2.207811e-95
349.70 2.207811e-95
349.80 2.207811e-95
349.90 2.207811e-95
350.00 2.207811e-95
350.10 2.207811e-95
350.20 2.207811e-95
350.30 2.207811e-95
350.40 2.207811e-95
350.50 2.207811e-95
350.60 2.207811e-95
350.70 2.207811e-95
350.80 2.207811e-95
350.90 2.207811e-95
351.00 2.207811e-95
351.10 2.207811e-95
351.20 2.207811e-95
351.30 2.207811e-95
351.40 2.207811e-95
351.50 2.207811e-95
351.60 2.207811e-95
351.70 2.207811e-95
351.80 2.207811e-95
351.90 2.207811e-95
352.00 2.207811e-95
352.10 2.207811e-95
352.20 2.207811e-95
352.30 2.207811e-95
352.40 2.207811e-95
352.50 2.207811e-95
352.60 2.207811e-95
352.70 2.207811e-95
352.80 2.207811e-95
352.90 2.207811e-95
353.00 2.207811e-95
353.10 2.207811e-95
353.20 2.207811e-95
353.30 2.207811e-95
353.40 2.207811e-95
353.50 2.207811e-95
353.60 2.207811e-95
353.70 2.207811e-95
353.80 2.207811e-95
353.90 2.207811e-95
354.00 2.207811e-95
354.10 2.207811e-95
354.20 2.207811e-95
354.30 2.207811e-95
354.40 2.207811e-95
354.50 2.207811e-95
354.60 2.207811e-95
354.70 2.207811e-95
354.80 2.207811e-95
354.90 2.207811e-95
355.00 2.207811e-95
355.10 2.207811e-95
355.20 2.207811e-95
355.30 2.207811e-95
355.40 2.207811e-95
355.50 2.207811e-95
355.60 2.207811e-95
355.70 2.207811e-95
355.80 2.207811e-95
355.90 2.207811e-95
356.00 2.207811e-95
356.10 2.207811e-95
356.20 2.207811e-95
356.30 2.207811e-95
356.40 2.207811e-95
356.50 2.207811e-95
356.60 2.207811e-95
356.70 2.207811e-95
356.80 2.207811e-95
356.90 2.207811e-95
357.00 2.207811e-95
357.10 2.207811e-95
357.20 2.207811e-95
357.30 2.207811e-95
357.40 2.207811e-95
357.50 2.207811e-95
357.60 2.207811e-95
357.70 2.207811e-95
357.80 2.207811e-95
357.90 2.207811e-95
358.00 2.207811e-95
358.10 2.207811e-95
358.20 2.207811e-95
358.30 2.207811e-95
358.40 2.207811e-95
358.50 2.207811e-95
358.60 2.207811e-95
358.70 2.207811e-95
358.80 2.207811e-95
358.90 2.207811e-95
359.00 2.207811e-95
359.10 2.207811e-95
359.20 2.207811e-95
359.30 2.207811e-95
359.40 2.207811e-95
359.50 2.207811e-95
359.60 2.207811e-95
359.70 2.207811e-95
359.80 2.207811e-95
359.90 2.207811e-95
360.00 2.207811e-95
360.10 2.207811e-95
360.20 2.207811e-95
360.30 2.207811e-95
360.40 2.207811e-95
360.50 2.207811e-95
360.60 2.207811e-95
360.70 2.207811e-95
360.80 2.207811e-95
360.90 2.207811e-95
361.00 2.207811e-95
361.10 2.207811e-95
361.20 2.207811e-95
361.30 2.207811e-95
361.40 2.207811e-95
361.50 2.207811e-95
361.60 2.207811e-95
361.70 2.207811e-95
361.80 2.207811e-95
361.90 2.207811e-95
362.00 2.207811e-95
362.10 2.207811e-95
362.20 2.207811e-95
362.30 2.207811e-95
362.40 2.207811e-95
362.50 2.207811e-95
362.60 2.207811e-95
362.70 2.207811e-95
362.80 2.207811e-95
362.90 2.207811e-95
363.00 2.207811e-95
363.10 2.207811e-95
363.20 2.207811e-95
363.30 2.207811e-95
363.40 2.207811e-95
363.50 2.207811e-95
363.60 2.207811e-95
363.70 2.207811e-95
363.80 2.207811e-95
363.90 2.207811e-95
364.00 2.207811e-95
364.10 2.207811e-95
364.20 2.207811e-95
364.30 2.207811e-95
364.40 2.207811e-95
364.50 2.207811e-95
364.60 2.207811e-95
364.70 2.207811e-95
364.80 2.207811e-95
364.90 2.207811e-95
365.00 2.207811e-95
365.10 2.207811e-95
365.20 2.207811e-95
365.30 2.207811e-95
365.40 2.207811e-95
365.50 2.207811e-95
365.60 2.207811e-95
365.70 2.207811e-95
365.80 2.207811e-95
365.90 2.207811e-95
366.00 2.207811e-95
366.10 2.207811e-95
366.20 2.207811e-95
366.30 2.207811e-95
366.40 2.207811e-95
366.50 2.207811e-95
366.60 2.207811e-95
366.70 2.207811e-95
366.80 2.207811e-95
366.90 2.207811e-95
367.00 2.207811e-95
367.10 2.207811e-95
367.20 2.207811e-95
367.30 2.207811e-95
367.40 2.207811e-95
367.50 2.207811e-95
367.60 2.207811e-95
367.70 2.207811e-95
367.80 2.207811e-95
367.90 2.207811e-95
368.00 2.207811e-95
368.10 2.207811e-95
368.20 2.207811e-95
368.30 2.207811e-95
368.40 2.207811e-95
368.50 2.207811e-95
368.60 2.207811e-95
368.70 2.207811e-95
368.80 2.207811e-95
368.90 2.207811e-95
369.00 2.207811e-95
369.10 2.207811e-95
369.20 2.207811e-95
369.30 2.207811e-95
369.40 2.207811e-95
369.50 2.207811e-95
369.60 2.207811e-95
369.70 2.207811e-95
369.80 2.207811e-95
369.90 2.207811e-95
370.00 2.207811e-95
370.10 2.207811e-95
370.20 2.207811e-95
370.30 2.207811e-95
370.40 2.207811e-95
370.50 2.207811e-95
370.60 2.207811e-95
370.70 2.207811e-95
370.80 2.207811e-95
370.90 2.207811e-95
371.00 2.207811e-95
371.10 2.207811e-95
371.20 2.207811e-95
371.30 2.207811e-95
371.40 2.207811e-95
371.50 2.207811e-95
371.60 2.207811e-95
371.70 2.207811e-95
371.80 2.207811e-95
371.90 2.207811e-95
372.00 2.207811e-95
372.10 2.207811e-95
372.20 2.207811e-95
372.30 2.207811e-95
372.40 2.207811e-95
372.50 2.207811e-95
372.60 2.207811e-95
372.70 2.207811e-95
372.80 2.207811e-95
372.90 2.207811e-95
373.00 2.207811e-95
373.10 2.207811e-95
373.20 2.207811e-95
373.30 2.207811e-95
373.40 2.207811e-95
373.50 2.207811e-95
373.60 2.207811e-95
373.70 2.207811e-95
373.80 2.207811e-95
373.90 2.207811e-95
374.00 2.207811e-95
374.10 2.207811e-95
374.20 2.207811e-95
374.30 2.207811e-95
374.40 2.207811e-95
374.50 2.207811e-95
374.60 2.207811e-95
374.70 2.207811e-95
374.80 2.207811e-95
374.90 2.207811e-95
375.00 2.207811e-95
375.10 2.207811e-95
375.20 2.207811e-95
375.30 2.207811e-95
375.40 2.207811e-95
375.50 2.207811e-95
375.60 2.207811e-95
375.70 2.207811e-95
375.80 2.207811e-95
375.90 2.207811e-95
376.00 2.207811e-95
376.10 2.207811e-95
376.20 2.207811e-95
376.30 2.207811e-95
376.40 2.207811e-95
376.50 2.207811e-95
376.60 2.207811e-95
376.70 2.207811e-95
376.80 2.207811e-95
376.90 2.207811e-95
377.00 2.207811e-95
377.10 2.207811e-95
377.20 2.207811e-95
377.30 2.207811e-95
377.40 2.207811e-95
377.50 2.207811e-95
377.60 2.207811e-95
377.70 2.207811e-95
377.80 2.207811e-95
377.90 2.207811e-95
378.00 2.207811e-95
378.10 2.207811e-95
378.20 2.207811e-95
378.30 2.207811e-95
378.40 2.207811e-95
378.50 2.207811e-95
378.60 2.207811e-95
378.70 2.207811e-95
378.80 2.207811e-95
378.90 2.207811e-95
379.00 2.207811e-95
379.10 2.207811e-95
379.20 2.207811e-95
379.30 2.207811e-95
379.40 2.207811e-95
379.50 2.207811e-95
379.60 2.207811e-95
379.70 2.207811e-95
379.80 2.207811e-95
379.90 2.207811e-95
380.00 2.207811e-95
380.10 2.207811e-95
380.20 2.207811e-95
380.30 2.207811e-95
380.40 2.207811e-95
380.50 2.207811e-95
380.60 2.207811e-95
380.70 2.207811e-95
380.80 2.207811e-95
380.90 2.207811e-95
381.00 2.207811e-95
381.10 2.207811e-95
381.20 2.207811e-95
381.30 2.207811e-95
381.40 2.207811e-95
381.50 2.207811e-95
381.60 2.207811e-95
381.70 2.207811e-95
381.80 2.207811e-95
381.90 2.207811e-95
382.00 2.207811e-95
382.10 2.207811e-95
382.20 2.207811e-95
382.30 2.207811e-95
382.40 2.207811e-95
382.50 2.207811e-95
382.60 2.207811e-95
382.70 2.207811e-95
382.80 2.207811e-95
382.90 2.207811e-95
383.00 2.207811e-95
383.10 2.207811e-95
383.20 2.207811e-95
383.30 2.207811e-95
383.40 2.207811e-95
383.50 2.207811e-95
383.60 2.207811e-95
383.70 2.207811e-95
383.80 2.207811e-95
383.90 2.207811e-95
384.00 2.207811e-95
384.10 2.207811e-95
384.20 2.207811e-95
384.30 2.207811e-95
384.40 2.207811e-95
384.50 2.207811e-95
384.60 2.207811e-95
384.70 2.207811e-95
384.80 2.207811e-95
384.90 2.207811e-95
385.00 2.207811e-95
385.10 2.207811e-95
385.20 2.207811e-95
385.30 2.207811e-95
385.40 2.207811e-95
385.50 2.207811e-95
385.60 2.207811e-95
385.70 2.207811e-95
385.80 2.207811e-95
385.90 2.207811e-95
386.00 2.207811e-95
386.10 2.207811e-95
386.20 2.207811e-95
386.30 2.207811e-95
386.40 2.207811e-95
386.50 2.207811e-95
386.60 2.207811e-95
386.70 2.207811e-95
386.80 2.207811e-95
386.90 2.207811e-95
387.00 2.207811e-95
387.10 2.207811e-95
387.20 2.207811e-95
387.30 2.207811e-95
387.40 2.207811e-95
387.50 2.207811e-95
387.60 2.207811e-95
387.70 2.207811e-95
387.80 2.207811e-95
387.90 2.207811e-95
388.00 2.207811e-95
388.10 2.207811e-95
388.20 2.207811e-95
388.30 2.207811e-95
388.40 2.207811e-95
388.50 2.207811e-95
388.60 2.207811e-95
388.70 2.207811e-95
388.80 2.207811e-95
388.90 2.207811e-95
389.00 2.207811e-95
389.10 2.207811e-95
389.20 2.207811e-95
389.30 2.207811e-95
389.40 2.207811e-95
389.50 2.207811e-95
389.60 2.207811e-95
389.70 2.207811e-95
389.80 2.207811e-95
389.90 2.207811e-95
390.00 2.207811e-95
390.10 2.207811e-95
390.20 2.207811e-95
390.30 2.207811e-95
390.40 2.207811e-95
390.50 2.207811e-95
390.60 2.207811e-95
390.70 2.207811e-95
390.80 2.207811e-95
390.90 2.207811e-95
391.00 2.207811e-95
391.10 2.207811e-95
391.20 2.207811e-95
391.30 2.207811e-95
391.40 2.207811e-95
391.50 2.207811e-95
391.60 2.207811e-95
391.70 2.207811e-95
391.80 2.207811e-95
391.90 2.207811e-95
392.00 2.207811e-95
392.10 2.207811e-95
392.20 2.207811e-95
392.30 2.207811e-95
392.40 2.207811e-95
392.50 2.207811e-95
392.60 2.207811e-95
392.70 2.207811e-95
392.80 2.207811e-95
392.90 2.207811e-95
393.00 2.207811e-95
393.10 2.207811e-95
393.20 2.207811e-95
393.30 2.207811e-95
393.40 2.207811e-95
393.50 2.207811e-95
393.60 2.207811e-95
393.70 2.207811e-95
393.80 2.207811e-95
393.90 2.207811e-95
394.00 2.207811e-95
394.10 2.207811e-95
394.20 2.207811e-95
394.30 2.207811e-95
394.40 2.207811e-95
394.50 2.207811e-95
394.60 2.207811e-95
394.70 2.207811e-95
394.80 2.207811e-95
394.90 2.207811e-95
395.00 0.1158871
395.10 0.2138568
395.20 0.2939979
395.30 0.3566846
395.40 0.4038155
395.50 0.4400846
395.60 0.472063
395.70 0.5060502
395.80 0.5458235
395.90 0.5921224
396.00 0.6439854
396.10 0.6999479
396.20 0.7575337
396.30 0.8124536
396.40 0.8601302
396.50 0.8951933
396.60 0.9120071
396.70 0.9120071
396.80 0.9120071
396.90 0.9120071
397.00 0.9120071
397.10 0.9120071
397.20 0.9163677
397.30 0.937894
397.40 0.9768323
397.50 1.030885
397.60 1.096622
397.70 1.173394
397.80 1.261178
397.90 1.357923
398.00 1.460515
398.10 1.564135
398.20 1.662347
398.30 1.749147
398.40 1.821386
398.50 1.879948
398.60 1.930185
398.70 1.980424
398.80 2.038218
398.90 2.10903
399.00 2.194895
399.10 2.292518
399.20 2.395089
399.30 2.493917
399.40 2.578494
399.50 2.639755
399.60 2.672403
399.70 2.674096
399.80 2.674096
399.90 2.674096
400.00 2.674096
400.10 2.674096
400.20 2.674096
400.30 2.674096
400.40 2.674096
400.50 2.674096
400.60 2.674096
400.70 2.678613
400.80 2.70608
400.90 2.751416
401.00 2.806759
401.10 2.866037
401.20 2.926495
401.30 2.986796
401.40 3.044932
401.50 3.098692
401.60 3.14769
401.70 3.194026
401.80 3.240374
401.90 3.288373
402.00 3.337354
402.10 3.38387
402.20 3.425254
402.30 3.461093
402.40 3.492168
402.50 3.519834
402.60 3.546223
402.70 3.573983
402.80 3.604597
402.90 3.638115
403.00 3.673631
403.10 3.708904
403.20 3.74193
403.30 3.771614
403.40 3.797517
403.50 3.821483
403.60 3.847896
403.70 3.880947
403.80 3.922788
403.90 3.972196
404.00 4.025336
404.10 4.079209
404.20 4.131576
404.30 4.179405
404.40 4.219107
404.50 4.249028
404.60 4.270609
404.70 4.286446
404.80 4.299108
404.90 4.310151
405.00 4.202346
405.10 4.107276
405.20 4.027135
405.30 3.964448
405.40 3.917318
405.50 3.881049
405.60 3.84907
405.70 3.815083
405.80 3.77531
405.90 3.729011
406.00 3.677148
406.10 3.621185
406.20 3.563599
406.30 3.515285
406.40 3.48271
406.50 3.470256
406.60 3.480024
406.70 3.505474
406.80 3.524977
406.90 3.534201
407.00 3.534201
407.10 3.534201
407.20 3.52984
407.30 3.508314
407.40 3.469375
407.50 3.415323
407.60 3.349586
407.70 3.272813
407.80 3.18503
407.90 3.088285
408.00 2.985693
408.10 2.886885
408.20 2.79709
408.30 2.718634
408.40 2.651949
408.50 2.595958
408.60 2.54575
408.70 2.495511
408.80 2.437718
408.90 2.368499
409.00 2.287595
409.10 2.199313
409.20 2.111407
409.30 2.032551
409.40 1.972144
409.50 1.937825
409.60 1.932783
409.70 1.957656
409.80 1.982483
409.90 2.00415
410.00 2.022033
410.10 2.037316
410.20 2.051871
410.30 2.068542
410.40 2.091349
410.50 2.124269
410.60 2.169354
410.70 2.220694
410.80 2.255258
410.90 2.272425
411.00 2.274941
411.10 2.265591
411.20 2.245348
411.30 2.214814
411.40 2.177435
411.50 2.139958
411.60 2.108809
411.70 2.086763
411.80 2.073331
411.90 2.065405
412.00 2.059008
412.10 2.051917
412.20 2.041634
412.30 2.024528
412.40 1.998233
412.50 1.970566
412.60 1.944177
412.70 1.916418
412.80 1.885803
412.90 1.852285
413.00 1.81677
413.10 1.783217
413.20 1.757021
413.30 1.735231
413.40 1.714292
413.50 1.690326
413.60 1.663914
413.70 1.630863
413.80 1.589021
413.90 1.539613
414.00 1.486473
414.10 1.4326
414.20 1.380233
414.30 1.332405
414.40 1.292702
414.50 1.262781
414.60 1.241201
414.70 1.225364
414.80 1.212702
414.90 1.201658
415.00 1.193576
415.10 1.190676
415.20 1.190676
415.30 1.195296
415.40 1.206415
415.50 1.219019
415.60 1.227987
415.70 1.229713
415.80 1.229713
415.90 1.229713
416.00 1.229713
416.10 1.229713
416.20 1.229713
416.30 1.223108
416.40 1.21455
416.50 1.205785
416.60 1.198674
416.70 1.195442
416.80 1.197748
416.90 1.207646
417.00 1.223336
417.10 1.235441
417.20 1.243895
417.30 1.249023
417.40 1.251188
417.50 1.251188
417.60 1.251188
417.70 1.251188
417.80 1.251188
417.90 1.25207
418.00 1.25294
418.10 1.248304
418.20 1.241745
418.30 1.241626
418.40 1.253633
418.50 1.277571
418.60 1.310569
418.70 1.346915
418.80 1.383409
418.90 1.415758
419.00 1.439498
419.10 1.451868
419.20 1.452399
419.30 1.443743
419.40 1.431478
419.50 1.421335
419.60 1.415726
419.70 1.412475
419.80 1.408547
419.90 1.403482
420.00 1.397194
420.10 1.389384
420.20 1.38068
420.30 1.371146
420.40 1.359396
420.50 1.343306
420.60 1.320896
420.70 1.292844
420.80 1.262335
420.90 1.231877
421.00 1.203486
421.10 1.177559
421.20 1.15279
421.30 1.12799
421.40 1.107233
421.50 1.09095
421.60 1.073101
421.70 1.048811
421.80 1.015895
421.90 0.9763346
422.00 0.9464879
422.10 0.9303715
422.20 0.9287908
422.30 0.9406749
422.40 0.9615731
422.50 0.9767182
422.60 0.9786514
422.70 0.9786514
422.80 0.9786514
422.90 0.9786514
423.00 0.9786514
423.10 0.9769307
423.20 0.9701002
423.30 0.962207
423.40 0.9572421
423.50 0.9572421
423.60 0.9588643
423.70 0.9662249
423.80 0.9801425
423.90 1.001757
424.00 1.030032
424.10 1.061838
424.20 1.094011
424.30 1.125252
424.40 1.155912
424.50 1.185843
424.60 1.214314
424.70 1.240804
424.80 1.265216
424.90 1.28821
425.00 1.311246
425.10 1.336029
425.20 1.363149
425.30 1.387675
425.40 1.40779
425.50 1.428011
425.60 1.451693
425.70 1.479741
425.80 1.504347
425.90 1.523437
426.00 1.538075
426.10 1.550561
426.20 1.564627
426.30 1.584187
426.40 1.605064
426.50 1.626588
426.60 1.649
426.70 1.672945
426.80 1.69893
426.90 1.726777
427.00 1.754659
427.10 1.780026
427.20 1.801016
427.30 1.817372
427.40 1.830703
427.50 1.842925
427.60 1.854139
427.70 1.865046
427.80 1.875582
427.90 1.884791
428.00 1.893058
428.10 1.90003
428.20 1.90222
428.30 1.894862
428.40 1.8773
428.50 1.85355
428.60 1.829494
428.70 1.809133
428.80 1.793908
428.90 1.783435
429.00 1.777895
429.10 1.777994
429.20 1.782853
429.30 1.789639
429.40 1.794172
429.50 1.793055
429.60 1.787549
429.70 1.78328
429.80 1.784102
429.90 1.791034
430.00 1.804901
430.10 1.824966
430.20 1.847231
430.30 1.866137
430.40 1.873872
430.50 1.861517
430.60 1.838843
430.70 1.811038
430.80 1.779516
430.90 1.747471
431.00 1.718003
431.10 1.694001
431.20 1.678556
431.30 1.673589
431.40 1.673589
431.50 1.673589
431.60 1.673589
431.70 1.673589
431.80 1.673589
431.90 1.673076
432.00 1.660339
432.10 1.639186
432.20 1.619181
432.30 1.599563
432.40 1.579007
432.50 1.563862
432.60 1.561929
432.70 1.561929
432.80 1.561929
432.90 1.561929
433.00 1.561929
433.10 1.561929
433.20 1.561929
433.30 1.561929
433.40 1.561929
433.50 1.573185
433.60 1.591554
433.70 1.60858
433.80 1.618483
433.90 1.6156
434.00 1.59755
434.10 1.565743
434.20 1.53357
434.30 1.50233
434.40 1.47167
434.50 1.441739
434.60 1.413268
434.70 1.386777
434.80 1.374848
434.90 1.380032
435.00 1.397601
435.10 1.421181
435.20 1.444658
435.30 1.462572
435.40 1.470262
435.50 1.464921
435.60 1.446496
435.70 1.417794
435.80 1.393188
435.90 1.374098
436.00 1.35946
436.10 1.346974
436.20 1.332908
436.30 1.313348
436.40 1.285926
436.50 1.25056
436.60 1.208677
436.70 1.162514
436.80 1.114719
436.90 1.067751
437.00 1.024179
437.10 0.9867072
437.20 0.957262
437.30 0.9357786
437.40 0.9202829
437.50 0.9127597
437.60 0.9152101
437.70 0.9266872
437.80 0.9463215
437.90 0.972539
438.00 1.003035
438.10 1.03468
438.20 1.064397
438.30 1.088664
438.40 1.102011
438.50 1.099633
438.60 1.090662
438.70 1.074676
438.80 1.053407
438.90 1.029938
439.00 1.006777
439.10 0.9849675
439.20 0.9649119
439.30 0.9468094
439.40 0.9303724
439.50 0.9146907
439.60 0.8981989
439.70 0.8791521
439.80 0.8574317
439.90 0.8343105
440.00 0.8233729
440.10 0.8250194
440.20 0.8379352
440.30 0.858256
440.40 0.8828739
440.50 0.9111415
440.60 0.9279276
440.70 0.9279276
440.80 0.9279276
440.90 0.9279276
441.00 0.9279276
441.10 0.9279276
441.20 0.9279276
441.30 0.9279276
441.40 0.9308684
441.50 0.9353986
441.60 0.9402064
441.70 0.9446025
441.80 0.9480516
441.90 0.9502237
442.00 0.9508945
442.10 0.9487393
442.20 0.9392232
442.30 0.9282247
442.40 0.9231033
442.50 0.9231033
442.60 0.9231033
442.70 0.9256169
442.80 0.9385849
442.90 0.9621288
443.00 0.9938039
443.10 1.029338
443.20 1.062963
443.30 1.088395
443.40 1.100693
443.50 1.089436
443.60 1.069444
443.70 1.045058
443.80 1.021238
443.90 1.002506
444.00 0.9922815
444.10 0.9922815
444.20 0.9922815
444.30 1.005695
444.40 1.030449
444.50 1.060922
444.60 1.091727
444.70 1.118913
444.80 1.12687
444.90 1.110277
445.00 1.07221
445.10 1.023847
445.20 0.9732499
445.30 0.9261895
445.40 0.8872656
445.50 0.8597818
445.60 0.8455567
445.70 0.8444843
445.80 0.8444843
445.90 0.8444843
446.00 0.8444843
446.10 0.8444843
446.20 0.8444843
446.30 0.8444843
446.40 0.8444843
446.50 0.8444843
446.60 0.8444843
446.70 0.8444843
446.80 0.8444843
446.90 0.8444843
447.00 0.8444843
447.10 0.8444843
447.20 0.8444843
447.30 0.8500939
447.40 0.8639618
447.50 0.8786715
447.60 0.8871675
447.70 0.8879012
447.80 0.8814041
447.90 0.8696947
448.00 0.8555585
448.10 0.842409
448.20 0.8335625
448.30 0.8317247
448.40 0.838869
448.50 0.8553545
448.60 0.8685254
448.70 0.8790395
448.80 0.8899364
448.90 0.9046102
449.00 0.9251494
449.10 0.952556
449.20 0.9863013
449.30 1.023829
449.40 1.061799
449.50 1.096446
449.60 1.123635
449.70 1.1407
449.80 1.147631
449.90 1.147219
450.00 1.132694
450.10 1.103509
450.20 1.062478
450.30 1.016114
450.40 0.9741077
450.50 0.9487644
450.60 0.9447556
450.70 0.9608931
450.80 0.9768727
450.90 0.9884021
451.00 0.9915639
451.10 0.9915639
451.20 0.9915639
451.30 0.9915639
451.40 0.988623
451.50 0.9840928
451.60 0.9792851
451.70 0.974889
451.80 0.9714399
451.90 0.9692678
452.00 0.968597
452.10 0.968597
452.20 0.968597
452.30 0.972371
452.40 0.9818437
452.50 0.9971694
452.60 1.016766
452.70 1.03566
452.80 1.043654
452.90 1.039313
453.00 1.024854
453.10 1.00558
453.20 0.9888101
453.30 0.9817536
453.40 0.9889823
453.50 1.007932
453.60 1.023833
453.70 1.03471
453.80 1.041589
453.90 1.047752
454.00 1.056144
454.10 1.068625
454.20 1.085734
454.30 1.093126
454.40 1.090731
454.50 1.081209
454.60 1.066798
454.70 1.048304
454.80 1.027865
454.90 1.01628
455.00 1.013743
455.10 1.013743
455.20 1.013743
455.30 1.013743
455.40 1.013743
455.50 1.022708
455.60 1.045579
455.70 1.080232
455.80 1.120933
455.90 1.160104
456.00 1.190907
456.10 1.209028
456.20 1.212596
456.30 1.212596
456.40 1.212596
456.50 1.212596
456.60 1.212596
456.70 1.212596
456.80 1.212596
456.90 1.212596
457.00 1.212596
457.10 1.212596
457.20 1.215588
457.30 1.218889
457.40 1.217961
457.50 1.213216
457.60 1.205971
457.70 1.197364
457.80 1.187566
457.90 1.175739
458.00 1.160546
458.10 1.140573
458.20 1.115656
458.30 1.092358
458.40 1.071867
458.50 1.055002
458.60 1.041831
458.70 1.031317
458.80 1.02042
458.90 1.009072
459.00 0.9977225
459.10 0.9830011
459.20 0.9630392
459.30 0.9376443
459.40 0.9075091
459.50 0.8752839
459.60 0.8480949
459.70 0.8310299
459.80 0.8240991
459.90 0.8240991
460.00 0.8240991
460.10 0.8240991
460.20 0.8240991
460.30 0.8240991
460.40 0.8226956
460.50 0.8152952
460.60 0.8025179
460.70 0.7863804
460.80 0.7704008
460.90 0.7588714
461.00 0.7557096
461.10 0.7557096
461.20 0.7557096
461.30 0.7557096
461.40 0.7557096
461.50 0.7557096
461.60 0.7557096
461.70 0.7557096
461.80 0.7557096
461.90 0.7557096
462.00 0.7557096
462.10 0.7557096
462.20 0.7557096
462.30 0.7519356
462.40 0.7424629
462.50 0.7271372
462.60 0.7075405
462.70 0.6901372
462.80 0.6802717
462.90 0.6734646
463.00 0.6663252
463.10 0.6559045
463.20 0.6396104
463.30 0.6212351
463.40 0.6017085
463.50 0.582759
463.60 0.5668579
463.70 0.5559803
463.80 0.5508472
463.90 0.5496779
464.00 0.5487588
464.10 0.5440585
464.20 0.5320399
464.30 0.5123984
464.40 0.4900389
464.50 0.4690886
464.60 0.4526954
464.70 0.4440026
464.80 0.4452551
464.90 0.4491326
465.00 0.4569058
465.10 0.4693377
465.20 0.4864191
465.30 0.5072632
465.40 0.5300799
465.50 0.5437349
465.60 0.5415531
465.70 0.5235181
465.80 0.4929768
465.90 0.4566371
466.00 0.4258347
466.10 0.4077139
466.20 0.4041451
466.30 0.4041451
466.40 0.4098834
466.50 0.4219918
466.60 0.4378823
466.70 0.4526878
466.80 0.4607026
466.90 0.4607026
467.00 0.4607026
467.10 0.4607026
467.20 0.4577113
467.30 0.4488002
467.40 0.4358599
467.50 0.4211969
467.60 0.406281
467.70 0.3917703
467.80 0.3863227
467.90 0.3885366
468.00 0.3963898
468.10 0.4088219
468.20 0.4242901
468.30 0.4348457
468.40 0.439267
468.50 0.439267
468.60 0.439267
468.70 0.439267
468.80 0.439267
468.90 0.4359411
469.00 0.4267513
469.10 0.4140661
469.20 0.4002827
469.30 0.3881498
469.40 0.3803152
469.50 0.377893
469.60 0.377893
469.70 0.3800096
469.80 0.3926193
469.90 0.4122346
470.00 0.4339245
470.10 0.4531847
470.20 0.4674733
470.30 0.4767654
470.40 0.4827662
470.50 0.4871429
470.60 0.4910625
470.70 0.4967807
470.80 0.5075251
470.90 0.5256901
471.00 0.5513035
471.10 0.5820511
471.20 0.6146305
471.30 0.6456201
471.40 0.6720697
471.50 0.6921614
471.60 0.7049381
471.70 0.709546
471.80 0.709546
471.90 0.709546
472.00 0.709546
472.10 0.709546
472.20 0.709546
472.30 0.709546
472.40 0.709546
472.50 0.709546
472.60 0.709546
472.70 0.7055418
472.80 0.701469
472.90 0.7033564
473.00 0.7108171
473.10 0.722584
473.20 0.7377863
473.30 0.7513566
473.40 0.7638274
473.50 0.7765279
473.60 0.7897338
473.70 0.8021177
473.80 0.8091033
473.90 0.806019
474.00 0.7985461
474.10 0.7907648
474.20 0.7856746
474.30 0.7845103
474.40 0.7845103
474.50 0.7845103
474.60 0.7845103
474.70 0.7845103
474.80 0.7832578
474.90 0.7793803
475.00 0.7716071
475.10 0.7591752
475.20 0.7509239
475.30 0.7475234
475.40 0.7454298
475.50 0.7413113
475.60 0.7331323
475.70 0.7214581
475.80 0.7112985
475.90 0.7084663
476.00 0.7084663
476.10 0.7084663
476.20 0.7084663
476.30 0.7084663
476.40 0.7027281
476.50 0.6906196
476.60 0.6797699
476.70 0.6804358
476.80 0.6957983
476.90 0.7220224
477.00 0.7451055
477.10 0.7604351
477.20 0.7653771
477.30 0.7653771
477.40 0.7653771
477.50 0.7653771
477.60 0.7653771
477.70 0.7653771
477.80 0.7569495
477.90 0.7449822
478.00 0.735945
478.10 0.7332976
478.20 0.7392541
478.30 0.7563387
478.40 0.7859968
478.50 0.8253345
478.60 0.8675186
478.70 0.9089224
478.80 0.9458504
478.90 0.9757313
479.00 0.9969669
479.10 1.009044
479.20 1.013042
479.30 1.013042
479.40 1.013042
479.50 1.013042
479.60 1.013042
479.70 1.010925
479.80 0.9983157
479.90 0.9794371
480.00 0.9636251
480.10 0.9556819
480.20 0.9567498
480.30 0.9635612
480.40 0.9715499
480.50 0.9784043
480.60 0.9838195
480.70 0.9870174
480.80 0.9869756
480.90 0.9842634
481.00 0.9816254
481.10 0.9832811
481.20 0.9935405
481.30 1.015747
481.40 1.051649
481.50 1.100793
481.60 1.160643
481.70 1.227659
481.80 1.293189
481.90 1.347185
482.00 1.385622
482.10 1.407166
482.20 1.412949
482.30 1.412949
482.40 1.412949
482.50 1.412949
482.60 1.412949
482.70 1.412949
482.80 1.405924
482.90 1.391642
483.00 1.374104
483.10 1.356499
483.20 1.340735
483.30 1.327165
483.40 1.314694
483.50 1.302689
483.60 1.293942
483.70 1.289546
483.80 1.292562
483.90 1.306616
484.00 1.327085
484.10 1.351018
484.20 1.375772
484.30 1.398362
484.40 1.416143
484.50 1.426526
484.60 1.427186
484.70 1.427186
484.80 1.427186
484.90 1.427186
485.00 1.427186
485.10 1.427186
485.20 1.418356
485.30 1.400912
485.40 1.380189
485.50 1.361687
485.60 1.349177
485.70 1.344234
485.80 1.344234
485.90 1.344234
486.00 1.344234
486.10 1.344234
486.20 1.344234
486.30 1.344234
486.40 1.344234
486.50 1.344234
486.60 1.339193
486.70 1.323722
486.80 1.300344
486.90 1.27412
487.00 1.251037
487.10 1.235707
487.20 1.230765
487.30 1.230765
487.40 1.230765
487.50 1.230765
487.60 1.230765
487.70 1.230765
487.80 1.230765
487.90 1.227747
488.00 1.218627
488.10 1.203172
488.20 1.181747
488.30 1.154107
488.40 1.120028
488.50 1.08069
488.60 1.038506
488.70 0.9971019
488.80 0.9601738
488.90 0.9320783
489.00 0.9142706
489.10 0.9069241
489.20 0.9085174
489.30 0.9144506
489.40 0.9213497
489.50 0.9305126
489.60 0.9431338
489.70 0.9608757
489.80 0.9851686
489.90 1.01465
490.00 1.042426
490.10 1.065888
490.20 1.084435
490.30 1.098695
490.40 1.10894
490.50 1.114308
490.60 1.113199
490.70 1.104283
490.80 1.09358
490.90 1.078128
491.00 1.055152
491.10 1.022749
491.20 0.97991
491.30 0.9267139
491.40 0.8643627
491.50 0.7951262
491.60 0.7225003
491.70 0.6508757
491.80 0.5855444
491.90 0.5358948
492.00 0.5040643
492.10 0.4904538
492.20 0.4936596
492.30 0.5038208
492.40 0.5151914
492.50 0.5277154
492.60 0.5417932
492.70 0.5579981
492.80 0.5769714
492.90 0.5996134
493.00 0.6256797
493.10 0.6528706
493.20 0.6792887
493.30 0.7041511
493.40 0.7270477
493.50 0.7483709
493.60 0.7673338
493.70 0.7855259
493.80 0.8024408
493.90 0.8170449
494.00 0.8278368
494.10 0.8331312
494.20 0.8325053
494.30 0.8266441
494.40 0.816757
494.50 0.8063745
494.60 0.8057143
494.70 0.8057143
494.80 0.8057143
494.90 0.8057143
495.00 0.8057143
495.10 0.8057143
495.20 0.8057143
495.30 0.8057143
495.40 0.8057143
495.50 0.8057143
495.60 0.8057143
495.70 0.8057143
495.80 0.8057143
495.90 0.8057143
496.00 0.8057143
496.10 0.8057143
496.20 0.8057143
496.30 0.8057143
496.40 0.8057143
496.50 0.8057143
496.60 0.8057143
496.70 0.8057143
496.80 0.8057143
496.90 0.8057143
497.00 0.8057143
497.10 0.8057143
497.20 0.8057143
497.30 0.8057143
497.40 0.8057143
497.50 0.8057143
497.60 0.8057143
497.70 0.8057143
497.80 0.8057143
497.90 0.8057143
498.00 0.8098758
498.10 0.8185989
498.20 0.8321389
498.30 0.850441
498.40 0.8733239
498.50 0.9003919
498.60 0.9302381
498.70 0.9601965
498.80 0.986771
498.90 1.004893
499.00 1.012997
499.10 1.012113
499.20 1.006522
499.30 1.000588
499.40 0.9967234
499.50 0.9979149
499.60 1.004059
499.70 1.011899
499.80 1.01618
499.90 1.012822
500.00 1
500.10 0.9770258
500.20 0.9451386
500.30 0.9147747
500.40 0.8905406
500.50 0.8739417
500.60 0.8657157
500.70 0.8657157
500.80 0.8657157
500.90 0.8657157
501.00 0.8657157
501.10 0.8657157
501.20 0.8657157
501.30 0.8657157
501.40 0.8669564
501.50 0.8691483
501.60 0.8701041
501.70 0.8701041
501.80 0.8699057
501.90 0.8655596
502.00 0.8589524
502.10 0.8510196
502.20 0.842031
502.30 0.8318698
502.40 0.8204992
502.50 0.8079752
502.60 0.7938975
502.70 0.7776925
502.80 0.7587192
502.90 0.7360773
503.00 0.7100109
503.10 0.6828201
503.20 0.6564019
503.30 0.6315396
503.40 0.6086429
503.50 0.586624
503.60 0.5632023
503.70 0.5370226
503.80 0.5083601
503.90 0.4777932
504.00 0.4465325
504.10 0.4173053
504.20 0.3931766
504.30 0.3764475
504.40 0.3685536
504.50 0.3685536
504.60 0.3685536
504.70 0.3685536
504.80 0.3685536
504.90 0.3685536
505.00 0.3685536
505.10 0.3685536
505.20 0.3726542
505.30 0.3815335
505.40 0.3920233
505.50 0.4023346
505.60 0.4119314
505.70 0.420809
505.80 0.4295859
505.90 0.4402384
506.00 0.4555446
506.10 0.4771141
506.20 0.504976
506.30 0.5370866
506.40 0.5694321
506.50 0.5986147
506.60 0.6227575
506.70 0.6412843
506.80 0.6545495
506.90 0.6627278
507.00 0.6658724
507.10 0.6658724
507.20 0.6658724
507.30 0.6658724
507.40 0.6658724
507.50 0.6658724
507.60 0.6658724
507.70 0.6658724
507.80 0.6658724
507.90 0.6658724
508.00 0.661711
508.10 0.6529879
508.20 0.6394479
508.30 0.6213712
508.40 0.5999421
508.50 0.5756638
508.60 0.5502738
508.70 0.526592
508.80 0.5082377
508.90 0.4994316
509.00 0.5031042
509.10 0.5188656
509.20 0.5419411
509.30 0.5673345
509.40 0.5909309
509.50 0.6070167
509.60 0.6127791
509.70 0.6078618
509.80 0.5940596
509.90 0.5745489
510.00 0.5537164
510.10 0.5419121
510.20 0.5398957
510.30 0.5398957
510.40 0.5398957
510.50 0.5398957
510.60 0.5398957
510.70 0.5398957
510.80 0.5398957
510.90 0.5398957
511.00 0.5398957
511.10 0.5398957
511.20 0.541046
511.30 0.5465002
511.40 0.55019
511.50 0.5479981
511.60 0.5470423
511.70 0.5470423
511.80 0.5470423
511.90 0.5470423
512.00 0.5470423
512.10 0.5470423
512.20 0.5470423
512.30 0.5470423
512.40 0.5512117
512.50 0.5660812
512.60 0.5900803
512.70 0.6204334
512.80 0.6539953
512.90 0.6876565
513.00 0.7184756
513.10 0.744251
513.20 0.7629317
513.30 0.7723311
513.40 0.7723311
513.50 0.7723311
513.60 0.7723311
513.70 0.7723311
513.80 0.7723311
513.90 0.7723311
514.00 0.7723311
514.10 0.7723311
514.20 0.7723311
514.30 0.7834142
514.40 0.8034544
514.50 0.8280344
514.60 0.8522542
514.70 0.8716044
514.80 0.8829311
514.90 0.8856154
515.00 0.8856154
515.10 0.8856154
515.20 0.8815148
515.30 0.8726355
515.40 0.8621457
515.50 0.8518344
515.60 0.8422376
515.70 0.83336
515.80 0.8245831
515.90 0.8139306
516.00 0.7986244
516.10 0.7770549
516.20 0.7505165
516.30 0.722252
516.40 0.6965851
516.50 0.6772839
516.60 0.6654661
516.70 0.6597008
516.80 0.6578755
516.90 0.6583886
517.00 0.6593919
517.10 0.6593919
517.20 0.6593919
517.30 0.6593919
517.40 0.6593919
517.50 0.6593919
517.60 0.6593919
517.70 0.6593919
517.80 0.6593919
517.90 0.6593919
518.00 0.6593919
518.10 0.6593919
518.20 0.6593919
518.30 0.6591665
518.40 0.6577127
518.50 0.654923
518.60 0.6504667
518.70 0.6441901
518.80 0.6359699
518.90 0.6248692
519.00 0.6117693
519.10 0.5981366
519.20 0.5821002
519.30 0.5623988
519.40 0.5388171
519.50 0.5127377
519.60 0.4882096
519.70 0.4691337
519.80 0.4620509
519.90 0.4713389
520.00 0.4979337
520.10 0.5341839
520.20 0.5782344
520.30 0.6260837
520.40 0.6720506
520.50 0.7107475
520.60 0.7390921
520.70 0.756885
520.80 0.7661078
520.90 0.7703659
521.00 0.7738871
521.10 0.7802665
521.20 0.7900866
521.30 0.79999
521.40 0.8125892
521.50 0.8282716
521.60 0.838451
521.70 0.8419687
521.80 0.8419687
521.90 0.8419687
522.00 0.8446186
522.10 0.8530963
522.20 0.8680378
522.30 0.8887713
522.40 0.9093421
522.50 0.9207486
522.60 0.9225825
522.70 0.9160368
522.80 0.9030337
522.90 0.8865217
523.00 0.8700993
523.10 0.8566115
523.20 0.8483377
523.30 0.8481242
523.40 0.8569871
523.50 0.866402
523.60 0.8778474
523.70 0.8924168
523.80 0.9095599
523.90 0.927291
524.00 0.9431231
524.10 0.955262
524.20 0.9630437
524.30 0.9551473
524.40 0.9351072
524.50 0.9105271
524.60 0.8863073
524.70 0.8669571
524.80 0.8556304
524.90 0.8529461
525.00 0.8529461
525.10 0.8529461
525.20 0.8529461
525.30 0.8547486
525.40 0.8607259
525.50 0.869557
525.60 0.8799419
525.70 0.8913589
525.80 0.9041812
525.90 0.9191313
526.00 0.9361654
526.10 0.9541613
526.20 0.9702317
526.30 0.9813643
526.40 0.986013
526.50 0.9837948
526.60 0.9762453
526.70 0.9667171
526.80 0.9590331
526.90 0.9572005
527.00 0.9653715
527.10 0.984207
527.20 1.008442
527.30 1.034747
527.40 1.058725
527.50 1.076274
527.60 1.083697
527.70 1.083697
527.80 1.083697
527.90 1.083697
528.00 1.083697
528.10 1.083697
528.20 1.083697
528.30 1.083697
528.40 1.083697
528.50 1.083697
528.60 1.083697
528.70 1.083697
528.80 1.088604
528.90 1.101567
529.00 1.115208
529.10 1.122643
529.20 1.122515
529.30 1.116823
529.40 1.113774
529.50 1.113413
529.60 1.113413
529.70 1.111825
529.80 1.104136
529.90 1.087499
530.00 1.060904
530.10 1.024654
530.20 0.9806034
530.30 0.9327541
530.40 0.8867872
530.50 0.8480903
530.60 0.8253552
530.70 0.8183595
530.80 0.8233809
530.90 0.8352124
531.00 0.8476913
531.10 0.8543742
531.20 0.8508233
531.30 0.8358205
531.40 0.8182908
531.50 0.8026084
531.60 0.792429
531.70 0.7889114
531.80 0.7889114
531.90 0.7889114
532.00 0.7869594
532.10 0.7887673
532.20 0.7913351
532.30 0.7906513
532.40 0.7833492
532.50 0.7689999
532.60 0.7486221
532.70 0.7248147
532.80 0.7042559
532.90 0.6871067
533.00 0.677244
533.10 0.6759515
533.20 0.6812311
533.30 0.688752
533.40 0.6939725
533.50 0.6936076
533.60 0.684882
533.70 0.6703126
533.80 0.6531695
533.90 0.6354384
534.00 0.6196063
534.10 0.6074674
534.20 0.5996857
534.30 0.596499
534.40 0.596499
534.50 0.596499
534.60 0.596499
534.70 0.596499
534.80 0.596499
534.90 0.596499
535.00 0.596499
535.10 0.596499
535.20 0.596499
535.30 0.5946965
535.40 0.5887192
535.50 0.5798881
535.60 0.5695032
535.70 0.5580862
535.80 0.5452639
535.90 0.5303138
536.00 0.5132797
536.10 0.4952838
536.20 0.4778899
536.30 0.4629112
536.40 0.4515839
536.50 0.4439206
536.60 0.4391452
536.70 0.435912
536.80 0.4321559
536.90 0.4252972
537.00 0.4129782
537.10 0.3941427
537.20 0.3699078
537.30 0.3436029
537.40 0.3196244
537.50 0.3020757
537.60 0.2946526
537.70 0.3007229
537.80 0.3142437
537.90 0.3326318
538.00 0.3547446
538.10 0.3803529
538.20 0.4090238
538.30 0.4399235
538.40 0.4718174
538.50 0.5031511
538.60 0.5323171
538.70 0.5574361
538.80 0.5719621
538.90 0.5729529
539.00 0.5682991
539.10 0.5667394
539.20 0.575681
539.30 0.5967838
539.40 0.6222688
539.50 0.6499974
539.60 0.6769463
539.70 0.6997979
539.80 0.7153367
539.90 0.7217311
540.00 0.7217311
540.10 0.7217311
540.20 0.7217311
540.30 0.7217311
540.40 0.7254161
540.50 0.739275
540.60 0.75661
540.70 0.7735676
540.80 0.7856546
540.90 0.7889336
541.00 0.7820665
541.10 0.7690041
541.20 0.7615846
541.30 0.7612298
541.40 0.7612298
541.50 0.7612298
541.60 0.7612298
541.70 0.7697308
541.80 0.7874367
541.90 0.8100249
542.00 0.8313733
542.10 0.8385759
542.20 0.8312613
542.30 0.8120503
542.40 0.7946122
542.50 0.7826855
542.60 0.7772303
542.70 0.7772303
542.80 0.7772303
542.90 0.7772303
543.00 0.7726963
543.10 0.7664155
543.20 0.7597597
543.30 0.7538338
543.40 0.7505493
543.50 0.7510262
543.60 0.7552599
543.70 0.7585343
543.80 0.7585343
543.90 0.7585343
544.00 0.7585343
544.10 0.7585343
544.20 0.7585343
544.30 0.7585343
544.40 0.7585343
544.50 0.7585343
544.60 0.7585343
544.70 0.7585343
544.80 0.7585343
544.90 0.7585343
545.00 0.7585343
545.10 0.7601725
545.20 0.7647515
545.30 0.7684273
545.40 0.768701
545.50 0.768701
545.60 0.768701
545.70 0.768701
545.80 0.768701
545.90 0.768701
546.00 0.768701
546.10 0.768701
546.20 0.768701
546.30 0.768701
546.40 0.7687548
546.50 0.7694759
546.60 0.7724009
546.70 0.7800335
546.80 0.7940306
546.90 0.8143765
547.00 0.8404723
547.10 0.8720512
547.20 0.9082527
547.30 0.9478033
547.40 0.9894855
547.50 1.032079
547.60 1.074167
547.70 1.108672
547.80 1.13428
547.90 1.154244
548.00 1.170201
548.10 1.182236
548.20 1.190349
548.30 1.194901
548.40 1.196296
548.50 1.194542
548.60 1.190195
548.70 1.185711
548.80 1.184238
548.90 1.186966
549.00 1.192062
549.10 1.195807
549.20 1.194732
549.30 1.188373
549.40 1.178556
549.50 1.16743
549.60 1.157622
549.70 1.152685
549.80 1.156179
549.90 1.170376
550.00 0.3425442
550.10 0.4097054
550.20 0.4776328
550.30 0.5495565
550.40 0.6267651
550.50 0.7094313
550.60 0.7972676
550.70 0.8905211
550.80 0.9883418
550.90 1.084222
551.00 1.179396
551.10 1.273506
551.20 1.365464
551.30 1.454093
551.40 1.537317
551.50 1.611265
551.60 1.673314
551.70 1.724899
551.80 1.7698
551.90 1.811504
552.00 1.851974
552.10 1.886869
552.20 1.912364
552.30 1.940034
552.40 1.978522
552.50 2.020027
552.60 2.062879
552.70 2.107666
552.80 2.155249
552.90 2.206728
553.00 2.263833
553.10 2.32583
553.20 2.38983
553.30 2.451164
553.40 2.503947
553.50 2.541587
553.60 2.555832
553.70 2.536751
553.80 2.501758
553.90 2.450893
554.00 2.385654
554.10 2.306707
554.20 2.216203
554.30 2.142731
554.40 2.099555
554.50 2.083806
554.60 2.08615
554.70 2.09368
554.80 2.093255
554.90 2.07493
555.00 2.037117
555.10 1.98653
555.20 1.94095
555.30 1.918314
555.40 1.912423
555.50 1.918806
555.60 1.946403
555.70 1.997388
555.80 2.07087
555.90 2.166326
556.00 2.283985
556.10 2.423157
556.20 2.578885
556.30 2.741158
556.40 2.894873
556.50 3.026326
556.60 3.120697
556.70 3.166255
556.80 3.177908
556.90 3.17166
557.00 3.148122
557.10 3.111219
557.20 3.067085
557.30 3.023292
557.40 2.986966
557.50 2.964865
557.60 2.965468
557.70 2.997705
557.80 3.048118
557.90 3.125589
558.00 3.234427
558.10 3.374988
558.20 3.545164
558.30 3.714139
558.40 3.862538
558.50 3.985223
558.60 4.082429
558.70 4.156669
558.80 4.212712
558.90 4.256997
559.00 4.292589
559.10 4.318974
559.20 4.325468
559.30 4.301727
559.40 4.264909
559.50 4.231018
559.60 4.196476
559.70 4.156391
559.80 4.10403
559.90 4.031461
560.00 3.934049
560.10 3.814256
560.20 3.680702
560.30 3.544962
560.40 3.422629
560.50 3.32769
560.60 3.273215
560.70 3.264377
560.80 3.277005
560.90 3.285092
561.00 3.280937
561.10 3.262716
561.20 3.24285
561.30 3.225309
561.40 3.208717
561.50 3.191375
561.60 3.169214
561.70 3.136978
561.80 3.086565
561.90 3.009093
562.00 2.900255
562.10 2.759694
562.20 2.593299
562.30 2.420871
562.40 2.250028
562.50 2.084625
562.60 1.927258
562.70 1.780768
562.80 1.646181
562.90 1.524341
563.00 1.431388
563.10 1.361479
563.20 1.308608
563.30 1.266355
563.40 1.241129
563.50 1.225371
563.60 1.212109
563.70 1.195372
563.80 1.171391
563.90 1.138672
564.00 1.095961
564.10 1.042095
564.20 0.9829781
564.30 0.9195849
564.40 0.8490315
564.50 0.7710122
564.60 0.6882649
564.70 0.6067576
564.80 0.5348931
564.90 0.4815761
565.00 0.4521643
565.10 0.4492197
565.20 0.4667866
565.30 0.4911166
565.40 0.5123732
565.50 0.5220138
565.60 0.5220138
565.70 0.5220138
565.80 0.5220138
565.90 0.5291654
566.00 0.5549102
566.10 0.6069383
566.20 0.6834922
566.30 0.7655883
566.40 0.8469313
566.50 0.9268504
566.60 1.010013
566.70 1.10543
566.80 1.22373
566.90 1.372495
567.00 1.536101
567.10 1.712353
567.20 1.897231
567.30 2.084778
567.40 2.250632
567.50 2.385873
567.60 2.490922
567.70 2.573752
567.80 2.644008
567.90 2.709033
568.00 2.770988
568.10 2.826675
568.20 2.865728
568.30 2.88322
568.40 2.88322
568.50 2.88322
568.60 2.88322
568.70 2.88322
568.80 2.88322
568.90 2.88322
569.00 2.88322
569.10 2.879292
569.20 2.873887
569.30 2.870429
569.40 2.87369
569.50 2.88739
569.60 2.904575
569.70 2.910943
569.80 2.910943
569.90 2.903791
570.00 2.878046
570.10 2.826018
570.20 2.745684
570.30 2.641636
570.40 2.521707
570.50 2.393773
570.60 2.263206
570.70 2.131071
570.80 2.003804
570.90 1.881855
571.00 1.759355
571.10 1.633712
571.20 1.506245
571.30 1.382772
571.40 1.271209
571.50 1.1777
571.60 1.101943
571.70 1.037407
571.80 0.9771323
571.90 0.9186562
572.00 0.8647173
572.10 0.8200811
572.20 0.7863386
572.30 0.7688465
572.40 0.7688465
572.50 0.7688465
572.60 0.7688465
572.70 0.7688465
572.80 0.7688465
572.90 0.7688465
573.00 0.7688465
573.10 0.7688465
573.20 0.7566845
573.30 0.7358119
573.40 0.7112941
573.50 0.6879539
573.60 0.6707688
573.70 0.6644011
573.80 0.6807435
573.90 0.7096515
574.00 0.7446002
574.10 0.7786486
574.20 0.8068697
574.30 0.8272842
574.40 0.8402564
574.50 0.8470738
574.60 0.848896
574.70 0.848896
574.80 0.8390107
574.90 0.8121944
575.00 0.7710879
575.10 0.7204791
575.20 0.6630684
575.30 0.5989939
575.40 0.5294146
575.50 0.4570029
575.60 0.3858666
575.70 0.3218245
575.80 0.2698028
575.90 0.2313816
576.00 0.2228096
576.10 0.2390756
576.20 0.2733399
576.30 0.3114939
576.40 0.3398948
576.50 0.3524106
576.60 0.3524106
576.70 0.3524106
576.80 0.3524106
576.90 0.3524106
577.00 0.3524106
577.10 0.3524106
577.20 0.3764355
577.30 0.4280888
577.40 0.5042567
577.50 0.60096
577.60 0.7122578
577.70 0.8323443
577.80 0.9399922
577.90 1.035003
578.00 1.121722
578.10 1.206793
578.20 1.29497
578.30 1.385264
578.40 1.473076
578.50 1.553873
578.60 1.623999
578.70 1.678767
578.80 1.714763
578.90 1.730951
579.00 1.730951
579.10 1.730951
579.20 1.730951
579.30 1.730951
579.40 1.730951
579.50 1.730951
579.60 1.730951
579.70 1.730951
579.80 1.735121
579.90 1.743248
580.00 1.733439
580.10 1.704289
580.20 1.664714
580.30 1.62656
580.40 1.598159
580.50 1.585643
580.60 1.585643
580.70 1.585643
580.80 1.585643
580.90 1.585643
581.00 1.586006
581.10 1.600239
581.20 1.603627
581.30 1.588304
581.40 1.551599
581.50 1.491564
581.60 1.407588
581.70 1.300256
581.80 1.176266
581.90 1.052346
582.00 0.9306792
582.10 0.81156
582.20 0.6951614
582.30 0.5844534
582.40 0.4925292
582.50 0.4169123
582.60 0.3538885
582.70 0.3014858
582.80 0.2654902
582.90 0.2493017
583.00 0.2493017
583.10 0.2493017
583.20 0.2613778
583.30 0.2904065
583.40 0.3349274
583.50 0.3905068
583.60 0.4514275
583.70 0.5134639
583.80 0.571686
583.90 0.628285
584.00 0.6907543
584.10 0.7655701
584.20 0.8497179
584.30 0.9365893
584.40 1.020888
584.50 1.09783
584.60 1.163133
584.70 1.214533
584.80 1.255172
584.90 1.291512
585.00 1.328955
585.10 1.357514
585.20 1.377672
585.30 1.388791
585.40 1.388179
585.50 1.371477
585.60 1.344154
585.70 1.331401
585.80 1.331401
585.90 1.331401
586.00 1.331401
586.10 1.331401
586.20 1.331401
586.30 1.331401
586.40 1.322541
586.50 1.310543
586.60 1.301618
586.70 1.299253
586.80 1.299253
586.90 1.299253
587.00 1.299253
587.10 1.299253
587.20 1.287177
587.30 1.258148
587.40 1.213627
587.50 1.158048
587.60 1.097127
587.70 1.035091
587.80 0.9726988
587.90 0.9079729
588.00 0.8378638
588.10 0.7603766
588.20 0.6824158
588.30 0.6111792
588.40 0.5407749
588.50 0.467382
588.60 0.402079
588.70 0.3506795
588.80 0.3100406
588.90 0.2737005
589.00 0.2358945
589.10 0.193103
589.20 0.1455321
589.30 0.1099183
589.40 0.08558711
589.50 0.07311402
589.60 0.07311402
589.70 0.07311402
589.80 0.07311402
589.90 0.07311402
590.00 0.07311402
590.10 0.07311402
590.20 0.07311402
590.30 0.07311402
590.40 0.07311402
590.50 0.07379165
590.60 0.1130046
590.70 0.1862084
590.80 0.2799153
590.90 0.3745103
591.00 0.4498253
591.10 0.489629
591.20 0.489629
591.30 0.489629
591.40 0.489629
591.50 0.489629
591.60 0.489629
591.70 0.489629
591.80 0.489629
591.90 0.489629
592.00 0.489629
592.10 0.489629
592.20 0.4834421
592.30 0.4678073
592.40 0.4544486
592.50 0.473293
592.60 0.5127496
592.70 0.5606123
592.80 0.6086256
592.90 0.6511198
593.00 0.684241
593.10 0.7055231
593.20 0.713577
593.30 0.7017411
593.40 0.6872208
593.50 0.6797287
593.60 0.6828983
593.70 0.6990276
593.80 0.7274999
593.90 0.7660387
594.00 0.8103535
594.10 0.8542025
594.20 0.8912316
594.30 0.9164741
594.40 0.9281276
594.50 0.9275816
594.60 0.8883686
594.70 0.8151648
594.80 0.7214579
594.90 0.626863
595.00 0.551548
595.10 0.5117442
595.20 0.5117442
595.30 0.5157186
595.40 0.5206845
595.50 0.5215006
595.60 0.5215006
595.70 0.5215006
595.80 0.5215006
595.90 0.5215006
596.00 0.5215006
596.10 0.5215006
596.20 0.5215006
596.30 0.5359142
596.40 0.5777376
596.50 0.6201594
596.60 0.6581015
596.70 0.6910605
596.80 0.7200067
596.90 0.7448227
597.00 0.7647944
597.10 0.7781405
597.20 0.7847352
597.30 0.7847352
597.40 0.7847352
597.50 0.7847352
597.60 0.7815655
597.70 0.7654362
597.80 0.7389291
597.90 0.7156725
598.00 0.69385
598.10 0.6729914
598.20 0.6542461
598.30 0.6398059
598.40 0.6324729
598.50 0.636704
598.60 0.6514537
598.70 0.6867498
598.80 0.7487384
598.90 0.8359871
599.00 0.9371656
599.10 1.035519
599.20 1.116023
599.30 1.165502
599.40 1.184461
599.50 1.183645
599.60 1.183645
599.70 1.183645
599.80 1.183645
599.90 1.183645
600.00 0.8996957
600.10 0.9196123
600.20 0.7313535
600.30 0.4320943
600.40 0.1728184
600.50 0.1745096
600.60 0.5899887
600.70 1.411842
600.80 2.479543
600.90 3.489948
601.00 4.047141
601.10 3.934147
601.20 3.22016
601.30 2.138138
601.40 0.9569738
601.50 0
601.60 0
601.70 0
601.80 0
601.90 0
602.00 0
602.10 0
602.20 0
602.30 0
602.40 0
602.50 0
602.60 0
602.70 0
602.80 0
602.90 0
603.00 0
603.10 0
603.20 0.524188
603.30 1.794794
603.40 3.045245
603.50 4.018636
603.60 4.496575
603.70 4.502894
603.80 4.200761
603.90 3.756217
604.00 3.288566
604.10 2.918286
604.20 2.792624
604.30 2.957957
604.40 3.253992
604.50 3.413037
604.60 3.236637
604.70 2.699203
604.80 1.937879
604.90 1.20803
605.00 0.7010426
605.10 0.4142158
605.20 0.2266296
605.30 0.03402321
605.40 0
605.50 0
605.60 0
605.70 0
605.80 0
605.90 0
606.00 0
606.10 0
606.20 0.4624735
606.30 1.211462
606.40 1.84288
606.50 2.255365
606.60 2.468226
606.70 2.547057
606.80 2.495936
606.90 2.253268
607.00 1.837993
607.10 1.373262
607.20 1.021888
607.30 0.9340679
607.40 1.165162
607.50 1.665733
607.60 2.368602
607.70 3.17227
607.80 4.009777
607.90 4.819816
608.00 5.481717
608.10 5.850064
608.20 5.85625
608.30 5.546887
608.40 5.005926
608.50 4.304948
608.60 3.510412
608.70 2.733108
608.80 2.133397
608.90 1.820515
609.00 1.776097
609.10 1.910709
609.20 2.05917
609.30 2.025825
609.40 1.698855
609.50 1.16537
609.60 0.5945463
609.70 0.06435984
609.80 0
609.90 0
610.00 0
610.10 0
610.20 0
610.30 0
610.40 0.2230485
610.50 0.5024454
610.60 0.7363326
610.70 1.021599
610.80 1.420376
610.90 1.877377
611.00 2.259232
611.10 2.523243
611.20 2.722469
611.30 2.85365
611.40 2.871835
611.50 2.772689
611.60 2.559016
611.70 2.250489
611.80 1.926235
611.90 1.75083
612.00 1.821325
612.10 2.088972
612.20 2.385601
612.30 2.563263
612.40 2.577923
612.50 2.381708
612.60 1.946531
612.70 1.315995
612.80 0.602955
612.90 0
613.00 0
613.10 0
613.20 0.6567124
613.30 1.709881
613.40 2.713219
613.50 3.407938
613.60 3.69201
613.70 3.55148
613.80 3.043167
613.90 2.352171
614.00 1.690552
614.10 1.202342
614.20 0.9635229
614.30 0.9446956
614.40 1.064989
614.50 1.287043
614.60 1.597404
614.70 2.005743
614.80 2.526319
614.90 3.172852
615.00 3.968354
615.10 4.870019
615.20 5.736918
615.30 6.381209
615.40 6.68853
615.50 6.705523
615.60 6.548087
615.70 6.326289
615.80 6.086677
615.90 5.799672
616.00 5.440878
616.10 5.045179
616.20 4.676926
616.30 4.385253
616.40 4.171787
616.50 4.027164
616.60 4.007665
616.70 4.164279
616.80 4.454872
616.90 4.781948
617.00 5.030839
617.10 5.109169
617.20 5.027832
617.30 4.924267
617.40 4.974189
617.50 5.255511
617.60 5.724651
617.70 6.200761
617.80 6.48698
617.90 6.494069
618.00 6.161934
618.10 5.530274
618.20 4.764519
618.30 4.015889
618.40 3.401006
618.50 3.020368
618.60 2.880552
618.70 2.828574
618.80 2.668269
618.90 2.341541
619.00 1.918627
619.10 1.535395
619.20 1.275108
619.30 1.123439
619.40 1.009887
619.50 0.8375785
619.60 0.5582547
619.70 0.247585
619.80 0.007337404
619.90 0
620.00 0
620.10 0
620.20 0.2396418
620.30 0.6796355
620.40 1.14359
620.50 1.532264
620.60 1.834764
620.70 2.146639
620.80 2.544272
620.90 3.066346
621.00 3.700248
621.10 4.270137
621.20 4.598343
621.30 4.688591
621.40 4.612816
621.50 4.435167
621.60 4.231078
621.70 4.103175
621.80 4.066536
621.90 4.097948
622.00 4.119684
622.10 3.976785
622.20 3.627485
622.30 3.089497
622.40 2.392507
622.50 1.657698
622.60 1.039412
622.70 0.6430268
622.80 0.5414621
622.90 0.7558726
623.00 1.202912
623.10 1.713386
623.20 2.145219
623.30 2.421963
623.40 2.536908
623.50 2.540171
623.60 2.461319
623.70 2.306296
623.80 2.090264
623.90 1.8781
624.00 1.781779
624.10 1.88746
624.20 2.181239
624.30 2.578856
624.40 2.954584
624.50 3.174377
624.60 3.123227
624.70 2.785189
624.80 2.274885
624.90 1.736893
625.00 1.259702
625.10 0.9398618
625.20 0.9009793
625.30 1.157631
625.40 1.619049
625.50 2.167035
625.60 2.734362
625.70 3.257857
625.80 3.64744
625.90 3.857734
626.00 3.946641
626.10 3.953233
626.20 3.806938
626.30 3.519881
626.40 3.246607
626.50 3.115793
626.60 3.143319
626.70 3.311701
626.80 3.591133
626.90 3.850021
627.00 3.885672
627.10 3.627523
627.20 3.179386
627.30 2.698914
627.40 2.303025
627.50 2.071667
627.60 2.103575
627.70 2.394214
627.80 2.839197
627.90 3.310185
628.00 3.687233
628.10 3.905528
628.20 3.958898
628.30 3.963966
628.40 4.064145
628.50 4.301086
628.60 4.636054
628.70 4.92912
628.80 5.006607
628.90 4.793131
629.00 4.294917
629.10 3.586496
629.20 2.807433
629.30 2.094796
629.40 1.561015
629.50 1.419463
629.60 1.81072
629.70 2.598165
629.80 3.48979
629.90 4.191894
630.00 4.527619
630.10 4.51067
630.20 4.334999
630.30 4.184854
630.40 4.130782
630.50 4.055354
630.60 3.837315
630.70 3.582532
630.80 3.454697
630.90 3.457603
631.00 3.557456
631.10 3.80946
631.20 4.285813
631.30 4.985084
631.40 5.779726
631.50 6.476758
631.60 6.896798
631.70 6.992483
631.80 6.829875
631.90 6.604789
632.00 6.509518
632.10 6.617139
632.20 6.962729
632.30 7.464382
632.40 7.955932
632.50 8.284593
632.60 8.340594
632.70 8.120033
632.80 7.737766
632.90 7.351702
633.00 7.023039
633.10 6.662664
633.20 6.18363
633.30 5.631133
633.40 5.097839
633.50 4.620985
633.60 4.211663
633.70 3.907298
633.80 3.721965
633.90 3.643542
634.00 3.68882
634.10 3.849687
634.20 4.041211
634.30 4.19762
634.40 4.349713
634.50 4.592708
634.60 5.037995
634.70 5.697133
634.80 6.485725
634.90 7.252504
635.00 7.826989
635.10 8.063709
635.20 7.842297
635.30 7.151641
635.40 6.119349
635.50 4.97473
635.60 4.007808
635.70 3.451004
635.80 3.391353
635.90 3.829949
636.00 4.641204
636.10 5.572153
636.20 6.424834
636.30 7.111803
636.40 7.548225
636.50 7.685004
636.60 7.601029
636.70 7.425577
636.80 7.199357
636.90 6.861351
637.00 6.355865
637.10 5.747685
637.20 5.168045
637.30 4.693169
637.40 4.469021
637.50 4.718303
637.60 5.439992
637.70 6.401636
637.80 7.337653
637.90 8.010298
638.00 8.243291
638.10 7.957166
638.20 7.257622
638.30 6.417345
638.40 5.693897
638.50 5.204831
638.60 5.007031
638.70 5.122331
638.80 5.446661
638.90 5.789987
639.00 6.043852
639.10 6.207106
639.20 6.306215
639.30 6.386172
639.40 6.471561
639.50 6.550161
639.60 6.575515
639.70 6.472819
639.80 6.233335
639.90 5.945755
640.00 5.699023
640.10 5.574239
640.20 5.633774
640.30 5.865401
640.40 6.191213
640.50 6.523541
640.60 6.797651
640.70 6.930782
640.80 6.87072
640.90 6.679415
641.00 6.460504
641.10 6.313614
641.20 6.28961
641.30 6.36089
641.40 6.464246
641.50 6.502249
641.60 6.439386
641.70 6.377377
641.80 6.40743
641.90 6.522457
642.00 6.671622
642.10 6.808124
642.20 6.902643
642.30 6.896813
642.40 6.738157
642.50 6.430181
642.60 6.028707
642.70 5.612296
642.80 5.281282
642.90 5.1684
643.00 5.294982
643.10 5.528283
643.20 5.73554
643.30 5.820033
643.40 5.706219
643.50 5.406943
643.60 4.983926
643.70 4.511541
643.80 4.108873
643.90 3.89515
644.00 3.953706
644.10 4.322401
644.20 4.974526
644.30 5.811861
644.40 6.721336
644.50 7.601892
644.60 8.31325
644.70 8.761541
644.80 8.989285
644.90 9.048137
645.00 8.991505
645.10 8.905327
645.20 8.828925
645.30 8.757948
645.40 8.659402
645.50 8.496265
645.60 8.242636
645.70 7.894459
645.80 7.49989
645.90 7.124765
646.00 6.844866
646.10 6.729439
646.20 6.793208
646.30 7.048702
646.40 7.436133
646.50 7.826767
646.60 8.115939
646.70 8.221524
646.80 8.139102
646.90 7.920688
647.00 7.622553
647.10 7.315068
647.20 7.027905
647.30 6.722432
647.40 6.408426
647.50 6.154093
647.60 5.988759
647.70 5.873914
647.80 5.805943
647.90 5.834001
648.00 5.963765
648.10 6.192037
648.20 6.492991
648.30 6.813995
648.40 7.133216
648.50 7.448013
648.60 7.790155
648.70 8.215345
648.80 8.723683
648.90 9.266565
649.00 9.767986
649.10 10.1433
649.20 10.37846
649.30 10.53483
649.40 10.71015
649.50 10.979
649.60 11.34725
649.70 11.77605
649.80 12.16187
649.90 12.36007
650.00 12.24755
650.10 11.74869
650.20 10.8794
650.30 9.7287
650.40 8.48819
650.50 7.442933
650.60 6.787913
650.70 6.56777
650.80 6.730596
650.90 7.160551
651.00 7.740389
651.10 8.373755
651.20 9.007394
651.30 9.587147
651.40 10.04411
651.50 10.3869
651.60 10.67688
651.70 10.97929
651.80 11.3175
651.90 11.61099
652.00 11.78129
652.10 11.80742
652.20 11.67861
652.30 11.41562
652.40 11.06421
652.50 10.69016
652.60 10.37539
652.70 10.19247
652.80 10.13517
652.90 10.14638
653.00 10.20258
653.10 10.29851
653.20 10.42684
653.30 10.59845
653.40 10.82963
653.50 11.09096
653.60 11.31959
653.70 11.4262
653.80 11.34472
653.90 11.09161
654.00 10.70749
654.10 10.25587
654.20 9.915082
654.30 9.863637
654.40 10.10607
654.50 10.5146
654.60 10.94398
654.70 11.31554
654.80 11.58858
654.90 11.76287
655.00 11.89415
655.10 12.03102
655.20 12.18155
655.30 12.30649
655.40 12.3729
655.50 12.38139
655.60 12.30881
655.70 12.14983
655.80 12.0026
655.90 12.01307
656.00 12.25802
656.10 12.68949
656.20 13.16657
656.30 13.54048
656.40 13.72731
656.50 13.72591
656.60 13.58585
656.70 13.34799
656.80 13.04357
656.90 12.71341
657.00 12.36647
657.10 11.96537
657.20 11.48769
657.30 10.957
657.40 10.37751
657.50 9.843776
657.60 9.535353
657.70 9.505404
657.80 9.695188
657.90 10.04784
658.00 10.48695
658.10 10.90067
658.20 11.17946
658.30 11.22799
658.40 11.06732
658.50 10.8439
658.60 10.66877
658.70 10.60229
658.80 10.76001
658.90 11.16919
659.00 11.71387
659.10 12.27239
659.20 12.72292
659.30 12.96455
659.40 12.99358
659.50 12.88072
659.60 12.724
659.70 12.62858
659.80 12.67008
659.90 12.8512
660.00 13.13749
660.10 13.44112
660.20 13.61291
660.30 13.52941
660.40 13.12374
660.50 12.44463
660.60 11.6602
660.70 10.97889
660.80 10.58233
660.90 10.59491
661.00 11.02456
661.10 11.76067
661.20 12.59628
661.30 13.32644
661.40 13.79922
661.50 13.93165
661.60 13.75172
661.70 13.36462
661.80 12.94029
661.90 12.62266
662.00 12.47226
662.10 12.46406
662.20 12.49948
662.30 12.47154
662.40 12.35269
662.50 12.21827
662.60 12.17275
662.70 12.26118
662.80 12.46804
662.90 12.76386
663.00 13.08833
663.10 13.36442
663.20 13.54923
663.30 13.6335
663.40 13.67411
663.50 13.7716
663.60 13.97544
663.70 14.29783
663.80 14.73946
663.90 15.23687
664.00 15.65843
664.10 15.90105
664.20 15.96795
664.30 15.89581
664.40 15.72878
664.50 15.48328
664.60 15.11668
664.70 14.63699
664.80 14.07604
664.90 13.46698
665.00 12.9212
665.10 12.58895
665.20 12.54761
665.30 12.79113
665.40 13.28618
665.50 13.95639
665.60 14.65151
665.70 15.23629
665.80 15.66181
665.90 15.96464
666.00 16.21038
666.10 16.42181
666.20 16.57847
666.30 16.65853
666.40 16.65487
666.50 16.53839
666.60 16.28704
666.70 15.92485
666.80 15.55333
666.90 15.32801
667.00 15.38898
667.10 15.79704
667.20 16.46298
667.30 17.181
667.40 17.74551
667.50 18.00491
667.60 17.91916
667.70 17.55597
667.80 17.01608
667.90 16.44192
668.00 15.991
668.10 15.8098
668.20 15.96801
668.30 16.41141
668.40 16.99031
668.50 17.54685
668.60 17.97495
668.70 18.22258
668.80 18.30575
668.90 18.30289
669.00 18.28835
669.10 18.27134
669.20 18.23308
669.30 18.13709
669.40 17.96324
669.50 17.7109
669.60 17.37723
669.70 16.97046
669.80 16.49455
669.90 15.93017
670.00 15.29172
670.10 14.6504
670.20 14.04312
670.30 13.41901
670.40 12.70358
670.50 11.91853
670.60 11.17732
670.70 10.61401
670.80 10.30453
670.90 10.25793
671.00 10.45821
671.10 10.87611
671.20 11.48748
671.30 12.23897
671.40 13.03654
671.50 13.76739
671.60 14.38277
671.70 14.91695
671.80 15.40824
671.90 15.86671
672.00 16.27839
672.10 16.64668
672.20 17.00235
672.30 17.35395
672.40 17.6643
672.50 17.8711
672.60 17.91829
672.70 17.78897
672.80 17.52051
672.90 17.21772
673.00 16.96271
673.10 16.79468
673.20 16.76394
673.30 16.89501
673.40 17.18361
673.50 17.56898
673.60 17.93037
673.70 18.15827
673.80 18.18939
673.90 18.03403
674.00 17.76437
674.10 17.48396
674.20 17.32736
674.30 17.40231
674.40 17.74992
674.50 18.34361
674.60 19.08797
674.70 19.84505
674.80 20.43982
674.90 20.6977
675.00 20.5986
675.10 20.28162
675.20 19.94796
675.30 19.73239
675.40 19.67976
675.50 19.83946
675.60 20.19392
675.70 20.61809
675.80 20.9564
675.90 21.08433
676.00 20.94017
676.10 20.56724
676.20 20.08686
676.30 19.63498
676.40 19.2787
676.50 19.02128
676.60 18.85089
676.70 18.79767
676.80 18.94742
676.90 19.31634
677.00 19.81572
677.10 20.35038
677.20 20.87733
677.30 21.37642
677.40 21.82087
677.50 22.1579
677.60 22.34217
677.70 22.35348
677.80 22.20023
677.90 21.94522
678.00 21.68205
678.10 21.47017
678.20 21.30568
678.30 21.18715
678.40 21.15751
678.50 21.2316
678.60 21.32505
678.70 21.31896
678.80 21.12764
678.90 20.72531
679.00 20.12969
679.10 19.40417
679.20 18.68092
679.30 18.09541
679.40 17.74909
679.50 17.67647
679.60 17.85234
679.70 18.19622
679.80 18.56357
679.90 18.83359
680.00 18.99654
680.10 19.13273
680.20 19.31645
680.30 19.49104
680.40 19.54846
680.50 19.47227
680.60 19.24728
680.70 18.84201
680.80 18.25806
680.90 17.59894
681.00 17.03659
681.10 16.7045
681.20 16.68161
681.30 16.98472
681.40 17.55415
681.50 18.24825
681.60 18.91201
681.70 19.4697
681.80 19.8903
681.90 20.10686
682.00 20.09199
682.10 19.88767
682.20 19.57545
682.30 19.19398
682.40 18.74496
682.50 18.23008
682.60 17.67764
682.70 17.15038
682.80 16.64159
682.90 16.10692
683.00 15.5197
683.10 14.95655
683.20 14.58868
683.30 14.5017
683.40 14.69259
683.50 15.15115
683.60 15.79139
683.70 16.47572
683.80 17.08306
683.90 17.57928
684.00 17.99368
684.10 18.33976
684.20 18.65912
684.30 18.98899
684.40 19.35435
684.50 19.67725
684.60 19.79783
684.70 19.66826
684.80 19.31763
684.90 18.76273
685.00 18.06392
685.10 17.36037
685.20 16.79674
685.30 16.44443
685.40 16.27002
685.50 16.18975
685.60 16.16292
685.70 16.16675
685.80 16.17947
685.90 16.21303
686.00 16.26835
686.10 16.3225
686.20 16.34967
686.30 16.35403
686.40 16.36749
686.50 16.42528
686.60 16.59068
686.70 16.90215
686.80 17.38232
686.90 18.034
687.00 18.74054
687.10 19.32825
687.20 19.63153
687.30 19.5565
687.40 19.11258
687.50 18.35956
687.60 17.39316
687.70 16.34135
687.80 15.36858
687.90 14.63923
688.00 14.21146
688.10 14.06609
688.20 14.15637
688.30 14.4054
688.40 14.73787
688.50 15.08049
688.60 15.35054
688.70 15.44243
688.80 15.32796
688.90 15.12092
689.00 14.98398
689.10 14.99854
689.20 15.12046
689.30 15.26261
689.40 15.37905
689.50 15.43898
689.60 15.37954
689.70 15.13441
689.80 14.70071
689.90 14.17915
690.00 13.72872
690.10 13.50306
690.20 13.55841
690.30 13.82604
690.40 14.21494
690.50 14.66265
690.60 15.12192
690.70 15.50902
690.80 15.69486
690.90 15.54964
691.00 15.02869
691.10 14.22598
691.20 13.27607
691.30 12.29528
691.40 11.4502
691.50 10.90349
691.60 10.72687
691.70 10.91284
691.80 11.36888
691.90 11.96677
692.00 12.53731
692.10 12.92242
692.20 13.0799
692.30 13.11888
692.40 13.22716
692.50 13.48701
692.60 13.91139
692.70 14.46508
692.80 15.00038
692.90 15.35875
693.00 15.45385
693.10 15.30149
693.20 15.00533
693.30 14.66791
693.40 14.45997
693.50 14.58158
693.60 15.08388
693.70 15.85401
693.80 16.66967
693.90 17.34205
694.00 17.7965
694.10 18.08211
694.20 18.25542
694.30 18.31808
694.40 18.34659
694.50 18.41869
694.60 18.53921
694.70 18.70174
694.80 18.87688
694.90 19.00014
695.00 19.01203
695.10 18.87979
695.20 18.6165
695.30 18.28109
695.40 17.90495
695.50 17.44918
695.60 16.92218
695.70 16.44039
695.80 16.06199
695.90 15.79302
696.00 15.65742
696.10 15.64459
696.20 15.6792
696.30 15.68713
696.40 15.66636
696.50 15.66491
696.60 15.7414
696.70 15.93139
696.80 16.23052
696.90 16.61725
697.00 17.09093
697.10 17.6157
697.20 18.15342
697.30 18.70408
697.40 19.25495
697.50 19.77953
697.60 20.21732
697.70 20.50234
697.80 20.59011
697.90 20.45889
698.00 20.12838
698.10 19.63505
698.20 19.04748
698.30 18.44752
698.40 17.90864
698.50 17.52589
698.60 17.38941
698.70 17.48773
698.80 17.70304
698.90 17.93422
699.00 18.17218
699.10 18.41875
699.20 18.64155
699.30 18.81431
699.40 18.8905
699.50 18.82129
699.60 18.59594
699.70 18.27592
699.80 17.94435
699.90 17.64071
700.00 17.36434
700.10 17.13352
700.20 17.00177
700.30 16.96565
700.40 16.9781
700.50 17.00994
700.60 17.05922
700.70 17.18049
700.80 17.45556
700.90 17.93869
701.00 18.62621
701.10 19.44567
701.20 20.32059
701.30 21.19407
701.40 22.0072
701.50 22.69233
701.60 23.18133
701.70 23.43959
701.80 23.45674
701.90 23.25135
702.00 22.87998
702.10 22.33108
702.20 21.57474
702.30 20.71518
702.40 19.96735
702.50 19.54777
702.60 19.60238
702.70 20.18012
702.80 21.17961
702.90 22.41381
703.00 23.70417
703.10 24.84032
703.20 25.64937
703.30 26.07962
703.40 26.1791
703.50 26.099
703.60 26.04131
703.70 26.11292
703.80 26.3272
703.90 26.67302
704.00 27.04416
704.10 27.2303
704.20 27.08972
704.30 26.64005
704.40 26.01871
704.50 25.45402
704.60 25.16276
704.70 25.27528
704.80 25.78361
704.90 26.47738
705.00 27.06345
705.10 27.36934
705.20 27.33201
705.30 26.94965
705.40 26.33707
705.50 25.68195
705.60 25.14063
705.70 24.78333
705.80 24.58893
705.90 24.49486
706.00 24.4484
706.10 24.39264
706.20 24.25851
706.30 24.09478
706.40 24.05811
706.50 24.22514
706.60 24.59021
706.70 25.09433
706.80 25.59772
706.90 25.9794
707.00 26.22559
707.10 26.36629
707.20 26.43517
707.30 26.49253
707.40 26.59637
707.50 26.7606
707.60 27.01291
707.70 27.3977
707.80 27.89573
707.90 28.43415
708.00 28.90124
708.10 29.19599
708.20 29.3053
708.30 29.29718
708.40 29.22969
708.50 29.10842
708.60 28.93176
708.70 28.71332
708.80 28.44625
708.90 28.12731
709.00 27.80952
709.10 27.53084
709.20 27.26175
709.30 26.97875
709.40 26.7338
709.50 26.59665
709.60 26.58192
709.70 26.62922
709.80 26.63237
709.90 26.52375
710.00 26.27934
710.10 25.90219
710.20 25.44544
710.30 24.96811
710.40 24.50377
710.50 24.12349
710.60 23.93967
710.70 23.9995
710.80 24.23828
710.90 24.5332
711.00 24.76812
711.10 24.88327
711.20 24.88848
711.30 24.82653
711.40 24.78829
711.50 24.87482
711.60 25.1313
711.70 25.60755
711.80 26.34235
711.90 27.26166
712.00 28.20669
712.10 29.01774
712.20 29.56517
712.30 29.76049
712.40 29.58209
712.50 29.11883
712.60 28.58069
712.70 28.19281
712.80 28.07282
712.90 28.25851
713.00 28.74213
713.10 29.40747
713.20 30.03397
713.30 30.418
713.40 30.46329
713.50 30.18491
713.60 29.66025
713.70 29.01707
713.80 28.41999
713.90 28.01832
714.00 27.85703
714.10 27.89679
714.20 28.09559
714.30 28.40386
714.40 28.79626
714.50 29.26332
714.60 29.78821
714.70 30.31428
714.80 30.74478
714.90 31.00822
715.00 31.07827
715.10 30.95189
715.20 30.63743
715.30 30.13966
715.40 29.50882
715.50 28.87497
715.60 28.37554
715.70 28.09263
715.80 28.02179
715.90 28.10491
716.00 28.27046
716.10 28.48038
716.20 28.73001
716.30 28.98605
716.40 29.21974
716.50 29.41901
716.60 29.56364
716.70 29.64638
716.80 29.659
716.90 29.59899
717.00 29.48464
717.10 29.32325
717.20 29.10392
717.30 28.85263
717.40 28.62497
717.50 28.47398
717.60 28.46044
717.70 28.63184
717.80 28.9959
717.90 29.53655
718.00 30.24031
718.10 31.05454
718.20 31.86961
718.30 32.55289
718.40 33.01316
718.50 33.21463
718.60 33.15948
718.70 32.87948
718.80 32.47258
718.90 32.07861
719.00 31.76241
719.10 31.5509
719.20 31.49129
719.30 31.5891
719.40 31.77029
719.50 31.92339
719.60 31.96043
719.70 31.8565
719.80 31.60137
719.90 31.23068
720.00 30.84505
720.10 30.55031
720.20 30.39733
720.30 30.37483
720.40 30.48287
720.50 30.68449
720.60 30.86698
720.70 30.93489
720.80 30.88635
720.90 30.8033
721.00 30.77763
721.10 30.81137
721.20 30.84259
721.30 30.82834
721.40 30.74368
721.50 30.57827
721.60 30.34186
721.70 30.08183
721.80 29.87386
721.90 29.79915
722.00 29.91323
722.10 30.25474
722.20 30.83405
722.30 31.58253
722.40 32.34864
722.50 33.00769
722.60 33.49856
722.70 33.74975
722.80 33.71962
722.90 33.42442
723.00 32.95286
723.10 32.42377
723.20 31.91299
723.30 31.48411
723.40 31.22291
723.50 31.14491
723.60 31.12037
723.70 31.00753
723.80 30.79655
723.90 30.54632
724.00 30.26814
724.10 29.94073
724.20 29.55636
724.30 29.23577
724.40 29.19844
724.50 29.54428
724.60 30.27057
724.70 31.32364
724.80 32.59319
724.90 33.95826
725.00 35.32392
725.10 36.57613
725.20 37.54787
725.30 38.08047
725.40 38.14509
725.50 37.88376
725.60 37.47805
725.70 36.97607
725.80 36.31051
725.90 35.51994
726.00 34.76666
726.10 34.18221
726.20 33.79514
726.30 33.57129
726.40 33.47743
726.50 33.49806
726.60 33.63857
726.70 33.87899
726.80 34.10271
726.90 34.18217
727.00 34.2075
727.10 34.37285
727.20 34.72214
727.30 35.1379
727.40 35.44823
727.50 35.64878
727.60 35.8655
727.70 36.13542
727.80 36.43275
727.90 36.71907
728.00 36.94345
728.10 37.12347
728.20 37.37608
728.30 37.78446
728.40 38.25498
728.50 38.63106
728.60 38.88741
728.70 39.1188
728.80 39.39618
728.90 39.63972
729.00 39.75712
729.10 39.82313
729.20 39.95404
729.30 40.19182
729.40 40.51357
729.50 40.82144
729.60 40.98055
729.70 40.86166
729.80 40.36552
729.90 39.51608
730.00 38.41856
730.10 37.22526
730.20 36.18343
730.30 35.55516
730.40 35.45413
730.50 35.82571
730.60 36.5334
730.70 37.38316
730.80 38.14823
730.90 38.54863
731.00 38.48198
731.10 38.10782
731.20 37.65801
731.30 37.34321
731.40 37.36612
731.50 37.81373
731.60 38.58393
731.70 39.48083
731.80 40.29401
731.90 40.84376
732.00 41.0117
732.10 40.80362
732.20 40.24578
732.30 39.45906
732.40 38.61207
732.50 37.86928
732.60 37.44236
732.70 37.43893
732.80 37.80144
732.90 38.42467
733.00 39.16965
733.10 39.84457
733.20 40.31306
733.30 40.5215
733.40 40.39273
733.50 39.90083
733.60 39.23791
733.70 38.64154
733.80 38.18242
733.90 37.86061
734.00 37.7011
734.10 37.72178
734.20 37.91813
734.30 38.25173
734.40 38.67695
734.50 39.16395
734.60 39.63978
734.70 39.9935
734.80 40.23975
734.90 40.4004
735.00 40.39751
735.10 40.20515
735.20 39.91978
735.30 39.60476
735.40 39.20799
735.50 38.65084
735.60 37.92659
735.70 37.10415
735.80 36.33332
735.90 35.77793
736.00 35.55347
736.10 35.71629
736.20 36.13824
736.30 36.54869
736.40 36.7666
736.50 36.79151
736.60 36.62668
736.70 36.21035
736.80 35.59265
736.90 35.01412
737.00 34.7196
737.10 34.84403
737.20 35.34356
737.30 36.04633
737.40 36.75061
737.50 37.27468
737.60 37.57925
737.70 37.78187
737.80 37.97493
737.90 38.10973
738.00 38.14602
738.10 38.15003
738.20 38.15831
738.30 38.11319
738.40 37.96097
738.50 37.71702
738.60 37.45931
738.70 37.27413
738.80 37.20971
738.90 37.24004
739.00 37.2644
739.10 37.18593
739.20 37.0356
739.30 36.91415
739.40 36.84265
739.50 36.76551
739.60 36.5884
739.70 36.27169
739.80 35.8453
739.90 35.31793
740.00 34.74412
740.10 34.23814
740.20 33.88555
740.30 33.72035
740.40 33.72873
740.50 33.86037
740.60 33.96705
740.70 33.92533
740.80 33.76639
740.90 33.56086
741.00 33.37869
741.10 33.24293
741.20 33.17717
741.30 33.28712
741.40 33.60667
741.50 34.03025
741.60 34.40525
741.70 34.60896
741.80 34.58136
741.90 34.31107
742.00 33.83466
742.10 33.18426
742.20 32.40984
742.30 31.59382
742.40 30.77433
742.50 30.04581
742.60 29.58039
742.70 29.49237
742.80 29.79323
742.90 30.40602
743.00 31.223
743.10 32.13074
743.20 33.04575
743.30 33.94577
743.40 34.85134
743.50 35.76071
743.60 36.58261
743.70 37.25227
743.80 37.84732
743.90 38.39215
744.00 38.73922
744.10 38.72572
744.20 38.28801
744.30 37.48769
744.40 36.46699
744.50 35.39933
744.60 34.45026
744.70 33.71104
744.80 33.19025
744.90 32.89105
745.00 32.80652
745.10 32.8745
745.20 32.98183
745.30 33.06322
745.40 33.12639
745.50 33.15378
745.60 33.11613
745.70 33.00789
745.80 32.83216
745.90 32.61107
746.00 32.35845
746.10 32.10841
746.20 31.96855
746.30 32.01378
746.40 32.27015
746.50 32.73863
746.60 33.33132
746.70 33.87704
746.80 34.2199
746.90 34.331
747.00 34.25891
747.10 34.08875
747.20 33.92435
747.30 33.82004
747.40 33.80455
747.50 33.87203
747.60 33.89175
747.70 33.73988
747.80 33.41981
747.90 33.00299
748.00 32.63455
748.10 32.44971
748.20 32.47819
748.30 32.63601
748.40 32.82638
748.50 32.98979
748.60 33.11774
748.70 33.22275
748.80 33.27252
748.90 33.22582
749.00 33.09954
749.10 32.92976
749.20 32.69039
749.30 32.30561
749.40 31.70839
749.50 30.95588
749.60 30.19932
749.70 29.57509
749.80 29.18166
749.90 29.05603
750.00 29.15071
750.10 29.37905
750.20 29.65387
750.30 29.91413
750.40 30.12545
750.50 30.26343
750.60 30.35442
750.70 30.48097
750.80 30.70977
750.90 30.9944
751.00 31.2184
751.10 31.32436
751.20 31.27123
751.30 31.04318
751.40 30.70697
751.50 30.36342
751.60 30.05726
751.70 29.70948
751.80 29.2444
751.90 28.66623
752.00 27.95456
752.10 27.01787
752.20 25.88754
752.30 24.74572
752.40 23.79809
752.50 23.20307
752.60 23.05174
752.70 23.38981
752.80 24.143
752.90 25.10933
753.00 26.10823
753.10 27.07522
753.20 27.93403
753.30 28.53194
753.40 28.80585
753.50 28.8595
753.60 28.72852
753.70 28.37319
753.80 27.83747
753.90 27.2078
754.00 26.57978
754.10 25.9972
754.20 25.47267
754.30 25.09936
754.40 24.98538
754.50 25.13375
754.60 25.47198
754.70 25.9212
754.80 26.36809
754.90 26.65758
755.00 26.65169
755.10 26.27318
755.20 25.49765
755.30 24.40068
755.40 23.21397
755.50 22.22587
755.60 21.66307
755.70 21.59679
755.80 21.97066
755.90 22.69046
756.00 23.58092
756.10 24.37667
756.20 24.80728
756.30 24.73348
756.40 24.26071
756.50 23.56826
756.60 22.80217
756.70 22.05667
756.80 21.34775
756.90 20.73542
757.00 20.33213
757.10 20.23329
757.20 20.45053
757.30 20.90694
757.40 21.46178
757.50 21.96058
757.60 22.32927
757.70 22.5479
757.80 22.56284
757.90 22.36863
758.00 21.99292
758.10 21.50317
758.20 21.02948
758.30 20.60409
758.40 20.19255
758.50 19.76786
758.60 19.32781
758.70 18.89365
758.80 18.54135
758.90 18.38851
759.00 18.49584
759.10 18.75619
759.20 18.8705
759.30 18.64213
759.40 18.23991
759.50 18.00596
759.60 18.23494
759.70 18.99913
759.80 20.18784
759.90 21.77314
760.00 23.64665
760.10 25.39913
760.20 26.55253
760.30 26.83658
760.40 26.17029
760.50 24.7233
760.60 22.98883
760.70 21.45438
760.80 20.27715
760.90 19.36938
761.00 18.51825
761.10 17.65623
761.20 16.8287
761.30 15.87495
761.40 14.70054
761.50 13.51419
761.60 12.59411
761.70 12.10704
761.80 12.08032
761.90 12.3823
762.00 12.75129
762.10 12.9584
762.20 12.94566
762.30 12.73453
762.40 12.37124
762.50 12.03877
762.60 11.98107
762.70 12.31154
762.80 12.89515
762.90 13.39452
763.00 13.50143
763.10 13.01474
763.20 11.89611
763.30 10.29675
763.40 8.511763
763.50 6.871666
763.60 5.607214
763.70 4.932224
763.80 5.059114
763.90 5.896108
764.00 7.055201
764.10 8.146718
764.20 8.923249
764.30 9.33149
764.40 9.345688
764.50 8.902304
764.60 8.03622
764.70 6.907445
764.80 5.768794
764.90 4.895236
765.00 4.553078
765.10 4.819998
765.20 5.427942
765.30 6.024799
765.40 6.323545
765.50 6.091894
765.60 5.246398
765.70 3.883851
765.80 2.277624
765.90 0.8088487
766.00 0
766.10 0
766.20 0
766.30 0.7840093
766.40 1.905196
766.50 2.875542
766.60 3.561352
766.70 3.928061
766.80 4.007028
766.90 3.961777
767.00 3.950391
767.10 4.031421
767.20 4.194314
767.30 4.388399
767.40 4.552297
767.50 4.643132
767.60 4.642959
767.70 4.543063
767.80 4.355492
767.90 4.105538
768.00 3.817139
768.10 3.555777
768.20 3.401444
768.30 3.390669
768.40 3.531483
768.50 3.79642
768.60 4.12277
768.70 4.414433
768.80 4.585916
768.90 4.605632
769.00 4.441594
769.10 4.058895
769.20 3.503521
769.30 2.868861
769.40 2.202738
769.50 1.513929
769.60 0.8834898
769.70 0.4091921
769.80 0.1187877
769.90 0.03398654
770.00 0.1933254
770.10 0.6098481
770.20 1.208807
770.30 1.871774
770.40 2.514302
770.50 3.050444
770.60 3.355073
770.70 3.299298
770.80 2.794409
770.90 1.818213
771.00 0.2444368
771.10 0
771.20 0
771.30 0
771.40 0
771.50 0
771.60 0
771.70 0
771.80 0
771.90 0
772.00 2.990695
772.10 6.208664
772.20 8.760609
772.30 10.52964
772.40 11.61667
772.50 12.2203
772.60 12.25546
772.70 11.70107
772.80 10.8986
772.90 10.16207
773.00 9.567456
773.10 9.020856
773.20 8.46133
773.30 8.053022
773.40 8.046772
773.50 8.544389
773.60 9.440531
773.70 10.47141
773.80 11.41736
773.90 12.16851
774.00 12.6721
774.10 12.94007
774.20 13.0775
774.30 13.15294
774.40 13.0685
774.50 12.79836
774.60 12.5628
774.70 12.54352
774.80 12.73302
774.90 13.14381
775.00 13.84111
775.10 14.8092
775.20 15.92815
775.30 16.99491
775.40 17.79707
775.50 18.17492
775.60 18.0834
775.70 17.71733
775.80 17.40255
775.90 17.36713
776.00 17.60736
776.10 18.02263
776.20 18.54948
776.30 19.04474
776.40 19.28584
776.50 19.1418
776.60 18.60557
776.70 17.80029
776.80 16.93487
776.90 16.26712
777.00 15.98547
777.10 16.07052
777.20 16.51283
777.30 17.31238
777.40 18.30316
777.50 19.22216
777.60 19.87425
777.70 20.19484
777.80 20.2558
777.90 20.20042
778.00 20.18562
778.10 20.30897
778.20 20.59193
778.30 20.97437
778.40 21.37423
778.50 21.77884
778.60 22.09723
778.70 22.15479
778.80 21.92484
778.90 21.48803
779.00 20.84012
779.10 20.03053
779.20 19.21521
779.30 18.54273
779.40 18.0473
779.50 17.64459
779.60 17.21396
779.70 16.6381
779.80 15.82018
779.90 14.71989
780.00 13.46414
780.10 12.30952
780.20 11.40637
780.30 10.83176
780.40 10.72222
780.50 11.03748
780.60 11.58253
780.70 12.22307
780.80 12.96787
780.90 13.92442
781.00 15.16137
781.10 16.73446
781.20 18.71183
781.30 21.03088
781.40 23.43074
781.50 25.48245
781.60 26.74568
781.70 27.06894
781.80 26.63427
781.90 25.81317
782.00 25.03478
782.10 24.63628
782.20 24.76719
782.30 25.46118
782.40 26.66884
782.50 28.1907
782.60 29.68265
782.70 30.81635
782.80 31.4168
782.90 31.53628
783.00 31.46568
783.10 31.41762
783.20 31.36145
783.30 31.21204
783.40 30.87908
783.50 30.35309
783.60 29.70187
783.70 28.95312
783.80 28.13709
783.90 27.26773
784.00 26.40833
784.10 25.71699
784.20 25.33048
784.30 25.32866
784.40 25.69638
784.50 26.34701
784.60 27.22684
784.70 28.12856
784.80 28.6187
784.90 28.381
785.00 27.31966
785.10 25.59059
785.20 23.6968
785.30 22.23381
785.40 21.61768
785.50 22.01276
785.60 23.34158
785.70 25.38209
785.80 27.88862
785.90 30.58683
786.00 33.15268
786.10 35.41451
786.20 37.40847
786.30 39.09736
786.40 40.39528
786.50 41.20053
786.60 41.31882
786.70 40.73171
786.80 39.64886
786.90 38.37422
787.00 37.27309
787.10 36.63961
787.20 36.52434
787.30 36.81789
787.40 37.35756
787.50 37.96813
787.60 38.55578
787.70 39.04837
787.80 39.42517
787.90 39.77003
788.00 40.20488
788.10 40.76952
788.20 41.34477
788.30 41.74463
788.40 41.92361
788.50 41.9072
788.60 41.63466
788.70 41.01586
788.80 40.00449
788.90 38.72009
789.00 37.44112
789.10 36.4569
789.20 35.98761
789.30 36.16306
789.40 36.98755
789.50 38.36788
789.60 40.17249
789.70 42.2185
789.80 44.15602
789.90 45.58427
790.00 46.36908
790.10 46.60045
790.20 46.44082
790.30 46.01931
790.40 45.36617
790.50 44.57767
790.60 43.82319
790.70 43.18377
790.80 42.60555
790.90 42.0537
791.00 41.69354
791.10 41.74787
791.20 42.26398
791.30 43.19013
791.40 44.3721
791.50 45.5788
791.60 46.58136
791.70 47.14727
791.80 47.20795
791.90 46.82078
792.00 46.13562
792.10 45.43754
792.20 45.01466
792.30 44.99778
792.40 45.28488
792.50 45.66808
792.60 46.07713
792.70 46.55377
792.80 47.13287
792.90 47.83039
793.00 48.56622
793.10 49.27934
793.20 49.92614
793.30 50.3991
793.40 50.54262
793.50 50.22078
793.60 49.48058
793.70 48.5488
793.80 47.6993
793.90 47.14479
794.00 46.89808
794.10 46.72759
794.20 46.27559
794.30 45.12566
794.40 43.07221
794.50 40.16562
794.60 36.62721
794.70 32.92689
794.80 29.70068
794.90 27.56026
795.00 26.95436
795.10 28.07251
795.20 30.73703
795.30 34.48443
795.40 38.77925
795.50 43.03114
795.60 46.69559
795.70 49.50856
795.80 51.44418
795.90 52.65458
796.00 53.31283
796.10 53.51096
796.20 53.28836
796.30 52.7142
796.40 51.93499
796.50 51.11964
796.60 50.4229
796.70 49.96822
796.80 49.85622
796.90 50.17551
797.00 50.96332
797.10 52.10249
797.20 53.28125
797.30 54.1523
797.40 54.60432
797.50 54.75958
797.60 54.82237
797.70 55.0128
797.80 55.45174
797.90 56.06039
798.00 56.73493
798.10 57.3739
798.20 57.79729
798.30 57.87579
798.40 57.59871
798.50 57.07351
798.60 56.48951
798.70 55.95158
798.80 55.45894
798.90 55.10621
799.00 55.00049
799.10 55.0519
799.20 55.19661
799.30 55.58128
799.40 56.38325
799.50 57.71332
799.60 59.51448
799.70 61.57407
799.80 63.66855
799.90 65.58184
800.00 67.14586
800.10 68.30664
800.20 69.06837
800.30 69.37776
800.40 69.24314
800.50 68.89563
800.60 68.53396
800.70 68.13052
800.80 67.63214
800.90 67.07386
801.00 66.5368
801.10 66.11308
801.20 65.84843
801.30 65.71784
801.40 65.64166
801.50 65.55984
801.60 65.5128
801.70 65.5572
801.80 65.74268
801.90 66.07966
802.00 66.47992
802.10 66.8366
802.20 66.94144
802.30 66.55128
802.40 65.75231
802.50 64.92358
802.60 64.45012
802.70 64.57386
802.80 65.38985
802.90 66.86001
803.00 68.7428
803.10 70.66708
803.20 72.24549
803.30 73.16616
803.40 73.30998
803.50 72.79459
803.60 71.95231
803.70 71.17012
803.80 70.64546
803.90 70.37476
804.00 70.31827
804.10 70.50944
804.20 70.97406
804.30 71.66183
804.40 72.53971
804.50 73.59404
804.60 74.75008
804.70 75.84128
804.80 76.71309
804.90 77.25199
805.00 77.38542
805.10 77.19666
805.20 76.88516
805.30 76.64246
805.40 76.56414
805.50 76.62777
805.60 76.8074
805.70 77.09455
805.80 77.46572
805.90 77.86941
806.00 78.23792
806.10 78.55907
806.20 78.89183
806.30 79.35741
806.40 80.06999
806.50 80.99995
806.60 82.01149
806.70 82.98007
806.80 83.82255
806.90 84.49604
807.00 84.97527
807.10 85.2414
807.20 85.24916
807.30 85.00418
807.40 84.59311
807.50 84.15967
807.60 83.82657
807.70 83.64874
807.80 83.59924
807.90 83.5984
808.00 83.60385
808.10 83.65257
808.20 83.83202
808.30 84.20454
808.40 84.77475
808.50 85.44532
808.60 86.03097
808.70 86.32231
808.80 86.23277
808.90 85.84372
809.00 85.31451
809.10 84.83448
809.20 84.56441
809.30 84.59202
809.40 84.90905
809.50 85.34728
809.60 85.65939
809.70 85.62648
809.80 85.11835
809.90 84.16108
810.00 82.93092
810.10 81.71914
810.20 80.84957
810.30 80.53371
810.40 80.89454
810.50 81.96559
810.60 83.66631
810.70 85.82761
810.80 88.14029
810.90 90.23461
811.00 91.7836
811.10 92.62258
811.20 92.77144
811.30 92.40605
811.40 91.76612
811.50 91.04728
811.60 90.39327
811.70 89.93339
811.80 89.74446
811.90 89.83302
812.00 90.1729
812.10 90.69556
812.20 91.37163
812.30 92.20496
812.40 93.13531
812.50 94.05314
812.60 94.89272
812.70 95.56741
812.80 95.93049
812.90 95.86275
813.00 95.36134
813.10 94.54173
813.20 93.57499
813.30 92.6709
813.40 92.04903
813.50 91.89478
813.60 92.21893
813.70 92.84793
813.80 93.56759
813.90 94.18861
814.00 94.53463
814.10 94.5197
814.20 94.26211
814.30 94.05154
814.40 94.13771
814.50 94.5733
814.60 95.19915
814.70 95.65332
814.80 95.63897
814.90 95.06788
815.00 94.00848
815.10 92.70336
815.20 91.47391
815.30 90.65735
815.40 90.57174
815.50 91.38087
815.60 93.01418
815.70 95.1412
815.80 97.25537
815.90 98.95562
816.00 100.1596
816.10 101.0273
816.20 101.6806
816.30 102.1645
816.40 102.5989
816.50 103.1529
816.60 103.9389
816.70 104.8944
816.80 105.8099
816.90 106.4602
817.00 106.7258
817.10 106.632
817.20 106.2677
817.30 105.5606
817.40 104.3007
817.50 102.4629
817.60 100.2475
817.70 97.9463
817.80 95.75269
817.90 93.65746
818.00 91.59036
818.10 89.56442
818.20 87.7494
818.30 86.44019
818.40 85.86198
818.50 86.05991
818.60 86.94641
818.70 88.43887
818.80 90.32055
818.90 92.02825
819.00 92.81765
819.10 92.06657
819.20 89.592
819.30 85.75642
819.40 81.39105
819.50 77.58381
819.60 75.24616
819.70 74.87058
819.80 76.55345
819.90 79.99907
820.00 84.6301
820.10 89.73784
820.20 94.66327
820.30 98.96945
820.40 102.4926
820.50 105.27
820.60 107.3903
820.70 108.9388
820.80 109.9645
820.90 110.4658
821.00 110.4435
821.10 109.9576
821.20 109.1535
821.30 108.2964
821.40 107.6783
821.50 107.4874
821.60 107.7647
821.70 108.4248
821.80 109.3139
821.90 110.2451
822.00 111.1015
822.10 111.8721
822.20 112.5696
822.30 113.1923
822.40 113.7306
822.50 114.2755
822.60 114.9895
822.70 115.9275
822.80 117.0096
822.90 118.0865
823.00 118.9571
823.10 119.392
823.20 119.2622
823.30 118.6203
823.40 117.6511
823.50 116.5647
823.60 115.5781
823.70 114.9277
823.80 114.8457
823.90 115.3338
824.00 116.1356
824.10 117.0041
824.20 117.7635
824.30 118.3078
824.40 118.6118
824.50 118.79
824.60 118.9956
824.70 119.2958
824.80 119.7131
824.90 120.2635
825.00 120.8952
825.10 121.4088
825.20 121.5289
825.30 121.0953
825.40 120.1126
825.50 118.7003
825.60 117.1303
825.70 115.7815
825.80 115.0441
825.90 115.1475
826.00 116.0785
826.10 117.6407
826.20 119.4757
826.30 121.1284
826.40 122.1581
826.50 122.3085
826.60 121.6429
826.70 120.4373
826.80 119.0914
826.90 118.0782
827.00 117.7712
827.10 118.2376
827.20 119.2426
827.30 120.6029
827.40 122.2177
827.50 123.81
827.60 125.0511
827.70 125.8207
827.80 126.2421
827.90 126.4291
828.00 126.3555
828.10 125.9794
828.20 125.2779
828.30 124.2579
828.40 123.0943
828.50 122.1937
828.60 121.9211
828.70 122.1201
828.80 122.4435
828.90 122.8358
829.00 123.2239
829.10 123.3499
829.20 122.9349
829.30 122.0018
829.40 120.8906
829.50 120.026
829.60 119.4816
829.70 119.0191
829.80 118.5738
829.90 118.1753
830.00 117.8656
830.10 117.8374
830.20 118.2382
830.30 118.9527
830.40 119.7153
830.50 120.3213
830.60 120.7743
830.70 121.1121
830.80 121.2331
830.90 121.008
831.00 120.7044
831.10 120.754
831.20 121.1657
831.30 121.7333
831.40 122.3379
831.50 123.0611
831.60 124.0005
831.70 125.1144
831.80 126.3959
831.90 127.7875
832.00 129.0296
832.10 129.8077
832.20 129.9477
832.30 129.432
832.40 128.3461
832.50 126.9434
832.60 125.6083
832.70 124.7306
832.80 124.5787
832.90 125.0886
833.00 125.9464
833.10 126.8264
833.20 127.4693
833.30 127.713
833.40 127.5443
833.50 127.1162
833.60 126.5663
833.70 126.0417
833.80 125.8559
833.90 126.374
834.00 127.7507
834.10 129.7049
834.20 131.4997
834.30 132.3756
834.40 132.0929
834.50 130.9201
834.60 129.3637
834.70 127.9211
834.80 126.8229
834.90 126.0685
835.00 125.7302
835.10 125.9709
835.20 126.8564
835.30 128.2182
835.40 129.7031
835.50 131.0681
835.60 132.3805
835.70 133.7642
835.80 135.0551
835.90 135.9638
836.00 136.3344
836.10 136.3112
836.20 136.3513
836.30 136.9221
836.40 138.2502
836.50 140.2399
836.60 142.46
836.70 144.3751
836.80 145.4607
836.90 145.3291
837.00 143.9735
837.10 141.7126
837.20 139.0176
837.30 136.4728
837.40 134.5435
837.50 133.2449
837.60 132.4059
837.70 132.0085
837.80 132.0957
837.90 132.4652
838.00 132.8324
838.10 133.0966
838.20 133.3158
838.30 133.5466
838.40 133.7287
838.50 133.8666
838.60 134.0989
838.70 134.4477
838.80 134.7751
838.90 135.0517
839.00 135.2957
839.10 135.4381
839.20 135.3778
839.30 135.2765
839.40 135.5228
839.50 136.4192
839.60 138.0831
839.70 140.4865
839.80 143.3788
839.90 146.2289
840.00 148.4601
840.10 149.7232
840.20 150.0096
840.30 149.5471
840.40 148.6642
840.50 147.6325
840.60 146.7023
840.70 146.1544
840.80 146.1374
840.90 146.544
841.00 147.2097
841.10 148.0243
841.20 148.9645
841.30 150.0365
841.40 151.0839
841.50 151.8633
841.60 152.1763
841.70 151.8971
841.80 150.9532
841.90 149.5181
842.00 148.0072
842.10 146.7997
842.20 146.0705
842.30 145.7879
842.40 145.7471
842.50 145.7495
842.60 145.8027
842.70 145.9624
842.80 146.2812
842.90 146.7415
843.00 147.1645
843.10 147.4396
843.20 147.5818
843.30 147.53
843.40 147.136
843.50 146.2274
843.60 144.6444
843.70 142.4044
843.80 139.7973
843.90 137.1655
844.00 134.7002
844.10 132.6529
844.20 131.3186
844.30 130.8914
844.40 131.4273
844.50 132.7331
844.60 134.5048
844.70 136.4788
844.80 138.3242
844.90 139.7096
845.00 140.3849
845.10 140.1807
845.20 139.1162
845.30 137.3799
845.40 135.2154
845.50 132.8323
845.60 130.5048
845.70 128.6409
845.80 127.5479
845.90 127.3603
846.00 127.9507
846.10 128.8265
846.20 129.342
846.30 128.9871
846.40 127.824
846.50 126.4849
846.60 125.5373
846.70 125.2444
846.80 125.6725
846.90 126.7438
847.00 128.2426
847.10 129.7001
847.20 130.6999
847.30 131.0525
847.40 130.7385
847.50 129.9351
847.60 128.9816
847.70 128.2359
847.80 127.7492
847.90 127.2653
848.00 126.6002
848.10 125.791
848.20 125.0495
848.30 124.6537
848.40 124.6935
848.50 125.1189
848.60 125.8198
848.70 126.6042
848.80 127.2936
848.90 127.7581
849.00 127.9874
849.10 128.1129
849.20 128.312
849.30 128.6737
849.40 129.1717
849.50 129.7323
849.60 130.2361
849.70 130.5836
849.80 130.74
849.90 130.8013
850.00 130.9529
850.10 131.2536
850.20 131.5581
850.30 131.7566
850.40 131.8727
850.50 131.9428
850.60 131.9324
850.70 131.7504
850.80 131.3592
850.90 130.8697
851.00 130.5051
851.10 130.4255
851.20 130.665
851.30 131.0415
851.40 131.1131
851.50 130.3087
851.60 128.1131
851.70 124.1248
851.80 118.1596
851.90 110.4633
852.00 101.834
852.10 93.57379
852.20 87.14579
852.30 83.77076
852.40 84.0549
852.50 87.83764
852.60 94.3575
852.70 102.5096
852.80 111.0604
852.90 118.9266
853.00 125.3966
853.10 130.1669
853.20 133.3146
853.30 135.1933
853.40 136.249
853.50 136.8512
853.60 137.2553
853.70 137.4929
853.80 137.5195
853.90 137.4379
854.00 137.4115
854.10 137.4987
854.20 137.6856
854.30 137.978
854.40 138.4036
854.50 139.1563
854.60 140.5662
854.70 142.8338
854.80 145.8254
854.90 149.0953
855.00 152.0719
855.10 154.2286
855.20 155.1977
855.30 154.8333
855.40 153.2284
855.50 150.7174
855.60 147.883
855.70 145.4114
855.80 143.8699
855.90 143.4633
856.00 143.9787
856.10 145.052
856.20 146.4458
856.30 147.9696
856.40 149.2859
856.50 150.0313
856.60 150.0165
856.70 149.2502
856.80 147.9118
856.90 146.3629
857.00 144.9938
857.10 144.1443
857.20 144.0222
857.30 144.6499
857.40 145.9668
857.50 147.721
857.60 149.4341
857.70 150.7007
857.80 151.4341
857.90 151.7893
858.00 151.991
858.10 152.1956
858.20 152.4685
858.30 152.8106
858.40 153.1978
858.50 153.603
858.60 153.9649
858.70 154.2308
858.80 154.3459
858.90 154.2986
859.00 154.1456
859.10 154.0392
859.20 154.1944
859.30 154.7639
859.40 155.7735
859.50 157.193
859.60 158.8374
859.70 160.3541
859.80 161.4613
859.90 161.9281
860.00 161.5887
860.10 160.4221
860.20 158.6185
860.30 156.4452
860.40 154.1406
860.50 151.8457
860.60 149.5327
860.70 147.0743
860.80 144.2123
860.90 140.5918
861.00 136.0567
861.10 130.7218
861.20 124.7754
861.30 118.4286
861.40 112.0636
861.50 106.2793
861.60 101.6007
861.70 98.19101
861.80 95.83138
861.90 94.14093
862.00 92.68603
862.10 91.13356
862.20 89.4327
862.30 87.79129
862.40 86.50057
862.50 85.79619
862.60 85.72071
862.70 86.20632
862.80 87.02165
862.90 87.60292
863.00 87.24409
863.10 85.60546
863.20 82.9839
863.30 79.96058
863.40 77.14791
863.50 75.07567
863.60 74.03441
863.70 73.99519
863.80 74.73165
863.90 76.08237
864.00 78.05233
864.10 80.4717
864.20 82.88039
864.30 84.93443
864.40 86.63156
864.50 88.12786
864.60 89.51385
864.70 90.91005
864.80 92.52151
864.90 94.37211
865.00 96.3112
865.10 98.36938
865.20 100.6932
865.30 103.0252
865.40 104.8229
865.50 105.9033
865.60 106.6826
865.70 107.662
865.80 108.955
865.90 110.4403
866.00 112.0621
866.10 113.8229
866.20 115.6239
866.30 117.3951
866.40 119.0454
866.50 120.2459
866.60 120.6259
866.70 120.1913
866.80 119.2188
866.90 117.831
867.00 115.9826
867.10 113.8873
867.20 112.1545
867.30 111.3922
867.40 111.8003
867.50 113.1241
867.60 114.9048
867.70 116.6352
867.80 117.8609
867.90 118.2665
868.00 117.6545
868.10 116.0204
868.20 113.6734
868.30 111.3039
868.40 109.7366
868.50 109.4173
868.60 110.1941
868.70 111.5032
868.80 112.5297
868.90 112.4672
869.00 110.7463
869.10 107.1813
869.20 102.1046
869.30 96.31635
869.40 90.87714
869.50 86.74156
869.60 84.45878
869.70 84.10319
869.80 85.32304
869.90 87.46992
870.00 89.79253
870.10 91.69577
870.20 92.91563
870.30 93.36889
870.40 93.05421
870.50 92.0293
870.60 90.43858
870.70 88.41039
870.80 85.98213
870.90 83.30536
871.00 80.69012
871.10 78.51569
871.20 77.16063
871.30 76.81358
871.40 77.39412
871.50 78.59222
871.60 79.96304
871.70 81.13025
871.80 81.89669
871.90 82.24919
872.00 82.26966
872.10 82.13868
872.20 82.16214
872.30 82.59528
872.40 83.58881
872.50 85.1506
872.60 87.06796
872.70 89.06311
872.80 90.93127
872.90 92.52462
873.00 93.76711
873.10 94.63576
873.20 95.10368
873.30 95.22472
873.40 95.20241
873.50 95.27754
873.60 95.56989
873.70 96.1071
873.80 96.8685
873.90 97.81644
874.00 98.93825
874.10 100.1674
874.20 101.3694
874.30 102.4264
874.40 103.251
874.50 103.7662
874.60 103.9714
874.70 103.9263
874.80 103.6579
874.90 103.2434
875.00 102.9024
875.10 102.801
875.20 102.8987
875.30 103.1013
875.40 103.3923
875.50 103.8157
875.60 104.313
875.70 104.7163
875.80 104.7833
875.90 104.4135
876.00 103.74
876.10 102.9183
876.20 102.0249
876.30 101.0764
876.40 100.0683
876.50 99.12873
876.60 98.47472
876.70 98.10719
876.80 98.06661
876.90 98.64996
877.00 100.3043
877.10 103.4518
877.20 108.2213
877.30 114.2224
877.40 120.5936
877.50 126.1236
877.60 129.5011
877.70 129.9551
877.80 127.6926
877.90 123.4748
878.00 118.2342
878.10 113.1371
878.20 108.9954
878.30 106.0088
878.40 104.0943
878.50 102.9838
878.60 102.5095
878.70 102.7325
878.80 103.7777
878.90 105.7809
879.00 108.7766
879.10 112.4733
879.20 116.336
879.30 119.8456
879.40 122.6118
879.50 124.3469
879.60 124.964
879.70 124.6038
879.80 123.4708
879.90 121.7546
880.00 119.5413
880.10 116.8015
880.20 113.5343
880.30 109.9612
880.40 106.6232
880.50 104.1227
880.60 102.6734
880.70 102.2039
880.80 102.7199
880.90 104.3047
881.00 107.0453
881.10 110.9263
881.20 115.7814
881.30 121.3523
881.40 127.2698
881.50 133.095
881.60 138.3161
881.70 142.3905
881.80 144.983
881.90 145.972
882.00 145.449
882.10 143.7642
882.20 141.4843
882.30 139.2915
882.40 137.5769
882.50 136.2411
882.60 135.0213
882.70 134.0021
882.80 133.3746
882.90 133.1153
883.00 133.1408
883.10 133.4004
883.20 133.9007
883.30 134.7477
883.40 136.0281
883.50 137.6047
883.60 139.1921
883.70 140.519
883.80 141.5286
883.90 142.4066
884.00 143.2416
884.10 143.5553
884.20 142.7511
884.30 140.5812
884.40 136.9993
884.50 132.2255
884.60 126.8207
884.70 121.6421
884.80 117.6539
884.90 115.7627
885.00 116.4442
885.10 119.5577
885.20 124.4064
885.30 129.8435
885.40 134.6008
885.50 137.758
885.60 138.8908
885.70 137.9751
885.80 135.5879
885.90 132.9007
886.00 131.116
886.10 130.8674
886.20 132.1596
886.30 134.6364
886.40 137.6558
886.50 140.253
886.60 141.4186
886.70 140.5756
886.80 137.7724
886.90 133.4327
887.00 128.2937
887.10 123.4024
887.20 119.7659
887.30 118.0334
887.40 118.4956
887.50 121.2324
887.60 126.0481
887.70 132.3036
887.80 139.0837
887.90 145.4771
888.00 150.8475
888.10 154.787
888.20 156.9969
888.30 157.3794
888.40 156.1192
888.50 153.8001
888.60 151.396
888.70 149.8408
888.80 149.4526
888.90 150.0536
889.00 151.168
889.10 152.1004
889.20 152.1376
889.30 150.7259
889.40 147.5867
889.50 142.8891
889.60 137.4814
889.70 132.6439
889.80 129.4706
889.90 128.307
890.00 128.6551
890.10 129.6805
890.20 130.8038
890.30 131.7313
890.40 132.3009
890.50 132.4875
890.60 132.3509
890.70 132.0512
890.80 131.8917
890.90 132.2423
891.00 133.2523
891.10 134.9248
891.20 137.2543
891.30 140.2416
891.40 143.8819
891.50 147.9896
891.60 152.174
891.70 155.8708
891.80 158.4492
891.90 159.334
892.00 158.2571
892.10 155.4608
892.20 151.4686
892.30 146.9325
892.40 142.5638
892.50 138.9199
892.60 136.3992
892.70 135.3444
892.80 136.039
892.90 138.6797
893.00 143.1617
893.10 148.992
893.20 155.4051
893.30 161.5073
893.40 166.3636
893.50 169.0456
893.60 168.871
893.70 165.4714
893.80 158.9574
893.90 150.1231
894.00 140.2057
894.10 130.3169
894.20 121.2083
894.30 113.642
894.40 108.4783
894.50 106.2039
894.60 106.7552
894.70 109.7229
894.80 114.4419
894.90 120.1038
895.00 126.0905
895.10 132.0766
895.20 137.8482
895.30 143.4095
895.40 148.9949
895.50 154.8841
895.60 161.0231
895.70 166.8875
895.80 171.8366
895.90 175.2581
896.00 176.6828
896.10 175.8915
896.20 172.951
896.30 168.2673
896.40 162.4573
896.50 156.3349
896.60 150.8567
896.70 146.6681
896.80 144.0431
896.90 143.2302
897.00 144.5623
897.10 148.0284
897.20 152.9586
897.30 158.4763
897.40 163.7467
897.50 168.0028
897.60 170.7685
897.70 171.8734
897.80 171.3854
897.90 169.6829
898.00 167.5055
898.10 165.7604
898.20 165.1959
898.30 166.3072
898.40 169.3234
898.50 173.9457
898.60 179.1998
898.70 183.5384
898.80 185.6344
898.90 185.1683
899.00 182.5512
899.10 178.5793
899.20 174.2595
899.30 170.4597
899.40 167.5215
899.50 165.2609
899.60 163.3989
899.70 161.7461
899.80 160.1977
899.90 158.8394
900.00 158.7915
900.10 158.7437
900.20 158.6958
900.30 158.6479
900.40 158.6001
900.50 158.5522
900.60 158.5043
900.70 158.4565
900.80 158.4086
900.90 158.3607
901.00 158.3128
901.10 158.265
901.20 158.2171
901.30 158.1692
901.40 158.1214
901.50 158.0735
901.60 158.0256
901.70 157.9778
901.80 157.9299
901.90 157.882
902.00 157.8342
902.10 157.7863
902.20 157.7384
902.30 157.6906
902.40 157.6427
902.50 157.5948
902.60 157.6841
902.70 158.2895
902.80 158.8948
902.90 159.5002
903.00 160.1055
903.10 160.7109
903.20 161.3162
903.30 161.9216
903.40 162.5269
903.50 163.1323
903.60 163.7376
903.70 164.343
903.80 164.9483
903.90 165.5537
904.00 166.159
904.10 166.7644
904.20 167.3697
904.30 167.9751
904.40 168.5804
904.50 169.1858
904.60 169.7911
904.70 170.3965
904.80 171.0018
904.90 171.6072
905.00 172.2125
905.10 172.8179
905.20 173.4232
905.30 174.0286
905.40 174.6339
905.50 175.2393
905.60 175.8446
905.70 176.45
905.80 177.0553
905.90 177.6607
906.00 178.266
906.10 178.6583
906.20 179.0394
906.30 179.4205
906.40 179.8016
906.50 180.1827
906.60 180.5637
906.70 180.9448
906.80 181.3259
906.90 181.707
907.00 182.0881
907.10 182.4692
907.20 182.8503
907.30 183.2313
907.40 183.6124
907.50 183.9935
907.60 184.3746
907.70 184.7557
907.80 185.1368
907.90 185.5179
908.00 185.8989
908.10 186.28
908.20 186.6611
908.30 187.0422
908.40 187.4233
908.50 187.8044
908.60 188.1855
908.70 188.5665
908.80 188.9476
908.90 189.3287
909.00 189.7098
909.10 190.0909
909.20 190.472
909.30 190.8531
909.40 191.2341
909.50 191.5886
909.60 191.9175
909.70 192.2464
909.80 192.5753
909.90 192.9042
910.00 193.2331
910.10 193.5619
910.20 193.8908
910.30 194.2197
910.40 194.5486
910.50 194.8775
910.60 195.2064
910.70 195.5353
910.80 195.8642
910.90 196.1931
911.00 196.5219
911.10 196.8508
911.20 197.1797
911.30 197.5086
911.40 197.8375
911.50 198.1664
911.60 198.4953
911.70 198.8242
911.80 199.1531
911.90 199.482
912.00 199.8108
912.10 200.1397
912.20 200.4686
912.30 200.7975
912.40 201.1264
912.50 201.4553
912.60 201.7842
912.70 202.1131
912.80 202.442
912.90 202.7709
913.00 202.9039
913.10 203.0102
913.20 203.1166
913.30 203.2229
913.40 203.3293
913.50 203.4356
913.60 203.542
913.70 203.6483
913.80 203.7546
913.90 203.861
914.00 203.9673
914.10 204.0737
914.20 204.18
914.30 204.2863
914.40 204.3927
914.50 204.499
914.60 204.6054
914.70 204.7117
914.80 204.8181
914.90 204.9244
915.00 205.0307
915.10 205.1371
915.20 205.2434
915.30 205.3498
915.40 205.4561
915.50 205.5625
915.60 205.6688
915.70 205.7751
915.80 205.8815
915.90 205.9878
916.00 206.0942
916.10 206.2005
916.20 206.3068
916.30 206.4132
916.40 206.5289
916.50 206.7529
916.60 206.9769
916.70 207.2008
916.80 207.4248
916.90 207.6487
917.00 207.8727
917.10 208.0967
917.20 208.3206
917.30 208.5446
917.40 208.7685
917.50 208.9925
917.60 209.2165
917.70 209.4404
917.80 209.6644
917.90 209.8884
918.00 210.1123
918.10 210.3363
918.20 210.5602
918.30 210.7842
918.40 211.0082
918.50 211.2321
918.60 211.4561
918.70 211.68
918.80 211.904
918.90 212.128
919.00 212.3519
919.10 212.5759
919.20 212.7998
919.30 213.0238
919.40 213.2478
919.50 213.4717
919.60 213.6957
919.70 213.9196
919.80 214.1436
919.90 214.3484
920.00 214.3809
920.10 214.4135
920.20 214.446
920.30 214.4785
920.40 214.511
920.50 214.5435
920.60 214.576
920.70 214.6086
920.80 214.6411
920.90 214.6736
921.00 214.7061
921.10 214.7386
921.20 214.7711
921.30 214.8036
921.40 214.8362
921.50 214.8687
921.60 214.9012
921.70 214.9337
921.80 214.9662
921.90 214.9987
922.00 215.0313
922.10 215.0638
922.20 215.0963
922.30 215.1288
922.40 215.1613
922.50 215.1938
922.60 215.2264
922.70 215.2589
922.80 215.2914
922.90 215.3239
923.00 215.3564
923.10 215.3889
923.20 215.4215
923.30 215.454
923.40 215.4865
923.50 215.9091
923.60 216.3565
923.70 216.804
923.80 217.2514
923.90 217.6989
924.00 218.1464
924.10 218.5938
924.20 219.0413
924.30 219.4888
924.40 219.9362
924.50 220.3837
924.60 220.8312
924.70 221.2786
924.80 221.7261
924.90 222.1735
925.00 222.621
925.10 223.0685
925.20 223.5159
925.30 223.9634
925.40 224.4109
925.50 224.8583
925.60 225.3058
925.70 225.7533
925.80 226.2007
925.90 226.6482
926.00 227.0956
926.10 227.5431
926.20 227.9906
926.30 228.438
926.40 228.8855
926.50 229.333
926.60 229.7804
926.70 230.2279
926.80 230.6754
926.90 231.1228
927.00 231.3909
927.10 231.5443
927.20 231.6977
927.30 231.8511
927.40 232.0045
927.50 232.1579
927.60 232.3113
927.70 232.4647
927.80 232.618
927.90 232.7714
928.00 232.9248
928.10 233.0782
928.20 233.2316
928.30 233.385
928.40 233.5384
928.50 233.6918
928.60 233.8452
928.70 233.9986
928.80 234.152
928.90 234.3054
929.00 234.4588
929.10 234.6121
929.20 234.7655
929.30 234.9189
929.40 235.0723
929.50 235.2257
929.60 235.3791
929.70 235.5325
929.80 235.6859
929.90 235.8393
930.00 235.9927
930.10 236.1461
930.20 236.2995
930.30 236.4529
930.40 236.6062
930.50 236.75
930.60 236.8162
930.70 236.8824
930.80 236.9486
930.90 237.0148
931.00 237.081
931.10 237.1472
931.20 237.2134
931.30 237.2796
931.40 237.3458
931.50 237.412
931.60 237.4782
931.70 237.5444
931.80 237.6106
931.90 237.6768
932.00 237.743
932.10 237.8092
932.20 237.8754
932.30 237.9416
932.40 238.0078
932.50 238.074
932.60 238.1402
932.70 238.2064
932.80 238.2726
932.90 238.3388
933.00 238.405
933.10 238.4712
933.20 238.5374
933.30 238.6036
933.40 238.6698
933.50 238.736
933.60 238.8022
933.70 238.8684
933.80 238.9346
933.90 239.0008
934.00 239.067
934.10 239.2379
934.20 239.542
934.30 239.8461
934.40 240.1502
934.50 240.4544
934.60 240.7585
934.70 241.0626
934.80 241.3667
934.90 241.6709
935.00 241.975
935.10 242.2791
935.20 242.5832
935.30 242.8873
935.40 243.1915
935.50 243.4956
935.60 243.7997
935.70 244.1038
935.80 244.408
935.90 244.7121
936.00 245.0162
936.10 245.3203
936.20 245.6245
936.30 245.9286
936.40 246.2327
936.50 246.5368
936.60 246.8409
936.70 247.1451
936.80 247.4492
936.90 247.7533
937.00 248.0574
937.10 248.3616
937.20 248.6657
937.30 248.9698
937.40 249.2739
937.50 249.5781
937.60 249.8822
937.70 250.1326
937.80 250.3473
937.90 250.562
938.00 250.7767
938.10 250.9914
938.20 251.206
938.30 251.4207
938.40 251.6354
938.50 251.8501
938.60 252.0647
938.70 252.2794
938.80 252.4941
938.90 252.7088
939.00 252.9235
939.10 253.1381
939.20 253.3528
939.30 253.5675
939.40 253.7822
939.50 253.9969
939.60 254.2115
939.70 254.4262
939.80 254.6409
939.90 254.8556
940.00 255.0703
940.10 255.2849
940.20 255.4996
940.30 255.7143
940.40 255.929
940.50 256.1436
940.60 256.3583
940.70 256.573
940.80 256.7877
940.90 257.0024
941.00 257.217
941.10 257.4317
941.20 257.6464
941.30 257.9728
941.40 258.3767
941.50 258.7807
941.60 259.1847
941.70 259.5886
941.80 259.9926
941.90 260.3966
942.00 260.8005
942.10 261.2045
942.20 261.6085
942.30 262.0124
942.40 262.4164
942.50 262.8204
942.60 263.2243
942.70 263.6283
942.80 264.0323
942.90 264.4363
943.00 264.8402
943.10 265.2442
943.20 265.6482
943.30 266.0521
943.40 266.4561
943.50 266.8601
943.60 267.264
943.70 267.668
943.80 268.072
943.90 268.4759
944.00 268.8799
944.10 269.2839
944.20 269.6878
944.30 270.0918
944.40 270.4958
944.50 270.8997
944.60 271.3037
944.70 271.7077
944.80 272.1116
944.90 272.4736
945.00 272.7751
945.10 273.0766
945.20 273.3781
945.30 273.6795
945.40 273.981
945.50 274.2825
945.60 274.584
945.70 274.8855
945.80 275.187
945.90 275.4885
946.00 275.7899
946.10 276.0914
946.20 276.3929
946.30 276.6944
946.40 276.9959
946.50 277.2974
946.60 277.5989
946.70 277.9003
946.80 278.2018
946.90 278.5033
947.00 278.8048
947.10 279.1063
947.20 279.4078
947.30 279.7093
947.40 280.0108
947.50 280.3122
947.60 280.6137
947.70 280.9152
947.80 281.2167
947.90 281.5182
948.00 281.8197
948.10 282.1212
948.20 282.4226
948.30 282.7241
948.40 283.0256
948.50 283.3028
948.60 283.2569
948.70 283.211
948.80 283.1651
948.90 283.1191
949.00 283.0732
949.10 283.0273
949.20 282.9814
949.30 282.9355
949.40 282.8896
949.50 282.8437
949.60 282.7978
949.70 282.7519
949.80 282.706
949.90 282.6601
950.00 282.6141
950.10 282.5682
950.20 282.5223
950.30 282.4764
950.40 282.4305
950.50 282.3846
950.60 282.3387
950.70 282.2928
950.80 282.2469
950.90 282.201
951.00 282.1551
951.10 282.1091
951.20 282.0632
951.30 282.0173
951.40 281.9714
951.50 281.9255
951.60 281.8796
951.70 281.8337
951.80 281.7878
951.90 281.7419
952.00 281.696
952.10 281.65
952.20 281.7532
952.30 281.9733
952.40 282.1935
952.50 282.4137
952.60 282.6339
952.70 282.8541
952.80 283.0743
952.90 283.2945
953.00 283.5147
953.10 283.7349
953.20 283.955
953.30 284.1752
953.40 284.3954
953.50 284.6156
953.60 284.8358
953.70 285.056
953.80 285.2762
953.90 285.4964
954.00 285.7166
954.10 285.9367
954.20 286.1569
954.30 286.3771
954.40 286.5973
954.50 286.8175
954.60 287.0377
954.70 287.2579
954.80 287.4781
954.90 287.6983
955.00 287.9184
955.10 288.1386
955.20 288.3588
955.30 288.579
955.40 288.7992
955.50 289.0194
955.60 289.2396
955.70 289.4598
955.80 289.68
955.90 289.743
956.00 289.7886
956.10 289.8341
956.20 289.8797
956.30 289.9253
956.40 289.9708
956.50 290.0164
956.60 290.062
956.70 290.1075
956.80 290.1531
956.90 290.1987
957.00 290.2442
957.10 290.2898
957.20 290.3354
957.30 290.3809
957.40 290.4265
957.50 290.4721
957.60 290.5176
957.70 290.5632
957.80 290.6088
957.90 290.6543
958.00 290.6999
958.10 290.7454
958.20 290.791
958.30 290.8366
958.40 290.8821
958.50 290.9277
958.60 290.9733
958.70 291.0188
958.80 291.0644
958.90 291.11
959.00 291.1555
959.10 291.2011
959.20 291.2467
959.30 291.2922
959.40 291.3378
959.50 291.3816
959.60 291.402
959.70 291.4223
959.80 291.4427
959.90 291.4631
960.00 291.4834
960.10 291.5038
960.20 291.5242
960.30 291.5445
960.40 291.5649
960.50 291.5852
960.60 291.6056
960.70 291.626
960.80 291.6463
960.90 291.6667
961.00 291.6871
961.10 291.7074
961.20 291.7278
961.30 291.7482
961.40 291.7685
961.50 291.7889
961.60 291.8092
961.70 291.8296
961.80 291.85
961.90 291.8703
962.00 291.8907
962.10 291.9111
962.20 291.9314
962.30 291.9518
962.40 291.9721
962.50 291.9925
962.60 292.0129
962.70 292.0332
962.80 292.0536
962.90 292.074
963.00 292.0943
963.10 292.1147
963.20 292.1608
963.30 292.4674
963.40 292.7739
963.50 293.0805
963.60 293.387
963.70 293.6936
963.80 294.0001
963.90 294.3067
964.00 294.6132
964.10 294.9198
964.20 295.2263
964.30 295.5329
964.40 295.8394
964.50 296.146
964.60 296.4525
964.70 296.7591
964.80 297.0656
964.90 297.3722
965.00 297.6787
965.10 297.9853
965.20 298.2919
965.30 298.5984
965.40 298.905
965.50 299.2115
965.60 299.5181
965.70 299.8246
965.80 300.1312
965.90 300.4377
966.00 300.7443
966.10 301.0508
966.20 301.3574
966.30 301.6639
966.40 301.9705
966.50 302.277
966.60 302.5836
966.70 302.8901
966.80 303.1967
966.90 303.5032
967.00 303.7641
967.10 304.0225
967.20 304.2809
967.30 304.5393
967.40 304.7978
967.50 305.0562
967.60 305.3146
967.70 305.573
967.80 305.8315
967.90 306.0899
968.00 306.3483
968.10 306.6067
968.20 306.8652
968.30 307.1236
968.40 307.382
968.50 307.6404
968.60 307.8989
968.70 308.1573
968.80 308.4157
968.90 308.6741
969.00 308.9326
969.10 309.191
969.20 309.4494
969.30 309.7078
969.40 309.9663
969.50 310.2247
969.60 310.4831
969.70 310.7415
969.80 311
969.90 311.2584
970.00 311.5168
970.10 311.7752
970.20 312.0337
970.30 312.2921
970.40 312.5505
970.50 312.8089
970.60 313.0673
970.70 313.6307
970.80 314.3581
970.90 315.0856
971.00 315.8131
971.10 316.5406
971.20 317.268
971.30 317.9955
971.40 318.723
971.50 319.4505
971.60 320.178
971.70 320.9054
971.80 321.6329
971.90 322.3604
972.00 323.0879
972.10 323.8153
972.20 324.5428
972.30 325.2703
972.40 325.9978
972.50 326.7253
972.60 327.4527
972.70 328.1802
972.80 328.9077
972.90 329.6352
973.00 330.3626
973.10 331.0901
973.20 331.8176
973.30 332.5451
973.40 333.2725
973.50 334
973.60 334.7275
973.70 335.455
973.80 336.1825
973.90 336.9099
974.00 337.6374
974.10 338.3649
974.20 339.0924
974.30 339.8198
974.40 340.3637
974.50 340.2167
974.60 340.0697
974.70 339.9228
974.80 339.7758
974.90 339.6288
975.00 339.4818
975.10 339.3348
975.20 339.1879
975.30 339.0409
975.40 338.8939
975.50 338.7469
975.60 338.6
975.70 338.453
975.80 338.306
975.90 338.159
976.00 338.012
976.10 337.8651
976.20 337.7181
976.30 337.5711
976.40 337.4241
976.50 337.2772
976.60 337.1302
976.70 336.9832
976.80 336.8362
976.90 336.6892
977.00 336.5423
977.10 336.3953
977.20 336.2483
977.30 336.1013
977.40 335.9544
977.50 335.8074
977.60 335.6604
977.70 335.5134
977.80 335.3664
977.90 335.2195
978.00 335.0725
978.10 334.9255
978.20 334.8022
978.30 334.6941
978.40 334.5859
978.50 334.4778
978.60 334.3696
978.70 334.2615
978.80 334.1533
978.90 334.0452
979.00 333.937
979.10 333.8289
979.20 333.7207
979.30 333.6126
979.40 333.5044
979.50 333.3963
979.60 333.2881
979.70 333.18
979.80 333.0718
979.90 332.9637
980.00 332.8555
980.10 332.7474
980.20 332.6392
980.30 332.5311
980.40 332.4229
980.50 332.3147
980.60 332.2066
980.70 332.0984
980.80 331.9903
980.90 331.8821
981.00 331.774
981.10 331.6658
981.20 331.5577
981.30 331.4495
981.40 331.3414
981.50 331.2332
981.60 331.1251
981.70 331.0169
981.80 330.9088
981.90 330.8006
982.00 330.5409
982.10 330.2565
982.20 329.9721
982.30 329.6877
982.40 329.4033
982.50 329.1188
982.60 328.8344
982.70 328.55
982.80 328.2656
982.90 327.9812
983.00 327.6968
983.10 327.4124
983.20 327.128
983.30 326.8436
983.40 326.5591
983.50 326.2747
983.60 325.9903
983.70 325.7059
983.80 325.4215
983.90 325.1371
984.00 324.8527
984.10 324.5683
984.20 324.2839
984.30 323.9994
984.40 323.715
984.50 323.4306
984.60 323.1462
984.70 322.8618
984.80 322.5774
984.90 322.293
985.00 322.0086
985.10 321.7242
985.20 321.4398
985.30 321.1553
985.40 320.8709
985.50 320.5865
985.60 320.3021
985.70 320.0177
985.80 319.1853
985.90 318.336
986.00 317.4866
986.10 316.6373
986.20 315.7879
986.30 314.9386
986.40 314.0892
986.50 313.2399
986.60 312.3905
986.70 311.5412
986.80 310.6918
986.90 309.8425
987.00 308.9932
987.10 308.1438
987.20 307.2945
987.30 306.4451
987.40 305.5958
987.50 304.7464
987.60 303.8971
987.70 303.0477
987.80 302.1984
987.90 301.349
988.00 300.4997
988.10 299.6504
988.20 298.801
988.30 297.9517
988.40 297.1023
988.50 296.253
988.60 295.4036
988.70 294.5543
988.80 293.7049
988.90 292.8556
989.00 292.0062
989.10 291.1569
989.20 290.3076
989.30 289.4582
989.40 288.6089
989.50 287.7595
989.60 287.0605
989.70 286.3729
989.80 285.6852
989.90 284.9975
990.00 284.3098
990.10 283.6222
990.20 282.9345
990.30 282.2468
990.40 281.5591
990.50 280.8715
990.60 280.1838
990.70 279.4961
990.80 278.8085
990.90 278.1208
991.00 277.4331
991.10 276.7454
991.20 276.0578
991.30 275.3701
991.40 274.6824
991.50 273.9947
991.60 273.3071
991.70 272.6194
991.80 271.9317
991.90 271.2441
992.00 270.5564
992.10 269.8687
992.20 269.181
992.30 268.4934
992.40 267.8057
992.50 267.118
992.60 266.4303
992.70 265.7427
992.80 265.055
992.90 264.3673
993.00 263.6797
993.10 262.992
993.20 262.3043
993.30 261.6166
993.40 261.0656
993.50 260.5602
993.60 260.0547
993.70 259.5492
993.80 259.0438
993.90 258.5383
994.00 258.0328
994.10 257.5274
994.20 257.0219
994.30 256.5164
994.40 256.011
994.50 255.5055
994.60 255
994.70 254.4946
994.80 253.9891
994.90 253.4836
995.00 252.9782
995.10 252.4727
995.20 251.9672
995.30 251.4618
995.40 250.9563
995.50 250.4508
995.60 249.9454
995.70 249.4399
995.80 248.9345
995.90 248.429
996.00 247.9235
996.10 247.4181
996.20 246.9126
996.30 246.4071
996.40 245.9017
996.50 245.3962
996.60 244.8907
996.70 244.3853
996.80 243.8798
996.90 243.3743
997.00 242.8689
997.10 242.3634
997.20 242.2189
997.30 242.5727
997.40 242.9266
997.50 243.2804
997.60 243.6343
997.70 243.9881
997.80 244.342
997.90 244.6958
998.00 245.0497
998.10 245.4035
998.20 245.7574
998.30 246.1112
998.40 246.4651
998.50 246.819
998.60 247.1728
998.70 247.5267
998.80 247.8805
998.90 248.2344
999.00 248.5882
999.10 248.9421
999.20 249.2959
999.30 249.6498
999.40 250.0036
999.50 250.3575
999.60 250.7113
999.70 251.0652
999.80 251.419
999.90 251.7729
1000.00 252.1268
1000.10 252.4806
1000.20 252.8345
1000.30 253.1883
1000.40 253.5422
1000.50 253.896
1000.60 254.2499
1000.70 254.6037
1000.80 254.9576
1000.90 255.3114
1001.00 255.6653
1001.10 255.9364
1001.20 256.2076
1001.30 256.4787
1001.40 256.7499
1001.50 257.021
1001.60 257.2922
1001.70 257.5633
1001.80 257.8345
1001.90 258.1056
1002.00 258.3768
1002.10 258.6479
1002.20 258.9191
1002.30 259.1902
1002.40 259.4614
1002.50 259.7325
1002.60 260.0037
1002.70 260.2748
1002.80 260.546
1002.90 260.8171
1003.00 261.0883
1003.10 261.3594
1003.20 261.6306
1003.30 261.9017
1003.40 262.1729
1003.50 262.444
1003.60 262.7152
1003.70 262.9863
1003.80 263.2575
1003.90 263.5286
1004.00 263.7998
1004.10 264.0709
1004.20 264.3421
1004.30 264.6132
1004.40 264.8843
1004.50 265.1555
1004.60 265.4266
1004.70 265.6978
1004.80 265.9689
1004.90 266.2907
1005.00 266.6885
1005.10 267.0863
1005.20 267.4841
1005.30 267.8819
1005.40 268.2796
1005.50 268.6774
1005.60 269.0752
1005.70 269.473
1005.80 269.8707
1005.90 270.2685
1006.00 270.6663
1006.10 271.0641
1006.20 271.4618
1006.30 271.8596
1006.40 272.2574
1006.50 272.6552
1006.60 273.053
1006.70 273.4507
1006.80 273.8485
1006.90 274.2463
1007.00 274.6441
1007.10 275.0418
1007.20 275.4396
1007.30 275.8374
1007.40 276.2352
1007.50 276.6329
1007.60 277.0307
1007.70 277.4285
1007.80 277.8263
1007.90 278.2241
1008.00 278.6218
1008.10 279.0196
1008.20 279.4174
1008.30 279.8152
1008.40 280.2129
1008.50 280.6107
1008.60 281.0085
1008.70 281.4063
1008.80 281.7793
1008.90 282.1359
1009.00 282.4924
1009.10 282.849
1009.20 283.2055
1009.30 283.5621
1009.40 283.9187
1009.50 284.2752
1009.60 284.6318
1009.70 284.9883
1009.80 285.3449
1009.90 285.7014
1010.00 286.058
1010.10 286.4146
1010.20 286.7711
1010.30 287.1277
1010.40 287.4842
1010.50 287.8408
1010.60 288.1973
1010.70 288.5539
1010.80 288.9105
1010.90 289.267
1011.00 289.6236
1011.10 289.9801
1011.20 290.3367
1011.30 290.6932
1011.40 291.0498
1011.50 291.4064
1011.60 291.7629
1011.70 292.1195
1011.80 292.476
1011.90 292.8326
1012.00 293.1891
1012.10 293.5457
1012.20 293.9023
1012.30 294.2588
1012.40 294.6154
1012.50 294.9719
1012.60 295.3285
1012.70 295.5398
1012.80 295.7147
1012.90 295.8897
1013.00 296.0647
1013.10 296.2397
1013.20 296.4146
1013.30 296.5896
1013.40 296.7646
1013.50 296.9396
1013.60 297.1145
1013.70 297.2895
1013.80 297.4645
1013.90 297.6394
1014.00 297.8144
1014.10 297.9894
1014.20 298.1644
1014.30 298.3393
1014.40 298.5143
1014.50 298.6893
1014.60 298.8643
1014.70 299.0392
1014.80 299.2142
1014.90 299.3892
1015.00 299.5641
1015.10 299.7391
1015.20 299.9141
1015.30 300.0891
1015.40 300.264
1015.50 300.439
1015.60 300.614
1015.70 300.789
1015.80 300.9639
1015.90 301.1389
1016.00 301.3139
1016.10 301.4888
1016.20 301.6638
1016.30 301.8388
1016.40 302.0138
1016.50 302.1887
1016.60 302.1198
1016.70 301.9899
1016.80 301.86
1016.90 301.7302
1017.00 301.6003
1017.10 301.4704
1017.20 301.3405
1017.30 301.2106
1017.40 301.0807
1017.50 300.9508
1017.60 300.821
1017.70 300.6911
1017.80 300.5612
1017.90 300.4313
1018.00 300.3014
1018.10 300.1715
1018.20 300.0416
1018.30 299.9118
1018.40 299.7819
1018.50 299.652
1018.60 299.5221
1018.70 299.3922
1018.80 299.2623
1018.90 299.1324
1019.00 299.0025
1019.10 298.8727
1019.20 298.7428
1019.30 298.6129
1019.40 298.483
1019.50 298.3531
1019.60 298.2232
1019.70 298.0933
1019.80 297.9635
1019.90 297.8336
1020.00 297.7037
1020.10 297.5738
1020.20 297.4439
1020.30 297.314
1020.40 297.1841
1020.50 297.4123
1020.60 297.8793
1020.70 298.3462
1020.80 298.8131
1020.90 299.28
1021.00 299.7469
1021.10 300.2138
1021.20 300.6808
1021.30 301.1477
1021.40 301.6146
1021.50 302.0815
1021.60 302.5484
1021.70 303.0154
1021.80 303.4823
1021.90 303.9492
1022.00 304.4161
1022.10 304.883
1022.20 305.35
1022.30 305.8169
1022.40 306.2838
1022.50 306.7507
1022.60 307.2176
1022.70 307.6846
1022.80 308.1515
1022.90 308.6184
1023.00 309.0853
1023.10 309.5522
1023.20 310.0192
1023.30 310.4861
1023.40 310.953
1023.50 311.4199
1023.60 311.8868
1023.70 312.3537
1023.80 312.8207
1023.90 313.2876
1024.00 313.7545
1024.10 314.2214
1024.20 314.6883
1024.30 315.1553
1024.40 315.4411
1024.50 315.4553
1024.60 315.4695
1024.70 315.4836
1024.80 315.4978
1024.90 315.512
1025.00 315.5262
1025.10 315.5404
1025.20 315.5546
1025.30 315.5688
1025.40 315.583
1025.50 315.5971
1025.60 315.6113
1025.70 315.6255
1025.80 315.6397
1025.90 315.6539
1026.00 315.6681
1026.10 315.6823
1026.20 315.6964
1026.30 315.7106
1026.40 315.7248
1026.50 315.739
1026.60 315.7532
1026.70 315.7674
1026.80 315.7816
1026.90 315.7957
1027.00 315.8099
1027.10 315.8241
1027.20 315.8383
1027.30 315.8525
1027.40 315.8667
1027.50 315.8809
1027.60 315.8951
1027.70 315.9092
1027.80 315.9234
1027.90 315.9376
1028.00 315.9518
1028.10 315.966
1028.20 315.9802
1028.30 315.9944
1028.40 316.4754
1028.50 316.9564
1028.60 317.4375
1028.70 317.9185
1028.80 318.3995
1028.90 318.8805
1029.00 319.3616
1029.10 319.8426
1029.20 320.3236
1029.30 320.8047
1029.40 321.2857
1029.50 321.7667
1029.60 322.2478
1029.70 322.7288
1029.80 323.2098
1029.90 323.6909
1030.00 324.1719
1030.10 324.6529
1030.20 325.1339
1030.30 325.615
1030.40 326.096
1030.50 326.577
1030.60 327.0581
1030.70 327.5391
1030.80 328.0201
1030.90 328.5012
1031.00 328.9822
1031.10 329.4632
1031.20 329.9443
1031.30 330.4253
1031.40 330.9063
1031.50 331.3873
1031.60 331.8684
1031.70 332.3494
1031.80 332.8304
1031.90 333.3115
1032.00 333.7925
1032.10 334.2735
1032.20 334.7546
1032.30 335.0938
1032.40 335.2912
1032.50 335.4887
1032.60 335.6861
1032.70 335.8835
1032.80 336.081
1032.90 336.2784
1033.00 336.4759
1033.10 336.6733
1033.20 336.8707
1033.30 337.0682
1033.40 337.2656
1033.50 337.463
1033.60 337.6605
1033.70 337.8579
1033.80 338.0554
1033.90 338.2528
1034.00 338.4502
1034.10 338.6477
1034.20 338.8451
1034.30 339.0425
1034.40 339.24
1034.50 339.4374
1034.60 339.6349
1034.70 339.8323
1034.80 340.0297
1034.90 340.2272
1035.00 340.4246
1035.10 340.622
1035.20 340.8195
1035.30 341.0169
1035.40 341.2144
1035.50 341.4118
1035.60 341.6092
1035.70 341.8067
1035.80 342.0041
1035.90 342.2015
1036.00 342.399
1036.10 342.5964
1036.20 342.7939
1036.30 343.1763
1036.40 343.605
1036.50 344.0337
1036.60 344.4624
1036.70 344.8911
1036.80 345.3198
1036.90 345.7485
1037.00 346.1772
1037.10 346.6059
1037.20 347.0346
1037.30 347.4633
1037.40 347.892
1037.50 348.3207
1037.60 348.7494
1037.70 349.1781
1037.80 349.6068
1037.90 350.0355
1038.00 350.4642
1038.10 350.8929
1038.20 351.3216
1038.30 351.7503
1038.40 352.179
1038.50 352.6077
1038.60 353.0364
1038.70 353.4651
1038.80 353.8938
1038.90 354.3225
1039.00 354.7512
1039.10 355.1799
1039.20 355.6086
1039.30 356.0373
1039.40 356.466
1039.50 356.8947
1039.60 357.3234
1039.70 357.7521
1039.80 358.1808
1039.90 358.6095
1040.00 359.0382
1040.10 359.4669
1040.20 359.9045
1040.30 360.4221
1040.40 360.9397
1040.50 361.4573
1040.60 361.9749
1040.70 362.4925
1040.80 363.0101
1040.90 363.5277
1041.00 364.0453
1041.10 364.5629
1041.20 365.0805
1041.30 365.5981
1041.40 366.1157
1041.50 366.6332
1041.60 367.1508
1041.70 367.6684
1041.80 368.186
1041.90 368.7036
1042.00 369.2212
1042.10 369.7388
1042.20 370.2564
1042.30 370.774
1042.40 371.2916
1042.50 371.8092
1042.60 372.3268
1042.70 372.8444
1042.80 373.362
1042.90 373.8796
1043.00 374.3972
1043.10 374.9148
1043.20 375.4324
1043.30 375.95
1043.40 376.4676
1043.50 376.9852
1043.60 377.5028
1043.70 378.0204
1043.80 378.538
1043.90 379.0556
1044.00 379.5732
1044.10 380.0908
1044.20 380.5156
1044.30 380.5691
1044.40 380.6227
1044.50 380.6762
1044.60 380.7298
1044.70 380.7833
1044.80 380.8368
1044.90 380.8904
1045.00 380.9439
1045.10 380.9975
1045.20 381.051
1045.30 381.1046
1045.40 381.1581
1045.50 381.2116
1045.60 381.2652
1045.70 381.3187
1045.80 381.3723
1045.90 381.4258
1046.00 381.4794
1046.10 381.5329
1046.20 381.5864
1046.30 381.64
1046.40 381.6935
1046.50 381.7471
1046.60 381.8006
1046.70 381.8541
1046.80 381.9077
1046.90 381.9612
1047.00 382.0148
1047.10 382.0683
1047.20 382.1219
1047.30 382.1754
1047.40 382.2289
1047.50 382.2825
1047.60 382.336
1047.70 382.3896
1047.80 382.4431
1047.90 382.4967
1048.00 382.5502
1048.10 382.6037
1048.20 382.6
1048.30 382.4625
1048.40 382.325
1048.50 382.1874
1048.60 382.0499
1048.70 381.9124
1048.80 381.7749
1048.90 381.6374
1049.00 381.4999
1049.10 381.3624
1049.20 381.2249
1049.30 381.0874
1049.40 380.9499
1049.50 380.8124
1049.60 380.6749
1049.70 380.5374
1049.80 380.3999
1049.90 380.2624
1050.00 380.1249
1050.10 379.9873
1050.20 379.8498
1050.30 379.7123
1050.40 379.5748
1050.50 379.4373
1050.60 379.2998
1050.70 379.1623
1050.80 379.0248
1050.90 378.8873
1051.00 378.7498
1051.10 378.6123
1051.20 378.4748
1051.30 378.3373
1051.40 378.1998
1051.50 378.0623
1051.60 377.9247
1051.70 377.7872
1051.80 377.6497
1051.90 377.5122
1052.00 377.3747
1052.10 377.2372
1052.20 377.2511
1052.30 377.8706
1052.40 378.4901
1052.50 379.1095
1052.60 379.729
1052.70 380.3485
1052.80 380.968
1052.90 381.5874
1053.00 382.2069
1053.10 382.8264
1053.20 383.4459
1053.30 384.0653
1053.40 384.6848
1053.50 385.3043
1053.60 385.9238
1053.70 386.5432
1053.80 387.1627
1053.90 387.7822
1054.00 388.4017
1054.10 389.0211
1054.20 389.6406
1054.30 390.2601
1054.40 390.8796
1054.50 391.499
1054.60 392.1185
1054.70 392.738
1054.80 393.3575
1054.90 393.9769
1055.00 394.5964
1055.10 395.2159
1055.20 395.8354
1055.30 396.4548
1055.40 397.0743
1055.50 397.6938
1055.60 398.3133
1055.70 398.9327
1055.80 399.5522
1055.90 400.1717
1056.00 400.7912
1056.10 401.4106
1056.20 402.0301
1056.30 401.9817
1056.40 401.9333
1056.50 401.8849
1056.60 401.8365
1056.70 401.7881
1056.80 401.7397
1056.90 401.6913
1057.00 401.6429
1057.10 401.5945
1057.20 401.5461
1057.30 401.4977
1057.40 401.4493
1057.50 401.4009
1057.60 401.3525
1057.70 401.3041
1057.80 401.2557
1057.90 401.2073
1058.00 401.1589
1058.10 401.1105
1058.20 401.0621
1058.30 401.0138
1058.40 400.9654
1058.50 400.917
1058.60 400.8686
1058.70 400.8202
1058.80 400.7718
1058.90 400.7234
1059.00 400.675
1059.10 400.6266
1059.20 400.5782
1059.30 400.5298
1059.40 400.4814
1059.50 400.433
1059.60 400.3846
1059.70 400.3362
1059.80 400.2878
1059.90 400.2394
1060.00 400.191
1060.10 400.1426
1060.20 400.0942
1060.30 400.2394
1060.40 400.5138
1060.50 400.7881
1060.60 401.0625
1060.70 401.3368
1060.80 401.6112
1060.90 401.8855
1061.00 402.1599
1061.10 402.4342
1061.20 402.7086
1061.30 402.9829
1061.40 403.2572
1061.50 403.5316
1061.60 403.8059
1061.70 404.0803
1061.80 404.3546
1061.90 404.629
1062.00 404.9033
1062.10 405.1777
1062.20 405.452
1062.30 405.7264
1062.40 406.0007
1062.50 406.275
1062.60 406.5494
1062.70 406.8237
1062.80 407.0981
1062.90 407.3724
1063.00 407.6468
1063.10 407.9211
1063.20 408.1955
1063.30 408.4698
1063.40 408.7442
1063.50 409.0185
1063.60 409.2929
1063.70 409.5672
1063.80 409.8415
1063.90 410.1159
1064.00 410.3902
1064.10 410.6646
1064.20 410.9389
1064.30 411.1984
1064.40 411.3981
1064.50 411.5978
1064.60 411.7976
1064.70 411.9973
1064.80 412.197
1064.90 412.3968
1065.00 412.5965
1065.10 412.7962
1065.20 412.996
1065.30 413.1957
1065.40 413.3954
1065.50 413.5952
1065.60 413.7949
1065.70 413.9946
1065.80 414.1944
1065.90 414.3941
1066.00 414.5939
1066.10 414.7936
1066.20 414.9933
1066.30 415.1931
1066.40 415.3928
1066.50 415.5925
1066.60 415.7923
1066.70 415.992
1066.80 416.1917
1066.90 416.3915
1067.00 416.5912
1067.10 416.7909
1067.20 416.9907
1067.30 417.1904
1067.40 417.3901
1067.50 417.5899
1067.60 417.7896
1067.70 417.9894
1067.80 418.1891
1067.90 418.3888
1068.00 418.5886
1068.10 418.7883
1068.20 418.988
1068.30 419.1878
1068.40 419.5638
1068.50 420.0153
1068.60 420.4668
1068.70 420.9183
1068.80 421.3699
1068.90 421.8214
1069.00 422.2729
1069.10 422.7245
1069.20 423.176
1069.30 423.6275
1069.40 424.079
1069.50 424.5306
1069.60 424.9821
1069.70 425.4336
1069.80 425.8851
1069.90 426.3367
1070.00 426.7882
1070.10 427.2397
1070.20 427.6913
1070.30 428.1428
1070.40 428.5943
1070.50 429.0458
1070.60 429.4974
1070.70 429.9489
1070.80 430.4004
1070.90 430.852
1071.00 431.3035
1071.10 431.755
1071.20 432.2065
1071.30 432.6581
1071.40 433.1096
1071.50 433.5611
1071.60 434.0127
1071.70 434.4642
1071.80 434.9157
1071.90 435.3672
1072.00 435.8188
1072.10 436.2703
1072.20 436.7218
1072.30 437.1733
1072.40 437.5866
1072.50 437.6555
1072.60 437.7243
1072.70 437.7932
1072.80 437.8621
1072.90 437.931
1073.00 437.9998
1073.10 438.0687
1073.20 438.1376
1073.30 438.2064
1073.40 438.2753
1073.50 438.3442
1073.60 438.413
1073.70 438.4819
1073.80 438.5508
1073.90 438.6196
1074.00 438.6885
1074.10 438.7574
1074.20 438.8262
1074.30 438.8951
1074.40 438.964
1074.50 439.0329
1074.60 439.1017
1074.70 439.1706
1074.80 439.2395
1074.90 439.3083
1075.00 439.3772
1075.10 439.4461
1075.20 439.5149
1075.30 439.5838
1075.40 439.6527
1075.50 439.7215
1075.60 439.7904
1075.70 439.8593
1075.80 439.9281
1075.90 439.997
1076.00 440.0659
1076.10 440.1348
1076.20 440.2036
1076.30 440.2725
1076.40 440.3414
1076.50 440.5653
1076.60 441.022
1076.70 441.4786
1076.80 441.9352
1076.90 442.3919
1077.00 442.8485
1077.10 443.3051
1077.20 443.7618
1077.30 444.2184
1077.40 444.675
1077.50 445.1317
1077.60 445.5883
1077.70 446.0449
1077.80 446.5016
1077.90 446.9582
1078.00 447.4148
1078.10 447.8715
1078.20 448.3281
1078.30 448.7847
1078.40 449.2414
1078.50 449.698
1078.60 450.1546
1078.70 450.6113
1078.80 451.0679
1078.90 451.5245
1079.00 451.9812
1079.10 452.4378
1079.20 452.8944
1079.30 453.3511
1079.40 453.8077
1079.50 454.2643
1079.60 454.721
1079.70 455.1776
1079.80 455.6342
1079.90 456.0909
1080.00 456.5475
1080.10 457.0041
1080.20 457.4608
1080.30 457.9174
1080.40 458.374
1080.50 458.8307
1080.60 459.1383
1080.70 459.2968
1080.80 459.4554
1080.90 459.6139
1081.00 459.7724
1081.10 459.931
1081.20 460.0895
1081.30 460.2481
1081.40 460.4066
1081.50 460.5652
1081.60 460.7237
1081.70 460.8823
1081.80 461.0408
1081.90 461.1993
1082.00 461.3579
1082.10 461.5164
1082.20 461.675
1082.30 461.8335
1082.40 461.9921
1082.50 462.1506
1082.60 462.3092
1082.70 462.4677
1082.80 462.6262
1082.90 462.7848
1083.00 462.9433
1083.10 463.1019
1083.20 463.2604
1083.30 463.419
1083.40 463.5775
1083.50 463.736
1083.60 463.8946
1083.70 464.0531
1083.80 464.2117
1083.90 464.3702
1084.00 464.5288
1084.10 464.6873
1084.20 464.8459
1084.30 465.0044
1084.40 465.1629
1084.50 465.3215
1084.60 465.48
1084.70 465.7614
1084.80 466.1247
1084.90 466.4879
1085.00 466.8512
1085.10 467.2144
1085.20 467.5777
1085.30 467.9409
1085.40 468.3042
1085.50 468.6674
1085.60 469.0307
1085.70 469.3939
1085.80 469.7572
1085.90 470.1204
1086.00 470.4837
1086.10 470.8469
1086.20 471.2102
1086.30 471.5734
1086.40 471.9367
1086.50 472.2999
1086.60 472.6632
1086.70 473.0264
1086.80 473.3897
1086.90 473.7529
1087.00 474.1162
1087.10 474.4794
1087.20 474.8427
1087.30 475.2059
1087.40 475.5692
1087.50 475.9324
1087.60 476.2957
1087.70 476.659
1087.80 477.0222
1087.90 477.3855
1088.00 477.7487
1088.10 478.112
1088.20 478.4752
1088.30 478.8385
1088.40 479.2017
1088.50 479.565
1088.60 479.9282
1088.70 480.2915
1088.80 480.5954
1088.90 480.8597
1089.00 481.124
1089.10 481.3883
1089.20 481.6526
1089.30 481.9169
1089.40 482.1812
1089.50 482.4455
1089.60 482.7098
1089.70 482.9741
1089.80 483.2384
1089.90 483.5027
1090.00 483.767
1090.10 484.0313
1090.20 484.2956
1090.30 484.5599
1090.40 484.8242
1090.50 485.0885
1090.60 485.3528
1090.70 485.6171
1090.80 485.8814
1090.90 486.1457
1091.00 486.41
1091.10 486.6743
1091.20 486.9386
1091.30 487.2029
1091.40 487.4672
1091.50 487.7315
1091.60 487.9958
1091.70 488.2601
1091.80 488.5244
1091.90 488.7887
1092.00 489.053
1092.10 489.3173
1092.20 489.5816
1092.30 489.8459
1092.40 490.1102
1092.50 490.3745
1092.60 490.6388
1092.70 490.9031
1092.80 491.1674
1092.90 491.4465
1093.00 491.7404
1093.10 492.0344
1093.20 492.3284
1093.30 492.6223
1093.40 492.9163
1093.50 493.2102
1093.60 493.5042
1093.70 493.7981
1093.80 494.0921
1093.90 494.386
1094.00 494.68
1094.10 494.974
1094.20 495.2679
1094.30 495.5619
1094.40 495.8558
1094.50 496.1498
1094.60 496.4437
1094.70 496.7377
1094.80 497.0316
1094.90 497.3256
1095.00 497.6195
1095.10 497.9135
1095.20 498.2075
1095.30 498.5014
1095.40 498.7954
1095.50 499.0893
1095.60 499.3833
1095.70 499.6772
1095.80 499.9712
1095.90 500.2651
1096.00 500.5591
1096.10 500.853
1096.20 501.147
1096.30 501.441
1096.40 501.7349
1096.50 502.0289
1096.60 502.3228
1096.70 502.6168
1096.80 502.9107
1096.90 503.2047
1097.00 503.3832
1097.10 503.2922
1097.20 503.2013
1097.30 503.1103
1097.40 503.0194
1097.50 502.9284
1097.60 502.8375
1097.70 502.7465
1097.80 502.6556
1097.90 502.5646
1098.00 502.4737
1098.10 502.3827
1098.20 502.2918
1098.30 502.2008
1098.40 502.1099
1098.50 502.0189
1098.60 501.928
1098.70 501.837
1098.80 501.7461
1098.90 501.6551
1099.00 501.5642
1099.10 501.4732
1099.20 501.3823
1099.30 501.2913
1099.40 501.2004
1099.50 501.1094
1099.60 501.0185
1099.70 500.9275
1099.80 500.8366
1099.90 500.7456
1100.00 500.6547
1100.10 500.5637
1100.20 500.4728
1100.30 500.3818
1100.40 500.2909
1100.50 500.1999
1100.60 500.109
1100.70 500.018
1100.80 499.9271
1100.90 499.8361
1101.00 499.7452
1101.10 499.6542
1101.20 499.6528
1101.30 499.6514
1101.40 499.6499
1101.50 499.6485
1101.60 499.6471
1101.70 499.6457
1101.80 499.6442
1101.90 499.6428
1102.00 499.6414
1102.10 499.64
1102.20 499.6385
1102.30 499.6371
1102.40 499.6357
1102.50 499.6343
1102.60 499.6328
1102.70 499.6314
1102.80 499.63
1102.90 499.6286
1103.00 499.6271
1103.10 499.6257
1103.20 499.6243
1103.30 499.6229
1103.40 499.6214
1103.50 499.62
1103.60 499.6186
1103.70 499.6172
1103.80 499.6157
1103.90 499.6143
1104.00 499.6129
1104.10 499.6115
1104.20 499.61
1104.30 499.6086
1104.40 499.6072
1104.50 499.6058
1104.60 499.6043
1104.70 499.6029
1104.80 499.6015
1104.90 499.6001
1105.00 499.5986
1105.10 499.5972
1105.20 499.5958
1105.30 499.5459
1105.40 499.4636
1105.50 499.3814
1105.60 499.2991
1105.70 499.2169
1105.80 499.1346
1105.90 499.0524
1106.00 498.9701
1106.10 498.8879
1106.20 498.8056
1106.30 498.7234
1106.40 498.6411
1106.50 498.5589
1106.60 498.4766
1106.70 498.3944
1106.80 498.3121
1106.90 498.2299
1107.00 498.1476
1107.10 498.0654
1107.20 497.9831
1107.30 497.9009
1107.40 497.8186
1107.50 497.7364
1107.60 497.6541
1107.70 497.5719
1107.80 497.4896
1107.90 497.4074
1108.00 497.3252
1108.10 497.2429
1108.20 497.1607
1108.30 497.0784
1108.40 496.9962
1108.50 496.9139
1108.60 496.8317
1108.70 496.7494
1108.80 496.6672
1108.90 496.5849
1109.00 496.5027
1109.10 496.4204
1109.20 496.3382
1109.30 496.2559
1109.40 496.2139
1109.50 496.3327
1109.60 496.4515
1109.70 496.5703
1109.80 496.6891
1109.90 496.8079
1110.00 496.9267
1110.10 497.0455
1110.20 497.1643
1110.30 497.2831
1110.40 497.4019
1110.50 497.5207
1110.60 497.6395
1110.70 497.7583
1110.80 497.8771
1110.90 497.9959
1111.00 498.1147
1111.10 498.2335
1111.20 498.3523
1111.30 498.4711
1111.40 498.5899
1111.50 498.7087
1111.60 498.8275
1111.70 498.9463
1111.80 499.0651
1111.90 499.1838
1112.00 499.3026
1112.10 499.4214
1112.20 499.5402
1112.30 499.659
1112.40 499.7778
1112.50 499.8966
1112.60 500.0154
1112.70 500.1342
1112.80 500.253
1112.90 500.3718
1113.00 500.4906
1113.10 500.6094
1113.20 500.7282
1113.30 500.847
1113.40 500.9658
1113.50 501.0846
1113.60 501.2491
1113.70 501.444
1113.80 501.6389
1113.90 501.8338
1114.00 502.0287
1114.10 502.2236
1114.20 502.4185
1114.30 502.6134
1114.40 502.8083
1114.50 503.0032
1114.60 503.1981
1114.70 503.393
1114.80 503.5879
1114.90 503.7828
1115.00 503.9777
1115.10 504.1726
1115.20 504.3675
1115.30 504.5624
1115.40 504.7573
1115.50 504.9522
1115.60 505.1471
1115.70 505.342
1115.80 505.5369
1115.90 505.7318
1116.00 505.9267
1116.10 506.1216
1116.20 506.3165
1116.30 506.5114
1116.40 506.7063
1116.50 506.9012
1116.60 507.0961
1116.70 507.291
1116.80 507.4859
1116.90 507.6808
1117.00 507.8757
1117.10 508.0706
1117.20 508.2655
1117.30 508.4604
1117.40 508.6552
1117.50 508.8501
1117.60 509.045
1117.70 509.2399
1117.80 509.3933
1117.90 509.5466
1118.00 509.6999
1118.10 509.8533
1118.20 510.0066
1118.30 510.1599
1118.40 510.3133
1118.50 510.4666
1118.60 510.6199
1118.70 510.7733
1118.80 510.9266
1118.90 511.0799
1119.00 511.2333
1119.10 511.3866
1119.20 511.5399
1119.30 511.6933
1119.40 511.8466
1119.50 511.9999
1119.60 512.1532
1119.70 512.3066
1119.80 512.4599
1119.90 512.6132
1120.00 512.7666
1120.10 512.9199
1120.20 513.0732
1120.30 513.2266
1120.40 513.3799
1120.50 513.5332
1120.60 513.6866
1120.70 513.8399
1120.80 513.9932
1120.90 514.1466
1121.00 514.2999
1121.10 514.4532
1121.20 514.6065
1121.30 514.7599
1121.40 514.9132
1121.50 515.0665
1121.60 515.2199
1121.70 515.3732
1121.80 515.5265
1121.90 515.5838
1122.00 515.417
1122.10 515.2502
1122.20 515.0834
1122.30 514.9166
1122.40 514.7499
1122.50 514.5831
1122.60 514.4163
1122.70 514.2495
1122.80 514.0827
1122.90 513.9159
1123.00 513.7491
1123.10 513.5823
1123.20 513.4155
1123.30 513.2487
1123.40 513.0819
1123.50 512.9151
1123.60 512.7483
1123.70 512.5815
1123.80 512.4147
1123.90 512.2479
1124.00 512.0811
1124.10 511.9143
1124.20 511.7475
1124.30 511.5807
1124.40 511.4139
1124.50 511.2471
1124.60 511.0803
1124.70 510.9135
1124.80 510.7467
1124.90 510.58
1125.00 510.4132
1125.10 510.2464
1125.20 510.0796
1125.30 509.9128
1125.40 509.746
1125.50 509.5792
1125.60 509.4124
1125.70 509.2456
1125.80 509.0788
1125.90 508.912
1126.00 508.7452
1126.10 508.5364
1126.20 508.2855
1126.30 508.0347
1126.40 507.7839
1126.50 507.533
1126.60 507.2822
1126.70 507.0314
1126.80 506.7805
1126.90 506.5297
1127.00 506.2789
1127.10 506.028
1127.20 505.7772
1127.30 505.5264
1127.40 505.2755
1127.50 505.0247
1127.60 504.7739
1127.70 504.523
1127.80 504.2722
1127.90 504.0214
1128.00 503.7705
1128.10 503.5197
1128.20 503.2689
1128.30 503.018
1128.40 502.7672
1128.50 502.5164
1128.60 502.2655
1128.70 502.0147
1128.80 501.7639
1128.90 501.513
1129.00 501.2622
1129.10 501.0114
1129.20 500.7605
1129.30 500.5097
1129.40 500.2589
1129.50 500.008
1129.60 499.7572
1129.70 499.5064
1129.80 499.2555
1129.90 499.0047
1130.00 498.7539
1130.10 498.503
1130.20 498.2522
1130.30 497.8574
1130.40 497.4009
1130.50 496.9444
1130.60 496.4879
1130.70 496.0314
1130.80 495.575
1130.90 495.1185
1131.00 494.662
1131.10 494.2055
1131.20 493.749
1131.30 493.2925
1131.40 492.836
1131.50 492.3795
1131.60 491.923
1131.70 491.4665
1131.80 491.0101
1131.90 490.5536
1132.00 490.0971
1132.10 489.6406
1132.20 489.1841
1132.30 488.7276
1132.40 488.2711
1132.50 487.8146
1132.60 487.3581
1132.70 486.9017
1132.80 486.4452
1132.90 485.9887
1133.00 485.5322
1133.10 485.0757
1133.20 484.6192
1133.30 484.1627
1133.40 483.7062
1133.50 483.2497
1133.60 482.7933
1133.70 482.3368
1133.80 481.8803
1133.90 481.4238
1134.00 480.9673
1134.10 480.5108
1134.20 480.0543
1134.30 479.5978
1134.40 479.1413
1134.50 478.9821
1134.60 478.8973
1134.70 478.8124
1134.80 478.7276
1134.90 478.6427
1135.00 478.5578
1135.10 478.473
1135.20 478.3881
1135.30 478.3032
1135.40 478.2184
1135.50 478.1335
1135.60 478.0487
1135.70 477.9638
1135.80 477.8789
1135.90 477.7941
1136.00 477.7092
1136.10 477.6244
1136.20 477.5395
1136.30 477.4546
1136.40 477.3698
1136.50 477.2849
1136.60 477.2
1136.70 477.1152
1136.80 477.0303
1136.90 476.9455
1137.00 476.8606
1137.10 476.7757
1137.20 476.6909
1137.30 476.606
1137.40 476.5211
1137.50 476.4363
1137.60 476.3514
1137.70 476.2666
1137.80 476.1817
1137.90 476.0968
1138.00 476.012
1138.10 475.9271
1138.20 475.8422
1138.30 475.7574
1138.40 475.6725
1138.50 475.5877
1138.60 475.5028
1138.70 475.7951
1138.80 476.1817
1138.90 476.5683
1139.00 476.9549
1139.10 477.3415
1139.20 477.7281
1139.30 478.1146
1139.40 478.5012
1139.50 478.8878
1139.60 479.2744
1139.70 479.661
1139.80 480.0476
1139.90 480.4342
1140.00 480.8208
1140.10 481.2074
1140.20 481.594
1140.30 481.9806
1140.40 482.3671
1140.50 482.7537
1140.60 483.1403
1140.70 483.5269
1140.80 483.9135
1140.90 484.3001
1141.00 484.6867
1141.10 485.0733
1141.20 485.4599
1141.30 485.8465
1141.40 486.2331
1141.50 486.6197
1141.60 487.0062
1141.70 487.3928
1141.80 487.7794
1141.90 488.166
1142.00 488.5526
1142.10 488.9392
1142.20 489.3258
1142.30 489.7124
1142.40 490.099
1142.50 490.4856
1142.60 490.8722
1142.70 491.2588
1142.80 491.6453
1142.90 492.5857
1143.00 493.6645
1143.10 494.7432
1143.20 495.822
1143.30 496.9008
1143.40 497.9795
1143.50 499.0583
1143.60 500.1371
1143.70 501.2159
1143.80 502.2946
1143.90 503.3734
1144.00 504.4522
1144.10 505.531
1144.20 506.6097
1144.30 507.6885
1144.40 508.7673
1144.50 509.8461
1144.60 510.9248
1144.70 512.0036
1144.80 513.0824
1144.90 514.1611
1145.00 515.2399
1145.10 516.3187
1145.20 517.3975
1145.30 518.4762
1145.40 519.555
1145.50 520.6338
1145.60 521.7126
1145.70 522.7913
1145.80 523.8701
1145.90 524.9489
1146.00 526.0276
1146.10 527.1064
1146.20 528.1852
1146.30 529.264
1146.40 530.3427
1146.50 531.4215
1146.60 532.5003
1146.70 533.5791
1146.80 534.6578
1146.90 535.7366
1147.00 536.8154
1147.10 537.3585
1147.20 537.5446
1147.30 537.7307
1147.40 537.9168
1147.50 538.1029
1147.60 538.289
1147.70 538.475
1147.80 538.6611
1147.90 538.8472
1148.00 539.0333
1148.10 539.2194
1148.20 539.4055
1148.30 539.5915
1148.40 539.7776
1148.50 539.9637
1148.60 540.1498
1148.70 540.3359
1148.80 540.522
1148.90 540.708
1149.00 540.8941
1149.10 541.0802
1149.20 541.2663
1149.30 541.4524
1149.40 541.6385
1149.50 541.8246
1149.60 542.0106
1149.70 542.1967
1149.80 542.3828
1149.90 542.5689
1150.00 542.755
1150.10 542.9411
1150.20 543.1271
1150.30 543.3132
1150.40 543.4993
1150.50 543.6854
1150.60 543.8715
1150.70 544.0576
1150.80 544.2437
1150.90 544.4297
1151.00 544.6158
1151.10 544.8019
1151.20 544.988
1151.30 545.2233
1151.40 545.5077
1151.50 545.7922
1151.60 546.0767
1151.70 546.3611
1151.80 546.6456
1151.90 546.93
1152.00 547.2145
1152.10 547.499
1152.20 547.7834
1152.30 548.0679
1152.40 548.3523
1152.50 548.6368
1152.60 548.9213
1152.70 549.2057
1152.80 549.4902
1152.90 549.7747
1153.00 550.0591
1153.10 550.3436
1153.20 550.628
1153.30 550.9125
1153.40 551.197
1153.50 551.4814
1153.60 551.7659
1153.70 552.0504
1153.80 552.3348
1153.90 552.6193
1154.00 552.9037
1154.10 553.1882
1154.20 553.4727
1154.30 553.7571
1154.40 554.0416
1154.50 554.3261
1154.60 554.6105
1154.70 554.895
1154.80 555.1794
1154.90 555.4639
1155.00 555.7484
1155.10 556.0328
1155.20 556.3173
1155.30 556.6018
1155.40 556.8862
1155.50 557.0684
1155.60 556.8414
1155.70 556.6145
1155.80 556.3875
1155.90 556.1606
1156.00 555.9336
1156.10 555.7067
1156.20 555.4797
1156.30 555.2528
1156.40 555.0258
1156.50 554.7989
1156.60 554.5719
1156.70 554.345
1156.80 554.118
1156.90 553.891
1157.00 553.6641
1157.10 553.4371
1157.20 553.2102
1157.30 552.9832
1157.40 552.7563
1157.50 552.5293
1157.60 552.3024
1157.70 552.0754
1157.80 551.8485
1157.90 551.6215
1158.00 551.3946
1158.10 551.1676
1158.20 550.9406
1158.30 550.7137
1158.40 550.4867
1158.50 550.2598
1158.60 550.0328
1158.70 549.8059
1158.80 549.5789
1158.90 549.352
1159.00 549.125
1159.10 548.8981
1159.20 548.6711
1159.30 548.4442
1159.40 548.2172
1159.50 547.9902
1159.60 547.7633
1159.70 547.5363
1159.80 547.2256
1159.90 546.9055
1160.00 546.5855
1160.10 546.2654
1160.20 545.9453
1160.30 545.6253
1160.40 545.3052
1160.50 544.9851
1160.60 544.6651
1160.70 544.345
1160.80 544.0249
1160.90 543.7049
1161.00 543.3848
1161.10 543.0647
1161.20 542.7447
1161.30 542.4246
1161.40 542.1045
1161.50 541.7844
1161.60 541.4644
1161.70 541.1443
1161.80 540.8242
1161.90 540.5042
1162.00 540.1841
1162.10 539.864
1162.20 539.544
1162.30 539.2239
1162.40 538.9038
1162.50 538.5838
1162.60 538.2637
1162.70 537.9436
1162.80 537.6236
1162.90 537.3035
1163.00 536.9834
1163.10 536.6634
1163.20 536.3433
1163.30 536.0232
1163.40 535.7032
1163.50 535.3831
1163.60 535.063
1163.70 534.743
1163.80 534.4229
1163.90 534.1028
1164.00 533.7315
1164.10 533.326
1164.20 532.9205
1164.30 532.5149
1164.40 532.1094
1164.50 531.7039
1164.60 531.2984
1164.70 530.8928
1164.80 530.4873
1164.90 530.0818
1165.00 529.6763
1165.10 529.2707
1165.20 528.8652
1165.30 528.4597
1165.40 528.0542
1165.50 527.6486
1165.60 527.2431
1165.70 526.8376
1165.80 526.4321
1165.90 526.0265
1166.00 525.621
1166.10 525.2155
1166.20 524.81
1166.30 524.4044
1166.40 523.9989
1166.50 523.5934
1166.60 523.1879
1166.70 522.7823
1166.80 522.3768
1166.90 521.9713
1167.00 521.5658
1167.10 521.1602
1167.20 520.7547
1167.30 520.3492
1167.40 519.9437
1167.50 519.5381
1167.60 519.1326
1167.70 518.7271
1167.80 518.3216
1167.90 517.916
1168.00 517.5105
1168.10 517.105
1168.20 516.6783
1168.30 516.167
1168.40 515.6557
1168.50 515.1445
1168.60 514.6332
1168.70 514.1219
1168.80 513.6106
1168.90 513.0993
1169.00 512.588
1169.10 512.0767
1169.20 511.5655
1169.30 511.0542
1169.40 510.5429
1169.50 510.0316
1169.60 509.5203
1169.70 509.009
1169.80 508.4978
1169.90 507.9865
1170.00 507.4752
1170.10 506.9639
1170.20 506.4526
1170.30 505.9413
1170.40 505.43
1170.50 504.9188
1170.60 504.4075
1170.70 503.8962
1170.80 503.3849
1170.90 502.8736
1171.00 502.3623
1171.10 501.8511
1171.20 501.3398
1171.30 500.8285
1171.40 500.3172
1171.50 499.8059
1171.60 499.2946
1171.70 498.7833
1171.80 498.2721
1171.90 497.7608
1172.00 497.2495
1172.10 496.7382
1172.20 496.2269
1172.30 495.7156
1172.40 495.2043
1172.50 495.1372
1172.60 495.2603
1172.70 495.3834
1172.80 495.5066
1172.90 495.6297
1173.00 495.7529
1173.10 495.876
1173.20 495.9992
1173.30 496.1223
1173.40 496.2454
1173.50 496.3686
1173.60 496.4917
1173.70 496.6149
1173.80 496.738
1173.90 496.8611
1174.00 496.9843
1174.10 497.1074
1174.20 497.2306
1174.30 497.3537
1174.40 497.4769
1174.50 497.6
1174.60 497.7231
1174.70 497.8463
1174.80 497.9694
1174.90 498.0926
1175.00 498.2157
1175.10 498.3388
1175.20 498.462
1175.30 498.5851
1175.40 498.7083
1175.50 498.8314
1175.60 498.9545
1175.70 499.0777
1175.80 499.2008
1175.90 499.324
1176.00 499.4471
1176.10 499.5703
1176.20 499.6934
1176.30 499.8165
1176.40 499.9397
1176.50 500.0628
1176.60 500.186
1176.70 500.3221
1176.80 500.5102
1176.90 500.6982
1177.00 500.8863
1177.10 501.0744
1177.20 501.2624
1177.30 501.4505
1177.40 501.6386
1177.50 501.8266
1177.60 502.0147
1177.70 502.2028
1177.80 502.3909
1177.90 502.5789
1178.00 502.767
1178.10 502.9551
1178.20 503.1431
1178.30 503.3312
1178.40 503.5193
1178.50 503.7073
1178.60 503.8954
1178.70 504.0835
1178.80 504.2716
1178.90 504.4596
1179.00 504.6477
1179.10 504.8358
1179.20 505.0238
1179.30 505.2119
1179.40 505.4
1179.50 505.588
1179.60 505.7761
1179.70 505.9642
1179.80 506.1523
1179.90 506.3403
1180.00 506.5284
1180.10 506.7165
1180.20 506.9045
1180.30 507.0926
1180.40 507.2807
1180.50 507.4687
1180.60 507.6568
1180.70 507.8449
1180.80 508.033
1180.90 508.221
1181.00 508.6512
1181.10 509.2428
1181.20 509.8344
1181.30 510.4259
1181.40 511.0175
1181.50 511.6091
1181.60 512.2007
1181.70 512.7922
1181.80 513.3838
1181.90 513.9754
1182.00 514.567
1182.10 515.1586
1182.20 515.7501
1182.30 516.3417
1182.40 516.9333
1182.50 517.5249
1182.60 518.1165
1182.70 518.708
1182.80 519.2996
1182.90 519.8912
1183.00 520.4828
1183.10 521.0743
1183.20 521.6659
1183.30 522.2575
1183.40 522.8491
1183.50 523.4407
1183.60 524.0322
1183.70 524.6238
1183.80 525.2154
1183.90 525.807
1184.00 526.3985
1184.10 526.9901
1184.20 527.5817
1184.30 528.1733
1184.40 528.7649
1184.50 529.3564
1184.60 529.948
1184.70 530.5396
1184.80 531.1312
1184.90 531.7228
1185.00 532.3143
1185.10 532.9059
1185.20 533.4975
1185.30 533.8193
1185.40 534.1411
1185.50 534.4629
1185.60 534.7847
1185.70 535.1065
1185.80 535.4283
1185.90 535.7501
1186.00 536.0719
1186.10 536.3937
1186.20 536.7155
1186.30 537.0373
1186.40 537.3592
1186.50 537.681
1186.60 538.0028
1186.70 538.3246
1186.80 538.6464
1186.90 538.9682
1187.00 539.29
1187.10 539.6118
1187.20 539.9336
1187.30 540.2554
1187.40 540.5772
1187.50 540.899
1187.60 541.2208
1187.70 541.5426
1187.80 541.8644
1187.90 542.1862
1188.00 542.508
1188.10 542.8298
1188.20 543.1516
1188.30 543.4735
1188.40 543.7953
1188.50 544.1171
1188.60 544.4389
1188.70 544.7607
1188.80 545.0825
1188.90 545.4043
1189.00 545.7261
1189.10 546.0479
1189.20 546.3697
1189.30 546.6915
1189.40 547.0133
1189.50 546.9901
1189.60 546.4493
1189.70 545.9085
1189.80 545.3677
1189.90 544.8269
1190.00 544.2861
1190.10 543.7454
1190.20 543.2046
1190.30 542.6638
1190.40 542.123
1190.50 541.5822
1190.60 541.0414
1190.70 540.5006
1190.80 539.9598
1190.90 539.419
1191.00 538.8783
1191.10 538.3375
1191.20 537.7967
1191.30 537.2559
1191.40 536.7151
1191.50 536.1743
1191.60 535.6335
1191.70 535.0927
1191.80 534.552
1191.90 534.0112
1192.00 533.4704
1192.10 532.9296
1192.20 532.3888
1192.30 531.848
1192.40 531.3072
1192.50 530.7664
1192.60 530.2257
1192.70 529.6849
1192.80 529.1441
1192.90 528.6033
1193.00 528.0625
1193.10 527.5217
1193.20 526.9809
1193.30 526.4401
1193.40 525.8994
1193.50 525.3586
1193.60 524.8178
1193.70 524.277
1193.80 523.8278
1193.90 523.4179
1194.00 523.008
1194.10 522.5981
1194.20 522.1882
1194.30 521.7783
1194.40 521.3684
1194.50 520.9585
1194.60 520.5486
1194.70 520.1387
1194.80 519.7287
1194.90 519.3188
1195.00 518.9089
1195.10 518.499
1195.20 518.0891
1195.30 517.6792
1195.40 517.2693
1195.50 516.8594
1195.60 516.4495
1195.70 516.0396
1195.80 515.6297
1195.90 515.2198
1196.00 514.8099
1196.10 514.4
1196.20 513.99
1196.30 513.5801
1196.40 513.1702
1196.50 512.7603
1196.60 512.3504
1196.70 511.9405
1196.80 511.5306
1196.90 511.1207
1197.00 510.7108
1197.10 510.3009
1197.20 509.891
1197.30 509.4811
1197.40 509.0712
1197.50 508.6613
1197.60 508.2513
1197.70 507.8414
1197.80 507.4315
1197.90 507.0216
1198.00 506.6117
1198.10 506.7295
1198.20 506.906
1198.30 507.0824
1198.40 507.2588
1198.50 507.4353
1198.60 507.6117
1198.70 507.7882
1198.80 507.9646
1198.90 508.141
1199.00 508.3175
1199.10 508.4939
1199.20 508.6703
1199.30 508.8468
1199.40 509.0232
1199.50 509.1997
1199.60 509.3761
1199.70 509.5525
1199.80 509.729
1199.90 509.9054
1200.00 510.0819
1200.10 510.2583
1200.20 510.4347
1200.30 510.6112
1200.40 510.7876
1200.50 510.9641
1200.60 511.1405
1200.70 511.3169
1200.80 511.4934
1200.90 511.6698
1201.00 511.8463
1201.10 512.0227
1201.20 512.1991
1201.30 512.3756
1201.40 512.552
1201.50 512.7284
1201.60 512.9049
1201.70 513.0813
1201.80 513.2578
1201.90 513.4342
1202.00 513.6106
1202.10 513.7871
1202.20 513.9635
1202.30 514.1669
1202.40 514.6126
1202.50 515.0583
1202.60 515.504
1202.70 515.9497
1202.80 516.3954
1202.90 516.8411
1203.00 517.2868
1203.10 517.7325
1203.20 518.1782
1203.30 518.6239
1203.40 519.0696
1203.50 519.5153
1203.60 519.961
1203.70 520.4068
1203.80 520.8525
1203.90 521.2982
1204.00 521.7439
1204.10 522.1896
1204.20 522.6353
1204.30 523.081
1204.40 523.5267
1204.50 523.9724
1204.60 524.4181
1204.70 524.8638
1204.80 525.3095
1204.90 525.7552
1205.00 526.2009
1205.10 526.6466
1205.20 527.0923
1205.30 527.538
1205.40 527.9837
1205.50 528.4294
1205.60 528.8751
1205.70 529.3208
1205.80 529.7665
1205.90 530.2123
1206.00 530.658
1206.10 531.1037
1206.20 531.5494
1206.30 531.9951
1206.40 532.4408
1206.50 532.8865
1206.60 533.3725
1206.70 533.9525
1206.80 534.5325
1206.90 535.1125
1207.00 535.6925
1207.10 536.2725
1207.20 536.8525
1207.30 537.4325
1207.40 538.0125
1207.50 538.5925
1207.60 539.1725
1207.70 539.7525
1207.80 540.3325
1207.90 540.9125
1208.00 541.4925
1208.10 542.0725
1208.20 542.6525
1208.30 543.2325
1208.40 543.8125
1208.50 544.3925
1208.60 544.9725
1208.70 545.5525
1208.80 546.1325
1208.90 546.7125
1209.00 547.2925
1209.10 547.8725
1209.20 548.4525
1209.30 549.0325
1209.40 549.6125
1209.50 550.1925
1209.60 550.7725
1209.70 551.3525
1209.80 551.9325
1209.90 552.5125
1210.00 553.0925
1210.10 553.6725
1210.20 554.2525
1210.30 554.8325
1210.40 555.4125
1210.50 555.9925
1210.60 556.5725
1210.70 557.1525
1210.80 557.7325
1210.90 558.2151
1211.00 558.6003
1211.10 558.9855
1211.20 559.3706
1211.30 559.7558
1211.40 560.141
1211.50 560.5262
1211.60 560.9114
1211.70 561.2965
1211.80 561.6817
1211.90 562.0669
1212.00 562.4521
1212.10 562.8372
1212.20 563.2224
1212.30 563.6076
1212.40 563.9928
1212.50 564.378
1212.60 564.7631
1212.70 565.1483
1212.80 565.5335
1212.90 565.9187
1213.00 566.3039
1213.10 566.689
1213.20 567.0742
1213.30 567.4594
1213.40 567.8446
1213.50 568.2298
1213.60 568.6149
1213.70 569.0001
1213.80 569.3853
1213.90 569.7705
1214.00 570.1557
1214.10 570.5408
1214.20 570.926
1214.30 571.3112
1214.40 571.6964
1214.50 572.0816
1214.60 572.4667
1214.70 572.8519
1214.80 573.2371
1214.90 573.6223
1215.00 574.0075
1215.10 574.3926
1215.20 574.8613
1215.30 575.3856
1215.40 575.9099
1215.50 576.4342
1215.60 576.9585
1215.70 577.4829
1215.80 578.0072
1215.90 578.5315
1216.00 579.0558
1216.10 579.5801
1216.20 580.1044
1216.30 580.6287
1216.40 581.153
1216.50 581.6773
1216.60 582.2016
1216.70 582.726
1216.80 583.2503
1216.90 583.7746
1217.00 584.2989
1217.10 584.8232
1217.20 585.3475
1217.30 585.8718
1217.40 586.3961
1217.50 586.9204
1217.60 587.4448
1217.70 587.9691
1217.80 588.4934
1217.90 589.0177
1218.00 589.542
1218.10 590.0663
1218.20 590.5906
1218.30 591.1149
1218.40 591.6392
1218.50 592.1635
1218.60 592.6879
1218.70 593.2122
1218.80 593.7365
1218.90 594.2608
1219.00 594.7851
1219.10 595.3094
1219.20 595.8337
1219.30 596.358
1219.40 596.8823
1219.50 597.3162
1219.60 597.7112
1219.70 598.1063
1219.80 598.5014
1219.90 598.8964
1220.00 599.2915
1220.10 599.6866
1220.20 600.0816
1220.30 600.4767
1220.40 600.8718
1220.50 601.2668
1220.60 601.6619
1220.70 602.057
1220.80 602.452
1220.90 602.8471
1221.00 603.2422
1221.10 603.6372
1221.20 604.0323
1221.30 604.4274
1221.40 604.8224
1221.50 605.2175
1221.60 605.6126
1221.70 606.0076
1221.80 606.4027
1221.90 606.7978
1222.00 607.1928
1222.10 607.5879
1222.20 607.983
1222.30 608.378
1222.40 608.7731
1222.50 609.1681
1222.60 609.5632
1222.70 609.9583
1222.80 610.3533
1222.90 610.7484
1223.00 611.1435
1223.10 611.5385
1223.20 611.9336
1223.30 612.3287
1223.40 612.7237
1223.50 613.1188
1223.60 613.5139
1223.70 613.9089
1223.80 614.0458
1223.90 614.0721
1224.00 614.0983
1224.10 614.1246
1224.20 614.1508
1224.30 614.1771
1224.40 614.2033
1224.50 614.2296
1224.60 614.2558
1224.70 614.2821
1224.80 614.3083
1224.90 614.3346
1225.00 614.3608
1225.10 614.3871
1225.20 614.4133
1225.30 614.4396
1225.40 614.4658
1225.50 614.4921
1225.60 614.5183
1225.70 614.5446
1225.80 614.5708
1225.90 614.5971
1226.00 614.6233
1226.10 614.6496
1226.20 614.6758
1226.30 614.7021
1226.40 614.7283
1226.50 614.7546
1226.60 614.7808
1226.70 614.8071
1226.80 614.8333
1226.90 614.8596
1227.00 614.8858
1227.10 614.9121
1227.20 614.9383
1227.30 614.9646
1227.40 614.9908
1227.50 615.0171
1227.60 615.0433
1227.70 615.0696
1227.80 615.0958
1227.90 615.1221
1228.00 615.1483
1228.10 615.1168
1228.20 615.0708
1228.30 615.0248
1228.40 614.9788
1228.50 614.9329
1228.60 614.8869
1228.70 614.8409
1228.80 614.7949
1228.90 614.7489
1229.00 614.703
1229.10 614.657
1229.20 614.611
1229.30 614.565
1229.40 614.519
1229.50 614.473
1229.60 614.4271
1229.70 614.3811
1229.80 614.3351
1229.90 614.2891
1230.00 614.2431
1230.10 614.1972
1230.20 614.1512
1230.30 614.1052
1230.40 614.0592
1230.50 614.0132
1230.60 613.9672
1230.70 613.9213
1230.80 613.8753
1230.90 613.8293
1231.00 613.7833
1231.10 613.7373
1231.20 613.6913
1231.30 613.6454
1231.40 613.5994
1231.50 613.5534
1231.60 613.5074
1231.70 613.4614
1231.80 613.4155
1231.90 613.3695
1232.00 613.3235
1232.10 613.2775
1232.20 613.2315
1232.30 613.1855
1232.40 612.5925
1232.50 611.8626
1232.60 611.1328
1232.70 610.4029
1232.80 609.6731
1232.90 608.9432
1233.00 608.2134
1233.10 607.4835
1233.20 606.7537
1233.30 606.0238
1233.40 605.2939
1233.50 604.5641
1233.60 603.8342
1233.70 603.1044
1233.80 602.3745
1233.90 601.6447
1234.00 600.9148
1234.10 600.185
1234.20 599.4551
1234.30 598.7253
1234.40 597.9954
1234.50 597.2656
1234.60 596.5357
1234.70 595.8059
1234.80 595.076
1234.90 594.3462
1235.00 593.6163
1235.10 592.8865
1235.20 592.1566
1235.30 591.4268
1235.40 590.6969
1235.50 589.9671
1235.60 589.2372
1235.70 588.5074
1235.80 587.7775
1235.90 587.0476
1236.00 586.3178
1236.10 585.5879
1236.20 584.8581
1236.30 584.1282
1236.40 583.3984
1236.50 582.6685
1236.60 581.9387
1236.70 581.5302
1236.80 581.2594
1236.90 580.9886
1237.00 580.7178
1237.10 580.4469
1237.20 580.1761
1237.30 579.9053
1237.40 579.6345
1237.50 579.3637
1237.60 579.0929
1237.70 578.8221
1237.80 578.5513
1237.90 578.2805
1238.00 578.0097
1238.10 577.7389
1238.20 577.4681
1238.30 577.1973
1238.40 576.9265
1238.50 576.6557
1238.60 576.3849
1238.70 576.1141
1238.80 575.8433
1238.90 575.5725
1239.00 575.3017
1239.10 575.0309
1239.20 574.7601
1239.30 574.4893
1239.40 574.2185
1239.50 573.9476
1239.60 573.6768
1239.70 573.406
1239.80 573.1352
1239.90 572.8644
1240.00 572.5936
1240.10 572.3228
1240.20 572.052
1240.30 571.7812
1240.40 571.5104
1240.50 571.2396
1240.60 570.9688
1240.70 570.698
1240.80 570.4272
1240.90 570.1564
1241.00 569.8658
1241.10 569.5667
1241.20 569.2677
1241.30 568.9686
1241.40 568.6695
1241.50 568.3704
1241.60 568.0714
1241.70 567.7723
1241.80 567.4732
1241.90 567.1741
1242.00 566.8751
1242.10 566.576
1242.20 566.2769
1242.30 565.9779
1242.40 565.6788
1242.50 565.3797
1242.60 565.0806
1242.70 564.7816
1242.80 564.4825
1242.90 564.1834
1243.00 563.8843
1243.10 563.5853
1243.20 563.2862
1243.30 562.9871
1243.40 562.6881
1243.50 562.389
1243.60 562.0899
1243.70 561.7908
1243.80 561.4918
1243.90 561.1927
1244.00 560.8936
1244.10 560.5945
1244.20 560.2955
1244.30 559.9964
1244.40 559.6973
1244.50 559.3983
1244.60 559.0992
1244.70 558.8001
1244.80 558.501
1244.90 558.202
1245.00 557.9029
1245.10 557.6038
1245.20 557.3047
1245.30 557.5326
1245.40 558.1117
1245.50 558.6909
1245.60 559.27
1245.70 559.8492
1245.80 560.4283
1245.90 561.0075
1246.00 561.5866
1246.10 562.1658
1246.20 562.7449
1246.30 563.3241
1246.40 563.9032
1246.50 564.4824
1246.60 565.0615
1246.70 565.6406
1246.80 566.2198
1246.90 566.7989
1247.00 567.3781
1247.10 567.9572
1247.20 568.5364
1247.30 569.1155
1247.40 569.6947
1247.50 570.2738
1247.60 570.853
1247.70 571.4321
1247.80 572.0113
1247.90 572.5904
1248.00 573.1695
1248.10 573.7487
1248.20 574.3278
1248.30 574.907
1248.40 575.4861
1248.50 576.0653
1248.60 576.6444
1248.70 577.2236
1248.80 577.8027
1248.90 578.3819
1249.00 578.961
1249.10 579.5402
1249.20 580.1193
1249.30 580.6984
1249.40 581.2776
1249.50 581.8567
1249.60 582.4006
1249.70 582.9092
1249.80 583.4179
1249.90 583.9265
1250.00 584.4351
1250.10 584.9437
1250.20 585.4524
1250.30 585.961
1250.40 586.4696
1250.50 586.9782
1250.60 587.4868
1250.70 587.9955
1250.80 588.5041
1250.90 589.0127
1251.00 589.5213
1251.10 590.03
1251.20 590.5386
1251.30 591.0472
1251.40 591.5558
1251.50 592.0645
1251.60 592.5731
1251.70 593.0817
1251.80 593.5903
1251.90 594.0989
1252.00 594.6076
1252.10 595.1162
1252.20 595.6248
1252.30 596.1334
1252.40 596.6421
1252.50 597.1507
1252.60 597.6593
1252.70 598.1679
1252.80 598.6765
1252.90 599.1852
1253.00 599.6938
1253.10 600.2024
1253.20 600.711
1253.30 601.2197
1253.40 601.7283
1253.50 602.2369
1253.60 602.7455
1253.70 603.2541
1253.80 603.7628
1253.90 604.4038
1254.00 605.2436
1254.10 606.0834
1254.20 606.9231
1254.30 607.7629
1254.40 608.6026
1254.50 609.4424
1254.60 610.2822
1254.70 611.1219
1254.80 611.9617
1254.90 612.8014
1255.00 613.6412
1255.10 614.4809
1255.20 615.3207
1255.30 616.1605
1255.40 617.0002
1255.50 617.84
1255.60 618.6797
1255.70 619.5195
1255.80 620.3593
1255.90 621.199
1256.00 622.0388
1256.10 622.8785
1256.20 623.7183
1256.30 624.5581
1256.40 625.3978
1256.50 626.2376
1256.60 627.0773
1256.70 627.9171
1256.80 628.7568
1256.90 629.5966
1257.00 630.4364
1257.10 631.2761
1257.20 632.1159
1257.30 632.9556
1257.40 633.7954
1257.50 634.6352
1257.60 635.4749
1257.70 636.3147
1257.80 637.1544
1257.90 637.9942
1258.00 638.834
1258.10 639.6737
1258.20 640.2966
1258.30 640.4134
1258.40 640.5302
1258.50 640.6471
1258.60 640.7639
1258.70 640.8807
1258.80 640.9976
1258.90 641.1144
1259.00 641.2312
1259.10 641.348
1259.20 641.4649
1259.30 641.5817
1259.40 641.6985
1259.50 641.8154
1259.60 641.9322
1259.70 642.049
1259.80 642.1658
1259.90 642.2827
1260.00 642.3995
1260.10 642.5163
1260.20 642.6332
1260.30 642.75
1260.40 642.8668
1260.50 642.9836
1260.60 643.1005
1260.70 643.2173
1260.80 643.3341
1260.90 643.451
1261.00 643.5678
1261.10 643.6846
1261.20 643.8014
1261.30 643.9183
1261.40 644.0351
1261.50 644.1519
1261.60 644.2688
1261.70 644.3856
1261.80 644.5024
1261.90 644.6192
1262.00 644.7361
1262.10 644.8529
1262.20 644.9697
1262.30 645.0866
1262.40 645.2034
1262.50 645.454
1262.60 646.2395
1262.70 647.025
1262.80 647.8106
1262.90 648.5961
1263.00 649.3816
1263.10 650.1672
1263.20 650.9527
1263.30 651.7383
1263.40 652.5238
1263.50 653.3093
1263.60 654.0949
1263.70 654.8804
1263.80 655.6659
1263.90 656.4515
1264.00 657.237
1264.10 658.0225
1264.20 658.8081
1264.30 659.5936
1264.40 660.3792
1264.50 661.1647
1264.60 661.9502
1264.70 662.7358
1264.80 663.5213
1264.90 664.3068
1265.00 665.0924
1265.10 665.8779
1265.20 666.6634
1265.30 667.449
1265.40 668.2345
1265.50 669.0201
1265.60 669.8056
1265.70 670.5911
1265.80 671.3767
1265.90 672.1622
1266.00 672.9477
1266.10 673.7333
1266.20 674.5188
1266.30 675.3044
1266.40 676.0899
1266.50 676.8754
1266.60 677.661
1266.70 678.4465
1266.80 679.232
1266.90 678.7555
1267.00 678.279
1267.10 677.8025
1267.20 677.3261
1267.30 676.8496
1267.40 676.3731
1267.50 675.8966
1267.60 675.4201
1267.70 674.9436
1267.80 674.4671
1267.90 673.9906
1268.00 673.5141
1268.10 673.0376
1268.20 672.5611
1268.30 672.0846
1268.40 671.6081
1268.50 671.1316
1268.60 670.6551
1268.70 670.1786
1268.80 669.7021
1268.90 669.2256
1269.00 668.7491
1269.10 668.2726
1269.20 667.7961
1269.30 667.3196
1269.40 666.8432
1269.50 666.3667
1269.60 665.8902
1269.70 665.4137
1269.80 664.9372
1269.90 664.4607
1270.00 663.9842
1270.10 663.5077
1270.20 663.0312
1270.30 662.5547
1270.40 662.0782
1270.50 661.6017
1270.60 661.1252
1270.70 660.6487
1270.80 660.1722
1270.90 659.6957
1271.00 659.2192
1271.10 658.7427
1271.20 659.1695
1271.30 659.6967
1271.40 660.2239
1271.50 660.7511
1271.60 661.2783
1271.70 661.8054
1271.80 662.3326
1271.90 662.8598
1272.00 663.387
1272.10 663.9141
1272.20 664.4413
1272.30 664.9685
1272.40 665.4957
1272.50 666.0229
1272.60 666.55
1272.70 667.0772
1272.80 667.6044
1272.90 668.1316
1273.00 668.6588
1273.10 669.1859
1273.20 669.7131
1273.30 670.2403
1273.40 670.7675
1273.50 671.2946
1273.60 671.8218
1273.70 672.349
1273.80 672.8762
1273.90 673.4034
1274.00 673.9305
1274.10 674.4577
1274.20 674.9849
1274.30 675.5121
1274.40 676.0392
1274.50 676.5664
1274.60 677.0936
1274.70 677.6208
1274.80 678.148
1274.90 678.6751
1275.00 679.2023
1275.10 679.7295
1275.20 680.2567
1275.30 680.7839
1275.40 681.311
1275.50 681.4778
1275.60 681.4901
1275.70 681.5024
1275.80 681.5147
1275.90 681.527
1276.00 681.5393
1276.10 681.5516
1276.20 681.5639
1276.30 681.5762
1276.40 681.5885
1276.50 681.6008
1276.60 681.6131
1276.70 681.6254
1276.80 681.6377
1276.90 681.65
1277.00 681.6623
1277.10 681.6746
1277.20 681.6869
1277.30 681.6992
1277.40 681.7115
1277.50 681.7238
1277.60 681.7361
1277.70 681.7484
1277.80 681.7607
1277.90 681.773
1278.00 681.7853
1278.10 681.7976
1278.20 681.8099
1278.30 681.8222
1278.40 681.8345
1278.50 681.8468
1278.60 681.8591
1278.70 681.8714
1278.80 681.8837
1278.90 681.896
1279.00 681.9083
1279.10 681.9206
1279.20 681.9329
1279.30 681.9452
1279.40 681.9575
1279.50 681.9698
1279.60 681.9821
1279.70 681.9944
1279.80 682.0316
1279.90 682.0853
1280.00 682.139
1280.10 682.1927
1280.20 682.2465
1280.30 682.3002
1280.40 682.3539
1280.50 682.4076
1280.60 682.4613
1280.70 682.5151
1280.80 682.5688
1280.90 682.6225
1281.00 682.6762
1281.10 682.73
1281.20 682.7837
1281.30 682.8374
1281.40 682.8911
1281.50 682.9448
1281.60 682.9986
1281.70 683.0523
1281.80 683.106
1281.90 683.1597
1282.00 683.2135
1282.10 683.2672
1282.20 683.3209
1282.30 683.3746
1282.40 683.4284
1282.50 683.4821
1282.60 683.5358
1282.70 683.5895
1282.80 683.6432
1282.90 683.697
1283.00 683.7507
1283.10 683.8044
1283.20 683.8581
1283.30 683.9119
1283.40 683.9656
1283.50 684.0193
1283.60 684.073
1283.70 684.1267
1283.80 684.1805
1283.90 684.2342
1284.00 684.2879
1284.10 684.4593
1284.20 684.8072
1284.30 685.1551
1284.40 685.5031
1284.50 685.851
1284.60 686.1989
1284.70 686.5468
1284.80 686.8947
1284.90 687.2426
1285.00 687.5905
1285.10 687.9384
1285.20 688.2863
1285.30 688.6343
1285.40 688.9822
1285.50 689.3301
1285.60 689.678
1285.70 690.0259
1285.80 690.3738
1285.90 690.7217
1286.00 691.0696
1286.10 691.4176
1286.20 691.7655
1286.30 692.1134
1286.40 692.4613
1286.50 692.8092
1286.60 693.1571
1286.70 693.505
1286.80 693.8529
1286.90 694.2009
1287.00 694.5488
1287.10 694.8967
1287.20 695.2446
1287.30 695.5925
1287.40 695.9404
1287.50 696.2883
1287.60 696.6362
1287.70 696.9842
1287.80 697.3321
1287.90 697.68
1288.00 698.0279
1288.10 698.3758
1288.20 698.7237
1288.30 699.0716
1288.40 699.3849
1288.50 699.5598
1288.60 699.7347
1288.70 699.9095
1288.80 700.0844
1288.90 700.2593
1289.00 700.4341
1289.10 700.609
1289.20 700.7839
1289.30 700.9587
1289.40 701.1336
1289.50 701.3085
1289.60 701.4834
1289.70 701.6582
1289.80 701.8331
1289.90 702.008
1290.00 702.1828
1290.10 702.3577
1290.20 702.5326
1290.30 702.7074
1290.40 702.8823
1290.50 703.0572
1290.60 703.232
1290.70 703.4069
1290.80 703.5818
1290.90 703.7566
1291.00 703.9315
1291.10 704.1064
1291.20 704.2813
1291.30 704.4561
1291.40 704.631
1291.50 704.8059
1291.60 704.9807
1291.70 705.1556
1291.80 705.3305
1291.90 705.5053
1292.00 705.6802
1292.10 705.8551
1292.20 706.0299
1292.30 706.2048
1292.40 706.3797
1292.50 706.5546
1292.60 706.7294
1292.70 706.9043
1292.80 706.9974
1292.90 707.0904
1293.00 707.1835
1293.10 707.2765
1293.20 707.3696
1293.30 707.4627
1293.40 707.5557
1293.50 707.6488
1293.60 707.7418
1293.70 707.8349
1293.80 707.928
1293.90 708.021
1294.00 708.1141
1294.10 708.2072
1294.20 708.3002
1294.30 708.3933
1294.40 708.4863
1294.50 708.5794
1294.60 708.6725
1294.70 708.7655
1294.80 708.8586
1294.90 708.9517
1295.00 709.0447
1295.10 709.1378
1295.20 709.2308
1295.30 709.3239
1295.40 709.417
1295.50 709.51
1295.60 709.6031
1295.70 709.6962
1295.80 709.7892
1295.90 709.8823
1296.00 709.9753
1296.10 710.0684
1296.20 710.1615
1296.30 710.2545
1296.40 710.3476
1296.50 710.4407
1296.60 710.5337
1296.70 710.6268
1296.80 710.7198
1296.90 710.8129
1297.00 710.906
1297.10 710.7788
1297.20 710.5967
1297.30 710.4145
1297.40 710.2323
1297.50 710.0501
1297.60 709.8679
1297.70 709.6858
1297.80 709.5036
1297.90 709.3214
1298.00 709.1392
1298.10 708.957
1298.20 708.7748
1298.30 708.5927
1298.40 708.4105
1298.50 708.2283
1298.60 708.0461
1298.70 707.8639
1298.80 707.6818
1298.90 707.4996
1299.00 707.3174
1299.10 707.1352
1299.20 706.953
1299.30 706.7709
1299.40 706.5887
1299.50 706.4065
1299.60 706.2243
1299.70 706.0421
1299.80 705.86
1299.90 705.6778
