# Version 2.1 - nm, norm@500 to 1, cut digits
# Wavelength(nm)  Flambda(ergs/cm^s/s/nm)
300.00 2.113184e-95
300.10 2.113184e-95
300.20 2.113184e-95
300.30 2.113184e-95
300.40 2.113184e-95
300.50 2.113184e-95
300.60 2.113184e-95
300.70 2.113184e-95
300.80 2.113184e-95
300.90 2.113184e-95
301.00 2.113184e-95
301.10 2.113184e-95
301.20 2.113184e-95
301.30 2.113184e-95
301.40 2.113184e-95
301.50 2.113184e-95
301.60 2.113184e-95
301.70 2.113184e-95
301.80 2.113184e-95
301.90 2.113184e-95
302.00 2.113184e-95
302.10 2.113184e-95
302.20 2.113184e-95
302.30 2.113184e-95
302.40 2.113184e-95
302.50 2.113184e-95
302.60 2.113184e-95
302.70 2.113184e-95
302.80 2.113184e-95
302.90 2.113184e-95
303.00 2.113184e-95
303.10 2.113184e-95
303.20 2.113184e-95
303.30 2.113184e-95
303.40 2.113184e-95
303.50 2.113184e-95
303.60 2.113184e-95
303.70 2.113184e-95
303.80 2.113184e-95
303.90 2.113184e-95
304.00 2.113184e-95
304.10 2.113184e-95
304.20 2.113184e-95
304.30 2.113184e-95
304.40 2.113184e-95
304.50 2.113184e-95
304.60 2.113184e-95
304.70 2.113184e-95
304.80 2.113184e-95
304.90 2.113184e-95
305.00 2.113184e-95
305.10 2.113184e-95
305.20 2.113184e-95
305.30 2.113184e-95
305.40 2.113184e-95
305.50 2.113184e-95
305.60 2.113184e-95
305.70 2.113184e-95
305.80 2.113184e-95
305.90 2.113184e-95
306.00 2.113184e-95
306.10 2.113184e-95
306.20 2.113184e-95
306.30 2.113184e-95
306.40 2.113184e-95
306.50 2.113184e-95
306.60 2.113184e-95
306.70 2.113184e-95
306.80 2.113184e-95
306.90 2.113184e-95
307.00 2.113184e-95
307.10 2.113184e-95
307.20 2.113184e-95
307.30 2.113184e-95
307.40 2.113184e-95
307.50 2.113184e-95
307.60 2.113184e-95
307.70 2.113184e-95
307.80 2.113184e-95
307.90 2.113184e-95
308.00 2.113184e-95
308.10 2.113184e-95
308.20 2.113184e-95
308.30 2.113184e-95
308.40 2.113184e-95
308.50 2.113184e-95
308.60 2.113184e-95
308.70 2.113184e-95
308.80 2.113184e-95
308.90 2.113184e-95
309.00 2.113184e-95
309.10 2.113184e-95
309.20 2.113184e-95
309.30 2.113184e-95
309.40 2.113184e-95
309.50 2.113184e-95
309.60 2.113184e-95
309.70 2.113184e-95
309.80 2.113184e-95
309.90 2.113184e-95
310.00 2.113184e-95
310.10 2.113184e-95
310.20 2.113184e-95
310.30 2.113184e-95
310.40 2.113184e-95
310.50 2.113184e-95
310.60 2.113184e-95
310.70 2.113184e-95
310.80 2.113184e-95
310.90 2.113184e-95
311.00 2.113184e-95
311.10 2.113184e-95
311.20 2.113184e-95
311.30 2.113184e-95
311.40 2.113184e-95
311.50 2.113184e-95
311.60 2.113184e-95
311.70 2.113184e-95
311.80 2.113184e-95
311.90 2.113184e-95
312.00 2.113184e-95
312.10 2.113184e-95
312.20 2.113184e-95
312.30 2.113184e-95
312.40 2.113184e-95
312.50 2.113184e-95
312.60 2.113184e-95
312.70 2.113184e-95
312.80 2.113184e-95
312.90 2.113184e-95
313.00 2.113184e-95
313.10 2.113184e-95
313.20 2.113184e-95
313.30 2.113184e-95
313.40 2.113184e-95
313.50 2.113184e-95
313.60 2.113184e-95
313.70 2.113184e-95
313.80 2.113184e-95
313.90 2.113184e-95
314.00 2.113184e-95
314.10 2.113184e-95
314.20 2.113184e-95
314.30 2.113184e-95
314.40 2.113184e-95
314.50 2.113184e-95
314.60 2.113184e-95
314.70 2.113184e-95
314.80 2.113184e-95
314.90 2.113184e-95
315.00 2.113184e-95
315.10 2.113184e-95
315.20 2.113184e-95
315.30 2.113184e-95
315.40 2.113184e-95
315.50 2.113184e-95
315.60 2.113184e-95
315.70 2.113184e-95
315.80 2.113184e-95
315.90 2.113184e-95
316.00 2.113184e-95
316.10 2.113184e-95
316.20 2.113184e-95
316.30 2.113184e-95
316.40 2.113184e-95
316.50 2.113184e-95
316.60 2.113184e-95
316.70 2.113184e-95
316.80 2.113184e-95
316.90 2.113184e-95
317.00 2.113184e-95
317.10 2.113184e-95
317.20 2.113184e-95
317.30 2.113184e-95
317.40 2.113184e-95
317.50 2.113184e-95
317.60 2.113184e-95
317.70 2.113184e-95
317.80 2.113184e-95
317.90 2.113184e-95
318.00 2.113184e-95
318.10 2.113184e-95
318.20 2.113184e-95
318.30 2.113184e-95
318.40 2.113184e-95
318.50 2.113184e-95
318.60 2.113184e-95
318.70 2.113184e-95
318.80 2.113184e-95
318.90 2.113184e-95
319.00 2.113184e-95
319.10 2.113184e-95
319.20 2.113184e-95
319.30 2.113184e-95
319.40 2.113184e-95
319.50 2.113184e-95
319.60 2.113184e-95
319.70 2.113184e-95
319.80 2.113184e-95
319.90 2.113184e-95
320.00 2.113184e-95
320.10 2.113184e-95
320.20 2.113184e-95
320.30 2.113184e-95
320.40 2.113184e-95
320.50 2.113184e-95
320.60 2.113184e-95
320.70 2.113184e-95
320.80 2.113184e-95
320.90 2.113184e-95
321.00 2.113184e-95
321.10 2.113184e-95
321.20 2.113184e-95
321.30 2.113184e-95
321.40 2.113184e-95
321.50 2.113184e-95
321.60 2.113184e-95
321.70 2.113184e-95
321.80 2.113184e-95
321.90 2.113184e-95
322.00 2.113184e-95
322.10 2.113184e-95
322.20 2.113184e-95
322.30 2.113184e-95
322.40 2.113184e-95
322.50 2.113184e-95
322.60 2.113184e-95
322.70 2.113184e-95
322.80 2.113184e-95
322.90 2.113184e-95
323.00 2.113184e-95
323.10 2.113184e-95
323.20 2.113184e-95
323.30 2.113184e-95
323.40 2.113184e-95
323.50 2.113184e-95
323.60 2.113184e-95
323.70 2.113184e-95
323.80 2.113184e-95
323.90 2.113184e-95
324.00 2.113184e-95
324.10 2.113184e-95
324.20 2.113184e-95
324.30 2.113184e-95
324.40 2.113184e-95
324.50 2.113184e-95
324.60 2.113184e-95
324.70 2.113184e-95
324.80 2.113184e-95
324.90 2.113184e-95
325.00 2.113184e-95
325.10 2.113184e-95
325.20 2.113184e-95
325.30 2.113184e-95
325.40 2.113184e-95
325.50 2.113184e-95
325.60 2.113184e-95
325.70 2.113184e-95
325.80 2.113184e-95
325.90 2.113184e-95
326.00 2.113184e-95
326.10 2.113184e-95
326.20 2.113184e-95
326.30 2.113184e-95
326.40 2.113184e-95
326.50 2.113184e-95
326.60 2.113184e-95
326.70 2.113184e-95
326.80 2.113184e-95
326.90 2.113184e-95
327.00 2.113184e-95
327.10 2.113184e-95
327.20 2.113184e-95
327.30 2.113184e-95
327.40 2.113184e-95
327.50 2.113184e-95
327.60 2.113184e-95
327.70 2.113184e-95
327.80 2.113184e-95
327.90 2.113184e-95
328.00 2.113184e-95
328.10 2.113184e-95
328.20 2.113184e-95
328.30 2.113184e-95
328.40 2.113184e-95
328.50 2.113184e-95
328.60 2.113184e-95
328.70 2.113184e-95
328.80 2.113184e-95
328.90 2.113184e-95
329.00 2.113184e-95
329.10 2.113184e-95
329.20 2.113184e-95
329.30 2.113184e-95
329.40 2.113184e-95
329.50 2.113184e-95
329.60 2.113184e-95
329.70 2.113184e-95
329.80 2.113184e-95
329.90 2.113184e-95
330.00 2.113184e-95
330.10 2.113184e-95
330.20 2.113184e-95
330.30 2.113184e-95
330.40 2.113184e-95
330.50 2.113184e-95
330.60 2.113184e-95
330.70 2.113184e-95
330.80 2.113184e-95
330.90 2.113184e-95
331.00 2.113184e-95
331.10 2.113184e-95
331.20 2.113184e-95
331.30 2.113184e-95
331.40 2.113184e-95
331.50 2.113184e-95
331.60 2.113184e-95
331.70 2.113184e-95
331.80 2.113184e-95
331.90 2.113184e-95
332.00 2.113184e-95
332.10 2.113184e-95
332.20 2.113184e-95
332.30 2.113184e-95
332.40 2.113184e-95
332.50 2.113184e-95
332.60 2.113184e-95
332.70 2.113184e-95
332.80 2.113184e-95
332.90 2.113184e-95
333.00 2.113184e-95
333.10 2.113184e-95
333.20 2.113184e-95
333.30 2.113184e-95
333.40 2.113184e-95
333.50 2.113184e-95
333.60 2.113184e-95
333.70 2.113184e-95
333.80 2.113184e-95
333.90 2.113184e-95
334.00 2.113184e-95
334.10 2.113184e-95
334.20 2.113184e-95
334.30 2.113184e-95
334.40 2.113184e-95
334.50 2.113184e-95
334.60 2.113184e-95
334.70 2.113184e-95
334.80 2.113184e-95
334.90 2.113184e-95
335.00 2.113184e-95
335.10 2.113184e-95
335.20 2.113184e-95
335.30 2.113184e-95
335.40 2.113184e-95
335.50 2.113184e-95
335.60 2.113184e-95
335.70 2.113184e-95
335.80 2.113184e-95
335.90 2.113184e-95
336.00 2.113184e-95
336.10 2.113184e-95
336.20 2.113184e-95
336.30 2.113184e-95
336.40 2.113184e-95
336.50 2.113184e-95
336.60 2.113184e-95
336.70 2.113184e-95
336.80 2.113184e-95
336.90 2.113184e-95
337.00 2.113184e-95
337.10 2.113184e-95
337.20 2.113184e-95
337.30 2.113184e-95
337.40 2.113184e-95
337.50 2.113184e-95
337.60 2.113184e-95
337.70 2.113184e-95
337.80 2.113184e-95
337.90 2.113184e-95
338.00 2.113184e-95
338.10 2.113184e-95
338.20 2.113184e-95
338.30 2.113184e-95
338.40 2.113184e-95
338.50 2.113184e-95
338.60 2.113184e-95
338.70 2.113184e-95
338.80 2.113184e-95
338.90 2.113184e-95
339.00 2.113184e-95
339.10 2.113184e-95
339.20 2.113184e-95
339.30 2.113184e-95
339.40 2.113184e-95
339.50 2.113184e-95
339.60 2.113184e-95
339.70 2.113184e-95
339.80 2.113184e-95
339.90 2.113184e-95
340.00 2.113184e-95
340.10 2.113184e-95
340.20 2.113184e-95
340.30 2.113184e-95
340.40 2.113184e-95
340.50 2.113184e-95
340.60 2.113184e-95
340.70 2.113184e-95
340.80 2.113184e-95
340.90 2.113184e-95
341.00 2.113184e-95
341.10 2.113184e-95
341.20 2.113184e-95
341.30 2.113184e-95
341.40 2.113184e-95
341.50 2.113184e-95
341.60 2.113184e-95
341.70 2.113184e-95
341.80 2.113184e-95
341.90 2.113184e-95
342.00 2.113184e-95
342.10 2.113184e-95
342.20 2.113184e-95
342.30 2.113184e-95
342.40 2.113184e-95
342.50 2.113184e-95
342.60 2.113184e-95
342.70 2.113184e-95
342.80 2.113184e-95
342.90 2.113184e-95
343.00 2.113184e-95
343.10 2.113184e-95
343.20 2.113184e-95
343.30 2.113184e-95
343.40 2.113184e-95
343.50 2.113184e-95
343.60 2.113184e-95
343.70 2.113184e-95
343.80 2.113184e-95
343.90 2.113184e-95
344.00 2.113184e-95
344.10 2.113184e-95
344.20 2.113184e-95
344.30 2.113184e-95
344.40 2.113184e-95
344.50 2.113184e-95
344.60 2.113184e-95
344.70 2.113184e-95
344.80 2.113184e-95
344.90 2.113184e-95
345.00 2.113184e-95
345.10 2.113184e-95
345.20 2.113184e-95
345.30 2.113184e-95
345.40 2.113184e-95
345.50 2.113184e-95
345.60 2.113184e-95
345.70 2.113184e-95
345.80 2.113184e-95
345.90 2.113184e-95
346.00 2.113184e-95
346.10 2.113184e-95
346.20 2.113184e-95
346.30 2.113184e-95
346.40 2.113184e-95
346.50 2.113184e-95
346.60 2.113184e-95
346.70 2.113184e-95
346.80 2.113184e-95
346.90 2.113184e-95
347.00 2.113184e-95
347.10 2.113184e-95
347.20 2.113184e-95
347.30 2.113184e-95
347.40 2.113184e-95
347.50 2.113184e-95
347.60 2.113184e-95
347.70 2.113184e-95
347.80 2.113184e-95
347.90 2.113184e-95
348.00 2.113184e-95
348.10 2.113184e-95
348.20 2.113184e-95
348.30 2.113184e-95
348.40 2.113184e-95
348.50 2.113184e-95
348.60 2.113184e-95
348.70 2.113184e-95
348.80 2.113184e-95
348.90 2.113184e-95
349.00 2.113184e-95
349.10 2.113184e-95
349.20 2.113184e-95
349.30 2.113184e-95
349.40 2.113184e-95
349.50 2.113184e-95
349.60 2.113184e-95
349.70 2.113184e-95
349.80 2.113184e-95
349.90 2.113184e-95
350.00 2.113184e-95
350.10 2.113184e-95
350.20 2.113184e-95
350.30 2.113184e-95
350.40 2.113184e-95
350.50 2.113184e-95
350.60 2.113184e-95
350.70 2.113184e-95
350.80 2.113184e-95
350.90 2.113184e-95
351.00 2.113184e-95
351.10 2.113184e-95
351.20 2.113184e-95
351.30 2.113184e-95
351.40 2.113184e-95
351.50 2.113184e-95
351.60 2.113184e-95
351.70 2.113184e-95
351.80 2.113184e-95
351.90 2.113184e-95
352.00 2.113184e-95
352.10 2.113184e-95
352.20 2.113184e-95
352.30 2.113184e-95
352.40 2.113184e-95
352.50 2.113184e-95
352.60 2.113184e-95
352.70 2.113184e-95
352.80 2.113184e-95
352.90 2.113184e-95
353.00 2.113184e-95
353.10 2.113184e-95
353.20 2.113184e-95
353.30 2.113184e-95
353.40 2.113184e-95
353.50 2.113184e-95
353.60 2.113184e-95
353.70 2.113184e-95
353.80 2.113184e-95
353.90 2.113184e-95
354.00 2.113184e-95
354.10 2.113184e-95
354.20 2.113184e-95
354.30 2.113184e-95
354.40 2.113184e-95
354.50 2.113184e-95
354.60 2.113184e-95
354.70 2.113184e-95
354.80 2.113184e-95
354.90 2.113184e-95
355.00 2.113184e-95
355.10 2.113184e-95
355.20 2.113184e-95
355.30 2.113184e-95
355.40 2.113184e-95
355.50 2.113184e-95
355.60 2.113184e-95
355.70 2.113184e-95
355.80 2.113184e-95
355.90 2.113184e-95
356.00 2.113184e-95
356.10 2.113184e-95
356.20 2.113184e-95
356.30 2.113184e-95
356.40 2.113184e-95
356.50 2.113184e-95
356.60 2.113184e-95
356.70 2.113184e-95
356.80 2.113184e-95
356.90 2.113184e-95
357.00 2.113184e-95
357.10 2.113184e-95
357.20 2.113184e-95
357.30 2.113184e-95
357.40 2.113184e-95
357.50 2.113184e-95
357.60 2.113184e-95
357.70 2.113184e-95
357.80 2.113184e-95
357.90 2.113184e-95
358.00 2.113184e-95
358.10 2.113184e-95
358.20 2.113184e-95
358.30 2.113184e-95
358.40 2.113184e-95
358.50 2.113184e-95
358.60 2.113184e-95
358.70 2.113184e-95
358.80 2.113184e-95
358.90 2.113184e-95
359.00 2.113184e-95
359.10 2.113184e-95
359.20 2.113184e-95
359.30 2.113184e-95
359.40 2.113184e-95
359.50 2.113184e-95
359.60 2.113184e-95
359.70 2.113184e-95
359.80 2.113184e-95
359.90 2.113184e-95
360.00 2.113184e-95
360.10 2.113184e-95
360.20 2.113184e-95
360.30 2.113184e-95
360.40 2.113184e-95
360.50 2.113184e-95
360.60 2.113184e-95
360.70 2.113184e-95
360.80 2.113184e-95
360.90 2.113184e-95
361.00 2.113184e-95
361.10 2.113184e-95
361.20 2.113184e-95
361.30 2.113184e-95
361.40 2.113184e-95
361.50 2.113184e-95
361.60 2.113184e-95
361.70 2.113184e-95
361.80 2.113184e-95
361.90 2.113184e-95
362.00 2.113184e-95
362.10 2.113184e-95
362.20 2.113184e-95
362.30 2.113184e-95
362.40 2.113184e-95
362.50 2.113184e-95
362.60 2.113184e-95
362.70 2.113184e-95
362.80 2.113184e-95
362.90 2.113184e-95
363.00 2.113184e-95
363.10 2.113184e-95
363.20 2.113184e-95
363.30 2.113184e-95
363.40 2.113184e-95
363.50 2.113184e-95
363.60 2.113184e-95
363.70 2.113184e-95
363.80 2.113184e-95
363.90 2.113184e-95
364.00 2.113184e-95
364.10 2.113184e-95
364.20 2.113184e-95
364.30 2.113184e-95
364.40 2.113184e-95
364.50 2.113184e-95
364.60 2.113184e-95
364.70 2.113184e-95
364.80 2.113184e-95
364.90 2.113184e-95
365.00 2.113184e-95
365.10 2.113184e-95
365.20 2.113184e-95
365.30 2.113184e-95
365.40 2.113184e-95
365.50 2.113184e-95
365.60 2.113184e-95
365.70 2.113184e-95
365.80 2.113184e-95
365.90 2.113184e-95
366.00 2.113184e-95
366.10 2.113184e-95
366.20 2.113184e-95
366.30 2.113184e-95
366.40 2.113184e-95
366.50 2.113184e-95
366.60 2.113184e-95
366.70 2.113184e-95
366.80 2.113184e-95
366.90 2.113184e-95
367.00 2.113184e-95
367.10 2.113184e-95
367.20 2.113184e-95
367.30 2.113184e-95
367.40 2.113184e-95
367.50 2.113184e-95
367.60 2.113184e-95
367.70 2.113184e-95
367.80 2.113184e-95
367.90 2.113184e-95
368.00 2.113184e-95
368.10 2.113184e-95
368.20 2.113184e-95
368.30 2.113184e-95
368.40 2.113184e-95
368.50 2.113184e-95
368.60 2.113184e-95
368.70 2.113184e-95
368.80 2.113184e-95
368.90 2.113184e-95
369.00 2.113184e-95
369.10 2.113184e-95
369.20 2.113184e-95
369.30 2.113184e-95
369.40 2.113184e-95
369.50 2.113184e-95
369.60 2.113184e-95
369.70 2.113184e-95
369.80 2.113184e-95
369.90 2.113184e-95
370.00 2.113184e-95
370.10 2.113184e-95
370.20 2.113184e-95
370.30 2.113184e-95
370.40 2.113184e-95
370.50 2.113184e-95
370.60 2.113184e-95
370.70 2.113184e-95
370.80 2.113184e-95
370.90 2.113184e-95
371.00 2.113184e-95
371.10 2.113184e-95
371.20 2.113184e-95
371.30 2.113184e-95
371.40 2.113184e-95
371.50 2.113184e-95
371.60 2.113184e-95
371.70 2.113184e-95
371.80 2.113184e-95
371.90 2.113184e-95
372.00 2.113184e-95
372.10 2.113184e-95
372.20 2.113184e-95
372.30 2.113184e-95
372.40 2.113184e-95
372.50 2.113184e-95
372.60 2.113184e-95
372.70 2.113184e-95
372.80 2.113184e-95
372.90 2.113184e-95
373.00 2.113184e-95
373.10 2.113184e-95
373.20 2.113184e-95
373.30 2.113184e-95
373.40 2.113184e-95
373.50 2.113184e-95
373.60 2.113184e-95
373.70 2.113184e-95
373.80 2.113184e-95
373.90 2.113184e-95
374.00 2.113184e-95
374.10 2.113184e-95
374.20 2.113184e-95
374.30 2.113184e-95
374.40 2.113184e-95
374.50 2.113184e-95
374.60 2.113184e-95
374.70 2.113184e-95
374.80 2.113184e-95
374.90 2.113184e-95
375.00 2.113184e-95
375.10 2.113184e-95
375.20 2.113184e-95
375.30 2.113184e-95
375.40 2.113184e-95
375.50 2.113184e-95
375.60 2.113184e-95
375.70 2.113184e-95
375.80 2.113184e-95
375.90 2.113184e-95
376.00 2.113184e-95
376.10 2.113184e-95
376.20 2.113184e-95
376.30 2.113184e-95
376.40 2.113184e-95
376.50 2.113184e-95
376.60 2.113184e-95
376.70 2.113184e-95
376.80 2.113184e-95
376.90 2.113184e-95
377.00 2.113184e-95
377.10 2.113184e-95
377.20 2.113184e-95
377.30 2.113184e-95
377.40 2.113184e-95
377.50 2.113184e-95
377.60 2.113184e-95
377.70 2.113184e-95
377.80 2.113184e-95
377.90 2.113184e-95
378.00 2.113184e-95
378.10 2.113184e-95
378.20 2.113184e-95
378.30 2.113184e-95
378.40 2.113184e-95
378.50 2.113184e-95
378.60 2.113184e-95
378.70 2.113184e-95
378.80 2.113184e-95
378.90 2.113184e-95
379.00 2.113184e-95
379.10 2.113184e-95
379.20 2.113184e-95
379.30 2.113184e-95
379.40 2.113184e-95
379.50 2.113184e-95
379.60 2.113184e-95
379.70 2.113184e-95
379.80 2.113184e-95
379.90 2.113184e-95
380.00 2.113184e-95
380.10 2.113184e-95
380.20 2.113184e-95
380.30 2.113184e-95
380.40 2.113184e-95
380.50 2.113184e-95
380.60 2.113184e-95
380.70 2.113184e-95
380.80 2.113184e-95
380.90 2.113184e-95
381.00 2.113184e-95
381.10 2.113184e-95
381.20 2.113184e-95
381.30 2.113184e-95
381.40 2.113184e-95
381.50 2.113184e-95
381.60 2.113184e-95
381.70 2.113184e-95
381.80 2.113184e-95
381.90 2.113184e-95
382.00 2.113184e-95
382.10 2.113184e-95
382.20 2.113184e-95
382.30 2.113184e-95
382.40 2.113184e-95
382.50 2.113184e-95
382.60 2.113184e-95
382.70 2.113184e-95
382.80 2.113184e-95
382.90 2.113184e-95
383.00 2.113184e-95
383.10 2.113184e-95
383.20 2.113184e-95
383.30 2.113184e-95
383.40 2.113184e-95
383.50 2.113184e-95
383.60 2.113184e-95
383.70 2.113184e-95
383.80 2.113184e-95
383.90 2.113184e-95
384.00 2.113184e-95
384.10 2.113184e-95
384.20 2.113184e-95
384.30 2.113184e-95
384.40 2.113184e-95
384.50 2.113184e-95
384.60 2.113184e-95
384.70 2.113184e-95
384.80 2.113184e-95
384.90 2.113184e-95
385.00 2.113184e-95
385.10 2.113184e-95
385.20 2.113184e-95
385.30 2.113184e-95
385.40 2.113184e-95
385.50 2.113184e-95
385.60 2.113184e-95
385.70 2.113184e-95
385.80 2.113184e-95
385.90 2.113184e-95
386.00 2.113184e-95
386.10 2.113184e-95
386.20 2.113184e-95
386.30 2.113184e-95
386.40 2.113184e-95
386.50 2.113184e-95
386.60 2.113184e-95
386.70 2.113184e-95
386.80 2.113184e-95
386.90 2.113184e-95
387.00 2.113184e-95
387.10 2.113184e-95
387.20 2.113184e-95
387.30 2.113184e-95
387.40 2.113184e-95
387.50 2.113184e-95
387.60 2.113184e-95
387.70 2.113184e-95
387.80 2.113184e-95
387.90 2.113184e-95
388.00 2.113184e-95
388.10 2.113184e-95
388.20 2.113184e-95
388.30 2.113184e-95
388.40 2.113184e-95
388.50 2.113184e-95
388.60 2.113184e-95
388.70 2.113184e-95
388.80 2.113184e-95
388.90 2.113184e-95
389.00 2.113184e-95
389.10 2.113184e-95
389.20 2.113184e-95
389.30 2.113184e-95
389.40 2.113184e-95
389.50 2.113184e-95
389.60 2.113184e-95
389.70 2.113184e-95
389.80 2.113184e-95
389.90 2.113184e-95
390.00 2.113184e-95
390.10 2.113184e-95
390.20 2.113184e-95
390.30 2.113184e-95
390.40 2.113184e-95
390.50 2.113184e-95
390.60 2.113184e-95
390.70 2.113184e-95
390.80 2.113184e-95
390.90 2.113184e-95
391.00 2.113184e-95
391.10 2.113184e-95
391.20 2.113184e-95
391.30 2.113184e-95
391.40 2.113184e-95
391.50 2.113184e-95
391.60 2.113184e-95
391.70 2.113184e-95
391.80 2.113184e-95
391.90 2.113184e-95
392.00 2.113184e-95
392.10 2.113184e-95
392.20 2.113184e-95
392.30 2.113184e-95
392.40 2.113184e-95
392.50 2.113184e-95
392.60 2.113184e-95
392.70 2.113184e-95
392.80 2.113184e-95
392.90 2.113184e-95
393.00 2.113184e-95
393.10 2.113184e-95
393.20 2.113184e-95
393.30 2.113184e-95
393.40 2.113184e-95
393.50 2.113184e-95
393.60 2.113184e-95
393.70 2.113184e-95
393.80 2.113184e-95
393.90 2.113184e-95
394.00 2.113184e-95
394.10 2.113184e-95
394.20 2.113184e-95
394.30 2.113184e-95
394.40 2.113184e-95
394.50 2.113184e-95
394.60 2.113184e-95
394.70 2.113184e-95
394.80 2.113184e-95
394.90 2.113184e-95
395.00 0.1234477
395.10 0.2326694
395.20 0.3269841
395.30 0.4058878
395.40 0.4699274
395.50 0.5221409
395.60 0.5679626
395.70 0.6129802
395.80 0.6607807
395.90 0.7127245
396.00 0.7688008
396.10 0.8284174
396.20 0.8899853
396.30 0.9501254
396.40 1.004392
396.50 1.046473
396.60 1.069539
396.70 1.072545
396.80 1.072545
396.90 1.072545
397.00 1.072545
397.10 1.072545
397.20 1.082528
397.30 1.110202
397.40 1.155276
397.50 1.215127
397.60 1.285784
397.70 1.365451
397.80 1.45301
397.90 1.546186
398.00 1.642398
398.10 1.737838
398.20 1.827488
398.30 1.906721
398.40 1.973079
398.50 2.027453
398.60 2.074554
398.70 2.1215
398.80 2.174233
398.90 2.236771
399.00 2.310267
399.10 2.390919
399.20 2.472066
399.30 2.545859
399.40 2.603132
399.50 2.636685
399.60 2.643111
399.70 2.643111
399.80 2.643111
399.90 2.643111
400.00 2.643111
400.10 2.643111
400.20 2.643111
400.30 2.643111
400.40 2.643111
400.50 2.643111
400.60 2.643111
400.70 2.654453
400.80 2.688615
400.90 2.740518
401.00 2.801984
401.10 2.866165
401.20 2.929365
401.30 2.989664
401.40 3.044469
401.50 3.091285
401.60 3.130669
401.70 3.166477
401.80 3.203268
401.90 3.244116
402.00 3.288759
402.10 3.333139
402.20 3.373439
402.30 3.407609
402.40 3.434868
402.50 3.456126
402.60 3.473691
402.70 3.490245
402.80 3.50752
402.90 3.526283
403.00 3.546448
403.10 3.566517
403.20 3.584923
403.30 3.600323
403.40 3.611367
403.50 3.619138
403.60 3.627874
403.70 3.642307
403.80 3.665594
403.90 3.697397
404.00 3.734392
404.10 3.773746
404.20 3.813143
404.30 3.849127
404.40 3.877316
404.50 3.895213
404.60 3.903868
404.70 3.906459
404.80 3.906574
404.90 3.906574
405.00 3.783126
405.10 3.673904
405.20 3.57959
405.30 3.500686
405.40 3.436646
405.50 3.384433
405.60 3.338611
405.70 3.293594
405.80 3.245793
405.90 3.193849
406.00 3.137773
406.10 3.078156
406.20 3.018751
406.30 2.971166
406.40 2.940619
406.50 2.932259
406.60 2.948937
406.70 2.985928
406.80 3.020339
406.90 3.043739
407.00 3.051954
407.10 3.051954
407.20 3.041971
407.30 3.014297
407.40 2.969222
407.50 2.909372
407.60 2.838715
407.70 2.759048
407.80 2.671489
407.90 2.578313
408.00 2.48947
408.10 2.409206
408.20 2.338894
408.30 2.278553
408.40 2.227185
408.50 2.183051
408.60 2.141304
408.70 2.095653
408.80 2.042919
408.90 1.981352
409.00 1.91133
409.10 1.838454
409.20 1.770984
409.30 1.71706
409.40 1.684829
409.50 1.680054
409.60 1.703942
409.70 1.733681
409.80 1.761394
409.90 1.785218
410.00 1.804632
410.10 1.821305
410.20 1.837736
410.30 1.857326
410.40 1.883728
410.50 1.919716
410.60 1.96621
410.70 2.009325
410.80 2.03219
410.90 2.034208
411.00 2.019156
411.10 1.99185
411.20 1.955755
411.30 1.913542
411.40 1.87038
411.50 1.833631
411.60 1.808248
411.70 1.794176
411.80 1.788253
411.90 1.785496
412.00 1.781053
412.10 1.773398
412.20 1.761638
412.30 1.744078
412.40 1.720199
412.50 1.698941
412.60 1.681376
412.70 1.664823
412.80 1.647547
412.90 1.628784
413.00 1.609762
413.10 1.598045
413.20 1.59323
413.30 1.592708
413.40 1.593935
413.50 1.593145
413.60 1.585163
413.70 1.57073
413.80 1.547444
413.90 1.515641
414.00 1.478645
414.10 1.439292
414.20 1.399894
414.30 1.363911
414.40 1.335722
414.50 1.317825
414.60 1.309169
414.70 1.306578
414.80 1.306464
414.90 1.306464
415.00 1.306464
415.10 1.306464
415.20 1.310145
415.30 1.321916
415.40 1.338387
415.50 1.354845
415.60 1.366502
415.70 1.369756
415.80 1.369756
415.90 1.369756
416.00 1.369756
416.10 1.369756
416.20 1.367594
416.30 1.355039
416.40 1.331319
416.50 1.297599
416.60 1.261462
416.70 1.229143
416.80 1.204381
416.90 1.19091
417.00 1.192277
417.10 1.20117
417.20 1.209059
417.30 1.216065
417.40 1.222275
417.50 1.227419
417.60 1.232202
417.70 1.238459
417.80 1.247408
417.90 1.258959
418.00 1.264495
418.10 1.262597
418.20 1.258618
418.30 1.261023
418.40 1.275821
418.50 1.303801
418.60 1.343362
418.70 1.39103
418.80 1.44124
418.90 1.489182
419.00 1.530505
419.10 1.561225
419.20 1.579564
419.30 1.587073
419.40 1.588444
419.50 1.589013
419.60 1.591553
419.70 1.594996
419.80 1.597612
419.90 1.599496
420.00 1.600419
420.10 1.59958
420.20 1.596808
420.30 1.591385
420.40 1.582153
420.50 1.56831
420.60 1.549211
420.70 1.526853
420.80 1.5055
420.90 1.487918
421.00 1.475354
421.10 1.466644
421.20 1.458355
421.30 1.44712
421.40 1.435477
421.50 1.425409
421.60 1.411409
421.70 1.389673
421.80 1.358805
421.90 1.320714
422.00 1.286879
422.10 1.266865
422.20 1.261061
422.30 1.268231
422.40 1.284084
422.50 1.29367
422.60 1.29367
422.70 1.29367
422.80 1.29367
422.90 1.29367
423.00 1.292527
423.10 1.284176
423.20 1.270584
423.30 1.255707
423.40 1.243436
423.50 1.241046
423.60 1.249217
423.70 1.26247
423.80 1.281389
423.90 1.308008
424.00 1.341954
424.10 1.380222
424.20 1.419451
424.30 1.457696
424.40 1.494162
424.50 1.527552
424.60 1.556088
424.70 1.578365
424.80 1.594071
424.90 1.604242
425.00 1.611114
425.10 1.617681
425.20 1.622486
425.30 1.622332
425.40 1.622024
425.50 1.626785
425.60 1.639609
425.70 1.66033
425.80 1.680128
425.90 1.694044
426.00 1.702358
426.10 1.707465
426.20 1.713528
426.30 1.724993
426.40 1.744878
426.50 1.773734
426.60 1.806748
426.70 1.841267
426.80 1.876617
426.90 1.911781
427.00 1.944853
427.10 1.973989
427.20 1.998046
427.30 2.016818
427.40 2.031602
427.50 2.044616
427.60 2.05662
427.70 2.06592
427.80 2.071001
427.90 2.07213
428.00 2.070723
428.10 2.067551
428.20 2.060608
428.30 2.046475
428.40 2.024834
428.50 1.99932
428.60 1.974323
428.70 1.952779
428.80 1.935314
428.90 1.920547
429.00 1.907658
429.10 1.896861
429.20 1.887622
429.30 1.87815
429.40 1.865563
429.50 1.847219
429.60 1.824048
429.70 1.800926
429.80 1.781396
429.90 1.766526
430.00 1.757226
430.10 1.753131
430.20 1.751184
430.30 1.747221
430.40 1.734933
430.50 1.712788
430.60 1.685393
430.70 1.653294
430.80 1.617621
430.90 1.581281
431.00 1.547432
431.10 1.519265
431.20 1.50045
431.30 1.493599
431.40 1.493599
431.50 1.493599
431.60 1.493599
431.70 1.493599
431.80 1.493599
431.90 1.493599
432.00 1.492708
432.10 1.490961
432.20 1.488347
432.30 1.483295
432.40 1.473976
432.50 1.46439
432.60 1.46439
432.70 1.46439
432.80 1.46439
432.90 1.46439
433.00 1.46439
433.10 1.46439
433.20 1.46439
433.30 1.46439
433.40 1.466847
433.50 1.477067
433.60 1.492805
433.70 1.509757
433.80 1.52105
433.90 1.519227
434.00 1.500304
434.10 1.464636
434.20 1.425408
434.30 1.387163
434.40 1.350696
434.50 1.317306
434.60 1.288771
434.70 1.267245
434.80 1.270927
434.90 1.297346
435.00 1.340529
435.10 1.392627
435.20 1.445636
435.30 1.492017
435.40 1.52519
435.50 1.540909
435.60 1.53868
435.70 1.52188
435.80 1.502082
435.90 1.488165
436.00 1.479852
436.10 1.474744
436.20 1.468682
436.30 1.457216
436.40 1.437332
436.50 1.408475
436.60 1.371854
436.70 1.329656
436.80 1.284657
436.90 1.239565
437.00 1.196911
437.10 1.158881
437.20 1.126936
437.30 1.101157
437.40 1.080164
437.50 1.07125
437.60 1.076125
437.70 1.092961
437.80 1.119544
437.90 1.15257
438.00 1.188227
438.10 1.222608
438.20 1.252159
438.30 1.273144
438.40 1.280485
438.50 1.269545
438.60 1.249627
438.70 1.222208
438.80 1.189463
438.90 1.155318
439.00 1.123409
439.10 1.09571
439.20 1.072933
439.30 1.055029
439.40 1.041201
439.50 1.030198
439.60 1.020516
439.70 1.010456
439.80 0.9996572
439.90 0.9888192
440.00 0.9894878
440.10 1.003792
440.20 1.030325
440.30 1.06463
440.40 1.102484
440.50 1.135397
440.60 1.15251
440.70 1.15251
440.80 1.15251
440.90 1.15251
441.00 1.15251
441.10 1.15251
441.20 1.15251
441.30 1.155774
441.40 1.164821
441.50 1.176392
441.60 1.188043
441.70 1.198124
441.80 1.205558
441.90 1.209907
442.00 1.205619
442.10 1.190656
442.20 1.170535
442.30 1.151806
442.40 1.141891
442.50 1.141891
442.60 1.141891
442.70 1.147688
442.80 1.165242
442.90 1.194728
443.00 1.233554
443.10 1.276864
443.20 1.318059
443.30 1.349938
443.40 1.364141
443.50 1.349329
443.60 1.324667
443.70 1.294461
443.80 1.264249
443.90 1.239453
444.00 1.224429
444.10 1.22183
444.20 1.22183
444.30 1.225208
444.40 1.238495
444.50 1.256107
444.60 1.273087
444.70 1.285704
444.80 1.274532
444.90 1.240292
445.00 1.190237
445.10 1.131571
445.20 1.070077
445.30 1.012079
445.40 0.9627423
445.50 0.9258051
445.60 0.9035534
445.70 0.8963779
445.80 0.8963779
445.90 0.8963779
446.00 0.8963779
446.10 0.8963779
446.20 0.8963779
446.30 0.8963779
446.40 0.8963779
446.50 0.8963779
446.60 0.8963779
446.70 0.8963779
446.80 0.8963779
446.90 0.8963779
447.00 0.8963779
447.10 0.8963779
447.20 0.8963779
447.30 0.901809
447.40 0.9114944
447.50 0.9133017
447.60 0.9017787
447.70 0.8779853
447.80 0.8456248
447.90 0.8098491
448.00 0.7757155
448.10 0.7474919
448.20 0.7283711
448.30 0.720423
448.40 0.7244609
448.50 0.7397847
448.60 0.7537646
448.70 0.7654823
448.80 0.7779139
448.90 0.7941872
449.00 0.8161169
449.10 0.8445803
449.20 0.8790706
449.30 0.9172683
449.40 0.9561191
449.50 0.9921194
449.60 1.021357
449.70 1.041098
449.80 1.051037
449.90 1.05241
450.00 1.040705
450.10 1.014661
450.20 0.9764152
450.30 0.9319069
450.40 0.8891704
450.50 0.8595512
450.60 0.8509412
450.70 0.8630515
450.80 0.8759408
450.90 0.8864529
451.00 0.8917896
451.10 0.8917896
451.20 0.8917896
451.30 0.8885249
451.40 0.8794785
451.50 0.8679077
451.60 0.8562559
451.70 0.8461757
451.80 0.838741
451.90 0.834392
452.00 0.8332056
452.10 0.8332056
452.20 0.8339936
452.30 0.8386829
452.40 0.8489944
452.50 0.8655386
452.60 0.8870466
452.70 0.9052657
452.80 0.9119537
452.90 0.9055927
453.00 0.8883335
453.10 0.8655526
453.20 0.8447505
453.30 0.8334286
453.40 0.8367367
453.50 0.8542406
453.60 0.8667107
453.70 0.8723261
453.80 0.872389
453.90 0.872389
454.00 0.872601
454.10 0.8778215
454.20 0.8894624
454.30 0.90361
454.40 0.9114238
454.50 0.9148022
454.60 0.9141672
454.70 0.9079189
454.80 0.8997032
454.90 0.8973529
455.00 0.8973529
455.10 0.8973529
455.20 0.8973529
455.30 0.8973529
455.40 0.8973529
455.50 0.9045959
455.60 0.9276154
455.70 0.9640679
455.80 1.007815
455.90 1.050845
456.00 1.086392
456.10 1.110384
456.20 1.120941
456.30 1.120941
456.40 1.120941
456.50 1.120941
456.60 1.120941
456.70 1.120941
456.80 1.120941
456.90 1.120941
457.00 1.120941
457.10 1.120941
457.20 1.120941
457.30 1.118499
457.40 1.113868
457.50 1.108787
457.60 1.105348
457.70 1.104646
457.80 1.105942
457.90 1.107085
458.00 1.105321
458.10 1.097789
458.20 1.082486
458.30 1.062286
458.40 1.04276
458.50 1.025671
458.60 1.011691
458.70 0.9999731
458.80 0.9875415
458.90 0.9712682
459.00 0.9493385
459.10 0.9234179
459.20 0.8943296
459.30 0.8625965
459.40 0.8291401
459.50 0.7962558
459.60 0.7678866
459.70 0.7481459
459.80 0.7382066
459.90 0.7368337
460.00 0.7368337
460.10 0.7368337
460.20 0.7368337
460.30 0.7368337
460.40 0.7368337
460.50 0.7335401
460.60 0.7250377
460.70 0.7129274
460.80 0.7000382
460.90 0.6895261
461.00 0.6841894
461.10 0.6841894
461.20 0.6841894
461.30 0.6841894
461.40 0.6841894
461.50 0.6841894
461.60 0.6841894
461.70 0.6841894
461.80 0.6841894
461.90 0.6841894
462.00 0.6841894
462.10 0.6841894
462.20 0.6834014
462.30 0.678712
462.40 0.6684005
462.50 0.6518564
462.60 0.6306739
462.70 0.6201434
462.80 0.6165359
462.90 0.6147387
463.00 0.6109328
463.10 0.602124
463.20 0.5860898
463.30 0.5655325
463.40 0.545564
463.50 0.5280601
463.60 0.51559
463.70 0.5099746
463.80 0.5099117
463.90 0.5125123
464.00 0.5191064
464.10 0.5233123
464.20 0.5209356
464.30 0.5106808
464.40 0.4944859
464.50 0.4763569
464.60 0.4613142
464.70 0.454194
464.80 0.454194
464.90 0.454194
465.00 0.454194
465.10 0.4572325
465.20 0.4656023
465.30 0.4793485
465.40 0.4969492
465.50 0.5087228
465.60 0.5036639
465.70 0.4812039
465.80 0.4444832
465.90 0.4014529
466.00 0.3659063
466.10 0.3419138
466.20 0.3313572
466.30 0.3313572
466.40 0.3322523
466.50 0.3412739
466.60 0.3562637
466.70 0.3725944
466.80 0.384489
466.90 0.3875065
467.00 0.3875065
467.10 0.3875065
467.20 0.3875065
467.30 0.384517
467.40 0.3794625
467.50 0.3734928
467.60 0.3667928
467.70 0.3588949
467.80 0.357381
467.90 0.3604556
468.00 0.3657222
468.10 0.3722626
468.20 0.3798997
468.30 0.3849272
468.40 0.3849272
468.50 0.3849272
468.60 0.3849272
468.70 0.3849272
468.80 0.3849272
468.90 0.3849272
469.00 0.3849272
469.10 0.3823845
469.20 0.3769825
469.30 0.3705178
469.40 0.3651235
469.50 0.3620074
469.60 0.3611386
469.70 0.3611386
469.80 0.3680839
469.90 0.3805925
470.00 0.3949501
470.10 0.4079642
470.20 0.4183364
470.30 0.4268222
470.40 0.434969
470.50 0.4434588
470.60 0.4523605
470.70 0.4630129
470.80 0.4776951
470.90 0.4977705
471.00 0.52277
471.10 0.5506741
471.20 0.5788584
471.30 0.6046535
471.40 0.6257359
471.50 0.6408238
471.60 0.6495073
471.70 0.6514839
471.80 0.6514839
471.90 0.6514839
472.00 0.6514839
472.10 0.6514839
472.20 0.6514839
472.30 0.6514839
472.40 0.6514839
472.50 0.6514839
472.60 0.6511583
472.70 0.6447258
472.80 0.6407023
472.90 0.6430833
473.00 0.6520632
473.10 0.6670442
473.20 0.6875932
473.30 0.7104849
473.40 0.7324942
473.50 0.7546928
473.60 0.7768703
473.70 0.797173
473.80 0.812257
473.90 0.8160372
474.00 0.8092311
474.10 0.7998047
474.20 0.7905405
474.30 0.7832695
474.40 0.7783631
474.50 0.7755015
474.60 0.7741997
474.70 0.7741997
474.80 0.7741997
474.90 0.7741997
475.00 0.7741997
475.10 0.7717639
475.20 0.7769168
475.30 0.7863502
475.40 0.7964686
475.50 0.804001
475.60 0.8068653
475.70 0.8052134
475.80 0.8010752
475.90 0.8010752
476.00 0.8010752
476.10 0.8010752
476.20 0.8010752
476.30 0.8010752
476.40 0.8001801
476.50 0.7911585
476.60 0.7761687
476.70 0.7617076
476.80 0.7593681
476.90 0.7700257
477.00 0.7835283
477.10 0.7934591
477.20 0.7974851
477.30 0.7974851
477.40 0.7974851
477.50 0.7974851
477.60 0.7974851
477.70 0.7980674
477.80 0.7952504
477.90 0.7907969
478.00 0.7886174
478.10 0.7919923
478.20 0.8028855
478.30 0.823332
478.40 0.8526411
478.50 0.8854133
478.60 0.9204209
478.70 0.9554109
478.80 0.9879055
478.90 1.015933
479.00 1.037717
479.10 1.052118
479.20 1.059314
479.30 1.060486
479.40 1.060486
479.50 1.060486
479.60 1.060486
479.70 1.060486
479.80 1.053541
479.90 1.041032
480.00 1.031006
480.10 1.027295
480.20 1.03003
480.30 1.035476
480.40 1.039582
480.50 1.041362
480.60 1.041936
480.70 1.041635
480.80 1.040087
480.90 1.038113
481.00 1.038082
481.10 1.043277
481.20 1.056715
481.30 1.079973
481.40 1.112999
481.50 1.154168
481.60 1.200654
481.70 1.249485
481.80 1.292625
481.90 1.324656
482.00 1.343354
482.10 1.348833
482.20 1.348833
482.30 1.348833
482.40 1.348833
482.50 1.348833
482.60 1.348833
482.70 1.34178
482.80 1.325169
482.90 1.30146
483.00 1.274719
483.10 1.248018
483.20 1.223111
483.30 1.200697
483.40 1.18159
483.50 1.165317
483.60 1.152203
483.70 1.144057
483.80 1.144676
483.90 1.158156
484.00 1.182378
484.10 1.209804
484.20 1.237635
484.30 1.262647
484.40 1.282092
484.50 1.293506
484.60 1.29489
484.70 1.29489
484.80 1.29489
484.90 1.29489
485.00 1.29489
485.10 1.294287
485.20 1.280764
485.30 1.257585
485.40 1.229866
485.50 1.203316
485.60 1.182492
485.70 1.174709
485.80 1.179188
485.90 1.186663
486.00 1.192051
486.10 1.194453
486.20 1.194619
486.30 1.194619
486.40 1.194619
486.50 1.194619
486.60 1.194619
486.70 1.192749
486.80 1.183194
486.90 1.169519
487.00 1.156016
487.10 1.146086
487.20 1.14206
487.30 1.14206
487.40 1.14206
487.50 1.14206
487.60 1.14206
487.70 1.141477
487.80 1.13626
487.90 1.126565
488.00 1.11222
488.10 1.095012
488.20 1.076588
488.30 1.054971
488.40 1.027824
488.50 0.995255
488.60 0.9602474
488.70 0.9252574
488.80 0.8927628
488.90 0.8660011
489.00 0.8472551
489.10 0.8377841
489.20 0.8370888
489.30 0.843485
489.40 0.8526479
489.50 0.8645319
489.60 0.8801573
489.70 0.9007829
489.80 0.9270285
489.90 0.9576571
490.00 0.9856968
490.10 1.008303
490.20 1.024906
490.30 1.036245
490.40 1.042861
490.50 1.044305
490.60 1.039569
490.70 1.029217
490.80 1.016084
490.90 0.9979821
491.00 0.9730141
491.10 0.939915
491.20 0.8982927
491.30 0.8492397
491.40 0.7951311
491.50 0.7388738
491.60 0.6837046
491.70 0.6339946
491.80 0.5964448
491.90 0.5734998
492.00 0.5662086
492.10 0.5736847
492.20 0.5876849
492.30 0.6023489
492.40 0.6169157
492.50 0.6306602
492.60 0.6438786
492.70 0.6575551
492.80 0.6729827
492.90 0.6915207
493.00 0.7131698
493.10 0.7360227
493.20 0.7585269
493.30 0.7795772
493.40 0.7967219
493.50 0.8099412
493.60 0.8207065
493.70 0.830009
493.80 0.8373945
493.90 0.8422702
494.00 0.8438129
494.10 0.8411945
494.20 0.834954
494.30 0.8266521
494.40 0.8177562
494.50 0.8100728
494.60 0.8086893
494.70 0.8086893
494.80 0.8086893
494.90 0.8086893
495.00 0.8086893
495.10 0.8086893
495.20 0.8086893
495.30 0.8086893
495.40 0.8086893
495.50 0.8086893
495.60 0.8086893
495.70 0.8041318
495.80 0.7967644
495.90 0.7892894
496.00 0.7839017
496.10 0.7814988
496.20 0.7813335
496.30 0.7813335
496.40 0.7813335
496.50 0.782172
496.60 0.7848717
496.70 0.7868224
496.80 0.7868224
496.90 0.7868224
497.00 0.7868224
497.10 0.7868224
497.20 0.7868224
497.30 0.7868224
497.40 0.7868224
497.50 0.7868224
497.60 0.7868224
497.70 0.7868224
497.80 0.7868224
497.90 0.7868224
498.00 0.7868224
498.10 0.7900278
498.20 0.7986678
498.30 0.8145877
498.40 0.8392756
498.50 0.8723505
498.60 0.910428
498.70 0.9500414
498.80 0.9866733
498.90 1.014588
499.00 1.030409
499.10 1.033945
499.20 1.028327
499.30 1.020758
499.40 1.011595
499.50 1.004669
499.60 1.002783
499.70 1.004634
499.80 1.006823
499.90 1.006051
500.00 1
500.10 0.9869376
500.20 0.9668352
500.30 0.9425376
500.40 0.9236676
500.50 0.9119544
500.60 0.9072143
500.70 0.9072143
500.80 0.9072143
500.90 0.9072143
501.00 0.9072143
501.10 0.9072143
501.20 0.9093996
501.30 0.9129764
501.40 0.9165996
501.50 0.918375
501.60 0.918375
501.70 0.9172778
501.80 0.9116868
501.90 0.9026016
502.00 0.8911938
502.10 0.8782396
502.20 0.8642394
502.30 0.8495754
502.40 0.8350086
502.50 0.8212641
502.60 0.8080456
502.70 0.7943691
502.80 0.7814536
502.90 0.766632
503.00 0.7473972
503.10 0.7245444
503.20 0.7020402
503.30 0.6805117
503.40 0.6604651
503.50 0.6413194
503.60 0.6214911
503.70 0.6000323
503.80 0.5769432
503.90 0.5522073
504.00 0.5264424
504.10 0.5016347
504.20 0.480044
504.30 0.4633338
504.40 0.452785
504.50 0.4490541
504.60 0.4490541
504.70 0.4490541
504.80 0.4490541
504.90 0.4490541
505.00 0.4490541
505.10 0.4490541
505.20 0.4517757
505.30 0.4604014
505.40 0.4719675
505.50 0.484436
505.60 0.496771
505.70 0.508546
505.80 0.5200669
505.90 0.5329696
506.00 0.5496353
506.10 0.5714041
506.20 0.598288
506.30 0.6284449
506.40 0.6582886
506.50 0.6841273
506.60 0.7034349
506.70 0.718295
506.80 0.7302028
506.90 0.7374261
507.00 0.7399624
507.10 0.7399624
507.20 0.7399624
507.30 0.7399624
507.40 0.7399624
507.50 0.7399624
507.60 0.7399624
507.70 0.7399624
507.80 0.7399624
507.90 0.7414085
508.00 0.7442994
508.10 0.7438481
508.20 0.736549
508.30 0.7224602
508.40 0.7025581
508.50 0.6779142
508.60 0.6507373
508.70 0.6242857
508.80 0.6023459
508.90 0.5891903
509.00 0.5878918
509.10 0.5980761
509.20 0.6156998
509.30 0.6331598
509.40 0.6494366
509.50 0.6596452
509.60 0.6599076
509.70 0.6498049
509.80 0.6310823
509.90 0.6070625
510.00 0.5816949
510.10 0.5628477
510.20 0.5532401
510.30 0.5522673
510.40 0.5522673
510.50 0.5522673
510.60 0.5522673
510.70 0.5522673
510.80 0.5522673
510.90 0.5522673
511.00 0.5522673
511.10 0.5522673
511.20 0.550082
511.30 0.5479927
511.40 0.5457464
511.50 0.5439709
511.60 0.5439709
511.70 0.5439709
511.80 0.5439709
511.90 0.5439709
512.00 0.5439709
512.10 0.5439709
512.20 0.5439709
512.30 0.5439709
512.40 0.5439709
512.50 0.5514954
512.60 0.5677785
512.70 0.5907341
512.80 0.6150232
512.90 0.6390877
513.00 0.6630137
513.10 0.6862296
513.20 0.7044436
513.30 0.7152125
513.40 0.7167449
513.50 0.7167449
513.60 0.7167449
513.70 0.7167449
513.80 0.7167449
513.90 0.7167449
514.00 0.7167449
514.10 0.7167449
514.20 0.7183481
514.30 0.7311289
514.40 0.7529349
514.50 0.7793944
514.60 0.8055242
514.70 0.8267834
514.80 0.840216
514.90 0.8454058
515.00 0.8454058
515.10 0.8454058
515.20 0.8426842
515.30 0.8340585
515.40 0.8224925
515.50 0.8100239
515.60 0.7976889
515.70 0.7859139
515.80 0.774393
515.90 0.7614903
516.00 0.7448246
516.10 0.7230558
516.20 0.6961719
516.30 0.6662363
516.40 0.6388794
516.50 0.6180993
516.60 0.6055685
516.70 0.6006079
516.80 0.6015126
516.90 0.6064906
517.00 0.6132794
517.10 0.6176106
517.20 0.6176106
517.30 0.6176106
517.40 0.6176106
517.50 0.6176106
517.60 0.6176106
517.70 0.6176106
517.80 0.6176106
517.90 0.6161645
518.00 0.6183457
518.10 0.6231033
518.20 0.6276629
518.30 0.6287138
518.40 0.6235795
518.50 0.6149456
518.60 0.604045
518.70 0.5908832
518.80 0.5761912
518.90 0.5601666
519.00 0.5472504
519.10 0.5362418
519.20 0.526198
519.30 0.5162934
519.40 0.5058503
519.50 0.4950544
519.60 0.4857001
519.70 0.4811155
519.80 0.4857248
519.90 0.5032412
520.00 0.5356312
520.10 0.5788453
520.20 0.6300266
520.30 0.6849774
520.40 0.7379183
520.50 0.7833961
520.60 0.8182538
520.70 0.8421184
520.80 0.8565586
520.90 0.8644968
521.00 0.8695184
521.10 0.8751096
521.20 0.8834062
521.30 0.8932769
521.40 0.9047407
521.50 0.915779
521.60 0.9223326
521.70 0.9242264
521.80 0.924461
521.90 0.9272593
522.00 0.935758
522.10 0.9513311
522.20 0.9735737
522.30 1.00109
522.40 1.03167
522.50 1.055096
522.60 1.068087
522.70 1.071283
522.80 1.066633
522.90 1.057235
523.00 1.046206
523.10 1.03558
523.20 1.02723
523.30 1.024117
523.40 1.028851
523.50 1.03467
523.60 1.041584
523.70 1.050834
523.80 1.062318
523.90 1.074668
524.00 1.086181
524.10 1.095901
524.20 1.102214
524.30 1.095636
524.40 1.078091
524.50 1.053839
524.60 1.028216
524.70 1.006957
524.80 0.9935245
524.90 0.9883347
525.00 0.9883347
525.10 0.9883347
525.20 0.989426
525.30 0.9937297
525.40 1.001538
525.50 1.01141
525.60 1.021701
525.70 1.031581
525.80 1.041423
525.90 1.052395
526.00 1.065316
526.10 1.080225
526.20 1.096776
526.30 1.113947
526.40 1.128971
526.50 1.140437
526.60 1.147994
526.70 1.152997
526.80 1.158
526.90 1.166362
527.00 1.181857
527.10 1.207047
527.20 1.239913
527.30 1.272816
527.40 1.301565
527.50 1.322373
527.60 1.331909
527.70 1.331909
527.80 1.331909
527.90 1.331909
528.00 1.326837
528.10 1.317887
528.20 1.308337
528.30 1.301597
528.40 1.299783
528.50 1.299783
528.60 1.299783
528.70 1.302832
528.80 1.316224
528.90 1.33611
529.00 1.352836
529.10 1.363376
529.20 1.366115
529.30 1.360214
529.40 1.35438
529.50 1.35001
529.60 1.345362
529.70 1.337574
529.80 1.323252
529.90 1.299899
530.00 1.266557
530.10 1.223343
530.20 1.172162
530.30 1.117211
530.40 1.06427
530.50 1.019934
530.60 0.9941489
530.70 0.9854337
530.80 0.9900927
530.90 1.003091
531.00 1.018447
531.10 1.029427
531.20 1.031035
531.30 1.021671
531.40 1.00883
531.50 0.9977922
531.60 0.9912386
531.70 0.9893449
531.80 0.9891102
531.90 0.9863119
532.00 0.9819935
532.10 0.9787443
532.20 0.9743278
532.30 0.9657777
532.40 0.9508009
532.50 0.9300896
532.60 0.9057312
532.70 0.8806772
532.80 0.8587516
532.90 0.8431583
533.00 0.8355337
533.10 0.8355966
533.20 0.841146
533.30 0.8479739
533.40 0.8518673
533.50 0.8501289
533.60 0.843215
533.70 0.833965
533.80 0.8224811
533.90 0.8101307
534.00 0.7986174
534.10 0.7894254
534.20 0.7838982
534.30 0.7801994
534.40 0.7767064
534.50 0.7744993
534.60 0.7739921
534.70 0.7739921
534.80 0.7739921
534.90 0.7739921
535.00 0.7739921
535.10 0.7739921
535.20 0.7729009
535.30 0.7685971
535.40 0.760789
535.50 0.750917
535.60 0.740626
535.70 0.730746
535.80 0.7209036
535.90 0.709932
536.00 0.6970106
536.10 0.6821019
536.20 0.6655509
536.30 0.6481585
536.40 0.6306482
536.50 0.6132847
536.60 0.5962512
536.70 0.5793983
536.80 0.5624382
536.90 0.5427375
537.00 0.5179172
537.10 0.4883963
537.20 0.4555301
537.30 0.422627
537.40 0.3938782
537.50 0.3730702
537.60 0.3645925
537.70 0.3728862
537.80 0.3865308
537.90 0.4032946
538.00 0.4225012
538.10 0.444707
538.20 0.4705196
538.30 0.5000641
538.40 0.5325046
538.50 0.5661426
538.60 0.598956
538.70 0.6255152
538.80 0.6362926
538.90 0.6346903
539.00 0.6278006
539.10 0.6236048
539.20 0.629115
539.30 0.6484893
539.40 0.6735381
539.50 0.7010061
539.60 0.7282451
539.70 0.7521301
539.80 0.7696175
539.90 0.7789319
540.00 0.7803868
540.10 0.7803868
540.20 0.7803868
540.30 0.7803868
540.40 0.7866364
540.50 0.8019401
540.60 0.818945
540.70 0.8353835
540.80 0.8469131
540.90 0.8496049
541.00 0.8418694
541.10 0.8252983
541.20 0.815393
541.30 0.8133989
541.40 0.8133989
541.50 0.8133989
541.60 0.8133989
541.70 0.8149461
541.80 0.8277447
541.90 0.8480221
542.00 0.8661947
542.10 0.8741569
542.20 0.8714483
542.30 0.8595579
542.40 0.8439545
542.50 0.8337157
542.60 0.8288
542.70 0.8277021
542.80 0.8274765
542.90 0.8246863
543.00 0.8169998
543.10 0.8052695
543.20 0.7942048
543.30 0.7854634
543.40 0.7812549
543.50 0.782567
543.60 0.7866959
543.70 0.7890175
543.80 0.7890497
543.90 0.7890497
544.00 0.7890497
544.10 0.7885227
544.20 0.7861337
544.30 0.7836296
544.40 0.7828609
544.50 0.7828609
544.60 0.7828609
544.70 0.7828609
544.80 0.7828609
544.90 0.7828609
545.00 0.7831936
545.10 0.7899578
545.20 0.7996538
545.30 0.8084357
545.40 0.8140321
545.50 0.8159735
545.60 0.8159735
545.70 0.8159735
545.80 0.8159735
545.90 0.8176501
546.00 0.8226555
546.10 0.8302149
546.20 0.8392182
546.30 0.8486115
546.40 0.8575268
546.50 0.8659311
546.60 0.87557
546.70 0.8893172
546.80 0.9082391
546.90 0.9332106
547.00 0.9644337
547.10 1.000748
547.20 1.041357
547.30 1.08501
547.40 1.130441
547.50 1.176298
547.60 1.219922
547.70 1.254094
547.80 1.280987
547.90 1.303791
548.00 1.323964
548.10 1.340878
548.20 1.353278
548.30 1.360352
548.40 1.361826
548.50 1.357371
548.60 1.347371
548.70 1.33439
548.80 1.322344
548.90 1.313839
549.00 1.308575
549.10 1.30405
549.20 1.297482
549.30 1.28848
549.40 1.27846
549.50 1.269066
549.60 1.262627
549.70 1.262377
549.80 1.271338
549.90 1.291375
550.00 0.5303284
550.10 0.6188101
550.20 0.70946
550.30 0.8042376
550.40 0.9029362
550.50 1.004094
550.60 1.105478
550.70 1.205839
550.80 1.307103
550.90 1.406023
551.00 1.504471
551.10 1.602272
551.20 1.697803
551.30 1.789349
551.40 1.874134
551.50 1.947093
551.60 2.004127
551.70 2.045694
551.80 2.076004
551.90 2.100448
552.00 2.122657
552.10 2.129403
552.20 2.130519
552.30 2.138632
552.40 2.162212
552.50 2.202546
552.60 2.254544
552.70 2.313633
552.80 2.379755
552.90 2.448939
553.00 2.518189
553.10 2.587935
553.20 2.656315
553.30 2.718954
553.40 2.770558
553.50 2.805298
553.60 2.814217
553.70 2.786361
553.80 2.736918
553.90 2.672332
554.00 2.594274
554.10 2.503487
554.20 2.401966
554.30 2.315963
554.40 2.260554
554.50 2.233311
554.60 2.225726
554.70 2.225133
554.80 2.217519
554.90 2.191698
555.00 2.144971
555.10 2.0838
555.20 2.023688
555.30 1.978046
555.40 1.9396
555.50 1.899821
555.60 1.859346
555.70 1.81778
555.80 1.787469
555.90 1.763025
556.00 1.739984
556.10 1.732547
556.20 1.755783
556.30 1.809332
556.40 1.882876
556.50 1.961067
556.60 2.023664
556.70 2.051852
556.80 2.049489
556.90 2.026119
557.00 1.983264
557.10 1.92615
557.20 1.862442
557.30 1.801119
557.40 1.749942
557.50 1.715492
557.60 1.705552
557.70 1.72876
557.80 1.772934
557.90 1.8402
558.00 1.935441
558.10 2.05997
558.20 2.211909
558.30 2.362337
558.40 2.489777
558.50 2.588662
558.60 2.659164
558.70 2.705141
558.80 2.734132
558.90 2.755482
559.00 2.774294
559.10 2.790875
559.20 2.797607
559.30 2.78897
559.40 2.782773
559.50 2.798693
559.60 2.841847
559.70 2.910367
559.80 2.983325
559.90 3.055136
560.00 3.123022
560.10 3.172521
560.20 3.191139
560.30 3.180302
560.40 3.150688
560.50 3.117558
560.60 3.098479
560.70 3.105309
560.80 3.125441
560.90 3.139995
561.00 3.140321
561.10 3.122908
561.20 3.095728
561.30 3.070929
561.40 3.048213
561.50 3.026912
561.60 3.003836
561.70 2.974116
561.80 2.929942
561.90 2.862676
562.00 2.767434
562.10 2.642905
562.20 2.490966
562.30 2.327638
562.40 2.170099
562.50 2.024193
562.60 1.893674
562.70 1.780223
562.80 1.681513
562.90 1.59379
563.00 1.523256
563.10 1.470045
563.20 1.427894
563.30 1.390628
563.40 1.363441
563.50 1.343039
563.60 1.325463
563.70 1.306264
563.80 1.281215
563.90 1.247036
564.00 1.200393
564.10 1.138446
564.20 1.071235
564.30 0.9984553
564.40 0.9169529
564.50 0.826706
564.60 0.7311902
564.70 0.6370826
564.80 0.5531931
564.90 0.4886318
565.00 0.4493981
565.10 0.4352804
565.20 0.4458083
565.30 0.4618977
565.40 0.4750352
565.50 0.4779901
565.60 0.4779901
565.70 0.4779901
565.80 0.4800564
565.90 0.496973
566.00 0.5336691
566.10 0.5946512
566.20 0.6797947
566.30 0.7733701
566.40 0.8594233
566.50 0.9354797
566.60 1.005621
566.70 1.080372
566.80 1.174303
566.90 1.300822
567.00 1.455131
567.10 1.628975
567.20 1.817368
567.30 2.012564
567.40 2.190052
567.50 2.334403
567.60 2.439133
567.70 2.506519
567.80 2.545165
567.90 2.566063
568.00 2.577283
568.10 2.582151
568.20 2.582151
568.30 2.582151
568.40 2.582151
568.50 2.582151
568.60 2.582151
568.70 2.582151
568.80 2.582151
568.90 2.582151
569.00 2.582151
569.10 2.582151
569.20 2.581375
569.30 2.580425
569.40 2.583069
569.50 2.59314
569.60 2.600418
569.70 2.600418
569.80 2.598352
569.90 2.581435
570.00 2.544739
570.10 2.483757
570.20 2.398614
570.30 2.294808
570.40 2.180686
570.50 2.064252
570.60 1.950007
570.70 1.837159
570.80 1.729331
570.90 1.621171
571.00 1.503395
571.10 1.372307
571.20 1.230241
571.30 1.08555
571.40 0.9504186
571.50 0.8373996
571.60 0.7532943
571.70 0.6975395
571.80 0.6656035
571.90 0.6526699
572.00 0.6558386
572.10 0.6731119
572.20 0.6889897
572.30 0.6935343
572.40 0.6935343
572.50 0.6935343
572.60 0.6935343
572.70 0.6935343
572.80 0.6935343
572.90 0.6935343
573.00 0.6935343
573.10 0.6935343
573.20 0.683782
573.30 0.6686429
573.40 0.6528605
573.50 0.6398355
573.60 0.6325568
573.70 0.6398522
573.80 0.6654738
573.90 0.7034298
574.00 0.7455299
574.10 0.7838179
574.20 0.8131916
574.30 0.832194
574.40 0.842087
574.50 0.8450714
574.60 0.8450714
574.70 0.8450714
574.80 0.8349555
574.90 0.8098727
575.00 0.7733394
575.10 0.7305835
575.20 0.6842569
575.30 0.6337516
575.40 0.5784387
575.50 0.5184094
575.60 0.455648
575.70 0.3946947
575.80 0.3400752
575.90 0.2944787
576.00 0.2588474
576.10 0.2454678
576.20 0.2527611
576.30 0.2724777
576.40 0.2887631
576.50 0.2902896
576.60 0.2902896
576.70 0.2902896
576.80 0.2902896
576.90 0.2902896
577.00 0.2902896
577.10 0.2911631
577.20 0.3269922
577.30 0.3960791
577.40 0.4942869
577.50 0.6162447
577.60 0.7544876
577.70 0.8940191
577.80 1.017004
577.90 1.124065
578.00 1.219814
578.10 1.310587
578.20 1.400786
578.30 1.48906
578.40 1.570781
578.50 1.642121
578.60 1.698597
578.70 1.737544
578.80 1.758923
578.90 1.762641
579.00 1.762641
579.10 1.762641
579.20 1.762641
579.30 1.762641
579.40 1.762641
579.50 1.762641
579.60 1.762641
579.70 1.776725
579.80 1.805603
579.90 1.842827
580.00 1.880949
580.10 1.900187
580.20 1.896997
580.30 1.878073
580.40 1.861788
580.50 1.860262
580.60 1.860262
580.70 1.860262
580.80 1.86135
580.90 1.871853
581.00 1.89143
581.10 1.918469
581.20 1.916645
581.30 1.883389
581.40 1.818117
581.50 1.722092
581.60 1.598704
581.70 1.453029
581.80 1.304423
581.90 1.159406
582.00 1.021557
582.10 0.8924958
582.20 0.7729223
582.30 0.6656461
582.40 0.5789888
582.50 0.5128646
582.60 0.4611078
582.70 0.422161
582.80 0.4007818
582.90 0.3970642
583.00 0.3970642
583.10 0.3970642
583.20 0.4052472
583.30 0.4332344
583.40 0.4804276
583.50 0.5425571
583.60 0.6129204
583.70 0.6710866
583.80 0.7125245
583.90 0.7418621
584.00 0.7662696
584.10 0.7934569
584.20 0.8286913
584.30 0.8736552
584.40 0.9182534
584.50 0.9578994
584.60 0.99328
584.70 1.024895
584.80 1.054938
584.90 1.079479
585.00 1.101131
585.10 1.120043
585.20 1.134858
585.30 1.143816
585.40 1.14439
585.50 1.132904
585.60 1.11805
585.70 1.116898
585.80 1.116898
585.90 1.116898
586.00 1.116898
586.10 1.116898
586.20 1.116898
586.30 1.116898
586.40 1.111941
586.50 1.103741
586.60 1.099021
586.70 1.099021
586.80 1.099021
586.90 1.099021
587.00 1.099021
587.10 1.099021
587.20 1.090838
587.30 1.062851
587.40 1.015658
587.50 0.9535286
587.60 0.8831652
587.70 0.8109156
587.80 0.7405992
587.90 0.6740376
588.00 0.6115085
588.10 0.5525521
588.20 0.4985035
588.30 0.4627188
588.40 0.4362272
588.50 0.4091218
588.60 0.3767684
588.70 0.3451537
588.80 0.3140215
588.90 0.2789778
589.00 0.237749
589.10 0.1909246
589.20 0.1421047
589.30 0.1061179
589.40 0.08193425
589.50 0.06866274
589.60 0.06866274
589.70 0.06866274
589.80 0.06866274
589.90 0.06866274
590.00 0.06866274
590.10 0.06866274
590.20 0.06866274
590.30 0.06866274
590.40 0.06866274
590.50 0.06866274
590.60 0.09014888
590.70 0.1458212
590.80 0.2248307
590.90 0.3098542
591.00 0.3821289
591.10 0.4255817
591.20 0.4304515
591.30 0.4304515
591.40 0.4304515
591.50 0.4304515
591.60 0.4304515
591.70 0.4304515
591.80 0.4304515
591.90 0.4304515
592.00 0.4304515
592.10 0.4304515
592.20 0.4292846
592.30 0.4147677
592.40 0.4139971
592.50 0.4402728
592.60 0.4914138
592.70 0.5518493
592.80 0.6106638
592.90 0.6630786
593.00 0.7062372
593.10 0.7383838
593.20 0.7578179
593.30 0.7560665
593.40 0.7467409
593.50 0.7466713
593.60 0.7574418
593.70 0.7818212
593.80 0.8207085
593.90 0.8733391
594.00 0.9361989
594.10 1.00272
594.20 1.065151
594.30 1.116399
594.40 1.152341
594.50 1.173199
594.60 1.160568
594.70 1.105862
594.80 1.026853
594.90 0.9418294
595.00 0.8695547
595.10 0.8261019
595.20 0.8280478
595.30 0.8382448
595.40 0.8447256
595.50 0.8447256
595.60 0.8447256
595.70 0.8447256
595.80 0.8447256
595.90 0.8447256
596.00 0.8447256
596.10 0.8447256
596.20 0.8447256
596.30 0.8520254
596.40 0.8737306
596.50 0.8999962
596.60 0.9262743
596.70 0.9518836
596.80 0.9772583
596.90 1.000949
597.00 1.020172
597.10 1.031162
597.20 1.0332
597.30 1.027696
597.40 1.027696
597.50 1.02659
597.60 1.015819
597.70 0.99144
597.80 0.9525527
597.90 0.9053755
598.00 0.8529332
598.10 0.7964666
598.20 0.7392008
598.30 0.6879526
598.40 0.6520113
598.50 0.6311525
598.60 0.633025
598.70 0.6667897
598.80 0.7304902
598.90 0.8195952
599.00 0.9204322
599.10 1.014365
599.20 1.078405
599.30 1.106518
599.40 1.104018
599.50 1.104018
599.60 1.104018
599.70 1.104018
599.80 1.104018
599.90 1.104018
600.00 0.4166976
600.10 0.4021785
600.20 0.2066132
600.30 0
600.40 0
600.50 0
600.60 0.4291002
600.70 1.389246
600.80 2.54802
600.90 3.564202
601.00 4.033477
601.10 3.757331
601.20 2.834201
601.30 1.53241
601.40 0.1592197
601.50 0
601.60 0
601.70 0
601.80 0
601.90 0
602.00 0
602.10 0
602.20 0
602.30 0
602.40 0
602.50 0
602.60 0
602.70 0
602.80 0
602.90 0
603.00 0
603.10 0
603.20 0
603.30 1.022346
603.40 2.287473
603.50 3.355424
603.60 3.992587
603.70 4.198
603.80 4.08126
603.90 3.750811
604.00 3.293317
604.10 2.838246
604.20 2.570426
604.30 2.574546
604.40 2.735745
604.50 2.823694
604.60 2.649701
604.70 2.182117
604.80 1.545672
604.90 0.9716778
605.00 0.610118
605.10 0.4163905
605.20 0.2645576
605.30 0.055341
605.40 0
605.50 0
605.60 0
605.70 0
605.80 0
605.90 0
606.00 0
606.10 0
606.20 0
606.30 0.4563594
606.40 1.241478
606.50 1.825578
606.60 2.179807
606.70 2.348493
606.80 2.333389
606.90 2.067754
607.00 1.574157
607.10 0.9964045
607.20 0.5271273
607.30 0.3409673
607.40 0.5021683
607.50 0.9599391
607.60 1.644061
607.70 2.444641
607.80 3.28729
607.90 4.111449
608.00 4.796393
608.10 5.196353
608.20 5.254578
608.30 5.025498
608.40 4.582166
608.50 3.995796
608.60 3.332668
608.70 2.676795
608.80 2.155835
608.90 1.856538
609.00 1.74952
609.10 1.756807
609.20 1.752304
609.30 1.588244
609.40 1.186417
609.50 0.6315317
609.60 0.0618114
609.70 0
609.80 0
609.90 0
610.00 0
610.10 0
610.20 0
610.30 0
610.40 0
610.50 0
610.60 0
610.70 0.1954371
610.80 0.5354217
610.90 0.9100945
611.00 1.225838
611.10 1.465217
611.20 1.696445
611.30 1.918048
611.40 2.070619
611.50 2.132152
611.60 2.077319
611.70 1.890797
611.80 1.641015
611.90 1.496342
612.00 1.568009
612.10 1.826256
612.20 2.11023
612.30 2.268806
612.40 2.262091
612.50 2.057142
612.60 1.630032
612.70 1.012719
612.80 0.3115343
612.90 0
613.00 0
613.10 0
613.20 0.4248032
613.30 1.4984
613.40 2.52602
613.50 3.251483
613.60 3.577031
613.70 3.477097
613.80 2.978772
613.90 2.252601
614.00 1.523615
614.10 0.959954
614.20 0.6539318
614.30 0.5841817
614.40 0.6759791
614.50 0.8993983
614.60 1.240037
614.70 1.68672
614.80 2.231223
614.90 2.881637
615.00 3.66933
615.10 4.571392
615.20 5.469564
615.30 6.174897
615.40 6.557444
615.50 6.656084
615.60 6.579591
615.70 6.422932
615.80 6.218873
615.90 5.929516
616.00 5.527845
616.10 5.06877
616.20 4.64816
616.30 4.330425
616.40 4.112225
616.50 3.96385
616.60 3.901462
616.70 3.957191
616.80 4.101703
616.90 4.248897
617.00 4.302291
617.10 4.197704
617.20 3.978419
617.30 3.817448
617.40 3.923422
617.50 4.380098
617.60 5.112949
617.70 5.890799
617.80 6.454177
617.90 6.658416
618.00 6.432259
618.10 5.826863
618.20 5.020536
618.30 4.191479
618.40 3.485503
618.50 3.031841
618.60 2.85998
618.70 2.820599
618.80 2.702482
618.90 2.423886
619.00 2.031948
619.10 1.644754
619.20 1.348413
619.30 1.151089
619.40 1.007982
619.50 0.8253045
619.60 0.5297923
619.70 0.1722434
619.80 0
619.90 0
620.00 0
620.10 0
620.20 0
620.30 0.1541612
620.40 0.6799583
620.50 1.18264
620.60 1.625583
620.70 2.07039
620.80 2.565823
620.90 3.14013
621.00 3.793738
621.10 4.374421
621.20 4.720811
621.30 4.842848
621.40 4.809292
621.50 4.67689
621.60 4.520442
621.70 4.443515
621.80 4.446904
621.90 4.483192
622.00 4.463985
622.10 4.239129
622.20 3.770614
622.30 3.074574
622.40 2.191777
622.50 1.268459
622.60 0.4925116
622.70 0.00288848
622.80 0
622.90 0.1143939
623.00 0.5942316
623.10 1.119566
623.20 1.545252
623.30 1.806889
623.40 1.909771
623.50 1.913367
623.60 1.858598
623.70 1.761577
623.80 1.632062
623.90 1.524718
624.00 1.536341
624.10 1.727727
624.20 2.077133
624.30 2.508923
624.40 2.904109
624.50 3.133197
624.60 3.078071
624.70 2.723601
624.80 2.193342
624.90 1.640255
625.00 1.160139
625.10 0.8604584
625.20 0.8748841
625.30 1.207409
625.40 1.743964
625.50 2.347824
625.60 2.943781
625.70 3.470318
625.80 3.843528
625.90 4.031259
626.00 4.100349
626.10 4.077336
626.20 3.859664
626.30 3.442312
626.40 2.997924
626.50 2.693508
626.60 2.592832
626.70 2.715816
626.80 3.046671
626.90 3.442117
627.00 3.663457
627.10 3.594329
627.20 3.29355
627.30 2.88127
627.40 2.463776
627.50 2.146871
627.60 2.081693
627.70 2.306365
627.80 2.727347
627.90 3.208209
628.00 3.596424
628.10 3.793353
628.20 3.78845
628.30 3.713689
628.40 3.728501
628.50 3.886339
628.60 4.153873
628.70 4.386026
628.80 4.399128
628.90 4.108817
629.00 3.528911
629.10 2.754301
629.20 1.943112
629.30 1.237706
629.40 0.7483483
629.50 0.6942493
629.60 1.186021
629.70 2.030311
629.80 2.910025
629.90 3.529166
630.00 3.726865
630.10 3.557474
630.20 3.270328
630.30 3.097468
630.40 3.112432
630.50 3.161617
630.60 3.084843
630.70 2.965493
630.80 2.950953
630.90 3.015321
631.00 3.120793
631.10 3.354201
631.20 3.806215
631.30 4.488459
631.40 5.294945
631.50 6.045785
631.60 6.545676
631.70 6.717725
631.80 6.614182
631.90 6.435891
632.00 6.37798
632.10 6.495951
632.20 6.812785
632.30 7.26168
632.40 7.716345
632.50 8.058586
632.60 8.189617
632.70 8.098893
632.80 7.870594
632.90 7.616822
633.00 7.366145
633.10 7.015321
633.20 6.475032
633.30 5.793729
633.40 5.077809
633.50 4.397998
633.60 3.802168
633.70 3.34915
633.80 3.04986
633.90 2.884028
634.00 2.867695
634.10 2.992309
634.20 3.177814
634.30 3.359446
634.40 3.564417
634.50 3.884763
634.60 4.422429
634.70 5.181711
634.80 6.073901
634.90 6.942668
635.00 7.607926
635.10 7.912245
635.20 7.728528
635.30 7.043626
635.40 5.99558
635.50 4.828499
635.60 3.838887
635.70 3.26118
635.80 3.173676
635.90 3.565678
636.00 4.311829
636.10 5.156276
636.20 5.880462
636.30 6.38585
636.40 6.616522
636.50 6.569524
636.60 6.364813
636.70 6.159611
636.80 5.992677
636.90 5.778012
637.00 5.429812
637.10 4.981535
637.20 4.544633
637.30 4.179231
637.40 4.007412
637.50 4.255807
637.60 4.962833
637.70 5.931461
637.80 6.908911
637.90 7.659527
638.00 7.993608
638.10 7.802709
638.20 7.170563
638.30 6.356806
638.40 5.605358
638.50 5.028824
638.60 4.691006
638.70 4.636992
638.80 4.804473
638.90 5.032864
639.00 5.223333
639.10 5.370503
639.20 5.48019
639.30 5.576392
639.40 5.6802
639.50 5.790103
639.60 5.868228
639.70 5.838902
639.80 5.689129
639.90 5.503964
640.00 5.363959
640.10 5.335209
640.20 5.463269
640.30 5.719733
640.40 6.019114
640.50 6.285321
640.60 6.47794
640.70 6.535759
640.80 6.414704
640.90 6.171755
641.00 5.907558
641.10 5.728812
641.20 5.691392
641.30 5.764623
641.40 5.882217
641.50 5.941996
641.60 5.906621
641.70 5.881995
641.80 5.965944
641.90 6.15584
642.00 6.398935
642.10 6.643943
642.20 6.851761
642.30 6.949055
642.40 6.866105
642.50 6.592253
642.60 6.179291
642.70 5.707876
642.80 5.274709
642.90 5.016141
643.00 4.971681
643.10 5.038846
643.20 5.110837
643.30 5.102195
643.40 4.944969
643.50 4.652297
643.60 4.289423
643.70 3.931876
643.80 3.680776
643.90 3.625632
644.00 3.819979
644.10 4.287918
644.20 5.005884
644.30 5.873555
644.40 6.775328
644.50 7.61133
644.60 8.247183
644.70 8.603181
644.80 8.728001
644.90 8.675502
645.00 8.495662
645.10 8.280991
645.20 8.097611
645.30 7.968131
645.40 7.879369
645.50 7.790479
645.60 7.649005
645.70 7.426204
645.80 7.141079
645.90 6.832178
646.00 6.570712
646.10 6.428246
646.20 6.430285
646.30 6.600408
646.40 6.888088
646.50 7.178064
646.60 7.379572
646.70 7.429604
646.80 7.322616
646.90 7.097945
647.00 6.814201
647.10 6.546499
647.20 6.323768
647.30 6.094836
647.40 5.845068
647.50 5.626616
647.60 5.463136
647.70 5.330136
647.80 5.250712
647.90 5.286909
648.00 5.44226
648.10 5.698343
648.20 6.035018
648.30 6.409423
648.40 6.781186
648.50 7.12006
648.60 7.43698
648.70 7.786381
648.80 8.1868
648.90 8.613076
649.00 9.017917
649.10 9.343382
649.20 9.590317
649.30 9.824488
649.40 10.11063
649.50 10.47144
649.60 10.87052
649.70 11.2561
649.80 11.54186
649.90 11.61454
650.00 11.39553
650.10 10.85278
650.20 10.02127
650.30 8.983547
650.40 7.905339
650.50 7.030323
650.60 6.511348
650.70 6.350101
650.80 6.484827
650.90 6.828864
651.00 7.299946
651.10 7.830323
651.20 8.394406
651.30 8.960611
651.40 9.461322
651.50 9.88428
651.60 10.26458
651.70 10.6473
651.80 11.04187
651.90 11.35477
652.00 11.49807
652.10 11.46728
652.20 11.28157
652.30 10.98187
652.40 10.62213
652.50 10.26042
652.60 9.960117
652.70 9.769903
652.80 9.662469
652.90 9.580635
653.00 9.518427
653.10 9.495217
653.20 9.523559
653.30 9.632787
653.40 9.843875
653.50 10.11043
653.60 10.36132
653.70 10.50706
653.80 10.47787
653.90 10.28717
654.00 9.982401
654.10 9.633921
654.20 9.407837
654.30 9.454696
654.40 9.755583
654.50 10.17703
654.60 10.58346
654.70 10.91084
654.80 11.14349
654.90 11.31089
655.00 11.47889
655.10 11.68334
655.20 11.91636
655.30 12.12828
655.40 12.26529
655.50 12.30241
655.60 12.20883
655.70 11.98384
655.80 11.73199
655.90 11.6069
656.00 11.69813
656.10 11.97471
656.20 12.3124
656.30 12.58176
656.40 12.71096
656.50 12.70313
656.60 12.60424
656.70 12.4447
656.80 12.24678
656.90 12.03788
657.00 11.80776
657.10 11.50051
657.20 11.07853
657.30 10.55403
657.40 9.920889
657.50 9.268105
657.60 8.787158
657.70 8.558816
657.80 8.564857
657.90 8.791124
658.00 9.184992
658.10 9.639914
658.20 10.02735
658.30 10.22253
658.40 10.22685
658.50 10.16863
658.60 10.13976
658.70 10.18616
658.80 10.42156
658.90 10.88072
659.00 11.45751
659.10 12.03835
659.20 12.50427
659.30 12.75064
659.40 12.76439
659.50 12.60981
659.60 12.39386
659.70 12.23889
659.80 12.22266
659.90 12.33915
660.00 12.54976
660.10 12.77739
660.20 12.89594
660.30 12.8036
660.40 12.43311
660.50 11.81271
660.60 11.09324
660.70 10.47274
660.80 10.13678
660.90 10.21574
661.00 10.71685
661.10 11.52291
661.20 12.4192
661.30 13.19883
661.40 13.71037
661.50 13.86155
661.60 13.66131
661.70 13.20316
661.80 12.66931
661.90 12.23549
662.00 11.99208
662.10 11.93215
662.20 11.96393
662.30 11.97278
662.40 11.90622
662.50 11.81723
662.60 11.80172
662.70 11.90608
662.80 12.1154
662.90 12.39956
663.00 12.70216
663.10 12.94916
663.20 13.09887
663.30 13.1403
663.40 13.13479
663.50 13.19665
663.60 13.37338
663.70 13.66949
663.80 14.0933
663.90 14.59399
664.00 15.04339
664.10 15.32045
664.20 15.40986
664.30 15.3407
664.40 15.15431
664.50 14.87361
664.60 14.47057
664.70 13.97387
664.80 13.42064
664.90 12.83545
665.00 12.33107
665.10 12.0547
665.20 12.06527
665.30 12.33491
665.40 12.81377
665.50 13.42855
665.60 14.04612
665.70 14.54977
665.80 14.90234
665.90 15.15384
666.00 15.38251
666.10 15.60808
666.20 15.79666
666.30 15.91471
666.40 15.95028
666.50 15.87053
666.60 15.65204
666.70 15.31614
666.80 14.95535
666.90 14.71064
667.00 14.70632
667.10 14.99548
667.20 15.5134
667.30 16.09671
667.40 16.5678
667.50 16.78692
667.60 16.71663
667.70 16.41735
667.80 15.97158
667.90 15.50417
668.00 15.15297
668.10 15.04687
668.20 15.25486
668.30 15.73405
668.40 16.3426
668.50 16.92495
668.60 17.3707
668.70 17.61535
668.80 17.66685
668.90 17.59783
669.00 17.47686
669.10 17.32016
669.20 17.12412
669.30 16.86652
669.40 16.55095
669.50 16.20581
669.60 15.84543
669.70 15.47967
669.80 15.1056
669.90 14.69193
670.00 14.23103
670.10 13.77309
670.20 13.33039
670.30 12.82715
670.40 12.18269
670.50 11.41876
670.60 10.65262
670.70 10.03555
670.80 9.656978
670.90 9.521199
671.00 9.612876
671.10 9.925973
671.20 10.46597
671.30 11.19309
671.40 12.01271
671.50 12.79712
671.60 13.48159
671.70 14.08979
671.80 14.64191
671.90 15.13661
672.00 15.55133
672.10 15.87841
672.20 16.15383
672.30 16.41634
672.40 16.6607
672.50 16.83191
672.60 16.86423
672.70 16.73942
672.80 16.49474
672.90 16.22737
673.00 16.00778
673.10 15.87216
673.20 15.88142
673.30 16.06479
673.40 16.41422
673.50 16.861
673.60 17.27639
673.70 17.54732
673.80 17.60825
673.90 17.46166
674.00 17.17155
674.10 16.84647
674.20 16.62656
674.30 16.61882
674.40 16.86313
674.50 17.32288
674.60 17.90015
674.70 18.47876
674.80 18.92229
674.90 19.09699
675.00 19.00689
675.10 18.79166
675.20 18.63662
675.30 18.65765
675.40 18.8755
675.50 19.29735
675.60 19.86362
675.70 20.42159
675.80 20.80481
675.90 20.91178
676.00 20.71729
676.10 20.28008
676.20 19.72972
676.30 19.21608
676.40 18.81819
676.50 18.54996
676.60 18.40599
676.70 18.41567
676.80 18.64987
676.90 19.0973
677.00 19.64312
677.10 20.18041
677.20 20.67684
677.30 21.1227
677.40 21.49108
677.50 21.72523
677.60 21.78068
677.70 21.65281
677.80 21.35899
677.90 20.95716
678.00 20.53724
678.10 20.16749
678.20 19.872
678.30 19.67931
678.40 19.65091
678.50 19.80351
678.60 20.03173
678.70 20.18755
678.80 20.15835
678.90 19.90442
679.00 19.43038
679.10 18.77744
679.20 18.07155
679.30 17.45034
679.40 17.01505
679.50 16.81743
679.60 16.86741
679.70 17.11921
679.80 17.44961
679.90 17.74011
680.00 17.96684
680.10 18.19103
680.20 18.47235
680.30 18.7372
680.40 18.86534
680.50 18.84016
680.60 18.65507
680.70 18.29593
680.80 17.78064
680.90 17.20608
681.00 16.7187
681.10 16.43177
681.20 16.42273
681.30 16.71962
681.40 17.27707
681.50 17.95521
681.60 18.58898
681.70 19.10805
681.80 19.49423
681.90 19.68825
682.00 19.66542
682.10 19.47623
682.20 19.22144
682.30 18.94832
682.40 18.65027
682.50 18.3142
682.60 17.934
682.70 17.52453
682.80 17.04709
682.90 16.45503
683.00 15.73976
683.10 15.00365
683.20 14.44911
683.30 14.18936
683.40 14.2427
683.50 14.60441
683.60 15.18351
683.70 15.84419
683.80 16.46493
683.90 16.98911
684.00 17.41681
684.10 17.75434
684.20 18.05528
684.30 18.37125
684.40 18.73905
684.50 19.08236
684.60 19.23315
684.70 19.1354
684.80 18.81506
684.90 18.28989
685.00 17.61355
685.10 16.91309
685.20 16.32931
685.30 15.93964
685.40 15.7186
685.50 15.58119
685.60 15.47169
685.70 15.35865
685.80 15.23402
685.90 15.13981
686.00 15.10704
686.10 15.12528
686.20 15.16103
686.30 15.20859
686.40 15.29076
686.50 15.41454
686.60 15.61444
686.70 15.92821
686.80 16.40803
686.90 17.08841
687.00 17.86752
687.10 18.57289
687.20 19.01746
687.30 19.06569
687.40 18.69175
687.50 17.95085
687.60 16.96203
687.70 15.88079
687.80 14.89437
687.90 14.19632
688.00 13.85202
688.10 13.81755
688.20 14.01419
688.30 14.34708
688.40 14.7342
688.50 15.09895
688.60 15.37362
688.70 15.48725
688.80 15.42662
688.90 15.28059
689.00 15.18625
689.10 15.20905
689.20 15.28844
689.30 15.32919
689.40 15.29608
689.50 15.19091
689.60 14.98221
689.70 14.61872
689.80 14.1146
689.90 13.57496
690.00 13.13704
690.10 12.92353
690.20 12.97672
690.30 13.23911
690.40 13.62579
690.50 14.07486
690.60 14.54831
690.70 14.97081
690.80 15.21808
690.90 15.15465
691.00 14.72324
691.10 14.01051
691.20 13.13937
691.30 12.21652
691.40 11.40718
691.50 10.87584
691.60 10.69765
691.70 10.85922
691.80 11.25714
691.90 11.7553
692.00 12.18814
692.10 12.41898
692.20 12.42713
692.30 12.33534
692.40 12.33972
692.50 12.52932
692.60 12.92691
692.70 13.50279
692.80 14.10585
692.90 14.55859
693.00 14.74864
693.10 14.67819
693.20 14.44468
693.30 14.15567
693.40 13.98216
693.50 14.11533
693.60 14.61079
693.70 15.36335
693.80 16.15536
693.90 16.79687
694.00 17.2096
694.10 17.44394
694.20 17.54794
694.30 17.49989
694.40 17.35931
694.50 17.21455
694.60 17.0989
694.70 17.02646
694.80 16.9913
694.90 16.96553
695.00 16.9214
695.10 16.84276
695.20 16.73889
695.30 16.64241
695.40 16.54533
695.50 16.36493
695.60 16.07505
695.70 15.78071
695.80 15.5518
695.90 15.40825
696.00 15.37381
696.10 15.43869
696.20 15.53374
696.30 15.57631
696.40 15.54211
696.50 15.4522
696.60 15.36067
696.70 15.33856
696.80 15.42799
696.90 15.64694
697.00 16.02235
697.10 16.53125
697.20 17.12618
697.30 17.78616
697.40 18.47814
697.50 19.14902
697.60 19.71018
697.70 20.07875
697.80 20.20886
697.90 20.09817
698.00 19.7805
698.10 19.28428
698.20 18.66863
698.30 18.01331
698.40 17.40245
698.50 16.94841
698.60 16.74902
698.70 16.78305
698.80 16.92366
698.90 17.07518
699.00 17.24159
699.10 17.43154
699.20 17.60971
699.30 17.75108
699.40 17.82309
699.50 17.78465
699.60 17.61324
699.70 17.35636
699.80 17.08802
699.90 16.83755
700.00 16.597
700.10 16.38935
700.20 16.28525
700.30 16.29078
700.40 16.35127
700.50 16.4258
700.60 16.50377
700.70 16.64223
700.80 16.92322
700.90 17.39819
701.00 18.07314
701.10 18.87919
701.20 19.72993
701.30 20.55844
701.40 21.29934
701.50 21.8804
701.60 22.23175
701.70 22.32602
701.80 22.1721
701.90 21.81983
702.00 21.3645
702.10 20.80502
702.20 20.09454
702.30 19.32308
702.40 18.68676
702.50 18.38006
702.60 18.53368
702.70 19.18688
702.80 20.23685
702.90 21.49935
703.00 22.79861
703.10 23.9325
703.20 24.73844
703.30 25.16746
703.40 25.25674
703.50 25.14905
703.60 25.0463
703.70 25.05353
703.80 25.18676
703.90 25.44182
704.00 25.72656
704.10 25.85261
704.20 25.6986
704.30 25.29271
704.40 24.76735
704.50 24.3329
704.60 24.18144
704.70 24.40891
704.80 24.975
704.90 25.66115
705.00 26.1889
705.10 26.40795
705.20 26.27379
705.30 25.80676
705.40 25.14193
705.50 24.4753
705.60 23.96402
705.70 23.67597
705.80 23.57945
705.90 23.59153
706.00 23.63205
706.10 23.62637
706.20 23.50246
706.30 23.30573
706.40 23.19746
706.50 23.26761
706.60 23.52795
706.70 23.93633
706.80 24.36027
706.90 24.67815
707.00 24.87061
707.10 24.95813
707.20 24.96767
707.30 24.95756
707.40 24.99178
707.50 25.10352
707.60 25.34434
707.70 25.77365
707.80 26.36862
707.90 27.04036
708.00 27.65679
708.10 28.09468
708.20 28.32223
708.30 28.39575
708.40 28.36894
708.50 28.25117
708.60 28.04272
708.70 27.75829
708.80 27.40855
708.90 27.00932
709.00 26.61824
709.10 26.27253
709.20 25.94596
709.30 25.63155
709.40 25.3903
709.50 25.28072
709.60 25.30461
709.70 25.39106
709.80 25.43264
709.90 25.35375
710.00 25.11848
710.10 24.73255
710.20 24.24645
710.30 23.717
710.40 23.19417
710.50 22.77163
710.60 22.57575
710.70 22.64846
710.80 22.91615
710.90 23.25245
711.00 23.53009
711.10 23.68142
711.20 23.69958
711.30 23.61259
711.40 23.52328
711.50 23.55625
711.60 23.77999
711.70 24.25744
711.80 25.02304
711.90 25.98849
712.00 26.97812
712.10 27.81513
712.20 28.35954
712.30 28.52616
712.40 28.30829
712.50 27.80141
712.60 27.21467
712.70 26.77706
712.80 26.60549
712.90 26.73309
713.00 27.15514
713.10 27.7666
713.20 28.36803
713.30 28.77443
713.40 28.89332
713.50 28.73382
713.60 28.35418
713.70 27.85386
713.80 27.36727
713.90 27.02769
714.00 26.88911
714.10 26.93484
714.20 27.12994
714.30 27.40991
714.40 27.73553
714.50 28.09465
714.60 28.47101
714.70 28.82149
714.80 29.08007
714.90 29.20544
715.00 29.20402
715.10 29.10127
715.20 28.91778
715.30 28.6411
715.40 28.2708
715.50 27.87679
715.60 27.55929
715.70 27.38558
715.80 27.34957
715.90 27.40497
716.00 27.50046
716.10 27.62321
716.20 27.79316
716.30 27.99891
716.40 28.21903
716.50 28.42585
716.60 28.57137
716.70 28.62806
716.80 28.58427
716.90 28.44116
717.00 28.22715
717.10 27.97632
717.20 27.70828
717.30 27.46073
717.40 27.28088
717.50 27.20695
717.60 27.27683
717.70 27.51564
717.80 27.91739
717.90 28.45959
718.00 29.13126
718.10 29.88702
718.20 30.63289
718.30 31.25753
718.40 31.68443
718.50 31.87774
718.60 31.82269
718.70 31.53328
718.80 31.09814
718.90 30.64699
719.00 30.24755
719.10 29.93893
719.20 29.78085
719.30 29.80013
719.40 29.94417
719.50 30.11815
719.60 30.23739
719.70 30.26274
719.80 30.16251
719.90 29.95773
720.00 29.73376
720.10 29.57593
720.20 29.52483
720.30 29.56815
720.40 29.70455
720.50 29.89034
720.60 30.00875
720.70 29.96662
720.80 29.77513
720.90 29.54064
721.00 29.37813
721.10 29.30685
721.20 29.27475
721.30 29.23387
721.40 29.15931
721.50 29.05129
721.60 28.91699
721.70 28.78284
721.80 28.69185
721.90 28.69367
722.00 28.82457
722.10 29.12048
722.20 29.5997
722.30 30.19843
722.40 30.77472
722.50 31.23501
722.60 31.55872
722.70 31.70899
722.80 31.65339
722.90 31.39069
723.00 30.98139
723.10 30.52096
723.20 30.0734
723.30 29.69406
723.40 29.45778
723.50 29.36709
723.60 29.28336
723.70 29.07961
723.80 28.78083
723.90 28.47111
724.00 28.17299
724.10 27.86173
724.20 27.51336
724.30 27.22711
724.40 27.20796
724.50 27.53836
724.60 28.20021
724.70 29.15847
724.80 30.33822
724.90 31.64818
725.00 33.00944
725.10 34.30038
725.20 35.32907
725.30 35.90801
725.40 35.98714
725.50 35.70904
725.60 35.27826
725.70 34.77684
725.80 34.157
725.90 33.46116
726.00 32.84262
726.10 32.39741
726.20 32.11408
726.30 31.93263
726.40 31.8169
726.50 31.7697
726.60 31.82284
726.70 31.98494
726.80 32.15268
726.90 32.1908
727.00 32.16765
727.10 32.23727
727.20 32.41982
727.30 32.63246
727.40 32.77185
727.50 32.88677
727.60 33.12833
727.70 33.53607
727.80 34.05842
727.90 34.60956
728.00 35.08704
728.10 35.46168
728.20 35.8209
728.30 36.23743
728.40 36.62477
728.50 36.8668
728.60 36.99148
728.70 37.11316
728.80 37.2971
728.90 37.4711
729.00 37.56245
729.10 37.66154
729.20 37.89223
729.30 38.29012
729.40 38.80799
729.50 39.31433
729.60 39.64378
729.70 39.64226
729.80 39.19988
729.90 38.34461
730.00 37.17793
730.10 35.85132
730.20 34.64078
730.30 33.84846
730.40 33.62671
730.50 33.9416
730.60 34.64979
730.70 35.54962
730.80 36.40065
730.90 36.88993
731.00 36.87316
731.10 36.4811
731.20 35.94271
731.30 35.48442
731.40 35.35381
731.50 35.69585
731.60 36.43997
731.70 37.39088
731.80 38.30623
731.90 38.96161
732.00 39.20424
732.10 39.00641
732.20 38.37553
732.30 37.44407
732.40 36.41672
732.50 35.51098
732.60 34.98711
732.70 34.96204
732.80 35.35423
732.90 36.04466
733.00 36.88663
733.10 37.67748
733.20 38.27005
733.30 38.59675
733.40 38.56676
733.50 38.15243
733.60 37.56902
733.70 37.07994
733.80 36.76176
733.90 36.59006
734.00 36.5468
734.10 36.63317
734.20 36.84837
734.30 37.14063
734.40 37.45108
734.50 37.7532
734.60 38.00023
734.70 38.13113
734.80 38.21399
734.90 38.29725
735.00 38.28532
735.10 38.1141
735.20 37.85648
735.30 37.57778
735.40 37.22424
735.50 36.69656
735.60 35.97436
735.70 35.12591
735.80 34.30449
735.90 33.67629
736.00 33.35245
736.10 33.38205
736.20 33.63542
736.30 33.85729
736.40 33.90548
736.50 33.83603
736.60 33.69276
736.70 33.41739
736.80 33.03893
736.90 32.76284
737.00 32.78342
737.10 33.1763
737.20 33.84429
737.30 34.5961
737.40 35.24855
737.50 35.65645
737.60 35.81514
737.70 35.86533
737.80 35.91207
737.90 35.91168
738.00 35.8347
738.10 35.75789
738.20 35.72612
738.30 35.68072
738.40 35.55599
738.50 35.36155
738.60 35.17499
738.70 35.0694
738.80 35.07119
738.90 35.14444
739.00 35.20325
739.10 35.16898
739.20 35.07354
739.30 35.0092
739.40 34.98015
739.50 34.91064
739.60 34.69618
739.70 34.31763
739.80 33.86283
739.90 33.38668
740.00 32.93505
740.10 32.58781
740.20 32.40635
740.30 32.39458
740.40 32.49286
740.50 32.62128
740.60 32.63731
740.70 32.44283
740.80 32.09983
740.90 31.71531
741.00 31.39122
741.10 31.15946
741.20 31.01842
741.30 31.04502
741.40 31.27186
741.50 31.61322
741.60 31.9386
741.70 32.1435
741.80 32.18363
741.90 32.05722
742.00 31.7895
742.10 31.37733
742.20 30.82792
742.30 30.18179
742.40 29.44123
742.50 28.68903
742.60 28.1151
742.70 27.86837
742.80 28.0075
742.90 28.49559
743.00 29.24095
743.10 30.13011
743.20 31.07378
743.30 32.03624
743.40 33.02322
743.50 34.01713
743.60 34.90264
743.70 35.59786
743.80 36.18709
743.90 36.70629
744.00 37.00571
744.10 36.91794
744.20 36.38706
744.30 35.4954
744.40 34.39846
744.50 33.27419
744.60 32.28241
744.70 31.49934
744.80 30.93085
744.90 30.59387
745.00 30.50163
745.10 30.5932
745.20 30.73191
745.30 30.83429
745.40 30.90506
745.50 30.92625
745.60 30.86575
745.70 30.71237
745.80 30.46761
745.90 30.16386
746.00 29.84623
746.10 29.57904
746.20 29.46063
746.30 29.53012
746.40 29.7854
746.50 30.23208
746.60 30.80875
746.70 31.35948
746.80 31.73178
746.90 31.90149
747.00 31.92377
747.10 31.87963
747.20 31.85853
747.30 31.89388
747.40 31.97753
747.50 32.07522
747.60 32.05889
747.70 31.82974
747.80 31.42139
747.90 30.9195
748.00 30.47457
748.10 30.23221
748.20 30.22714
748.30 30.363
748.40 30.52454
748.50 30.64371
748.60 30.71973
748.70 30.78025
748.80 30.8116
748.90 30.7839
749.00 30.7073
749.10 30.60257
749.20 30.42624
749.30 30.09178
749.40 29.52945
749.50 28.80093
749.60 28.06593
749.70 27.47124
749.80 27.12369
749.90 27.05605
750.00 27.19992
750.10 27.44527
750.20 27.69207
750.30 27.87926
750.40 27.98946
750.50 28.01909
750.60 28.0101
750.70 28.05753
750.80 28.22797
750.90 28.46237
751.00 28.63621
751.10 28.69272
751.20 28.58245
751.30 28.27834
751.40 27.85739
751.50 27.44257
751.60 27.09414
751.70 26.74498
751.80 26.32458
751.90 25.82523
752.00 25.19366
752.10 24.29315
752.20 23.10527
752.30 21.79786
752.40 20.61306
752.50 19.76072
752.60 19.38935
752.70 19.60367
752.80 20.36333
752.90 21.46192
753.00 22.69217
753.10 23.94697
753.20 25.09898
753.30 25.9523
753.40 26.42512
753.50 26.62515
753.60 26.61809
753.70 26.3776
753.80 25.92226
753.90 25.31643
754.00 24.65079
754.10 23.97528
754.20 23.31844
754.30 22.80495
754.40 22.57118
754.50 22.63278
754.60 22.92098
754.70 23.35531
754.80 23.81433
754.90 24.12932
755.00 24.1439
755.10 23.76903
755.20 22.99442
755.30 21.91558
755.40 20.76866
755.50 19.84124
755.60 19.35336
755.70 19.36039
755.80 19.78993
755.90 20.53798
756.00 21.4263
756.10 22.19415
756.20 22.57782
756.30 22.44924
756.40 21.93898
756.50 21.24467
756.60 20.49733
756.70 19.75947
756.80 19.02126
756.90 18.32515
757.00 17.78334
757.10 17.50957
757.20 17.53855
757.30 17.81629
757.40 18.21809
757.50 18.59981
757.60 18.89898
757.70 19.10322
757.80 19.1548
757.90 19.04059
758.00 18.77873
758.10 18.42494
758.20 18.09837
758.30 17.81664
758.40 17.52627
758.50 17.18383
758.60 16.78279
758.70 16.35051
758.80 15.97938
758.90 15.80774
759.00 15.92096
759.10 16.2217
759.20 16.38797
759.30 16.20145
759.40 15.81098
759.50 15.53091
759.60 15.63811
759.70 16.20289
759.80 17.15137
759.90 18.53454
760.00 20.29201
760.10 22.02811
760.20 23.28387
760.30 23.78752
760.40 23.43564
760.50 22.36616
760.60 21.01915
760.70 19.80631
760.80 18.82648
760.90 17.96974
761.00 17.02487
761.10 15.95543
761.20 14.85354
761.30 13.59884
761.40 12.17033
761.50 10.85366
761.60 9.948493
761.70 9.614607
761.80 9.833315
761.90 10.39957
762.00 11.00325
762.10 11.38992
762.20 11.4908
762.30 11.3323
762.40 10.97211
762.50 10.6046
762.60 10.46382
762.70 10.63815
762.80 10.99253
762.90 11.23404
763.00 11.12774
763.10 10.53742
763.20 9.459711
763.30 8.045363
763.40 6.554198
763.50 5.257468
763.60 4.313773
763.70 3.865819
763.80 4.07646
763.90 4.853089
764.00 5.860449
764.10 6.78566
764.20 7.448082
764.30 7.816542
764.40 7.852184
764.50 7.469569
764.60 6.67027
764.70 5.579968
764.80 4.427245
764.90 3.476005
765.00 3.00059
765.10 3.110481
765.20 3.586968
765.30 4.118629
765.40 4.438126
765.50 4.302652
765.60 3.587277
765.70 2.359068
765.80 0.8741942
765.90 0
766.00 0
766.10 0
766.20 0
766.30 0
766.40 0.595061
766.50 1.622215
766.60 2.409343
766.70 2.902833
766.80 3.102319
766.90 3.156026
767.00 3.230093
767.10 3.397386
767.20 3.649364
767.30 3.924649
767.40 4.15649
767.50 4.308399
767.60 4.355589
767.70 4.273899
767.80 4.069385
767.90 3.763949
768.00 3.386926
768.10 3.021281
768.20 2.769893
768.30 2.690361
768.40 2.799045
768.50 3.057832
768.60 3.39006
768.70 3.693733
768.80 3.881338
768.90 3.92209
769.00 3.789142
769.10 3.455505
769.20 2.975149
769.30 2.445525
769.40 1.906315
769.50 1.349865
769.60 0.8406012
769.70 0.4634058
769.80 0.2391205
769.90 0.1859837
770.00 0.3418982
770.10 0.724578
770.20 1.264841
770.30 1.846591
770.40 2.391077
770.50 2.822298
770.60 3.016513
770.70 2.836471
770.80 2.191692
770.90 1.068773
771.00 0
771.10 0
771.20 0
771.30 0
771.40 0
771.50 0
771.60 0
771.70 0
771.80 0
771.90 0
772.00 0.6143625
772.10 3.993176
772.20 6.686918
772.30 8.536503
772.40 9.644554
772.50 10.25497
772.60 10.31374
772.70 9.798015
772.80 9.049961
772.90 8.377711
773.00 7.835232
773.10 7.327127
773.20 6.8025
773.30 6.428208
773.40 6.446424
773.50 6.938646
773.60 7.791984
773.70 8.755672
773.80 9.622846
773.90 10.29488
774.00 10.72242
774.10 10.90952
774.20 10.96293
774.30 10.96447
774.40 10.81402
774.50 10.48805
774.60 10.23857
774.70 10.26823
774.80 10.56318
774.90 11.13304
775.00 12.03789
775.10 13.22756
775.20 14.54183
775.30 15.77012
775.40 16.7026
775.50 17.16533
775.60 17.09218
775.70 16.67005
775.80 16.2504
775.90 16.08575
776.00 16.1688
776.10 16.40319
776.20 16.75866
776.30 17.11816
776.40 17.26536
776.50 17.08114
776.60 16.56322
776.70 15.78889
776.80 14.91878
776.90 14.20707
777.00 13.85198
777.10 13.85954
777.20 14.25329
777.30 15.0436
777.40 16.06371
777.50 17.04567
777.60 17.76644
777.70 18.13131
777.80 18.19958
777.90 18.11738
778.00 18.06598
778.10 18.17501
778.20 18.47951
778.30 18.91302
778.40 19.38559
778.50 19.87326
778.60 20.26484
778.70 20.35738
778.80 20.08551
778.90 19.51064
779.00 18.64469
779.10 17.57936
779.20 16.5139
779.30 15.63423
779.40 15.00826
779.50 14.57955
779.60 14.24786
779.70 13.89527
779.80 13.3916
779.90 12.61445
780.00 11.59343
780.10 10.53885
780.20 9.606748
780.30 8.890739
780.40 8.568742
780.50 8.646911
780.60 8.963843
780.70 9.410333
780.80 9.990856
780.90 10.79622
781.00 11.88743
781.10 13.32392
781.20 15.19464
781.30 17.47094
781.40 19.90976
781.50 22.0626
781.60 23.44757
781.70 23.90522
781.80 23.61943
781.90 22.92834
782.00 22.22797
782.10 21.85073
782.20 21.95776
782.30 22.59063
782.40 23.71178
782.50 25.13808
782.60 26.53199
782.70 27.5804
782.80 28.14225
782.90 28.30128
783.00 28.35715
783.10 28.48272
783.20 28.58808
783.30 28.58048
783.40 28.38548
783.50 27.97686
783.60 27.40086
783.70 26.68897
783.80 25.88097
783.90 24.97512
784.00 24.02011
784.10 23.18998
784.20 22.64608
784.30 22.49163
784.40 22.73952
784.50 23.32172
784.60 24.17253
784.70 25.04749
784.80 25.48405
784.90 25.16915
785.00 24.01285
785.10 22.18136
785.20 20.21953
785.30 18.7659
785.40 18.24707
785.50 18.82604
785.60 20.4322
785.70 22.81495
785.80 25.66534
785.90 28.65409
786.00 31.42298
786.10 33.77982
786.20 35.75449
786.30 37.31814
786.40 38.41412
786.50 38.97751
786.60 38.84659
786.70 38.06269
786.80 36.89392
786.90 35.64046
787.00 34.61504
787.10 34.07421
787.20 34.06419
787.30 34.47865
787.40 35.15193
787.50 35.89888
787.60 36.60278
787.70 37.15359
787.80 37.50363
787.90 37.73161
788.00 37.97198
788.10 38.30977
788.20 38.68101
788.30 38.92972
788.40 39.02538
788.50 39.00612
788.60 38.80303
788.70 38.29048
788.80 37.3601
788.90 36.08071
789.00 34.73562
789.10 33.64955
789.20 33.08792
789.30 33.23665
789.40 34.12996
789.50 35.64931
789.60 37.62187
789.70 39.83428
789.80 41.90978
789.90 43.42771
790.00 44.23279
790.10 44.39185
790.20 44.08125
790.30 43.46834
790.40 42.61313
790.50 41.65377
790.60 40.80112
790.70 40.13885
790.80 39.56348
790.90 38.99064
791.00 38.58383
791.10 38.60851
791.20 39.17212
791.30 40.24542
791.40 41.65853
791.50 43.14625
791.60 44.42898
791.70 45.22913
791.80 45.44111
791.90 45.07995
792.00 44.27784
792.10 43.34356
792.20 42.63703
792.30 42.36894
792.40 42.47542
792.50 42.75097
792.60 43.09895
792.70 43.53663
792.80 44.08308
792.90 44.75071
793.00 45.46487
793.10 46.16066
793.20 46.78948
793.30 47.25133
793.40 47.39314
793.50 47.07835
793.60 46.35874
793.70 45.46283
793.80 44.65881
793.90 44.14595
794.00 43.93124
794.10 43.78436
794.20 43.35493
794.30 42.23634
794.40 40.24166
794.50 37.44262
794.60 34.06387
794.70 30.56731
794.80 27.56976
794.90 25.64997
795.00 25.21002
795.10 26.40738
795.20 29.08209
795.30 32.79759
795.40 37.01646
795.50 41.14654
795.60 44.65577
795.70 47.28707
795.80 49.01285
795.90 49.99588
796.00 50.42255
796.10 50.37758
796.20 49.90286
796.30 49.10839
796.40 48.19886
796.50 47.37113
796.60 46.75489
796.70 46.43945
796.80 46.51
796.90 47.03396
797.00 48.01537
797.10 49.31114
797.20 50.58851
797.30 51.47917
797.40 51.87884
797.50 51.95843
797.60 51.97495
797.70 52.15705
797.80 52.60743
797.90 53.24046
798.00 53.95568
798.10 54.64246
798.20 55.10137
798.30 55.19973
798.40 54.92854
798.50 54.39202
798.60 53.77906
798.70 53.1865
798.80 52.59513
798.90 52.08149
799.00 51.73561
799.10 51.46022
799.20 51.2228
799.30 51.22774
799.40 51.7031
799.50 52.81175
799.60 54.55616
799.70 56.74159
799.80 59.10417
799.90 61.36759
800.00 63.30533
800.10 64.8023
800.20 65.80214
800.30 66.21971
800.40 66.07553
800.50 65.65034
800.60 65.19129
800.70 64.70113
800.80 64.15735
800.90 63.62286
801.00 63.17185
801.10 62.87252
801.20 62.76274
801.30 62.80992
801.40 62.90931
801.50 62.97462
801.60 63.04078
801.70 63.16633
801.80 63.39264
801.90 63.72244
802.00 64.07481
802.10 64.35396
802.20 64.35576
802.30 63.82611
802.40 62.84321
802.50 61.79977
802.60 61.11055
802.70 61.0464
802.80 61.72234
802.90 63.11334
803.00 64.97557
803.10 66.93233
803.20 68.59841
803.30 69.65416
803.40 69.96309
803.50 69.63351
803.60 68.978
803.70 68.35807
803.80 67.95
803.90 67.72443
804.00 67.62444
804.10 67.68773
804.20 67.96805
804.30 68.45875
804.40 69.17729
804.50 70.1345
804.60 71.24588
804.70 72.34114
804.80 73.25485
804.90 73.85423
805.00 74.06949
805.10 73.98547
805.20 73.78399
805.30 73.63268
805.40 73.61103
805.50 73.68738
805.60 73.82985
805.70 73.99934
805.80 74.15001
805.90 74.28129
806.00 74.3938
806.10 74.51014
806.20 74.72096
806.30 75.15975
806.40 75.92702
806.50 76.98483
806.60 78.18763
806.70 79.3879
806.80 80.46464
806.90 81.3293
807.00 81.91675
807.10 82.21103
807.20 82.17901
807.30 81.79457
807.40 81.13329
807.50 80.37118
807.60 79.67149
807.70 79.149
807.80 78.83549
807.90 78.67414
808.00 78.61774
808.10 78.68398
808.20 78.9317
808.30 79.40383
808.40 80.09267
808.50 80.87871
808.60 81.55705
808.70 81.91572
808.80 81.87935
808.90 81.54584
809.00 81.08474
809.10 80.67942
809.20 80.48013
809.30 80.57103
809.40 80.94808
809.50 81.46019
809.60 81.87121
809.70 81.94279
809.80 81.50496
809.90 80.55916
810.00 79.27726
810.10 77.95892
810.20 76.94929
810.30 76.48645
810.40 76.723
810.50 77.70816
810.60 79.36378
810.70 81.52005
810.80 83.86547
810.90 86.01739
811.00 87.62397
811.10 88.50113
811.20 88.67446
811.30 88.33977
811.40 87.75842
811.50 87.13814
811.60 86.61009
811.70 86.27664
811.80 86.18076
811.90 86.31005
812.00 86.62816
812.10 87.06956
812.20 87.61875
812.30 88.28726
812.40 89.02767
812.50 89.75465
812.60 90.43826
812.70 91.02948
812.80 91.40064
812.90 91.4155
813.00 91.02994
813.10 90.31487
813.20 89.40518
813.30 88.48933
813.40 87.78965
813.50 87.50737
813.60 87.67725
813.70 88.16302
813.80 88.79071
813.90 89.39134
814.00 89.77037
814.10 89.80638
814.20 89.57993
814.30 89.36055
814.40 89.40983
814.50 89.80465
814.60 90.40544
814.70 90.86111
814.80 90.88175
814.90 90.3772
815.00 89.39461
815.10 88.14897
815.20 86.95256
815.30 86.13955
815.40 86.01921
815.50 86.74459
815.60 88.24873
815.70 90.22655
815.80 92.20018
815.90 93.78966
816.00 94.92677
816.10 95.78785
816.20 96.50691
816.30 97.11042
816.40 97.67909
816.50 98.34361
816.60 99.17177
816.70 100.0805
816.80 100.8842
816.90 101.4097
817.00 101.5859
817.10 101.4491
817.20 101.0756
817.30 100.3844
817.40 99.17056
817.50 97.40442
817.60 95.26045
817.70 93.03037
817.80 90.94106
817.90 89.02212
818.00 87.22623
818.10 85.55557
818.20 84.12918
818.30 83.15789
818.40 82.78031
818.50 82.99607
818.60 83.71793
818.70 84.89789
818.80 86.37663
818.90 87.65765
819.00 88.06765
819.10 87.05829
819.20 84.5113
819.30 80.80212
819.40 76.71136
819.50 73.25526
819.60 71.27945
819.70 71.22471
819.80 73.15585
819.90 76.76665
820.00 81.48298
820.10 86.59549
820.20 91.45103
820.30 95.64114
820.40 99.03367
820.50 101.6648
820.60 103.6027
820.70 104.9484
820.80 105.7981
820.90 106.1803
821.00 106.1009
821.10 105.609
821.20 104.8292
821.30 104.0017
821.40 103.3916
821.50 103.1766
821.60 103.3973
821.70 103.9645
821.80 104.736
821.90 105.5629
822.00 106.3716
822.10 107.1596
822.20 107.9144
822.30 108.6011
822.40 109.1698
822.50 109.6781
822.60 110.2735
822.70 111.0139
822.80 111.8551
822.90 112.7015
823.00 113.3907
823.10 113.7102
823.20 113.532
823.30 112.8947
823.40 111.9511
823.50 110.8712
823.60 109.8494
823.70 109.1311
823.80 108.9825
823.90 109.4386
824.00 110.2631
824.10 111.2161
824.20 112.1025
824.30 112.7777
824.40 113.1911
824.50 113.4334
824.60 113.6423
824.70 113.8889
824.80 114.2082
824.90 114.6493
825.00 115.2089
825.10 115.7419
825.20 115.9902
825.30 115.7602
825.40 115.0152
825.50 113.8312
825.60 112.4454
825.70 111.2178
825.80 110.5141
825.90 110.561
826.00 111.3636
826.10 112.7526
826.20 114.4146
826.30 115.9408
826.40 116.9223
826.50 117.1022
826.60 116.5449
826.70 115.5266
826.80 114.4098
826.90 113.6159
827.00 113.4686
827.10 114.0176
827.20 115.0558
827.30 116.4148
827.40 117.9774
827.50 119.4601
827.60 120.539
827.70 121.0797
827.80 121.1915
827.90 121.0069
828.00 120.5368
828.10 119.781
828.20 118.7586
828.30 117.5164
828.40 116.2654
828.50 115.417
828.60 115.3163
828.70 115.7926
828.80 116.472
828.90 117.2346
829.00 117.9439
829.10 118.3273
829.20 118.1367
829.30 117.4238
829.40 116.5255
829.50 115.8643
829.60 115.5529
829.70 115.3933
829.80 115.3063
829.90 115.2524
830.00 115.1864
830.10 115.2455
830.20 115.5814
830.30 116.1169
830.40 116.6248
830.50 116.9248
830.60 117.0142
830.70 116.9188
830.80 116.5639
830.90 115.8805
831.00 115.1649
831.10 114.8334
831.20 114.8899
831.30 115.1597
831.40 115.5763
831.50 116.2559
831.60 117.2982
831.70 118.6392
831.80 120.2408
831.90 122.0255
832.00 123.7216
832.10 124.977
832.20 125.5629
832.30 125.41
832.40 124.5688
832.50 123.2879
832.60 121.9859
832.70 121.1059
832.80 120.9521
832.90 121.4722
833.00 122.3463
833.10 123.2425
833.20 123.8945
833.30 124.1243
833.40 123.894
833.50 123.3531
833.60 122.6698
833.70 122.029
833.80 121.7497
833.90 122.1812
834.00 123.4553
834.10 125.2448
834.20 126.7603
834.30 127.2335
834.40 126.4921
834.50 124.9018
834.60 123.0263
834.70 121.4027
834.80 120.347
834.90 119.9237
835.00 120.149
835.10 121.0358
835.20 122.512
835.30 124.3147
835.40 126.0329
835.50 127.4223
835.60 128.598
835.70 129.7476
835.80 130.7474
835.90 131.3472
836.00 131.4586
836.10 131.2745
836.20 131.2203
836.30 131.698
836.40 132.9242
836.50 134.8347
836.60 137.0275
836.70 138.9768
836.80 140.1399
836.90 140.092
837.00 138.7995
837.10 136.5611
837.20 133.843
837.30 131.2431
837.40 129.2414
837.50 127.8655
837.60 126.9697
837.70 126.5885
837.80 126.8042
837.90 127.4011
838.00 128.0477
838.10 128.6003
838.20 129.0852
838.30 129.5392
838.40 129.8692
838.50 130.0313
838.60 130.1461
838.70 130.2648
838.80 130.3013
838.90 130.2785
839.00 130.2641
839.10 130.2216
839.20 130.0558
839.30 129.9399
839.40 130.2992
839.50 131.4489
839.60 133.4387
839.70 136.1256
839.80 139.1869
839.90 142.0783
840.00 144.2168
840.10 145.249
840.20 145.1949
840.30 144.3453
840.40 143.1112
840.50 141.8361
840.60 140.8373
840.70 140.4333
840.80 140.7169
840.90 141.4774
841.00 142.4889
841.10 143.6106
841.20 144.7917
841.30 146.0312
841.40 147.1986
841.50 148.0574
841.60 148.3897
841.70 148.0731
841.80 147.0579
841.90 145.5393
842.00 143.9273
842.10 142.5646
842.20 141.5932
842.30 140.9331
842.40 140.3347
842.50 139.6333
842.60 138.9366
842.70 138.431
842.80 138.2842
842.90 138.5605
843.00 139.141
843.10 139.9031
843.20 140.7592
843.30 141.4855
843.40 141.7682
843.50 141.3316
843.60 139.9876
843.70 137.8081
843.80 135.1853
843.90 132.5243
844.00 130.0356
844.10 127.9618
844.20 126.5773
844.30 126.0713
844.40 126.5077
844.50 127.7206
844.60 129.4236
844.70 131.3571
844.80 133.2029
844.90 134.6395
845.00 135.4232
845.10 135.3736
845.20 134.4801
845.30 132.913
845.40 130.9156
845.50 128.7118
845.60 126.59
845.70 124.9495
845.80 124.0523
845.90 123.9832
846.00 124.5878
846.10 125.3575
846.20 125.6179
846.30 124.8393
846.40 123.1345
846.50 121.2594
846.60 119.9173
846.70 119.4717
846.80 120.0134
846.90 121.4153
847.00 123.3917
847.10 125.4137
847.20 127.0054
847.30 127.8938
847.40 127.9801
847.50 127.4096
847.60 126.5643
847.70 125.8907
847.80 125.4989
847.90 125.1338
848.00 124.5794
848.10 123.8409
848.20 123.1243
848.30 122.7189
848.40 122.7133
848.50 123.0546
848.60 123.6602
848.70 124.3787
848.80 125.0587
848.90 125.5844
849.00 125.9438
849.10 126.2213
849.20 126.5095
849.30 126.8606
849.40 127.2765
849.50 127.7058
849.60 128.0344
849.70 128.1673
849.80 128.0784
849.90 127.8568
850.00 127.6528
850.10 127.516
850.20 127.351
850.30 127.1227
850.40 126.9189
850.50 126.8389
850.60 126.8906
850.70 126.9495
850.80 126.896
850.90 126.7579
851.00 126.6865
851.10 126.8013
851.20 127.1177
851.30 127.4531
851.40 127.4009
851.50 126.4353
851.60 124.0803
851.70 119.9705
851.80 113.9485
851.90 106.2667
852.00 97.72463
852.10 89.63986
852.20 83.45993
852.30 80.34069
852.40 80.81542
852.50 84.69098
852.60 91.21856
852.70 99.33661
852.80 107.8574
852.90 115.7128
853.00 122.1931
853.10 127.007
853.20 130.2285
853.30 132.182
853.40 133.2814
853.50 133.8636
853.60 134.1845
853.70 134.33
853.80 134.3224
853.90 134.2873
854.00 134.3705
854.10 134.5987
854.20 134.909
854.30 135.2561
854.40 135.6354
854.50 136.2199
854.60 137.3359
854.70 139.2147
854.80 141.7705
854.90 144.6113
855.00 147.2383
855.10 149.2083
855.20 150.2105
855.30 150.0999
855.40 148.9121
855.50 146.8941
855.60 144.566
855.70 142.5929
855.80 141.5042
855.90 141.4411
856.00 142.1587
856.10 143.3022
856.20 144.663
856.30 146.0816
856.40 147.2486
856.50 147.8321
856.60 147.6843
856.70 146.8534
856.80 145.5279
856.90 144.046
857.00 142.7491
857.10 141.9179
857.20 141.7377
857.30 142.2499
857.40 143.4168
857.50 145.0144
857.60 146.6003
857.70 147.7949
857.80 148.5054
857.90 148.8621
858.00 149.0672
858.10 149.2433
858.20 149.4288
858.30 149.6255
858.40 149.8398
858.50 150.1038
858.60 150.4212
858.70 150.7777
858.80 151.1155
858.90 151.3823
859.00 151.5737
859.10 151.7698
859.20 152.1048
859.30 152.652
859.40 153.3806
859.50 154.2644
859.60 155.2401
859.70 156.1325
859.80 156.7737
859.90 156.9863
860.00 156.6136
860.10 155.5952
860.20 154.0473
860.30 152.1432
860.40 150.0335
860.50 147.8141
860.60 145.4706
860.70 142.9279
860.80 139.9841
860.90 136.3264
861.00 131.7918
861.10 126.4745
861.20 120.6013
861.30 114.4115
861.40 108.251
861.50 102.6638
861.60 98.1301
861.70 94.79652
861.80 92.46295
861.90 90.76959
862.00 89.28837
862.10 87.69249
862.20 85.94738
862.30 84.28173
862.40 82.99052
862.50 82.30064
862.60 82.2315
862.70 82.69387
862.80 83.46558
862.90 83.97487
863.00 83.48167
863.10 81.61878
863.20 78.67087
863.30 75.25211
863.40 72.05249
863.50 69.67753
863.60 68.46453
863.70 68.41148
863.80 69.30211
863.90 70.93458
864.00 73.22357
864.10 75.91802
864.20 78.50965
864.30 80.65484
864.40 82.39816
864.50 83.94945
864.60 85.43213
864.70 86.95035
864.80 88.65591
864.90 90.50633
865.00 92.30396
865.10 94.09108
865.20 96.08464
865.30 98.17189
865.40 99.96452
865.50 101.3381
865.60 102.6349
865.70 104.2045
865.80 106.0044
865.90 107.7839
866.00 109.4107
866.10 110.8818
866.20 112.1749
866.30 113.3607
866.40 114.5062
866.50 115.3842
866.60 115.6389
866.70 115.1954
866.80 114.2329
866.90 112.8472
867.00 111.05
867.10 109.1178
867.20 107.6445
867.30 107.1921
867.40 107.9142
867.50 109.4904
867.60 111.3849
867.70 113.064
867.80 114.0979
867.90 114.2246
868.00 113.314
868.10 111.4267
868.20 108.915
868.30 106.4774
868.40 104.9139
868.50 104.6521
868.60 105.5654
868.70 107.1092
868.80 108.4539
868.90 108.781
869.00 107.507
869.10 104.3913
869.20 99.69822
869.30 94.16375
869.40 88.80568
869.50 84.58791
869.60 82.10193
869.70 81.46288
869.80 82.34924
869.90 84.15204
870.00 86.17331
870.10 87.86651
870.20 88.99901
870.30 89.50042
870.40 89.36239
870.50 88.60786
870.60 87.32881
870.70 85.61938
870.80 83.50706
870.90 81.1277
871.00 78.76275
871.10 76.75228
871.20 75.4408
871.30 75.01402
871.40 75.41965
871.50 76.37664
871.60 77.45493
871.70 78.31675
871.80 78.83267
871.90 79.04353
872.00 79.04082
872.10 78.99043
872.20 79.16722
872.30 79.75475
872.40 80.82155
872.50 82.35066
872.60 84.16727
872.70 86.03645
872.80 87.77548
872.90 89.26648
873.00 90.46772
873.10 91.35238
873.20 91.86506
873.30 92.04067
873.40 92.08096
873.50 92.20969
873.60 92.51184
873.70 93.00713
873.80 93.68913
873.90 94.50822
874.00 95.42609
874.10 96.4037
874.20 97.3997
874.30 98.3774
874.40 99.27451
874.50 100.018
874.60 100.5696
874.70 100.9128
874.80 101.0009
874.90 100.8535
875.00 100.6605
875.10 100.5926
875.20 100.6557
875.30 100.8134
875.40 101.0795
875.50 101.4866
875.60 101.9173
875.70 102.1801
875.80 102.0756
875.90 101.5417
876.00 100.7251
876.10 99.79297
876.20 98.83369
876.30 97.84616
876.40 96.77148
876.50 95.65835
876.60 94.64231
876.70 93.68394
876.80 92.86353
876.90 92.57809
877.00 93.41494
877.10 95.92116
877.20 100.3177
877.30 106.2552
877.40 112.822
877.50 118.699
877.60 122.4958
877.70 123.4019
877.80 121.6018
877.90 117.8439
878.00 113.0313
878.10 108.3213
878.20 104.5201
878.30 101.8087
878.40 100.0811
878.50 99.04242
878.60 98.48072
878.70 98.4352
878.80 99.10584
878.90 100.7574
879.00 103.4899
879.10 107.0202
879.20 110.8002
879.30 114.3057
879.40 117.177
879.50 119.1418
879.60 120.1141
879.70 120.2044
879.80 119.5444
879.90 118.2397
880.00 116.3107
880.10 113.6927
880.20 110.3691
880.30 106.5545
880.40 102.8074
880.50 99.8089
880.60 97.91842
880.70 97.19206
880.80 97.67519
880.90 99.40765
881.00 102.3875
881.10 106.5141
881.20 111.549
881.30 117.1753
881.40 122.9998
881.50 128.5846
881.60 133.4333
881.70 137.0446
881.80 139.1538
881.90 139.7387
882.00 138.9269
882.10 137.0295
882.20 134.6083
882.30 132.4119
882.40 130.8945
882.50 129.939
882.60 129.173
882.70 128.5316
882.80 128.0945
882.90 127.8171
883.00 127.6644
883.10 127.6662
883.20 127.9312
883.30 128.6046
883.40 129.7941
883.50 131.3917
883.60 133.0933
883.70 134.5643
883.80 135.65
883.90 136.4728
884.00 137.173
884.10 137.4088
884.20 136.6958
884.30 134.7964
884.40 131.5993
884.50 127.2257
884.60 122.1256
884.70 117.0607
884.80 112.9368
884.90 110.6921
885.00 110.8861
885.10 113.4569
885.20 117.8057
885.30 122.8876
885.40 127.4919
885.50 130.6888
885.60 132.0018
885.70 131.3708
885.80 129.3572
885.90 127.0963
886.00 125.7121
886.10 125.7763
886.20 127.2734
886.30 129.8284
886.40 132.7936
886.50 135.2323
886.60 136.1941
886.70 135.1923
886.80 132.3613
886.90 128.1608
887.00 123.3117
887.10 118.7893
887.20 115.4921
887.30 113.9842
887.40 114.5229
887.50 117.189
887.60 121.8062
887.70 127.7745
887.80 134.251
887.90 140.386
888.00 145.523
888.10 149.2189
888.20 151.1646
888.30 151.2667
888.40 149.7409
888.50 147.1886
888.60 144.5794
888.70 142.8451
888.80 142.3233
888.90 142.8866
889.00 144.1058
889.10 145.302
889.20 145.7608
889.30 144.9164
889.40 142.4944
889.50 138.5965
889.60 133.918
889.70 129.5981
889.80 126.6282
889.90 125.3458
890.00 125.3605
890.10 125.9834
890.20 126.7487
890.30 127.4152
890.40 127.8448
890.50 128.0216
890.60 127.9704
890.70 127.7831
890.80 127.6829
890.90 127.9783
891.00 128.8005
891.10 130.1653
891.20 132.1284
891.30 134.7622
891.40 138.1143
891.50 142.0413
891.60 146.1657
891.70 149.9142
891.80 152.6165
891.90 153.6277
892.00 152.6033
892.10 149.7331
892.20 145.534
892.30 140.6961
892.40 136.0142
892.50 132.1584
892.60 129.6223
892.70 128.8218
892.80 130.0307
892.90 133.3218
893.00 138.4246
893.10 144.6832
893.20 151.2289
893.30 157.1441
893.40 161.5267
893.50 163.54
893.60 162.6565
893.70 158.7038
893.80 151.9634
893.90 143.2951
894.00 133.893
894.10 124.764
894.20 116.535
894.30 109.8364
894.40 105.4017
894.50 103.649
894.60 104.5008
894.70 107.5354
894.80 112.0863
894.90 117.3849
895.00 122.8643
895.10 128.2151
895.20 133.226
895.30 137.9611
895.40 142.7681
895.50 148.0114
895.60 153.6751
895.70 159.2715
895.80 164.1861
895.90 167.7568
896.00 169.387
896.10 168.7786
896.20 166.0135
896.30 161.5047
896.40 155.8287
896.50 149.778
896.60 144.3685
896.70 140.3123
896.80 137.8638
896.90 137.2229
897.00 138.7209
897.10 142.3623
897.20 147.4616
897.30 153.1156
897.40 158.5035
897.50 162.8788
897.60 165.7541
897.70 166.9467
897.80 166.545
897.90 164.948
898.00 162.8634
898.10 161.1548
898.20 160.5848
898.30 161.6991
898.40 164.7148
898.50 169.2794
898.60 174.4353
898.70 178.6681
898.80 180.6744
898.90 180.1493
899.00 177.4571
899.10 173.3314
899.20 168.7568
899.30 164.6335
899.40 161.3607
899.50 158.7974
899.60 156.7187
899.70 154.9851
899.80 153.5465
899.90 152.5487
900.00 152.4971
900.10 152.4456
900.20 152.394
900.30 152.3425
900.40 152.291
900.50 152.2394
900.60 152.1879
900.70 152.1363
900.80 152.0848
900.90 152.0332
901.00 151.9817
901.10 151.9301
901.20 151.8786
901.30 151.8271
901.40 151.7755
901.50 151.724
901.60 151.6724
901.70 151.6209
901.80 151.5693
901.90 151.5178
902.00 151.4663
902.10 151.4147
902.20 151.3632
902.30 151.3116
902.40 151.2601
902.50 151.2085
902.60 151.3047
902.70 151.9565
902.80 152.6084
902.90 153.2602
903.00 153.912
903.10 154.5638
903.20 155.2157
903.30 155.8675
903.40 156.5193
903.50 157.1712
903.60 157.823
903.70 158.4748
903.80 159.1267
903.90 159.7785
904.00 160.4303
904.10 161.0821
904.20 161.734
904.30 162.3858
904.40 163.0376
904.50 163.6895
904.60 164.3413
904.70 164.9931
904.80 165.645
904.90 166.2968
905.00 166.9486
905.10 167.6004
905.20 168.2523
905.30 168.9041
905.40 169.5559
905.50 170.2078
905.60 170.8596
905.70 171.5114
905.80 172.1633
905.90 172.8151
906.00 173.4669
906.10 173.8893
906.20 174.2997
906.30 174.71
906.40 175.1204
906.50 175.5307
906.60 175.9411
906.70 176.3514
906.80 176.7618
906.90 177.1721
907.00 177.5824
907.10 177.9928
907.20 178.4031
907.30 178.8135
907.40 179.2238
907.50 179.6342
907.60 180.0445
907.70 180.4549
907.80 180.8652
907.90 181.2756
908.00 181.6859
908.10 182.0963
908.20 182.5066
908.30 182.9169
908.40 183.3273
908.50 183.7376
908.60 184.148
908.70 184.5583
908.80 184.9687
908.90 185.379
909.00 185.7894
909.10 186.1997
909.20 186.6101
909.30 187.0204
909.40 187.4308
909.50 187.8124
909.60 188.1666
909.70 188.5207
909.80 188.8749
909.90 189.229
910.00 189.5832
910.10 189.9373
910.20 190.2914
910.30 190.6456
910.40 190.9997
910.50 191.3539
910.60 191.708
910.70 192.0622
910.80 192.4163
910.90 192.7704
911.00 193.1246
911.10 193.4787
911.20 193.8329
911.30 194.187
911.40 194.5412
911.50 194.8953
911.60 195.2494
911.70 195.6036
911.80 195.9577
911.90 196.3119
912.00 196.666
912.10 197.0202
912.20 197.3743
912.30 197.7284
912.40 198.0826
912.50 198.4367
912.60 198.7909
912.70 199.145
912.80 199.4992
912.90 199.8533
913.00 199.9966
913.10 200.1111
913.20 200.2256
913.30 200.3401
913.40 200.4546
913.50 200.5691
913.60 200.6836
913.70 200.7981
913.80 200.9126
913.90 201.0271
914.00 201.1416
914.10 201.2561
914.20 201.3706
914.30 201.4852
914.40 201.5997
914.50 201.7142
914.60 201.8287
914.70 201.9432
914.80 202.0577
914.90 202.1722
915.00 202.2867
915.10 202.4012
915.20 202.5157
915.30 202.6302
915.40 202.7447
915.50 202.8592
915.60 202.9737
915.70 203.0882
915.80 203.2028
915.90 203.3173
916.00 203.4318
916.10 203.5463
916.20 203.6608
916.30 203.7753
916.40 203.8999
916.50 204.1411
916.60 204.3822
916.70 204.6234
916.80 204.8646
916.90 205.1057
917.00 205.3469
917.10 205.588
917.20 205.8292
917.30 206.0703
917.40 206.3115
917.50 206.5527
917.60 206.7938
917.70 207.035
917.80 207.2761
917.90 207.5173
918.00 207.7584
918.10 207.9996
918.20 208.2408
918.30 208.4819
918.40 208.7231
918.50 208.9642
918.60 209.2054
918.70 209.4465
918.80 209.6877
918.90 209.9289
919.00 210.17
919.10 210.4112
919.20 210.6523
919.30 210.8935
919.40 211.1346
919.50 211.3758
919.60 211.617
919.70 211.8581
919.80 212.0993
919.90 212.3198
920.00 212.3548
920.10 212.3898
920.20 212.4249
920.30 212.4599
920.40 212.4949
920.50 212.5299
920.60 212.5649
920.70 212.5999
920.80 212.6349
920.90 212.6699
921.00 212.705
921.10 212.74
921.20 212.775
921.30 212.81
921.40 212.845
921.50 212.88
921.60 212.915
921.70 212.95
921.80 212.9851
921.90 213.0201
922.00 213.0551
922.10 213.0901
922.20 213.1251
922.30 213.1601
922.40 213.1951
922.50 213.2301
922.60 213.2652
922.70 213.3002
922.80 213.3352
922.90 213.3702
923.00 213.4052
923.10 213.4402
923.20 213.4752
923.30 213.5103
923.40 213.5453
923.50 214.0003
923.60 214.4821
923.70 214.9639
923.80 215.4457
923.90 215.9276
924.00 216.4094
924.10 216.8912
924.20 217.373
924.30 217.8548
924.40 218.3367
924.50 218.8185
924.60 219.3003
924.70 219.7821
924.80 220.264
924.90 220.7458
925.00 221.2276
925.10 221.7094
925.20 222.1912
925.30 222.6731
925.40 223.1549
925.50 223.6367
925.60 224.1185
925.70 224.6003
925.80 225.0822
925.90 225.564
926.00 226.0458
926.10 226.5276
926.20 227.0094
926.30 227.4913
926.40 227.9731
926.50 228.4549
926.60 228.9367
926.70 229.4186
926.80 229.9004
926.90 230.3822
927.00 230.6709
927.10 230.836
927.20 231.0012
927.30 231.1664
927.40 231.3315
927.50 231.4967
927.60 231.6619
927.70 231.8271
927.80 231.9922
927.90 232.1574
928.00 232.3226
928.10 232.4877
928.20 232.6529
928.30 232.8181
928.40 232.9832
928.50 233.1484
928.60 233.3136
928.70 233.4788
928.80 233.6439
928.90 233.8091
929.00 233.9743
929.10 234.1394
929.20 234.3046
929.30 234.4698
929.40 234.6349
929.50 234.8001
929.60 234.9653
929.70 235.1305
929.80 235.2956
929.90 235.4608
930.00 235.626
930.10 235.7911
930.20 235.9563
930.30 236.1215
930.40 236.2866
930.50 236.4415
930.60 236.5128
930.70 236.5841
930.80 236.6553
930.90 236.7266
931.00 236.7979
931.10 236.8692
931.20 236.9405
931.30 237.0117
931.40 237.083
931.50 237.1543
931.60 237.2256
931.70 237.2969
931.80 237.3681
931.90 237.4394
932.00 237.5107
932.10 237.582
932.20 237.6533
932.30 237.7245
932.40 237.7958
932.50 237.8671
932.60 237.9384
932.70 238.0097
932.80 238.081
932.90 238.1522
933.00 238.2235
933.10 238.2948
933.20 238.3661
933.30 238.4374
933.40 238.5086
933.50 238.5799
933.60 238.6512
933.70 238.7225
933.80 238.7938
933.90 238.865
934.00 238.9363
934.10 239.1203
934.20 239.4478
934.30 239.7753
934.40 240.1028
934.50 240.4302
934.60 240.7577
934.70 241.0852
934.80 241.4127
934.90 241.7401
935.00 242.0676
935.10 242.3951
935.20 242.7226
935.30 243.05
935.40 243.3775
935.50 243.705
935.60 244.0325
935.70 244.3599
935.80 244.6874
935.90 245.0149
936.00 245.3423
936.10 245.6698
936.20 245.9973
936.30 246.3248
936.40 246.6522
936.50 246.9797
936.60 247.3072
936.70 247.6347
936.80 247.9621
936.90 248.2896
937.00 248.6171
937.10 248.9446
937.20 249.272
937.30 249.5995
937.40 249.927
937.50 250.2545
937.60 250.5819
937.70 250.8516
937.80 251.0828
937.90 251.314
938.00 251.5451
938.10 251.7763
938.20 252.0074
938.30 252.2386
938.40 252.4698
938.50 252.7009
938.60 252.9321
938.70 253.1633
938.80 253.3944
938.90 253.6256
939.00 253.8567
939.10 254.0879
939.20 254.3191
939.30 254.5502
939.40 254.7814
939.50 255.0126
939.60 255.2437
939.70 255.4749
939.80 255.706
939.90 255.9372
940.00 256.1684
940.10 256.3995
940.20 256.6307
940.30 256.8619
940.40 257.093
940.50 257.3242
940.60 257.5553
940.70 257.7865
940.80 258.0177
940.90 258.2488
941.00 258.48
941.10 258.7112
941.20 258.9423
941.30 259.2937
941.40 259.7287
941.50 260.1637
941.60 260.5987
941.70 261.0337
941.80 261.4687
941.90 261.9037
942.00 262.3386
942.10 262.7736
942.20 263.2086
942.30 263.6436
942.40 264.0786
942.50 264.5136
942.60 264.9486
942.70 265.3835
942.80 265.8185
942.90 266.2535
943.00 266.6885
943.10 267.1235
943.20 267.5585
943.30 267.9935
943.40 268.4284
943.50 268.8634
943.60 269.2984
943.70 269.7334
943.80 270.1684
943.90 270.6034
944.00 271.0384
944.10 271.4733
944.20 271.9083
944.30 272.3433
944.40 272.7783
944.50 273.2133
944.60 273.6483
944.70 274.0833
944.80 274.5182
944.90 274.908
945.00 275.2326
945.10 275.5573
945.20 275.8819
945.30 276.2065
945.40 276.5312
945.50 276.8558
945.60 277.1804
945.70 277.5051
945.80 277.8297
945.90 278.1543
946.00 278.479
946.10 278.8036
946.20 279.1282
946.30 279.4529
946.40 279.7775
946.50 280.1021
946.60 280.4268
946.70 280.7514
946.80 281.0761
946.90 281.4007
947.00 281.7253
947.10 282.05
947.20 282.3746
947.30 282.6992
947.40 283.0239
947.50 283.3485
947.60 283.6731
947.70 283.9978
947.80 284.3224
947.90 284.647
948.00 284.9717
948.10 285.2963
948.20 285.6209
948.30 285.9456
948.40 286.2702
948.50 286.5687
948.60 286.5192
948.70 286.4698
948.80 286.4204
948.90 286.3709
949.00 286.3215
949.10 286.2721
949.20 286.2226
949.30 286.1732
949.40 286.1238
949.50 286.0743
949.60 286.0249
949.70 285.9755
949.80 285.926
949.90 285.8766
950.00 285.8271
950.10 285.7777
950.20 285.7283
950.30 285.6788
950.40 285.6294
950.50 285.58
950.60 285.5305
950.70 285.4811
950.80 285.4317
950.90 285.3822
951.00 285.3328
951.10 285.2834
951.20 285.2339
951.30 285.1845
951.40 285.1351
951.50 285.0856
951.60 285.0362
951.70 284.9868
951.80 284.9373
951.90 284.8879
952.00 284.8385
952.10 284.789
952.20 284.9
952.30 285.1371
952.40 285.3742
952.50 285.6113
952.60 285.8484
952.70 286.0855
952.80 286.3226
952.90 286.5597
953.00 286.7968
953.10 287.0339
953.20 287.271
953.30 287.5081
953.40 287.7452
953.50 287.9823
953.60 288.2194
953.70 288.4565
953.80 288.6936
953.90 288.9307
954.00 289.1678
954.10 289.4049
954.20 289.642
954.30 289.8791
954.40 290.1162
954.50 290.3533
954.60 290.5903
954.70 290.8274
954.80 291.0645
954.90 291.3016
955.00 291.5387
955.10 291.7758
955.20 292.0129
955.30 292.25
955.40 292.4871
955.50 292.7242
955.60 292.9613
955.70 293.1984
955.80 293.4355
955.90 293.5034
956.00 293.5524
956.10 293.6015
956.20 293.6506
956.30 293.6996
956.40 293.7487
956.50 293.7978
956.60 293.8468
956.70 293.8959
956.80 293.9449
956.90 293.994
957.00 294.0431
957.10 294.0921
957.20 294.1412
957.30 294.1903
957.40 294.2393
957.50 294.2884
957.60 294.3375
957.70 294.3865
957.80 294.4356
957.90 294.4847
958.00 294.5337
958.10 294.5828
958.20 294.6319
958.30 294.6809
958.40 294.73
958.50 294.7791
958.60 294.8281
958.70 294.8772
958.80 294.9262
958.90 294.9753
959.00 295.0244
959.10 295.0734
959.20 295.1225
959.30 295.1716
959.40 295.2206
959.50 295.2678
959.60 295.2897
959.70 295.3117
959.80 295.3336
959.90 295.3555
960.00 295.3774
960.10 295.3994
960.20 295.4213
960.30 295.4432
960.40 295.4651
960.50 295.4871
960.60 295.509
960.70 295.5309
960.80 295.5529
960.90 295.5748
961.00 295.5967
961.10 295.6186
961.20 295.6406
961.30 295.6625
961.40 295.6844
961.50 295.7063
961.60 295.7283
961.70 295.7502
961.80 295.7721
961.90 295.794
962.00 295.816
962.10 295.8379
962.20 295.8598
962.30 295.8818
962.40 295.9037
962.50 295.9256
962.60 295.9475
962.70 295.9695
962.80 295.9914
962.90 296.0133
963.00 296.0352
963.10 296.0572
963.20 296.1068
963.30 296.4369
963.40 296.767
963.50 297.0971
963.60 297.4272
963.70 297.7573
963.80 298.0874
963.90 298.4175
964.00 298.7475
964.10 299.0776
964.20 299.4077
964.30 299.7378
964.40 300.0679
964.50 300.398
964.60 300.7281
964.70 301.0582
964.80 301.3883
964.90 301.7184
965.00 302.0484
965.10 302.3785
965.20 302.7086
965.30 303.0387
965.40 303.3688
965.50 303.6989
965.60 304.029
965.70 304.3591
965.80 304.6892
965.90 305.0193
966.00 305.3493
966.10 305.6794
966.20 306.0095
966.30 306.3396
966.40 306.6697
966.50 306.9998
966.60 307.3299
966.70 307.66
966.80 307.9901
966.90 308.3202
967.00 308.601
967.10 308.8793
967.20 309.1575
967.30 309.4358
967.40 309.7141
967.50 309.9923
967.60 310.2706
967.70 310.5489
967.80 310.8271
967.90 311.1054
968.00 311.3837
968.10 311.6619
968.20 311.9402
968.30 312.2185
968.40 312.4967
968.50 312.775
968.60 313.0533
968.70 313.3316
968.80 313.6098
968.90 313.8881
969.00 314.1664
969.10 314.4446
969.20 314.7229
969.30 315.0012
969.40 315.2794
969.50 315.5577
969.60 315.836
969.70 316.1142
969.80 316.3925
969.90 316.6708
970.00 316.949
970.10 317.2273
970.20 317.5056
970.30 317.7838
970.40 318.0621
970.50 318.3404
970.60 318.6186
970.70 319.2252
970.80 320.0085
970.90 320.7919
971.00 321.5752
971.10 322.3585
971.20 323.1419
971.30 323.9252
971.40 324.7085
971.50 325.4919
971.60 326.2752
971.70 327.0585
971.80 327.8419
971.90 328.6252
972.00 329.4085
972.10 330.1919
972.20 330.9752
972.30 331.7585
972.40 332.5419
972.50 333.3252
972.60 334.1086
972.70 334.8919
972.80 335.6752
972.90 336.4586
973.00 337.2419
973.10 338.0252
973.20 338.8086
973.30 339.5919
973.40 340.3752
973.50 341.1586
973.60 341.9419
973.70 342.7252
973.80 343.5086
973.90 344.2919
974.00 345.0752
974.10 345.8586
974.20 346.6419
974.30 347.4252
974.40 348.0108
974.50 347.8526
974.60 347.6943
974.70 347.5361
974.80 347.3778
974.90 347.2195
975.00 347.0613
975.10 346.903
975.20 346.7447
975.30 346.5865
975.40 346.4282
975.50 346.27
975.60 346.1117
975.70 345.9534
975.80 345.7952
975.90 345.6369
976.00 345.4786
976.10 345.3204
976.20 345.1621
976.30 345.0038
976.40 344.8456
976.50 344.6873
976.60 344.5291
976.70 344.3708
976.80 344.2125
976.90 344.0543
977.00 343.896
977.10 343.7377
977.20 343.5795
977.30 343.4212
977.40 343.263
977.50 343.1047
977.60 342.9464
977.70 342.7882
977.80 342.6299
977.90 342.4716
978.00 342.3134
978.10 342.1551
978.20 342.0224
978.30 341.9059
978.40 341.7894
978.50 341.673
978.60 341.5565
978.70 341.4401
978.80 341.3236
978.90 341.2072
979.00 341.0907
979.10 340.9743
979.20 340.8578
979.30 340.7414
979.40 340.6249
979.50 340.5084
979.60 340.392
979.70 340.2755
979.80 340.1591
979.90 340.0426
980.00 339.9262
980.10 339.8097
980.20 339.6933
980.30 339.5768
980.40 339.4603
980.50 339.3439
980.60 339.2274
980.70 339.111
980.80 338.9945
980.90 338.8781
981.00 338.7616
981.10 338.6452
981.20 338.5287
981.30 338.4122
981.40 338.2958
981.50 338.1793
981.60 338.0629
981.70 337.9464
981.80 337.83
981.90 337.7135
982.00 337.4338
982.10 337.1276
982.20 336.8213
982.30 336.5151
982.40 336.2088
982.50 335.9026
982.60 335.5963
982.70 335.2901
982.80 334.9838
982.90 334.6776
983.00 334.3714
983.10 334.0651
983.20 333.7589
983.30 333.4526
983.40 333.1464
983.50 332.8401
983.60 332.5339
983.70 332.2276
983.80 331.9214
983.90 331.6151
984.00 331.3089
984.10 331.0026
984.20 330.6964
984.30 330.3901
984.40 330.0839
984.50 329.7776
984.60 329.4714
984.70 329.1651
984.80 328.8589
984.90 328.5526
985.00 328.2464
985.10 327.9401
985.20 327.6339
985.30 327.3276
985.40 327.0214
985.50 326.7151
985.60 326.4089
985.70 326.1026
985.80 325.2063
985.90 324.2918
986.00 323.3772
986.10 322.4626
986.20 321.5481
986.30 320.6335
986.40 319.719
986.50 318.8044
986.60 317.8898
986.70 316.9753
986.80 316.0607
986.90 315.1462
987.00 314.2316
987.10 313.317
987.20 312.4025
987.30 311.4879
987.40 310.5734
987.50 309.6588
987.60 308.7442
987.70 307.8297
987.80 306.9151
987.90 306.0006
988.00 305.086
988.10 304.1714
988.20 303.2569
988.30 302.3423
988.40 301.4278
988.50 300.5132
988.60 299.5986
988.70 298.6841
988.80 297.7695
988.90 296.855
989.00 295.9404
989.10 295.0258
989.20 294.1113
989.30 293.1967
989.40 292.2822
989.50 291.3676
989.60 290.6149
989.70 289.8745
989.80 289.134
989.90 288.3935
990.00 287.653
990.10 286.9126
990.20 286.1721
990.30 285.4316
990.40 284.6911
990.50 283.9507
990.60 283.2102
990.70 282.4697
990.80 281.7292
990.90 280.9888
991.00 280.2483
991.10 279.5078
991.20 278.7674
991.30 278.0269
991.40 277.2864
991.50 276.5459
991.60 275.8055
991.70 275.065
991.80 274.3245
991.90 273.584
992.00 272.8436
992.10 272.1031
992.20 271.3626
992.30 270.6221
992.40 269.8817
992.50 269.1412
992.60 268.4007
992.70 267.6602
992.80 266.9198
992.90 266.1793
993.00 265.4388
993.10 264.6983
993.20 263.9579
993.30 263.2174
993.40 262.6241
993.50 262.0798
993.60 261.5355
993.70 260.9912
993.80 260.447
993.90 259.9027
994.00 259.3584
994.10 258.8141
994.20 258.2699
994.30 257.7256
994.40 257.1813
994.50 256.637
994.60 256.0928
994.70 255.5485
994.80 255.0042
994.90 254.4599
995.00 253.9157
995.10 253.3714
995.20 252.8271
995.30 252.2828
995.40 251.7386
995.50 251.1943
995.60 250.65
995.70 250.1057
995.80 249.5614
995.90 249.0172
996.00 248.4729
996.10 247.9286
996.20 247.3843
996.30 246.8401
996.40 246.2958
996.50 245.7515
996.60 245.2072
996.70 244.663
996.80 244.1187
996.90 243.5744
997.00 243.0301
997.10 242.4859
997.20 242.3302
997.30 242.7112
997.40 243.0923
997.50 243.4733
997.60 243.8543
997.70 244.2353
997.80 244.6163
997.90 244.9974
998.00 245.3784
998.10 245.7594
998.20 246.1404
998.30 246.5215
998.40 246.9025
998.50 247.2835
998.60 247.6645
998.70 248.0456
998.80 248.4266
998.90 248.8076
999.00 249.1886
999.10 249.5697
999.20 249.9507
999.30 250.3317
999.40 250.7127
999.50 251.0937
999.60 251.4748
999.70 251.8558
999.80 252.2368
999.90 252.6178
1000.00 252.9989
1000.10 253.3799
1000.20 253.7609
1000.30 254.1419
1000.40 254.523
1000.50 254.904
1000.60 255.285
1000.70 255.666
1000.80 256.0471
1000.90 256.4281
1001.00 256.8091
1001.10 257.1011
1001.20 257.393
1001.30 257.685
1001.40 257.977
1001.50 258.2689
1001.60 258.5609
1001.70 258.8529
1001.80 259.1448
1001.90 259.4368
1002.00 259.7288
1002.10 260.0207
1002.20 260.3127
1002.30 260.6047
1002.40 260.8967
1002.50 261.1886
1002.60 261.4806
1002.70 261.7726
1002.80 262.0645
1002.90 262.3565
1003.00 262.6485
1003.10 262.9404
1003.20 263.2324
1003.30 263.5244
1003.40 263.8163
1003.50 264.1083
1003.60 264.4003
1003.70 264.6922
1003.80 264.9842
1003.90 265.2762
1004.00 265.5681
1004.10 265.8601
1004.20 266.1521
1004.30 266.444
1004.40 266.736
1004.50 267.028
1004.60 267.32
1004.70 267.6119
1004.80 267.9039
1004.90 268.2504
1005.00 268.6787
1005.10 269.107
1005.20 269.5354
1005.30 269.9637
1005.40 270.392
1005.50 270.8203
1005.60 271.2486
1005.70 271.6769
1005.80 272.1053
1005.90 272.5336
1006.00 272.9619
1006.10 273.3902
1006.20 273.8185
1006.30 274.2469
1006.40 274.6752
1006.50 275.1035
1006.60 275.5318
1006.70 275.9601
1006.80 276.3885
1006.90 276.8168
1007.00 277.2451
1007.10 277.6734
1007.20 278.1017
1007.30 278.5301
1007.40 278.9584
1007.50 279.3867
1007.60 279.815
1007.70 280.2433
1007.80 280.6717
1007.90 281.1
1008.00 281.5283
1008.10 281.9566
1008.20 282.3849
1008.30 282.8133
1008.40 283.2416
1008.50 283.6699
1008.60 284.0982
1008.70 284.5265
1008.80 284.9282
1008.90 285.3122
1009.00 285.6961
1009.10 286.08
1009.20 286.464
1009.30 286.8479
1009.40 287.2318
1009.50 287.6158
1009.60 287.9997
1009.70 288.3836
1009.80 288.7676
1009.90 289.1515
1010.00 289.5354
1010.10 289.9194
1010.20 290.3033
1010.30 290.6872
1010.40 291.0712
1010.50 291.4551
1010.60 291.839
1010.70 292.223
1010.80 292.6069
1010.90 292.9908
1011.00 293.3748
1011.10 293.7587
1011.20 294.1426
1011.30 294.5266
1011.40 294.9105
1011.50 295.2944
1011.60 295.6784
1011.70 296.0623
1011.80 296.4463
1011.90 296.8302
1012.00 297.2141
1012.10 297.5981
1012.20 297.982
1012.30 298.3659
1012.40 298.7499
1012.50 299.1338
1012.60 299.5177
1012.70 299.7452
1012.80 299.9336
1012.90 300.1221
1013.00 300.3105
1013.10 300.4989
1013.20 300.6873
1013.30 300.8757
1013.40 301.0641
1013.50 301.2525
1013.60 301.4409
1013.70 301.6293
1013.80 301.8177
1013.90 302.0061
1014.00 302.1945
1014.10 302.3829
1014.20 302.5714
1014.30 302.7598
1014.40 302.9482
1014.50 303.1366
1014.60 303.325
1014.70 303.5134
1014.80 303.7018
1014.90 303.8902
1015.00 304.0786
1015.10 304.267
1015.20 304.4554
1015.30 304.6438
1015.40 304.8322
1015.50 305.0206
1015.60 305.2091
1015.70 305.3975
1015.80 305.5859
1015.90 305.7743
1016.00 305.9627
1016.10 306.1511
1016.20 306.3395
1016.30 306.5279
1016.40 306.7163
1016.50 306.9047
1016.60 306.8305
1016.70 306.6907
1016.80 306.5508
1016.90 306.4109
1017.00 306.2711
1017.10 306.1312
1017.20 305.9914
1017.30 305.8515
1017.40 305.7116
1017.50 305.5718
1017.60 305.4319
1017.70 305.2921
1017.80 305.1522
1017.90 305.0123
1018.00 304.8725
1018.10 304.7326
1018.20 304.5928
1018.30 304.4529
1018.40 304.313
1018.50 304.1732
1018.60 304.0333
1018.70 303.8935
1018.80 303.7536
1018.90 303.6138
1019.00 303.4739
1019.10 303.334
1019.20 303.1942
1019.30 303.0543
1019.40 302.9145
1019.50 302.7746
1019.60 302.6347
1019.70 302.4949
1019.80 302.355
1019.90 302.2152
1020.00 302.0753
1020.10 301.9354
1020.20 301.7956
1020.30 301.6557
1020.40 301.5159
1020.50 301.7616
1020.60 302.2643
1020.70 302.7671
1020.80 303.2699
1020.90 303.7727
1021.00 304.2754
1021.10 304.7782
1021.20 305.281
1021.30 305.7837
1021.40 306.2865
1021.50 306.7893
1021.60 307.2921
1021.70 307.7948
1021.80 308.2976
1021.90 308.8004
1022.00 309.3031
1022.10 309.8059
1022.20 310.3087
1022.30 310.8114
1022.40 311.3142
1022.50 311.817
1022.60 312.3198
1022.70 312.8225
1022.80 313.3253
1022.90 313.8281
1023.00 314.3308
1023.10 314.8336
1023.20 315.3364
1023.30 315.8391
1023.40 316.3419
1023.50 316.8447
1023.60 317.3475
1023.70 317.8502
1023.80 318.353
1023.90 318.8558
1024.00 319.3585
1024.10 319.8613
1024.20 320.3641
1024.30 320.8669
1024.40 321.1746
1024.50 321.1899
1024.60 321.2052
1024.70 321.2205
1024.80 321.2357
1024.90 321.251
1025.00 321.2663
1025.10 321.2816
1025.20 321.2968
1025.30 321.3121
1025.40 321.3274
1025.50 321.3427
1025.60 321.3579
1025.70 321.3732
1025.80 321.3885
1025.90 321.4038
1026.00 321.419
1026.10 321.4343
1026.20 321.4496
1026.30 321.4649
1026.40 321.4801
1026.50 321.4954
1026.60 321.5107
1026.70 321.526
1026.80 321.5412
1026.90 321.5565
1027.00 321.5718
1027.10 321.5871
1027.20 321.6023
1027.30 321.6176
1027.40 321.6329
1027.50 321.6482
1027.60 321.6634
1027.70 321.6787
1027.80 321.694
1027.90 321.7093
1028.00 321.7246
1028.10 321.7398
1028.20 321.7551
1028.30 321.7704
1028.40 322.2883
1028.50 322.8063
1028.60 323.3243
1028.70 323.8422
1028.80 324.3602
1028.90 324.8782
1029.00 325.3961
1029.10 325.9141
1029.20 326.4321
1029.30 326.95
1029.40 327.468
1029.50 327.986
1029.60 328.5039
1029.70 329.0219
1029.80 329.5399
1029.90 330.0578
1030.00 330.5758
1030.10 331.0938
1030.20 331.6117
1030.30 332.1297
1030.40 332.6477
1030.50 333.1656
1030.60 333.6836
1030.70 334.2015
1030.80 334.7195
1030.90 335.2375
1031.00 335.7554
1031.10 336.2734
1031.20 336.7914
1031.30 337.3093
1031.40 337.8273
1031.50 338.3453
1031.60 338.8632
1031.70 339.3812
1031.80 339.8992
1031.90 340.4171
1032.00 340.9351
1032.10 341.4531
1032.20 341.971
1032.30 342.3363
1032.40 342.5489
1032.50 342.7615
1032.60 342.9741
1032.70 343.1867
1032.80 343.3993
1032.90 343.6119
1033.00 343.8245
1033.10 344.0371
1033.20 344.2497
1033.30 344.4623
1033.40 344.6749
1033.50 344.8875
1033.60 345.1001
1033.70 345.3127
1033.80 345.5253
1033.90 345.7379
1034.00 345.9505
1034.10 346.1631
1034.20 346.3757
1034.30 346.5883
1034.40 346.8009
1034.50 347.0134
1034.60 347.226
1034.70 347.4386
1034.80 347.6512
1034.90 347.8638
1035.00 348.0764
1035.10 348.289
1035.20 348.5016
1035.30 348.7142
1035.40 348.9268
1035.50 349.1394
1035.60 349.352
1035.70 349.5646
1035.80 349.7772
1035.90 349.9898
1036.00 350.2024
1036.10 350.415
1036.20 350.6276
1036.30 351.0394
1036.40 351.501
1036.50 351.9626
1036.60 352.4243
1036.70 352.8859
1036.80 353.3475
1036.90 353.8091
1037.00 354.2707
1037.10 354.7323
1037.20 355.194
1037.30 355.6556
1037.40 356.1172
1037.50 356.5788
1037.60 357.0404
1037.70 357.502
1037.80 357.9637
1037.90 358.4253
1038.00 358.8869
1038.10 359.3485
1038.20 359.8101
1038.30 360.2717
1038.40 360.7334
1038.50 361.195
1038.60 361.6566
1038.70 362.1182
1038.80 362.5798
1038.90 363.0414
1039.00 363.503
1039.10 363.9647
1039.20 364.4263
1039.30 364.8879
1039.40 365.3495
1039.50 365.8111
1039.60 366.2727
1039.70 366.7344
1039.80 367.196
1039.90 367.6576
1040.00 368.1192
1040.10 368.5808
1040.20 369.052
1040.30 369.6094
1040.40 370.1667
1040.50 370.724
1040.60 371.2814
1040.70 371.8387
1040.80 372.3961
1040.90 372.9534
1041.00 373.5107
1041.10 374.0681
1041.20 374.6254
1041.30 375.1828
1041.40 375.7401
1041.50 376.2974
1041.60 376.8548
1041.70 377.4121
1041.80 377.9695
1041.90 378.5268
1042.00 379.0842
1042.10 379.6415
1042.20 380.1988
1042.30 380.7562
1042.40 381.3135
1042.50 381.8709
1042.60 382.4282
1042.70 382.9855
1042.80 383.5429
1042.90 384.1002
1043.00 384.6576
1043.10 385.2149
1043.20 385.7722
1043.30 386.3296
1043.40 386.8869
1043.50 387.4443
1043.60 388.0016
1043.70 388.5589
1043.80 389.1163
1043.90 389.6736
1044.00 390.231
1044.10 390.7883
1044.20 391.2457
1044.30 391.3034
1044.40 391.361
1044.50 391.4187
1044.60 391.4763
1044.70 391.534
1044.80 391.5916
1044.90 391.6493
1045.00 391.7069
1045.10 391.7646
1045.20 391.8222
1045.30 391.8799
1045.40 391.9376
1045.50 391.9952
1045.60 392.0529
1045.70 392.1105
1045.80 392.1682
1045.90 392.2258
1046.00 392.2835
1046.10 392.3411
1046.20 392.3988
1046.30 392.4564
1046.40 392.5141
1046.50 392.5717
1046.60 392.6294
1046.70 392.687
1046.80 392.7447
1046.90 392.8024
1047.00 392.86
1047.10 392.9177
1047.20 392.9753
1047.30 393.033
1047.40 393.0906
1047.50 393.1483
1047.60 393.2059
1047.70 393.2636
1047.80 393.3212
1047.90 393.3789
1048.00 393.4365
1048.10 393.4942
1048.20 393.4901
1048.30 393.3421
1048.40 393.194
1048.50 393.0459
1048.60 392.8979
1048.70 392.7498
1048.80 392.6017
1048.90 392.4537
1049.00 392.3056
1049.10 392.1576
1049.20 392.0095
1049.30 391.8614
1049.40 391.7134
1049.50 391.5653
1049.60 391.4172
1049.70 391.2692
1049.80 391.1211
1049.90 390.973
1050.00 390.825
1050.10 390.6769
1050.20 390.5288
1050.30 390.3808
1050.40 390.2327
1050.50 390.0846
1050.60 389.9366
1050.70 389.7885
1050.80 389.6405
1050.90 389.4924
1051.00 389.3443
1051.10 389.1963
1051.20 389.0482
1051.30 388.9001
1051.40 388.7521
1051.50 388.604
1051.60 388.4559
1051.70 388.3079
1051.80 388.1598
1051.90 388.0117
1052.00 387.8637
1052.10 387.7156
1052.20 387.7306
1052.30 388.3976
1052.40 389.0646
1052.50 389.7317
1052.60 390.3987
1052.70 391.0658
1052.80 391.7328
1052.90 392.3998
1053.00 393.0669
1053.10 393.7339
1053.20 394.401
1053.30 395.068
1053.40 395.735
1053.50 396.4021
1053.60 397.0691
1053.70 397.7362
1053.80 398.4032
1053.90 399.0702
1054.00 399.7373
1054.10 400.4043
1054.20 401.0714
1054.30 401.7384
1054.40 402.4054
1054.50 403.0725
1054.60 403.7395
1054.70 404.4066
1054.80 405.0736
1054.90 405.7406
1055.00 406.4077
1055.10 407.0747
1055.20 407.7418
1055.30 408.4088
1055.40 409.0758
1055.50 409.7429
1055.60 410.4099
1055.70 411.077
1055.80 411.744
1055.90 412.411
1056.00 413.0781
1056.10 413.7451
1056.20 414.4122
1056.30 414.3601
1056.40 414.3079
1056.50 414.2558
1056.60 414.2037
1056.70 414.1516
1056.80 414.0995
1056.90 414.0474
1057.00 413.9953
1057.10 413.9431
1057.20 413.891
1057.30 413.8389
1057.40 413.7868
1057.50 413.7347
1057.60 413.6826
1057.70 413.6305
1057.80 413.5783
1057.90 413.5262
1058.00 413.4741
1058.10 413.422
1058.20 413.3699
1058.30 413.3178
1058.40 413.2657
1058.50 413.2135
1058.60 413.1614
1058.70 413.1093
1058.80 413.0572
1058.90 413.0051
1059.00 412.953
1059.10 412.9009
1059.20 412.8487
1059.30 412.7966
1059.40 412.7445
1059.50 412.6924
1059.60 412.6403
1059.70 412.5882
1059.80 412.5361
1059.90 412.4839
1060.00 412.4318
1060.10 412.3797
1060.20 412.3276
1060.30 412.484
1060.40 412.7794
1060.50 413.0748
1060.60 413.3702
1060.70 413.6656
1060.80 413.9611
1060.90 414.2565
1061.00 414.5519
1061.10 414.8473
1061.20 415.1427
1061.30 415.4381
1061.40 415.7335
1061.50 416.0289
1061.60 416.3243
1061.70 416.6198
1061.80 416.9152
1061.90 417.2106
1062.00 417.506
1062.10 417.8014
1062.20 418.0968
1062.30 418.3922
1062.40 418.6876
1062.50 418.983
1062.60 419.2785
1062.70 419.5739
1062.80 419.8693
1062.90 420.1647
1063.00 420.4601
1063.10 420.7555
1063.20 421.0509
1063.30 421.3463
1063.40 421.6417
1063.50 421.9372
1063.60 422.2326
1063.70 422.528
1063.80 422.8234
1063.90 423.1188
1064.00 423.4142
1064.10 423.7096
1064.20 424.005
1064.30 424.2844
1064.40 424.4994
1064.50 424.7145
1064.60 424.9296
1064.70 425.1447
1064.80 425.3597
1064.90 425.5748
1065.00 425.7899
1065.10 426.0049
1065.20 426.22
1065.30 426.4351
1065.40 426.6502
1065.50 426.8652
1065.60 427.0803
1065.70 427.2954
1065.80 427.5104
1065.90 427.7255
1066.00 427.9406
1066.10 428.1557
1066.20 428.3707
1066.30 428.5858
1066.40 428.8009
1066.50 429.0159
1066.60 429.231
1066.70 429.4461
1066.80 429.6612
1066.90 429.8762
1067.00 430.0913
1067.10 430.3064
1067.20 430.5214
1067.30 430.7365
1067.40 430.9516
1067.50 431.1667
1067.60 431.3817
1067.70 431.5968
1067.80 431.8119
1067.90 432.0269
1068.00 432.242
1068.10 432.4571
1068.20 432.6722
1068.30 432.8872
1068.40 433.2921
1068.50 433.7783
1068.60 434.2645
1068.70 434.7507
1068.80 435.2369
1068.90 435.7231
1069.00 436.2093
1069.10 436.6955
1069.20 437.1817
1069.30 437.6679
1069.40 438.1541
1069.50 438.6403
1069.60 439.1265
1069.70 439.6127
1069.80 440.0989
1069.90 440.585
1070.00 441.0712
1070.10 441.5574
1070.20 442.0436
1070.30 442.5298
1070.40 443.016
1070.50 443.5022
1070.60 443.9884
1070.70 444.4746
1070.80 444.9608
1070.90 445.447
1071.00 445.9332
1071.10 446.4194
1071.20 446.9056
1071.30 447.3918
1071.40 447.878
1071.50 448.3642
1071.60 448.8504
1071.70 449.3366
1071.80 449.8228
1071.90 450.309
1072.00 450.7952
1072.10 451.2814
1072.20 451.7676
1072.30 452.2538
1072.40 452.6988
1072.50 452.7729
1072.60 452.8471
1072.70 452.9213
1072.80 452.9954
1072.90 453.0696
1073.00 453.1437
1073.10 453.2179
1073.20 453.292
1073.30 453.3662
1073.40 453.4403
1073.50 453.5145
1073.60 453.5887
1073.70 453.6628
1073.80 453.737
1073.90 453.8111
1074.00 453.8853
1074.10 453.9594
1074.20 454.0336
1074.30 454.1078
1074.40 454.1819
1074.50 454.2561
1074.60 454.3302
1074.70 454.4044
1074.80 454.4785
1074.90 454.5527
1075.00 454.6269
1075.10 454.701
1075.20 454.7752
1075.30 454.8493
1075.40 454.9235
1075.50 454.9976
1075.60 455.0718
1075.70 455.1459
1075.80 455.2201
1075.90 455.2943
1076.00 455.3684
1076.10 455.4426
1076.20 455.5167
1076.30 455.5909
1076.40 455.665
1076.50 455.9062
1076.60 456.3979
1076.70 456.8896
1076.80 457.3813
1076.90 457.873
1077.00 458.3647
1077.10 458.8564
1077.20 459.3481
1077.30 459.8398
1077.40 460.3315
1077.50 460.8232
1077.60 461.3149
1077.70 461.8066
1077.80 462.2983
1077.90 462.79
1078.00 463.2816
1078.10 463.7733
1078.20 464.265
1078.30 464.7567
1078.40 465.2484
1078.50 465.7401
1078.60 466.2318
1078.70 466.7235
1078.80 467.2152
1078.90 467.7069
1079.00 468.1986
1079.10 468.6903
1079.20 469.182
1079.30 469.6737
1079.40 470.1654
1079.50 470.6571
1079.60 471.1488
1079.70 471.6405
1079.80 472.1322
1079.90 472.6239
1080.00 473.1156
1080.10 473.6072
1080.20 474.0989
1080.30 474.5906
1080.40 475.0823
1080.50 475.574
1080.60 475.9052
1080.70 476.0759
1080.80 476.2467
1080.90 476.4174
1081.00 476.5881
1081.10 476.7588
1081.20 476.9295
1081.30 477.1003
1081.40 477.271
1081.50 477.4417
1081.60 477.6124
1081.70 477.7831
1081.80 477.9538
1081.90 478.1246
1082.00 478.2953
1082.10 478.466
1082.20 478.6367
1082.30 478.8074
1082.40 478.9781
1082.50 479.1489
1082.60 479.3196
1082.70 479.4903
1082.80 479.661
1082.90 479.8317
1083.00 480.0025
1083.10 480.1732
1083.20 480.3439
1083.30 480.5146
1083.40 480.6853
1083.50 480.856
1083.60 481.0268
1083.70 481.1975
1083.80 481.3682
1083.90 481.5389
1084.00 481.7096
1084.10 481.8803
1084.20 482.0511
1084.30 482.2218
1084.40 482.3925
1084.50 482.5632
1084.60 482.7339
1084.70 483.0369
1084.80 483.428
1084.90 483.8192
1085.00 484.2103
1085.10 484.6015
1085.20 484.9926
1085.30 485.3838
1085.40 485.7749
1085.50 486.166
1085.60 486.5572
1085.70 486.9483
1085.80 487.3395
1085.90 487.7306
1086.00 488.1218
1086.10 488.5129
1086.20 488.9041
1086.30 489.2952
1086.40 489.6863
1086.50 490.0775
1086.60 490.4686
1086.70 490.8598
1086.80 491.2509
1086.90 491.6421
1087.00 492.0332
1087.10 492.4243
1087.20 492.8155
1087.30 493.2066
1087.40 493.5978
1087.50 493.9889
1087.60 494.3801
1087.70 494.7712
1087.80 495.1623
1087.90 495.5535
1088.00 495.9446
1088.10 496.3358
1088.20 496.7269
1088.30 497.1181
1088.40 497.5092
1088.50 497.9003
1088.60 498.2915
1088.70 498.6826
1088.80 499.0098
1088.90 499.2944
1089.00 499.579
1089.10 499.8636
1089.20 500.1482
1089.30 500.4328
1089.40 500.7174
1089.50 501.002
1089.60 501.2866
1089.70 501.5712
1089.80 501.8558
1089.90 502.1404
1090.00 502.425
1090.10 502.7096
1090.20 502.9942
1090.30 503.2788
1090.40 503.5633
1090.50 503.8479
1090.60 504.1325
1090.70 504.4171
1090.80 504.7017
1090.90 504.9863
1091.00 505.2709
1091.10 505.5555
1091.20 505.8401
1091.30 506.1247
1091.40 506.4093
1091.50 506.6939
1091.60 506.9785
1091.70 507.2631
1091.80 507.5477
1091.90 507.8323
1092.00 508.1168
1092.10 508.4014
1092.20 508.686
1092.30 508.9706
1092.40 509.2552
1092.50 509.5398
1092.60 509.8244
1092.70 510.109
1092.80 510.3936
1092.90 510.6942
1093.00 511.0107
1093.10 511.3272
1093.20 511.6437
1093.30 511.9603
1093.40 512.2768
1093.50 512.5933
1093.60 512.9098
1093.70 513.2264
1093.80 513.5429
1093.90 513.8594
1094.00 514.1759
1094.10 514.4925
1094.20 514.809
1094.30 515.1255
1094.40 515.442
1094.50 515.7586
1094.60 516.0751
1094.70 516.3916
1094.80 516.7081
1094.90 517.0247
1095.00 517.3412
1095.10 517.6577
1095.20 517.9742
1095.30 518.2908
1095.40 518.6073
1095.50 518.9238
1095.60 519.2403
1095.70 519.5569
1095.80 519.8734
1095.90 520.1899
1096.00 520.5064
1096.10 520.823
1096.20 521.1395
1096.30 521.456
1096.40 521.7726
1096.50 522.0891
1096.60 522.4056
1096.70 522.7221
1096.80 523.0387
1096.90 523.3552
1097.00 523.5474
1097.10 523.4494
1097.20 523.3515
1097.30 523.2536
1097.40 523.1556
1097.50 523.0577
1097.60 522.9598
1097.70 522.8618
1097.80 522.7639
1097.90 522.666
1098.00 522.568
1098.10 522.4701
1098.20 522.3722
1098.30 522.2742
1098.40 522.1763
1098.50 522.0784
1098.60 521.9804
1098.70 521.8825
1098.80 521.7846
1098.90 521.6866
1099.00 521.5887
1099.10 521.4908
1099.20 521.3928
1099.30 521.2949
1099.40 521.197
1099.50 521.099
1099.60 521.0011
1099.70 520.9032
1099.80 520.8052
1099.90 520.7073
1100.00 520.6094
1100.10 520.5114
1100.20 520.4135
1100.30 520.3156
1100.40 520.2176
1100.50 520.1197
1100.60 520.0218
1100.70 519.9238
1100.80 519.8259
1100.90 519.7279
1101.00 519.63
1101.10 519.5321
1101.20 519.5305
1101.30 519.529
1101.40 519.5275
1101.50 519.5259
1101.60 519.5244
1101.70 519.5229
1101.80 519.5213
1101.90 519.5198
1102.00 519.5183
1102.10 519.5167
1102.20 519.5152
1102.30 519.5137
1102.40 519.5121
1102.50 519.5106
1102.60 519.5091
1102.70 519.5075
1102.80 519.506
1102.90 519.5045
1103.00 519.5029
1103.10 519.5014
1103.20 519.4999
1103.30 519.4983
1103.40 519.4968
1103.50 519.4953
1103.60 519.4937
1103.70 519.4922
1103.80 519.4907
1103.90 519.4891
1104.00 519.4876
1104.10 519.4861
1104.20 519.4845
1104.30 519.483
1104.40 519.4815
1104.50 519.4799
1104.60 519.4784
1104.70 519.4769
1104.80 519.4753
1104.90 519.4738
1105.00 519.4723
1105.10 519.4707
1105.20 519.4692
1105.30 519.4154
1105.40 519.3269
1105.50 519.2383
1105.60 519.1497
1105.70 519.0612
1105.80 518.9726
1105.90 518.884
1106.00 518.7955
1106.10 518.7069
1106.20 518.6184
1106.30 518.5298
1106.40 518.4412
1106.50 518.3527
1106.60 518.2641
1106.70 518.1755
1106.80 518.087
1106.90 517.9984
1107.00 517.9098
1107.10 517.8213
1107.20 517.7327
1107.30 517.6441
1107.40 517.5556
1107.50 517.467
1107.60 517.3785
1107.70 517.2899
1107.80 517.2013
1107.90 517.1128
1108.00 517.0242
1108.10 516.9356
1108.20 516.8471
1108.30 516.7585
1108.40 516.6699
1108.50 516.5814
1108.60 516.4928
1108.70 516.4042
1108.80 516.3157
1108.90 516.2271
1109.00 516.1386
1109.10 516.05
1109.20 515.9614
1109.30 515.8729
1109.40 515.8276
1109.50 515.9555
1109.60 516.0834
1109.70 516.2114
1109.80 516.3393
1109.90 516.4672
1110.00 516.5951
1110.10 516.723
1110.20 516.851
1110.30 516.9789
1110.40 517.1068
1110.50 517.2347
1110.60 517.3626
1110.70 517.4906
1110.80 517.6185
1110.90 517.7464
1111.00 517.8743
1111.10 518.0022
1111.20 518.1302
1111.30 518.2581
1111.40 518.386
1111.50 518.5139
1111.60 518.6418
1111.70 518.7698
1111.80 518.8977
1111.90 519.0256
1112.00 519.1535
1112.10 519.2815
1112.20 519.4094
1112.30 519.5373
1112.40 519.6652
1112.50 519.7931
1112.60 519.9211
1112.70 520.049
1112.80 520.1769
1112.90 520.3048
1113.00 520.4327
1113.10 520.5607
1113.20 520.6886
1113.30 520.8165
1113.40 520.9444
1113.50 521.0723
1113.60 521.2494
1113.70 521.4593
1113.80 521.6692
1113.90 521.879
1114.00 522.0889
1114.10 522.2987
1114.20 522.5086
1114.30 522.7185
1114.40 522.9283
1114.50 523.1382
1114.60 523.3481
1114.70 523.5579
1114.80 523.7678
1114.90 523.9777
1115.00 524.1875
1115.10 524.3974
1115.20 524.6072
1115.30 524.8171
1115.40 525.027
1115.50 525.2368
1115.60 525.4467
1115.70 525.6566
1115.80 525.8664
1115.90 526.0763
1116.00 526.2862
1116.10 526.496
1116.20 526.7059
1116.30 526.9157
1116.40 527.1256
1116.50 527.3355
1116.60 527.5453
1116.70 527.7552
1116.80 527.9651
1116.90 528.1749
1117.00 528.3848
1117.10 528.5947
1117.20 528.8045
1117.30 529.0144
1117.40 529.2242
1117.50 529.4341
1117.60 529.644
1117.70 529.8538
1117.80 530.0189
1117.90 530.184
1118.00 530.3492
1118.10 530.5143
1118.20 530.6794
1118.30 530.8445
1118.40 531.0096
1118.50 531.1747
1118.60 531.3398
1118.70 531.5049
1118.80 531.67
1118.90 531.8351
1119.00 532.0002
1119.10 532.1653
1119.20 532.3304
1119.30 532.4955
1119.40 532.6606
1119.50 532.8257
1119.60 532.9908
1119.70 533.1559
1119.80 533.321
1119.90 533.4861
1120.00 533.6512
1120.10 533.8164
1120.20 533.9815
1120.30 534.1466
1120.40 534.3117
1120.50 534.4768
1120.60 534.6419
1120.70 534.807
1120.80 534.9721
1120.90 535.1372
1121.00 535.3023
1121.10 535.4674
1121.20 535.6325
1121.30 535.7976
1121.40 535.9627
1121.50 536.1278
1121.60 536.2929
1121.70 536.458
1121.80 536.6231
1121.90 536.6848
1122.00 536.5052
1122.10 536.3256
1122.20 536.146
1122.30 535.9664
1122.40 535.7868
1122.50 535.6072
1122.60 535.4276
1122.70 535.248
1122.80 535.0684
1122.90 534.8888
1123.00 534.7092
1123.10 534.5296
1123.20 534.35
1123.30 534.1704
1123.40 533.9908
1123.50 533.8112
1123.60 533.6316
1123.70 533.452
1123.80 533.2724
1123.90 533.0928
1124.00 532.9132
1124.10 532.7336
1124.20 532.554
1124.30 532.3744
1124.40 532.1947
1124.50 532.0151
1124.60 531.8355
1124.70 531.6559
1124.80 531.4763
1124.90 531.2967
1125.00 531.1171
1125.10 530.9375
1125.20 530.7579
1125.30 530.5783
1125.40 530.3987
1125.50 530.2191
1125.60 530.0395
1125.70 529.8599
1125.80 529.6803
1125.90 529.5007
1126.00 529.3211
1126.10 529.0963
1126.20 528.8262
1126.30 528.5561
1126.40 528.286
1126.50 528.0159
1126.60 527.7458
1126.70 527.4757
1126.80 527.2056
1126.90 526.9355
1127.00 526.6654
1127.10 526.3953
1127.20 526.1252
1127.30 525.8551
1127.40 525.585
1127.50 525.3149
1127.60 525.0449
1127.70 524.7748
1127.80 524.5047
1127.90 524.2346
1128.00 523.9645
1128.10 523.6944
1128.20 523.4243
1128.30 523.1542
1128.40 522.8841
1128.50 522.614
1128.60 522.3439
1128.70 522.0738
1128.80 521.8037
1128.90 521.5336
1129.00 521.2635
1129.10 520.9934
1129.20 520.7234
1129.30 520.4533
1129.40 520.1832
1129.50 519.9131
1129.60 519.643
1129.70 519.3729
1129.80 519.1028
1129.90 518.8327
1130.00 518.5626
1130.10 518.2925
1130.20 518.0224
1130.30 517.5973
1130.40 517.1058
1130.50 516.6142
1130.60 516.1227
1130.70 515.6312
1130.80 515.1396
1130.90 514.6481
1131.00 514.1565
1131.10 513.665
1131.20 513.1735
1131.30 512.6819
1131.40 512.1904
1131.50 511.6988
1131.60 511.2073
1131.70 510.7158
1131.80 510.2242
1131.90 509.7327
1132.00 509.2411
1132.10 508.7496
1132.20 508.2581
1132.30 507.7665
1132.40 507.275
1132.50 506.7834
1132.60 506.2919
1132.70 505.8004
1132.80 505.3088
1132.90 504.8173
1133.00 504.3257
1133.10 503.8342
1133.20 503.3427
1133.30 502.8511
1133.40 502.3596
1133.50 501.868
1133.60 501.3765
1133.70 500.885
1133.80 500.3934
1133.90 499.9019
1134.00 499.4103
1134.10 498.9188
1134.20 498.4273
1134.30 497.9357
1134.40 497.4442
1134.50 497.2728
1134.60 497.1814
1134.70 497.09
1134.80 496.9986
1134.90 496.9073
1135.00 496.8159
1135.10 496.7245
1135.20 496.6331
1135.30 496.5417
1135.40 496.4504
1135.50 496.359
1135.60 496.2676
1135.70 496.1762
1135.80 496.0849
1135.90 495.9935
1136.00 495.9021
1136.10 495.8107
1136.20 495.7193
1136.30 495.628
1136.40 495.5366
1136.50 495.4452
1136.60 495.3538
1136.70 495.2625
1136.80 495.1711
1136.90 495.0797
1137.00 494.9883
1137.10 494.8969
1137.20 494.8056
1137.30 494.7142
1137.40 494.6228
1137.50 494.5314
1137.60 494.44
1137.70 494.3487
1137.80 494.2573
1137.90 494.1659
1138.00 494.0745
1138.10 493.9832
1138.20 493.8918
1138.30 493.8004
1138.40 493.709
1138.50 493.6176
1138.60 493.5263
1138.70 493.841
1138.80 494.2573
1138.90 494.6736
1139.00 495.0898
1139.10 495.5061
1139.20 495.9224
1139.30 496.3387
1139.40 496.7549
1139.50 497.1712
1139.60 497.5875
1139.70 498.0038
1139.80 498.42
1139.90 498.8363
1140.00 499.2526
1140.10 499.6689
1140.20 500.0851
1140.30 500.5014
1140.40 500.9177
1140.50 501.334
1140.60 501.7502
1140.70 502.1665
1140.80 502.5828
1140.90 502.9991
1141.00 503.4153
1141.10 503.8316
1141.20 504.2479
1141.30 504.6642
1141.40 505.0804
1141.50 505.4967
1141.60 505.913
1141.70 506.3293
1141.80 506.7455
1141.90 507.1618
1142.00 507.5781
1142.10 507.9944
1142.20 508.4106
1142.30 508.8269
1142.40 509.2432
1142.50 509.6595
1142.60 510.0757
1142.70 510.492
1142.80 510.9083
1142.90 511.9208
1143.00 513.0824
1143.10 514.244
1143.20 515.4056
1143.30 516.5672
1143.40 517.7288
1143.50 518.8904
1143.60 520.052
1143.70 521.2137
1143.80 522.3753
1143.90 523.5369
1144.00 524.6985
1144.10 525.8601
1144.20 527.0217
1144.30 528.1833
1144.40 529.3449
1144.50 530.5065
1144.60 531.6681
1144.70 532.8297
1144.80 533.9913
1144.90 535.1529
1145.00 536.3145
1145.10 537.4761
1145.20 538.6377
1145.30 539.7993
1145.40 540.9609
1145.50 542.1225
1145.60 543.2841
1145.70 544.4457
1145.80 545.6073
1145.90 546.7689
1146.00 547.9305
1146.10 549.0921
1146.20 550.2537
1146.30 551.4153
1146.40 552.577
1146.50 553.7386
1146.60 554.9002
1146.70 556.0618
1146.80 557.2234
1146.90 558.385
1147.00 559.5466
1147.10 560.1314
1147.20 560.3318
1147.30 560.5322
1147.40 560.7326
1147.50 560.9329
1147.60 561.1333
1147.70 561.3337
1147.80 561.534
1147.90 561.7344
1148.00 561.9348
1148.10 562.1352
1148.20 562.3355
1148.30 562.5359
1148.40 562.7363
1148.50 562.9367
1148.60 563.137
1148.70 563.3374
1148.80 563.5378
1148.90 563.7381
1149.00 563.9385
1149.10 564.1389
1149.20 564.3393
1149.30 564.5396
1149.40 564.74
1149.50 564.9404
1149.60 565.1407
1149.70 565.3411
1149.80 565.5415
1149.90 565.7419
1150.00 565.9422
1150.10 566.1426
1150.20 566.343
1150.30 566.5434
1150.40 566.7437
1150.50 566.9441
1150.60 567.1445
1150.70 567.3448
1150.80 567.5452
1150.90 567.7456
1151.00 567.946
1151.10 568.1463
1151.20 568.3467
1151.30 568.6
1151.40 568.9063
1151.50 569.2127
1151.60 569.519
1151.70 569.8253
1151.80 570.1316
1151.90 570.4379
1152.00 570.7442
1152.10 571.0505
1152.20 571.3568
1152.30 571.6631
1152.40 571.9694
1152.50 572.2757
1152.60 572.582
1152.70 572.8883
1152.80 573.1946
1152.90 573.5009
1153.00 573.8072
1153.10 574.1135
1153.20 574.4198
1153.30 574.7261
1153.40 575.0324
1153.50 575.3387
1153.60 575.645
1153.70 575.9513
1153.80 576.2576
1153.90 576.564
1154.00 576.8703
1154.10 577.1766
1154.20 577.4829
1154.30 577.7892
1154.40 578.0955
1154.50 578.4018
1154.60 578.7081
1154.70 579.0144
1154.80 579.3207
1154.90 579.627
1155.00 579.9333
1155.10 580.2396
1155.20 580.5459
1155.30 580.8522
1155.40 581.1585
1155.50 581.3547
1155.60 581.1103
1155.70 580.8659
1155.80 580.6215
1155.90 580.3772
1156.00 580.1328
1156.10 579.8884
1156.20 579.644
1156.30 579.3996
1156.40 579.1553
1156.50 578.9109
1156.60 578.6665
1156.70 578.4221
1156.80 578.1777
1156.90 577.9334
1157.00 577.689
1157.10 577.4446
1157.20 577.2002
1157.30 576.9558
1157.40 576.7115
1157.50 576.4671
1157.60 576.2227
1157.70 575.9783
1157.80 575.7339
1157.90 575.4896
1158.00 575.2452
1158.10 575.0008
1158.20 574.7564
1158.30 574.512
1158.40 574.2677
1158.50 574.0233
1158.60 573.7789
1158.70 573.5345
1158.80 573.2901
1158.90 573.0458
1159.00 572.8014
1159.10 572.557
1159.20 572.3126
1159.30 572.0682
1159.40 571.8239
1159.50 571.5795
1159.60 571.3351
1159.70 571.0907
1159.80 570.7561
1159.90 570.4115
1160.00 570.0668
1160.10 569.7222
1160.20 569.3775
1160.30 569.0329
1160.40 568.6883
1160.50 568.3436
1160.60 567.999
1160.70 567.6543
1160.80 567.3097
1160.90 566.965
1161.00 566.6204
1161.10 566.2758
1161.20 565.9311
1161.30 565.5865
1161.40 565.2418
1161.50 564.8972
1161.60 564.5525
1161.70 564.2079
1161.80 563.8633
1161.90 563.5186
1162.00 563.174
1162.10 562.8293
1162.20 562.4847
1162.30 562.1401
1162.40 561.7954
1162.50 561.4508
1162.60 561.1061
1162.70 560.7615
1162.80 560.4168
1162.90 560.0722
1163.00 559.7276
1163.10 559.3829
1163.20 559.0383
1163.30 558.6936
1163.40 558.349
1163.50 558.0043
1163.60 557.6597
1163.70 557.3151
1163.80 556.9704
1163.90 556.6258
1164.00 556.2259
1164.10 555.7893
1164.20 555.3526
1164.30 554.9159
1164.40 554.4793
1164.50 554.0426
1164.60 553.606
1164.70 553.1693
1164.80 552.7326
1164.90 552.296
1165.00 551.8593
1165.10 551.4226
1165.20 550.986
1165.30 550.5493
1165.40 550.1127
1165.50 549.676
1165.60 549.2393
1165.70 548.8027
1165.80 548.366
1165.90 547.9293
1166.00 547.4927
1166.10 547.056
1166.20 546.6194
1166.30 546.1827
1166.40 545.746
1166.50 545.3094
1166.60 544.8727
1166.70 544.436
1166.80 543.9994
1166.90 543.5627
1167.00 543.1261
1167.10 542.6894
1167.20 542.2527
1167.30 541.8161
1167.40 541.3794
1167.50 540.9427
1167.60 540.5061
1167.70 540.0694
1167.80 539.6328
1167.90 539.1961
1168.00 538.7594
1168.10 538.3228
1168.20 537.8633
1168.30 537.3128
1168.40 536.7623
1168.50 536.2117
1168.60 535.6612
1168.70 535.1106
1168.80 534.5601
1168.90 534.0095
1169.00 533.459
1169.10 532.9085
1169.20 532.3579
1169.30 531.8074
1169.40 531.2568
1169.50 530.7063
1169.60 530.1557
1169.70 529.6052
1169.80 529.0547
1169.90 528.5041
1170.00 527.9536
1170.10 527.403
1170.20 526.8525
1170.30 526.3019
1170.40 525.7514
1170.50 525.2009
1170.60 524.6503
1170.70 524.0998
1170.80 523.5492
1170.90 522.9987
1171.00 522.4481
1171.10 521.8976
1171.20 521.3471
1171.30 520.7965
1171.40 520.246
1171.50 519.6954
1171.60 519.1449
1171.70 518.5944
1171.80 518.0438
1171.90 517.4933
1172.00 516.9427
1172.10 516.3922
1172.20 515.8416
1172.30 515.2911
1172.40 514.7406
1172.50 514.6682
1172.60 514.8008
1172.70 514.9334
1172.80 515.066
1172.90 515.1986
1173.00 515.3312
1173.10 515.4638
1173.20 515.5964
1173.30 515.729
1173.40 515.8616
1173.50 515.9942
1173.60 516.1268
1173.70 516.2594
1173.80 516.392
1173.90 516.5246
1174.00 516.6572
1174.10 516.7898
1174.20 516.9224
1174.30 517.0549
1174.40 517.1875
1174.50 517.3201
1174.60 517.4527
1174.70 517.5853
1174.80 517.7179
1174.90 517.8505
1175.00 517.9831
1175.10 518.1157
1175.20 518.2483
1175.30 518.3809
1175.40 518.5135
1175.50 518.6461
1175.60 518.7787
1175.70 518.9113
1175.80 519.0439
1175.90 519.1765
1176.00 519.3091
1176.10 519.4417
1176.20 519.5743
1176.30 519.7069
1176.40 519.8395
1176.50 519.9721
1176.60 520.1047
1176.70 520.2512
1176.80 520.4538
1176.90 520.6563
1177.00 520.8588
1177.10 521.0613
1177.20 521.2638
1177.30 521.4663
1177.40 521.6688
1177.50 521.8713
1177.60 522.0738
1177.70 522.2764
1177.80 522.4789
1177.90 522.6814
1178.00 522.8839
1178.10 523.0864
1178.20 523.2889
1178.30 523.4914
1178.40 523.6939
1178.50 523.8964
1178.60 524.0989
1178.70 524.3015
1178.80 524.504
1178.90 524.7065
1179.00 524.909
1179.10 525.1115
1179.20 525.314
1179.30 525.5165
1179.40 525.719
1179.50 525.9215
1179.60 526.1241
1179.70 526.3266
1179.80 526.5291
1179.90 526.7316
1180.00 526.9341
1180.10 527.1366
1180.20 527.3391
1180.30 527.5416
1180.40 527.7441
1180.50 527.9466
1180.60 528.1492
1180.70 528.3517
1180.80 528.5542
1180.90 528.7567
1181.00 529.2199
1181.10 529.8569
1181.20 530.4939
1181.30 531.1309
1181.40 531.7679
1181.50 532.4049
1181.60 533.0419
1181.70 533.6789
1181.80 534.3159
1181.90 534.9529
1182.00 535.5899
1182.10 536.2269
1182.20 536.8639
1182.30 537.5009
1182.40 538.1379
1182.50 538.7749
1182.60 539.4119
1182.70 540.0489
1182.80 540.6859
1182.90 541.3229
1183.00 541.9599
1183.10 542.5969
1183.20 543.2339
1183.30 543.8709
1183.40 544.5079
1183.50 545.1449
1183.60 545.7819
1183.70 546.4189
1183.80 547.0559
1183.90 547.6929
1184.00 548.3299
1184.10 548.9669
1184.20 549.6039
1184.30 550.2409
1184.40 550.8779
1184.50 551.5149
1184.60 552.1519
1184.70 552.7889
1184.80 553.4259
1184.90 554.0629
1185.00 554.6999
1185.10 555.3369
1185.20 555.9739
1185.30 556.3205
1185.40 556.667
1185.50 557.0135
1185.60 557.36
1185.70 557.7065
1185.80 558.053
1185.90 558.3995
1186.00 558.7461
1186.10 559.0926
1186.20 559.4391
1186.30 559.7856
1186.40 560.1321
1186.50 560.4786
1186.60 560.8251
1186.70 561.1717
1186.80 561.5182
1186.90 561.8647
1187.00 562.2112
1187.10 562.5577
1187.20 562.9042
1187.30 563.2507
1187.40 563.5973
1187.50 563.9438
1187.60 564.2903
1187.70 564.6368
1187.80 564.9833
1187.90 565.3298
1188.00 565.6763
1188.10 566.0229
1188.20 566.3694
1188.30 566.7159
1188.40 567.0624
1188.50 567.4089
1188.60 567.7554
1188.70 568.1019
1188.80 568.4485
1188.90 568.795
1189.00 569.1415
1189.10 569.488
1189.20 569.8345
1189.30 570.181
1189.40 570.5275
1189.50 570.5025
1189.60 569.9202
1189.70 569.3379
1189.80 568.7556
1189.90 568.1733
1190.00 567.591
1190.10 567.0087
1190.20 566.4263
1190.30 565.844
1190.40 565.2617
1190.50 564.6794
1190.60 564.0971
1190.70 563.5148
1190.80 562.9325
1190.90 562.3502
1191.00 561.7679
1191.10 561.1855
1191.20 560.6032
1191.30 560.0209
1191.40 559.4386
1191.50 558.8563
1191.60 558.274
1191.70 557.6917
1191.80 557.1094
1191.90 556.5271
1192.00 555.9447
1192.10 555.3624
1192.20 554.7801
1192.30 554.1978
1192.40 553.6155
1192.50 553.0332
1192.60 552.4509
1192.70 551.8686
1192.80 551.2863
1192.90 550.704
1193.00 550.1216
1193.10 549.5393
1193.20 548.957
1193.30 548.3747
1193.40 547.7924
1193.50 547.2101
1193.60 546.6278
1193.70 546.0455
1193.80 545.5618
1193.90 545.1204
1194.00 544.679
1194.10 544.2377
1194.20 543.7963
1194.30 543.3549
1194.40 542.9135
1194.50 542.4721
1194.60 542.0308
1194.70 541.5894
1194.80 541.148
1194.90 540.7066
1195.00 540.2652
1195.10 539.8239
1195.20 539.3825
1195.30 538.9411
1195.40 538.4997
1195.50 538.0583
1195.60 537.6169
1195.70 537.1756
1195.80 536.7342
1195.90 536.2928
1196.00 535.8514
1196.10 535.41
1196.20 534.9687
1196.30 534.5273
1196.40 534.0859
1196.50 533.6445
1196.60 533.2031
1196.70 532.7618
1196.80 532.3204
1196.90 531.879
1197.00 531.4376
1197.10 530.9962
1197.20 530.5549
1197.30 530.1135
1197.40 529.6721
1197.50 529.2307
1197.60 528.7893
1197.70 528.348
1197.80 527.9066
1197.90 527.4652
1198.00 527.0238
1198.10 527.1507
1198.20 527.3406
1198.30 527.5306
1198.40 527.7206
1198.50 527.9106
1198.60 528.1006
1198.70 528.2906
1198.80 528.4806
1198.90 528.6705
1199.00 528.8605
1199.10 529.0505
1199.20 529.2405
1199.30 529.4305
1199.40 529.6205
1199.50 529.8105
1199.60 530.0005
1199.70 530.1904
1199.80 530.3804
1199.90 530.5704
1200.00 530.7604
1200.10 530.9504
1200.20 531.1404
1200.30 531.3304
1200.40 531.5203
1200.50 531.7103
1200.60 531.9003
1200.70 532.0903
1200.80 532.2803
1200.90 532.4703
1201.00 532.6603
1201.10 532.8503
1201.20 533.0402
1201.30 533.2302
1201.40 533.4202
1201.50 533.6102
1201.60 533.8002
1201.70 533.9902
1201.80 534.1802
1201.90 534.3701
1202.00 534.5601
1202.10 534.7501
1202.20 534.9401
1202.30 535.1591
1202.40 535.639
1202.50 536.1189
1202.60 536.5989
1202.70 537.0788
1202.80 537.5587
1202.90 538.0386
1203.00 538.5186
1203.10 538.9985
1203.20 539.4784
1203.30 539.9584
1203.40 540.4383
1203.50 540.9182
1203.60 541.3981
1203.70 541.8781
1203.80 542.358
1203.90 542.8379
1204.00 543.3178
1204.10 543.7978
1204.20 544.2777
1204.30 544.7576
1204.40 545.2375
1204.50 545.7175
1204.60 546.1974
1204.70 546.6773
1204.80 547.1573
1204.90 547.6372
1205.00 548.1171
1205.10 548.597
1205.20 549.077
1205.30 549.5569
1205.40 550.0368
1205.50 550.5167
1205.60 550.9967
1205.70 551.4766
1205.80 551.9565
1205.90 552.4364
1206.00 552.9164
1206.10 553.3963
1206.20 553.8762
1206.30 554.3562
1206.40 554.8361
1206.50 555.316
1206.60 555.8393
1206.70 556.4639
1206.80 557.0884
1206.90 557.7129
1207.00 558.3375
1207.10 558.962
1207.20 559.5865
1207.30 560.2111
1207.40 560.8356
1207.50 561.4601
1207.60 562.0847
1207.70 562.7092
1207.80 563.3337
1207.90 563.9583
1208.00 564.5828
1208.10 565.2073
1208.20 565.8319
1208.30 566.4564
1208.40 567.0809
1208.50 567.7055
1208.60 568.33
1208.70 568.9545
1208.80 569.5791
1208.90 570.2036
1209.00 570.8282
1209.10 571.4527
1209.20 572.0772
1209.30 572.7018
1209.40 573.3263
1209.50 573.9508
1209.60 574.5754
1209.70 575.1999
1209.80 575.8244
1209.90 576.449
1210.00 577.0735
1210.10 577.698
1210.20 578.3226
1210.30 578.9471
1210.40 579.5716
1210.50 580.1962
1210.60 580.8207
1210.70 581.4452
1210.80 582.0698
1210.90 582.5894
1211.00 583.0042
1211.10 583.4189
1211.20 583.8337
1211.30 584.2484
1211.40 584.6632
1211.50 585.0779
1211.60 585.4927
1211.70 585.9075
1211.80 586.3222
1211.90 586.737
1212.00 587.1517
1212.10 587.5665
1212.20 587.9812
1212.30 588.396
1212.40 588.8107
1212.50 589.2255
1212.60 589.6403
1212.70 590.055
1212.80 590.4698
1212.90 590.8845
1213.00 591.2993
1213.10 591.714
1213.20 592.1288
1213.30 592.5435
1213.40 592.9583
1213.50 593.373
1213.60 593.7878
1213.70 594.2026
1213.80 594.6173
1213.90 595.0321
1214.00 595.4468
1214.10 595.8616
1214.20 596.2763
1214.30 596.6911
1214.40 597.1058
1214.50 597.5206
1214.60 597.9353
1214.70 598.3501
1214.80 598.7649
1214.90 599.1796
1215.00 599.5944
1215.10 600.0091
1215.20 600.5138
1215.30 601.0783
1215.40 601.6429
1215.50 602.2075
1215.60 602.772
1215.70 603.3366
1215.80 603.9012
1215.90 604.4657
1216.00 605.0303
1216.10 605.5949
1216.20 606.1594
1216.30 606.724
1216.40 607.2886
1216.50 607.8532
1216.60 608.4177
1216.70 608.9823
1216.80 609.5469
1216.90 610.1114
1217.00 610.676
1217.10 611.2406
1217.20 611.8051
1217.30 612.3697
1217.40 612.9343
1217.50 613.4988
1217.60 614.0634
1217.70 614.628
1217.80 615.1925
1217.90 615.7571
1218.00 616.3217
1218.10 616.8862
1218.20 617.4508
1218.30 618.0154
1218.40 618.5799
1218.50 619.1445
1218.60 619.7091
1218.70 620.2737
1218.80 620.8382
1218.90 621.4028
1219.00 621.9674
1219.10 622.5319
1219.20 623.0965
1219.30 623.6611
1219.40 624.2256
1219.50 624.6928
1219.60 625.1182
1219.70 625.5436
1219.80 625.969
1219.90 626.3944
1220.00 626.8198
1220.10 627.2452
1220.20 627.6706
1220.30 628.096
1220.40 628.5214
1220.50 628.9468
1220.60 629.3722
1220.70 629.7976
1220.80 630.223
1220.90 630.6484
1221.00 631.0738
1221.10 631.4992
1221.20 631.9246
1221.30 632.35
1221.40 632.7754
1221.50 633.2008
1221.60 633.6262
1221.70 634.0516
1221.80 634.477
1221.90 634.9024
1222.00 635.3278
1222.10 635.7532
1222.20 636.1786
1222.30 636.604
1222.40 637.0294
1222.50 637.4548
1222.60 637.8802
1222.70 638.3056
1222.80 638.731
1222.90 639.1564
1223.00 639.5818
1223.10 640.0072
1223.20 640.4326
1223.30 640.858
1223.40 641.2834
1223.50 641.7088
1223.60 642.1342
1223.70 642.5596
1223.80 642.707
1223.90 642.7352
1224.00 642.7635
1224.10 642.7918
1224.20 642.82
1224.30 642.8483
1224.40 642.8766
1224.50 642.9048
1224.60 642.9331
1224.70 642.9614
1224.80 642.9896
1224.90 643.0179
1225.00 643.0462
1225.10 643.0744
1225.20 643.1027
1225.30 643.131
1225.40 643.1592
1225.50 643.1875
1225.60 643.2158
1225.70 643.244
1225.80 643.2723
1225.90 643.3006
1226.00 643.3288
1226.10 643.3571
1226.20 643.3854
1226.30 643.4136
1226.40 643.4419
1226.50 643.4701
1226.60 643.4984
1226.70 643.5267
1226.80 643.5549
1226.90 643.5832
1227.00 643.6115
1227.10 643.6397
1227.20 643.668
1227.30 643.6963
1227.40 643.7245
1227.50 643.7528
1227.60 643.7811
1227.70 643.8093
1227.80 643.8376
1227.90 643.8659
1228.00 643.8941
1228.10 643.8602
1228.20 643.8107
1228.30 643.7611
1228.40 643.7116
1228.50 643.6621
1228.60 643.6126
1228.70 643.5631
1228.80 643.5136
1228.90 643.4641
1229.00 643.4146
1229.10 643.365
1229.20 643.3155
1229.30 643.266
1229.40 643.2165
1229.50 643.167
1229.60 643.1175
1229.70 643.068
1229.80 643.0185
1229.90 642.9689
1230.00 642.9194
1230.10 642.8699
1230.20 642.8204
1230.30 642.7709
1230.40 642.7214
1230.50 642.6719
1230.60 642.6224
1230.70 642.5728
1230.80 642.5233
1230.90 642.4738
1231.00 642.4243
1231.10 642.3748
1231.20 642.3253
1231.30 642.2758
1231.40 642.2263
1231.50 642.1767
1231.60 642.1272
1231.70 642.0777
1231.80 642.0282
1231.90 641.9787
1232.00 641.9292
1232.10 641.8797
1232.20 641.8302
1232.30 641.7806
1232.40 641.142
1232.50 640.3561
1232.60 639.5702
1232.70 638.7844
1232.80 637.9985
1232.90 637.2126
1233.00 636.4267
1233.10 635.6408
1233.20 634.8549
1233.30 634.069
1233.40 633.2831
1233.50 632.4972
1233.60 631.7113
1233.70 630.9254
1233.80 630.1395
1233.90 629.3536
1234.00 628.5678
1234.10 627.7819
1234.20 626.996
1234.30 626.2101
1234.40 625.4242
1234.50 624.6383
1234.60 623.8524
1234.70 623.0665
1234.80 622.2806
1234.90 621.4947
1235.00 620.7088
1235.10 619.9229
1235.20 619.1371
1235.30 618.3512
1235.40 617.5653
1235.50 616.7794
1235.60 615.9935
1235.70 615.2076
1235.80 614.4217
1235.90 613.6358
1236.00 612.8499
1236.10 612.064
1236.20 611.2781
1236.30 610.4922
1236.40 609.7064
1236.50 608.9205
1236.60 608.1346
1236.70 607.6947
1236.80 607.4031
1236.90 607.1115
1237.00 606.8199
1237.10 606.5283
1237.20 606.2367
1237.30 605.9451
1237.40 605.6535
1237.50 605.3619
1237.60 605.0703
1237.70 604.7787
1237.80 604.4871
1237.90 604.1955
1238.00 603.9039
1238.10 603.6123
1238.20 603.3207
1238.30 603.0291
1238.40 602.7375
1238.50 602.4459
1238.60 602.1543
1238.70 601.8627
1238.80 601.5711
1238.90 601.2795
1239.00 600.9879
1239.10 600.6963
1239.20 600.4048
1239.30 600.1132
1239.40 599.8216
1239.50 599.53
1239.60 599.2384
1239.70 598.9468
1239.80 598.6552
1239.90 598.3636
1240.00 598.072
1240.10 597.7804
1240.20 597.4888
1240.30 597.1972
1240.40 596.9056
1240.50 596.614
1240.60 596.3224
1240.70 596.0308
1240.80 595.7392
1240.90 595.4476
1241.00 595.1347
1241.10 594.8127
1241.20 594.4906
1241.30 594.1686
1241.40 593.8465
1241.50 593.5245
1241.60 593.2025
1241.70 592.8804
1241.80 592.5584
1241.90 592.2364
1242.00 591.9143
1242.10 591.5923
1242.20 591.2703
1242.30 590.9482
1242.40 590.6262
1242.50 590.3042
1242.60 589.9821
1242.70 589.6601
1242.80 589.338
1242.90 589.016
1243.00 588.694
1243.10 588.3719
1243.20 588.0499
1243.30 587.7279
1243.40 587.4058
1243.50 587.0838
1243.60 586.7618
1243.70 586.4397
1243.80 586.1177
1243.90 585.7956
1244.00 585.4736
1244.10 585.1516
1244.20 584.8295
1244.30 584.5075
1244.40 584.1855
1244.50 583.8634
1244.60 583.5414
1244.70 583.2194
1244.80 582.8973
1244.90 582.5753
1245.00 582.2532
1245.10 581.9312
1245.20 581.6092
1245.30 581.8545
1245.40 582.4781
1245.50 583.1018
1245.60 583.7254
1245.70 584.349
1245.80 584.9726
1245.90 585.5962
1246.00 586.2198
1246.10 586.8434
1246.20 587.4671
1246.30 588.0907
1246.40 588.7143
1246.50 589.3379
1246.60 589.9615
1246.70 590.5851
1246.80 591.2087
1246.90 591.8324
1247.00 592.456
1247.10 593.0796
1247.20 593.7032
1247.30 594.3268
1247.40 594.9504
1247.50 595.574
1247.60 596.1977
1247.70 596.8213
1247.80 597.4449
1247.90 598.0685
1248.00 598.6921
1248.10 599.3157
1248.20 599.9393
1248.30 600.563
1248.40 601.1866
1248.50 601.8102
1248.60 602.4338
1248.70 603.0574
1248.80 603.681
1248.90 604.3046
1249.00 604.9283
1249.10 605.5519
1249.20 606.1755
1249.30 606.7991
1249.40 607.4227
1249.50 608.0463
1249.60 608.632
1249.70 609.1796
1249.80 609.7273
1249.90 610.275
1250.00 610.8227
1250.10 611.3704
1250.20 611.918
1250.30 612.4657
1250.40 613.0134
1250.50 613.5611
1250.60 614.1087
1250.70 614.6564
1250.80 615.2041
1250.90 615.7518
1251.00 616.2994
1251.10 616.8471
1251.20 617.3948
1251.30 617.9425
1251.40 618.4901
1251.50 619.0378
1251.60 619.5855
1251.70 620.1332
1251.80 620.6808
1251.90 621.2285
1252.00 621.7762
1252.10 622.3239
1252.20 622.8715
1252.30 623.4192
1252.40 623.9669
1252.50 624.5146
1252.60 625.0622
1252.70 625.6099
1252.80 626.1576
1252.90 626.7053
1253.00 627.253
1253.10 627.8006
1253.20 628.3483
1253.30 628.896
1253.40 629.4437
1253.50 629.9913
1253.60 630.539
1253.70 631.0867
1253.80 631.6344
1253.90 632.3247
1254.00 633.2289
1254.10 634.1331
1254.20 635.0374
1254.30 635.9416
1254.40 636.8458
1254.50 637.7501
1254.60 638.6543
1254.70 639.5586
1254.80 640.4628
1254.90 641.367
1255.00 642.2713
1255.10 643.1755
1255.20 644.0797
1255.30 644.984
1255.40 645.8882
1255.50 646.7925
1255.60 647.6967
1255.70 648.6009
1255.80 649.5052
1255.90 650.4094
1256.00 651.3136
1256.10 652.2179
1256.20 653.1221
1256.30 654.0264
1256.40 654.9306
1256.50 655.8348
1256.60 656.7391
1256.70 657.6433
1256.80 658.5475
1256.90 659.4518
1257.00 660.356
1257.10 661.2603
1257.20 662.1645
1257.30 663.0687
1257.40 663.973
1257.50 664.8772
1257.60 665.7814
1257.70 666.6857
1257.80 667.5899
1257.90 668.4942
1258.00 669.3984
1258.10 670.3026
1258.20 670.9733
1258.30 671.0991
1258.40 671.2249
1258.50 671.3507
1258.60 671.4765
1258.70 671.6023
1258.80 671.7281
1258.90 671.8539
1259.00 671.9797
1259.10 672.1055
1259.20 672.2313
1259.30 672.3571
1259.40 672.4829
1259.50 672.6087
1259.60 672.7345
1259.70 672.8603
1259.80 672.9861
1259.90 673.1119
1260.00 673.2377
1260.10 673.3635
1260.20 673.4893
1260.30 673.6151
1260.40 673.7409
1260.50 673.8667
1260.60 673.9925
1260.70 674.1183
1260.80 674.2441
1260.90 674.3699
1261.00 674.4957
1261.10 674.6215
1261.20 674.7473
1261.30 674.8731
1261.40 674.9989
1261.50 675.1247
1261.60 675.2505
1261.70 675.3763
1261.80 675.5021
1261.90 675.6279
1262.00 675.7537
1262.10 675.8795
1262.20 676.0053
1262.30 676.1311
1262.40 676.2569
1262.50 676.5267
1262.60 677.3726
1262.70 678.2184
1262.80 679.0643
1262.90 679.9101
1263.00 680.756
1263.10 681.6018
1263.20 682.4477
1263.30 683.2935
1263.40 684.1394
1263.50 684.9852
1263.60 685.8311
1263.70 686.6769
1263.80 687.5228
1263.90 688.3686
1264.00 689.2145
1264.10 690.0603
1264.20 690.9062
1264.30 691.752
1264.40 692.5979
1264.50 693.4437
1264.60 694.2896
1264.70 695.1354
1264.80 695.9813
1264.90 696.8272
1265.00 697.673
1265.10 698.5189
1265.20 699.3647
1265.30 700.2106
1265.40 701.0564
1265.50 701.9023
1265.60 702.7481
1265.70 703.594
1265.80 704.4398
1265.90 705.2857
1266.00 706.1315
1266.10 706.9774
1266.20 707.8232
1266.30 708.6691
1266.40 709.5149
1266.50 710.3608
1266.60 711.2066
1266.70 712.0525
1266.80 712.8983
1266.90 712.3853
1267.00 711.8722
1267.10 711.3591
1267.20 710.846
1267.30 710.3329
1267.40 709.8199
1267.50 709.3068
1267.60 708.7937
1267.70 708.2806
1267.80 707.7675
1267.90 707.2544
1268.00 706.7414
1268.10 706.2283
1268.20 705.7152
1268.30 705.2021
1268.40 704.689
1268.50 704.1759
1268.60 703.6629
1268.70 703.1498
1268.80 702.6367
1268.90 702.1236
1269.00 701.6105
1269.10 701.0975
1269.20 700.5844
1269.30 700.0713
1269.40 699.5582
1269.50 699.0451
1269.60 698.532
1269.70 698.019
1269.80 697.5059
1269.90 696.9928
1270.00 696.4797
1270.10 695.9666
1270.20 695.4536
1270.30 694.9405
1270.40 694.4274
1270.50 693.9143
1270.60 693.4012
1270.70 692.8881
1270.80 692.3751
1270.90 691.862
1271.00 691.3489
1271.10 690.8358
1271.20 691.2954
1271.30 691.8631
1271.40 692.4307
1271.50 692.9984
1271.60 693.566
1271.70 694.1337
1271.80 694.7013
1271.90 695.269
1272.00 695.8367
1272.10 696.4043
1272.20 696.972
1272.30 697.5396
1272.40 698.1073
1272.50 698.6749
1272.60 699.2426
1272.70 699.8102
1272.80 700.3779
1272.90 700.9456
1273.00 701.5132
1273.10 702.0809
1273.20 702.6485
1273.30 703.2162
1273.40 703.7838
1273.50 704.3515
1273.60 704.9192
1273.70 705.4868
1273.80 706.0545
1273.90 706.6221
1274.00 707.1898
1274.10 707.7574
1274.20 708.3251
1274.30 708.8928
1274.40 709.4604
1274.50 710.0281
1274.60 710.5957
1274.70 711.1634
1274.80 711.731
1274.90 712.2987
1275.00 712.8663
1275.10 713.434
1275.20 714.0017
1275.30 714.5693
1275.40 715.137
1275.50 715.3165
1275.60 715.3298
1275.70 715.343
1275.80 715.3563
1275.90 715.3695
1276.00 715.3828
1276.10 715.396
1276.20 715.4093
1276.30 715.4225
1276.40 715.4357
1276.50 715.449
1276.60 715.4622
1276.70 715.4755
1276.80 715.4887
1276.90 715.502
1277.00 715.5152
1277.10 715.5285
1277.20 715.5417
1277.30 715.5549
1277.40 715.5682
1277.50 715.5814
1277.60 715.5947
1277.70 715.6079
1277.80 715.6212
1277.90 715.6344
1278.00 715.6477
1278.10 715.6609
1278.20 715.6741
1278.30 715.6874
1278.40 715.7006
1278.50 715.7139
1278.60 715.7271
1278.70 715.7404
1278.80 715.7536
1278.90 715.7669
1279.00 715.7801
1279.10 715.7933
1279.20 715.8066
1279.30 715.8198
1279.40 715.8331
1279.50 715.8463
1279.60 715.8596
1279.70 715.8728
1279.80 715.9128
1279.90 715.9707
1280.00 716.0285
1280.10 716.0864
1280.20 716.1442
1280.30 716.2021
1280.40 716.2599
1280.50 716.3178
1280.60 716.3756
1280.70 716.4335
1280.80 716.4913
1280.90 716.5491
1281.00 716.607
1281.10 716.6648
1281.20 716.7227
1281.30 716.7805
1281.40 716.8384
1281.50 716.8962
1281.60 716.9541
1281.70 717.0119
1281.80 717.0698
1281.90 717.1276
1282.00 717.1855
1282.10 717.2433
1282.20 717.3012
1282.30 717.359
1282.40 717.4169
1282.50 717.4747
1282.60 717.5326
1282.70 717.5904
1282.80 717.6483
1282.90 717.7061
1283.00 717.764
1283.10 717.8218
1283.20 717.8796
1283.30 717.9375
1283.40 717.9953
1283.50 718.0532
1283.60 718.111
1283.70 718.1689
1283.80 718.2267
1283.90 718.2846
1284.00 718.3424
1284.10 718.527
1284.20 718.9016
1284.30 719.2762
1284.40 719.6509
1284.50 720.0255
1284.60 720.4001
1284.70 720.7747
1284.80 721.1494
1284.90 721.524
1285.00 721.8986
1285.10 722.2732
1285.20 722.6479
1285.30 723.0225
1285.40 723.3971
1285.50 723.7717
1285.60 724.1464
1285.70 724.521
1285.80 724.8956
1285.90 725.2702
1286.00 725.6449
1286.10 726.0195
1286.20 726.3941
1286.30 726.7688
1286.40 727.1434
1286.50 727.518
1286.60 727.8926
1286.70 728.2673
1286.80 728.6419
1286.90 729.0165
1287.00 729.3911
1287.10 729.7658
1287.20 730.1404
1287.30 730.515
1287.40 730.8896
1287.50 731.2643
1287.60 731.6389
1287.70 732.0135
1287.80 732.3881
1287.90 732.7628
1288.00 733.1374
1288.10 733.512
1288.20 733.8866
1288.30 734.2613
1288.40 734.5986
1288.50 734.7869
1288.60 734.9752
1288.70 735.1635
1288.80 735.3518
1288.90 735.5401
1289.00 735.7284
1289.10 735.9167
1289.20 736.105
1289.30 736.2933
1289.40 736.4816
1289.50 736.6699
1289.60 736.8582
1289.70 737.0465
1289.80 737.2348
1289.90 737.4231
1290.00 737.6114
1290.10 737.7997
1290.20 737.9879
1290.30 738.1762
1290.40 738.3645
1290.50 738.5528
1290.60 738.7411
1290.70 738.9294
1290.80 739.1177
1290.90 739.306
1291.00 739.4943
1291.10 739.6826
1291.20 739.8709
1291.30 740.0592
1291.40 740.2475
1291.50 740.4358
1291.60 740.6241
1291.70 740.8124
1291.80 741.0007
1291.90 741.189
1292.00 741.3773
1292.10 741.5656
1292.20 741.7539
1292.30 741.9422
1292.40 742.1305
1292.50 742.3187
1292.60 742.507
1292.70 742.6953
1292.80 742.7955
1292.90 742.8958
1293.00 742.996
1293.10 743.0962
1293.20 743.1964
1293.30 743.2966
1293.40 743.3968
1293.50 743.497
1293.60 743.5972
1293.70 743.6974
1293.80 743.7976
1293.90 743.8978
1294.00 743.998
1294.10 744.0982
1294.20 744.1985
1294.30 744.2987
1294.40 744.3989
1294.50 744.4991
1294.60 744.5993
1294.70 744.6995
1294.80 744.7997
1294.90 744.8999
1295.00 745.0001
1295.10 745.1003
1295.20 745.2005
1295.30 745.3007
1295.40 745.401
1295.50 745.5012
1295.60 745.6014
1295.70 745.7016
1295.80 745.8018
1295.90 745.902
1296.00 746.0022
1296.10 746.1024
1296.20 746.2026
1296.30 746.3028
1296.40 746.403
1296.50 746.5032
1296.60 746.6034
1296.70 746.7037
1296.80 746.8039
1296.90 746.9041
1297.00 747.0043
1297.10 746.8674
1297.20 746.6712
1297.30 746.475
1297.40 746.2789
1297.50 746.0827
1297.60 745.8865
1297.70 745.6904
1297.80 745.4942
1297.90 745.298
1298.00 745.1019
1298.10 744.9057
1298.20 744.7095
1298.30 744.5134
1298.40 744.3172
1298.50 744.121
1298.60 743.9249
1298.70 743.7287
1298.80 743.5325
1298.90 743.3363
1299.00 743.1402
1299.10 742.944
1299.20 742.7478
1299.30 742.5517
1299.40 742.3555
1299.50 742.1593
1299.60 741.9632
1299.70 741.767
1299.80 741.5708
1299.90 741.3747
