# Version 2.1 - nm, norm@500 to 1, cut digits
# Wavelength(nm)  Flambda(ergs/cm^s/s/nm)
300.00 0.00794852
300.10 0.007984919
300.20 0.008055751
300.30 0.008089986
300.40 0.008123347
300.50 0.008155808
300.60 0.008187366
300.70 0.008218041
300.80 0.008247864
300.90 0.008276872
301.00 0.008305104
301.10 0.008332596
301.20 0.008359386
301.30 0.008385504
301.40 0.008410983
301.50 0.008435852
301.60 0.008460138
301.70 0.008483866
301.80 0.008507062
301.90 0.008529748
302.00 0.008551946
302.10 0.008573676
302.20 0.008594959
302.30 0.008615812
302.40 0.008636253
302.50 0.008656298
302.60 0.008675963
302.70 0.008695262
302.80 0.008714209
302.90 0.008732818
303.00 0.008751101
303.10 0.00876907
303.20 0.008786738
303.30 0.008804126
303.40 0.008821268
303.50 0.008838221
303.60 0.008855069
303.70 0.008871934
303.80 0.008888974
303.90 0.008906373
304.00 0.008924335
304.10 0.008943061
304.20 0.008962737
304.30 0.008983516
304.40 0.009005511
304.50 0.009028791
304.60 0.009053388
304.70 0.009079303
304.80 0.009106516
304.90 0.009134999
305.00 0.009217332
305.10 0.009293426
305.20 0.009364159
305.30 0.009430813
305.40 0.009494817
305.50 0.009557504
305.60 0.009619926
305.70 0.009682775
305.80 0.009746384
305.90 0.009810806
306.00 0.009875885
306.10 0.009941382
306.20 0.01000707
306.30 0.01007274
306.40 0.01013823
306.50 0.01020343
306.60 0.01026823
306.70 0.01033261
306.80 0.01039654
306.90 0.01046
307.00 0.01052299
307.10 0.01058552
307.20 0.01064759
307.30 0.01070919
307.40 0.01077037
307.50 0.01083116
307.60 0.01089164
307.70 0.01095192
307.80 0.01101217
307.90 0.01107256
308.00 0.01113333
308.10 0.01119469
308.20 0.01125685
308.30 0.01132003
308.40 0.01138436
308.50 0.01144996
308.60 0.01151691
308.70 0.01158526
308.80 0.01165503
308.90 0.01172622
309.00 0.01179884
309.10 0.01187289
309.20 0.01194838
309.30 0.0120253
309.40 0.01210369
309.50 0.01218361
309.60 0.01226512
309.70 0.01234838
309.80 0.01243355
309.90 0.01252085
310.00 0.01261054
310.10 0.01270285
310.20 0.01279805
310.30 0.01289635
310.40 0.01299793
310.50 0.01310291
310.60 0.01321139
310.70 0.01332342
310.80 0.01343902
310.90 0.0135582
311.00 0.01368097
311.10 0.01380733
311.20 0.01393726
311.30 0.01407075
311.40 0.01420772
311.50 0.01434805
311.60 0.01449153
311.70 0.01463781
311.80 0.01478646
311.90 0.01493692
312.00 0.01508858
312.10 0.0152408
312.20 0.01539294
312.30 0.01554447
312.40 0.01569494
312.50 0.01584402
312.60 0.01599149
312.70 0.01613722
312.80 0.01628115
312.90 0.01642324
313.00 0.0165635
313.10 0.01670193
313.20 0.01683852
313.30 0.01697328
313.40 0.01710626
313.50 0.0172375
313.60 0.0173671
313.70 0.01749522
313.80 0.01762205
313.90 0.01774785
314.00 0.01787288
314.10 0.01799744
314.20 0.01812181
314.30 0.01824624
314.40 0.01837093
314.50 0.01849602
314.60 0.01862162
314.70 0.01874778
314.80 0.01887453
314.90 0.01900188
315.00 0.01912984
315.10 0.01925841
315.20 0.01938759
315.30 0.01951737
315.40 0.01964776
315.50 0.01977877
315.60 0.0199104
315.70 0.02004266
315.80 0.02017557
315.90 0.02030914
316.00 0.0204434
316.10 0.02057837
316.20 0.02071407
316.30 0.02085051
316.40 0.02098771
316.50 0.02112569
316.60 0.02126445
316.70 0.02140399
316.80 0.02154431
316.90 0.02168543
317.00 0.02182733
317.10 0.02197002
317.20 0.0221135
317.30 0.02225778
317.40 0.02240292
317.50 0.02254899
317.60 0.02269613
317.70 0.02284456
317.80 0.02299457
317.90 0.02314649
318.00 0.02330074
318.10 0.02345773
318.20 0.02361786
318.30 0.02378147
318.40 0.02394886
318.50 0.02412024
318.60 0.02429574
318.70 0.02447546
318.80 0.02465943
318.90 0.02484767
319.00 0.02504019
319.10 0.02523698
319.20 0.02543804
319.30 0.02564336
319.40 0.02585291
319.50 0.02606664
319.60 0.02628444
319.70 0.02650618
319.80 0.02673166
319.90 0.02696063
320.00 0.02719283
320.10 0.02742796
320.20 0.02766576
320.30 0.02790599
320.40 0.02814845
320.50 0.02839299
320.60 0.02863953
320.70 0.02888799
320.80 0.02913836
320.90 0.02939062
321.00 0.02964477
321.10 0.0299008
321.20 0.03015874
321.30 0.03041861
321.40 0.03068049
321.50 0.03094458
321.60 0.03121116
321.70 0.03148069
321.80 0.03175377
321.90 0.03203115
322.00 0.03231367
322.10 0.0326022
322.20 0.03289761
322.30 0.03320062
322.40 0.03351185
322.50 0.03383174
322.60 0.03416059
322.70 0.03449859
322.80 0.03484581
322.90 0.0352023
323.00 0.03556806
323.10 0.03594309
323.20 0.03632737
323.30 0.03672084
323.40 0.03712329
323.50 0.03753436
323.60 0.03795342
323.70 0.03837951
323.80 0.03881134
323.90 0.03924733
324.00 0.0396857
324.10 0.04012458
324.20 0.04056217
324.30 0.0409969
324.40 0.04142747
324.50 0.04185294
324.60 0.04227268
324.70 0.0426863
324.80 0.04309363
324.90 0.04349458
325.00 0.04388914
325.10 0.0442773
325.20 0.04465909
325.30 0.04503454
325.40 0.04540378
325.50 0.04576706
325.60 0.04612476
325.70 0.04647752
325.80 0.04682616
325.90 0.04717168
326.00 0.04751526
326.10 0.04785808
326.20 0.0482013
326.30 0.04854593
326.40 0.04889281
326.50 0.04924254
326.60 0.04959554
326.70 0.04995204
326.80 0.05031216
326.90 0.05067596
327.00 0.05104344
327.10 0.05141461
327.20 0.05178944
327.30 0.0521679
327.40 0.05254985
327.50 0.05293501
327.60 0.05332296
327.70 0.05371301
327.80 0.05410427
327.90 0.05449562
328.00 0.05488581
328.10 0.05527352
328.20 0.05565749
328.30 0.05603661
328.40 0.05640997
328.50 0.05677692
328.60 0.05713699
328.70 0.05748993
328.80 0.05783561
328.90 0.05817397
329.00 0.05850501
329.10 0.05882871
329.20 0.05914508
329.30 0.05945408
329.40 0.05975562
329.50 0.06004954
329.60 0.06033557
329.70 0.06061327
329.80 0.06088209
329.90 0.06114132
330.00 0.06139017
330.10 0.06162781
330.20 0.06185345
330.30 0.0620664
330.40 0.06226608
330.50 0.06245208
330.60 0.0626241
330.70 0.062782
330.80 0.06292568
330.90 0.06305511
331.00 0.06317028
331.10 0.0632712
331.20 0.06335787
331.30 0.06343038
331.40 0.06348888
331.50 0.06353372
331.60 0.06356547
331.70 0.06358501
331.80 0.06359348
331.90 0.06359235
332.00 0.06358322
332.10 0.0635678
332.20 0.06354772
332.30 0.0635244
332.40 0.06349902
332.50 0.06347245
332.60 0.06344525
332.70 0.06341777
332.80 0.06339018
332.90 0.06336255
333.00 0.06333489
333.10 0.06330721
333.20 0.0632795
333.30 0.06325182
333.40 0.06322424
333.50 0.06319695
333.60 0.06317025
333.70 0.0631446
333.80 0.06312061
333.90 0.06309903
334.00 0.06308073
334.10 0.06306659
334.20 0.06305748
334.30 0.06305415
334.40 0.06305721
334.50 0.06306712
334.60 0.06308419
334.70 0.06310858
334.80 0.0631404
334.90 0.06317968
335.00 0.06322642
335.10 0.06328063
335.20 0.0633423
335.30 0.06341138
335.40 0.06348776
335.50 0.06357123
335.60 0.06366141
335.70 0.06375774
335.80 0.06385949
335.90 0.06396571
336.00 0.06407538
336.10 0.06418739
336.20 0.0643007
336.30 0.06441439
336.40 0.06452771
336.50 0.0646401
336.60 0.06475119
336.70 0.06486076
336.80 0.0649687
336.90 0.06507497
337.00 0.06517956
337.10 0.06528247
337.20 0.06538369
337.30 0.06548322
337.40 0.06558105
337.50 0.06567713
337.60 0.06577142
337.70 0.06586382
337.80 0.06595421
337.90 0.06604246
338.00 0.0661284
338.10 0.06621185
338.20 0.06629267
338.30 0.06637069
338.40 0.06644581
338.50 0.06651794
338.60 0.06658702
338.70 0.06665302
338.80 0.06671591
338.90 0.0667757
339.00 0.06683238
339.10 0.06688595
339.20 0.06693643
339.30 0.06698387
339.40 0.06702842
339.50 0.06707039
339.60 0.06711028
339.70 0.06714884
339.80 0.0671871
339.90 0.06722633
340.00 0.06726794
340.10 0.06731342
340.20 0.06736421
340.30 0.06742155
340.40 0.06748648
340.50 0.06755976
340.60 0.06764188
340.70 0.06773315
340.80 0.06783372
340.90 0.06794364
341.00 0.06806294
341.10 0.0681916
341.20 0.06832963
341.30 0.06847698
341.40 0.06863357
341.50 0.06879923
341.60 0.06897365
341.70 0.06915639
341.80 0.06934684
341.90 0.06954427
342.00 0.06974784
342.10 0.06995667
342.20 0.07016991
342.30 0.07038683
342.40 0.07060683
342.50 0.07082946
342.60 0.07105442
342.70 0.07128153
342.80 0.07151071
342.90 0.07174192
343.00 0.07197516
343.10 0.07221042
343.20 0.07244772
343.30 0.07268709
343.40 0.07292866
343.50 0.07317265
343.60 0.07341946
343.70 0.07366965
343.80 0.07392401
343.90 0.07418351
344.00 0.07444924
344.10 0.07472234
344.20 0.07500389
344.30 0.07529486
344.40 0.07559603
344.50 0.07590798
344.60 0.07623111
344.70 0.07656563
344.80 0.07691166
344.90 0.07726925
345.00 0.07763841
345.10 0.07801914
345.20 0.07841141
345.30 0.07881515
345.40 0.07923014
345.50 0.07965594
345.60 0.08009185
345.70 0.08053677
345.80 0.08098923
345.90 0.08144744
346.00 0.08190935
346.10 0.08237283
346.20 0.08283584
346.30 0.08329657
346.40 0.08375356
346.50 0.08420573
346.60 0.08465235
346.70 0.08509299
346.80 0.08552744
346.90 0.08595562
347.00 0.0863775
347.10 0.08679308
347.20 0.0872024
347.30 0.08760563
347.40 0.08800316
347.50 0.08839581
347.60 0.08878493
347.70 0.08917258
347.80 0.08956151
347.90 0.08995514
348.00 0.09035732
348.10 0.09077205
348.20 0.09120319
348.30 0.09165415
348.40 0.09212768
348.50 0.09262585
348.60 0.09315
348.70 0.09370094
348.80 0.09427909
348.90 0.0948846
349.00 0.09551751
349.10 0.09617782
349.20 0.09686546
349.30 0.0975801
349.40 0.09832097
349.50 0.09908647
349.60 0.09987394
349.70 0.1006794
349.80 0.1014974
349.90 0.1023212
350.00 0.1031434
350.10 0.1039561
350.20 0.1047517
350.30 0.1055236
350.40 0.1062664
350.50 0.106976
350.60 0.1076498
350.70 0.1082862
350.80 0.1088844
350.90 0.1094441
351.00 0.1099652
351.10 0.1104478
351.20 0.1108918
351.30 0.1112973
351.40 0.1116647
351.50 0.1119946
351.60 0.1122879
351.70 0.1125461
351.80 0.1127713
351.90 0.1129658
352.00 0.1131325
352.10 0.1132743
352.20 0.1133939
352.30 0.1134939
352.40 0.1135763
352.50 0.1136425
352.60 0.1136935
352.70 0.1137299
352.80 0.113752
352.90 0.1137599
353.00 0.1137537
353.10 0.1137333
353.20 0.1136988
353.30 0.1136502
353.40 0.1135878
353.50 0.113512
353.60 0.1134235
353.70 0.1133234
353.80 0.1132132
353.90 0.1130947
354.00 0.1129701
354.10 0.1128413
354.20 0.1127105
354.30 0.1125796
354.40 0.1124499
354.50 0.1123226
354.60 0.1121984
354.70 0.1120777
354.80 0.1119608
354.90 0.1118478
355.00 0.1117386
355.10 0.1116333
355.20 0.1115318
355.30 0.1114343
355.40 0.111341
355.50 0.1112521
355.60 0.1111685
355.70 0.1110909
355.80 0.1110207
355.90 0.1109595
356.00 0.110909
356.10 0.1108712
356.20 0.1108477
356.30 0.1108403
356.40 0.1108502
356.50 0.1108783
356.60 0.1109252
356.70 0.1109914
356.80 0.111077
356.90 0.1111822
357.00 0.1113068
357.10 0.111451
357.20 0.1116146
357.30 0.1117977
357.40 0.1119998
357.50 0.1122205
357.60 0.1124587
357.70 0.112713
357.80 0.1129814
357.90 0.1132615
358.00 0.1135506
358.10 0.1138457
358.20 0.1141442
358.30 0.1144436
358.40 0.1147419
358.50 0.1150376
358.60 0.1153296
358.70 0.1156171
358.80 0.1158995
358.90 0.1161765
359.00 0.1164476
359.10 0.1167125
359.20 0.116971
359.30 0.1172229
359.40 0.1174691
359.50 0.117711
359.60 0.1179517
359.70 0.1181956
359.80 0.1184488
359.90 0.118719
360.00 0.1190147
360.10 0.1193448
360.20 0.119718
360.30 0.1201418
360.40 0.1206225
360.50 0.1211645
360.60 0.121771
360.70 0.1224437
360.80 0.1231835
360.90 0.1239908
361.00 0.1248657
361.10 0.1258082
361.20 0.1268181
361.30 0.1278951
361.40 0.129038
361.50 0.1302447
361.60 0.1315115
361.70 0.132833
361.80 0.1342016
361.90 0.1356083
362.00 0.1370426
362.10 0.1384939
362.20 0.1399517
362.30 0.141407
362.40 0.1428522
362.50 0.1442819
362.60 0.1456924
362.70 0.1470815
362.80 0.1484482
362.90 0.149792
363.00 0.1511129
363.10 0.1524107
363.20 0.1536856
363.30 0.1549374
363.40 0.1561661
363.50 0.1573713
363.60 0.1585526
363.70 0.1597093
363.80 0.1608405
363.90 0.1619451
364.00 0.1630217
364.10 0.164069
364.20 0.1650858
364.30 0.1660709
364.40 0.1670233
364.50 0.1679424
364.60 0.1688278
364.70 0.1696791
364.80 0.1704963
364.90 0.1712792
365.00 0.1720279
365.10 0.1727423
365.20 0.1734225
365.30 0.1740683
365.40 0.1746796
365.50 0.175256
365.60 0.1757967
365.70 0.1763007
365.80 0.1767666
365.90 0.1771927
366.00 0.1775771
366.10 0.1779177
366.20 0.1782125
366.30 0.1784598
366.40 0.1786582
366.50 0.1788067
366.60 0.1789046
366.70 0.1789515
366.80 0.1789472
366.90 0.1788915
367.00 0.1787846
367.10 0.1786263
367.20 0.1784167
367.30 0.178156
367.40 0.1778448
367.50 0.1774841
367.60 0.1770755
367.70 0.1766218
367.80 0.1761263
367.90 0.1755935
368.00 0.1750282
368.10 0.1744355
368.20 0.1738203
368.30 0.1731869
368.40 0.172539
368.50 0.1718791
368.60 0.1712092
368.70 0.1705304
368.80 0.1698435
368.90 0.169149
369.00 0.1684474
369.10 0.1677389
369.20 0.1670241
369.30 0.1663034
369.40 0.1655773
369.50 0.164847
369.60 0.1641137
369.70 0.1633796
369.80 0.1626473
369.90 0.1619202
370.00 0.1612018
370.10 0.1604961
370.20 0.1598067
370.30 0.1591369
370.40 0.1584893
370.50 0.157866
370.60 0.1572681
370.70 0.1566965
370.80 0.1561516
370.90 0.1556335
371.00 0.1551422
371.10 0.1546778
371.20 0.1542403
371.30 0.1538297
371.40 0.1534461
371.50 0.1530899
371.60 0.1527614
371.70 0.1524614
371.80 0.1521907
371.90 0.1519505
372.00 0.151742
372.10 0.1515666
372.20 0.1514255
372.30 0.1513198
372.40 0.1512504
372.50 0.1512181
372.60 0.1512233
372.70 0.1512661
372.80 0.1513469
372.90 0.1514655
373.00 0.1516221
373.10 0.1518166
373.20 0.152049
373.30 0.1523192
373.40 0.1526267
373.50 0.1529709
373.60 0.1533506
373.70 0.1537639
373.80 0.1542083
373.90 0.1546809
374.00 0.1551782
374.10 0.1556966
374.20 0.1562326
374.30 0.1567833
374.40 0.1573461
374.50 0.1579193
374.60 0.1585016
374.70 0.1590924
374.80 0.1596911
374.90 0.1602978
375.00 0.1609123
375.10 0.1615347
375.20 0.162165
375.30 0.1628029
375.40 0.1634482
375.50 0.1641001
375.60 0.1647575
375.70 0.1654186
375.80 0.166081
375.90 0.1667419
376.00 0.1673977
376.10 0.1680452
376.20 0.1686809
376.30 0.169302
376.40 0.169906
376.50 0.1704911
376.60 0.1710563
376.70 0.1716008
376.80 0.1721242
376.90 0.1726264
377.00 0.1731074
377.10 0.1735672
377.20 0.1740059
377.30 0.1744236
377.40 0.1748209
377.50 0.1751989
377.60 0.1755595
377.70 0.1759056
377.80 0.176241
377.90 0.1765703
378.00 0.1768989
378.10 0.1772324
378.20 0.177576
378.30 0.1779346
378.40 0.1783118
378.50 0.1787105
378.60 0.1791327
378.70 0.1795794
378.80 0.1800512
378.90 0.1805483
379.00 0.1810707
379.10 0.1816185
379.20 0.1821916
379.30 0.1827895
379.40 0.1834113
379.50 0.1840546
379.60 0.184716
379.70 0.1853902
379.80 0.1860698
379.90 0.1867458
380.00 0.1874082
380.10 0.1880465
380.20 0.1886504
380.30 0.1892111
380.40 0.1897213
380.50 0.1901757
380.60 0.1905705
380.70 0.1909038
380.80 0.1911744
380.90 0.1913819
381.00 0.1915263
381.10 0.1916075
381.20 0.1916256
381.30 0.1915809
381.40 0.1914741
381.50 0.1913067
381.60 0.1910813
381.70 0.1908014
381.80 0.1904722
381.90 0.1901
382.00 0.1896917
382.10 0.1892546
382.20 0.1887958
382.30 0.1883216
382.40 0.1878369
382.50 0.1873456
382.60 0.1868501
382.70 0.1863518
382.80 0.1858515
382.90 0.1853496
383.00 0.184846
383.10 0.1843408
383.20 0.183834
383.30 0.1833259
383.40 0.182817
383.50 0.1823085
383.60 0.1818021
383.70 0.1813008
383.80 0.1808084
383.90 0.1803296
384.00 0.1798697
384.10 0.1794343
384.20 0.1790287
384.30 0.1786577
384.40 0.178325
384.50 0.1780335
384.60 0.1777851
384.70 0.1775809
384.80 0.1774214
384.90 0.177307
385.00 0.1772376
385.10 0.1772132
385.20 0.1772338
385.30 0.1772991
385.40 0.1774084
385.50 0.1775602
385.60 0.1777523
385.70 0.177981
385.80 0.1782416
385.90 0.178528
386.00 0.1788337
386.10 0.1791516
386.20 0.1794749
386.30 0.1797979
386.40 0.1801157
386.50 0.1804246
386.60 0.1807224
386.70 0.1810077
386.80 0.1812796
386.90 0.181538
387.00 0.1817828
387.10 0.182014
387.20 0.1822315
387.30 0.1824357
387.40 0.1826269
387.50 0.1828058
387.60 0.182974
387.70 0.1831335
387.80 0.1832871
387.90 0.1834382
388.00 0.1835908
388.10 0.183749
388.20 0.1839166
388.30 0.1840972
388.40 0.1842936
388.50 0.1845077
388.60 0.1847412
388.70 0.1849946
388.80 0.1852686
388.90 0.1855631
389.00 0.1858783
389.10 0.1862142
389.20 0.1865707
389.30 0.1869475
389.40 0.1873442
389.50 0.1877597
389.60 0.1881919
389.70 0.1886382
389.80 0.1890946
389.90 0.1895566
390.00 0.1900188
390.10 0.1904756
390.20 0.1909218
390.30 0.1913526
390.40 0.1917643
390.50 0.192154
390.60 0.1925198
390.70 0.1928607
390.80 0.193176
390.90 0.1934656
391.00 0.1937293
391.10 0.1939673
391.20 0.1941796
391.30 0.194367
391.40 0.1945315
391.50 0.1946766
391.60 0.1948089
391.70 0.1949377
391.80 0.195076
391.90 0.1952394
392.00 0.195446
392.10 0.1957143
392.20 0.1960623
392.30 0.1965057
392.40 0.1970574
392.50 0.1977268
392.60 0.1985204
392.70 0.1994418
392.80 0.200493
392.90 0.2016746
393.00 0.202987
393.10 0.20443
393.20 0.2060035
393.30 0.2077071
393.40 0.2095394
393.50 0.211498
393.60 0.2135786
393.70 0.2157747
393.80 0.2180778
393.90 0.2204772
394.00 0.2229607
394.10 0.2255159
394.20 0.2281308
394.30 0.2307945
394.40 0.2334986
394.50 0.2362366
394.60 0.2390041
394.70 0.2417988
394.80 0.2446193
394.90 0.2474652
395.00 0.2503362
395.10 0.2532325
395.20 0.2561539
395.30 0.2591006
395.40 0.2620722
395.50 0.2650687
395.60 0.2680896
395.70 0.2711344
395.80 0.2742024
395.90 0.2772925
396.00 0.2804037
396.10 0.2835349
396.20 0.2866851
396.30 0.2898532
396.40 0.2930386
396.50 0.2962407
396.60 0.2994591
396.70 0.3026936
396.80 0.305944
396.90 0.3092103
397.00 0.3124926
397.10 0.3157907
397.20 0.3191047
397.30 0.3224344
397.40 0.3257791
397.50 0.3291377
397.60 0.3325085
397.70 0.3358884
397.80 0.3392737
397.90 0.3426597
398.00 0.346041
398.10 0.3494121
398.20 0.3527675
398.30 0.3561027
398.40 0.3594136
398.50 0.3626976
398.60 0.3659527
398.70 0.3691777
398.80 0.3723722
398.90 0.3755359
399.00 0.3786688
399.10 0.3817708
399.20 0.384842
399.30 0.3878825
399.40 0.3908929
399.50 0.393874
399.60 0.3968273
399.70 0.399755
399.80 0.4026601
399.90 0.4055465
400.00 0.4084183
400.10 0.4112799
400.20 0.4141355
400.30 0.4169889
400.40 0.4198431
400.50 0.4227003
400.60 0.4255621
400.70 0.4284293
400.80 0.4313024
400.90 0.4341815
401.00 0.4370666
401.10 0.4399579
401.20 0.4428552
401.30 0.4457584
401.40 0.4486672
401.50 0.4515807
401.60 0.4544979
401.70 0.4574168
401.80 0.460335
401.90 0.4632493
402.00 0.4661565
402.10 0.4690528
402.20 0.4719347
402.30 0.4747993
402.40 0.4776441
402.50 0.4804671
402.60 0.4832672
402.70 0.4860437
402.80 0.4887962
402.90 0.4915246
403.00 0.4942287
403.10 0.4969087
403.20 0.4995643
403.30 0.5021949
403.40 0.5047989
403.50 0.5073729
403.60 0.5099114
403.70 0.5124059
403.80 0.5148451
403.90 0.5172152
404.00 0.5195002
404.10 0.5216838
404.20 0.5237502
404.30 0.5256854
404.40 0.5274781
404.50 0.5291199
404.60 0.5306052
404.70 0.5319308
404.80 0.5330949
404.90 0.5340969
405.00 0.5349366
405.10 0.5356141
405.20 0.5361296
405.30 0.5364843
405.40 0.5366811
405.50 0.536726
405.60 0.536629
405.70 0.5364049
405.80 0.5360739
405.90 0.5356611
406.00 0.5351944
406.10 0.5347033
406.20 0.5342159
406.30 0.5337571
406.40 0.5333472
406.50 0.5330009
406.60 0.5327284
406.70 0.5325355
406.80 0.5324252
406.90 0.5323986
407.00 0.5324561
407.10 0.5325975
407.20 0.5328229
407.30 0.5331317
407.40 0.5335224
407.50 0.5339923
407.60 0.5345368
407.70 0.5351489
407.80 0.5358192
407.90 0.5365361
408.00 0.5372864
408.10 0.5380564
408.20 0.5388331
408.30 0.5396048
408.40 0.5403622
408.50 0.5410981
408.60 0.541808
408.70 0.5424892
408.80 0.5431402
408.90 0.5437605
409.00 0.54435
409.10 0.5449087
409.20 0.5454366
409.30 0.5459341
409.40 0.546402
409.50 0.5468419
409.60 0.5472566
409.70 0.5476502
409.80 0.5480282
409.90 0.5483977
410.00 0.5487663
410.10 0.5491421
410.20 0.5495329
410.30 0.5499457
410.40 0.5503859
410.50 0.5508578
410.60 0.551364
410.70 0.5519062
410.80 0.5524852
410.90 0.5531013
411.00 0.5537547
411.10 0.5544453
411.20 0.5551729
411.30 0.5559369
411.40 0.5567356
411.50 0.5575655
411.60 0.5584209
411.70 0.5592932
411.80 0.5601706
411.90 0.5610389
412.00 0.5618816
412.10 0.5626819
412.20 0.5634235
412.30 0.5640921
412.40 0.5646758
412.50 0.5651661
412.60 0.5655573
412.70 0.5658459
412.80 0.5660302
412.90 0.5661095
413.00 0.5660837
413.10 0.5659527
413.20 0.5657168
413.30 0.5653765
413.40 0.5649334
413.50 0.5643908
413.60 0.5637537
413.70 0.5630304
413.80 0.5622315
413.90 0.5613703
414.00 0.5604618
414.10 0.5595217
414.20 0.558565
414.30 0.5576049
414.40 0.5566523
414.50 0.5557152
414.60 0.5547987
414.70 0.5539061
414.80 0.553039
414.90 0.552198
415.00 0.5513832
415.10 0.5505947
415.20 0.5498322
415.30 0.549095
415.40 0.548381
415.50 0.5476865
415.60 0.5470048
415.70 0.5463259
415.80 0.5456365
415.90 0.54492
416.00 0.5441578
416.10 0.5433304
416.20 0.5424191
416.30 0.5414075
416.40 0.5402821
416.50 0.5390329
416.60 0.5376535
416.70 0.5361399
416.80 0.53449
416.90 0.5327032
417.00 0.5307792
417.10 0.5287181
417.20 0.5265201
417.30 0.5241865
417.40 0.5217203
417.50 0.5191276
417.60 0.5164188
417.70 0.5136095
417.80 0.5107205
417.90 0.5077777
418.00 0.5048104
418.10 0.501849
418.20 0.4989226
418.30 0.4960572
418.40 0.4932737
418.50 0.4905876
418.60 0.4880093
418.70 0.4855448
418.80 0.4831974
418.90 0.4809681
419.00 0.4788572
419.10 0.4768649
419.20 0.4749908
419.30 0.4732347
419.40 0.4715952
419.50 0.4700698
419.60 0.4686545
419.70 0.467343
419.80 0.4661268
419.90 0.4649957
420.00 0.463938
420.10 0.4629413
420.20 0.461994
420.30 0.4610857
420.40 0.460208
420.50 0.4593547
420.60 0.4585216
420.70 0.4577064
420.80 0.4569076
420.90 0.456125
421.00 0.4553583
421.10 0.4546075
421.20 0.4538726
421.30 0.4531536
421.40 0.4524502
421.50 0.451762
421.60 0.4510881
421.70 0.4504275
421.80 0.4497787
421.90 0.4491396
422.00 0.4485082
422.10 0.4478822
422.20 0.4472595
422.30 0.4466381
422.40 0.4460166
422.50 0.4453938
422.60 0.4447689
422.70 0.4441415
422.80 0.4435113
422.90 0.4428783
423.00 0.4422424
423.10 0.4416037
423.20 0.4409622
423.30 0.4403185
423.40 0.4396736
423.50 0.4390301
423.60 0.438392
423.70 0.4377654
423.80 0.4371583
423.90 0.4365811
424.00 0.436045
424.10 0.4355621
424.20 0.4351437
424.30 0.4348
424.40 0.4345392
424.50 0.4343673
424.60 0.4342884
424.70 0.4343048
424.80 0.4344179
424.90 0.4346281
425.00 0.4349354
425.10 0.4353399
425.20 0.4358417
425.30 0.4364416
425.40 0.4371411
425.50 0.4379436
425.60 0.4388548
425.70 0.439883
425.80 0.4410398
425.90 0.4423392
426.00 0.443797
426.10 0.44543
426.20 0.4472539
426.30 0.4492829
426.40 0.4515284
426.50 0.4539988
426.60 0.4566998
426.70 0.4596346
426.80 0.4628051
426.90 0.4662118
427.00 0.4698549
427.10 0.4737344
427.20 0.47785
427.30 0.4822002
427.40 0.4867815
427.50 0.4915866
427.60 0.4966036
427.70 0.5018143
427.80 0.5071942
427.90 0.5127132
428.00 0.5183371
428.10 0.5240304
428.20 0.529759
428.30 0.5354927
428.40 0.541207
428.50 0.5468838
428.60 0.5525111
428.70 0.5580816
428.80 0.5635918
428.90 0.5690403
429.00 0.5744267
429.10 0.579751
429.20 0.5850134
429.30 0.590214
429.40 0.5953536
429.50 0.6004337
429.60 0.6054567
429.70 0.6104263
429.80 0.6153474
429.90 0.6202262
430.00 0.6250694
430.10 0.6298845
430.20 0.6346781
430.30 0.6394565
430.40 0.6442246
430.50 0.648986
430.60 0.6537433
430.70 0.6584978
430.80 0.6632503
430.90 0.6680011
431.00 0.6727502
431.10 0.6774976
431.20 0.6822433
431.30 0.6869868
431.40 0.691727
431.50 0.6964619
431.60 0.7011878
431.70 0.7058992
431.80 0.710589
431.90 0.7152482
432.00 0.7198665
432.10 0.7244333
432.20 0.7289386
432.30 0.7333733
432.40 0.7377301
432.50 0.7420036
432.60 0.7461902
432.70 0.7502878
432.80 0.7542953
432.90 0.7582124
433.00 0.7620388
433.10 0.7657746
433.20 0.7694199
433.30 0.772975
433.40 0.7764407
433.50 0.7798189
433.60 0.7831123
433.70 0.7863252
433.80 0.7894635
433.90 0.7925345
434.00 0.7955461
434.10 0.7985069
434.20 0.801425
434.30 0.8043075
434.40 0.8071604
434.50 0.8099879
434.60 0.8127929
434.70 0.8155772
434.80 0.8183415
434.90 0.8210862
435.00 0.8238113
435.10 0.826517
435.20 0.829203
435.30 0.831869
435.40 0.8345138
435.50 0.837135
435.60 0.839729
435.70 0.8422898
435.80 0.8448099
435.90 0.8472795
436.00 0.8496878
436.10 0.8520237
436.20 0.8542761
436.30 0.8564356
436.40 0.8584944
436.50 0.8604467
436.60 0.8622887
436.70 0.8640182
436.80 0.8656339
436.90 0.8671354
437.00 0.8685227
437.10 0.8697957
437.20 0.8709546
437.30 0.8719998
437.40 0.8729326
437.50 0.8737555
437.60 0.8744728
437.70 0.8750909
437.80 0.8756183
437.90 0.8760656
438.00 0.876445
438.10 0.8767688
438.20 0.8770491
438.30 0.8772964
438.40 0.8775195
438.50 0.8777246
438.60 0.8779161
438.70 0.8780963
438.80 0.8782667
438.90 0.8784276
439.00 0.8785793
439.10 0.8787217
439.20 0.8788548
439.30 0.8789789
439.40 0.8790946
439.50 0.8792031
439.60 0.8793063
439.70 0.8794072
439.80 0.8795098
439.90 0.879619
440.00 0.8797405
440.10 0.87988
440.20 0.8800431
440.30 0.8802347
440.40 0.8804589
440.50 0.8807186
440.60 0.8810158
440.70 0.8813516
440.80 0.8817268
440.90 0.8821413
441.00 0.8825955
441.10 0.8830891
441.20 0.8836224
441.30 0.8841957
441.40 0.8848098
441.50 0.8854667
441.60 0.8861693
441.70 0.8869223
441.80 0.8877319
441.90 0.8886057
442.00 0.8895523
442.10 0.8905808
442.20 0.8916999
442.30 0.8929171
442.40 0.8942388
442.50 0.8956694
442.60 0.8972121
442.70 0.8988686
442.80 0.9006399
442.90 0.9025263
443.00 0.904528
443.10 0.9066448
443.20 0.9088769
443.30 0.9112241
443.40 0.9136862
443.50 0.9162629
443.60 0.9189535
443.70 0.9217571
443.80 0.9246725
443.90 0.927698
444.00 0.9308319
444.10 0.9340724
444.20 0.9374177
444.30 0.9408662
444.40 0.9444166
444.50 0.9480681
444.60 0.9518199
444.70 0.9556717
444.80 0.9596234
444.90 0.9636749
445.00 0.9678261
445.10 0.972077
445.20 0.9764274
445.30 0.9808759
445.40 0.9854197
445.50 0.9900523
445.60 0.9947634
445.70 0.9995374
445.80 1.004353
445.90 1.009184
446.00 1.014001
446.10 1.018774
446.20 1.023472
446.30 1.028071
446.40 1.032547
446.50 1.036887
446.60 1.041079
446.70 1.045117
446.80 1.048999
446.90 1.052723
447.00 1.056288
447.10 1.059695
447.20 1.062943
447.30 1.066035
447.40 1.068971
447.50 1.071757
447.60 1.074401
447.70 1.076913
447.80 1.07931
447.90 1.081611
448.00 1.083837
448.10 1.086012
448.20 1.088156
448.30 1.09029
448.40 1.092428
448.50 1.094583
448.60 1.096762
448.70 1.098969
448.80 1.101208
448.90 1.103478
449.00 1.105781
449.10 1.108115
449.20 1.110482
449.30 1.11288
449.40 1.11531
449.50 1.117772
449.60 1.120264
449.70 1.122785
449.80 1.125335
449.90 1.127911
450.00 1.130511
450.10 1.133134
450.20 1.135776
450.30 1.138437
450.40 1.141115
450.50 1.143809
450.60 1.146517
450.70 1.14924
450.80 1.151978
450.90 1.15473
451.00 1.157497
451.10 1.160277
451.20 1.163072
451.30 1.165881
451.40 1.168702
451.50 1.171533
451.60 1.17437
451.70 1.177206
451.80 1.180033
451.90 1.182839
452.00 1.185614
452.10 1.188344
452.20 1.191017
452.30 1.193623
452.40 1.196153
452.50 1.1986
452.60 1.200961
452.70 1.203232
452.80 1.205413
452.90 1.207504
453.00 1.209503
453.10 1.211411
453.20 1.213228
453.30 1.214954
453.40 1.216589
453.50 1.218135
453.60 1.219592
453.70 1.220962
453.80 1.222246
453.90 1.223449
454.00 1.224573
454.10 1.225622
454.20 1.226598
454.30 1.227505
454.40 1.228344
454.50 1.229118
454.60 1.229827
454.70 1.230473
454.80 1.231055
454.90 1.231573
455.00 1.232029
455.10 1.232421
455.20 1.23275
455.30 1.233016
455.40 1.233223
455.50 1.233375
455.60 1.233478
455.70 1.233544
455.80 1.233589
455.90 1.233632
456.00 1.233692
456.10 1.233794
456.20 1.233957
456.30 1.2342
456.40 1.23454
456.50 1.234986
456.60 1.235547
456.70 1.236227
456.80 1.237028
456.90 1.237952
457.00 1.238997
457.10 1.240166
457.20 1.241456
457.30 1.242867
457.40 1.244397
457.50 1.246039
457.60 1.247786
457.70 1.249625
457.80 1.251536
457.90 1.253498
458.00 1.255485
458.10 1.257473
458.20 1.259435
458.30 1.261349
458.40 1.263198
458.50 1.264968
458.60 1.26665
458.70 1.26824
458.80 1.269734
458.90 1.271131
459.00 1.272431
459.10 1.273635
459.20 1.274741
459.30 1.275752
459.40 1.276667
459.50 1.277488
459.60 1.278219
459.70 1.278864
459.80 1.27943
459.90 1.279925
460.00 1.280358
460.10 1.280738
460.20 1.281074
460.30 1.281374
460.40 1.281645
460.50 1.281892
460.60 1.282117
460.70 1.282323
460.80 1.28251
460.90 1.282679
461.00 1.28283
461.10 1.282963
461.20 1.283078
461.30 1.283176
461.40 1.283256
461.50 1.28332
461.60 1.28337
461.70 1.28341
461.80 1.283443
461.90 1.283475
462.00 1.283512
462.10 1.283559
462.20 1.283623
462.30 1.283709
462.40 1.283822
462.50 1.283963
462.60 1.284135
462.70 1.284341
462.80 1.284579
462.90 1.28485
463.00 1.285156
463.10 1.285494
463.20 1.285866
463.30 1.286271
463.40 1.286707
463.50 1.287172
463.60 1.287662
463.70 1.288169
463.80 1.288685
463.90 1.289199
464.00 1.289698
464.10 1.290169
464.20 1.290599
464.30 1.290977
464.40 1.291295
464.50 1.291545
464.60 1.291724
464.70 1.291828
464.80 1.291856
464.90 1.291808
465.00 1.291684
465.10 1.291483
465.20 1.291206
465.30 1.290853
465.40 1.290425
465.50 1.289923
465.60 1.289352
465.70 1.288714
465.80 1.288017
465.90 1.287268
466.00 1.286475
466.10 1.285648
466.20 1.284795
466.30 1.283923
466.40 1.283039
466.50 1.282147
466.60 1.28125
466.70 1.280351
466.80 1.279449
466.90 1.278545
467.00 1.27764
467.10 1.276733
467.20 1.275824
467.30 1.274913
467.40 1.274001
467.50 1.273088
467.60 1.272173
467.70 1.271256
467.80 1.270338
467.90 1.269419
468.00 1.2685
468.10 1.26758
468.20 1.266659
468.30 1.265739
468.40 1.264819
468.50 1.263898
468.60 1.262978
468.70 1.262059
468.80 1.261139
468.90 1.260221
469.00 1.259302
469.10 1.258384
469.20 1.257466
469.30 1.256547
469.40 1.255625
469.50 1.254696
469.60 1.253752
469.70 1.252782
469.80 1.251771
469.90 1.2507
470.00 1.249547
470.10 1.248292
470.20 1.246912
470.30 1.245389
470.40 1.243708
470.50 1.241857
470.60 1.23983
470.70 1.237621
470.80 1.235229
470.90 1.232652
471.00 1.229891
471.10 1.226944
471.20 1.223814
471.30 1.2205
471.40 1.217007
471.50 1.21334
471.60 1.209509
471.70 1.205532
471.80 1.20143
471.90 1.197228
472.00 1.192958
472.10 1.18865
472.20 1.184335
472.30 1.180039
472.40 1.175784
472.50 1.171586
472.60 1.167455
472.70 1.163398
472.80 1.159418
472.90 1.155516
473.00 1.151692
473.10 1.147947
473.20 1.14428
473.30 1.140692
473.40 1.137183
473.50 1.133755
473.60 1.130408
473.70 1.127146
473.80 1.123971
473.90 1.120889
474.00 1.117904
474.10 1.11502
474.20 1.112244
474.30 1.109578
474.40 1.107026
474.50 1.104592
474.60 1.102276
474.70 1.10008
474.80 1.098004
474.90 1.096048
475.00 1.094213
475.10 1.092498
475.20 1.090903
475.30 1.089428
475.40 1.088073
475.50 1.086834
475.60 1.08571
475.70 1.084697
475.80 1.083787
475.90 1.082975
476.00 1.082251
476.10 1.081608
476.20 1.081037
476.30 1.080531
476.40 1.080083
476.50 1.079691
476.60 1.07935
476.70 1.079059
476.80 1.078817
476.90 1.078624
477.00 1.07848
477.10 1.078385
477.20 1.078338
477.30 1.07834
477.40 1.078392
477.50 1.078494
477.60 1.078647
477.70 1.078854
477.80 1.079118
477.90 1.079441
478.00 1.079829
478.10 1.080284
478.20 1.080812
478.30 1.081415
478.40 1.082096
478.50 1.082857
478.60 1.0837
478.70 1.084626
478.80 1.085635
478.90 1.086727
479.00 1.087902
479.10 1.089161
479.20 1.090502
479.30 1.091928
479.40 1.093437
479.50 1.095031
479.60 1.096712
479.70 1.098482
479.80 1.100346
479.90 1.102307
480.00 1.104372
480.10 1.106544
480.20 1.108829
480.30 1.111232
480.40 1.113756
480.50 1.116404
480.60 1.119178
480.70 1.122078
480.80 1.125106
480.90 1.128261
481.00 1.131544
481.10 1.134955
481.20 1.138493
481.30 1.142158
481.40 1.145947
481.50 1.149859
481.60 1.153886
481.70 1.15802
481.80 1.162249
481.90 1.166559
482.00 1.170934
482.10 1.175356
482.20 1.179809
482.30 1.184278
482.40 1.188752
482.50 1.193221
482.60 1.197681
482.70 1.202128
482.80 1.20656
482.90 1.210976
483.00 1.215376
483.10 1.21976
483.20 1.224128
483.30 1.22848
483.40 1.232815
483.50 1.237131
483.60 1.241426
483.70 1.245696
483.80 1.249936
483.90 1.254139
484.00 1.258297
484.10 1.262403
484.20 1.26645
484.30 1.270431
484.40 1.274341
484.50 1.278175
484.60 1.281932
484.70 1.28561
484.80 1.289207
484.90 1.292724
485.00 1.29616
485.10 1.299516
485.20 1.302791
485.30 1.305986
485.40 1.309101
485.50 1.312136
485.60 1.315092
485.70 1.31797
485.80 1.320772
485.90 1.3235
486.00 1.326156
486.10 1.328741
486.20 1.331259
486.30 1.33371
486.40 1.336098
486.50 1.338422
486.60 1.340683
486.70 1.342883
486.80 1.34502
486.90 1.347096
487.00 1.34911
487.10 1.351063
487.20 1.352954
487.30 1.354782
487.40 1.356548
487.50 1.358249
487.60 1.359883
487.70 1.361445
487.80 1.36293
487.90 1.364331
488.00 1.36564
488.10 1.366849
488.20 1.36795
488.30 1.368936
488.40 1.369802
488.50 1.370543
488.60 1.371156
488.70 1.371641
488.80 1.371995
488.90 1.37222
489.00 1.372314
489.10 1.372277
489.20 1.372111
489.30 1.371814
489.40 1.371388
489.50 1.370833
489.60 1.370151
489.70 1.369345
489.80 1.368418
489.90 1.367373
490.00 1.366216
490.10 1.364952
490.20 1.363584
490.30 1.362118
490.40 1.360556
490.50 1.358901
490.60 1.357155
490.70 1.355318
490.80 1.353392
490.90 1.351375
491.00 1.349269
491.10 1.347074
491.20 1.344788
491.30 1.342413
491.40 1.339949
491.50 1.337396
491.60 1.334757
491.70 1.332032
491.80 1.329225
491.90 1.326339
492.00 1.323377
492.10 1.320344
492.20 1.317242
492.30 1.314076
492.40 1.310848
492.50 1.307559
492.60 1.304212
492.70 1.300807
492.80 1.297344
492.90 1.293823
493.00 1.290245
493.10 1.28661
493.20 1.282917
493.30 1.279167
493.40 1.275359
493.50 1.271493
493.60 1.267569
493.70 1.263587
493.80 1.259547
493.90 1.255447
494.00 1.251287
494.10 1.247067
494.20 1.242785
494.30 1.238442
494.40 1.234037
494.50 1.229569
494.60 1.225039
494.70 1.220446
494.80 1.215789
494.90 1.21107
495.00 1.206288
495.10 1.201444
495.20 1.196536
495.30 1.191566
495.40 1.186536
495.50 1.181449
495.60 1.176311
495.70 1.171131
495.80 1.16592
495.90 1.160693
496.00 1.155467
496.10 1.150259
496.20 1.145085
496.30 1.13996
496.40 1.134896
496.50 1.129901
496.60 1.124981
496.70 1.12014
496.80 1.11538
496.90 1.110701
497.00 1.106103
497.10 1.101586
497.20 1.097151
497.30 1.092797
497.40 1.088524
497.50 1.084331
497.60 1.080216
497.70 1.07618
497.80 1.072218
497.90 1.068328
498.00 1.064508
498.10 1.060753
498.20 1.05706
498.30 1.053427
498.40 1.049852
498.50 1.046332
498.60 1.042866
498.70 1.039455
498.80 1.036096
498.90 1.032791
499.00 1.02954
499.10 1.026342
499.20 1.023197
499.30 1.020105
499.40 1.017067
499.50 1.014083
499.60 1.011153
499.70 1.008278
499.80 1.005461
499.90 1.002701
500.00 1
500.10 0.9973607
500.20 0.9947842
500.30 0.9922719
500.40 0.9898251
500.50 0.9874445
500.60 0.9851307
500.70 0.9828841
500.80 0.9807048
500.90 0.9785929
501.00 0.9765485
501.10 0.9745715
501.20 0.9726618
501.30 0.9708193
501.40 0.9690432
501.50 0.9673326
501.60 0.9656852
501.70 0.9640981
501.80 0.9625673
501.90 0.9610876
502.00 0.9596533
502.10 0.9582586
502.20 0.9568978
502.30 0.9555657
502.40 0.9542583
502.50 0.9529726
502.60 0.9517066
502.70 0.9504591
502.80 0.9492294
502.90 0.9480174
503.00 0.9468229
503.10 0.945646
503.20 0.9444868
503.30 0.9433455
503.40 0.9422228
503.50 0.9411202
503.60 0.94004
503.70 0.9389859
503.80 0.9379627
503.90 0.9369764
504.00 0.9360337
504.10 0.9351416
504.20 0.9343071
504.30 0.9335359
504.40 0.9328331
504.50 0.9322021
504.60 0.9316453
504.70 0.9311643
504.80 0.9307597
504.90 0.9304317
505.00 0.9301805
505.10 0.930006
505.20 0.9299082
505.30 0.9298862
505.40 0.9299385
505.50 0.9300616
505.60 0.93025
505.70 0.9304951
505.80 0.9307854
505.90 0.9311067
506.00 0.9314431
506.10 0.9317779
506.20 0.932095
506.30 0.9323802
506.40 0.9326222
506.50 0.9328124
506.60 0.932945
506.70 0.9330169
506.80 0.9330262
506.90 0.9329724
507.00 0.9328551
507.10 0.9326746
507.20 0.9324308
507.30 0.9321239
507.40 0.9317546
507.50 0.9313242
507.60 0.9308347
507.70 0.9302894
507.80 0.9296925
507.90 0.9290494
508.00 0.928366
508.10 0.9276486
508.20 0.9269032
508.30 0.9261351
508.40 0.9253485
508.50 0.9245466
508.60 0.9237316
508.70 0.9229048
508.80 0.9220667
508.90 0.9212176
509.00 0.9203576
509.10 0.9194866
509.20 0.9186047
509.30 0.9177118
509.40 0.9168079
509.50 0.9158929
509.60 0.9149664
509.70 0.9140283
509.80 0.913078
509.90 0.912115
510.00 0.9111387
510.10 0.9101485
510.20 0.9091438
510.30 0.9081239
510.40 0.9070886
510.50 0.9060374
510.60 0.9049701
510.70 0.9038866
510.80 0.9027869
510.90 0.9016708
511.00 0.9005385
511.10 0.8993899
511.20 0.8982251
511.30 0.8970445
511.40 0.8958489
511.50 0.8946402
511.60 0.8934215
511.70 0.8921974
511.80 0.8909741
511.90 0.8897593
512.00 0.8885619
512.10 0.8873907
512.20 0.8862545
512.30 0.885161
512.40 0.8841164
512.50 0.8831255
512.60 0.8821912
512.70 0.8813153
512.80 0.8804988
512.90 0.8797421
513.00 0.8790452
513.10 0.8784082
513.20 0.877831
513.30 0.8773136
513.40 0.876856
513.50 0.876458
513.60 0.8761197
513.70 0.8758407
513.80 0.8756208
513.90 0.8754597
514.00 0.8753569
514.10 0.8753122
514.20 0.875325
514.30 0.8753952
514.40 0.8755224
514.50 0.8757064
514.60 0.8759471
514.70 0.8762444
514.80 0.8765983
514.90 0.8770087
515.00 0.8774757
515.10 0.8779992
515.20 0.8785795
515.30 0.8792177
515.40 0.8799162
515.50 0.8806803
515.60 0.8815186
515.70 0.8824442
515.80 0.8834746
515.90 0.8846317
516.00 0.8859399
516.10 0.8874248
516.20 0.889111
516.30 0.8910202
516.40 0.8931699
516.50 0.8955733
516.60 0.898239
516.70 0.9011721
516.80 0.9043753
516.90 0.9078496
517.00 0.9115952
517.10 0.915612
517.20 0.9199
517.30 0.9244584
517.40 0.929285
517.50 0.934376
517.60 0.9397247
517.70 0.9453208
517.80 0.9511508
517.90 0.9571979
518.00 0.963443
518.10 0.9698664
518.20 0.9764491
518.30 0.9831741
518.40 0.990028
518.50 0.9970005
518.60 1.004085
518.70 1.011277
518.80 1.018576
518.90 1.025979
519.00 1.033488
519.10 1.041102
519.20 1.04882
519.30 1.056642
519.40 1.064565
519.50 1.072584
519.60 1.08069
519.70 1.088868
519.80 1.097103
519.90 1.105369
520.00 1.113644
520.10 1.121899
520.20 1.13011
520.30 1.138255
520.40 1.146315
520.50 1.154277
520.60 1.162131
520.70 1.169873
520.80 1.1775
520.90 1.185011
521.00 1.192405
521.10 1.199683
521.20 1.206845
521.30 1.213892
521.40 1.220828
521.50 1.227658
521.60 1.234395
521.70 1.241054
521.80 1.247658
521.90 1.254235
522.00 1.260815
522.10 1.267431
522.20 1.274114
522.30 1.280892
522.40 1.287787
522.50 1.294815
522.60 1.301988
522.70 1.309313
522.80 1.316792
522.90 1.324426
523.00 1.332216
523.10 1.340163
523.20 1.348265
523.30 1.356523
523.40 1.364934
523.50 1.373494
523.60 1.382197
523.70 1.391035
523.80 1.399993
523.90 1.409056
524.00 1.418208
524.10 1.427428
524.20 1.436699
524.30 1.446007
524.40 1.455337
524.50 1.46468
524.60 1.47403
524.70 1.483384
524.80 1.492739
524.90 1.502095
525.00 1.511452
525.10 1.520809
525.20 1.530167
525.30 1.539523
525.40 1.548872
525.50 1.558205
525.60 1.567506
525.70 1.576751
525.80 1.585908
525.90 1.594936
526.00 1.60379
526.10 1.612424
526.20 1.620791
526.30 1.628851
526.40 1.636573
526.50 1.643933
526.60 1.650913
526.70 1.657505
526.80 1.663704
526.90 1.669508
527.00 1.674917
527.10 1.67993
527.20 1.684549
527.30 1.688774
527.40 1.692611
527.50 1.69607
527.60 1.699166
527.70 1.701925
527.80 1.704378
527.90 1.706567
528.00 1.708537
528.10 1.710336
528.20 1.712011
528.30 1.713601
528.40 1.715139
528.50 1.716651
528.60 1.718152
528.70 1.719652
528.80 1.721155
528.90 1.722664
529.00 1.724179
529.10 1.7257
529.20 1.727227
529.30 1.728761
529.40 1.730303
529.50 1.731856
529.60 1.733426
529.70 1.735021
529.80 1.73665
529.90 1.738328
530.00 1.740068
530.10 1.741886
530.20 1.743797
530.30 1.745813
530.40 1.747946
530.50 1.750203
530.60 1.752589
530.70 1.755107
530.80 1.757759
530.90 1.760546
531.00 1.763468
531.10 1.766524
531.20 1.769714
531.30 1.773037
531.40 1.776488
531.50 1.78006
531.60 1.783737
531.70 1.787499
531.80 1.791317
531.90 1.795157
532.00 1.798977
532.10 1.802737
532.20 1.806397
532.30 1.809921
532.40 1.813281
532.50 1.816457
532.60 1.819432
532.70 1.822201
532.80 1.824757
532.90 1.8271
533.00 1.829229
533.10 1.831144
533.20 1.832845
533.30 1.834333
533.40 1.83561
533.50 1.836679
533.60 1.837545
533.70 1.838218
533.80 1.838707
533.90 1.839029
534.00 1.839197
534.10 1.839229
534.20 1.839142
534.30 1.838947
534.40 1.838659
534.50 1.838283
534.60 1.837827
534.70 1.837294
534.80 1.836685
534.90 1.836001
535.00 1.835242
535.10 1.834408
535.20 1.833499
535.30 1.832517
535.40 1.831463
535.50 1.830343
535.60 1.829165
535.70 1.827941
535.80 1.826688
535.90 1.825427
536.00 1.824181
536.10 1.822974
536.20 1.82183
536.30 1.82077
536.40 1.81981
536.50 1.818962
536.60 1.818235
536.70 1.817633
536.80 1.81716
536.90 1.816816
537.00 1.816601
537.10 1.816516
537.20 1.816559
537.30 1.81673
537.40 1.817025
537.50 1.817435
537.60 1.817947
537.70 1.818542
537.80 1.819193
537.90 1.819865
538.00 1.820523
538.10 1.821126
538.20 1.821637
538.30 1.822023
538.40 1.822258
538.50 1.822321
538.60 1.822198
538.70 1.821883
538.80 1.821371
538.90 1.82066
539.00 1.81975
539.10 1.818642
539.20 1.817335
539.30 1.815831
539.40 1.814133
539.50 1.812247
539.60 1.810185
539.70 1.807963
539.80 1.805602
539.90 1.803131
540.00 1.80058
540.10 1.797981
540.20 1.795365
540.30 1.79276
540.40 1.790187
540.50 1.787664
540.60 1.7852
540.70 1.782803
540.80 1.780476
540.90 1.778219
541.00 1.776034
541.10 1.77392
541.20 1.771877
541.30 1.769905
541.40 1.768004
541.50 1.766172
541.60 1.764409
541.70 1.762711
541.80 1.761075
541.90 1.759498
542.00 1.757975
542.10 1.756502
542.20 1.755073
542.30 1.753685
542.40 1.752335
542.50 1.751021
542.60 1.74974
542.70 1.748492
542.80 1.747277
542.90 1.746093
543.00 1.744942
543.10 1.743823
543.20 1.742736
543.30 1.741681
543.40 1.740657
543.50 1.739662
543.60 1.738693
543.70 1.737746
543.80 1.736815
543.90 1.735893
544.00 1.734971
544.10 1.734041
544.20 1.733095
544.30 1.732125
544.40 1.731126
544.50 1.730093
544.60 1.729023
544.70 1.727914
544.80 1.726767
544.90 1.725579
545.00 1.724352
545.10 1.723085
545.20 1.721779
545.30 1.720433
545.40 1.719052
545.50 1.717638
545.60 1.7162
545.70 1.714749
545.80 1.7133
545.90 1.711872
546.00 1.710486
546.10 1.709165
546.20 1.707929
546.30 1.706798
546.40 1.705787
546.50 1.704907
546.60 1.704165
546.70 1.703567
546.80 1.703114
546.90 1.702808
547.00 1.702648
547.10 1.702634
547.20 1.702767
547.30 1.703046
547.40 1.703472
547.50 1.704044
547.60 1.704762
547.70 1.705627
547.80 1.706637
547.90 1.707793
548.00 1.709094
548.10 1.71054
548.20 1.712131
548.30 1.713867
548.40 1.715746
548.50 1.71777
548.60 1.719938
548.70 1.722249
548.80 1.724705
548.90 1.727304
549.00 1.730047
549.10 1.732934
549.20 1.735964
549.30 1.739138
549.40 1.742451
549.50 1.745901
549.60 1.749479
549.70 1.753173
549.80 1.756968
549.90 1.760845
550.00 1.721276
550.10 1.723689
550.20 1.726358
550.30 1.729284
550.40 1.732466
550.50 1.735902
550.60 1.739588
550.70 1.743518
550.80 1.747687
550.90 1.752084
551.00 1.7567
551.10 1.761525
551.20 1.766549
551.30 1.771762
551.40 1.777158
551.50 1.782732
551.60 1.788479
551.70 1.794398
551.80 1.800488
551.90 1.806748
552.00 1.813178
552.10 1.819779
552.20 1.826549
552.30 1.833487
552.40 1.840586
552.50 1.847835
552.60 1.855215
552.70 1.862695
552.80 1.870236
552.90 1.877789
553.00 1.885298
553.10 1.892705
553.20 1.899956
553.30 1.907
553.40 1.913798
553.50 1.920321
553.60 1.926549
553.70 1.93247
553.80 1.938078
553.90 1.943371
554.00 1.948349
554.10 1.953012
554.20 1.957359
554.30 1.96139
554.40 1.965107
554.50 1.968511
554.60 1.971603
554.70 1.974387
554.80 1.976867
554.90 1.979047
555.00 1.980934
555.10 1.982533
555.20 1.98385
555.30 1.98489
555.40 1.985656
555.50 1.986153
555.60 1.986382
555.70 1.986345
555.80 1.986041
555.90 1.985471
556.00 1.984635
556.10 1.983534
556.20 1.982166
556.30 1.980534
556.40 1.97864
556.50 1.976488
556.60 1.974086
556.70 1.971447
556.80 1.968585
556.90 1.965521
557.00 1.962278
557.10 1.958878
557.20 1.955344
557.30 1.951696
557.40 1.947949
557.50 1.944116
557.60 1.940205
557.70 1.93622
557.80 1.932163
557.90 1.928036
558.00 1.923838
558.10 1.91957
558.20 1.915232
558.30 1.910827
558.40 1.90636
558.50 1.901843
558.60 1.897296
558.70 1.892747
558.80 1.888238
558.90 1.883816
559.00 1.879537
559.10 1.875458
559.20 1.871636
559.30 1.868119
559.40 1.864947
559.50 1.862149
559.60 1.859745
559.70 1.857747
559.80 1.856159
559.90 1.854985
560.00 1.854226
560.10 1.85388
560.20 1.853949
560.30 1.85443
560.40 1.855323
560.50 1.856624
560.60 1.858327
560.70 1.860423
560.80 1.862899
560.90 1.86574
561.00 1.868929
561.10 1.872449
561.20 1.876282
561.30 1.880414
561.40 1.884831
561.50 1.889525
561.60 1.89449
561.70 1.899722
561.80 1.905219
561.90 1.910981
562.00 1.917007
562.10 1.923298
562.20 1.929853
562.30 1.936669
562.40 1.94374
562.50 1.951053
562.60 1.958586
562.70 1.966306
562.80 1.97417
562.90 1.982122
563.00 1.990102
563.10 1.998045
563.20 2.005889
563.30 2.013581
563.40 2.021075
563.50 2.02834
563.60 2.035353
563.70 2.042101
563.80 2.048579
563.90 2.054783
564.00 2.060713
564.10 2.066369
564.20 2.071751
564.30 2.07686
564.40 2.081699
564.50 2.086273
564.60 2.09059
564.70 2.094663
564.80 2.09851
564.90 2.102152
565.00 2.105614
565.10 2.108921
565.20 2.112097
565.30 2.115163
565.40 2.118138
565.50 2.121034
565.60 2.123859
565.70 2.126619
565.80 2.129316
565.90 2.131952
566.00 2.134526
566.10 2.137039
566.20 2.13949
566.30 2.14188
566.40 2.144209
566.50 2.146477
566.60 2.148686
566.70 2.150838
566.80 2.152934
566.90 2.154978
567.00 2.156972
567.10 2.158919
567.20 2.160823
567.30 2.162686
567.40 2.164511
567.50 2.1663
567.60 2.168052
567.70 2.16977
567.80 2.171452
567.90 2.1731
568.00 2.174714
568.10 2.176292
568.20 2.177837
568.30 2.179348
568.40 2.180827
568.50 2.182279
568.60 2.18371
568.70 2.185131
568.80 2.186556
568.90 2.188002
569.00 2.189489
569.10 2.191036
569.20 2.192664
569.30 2.194389
569.40 2.196226
569.50 2.198184
569.60 2.200272
569.70 2.202492
569.80 2.204847
569.90 2.207338
570.00 2.209965
570.10 2.212728
570.20 2.215627
570.30 2.218662
570.40 2.221831
570.50 2.225133
570.60 2.228567
570.70 2.232127
570.80 2.235809
570.90 2.239606
571.00 2.243511
571.10 2.247516
571.20 2.251615
571.30 2.255801
571.40 2.260068
571.50 2.264413
571.60 2.268833
571.70 2.273327
571.80 2.277894
571.90 2.282533
572.00 2.287245
572.10 2.292029
572.20 2.296886
572.30 2.301812
572.40 2.306802
572.50 2.311846
572.60 2.316925
572.70 2.322011
572.80 2.327067
572.90 2.332046
573.00 2.336897
573.10 2.341564
573.20 2.345996
573.30 2.350146
573.40 2.353977
573.50 2.35746
573.60 2.360579
573.70 2.363321
573.80 2.365681
573.90 2.367658
574.00 2.369249
574.10 2.370456
574.20 2.371279
574.30 2.37172
574.40 2.371782
574.50 2.371476
574.60 2.370815
574.70 2.369822
574.80 2.368528
574.90 2.366969
575.00 2.365188
575.10 2.363228
575.20 2.361131
575.30 2.358935
575.40 2.35667
575.50 2.354359
575.60 2.352015
575.70 2.349648
575.80 2.347263
575.90 2.344861
576.00 2.342442
576.10 2.340007
576.20 2.337555
576.30 2.335088
576.40 2.332606
576.50 2.330114
576.60 2.327616
576.70 2.325121
576.80 2.322639
576.90 2.320185
577.00 2.317772
577.10 2.315418
577.20 2.313137
577.30 2.310943
577.40 2.308846
577.50 2.306855
577.60 2.304976
577.70 2.303211
577.80 2.301562
577.90 2.30003
578.00 2.298614
578.10 2.297315
578.20 2.296133
578.30 2.295068
578.40 2.294121
578.50 2.293291
578.60 2.292581
578.70 2.291992
578.80 2.291527
578.90 2.291189
579.00 2.290981
579.10 2.290907
579.20 2.290971
579.30 2.291175
579.40 2.291523
579.50 2.292015
579.60 2.292654
579.70 2.29344
579.80 2.294374
579.90 2.295455
580.00 2.296683
580.10 2.29806
580.20 2.299583
580.30 2.301253
580.40 2.303065
580.50 2.305012
580.60 2.307083
580.70 2.309261
580.80 2.311522
580.90 2.313836
581.00 2.316172
581.10 2.318494
581.20 2.320769
581.30 2.322969
581.40 2.32507
581.50 2.327055
581.60 2.328912
581.70 2.330633
581.80 2.332216
581.90 2.333659
582.00 2.334962
582.10 2.336125
582.20 2.337147
582.30 2.338028
582.40 2.338766
582.50 2.339355
582.60 2.339789
582.70 2.340055
582.80 2.340139
582.90 2.340021
583.00 2.339679
583.10 2.339092
583.20 2.338236
583.30 2.337094
583.40 2.33565
583.50 2.333892
583.60 2.331813
583.70 2.329407
583.80 2.326674
583.90 2.323611
584.00 2.320219
584.10 2.316498
584.20 2.312447
584.30 2.308062
584.40 2.303333
584.50 2.298241
584.60 2.292755
584.70 2.286825
584.80 2.280387
584.90 2.273361
585.00 2.265655
585.10 2.257174
585.20 2.247828
585.30 2.237536
585.40 2.226233
585.50 2.213871
585.60 2.200417
585.70 2.185853
585.80 2.170168
585.90 2.15336
586.00 2.135426
586.10 2.116368
586.20 2.096188
586.30 2.074896
586.40 2.052521
586.50 2.029119
586.60 2.004783
586.70 1.979654
586.80 1.953923
586.90 1.927824
587.00 1.901624
587.10 1.875598
587.20 1.850011
587.30 1.825099
587.40 1.801053
587.50 1.778012
587.60 1.756071
587.70 1.735286
587.80 1.715684
587.90 1.697277
588.00 1.680067
588.10 1.664055
588.20 1.649239
588.30 1.635624
588.40 1.623214
588.50 1.612018
588.60 1.602055
588.70 1.59335
588.80 1.585938
588.90 1.579863
589.00 1.575173
589.10 1.571918
589.20 1.570149
589.30 1.569908
589.40 1.571229
589.50 1.574139
589.60 1.578656
589.70 1.584789
589.80 1.592543
589.90 1.601921
590.00 1.612923
590.10 1.625549
590.20 1.639796
590.30 1.655652
590.40 1.673086
590.50 1.692037
590.60 1.712401
590.70 1.734023
590.80 1.756694
590.90 1.780154
591.00 1.804111
591.10 1.82826
591.20 1.85231
591.30 1.876001
591.40 1.899123
591.50 1.921521
591.60 1.943092
591.70 1.963774
591.80 1.983537
591.90 2.002368
592.00 2.020264
592.10 2.037226
592.20 2.053254
592.30 2.068352
592.40 2.082527
592.50 2.095795
592.60 2.108183
592.70 2.119733
592.80 2.130497
592.90 2.140545
593.00 2.149951
593.10 2.158795
593.20 2.167154
593.30 2.175094
593.40 2.182671
593.50 2.189924
593.60 2.196881
593.70 2.203558
593.80 2.209962
593.90 2.216097
594.00 2.221964
594.10 2.227562
594.20 2.232892
594.30 2.237955
594.40 2.242754
594.50 2.247294
594.60 2.251587
594.70 2.255647
594.80 2.259493
594.90 2.263152
595.00 2.266651
595.10 2.270019
595.20 2.273286
595.30 2.276475
595.40 2.279608
595.50 2.282698
595.60 2.285757
595.70 2.28879
595.80 2.291799
595.90 2.294787
596.00 2.297753
596.10 2.300698
596.20 2.303621
596.30 2.306522
596.40 2.3094
596.50 2.312254
596.60 2.315082
596.70 2.317881
596.80 2.320644
596.90 2.323368
597.00 2.326045
597.10 2.328668
597.20 2.33123
597.30 2.333727
597.40 2.336153
597.50 2.338505
597.60 2.340781
597.70 2.342979
597.80 2.345098
597.90 2.347138
598.00 2.349099
598.10 2.350982
598.20 2.352785
598.30 2.354511
598.40 2.356162
598.50 2.357741
598.60 2.359257
598.70 2.360721
598.80 2.362148
598.90 2.363556
599.00 2.364969
599.10 2.366407
599.20 2.367892
599.30 2.369443
599.40 2.371076
599.50 2.372801
599.60 2.374626
599.70 2.376556
599.80 2.378593
599.90 2.380738
600.00 2.375913
600.10 2.377187
600.20 2.378467
600.30 2.379766
600.40 2.381114
600.50 2.382561
600.60 2.384175
600.70 2.386039
600.80 2.38824
600.90 2.390858
601.00 2.393946
601.10 2.397524
601.20 2.401573
601.30 2.406039
601.40 2.410842
601.50 2.415895
601.60 2.421115
601.70 2.426433
601.80 2.4318
601.90 2.437188
602.00 2.44258
602.10 2.447972
602.20 2.453361
602.30 2.458738
602.40 2.464085
602.50 2.469371
602.60 2.474555
602.70 2.479587
602.80 2.484411
602.90 2.48898
603.00 2.49326
603.10 2.49724
603.20 2.500932
603.30 2.504369
603.40 2.507598
603.50 2.510675
603.60 2.513649
603.70 2.516563
603.80 2.519447
603.90 2.522318
604.00 2.525187
604.10 2.528055
604.20 2.530922
604.30 2.533779
604.40 2.536613
604.50 2.5394
604.60 2.542108
604.70 2.544697
604.80 2.547127
604.90 2.549359
605.00 2.551367
605.10 2.553144
605.20 2.554697
605.30 2.556053
605.40 2.557249
605.50 2.558326
605.60 2.559324
605.70 2.560276
605.80 2.561204
605.90 2.562123
606.00 2.563039
606.10 2.563956
606.20 2.564869
606.30 2.565771
606.40 2.566641
606.50 2.567448
606.60 2.568151
606.70 2.568696
606.80 2.569028
606.90 2.569098
607.00 2.56887
607.10 2.568334
607.20 2.5675
607.30 2.566404
607.40 2.565095
607.50 2.563628
607.60 2.562056
607.70 2.560422
607.80 2.558757
607.90 2.557079
608.00 2.555399
608.10 2.553718
608.20 2.552038
608.30 2.55036
608.40 2.548688
608.50 2.547026
608.60 2.545382
608.70 2.543765
608.80 2.542184
608.90 2.540648
609.00 2.539163
609.10 2.537731
609.20 2.53635
609.30 2.535014
609.40 2.533714
609.50 2.53244
609.60 2.531185
609.70 2.529941
609.80 2.528702
609.90 2.527465
610.00 2.526228
610.10 2.524992
610.20 2.523747
610.30 2.522466
610.40 2.521094
610.50 2.519541
610.60 2.517682
610.70 2.515364
610.80 2.512425
610.90 2.508722
611.00 2.504154
611.10 2.498686
611.20 2.492353
611.30 2.485256
611.40 2.477538
611.50 2.469361
611.60 2.460878
611.70 2.452214
611.80 2.443459
611.90 2.434668
612.00 2.425868
612.10 2.417069
612.20 2.408287
612.30 2.399583
612.40 2.391074
612.50 2.382954
612.60 2.37549
612.70 2.36901
612.80 2.363861
612.90 2.360353
613.00 2.358698
613.10 2.358975
613.20 2.361107
613.30 2.364878
613.40 2.36998
613.50 2.376067
613.60 2.38281
613.70 2.389941
613.80 2.397268
613.90 2.404672
614.00 2.412094
614.10 2.419516
614.20 2.426901
614.30 2.434122
614.40 2.440931
614.50 2.446922
614.60 2.45153
614.70 2.454063
614.80 2.453792
614.90 2.450064
615.00 2.442429
615.10 2.430724
615.20 2.415111
615.30 2.396042
615.40 2.374169
615.50 2.350221
615.60 2.324889
615.70 2.29874
615.80 2.272179
615.90 2.245454
616.00 2.218691
616.10 2.191929
616.20 2.165212
616.30 2.138697
616.40 2.112691
616.50 2.087691
616.60 2.064395
616.70 2.043654
616.80 2.026368
616.90 2.013339
617.00 2.005123
617.10 2.00192
617.20 2.00353
617.30 2.009397
617.40 2.018718
617.50 2.030595
617.60 2.044176
617.70 2.058764
617.80 2.07386
617.90 2.089157
618.00 2.1045
618.10 2.119844
618.20 2.135164
618.30 2.150384
618.40 2.165349
618.50 2.179813
618.60 2.193425
618.70 2.20576
618.80 2.216371
618.90 2.224855
619.00 2.230936
619.10 2.234513
619.20 2.235685
619.30 2.234732
619.40 2.232054
619.50 2.228099
619.60 2.223293
619.70 2.217985
619.80 2.212422
619.90 2.206759
620.00 2.201073
620.10 2.195387
620.20 2.189702
620.30 2.184019
620.40 2.178342
620.50 2.172678
620.60 2.167035
620.70 2.161423
620.80 2.155855
620.90 2.150339
621.00 2.144883
621.10 2.13949
621.20 2.134156
621.30 2.128875
621.40 2.123636
621.50 2.11843
621.60 2.113244
621.70 2.108072
621.80 2.102905
621.90 2.097741
622.00 2.092577
622.10 2.087414
622.20 2.082256
622.30 2.077126
622.40 2.072063
622.50 2.067134
622.60 2.062432
622.70 2.058069
622.80 2.054167
622.90 2.05083
623.00 2.048135
623.10 2.046106
623.20 2.044717
623.30 2.043895
623.40 2.043533
623.50 2.04351
623.60 2.043715
623.70 2.044053
623.80 2.044459
623.90 2.044891
624.00 2.04533
624.10 2.045769
624.20 2.046213
624.30 2.046682
624.40 2.047212
624.50 2.047863
624.60 2.048719
624.70 2.049884
624.80 2.051465
624.90 2.053559
625.00 2.056233
625.10 2.059512
625.20 2.06337
625.30 2.067742
625.40 2.07253
625.50 2.077626
625.60 2.082927
625.70 2.08835
625.80 2.093834
625.90 2.099342
626.00 2.104856
626.10 2.11037
626.20 2.115885
626.30 2.121408
626.40 2.12695
626.50 2.132528
626.60 2.138169
626.70 2.143904
626.80 2.149765
626.90 2.155783
627.00 2.161978
627.10 2.168356
627.20 2.174911
627.30 2.181622
627.40 2.18846
627.50 2.195392
627.60 2.202386
627.70 2.209417
627.80 2.216467
627.90 2.223524
628.00 2.230583
628.10 2.237642
628.20 2.244695
628.30 2.251722
628.40 2.258682
628.50 2.265511
628.60 2.272118
628.70 2.278391
628.80 2.284214
628.90 2.289481
629.00 2.29412
629.10 2.298106
629.20 2.301463
629.30 2.304265
629.40 2.306616
629.50 2.308634
629.60 2.31043
629.70 2.312095
629.80 2.313693
629.90 2.315264
630.00 2.31683
630.10 2.318396
630.20 2.319962
630.30 2.321526
630.40 2.323089
630.50 2.324648
630.60 2.326201
630.70 2.327743
630.80 2.329272
630.90 2.330785
631.00 2.332279
631.10 2.333753
631.20 2.335209
631.30 2.336649
631.40 2.338075
631.50 2.339491
631.60 2.340901
631.70 2.342307
631.80 2.343711
631.90 2.345114
632.00 2.346516
632.10 2.347919
632.20 2.347582
632.30 2.341394
632.40 2.323718
632.50 2.287458
632.60 2.225293
632.70 2.131722
632.80 2.005201
632.90 1.849569
633.00 1.674099
633.10 1.49201
633.20 1.317818
633.30 1.164323
633.40 1.040106
633.50 0.9483088
633.60 0.8869501
633.70 0.8505232
633.80 0.8321834
633.90 0.8256788
634.00 0.8263667
634.10 0.831051
634.20 0.8386215
634.30 0.8492962
634.40 0.8628676
634.50 0.8787696
634.60 0.8961444
634.70 0.9139132
634.80 0.9308593
634.90 0.9456856
635.00 0.9570728
635.10 0.9638347
635.20 0.9651197
635.30 0.9605961
635.40 0.9506388
635.50 0.9364219
635.60 0.9198634
635.70 0.9033951
635.80 0.8895959
635.90 0.8807807
636.00 0.8786312
636.10 0.8839552
636.20 0.8966429
636.30 0.9158027
636.40 0.9400118
636.50 0.9676121
636.60 0.9970012
636.70 1.026856
636.80 1.056234
636.90 1.0846
637.00 1.111724
637.10 1.137453
637.20 1.161468
637.30 1.183097
637.40 1.201185
637.50 1.214128
637.60 1.220087
637.70 1.217342
637.80 1.204706
637.90 1.181897
638.00 1.149832
638.10 1.110733
638.20 1.067929
638.30 1.025509
638.40 0.9878442
638.50 0.9589792
638.60 0.9420467
638.70 0.9388018
638.80 0.9493171
638.90 0.9718959
639.00 1.003308
639.10 1.039327
639.20 1.075395
639.30 1.107319
639.40 1.131916
639.50 1.14742
639.60 1.15358
639.70 1.151515
639.80 1.143378
639.90 1.131869
640.00 1.119624
640.10 1.108713
640.20 1.100308
640.30 1.094498
640.40 1.090407
640.50 1.086593
640.60 1.081576
640.70 1.074377
640.80 1.064961
640.90 1.054407
641.00 1.044762
641.10 1.038592
641.20 1.03839
641.30 1.046032
641.40 1.062351
641.50 1.086989
641.60 1.118529
641.70 1.15479
641.80 1.193155
641.90 1.230917
642.00 1.26558
642.10 1.295032
642.20 1.317656
642.30 1.332393
642.40 1.338705
642.50 1.336514
642.60 1.326146
642.70 1.308266
642.80 1.283888
642.90 1.254411
643.00 1.221643
643.10 1.187828
643.20 1.155566
643.30 1.127606
643.40 1.106519
643.50 1.094308
643.60 1.092036
643.70 1.099589
643.80 1.115694
643.90 1.138167
644.00 1.16433
644.10 1.191484
644.20 1.217339
644.30 1.240308
644.40 1.259604
644.50 1.275156
644.60 1.287438
644.70 1.297241
644.80 1.305411
644.90 1.312654
645.00 1.319452
645.10 1.32602
645.20 1.33234
645.30 1.338268
645.40 1.343662
645.50 1.348505
645.60 1.352979
645.70 1.357451
645.80 1.362377
645.90 1.368145
646.00 1.374904
646.10 1.382468
646.20 1.390337
646.30 1.397816
646.40 1.404223
646.50 1.409103
646.60 1.412356
646.70 1.414263
646.80 1.415385
646.90 1.416376
647.00 1.417785
647.10 1.419894
647.20 1.422646
647.30 1.425675
647.40 1.428421
647.50 1.430263
647.60 1.430665
647.70 1.429282
647.80 1.426013
647.90 1.421
648.00 1.414591
648.10 1.407261
648.20 1.399513
648.30 1.391786
648.40 1.384379
648.50 1.377448
648.60 1.3711
648.70 1.365516
648.80 1.361089
648.90 1.358528
649.00 1.358859
649.10 1.363279
649.20 1.372929
649.30 1.388601
649.40 1.410491
649.50 1.438044
649.60 1.469961
649.70 1.504379
649.80 1.53915
649.90 1.572173
650.00 1.601739
650.10 1.626788
650.20 1.647051
650.30 1.663079
650.40 1.676138
650.50 1.68792
650.60 1.700177
650.70 1.714349
650.80 1.731251
650.90 1.75087
651.00 1.772367
651.10 1.794293
651.20 1.814912
651.30 1.832574
651.40 1.846067
651.50 1.85488
651.60 1.859277
651.70 1.86021
651.80 1.859139
651.90 1.857682
652.00 1.857206
652.10 1.858486
652.20 1.861447
652.30 1.865102
652.40 1.867794
652.50 1.867682
652.60 1.863318
652.70 1.854209
652.80 1.841158
652.90 1.82625
653.00 1.812456
653.10 1.802971
653.20 1.80048
653.30 1.806574
653.40 1.82143
653.50 1.843877
653.60 1.871766
653.70 1.902476
653.80 1.933402
653.90 1.962386
654.00 1.987946
654.10 2.009302
654.20 2.026323
654.30 2.039392
654.40 2.049194
654.50 2.056545
654.60 2.062258
654.70 2.067022
654.80 2.071308
654.90 2.075337
655.00 2.079102
655.10 2.082417
655.20 2.085018
655.30 2.086722
655.40 2.087559
655.50 2.087864
655.60 2.08832
655.70 2.089893
655.80 2.093648
655.90 2.100522
656.00 2.111067
656.10 2.125245
656.20 2.142282
656.30 2.16068
656.40 2.17839
656.50 2.193082
656.60 2.202467
656.70 2.204693
656.80 2.198689
656.90 2.184384
657.00 2.162813
657.10 2.136072
657.20 2.107103
657.30 2.079288
657.40 2.05599
657.50 2.040089
657.60 2.033554
657.70 2.037159
657.80 2.050426
657.90 2.071732
658.00 2.098552
658.10 2.127842
658.20 2.15651
658.30 2.181868
658.40 2.201976
658.50 2.21589
658.60 2.223752
658.70 2.226647
658.80 2.226312
658.90 2.224788
659.00 2.224052
659.10 2.225691
659.20 2.230706
659.30 2.239463
659.40 2.251771
659.50 2.26698
659.60 2.284126
659.70 2.302084
659.80 2.319672
659.90 2.335727
660.00 2.349241
660.10 2.359506
660.20 2.36622
660.30 2.369598
660.40 2.370404
660.50 2.369863
660.60 2.36944
660.70 2.370558
660.80 2.374305
660.90 2.381198
661.00 2.391108
661.10 2.403372
661.20 2.417031
661.30 2.43115
661.40 2.44508
661.50 2.458599
661.60 2.471891
661.70 2.485365
661.80 2.499408
661.90 2.514174
662.00 2.529452
662.10 2.544665
662.20 2.559015
662.30 2.571674
662.40 2.582019
662.50 2.589864
662.60 2.595575
662.70 2.600101
662.80 2.604904
662.90 2.611737
663.00 2.622279
663.10 2.63778
663.20 2.658719
663.30 2.68459
663.40 2.713918
663.50 2.744527
663.60 2.773992
663.70 2.800148
663.80 2.821521
663.90 2.837528
664.00 2.848429
664.10 2.855054
664.20 2.858411
664.30 2.859369
664.40 2.858452
664.50 2.855813
664.60 2.851413
664.70 2.845242
664.80 2.837459
664.90 2.828454
665.00 2.818786
665.10 2.808981
665.20 2.799354
665.30 2.789983
665.40 2.780818
665.50 2.771862
665.60 2.763426
665.70 2.756286
665.80 2.751641
665.90 2.75087
666.00 2.755163
666.10 2.765092
666.20 2.780333
666.30 2.799651
666.40 2.821133
666.50 2.842656
666.60 2.862403
666.70 2.879292
666.80 2.893184
666.90 2.904821
667.00 2.915537
667.10 2.926867
667.20 2.94014
667.30 2.956095
667.40 2.97471
667.50 2.995199
667.60 3.016136
667.70 3.035735
667.80 3.052259
667.90 3.064396
668.00 3.071584
668.10 3.074213
668.20 3.073603
668.30 3.071751
668.40 3.070914
668.50 3.073144
668.60 3.079841
668.70 3.091436
668.80 3.107311
668.90 3.125937
669.00 3.145143
669.10 3.162478
669.20 3.175624
669.30 3.182762
669.40 3.182805
669.50 3.17553
669.60 3.161671
669.70 3.142854
669.80 3.12139
669.90 3.100035
670.00 3.081678
670.10 3.068936
670.20 3.063763
670.30 3.067147
670.40 3.078918
670.50 3.097716
670.60 3.121215
670.70 3.146563
670.80 3.170904
670.90 3.191904
671.00 3.208188
671.10 3.219561
671.20 3.226944
671.30 3.232096
671.40 3.237222
671.50 3.244509
671.60 3.255662
671.70 3.271586
671.80 3.292268
671.90 3.316782
672.00 3.343451
672.10 3.370195
672.20 3.394928
672.30 3.415932
672.40 3.432167
672.50 3.443382
672.60 3.450016
672.70 3.452939
672.80 3.453109
672.90 3.451266
673.00 3.447776
673.10 3.442632
673.20 3.435641
673.30 3.426673
673.40 3.415863
673.50 3.403714
673.60 3.391063
673.70 3.378892
673.80 3.368104
673.90 3.359351
674.00 3.352965
674.10 3.34898
674.20 3.347251
674.30 3.347598
674.40 3.349936
674.50 3.354357
674.60 3.361129
674.70 3.370629
674.80 3.383255
674.90 3.399324
675.00 3.418969
675.10 3.442088
675.20 3.468324
675.30 3.497079
675.40 3.527561
675.50 3.55886
675.60 3.590054
675.70 3.620304
675.80 3.648912
675.90 3.675289
676.00 3.698909
676.10 3.719242
676.20 3.735689
676.30 3.747606
676.40 3.754405
676.50 3.755706
676.60 3.751523
676.70 3.742394
676.80 3.729389
676.90 3.71397
677.00 3.697746
677.10 3.682153
677.20 3.668215
677.30 3.656458
677.40 3.647
677.50 3.639758
677.60 3.634713
677.70 3.632099
677.80 3.632459
677.90 3.636535
678.00 3.645014
678.10 3.658239
678.20 3.67596
678.30 3.697182
678.40 3.720211
678.50 3.742855
678.60 3.762702
678.70 3.777478
678.80 3.785417
678.90 3.785525
679.00 3.777764
679.10 3.763091
679.20 3.743324
679.30 3.720826
679.40 3.698084
679.50 3.677296
679.60 3.660018
679.70 3.647008
679.80 3.638278
679.90 3.633314
680.00 3.631384
680.10 3.631799
680.20 3.634087
680.30 3.638025
680.40 3.643513
680.50 3.650392
680.60 3.658327
680.70 3.666731
680.80 3.674814
680.90 3.681735
681.00 3.686776
681.10 3.689482
681.20 3.689745
681.30 3.687805
681.40 3.684183
681.50 3.679578
681.60 3.674765
681.70 3.670488
681.80 3.667376
681.90 3.665901
682.00 3.666356
682.10 3.668873
682.20 3.673468
682.30 3.680085
682.40 3.688644
682.50 3.699037
682.60 3.71107
682.70 3.724389
682.80 3.73839
682.90 3.752162
683.00 3.764494
683.10 3.773963
683.20 3.779111
683.30 3.778677
683.40 3.771795
683.50 3.758157
683.60 3.738075
683.70 3.712417
683.80 3.682477
683.90 3.649819
684.00 3.616157
684.10 3.583263
684.20 3.552897
684.30 3.526764
684.40 3.506426
684.50 3.493149
684.60 3.487733
684.70 3.490315
684.80 3.500226
684.90 3.515971
685.00 3.535389
685.10 3.555967
685.20 3.575229
685.30 3.591135
685.40 3.602406
685.50 3.608691
685.60 3.610521
685.70 3.609147
685.80 3.606282
685.90 3.603869
686.00 3.603847
686.10 3.607975
686.20 3.617762
686.30 3.634382
686.40 3.658592
686.50 3.690653
686.60 3.730263
686.70 3.776507
686.80 3.827809
686.90 3.881861
687.00 3.93567
687.10 3.985682
687.20 4.027974
687.30 4.058549
687.40 4.073703
687.50 4.070443
687.60 4.046898
687.70 4.0026
687.80 3.93867
687.90 3.857779
688.00 3.763845
688.10 3.661633
688.20 3.556267
688.30 3.45283
688.40 3.356057
688.50 3.270089
688.60 3.198321
688.70 3.143282
688.80 3.106508
688.90 3.088472
689.00 3.088479
689.10 3.104601
689.20 3.133721
689.30 3.171677
689.40 3.213586
689.50 3.254272
689.60 3.288728
689.70 3.312678
689.80 3.32306
689.90 3.318356
690.00 3.298828
690.10 3.266539
690.20 3.225085
690.30 3.179031
690.40 3.133174
690.50 3.091826
690.60 3.05817
690.70 3.033834
690.80 3.018821
690.90 3.011748
691.00 3.010277
691.10 3.01164
691.20 3.013207
691.30 3.012947
691.40 3.009671
691.50 3.003096
691.60 2.993813
691.70 2.983071
691.80 2.972463
691.90 2.963632
692.00 2.957978
692.10 2.956467
692.20 2.959551
692.30 2.967232
692.40 2.979214
692.50 2.995087
692.60 3.014387
692.70 3.036557
692.80 3.060857
692.90 3.086196
693.00 3.111054
693.10 3.133583
693.20 3.151871
693.30 3.164324
693.40 3.170085
693.50 3.16934
693.60 3.163441
693.70 3.154749
693.80 3.146259
693.90 3.14113
694.00 3.142164
694.10 3.151349
694.20 3.169568
694.30 3.196512
694.40 3.230747
694.50 3.269964
694.60 3.311425
694.70 3.352456
694.80 3.390889
694.90 3.425418
695.00 3.455743
695.10 3.482428
695.20 3.506578
695.30 3.529417
695.40 3.551874
695.50 3.57429
695.60 3.596317
695.70 3.617056
695.80 3.635334
695.90 3.649994
696.00 3.66018
696.10 3.665515
696.20 3.666136
696.30 3.662633
696.40 3.655956
696.50 3.647267
696.60 3.637788
696.70 3.628672
696.80 3.620895
696.90 3.615111
697.00 3.611537
697.10 3.609914
697.20 3.609483
697.30 3.609046
697.40 3.6072
697.50 3.602668
697.60 3.594629
697.70 3.58302
697.80 3.5687
697.90 3.553379
698.00 3.539316
698.10 3.528853
698.20 3.523909
698.30 3.525573
698.40 3.533901
698.50 3.547982
698.60 3.56622
698.70 3.586736
698.80 3.607678
698.90 3.627434
699.00 3.644701
699.10 3.65456
699.20 3.646972
699.30 3.608591
699.40 3.522917
699.50 3.373132
699.60 3.146863
699.70 2.841133
699.80 2.46562
699.90 2.042748
700.00 3.502374
700.10 3.447608
700.20 3.486303
700.30 3.524998
700.40 3.563693
700.50 3.602389
700.60 3.625954
700.70 3.598866
700.80 3.571778
700.90 3.54469
701.00 3.517602
701.10 3.521811
701.20 3.565852
701.30 3.609893
701.40 3.653935
701.50 3.697976
701.60 3.732331
701.70 3.76147
701.80 3.790609
701.90 3.819748
702.00 3.848887
702.10 3.85211
702.20 3.851114
702.30 3.850119
702.40 3.849123
702.50 3.850297
702.60 3.8803
702.70 3.910303
702.80 3.940306
702.90 3.97031
703.00 3.992437
703.10 3.994312
703.20 3.996187
703.30 3.998061
703.40 3.999936
703.50 4.005482
703.60 4.014848
703.70 4.024215
703.80 4.033581
703.90 4.042947
704.00 4.051212
704.10 4.059004
704.20 4.066796
704.30 4.074587
704.40 4.082379
704.50 4.139426
704.60 4.201344
704.70 4.263262
704.80 4.32518
704.90 4.38371
705.00 4.417397
705.10 4.451084
705.20 4.484771
705.30 4.518458
705.40 4.532821
705.50 4.507951
705.60 4.483082
705.70 4.458212
705.80 4.433342
705.90 4.410062
706.00 4.388136
706.10 4.366211
706.20 4.344285
706.30 4.322359
706.40 4.301175
706.50 4.280238
706.60 4.259301
706.70 4.238363
706.80 4.217426
706.90 4.228632
707.00 4.241176
707.10 4.253721
707.20 4.266266
707.30 4.271718
707.40 4.24254
707.50 4.213361
707.60 4.184183
707.70 4.155005
707.80 4.201179
707.90 4.365213
708.00 4.529246
708.10 4.693279
708.20 4.857312
708.30 4.940537
708.40 4.969888
708.50 4.99924
708.60 5.028591
708.70 5.057943
708.80 4.976595
708.90 4.86928
709.00 4.761965
709.10 4.65465
709.20 4.549916
709.30 4.5716
709.40 4.593284
709.50 4.614968
709.60 4.636652
709.70 4.644536
709.80 4.606221
709.90 4.567906
710.00 4.529591
710.10 4.491276
710.20 4.462221
710.30 4.444953
710.40 4.427685
710.50 4.410417
710.60 4.393148
710.70 4.404793
710.80 4.432006
710.90 4.459219
711.00 4.486432
711.10 4.513646
711.20 4.54351
711.30 4.573806
711.40 4.604103
711.50 4.634399
711.60 4.664296
711.70 4.688887
711.80 4.713479
711.90 4.73807
712.00 4.762662
712.10 4.781752
712.20 4.786695
712.30 4.791638
712.40 4.796581
712.50 4.801524
712.60 4.806062
712.70 4.810178
712.80 4.814293
712.90 4.818409
713.00 4.822525
713.10 4.819674
713.20 4.813837
713.30 4.808
713.40 4.802164
713.50 4.796327
713.60 4.771844
713.70 4.745517
713.80 4.71919
713.90 4.692863
714.00 4.67884
714.10 4.755046
714.20 4.831251
714.30 4.907457
714.40 4.983663
714.50 5.080799
714.60 5.220431
714.70 5.360063
714.80 5.499695
714.90 5.639328
715.00 5.676652
715.10 5.626824
715.20 5.576997
715.30 5.52717
715.40 5.477342
715.50 5.4018
715.60 5.317685
715.70 5.23357
715.80 5.149455
715.90 5.065341
716.00 5.104137
716.10 5.148054
716.20 5.191972
716.30 5.235889
716.40 5.276409
716.50 5.300342
716.60 5.324274
716.70 5.348206
716.80 5.372139
716.90 5.402945
717.00 5.444965
717.10 5.486986
717.20 5.529007
717.30 5.571028
717.40 5.595869
717.50 5.608773
717.60 5.621676
717.70 5.63458
717.80 5.647483
717.90 5.590101
718.00 5.515148
718.10 5.440195
718.20 5.365241
718.30 5.291748
718.40 5.362776
718.50 5.433804
718.60 5.504832
718.70 5.57586
718.80 5.638195
718.90 5.669707
719.00 5.701219
719.10 5.73273
719.20 5.764242
719.30 5.764759
719.40 5.724188
719.50 5.683617
719.60 5.643046
719.70 5.602476
719.80 5.573599
719.90 5.551299
720.00 5.529
720.10 5.506701
720.20 5.484402
720.30 5.467219
720.40 5.45094
720.50 5.43466
720.60 5.41838
720.70 5.400889
720.80 5.364412
720.90 5.327935
721.00 5.291458
721.10 5.254981
721.20 5.214609
721.30 5.163705
721.40 5.112801
721.50 5.061897
721.60 5.010993
721.70 5.0125
721.80 5.070786
721.90 5.129072
722.00 5.187357
722.10 5.245643
722.20 5.294191
722.30 5.338365
722.40 5.382539
722.50 5.426713
722.60 5.470887
722.70 5.501509
722.80 5.530627
722.90 5.559744
723.00 5.588861
723.10 5.624813
723.20 5.71606
723.30 5.807308
723.40 5.898555
723.50 5.989803
723.60 6.06339
723.70 6.09945
723.80 6.135509
723.90 6.171569
724.00 6.207629
724.10 6.189928
724.20 6.124554
724.30 6.059179
724.40 5.993805
724.50 5.92843
724.60 5.890298
724.70 5.861737
724.80 5.833176
724.90 5.804616
725.00 5.776055
725.10 5.768922
725.20 5.762917
725.30 5.756912
725.40 5.750907
725.50 5.743609
725.60 5.729519
725.70 5.715429
725.80 5.701339
725.90 5.687249
726.00 5.679258
726.10 5.681653
726.20 5.684048
726.30 5.686442
726.40 5.688837
726.50 5.722859
726.60 5.779782
726.70 5.836706
726.80 5.893629
726.90 5.950553
727.00 5.985694
727.10 6.015046
727.20 6.044397
727.30 6.073749
727.40 6.103101
727.50 6.086198
727.60 6.069296
727.70 6.052394
727.80 6.035492
727.90 6.020313
728.00 6.011613
728.10 6.002913
728.20 5.994213
728.30 5.985513
728.40 5.946107
728.50 5.864299
728.60 5.782492
728.70 5.700684
728.80 5.618876
728.90 5.631265
729.00 5.698975
729.10 5.766686
729.20 5.834397
729.30 5.902107
729.40 5.9143
729.50 5.915919
729.60 5.917537
729.70 5.919156
729.80 5.922428
729.90 5.957126
730.00 5.991823
730.10 6.026521
730.20 6.061218
730.30 6.073391
730.40 6.021454
730.50 5.969518
730.60 5.917582
730.70 5.865645
730.80 5.851883
730.90 5.881169
731.00 5.910454
731.10 5.93974
731.20 5.969026
731.30 5.981744
731.40 5.986665
731.50 5.991586
731.60 5.996507
731.70 6.001428
731.80 5.96624
731.90 5.926094
732.00 5.885948
732.10 5.845802
732.20 5.810521
732.30 5.819031
732.40 5.827541
732.50 5.83605
732.60 5.84456
732.70 5.855512
732.80 5.871902
732.90 5.888291
733.00 5.90468
733.10 5.92107
733.20 5.908613
733.30 5.869529
733.40 5.830445
733.50 5.791361
733.60 5.752276
733.70 5.716314
733.80 5.681507
733.90 5.6467
734.00 5.611892
734.10 5.577085
734.20 5.574728
734.30 5.574442
734.40 5.574157
734.50 5.573871
734.60 5.582026
734.70 5.638013
734.80 5.693999
734.90 5.749985
735.00 5.805971
735.10 5.843526
735.20 5.848316
735.30 5.853105
735.40 5.857895
735.50 5.862684
735.60 5.832026
735.70 5.774626
735.80 5.717227
735.90 5.659827
736.00 5.602427
736.10 5.580984
736.20 5.569683
736.30 5.558382
736.40 5.54708
736.50 5.535779
736.60 5.535537
736.70 5.535296
736.80 5.535054
736.90 5.534812
737.00 5.535292
737.10 5.538485
737.20 5.541678
737.30 5.544871
737.40 5.548064
737.50 5.543355
737.60 5.527734
737.70 5.512114
737.80 5.496493
737.90 5.480873
738.00 5.452237
738.10 5.415958
738.20 5.379679
738.30 5.343399
738.40 5.30712
738.50 5.299482
738.60 5.2973
738.70 5.295118
738.80 5.292935
738.90 5.292332
739.00 5.321735
739.10 5.351138
739.20 5.380541
739.30 5.409943
739.40 5.425403
739.50 5.401178
739.60 5.376952
739.70 5.352727
739.80 5.328502
739.90 5.299203
740.00 5.264184
740.10 5.229164
740.20 5.194144
740.30 5.159124
740.40 5.150378
740.50 5.153996
740.60 5.157613
740.70 5.161231
740.80 5.164849
740.90 5.141307
741.00 5.114409
741.10 5.087511
741.20 5.060612
741.30 5.035537
741.40 5.026866
741.50 5.018196
741.60 5.009525
741.70 5.000854
741.80 4.992088
741.90 4.98311
742.00 4.974131
742.10 4.965153
742.20 4.956175
742.30 4.976759
742.40 5.024631
742.50 5.072503
742.60 5.120375
742.70 5.168247
742.80 5.15463
742.90 5.11827
743.00 5.08191
743.10 5.04555
743.20 5.00919
743.30 4.94504
743.40 4.879116
743.50 4.813192
743.60 4.747269
743.70 4.692516
743.80 4.70107
743.90 4.709624
744.00 4.718177
744.10 4.726731
744.20 4.736597
744.30 4.748798
744.40 4.760998
744.50 4.773199
744.60 4.785399
744.70 4.794089
744.80 4.800131
744.90 4.806172
745.00 4.812214
745.10 4.818256
745.20 4.811034
745.30 4.800071
745.40 4.789108
745.50 4.778145
745.60 4.767182
745.70 4.747077
745.80 4.72688
745.90 4.706682
746.00 4.686485
746.10 4.659893
746.20 4.607722
746.30 4.555551
746.40 4.50338
746.50 4.45121
746.60 4.392241
746.70 4.323491
746.80 4.25474
746.90 4.185989
747.00 4.117239
747.10 4.099018
747.20 4.111768
747.30 4.124518
747.40 4.137268
747.50 4.150018
747.60 4.098313
747.70 4.033407
747.80 3.968501
747.90 3.903596
748.00 3.843479
748.10 3.898301
748.20 3.953122
748.30 4.007944
748.40 4.062766
748.50 4.100642
748.60 4.087679
748.70 4.074717
748.80 4.061755
748.90 4.048793
749.00 4.029569
749.10 4.002993
749.20 3.976416
749.30 3.94984
749.40 3.923264
749.50 3.882862
749.60 3.835649
749.70 3.788436
749.80 3.741223
749.90 3.69401
750.00 3.709418
750.10 3.733365
750.20 3.757312
750.30 3.781259
750.40 3.800182
750.50 3.768311
750.60 3.736441
750.70 3.70457
750.80 3.672699
750.90 3.638737
751.00 3.599894
751.10 3.56105
751.20 3.522207
751.30 3.483364
751.40 3.470023
751.50 3.481184
751.60 3.492346
751.70 3.503507
751.80 3.514668
751.90 3.504125
752.00 3.485141
752.10 3.466157
752.20 3.447173
752.30 3.428189
752.40 3.393735
752.50 3.358117
752.60 3.322499
752.70 3.286881
752.80 3.263505
752.90 3.315326
753.00 3.367148
753.10 3.418969
753.20 3.47079
753.30 3.473208
753.40 3.383875
753.50 3.294541
753.60 3.205208
753.70 3.115875
753.80 3.06449
753.90 3.042923
754.00 3.021355
754.10 2.999787
754.20 2.97822
754.30 2.961298
754.40 2.945764
754.50 2.93023
754.60 2.914696
754.70 2.899162
754.80 2.924773
754.90 2.951225
755.00 2.977676
755.10 3.004128
755.20 3.021248
755.30 2.998589
755.40 2.975929
755.50 2.95327
755.60 2.93061
755.70 2.897019
755.80 2.84703
755.90 2.79704
756.00 2.747051
756.10 2.697062
756.20 2.670584
756.30 2.659137
756.40 2.64769
756.50 2.636243
756.60 2.624796
756.70 2.603495
756.80 2.58003
756.90 2.556566
757.00 2.533101
757.10 2.509558
757.20 2.483474
757.30 2.457389
757.40 2.431304
757.50 2.40522
757.60 2.383447
757.70 2.375327
757.80 2.367207
757.90 2.359087
758.00 2.350967
758.10 2.339113
758.20 2.322696
758.30 2.306278
758.40 2.289861
758.50 2.273444
758.60 2.251917
758.70 2.227758
758.80 2.203598
758.90 2.179439
759.00 2.155279
759.10 2.204393
759.20 2.264455
759.30 2.324517
759.40 2.38458
759.50 2.446452
759.60 2.529137
759.70 2.611822
759.80 2.694508
759.90 2.777193
760.00 2.898522
760.10 3.114464
760.20 3.330406
760.30 3.546348
760.40 3.76229
760.50 3.823624
760.60 3.730351
760.70 3.637078
760.80 3.543804
760.90 3.450531
761.00 3.134099
761.10 2.726518
761.20 2.318936
761.30 1.911355
761.40 1.503773
761.50 1.325534
761.60 1.167237
761.70 1.00894
761.80 0.850643
761.90 0.7196505
762.00 0.7713877
762.10 0.8231249
762.20 0.8748621
762.30 0.9265994
762.40 0.9673205
762.50 0.9866575
762.60 1.005995
762.70 1.025332
762.80 1.044669
762.90 1.07122
763.00 1.103675
763.10 1.136129
763.20 1.168583
763.30 1.201038
763.40 1.169838
763.50 1.118537
763.60 1.067237
763.70 1.015936
763.80 0.9646352
763.90 0.8687611
764.00 0.7715085
764.10 0.6742559
764.20 0.5770033
764.30 0.4891541
764.40 0.4441425
764.50 0.399131
764.60 0.3541194
764.70 0.3091078
764.80 0.2776342
764.90 0.2673354
765.00 0.2570365
765.10 0.2467377
765.20 0.2364388
765.30 0.2496878
765.40 0.2779921
765.50 0.3062963
765.60 0.3346006
765.70 0.3629048
765.80 0.3469303
765.90 0.3212361
766.00 0.2955418
766.10 0.2698476
766.20 0.2440672
766.30 0.2155037
766.40 0.1869401
766.50 0.1583766
766.60 0.129813
766.70 0.107678
766.80 0.1058999
766.90 0.1041218
767.00 0.1023437
767.10 0.1005656
767.20 0.09929897
767.30 0.09865738
767.40 0.09801579
767.50 0.0973742
767.60 0.09673261
767.70 0.09495572
767.80 0.09259398
767.90 0.09023223
768.00 0.08787049
768.10 0.08550874
768.20 0.1122979
768.30 0.1434429
768.40 0.1745879
768.50 0.2057329
768.60 0.2339764
768.70 0.2288527
768.80 0.223729
768.90 0.2186053
769.00 0.2134816
769.10 0.2013643
769.20 0.1721249
769.30 0.1428855
769.40 0.113646
769.50 0.08440661
769.60 0.07046207
769.70 0.0718124
769.80 0.07316273
769.90 0.07451307
770.00 0.0758634
770.10 0.06504777
770.20 0.04926294
770.30 0.03347812
770.40 0.01769329
770.50 0.001908469
770.60 0.01626693
770.70 0.03324654
770.80 0.05022615
770.90 0.06720576
771.00 0.08729536
771.10 0.128198
771.20 0.1691006
771.30 0.2100033
771.40 0.2509059
771.50 0.2852478
771.60 0.3068541
771.70 0.3284605
771.80 0.3500668
771.90 0.3716731
772.00 0.3895526
772.10 0.4043829
772.20 0.4192132
772.30 0.4340435
772.40 0.4488738
772.50 0.5277109
772.60 0.6267606
772.70 0.7258104
772.80 0.8248601
772.90 0.9239098
773.00 0.9376624
773.10 0.9487768
773.20 0.9598913
773.30 0.9710058
773.40 0.9742117
773.50 0.9413897
773.60 0.9085677
773.70 0.8757456
773.80 0.8429236
773.90 0.8265014
774.00 0.8357301
774.10 0.8449589
774.20 0.8541876
774.30 0.8634164
774.40 0.9172994
774.50 1.000952
774.60 1.084605
774.70 1.168257
774.80 1.25191
774.90 1.289608
775.00 1.316527
775.10 1.343446
775.20 1.370364
775.30 1.396631
775.40 1.39096
775.50 1.385288
775.60 1.379616
775.70 1.373944
775.80 1.383892
775.90 1.446134
776.00 1.508376
776.10 1.570617
776.20 1.632859
776.30 1.696368
776.40 1.761491
776.50 1.826613
776.60 1.891736
776.70 1.956859
776.80 1.970974
776.90 1.957624
777.00 1.944273
777.10 1.930923
777.20 1.917573
777.30 1.914264
777.40 1.91259
777.50 1.910916
777.60 1.909242
777.70 1.910403
777.80 1.949234
777.90 1.988065
778.00 2.026895
778.10 2.065726
778.20 2.0829
778.30 2.044383
778.40 2.005866
778.50 1.96735
778.60 1.928833
778.70 1.923461
778.80 1.952586
778.90 1.981712
779.00 2.010837
779.10 2.039962
779.20 2.099247
779.30 2.171458
779.40 2.243669
779.50 2.31588
779.60 2.388091
779.70 2.421201
779.80 2.450445
779.90 2.479689
780.00 2.508933
780.10 2.52125
780.20 2.409432
780.30 2.297614
780.40 2.185796
780.50 2.073978
780.60 1.987482
780.70 1.952398
780.80 1.917313
780.90 1.882228
781.00 1.847143
781.10 1.816015
781.20 1.788259
781.30 1.760502
781.40 1.732746
781.50 1.704989
781.60 1.79866
781.70 1.932807
781.80 2.066954
781.90 2.201102
782.00 2.335249
782.10 2.410021
782.20 2.48232
782.30 2.554619
782.40 2.626917
782.50 2.696583
782.60 2.753393
782.70 2.810203
782.80 2.867013
782.90 2.923823
783.00 3.025996
783.10 3.202183
783.20 3.37837
783.30 3.554557
783.40 3.730744
783.50 3.822994
783.60 3.856915
783.70 3.890836
783.80 3.924758
783.90 3.958679
784.00 3.949955
784.10 3.930571
784.20 3.911186
784.30 3.891802
784.40 3.873311
784.50 3.943291
784.60 4.013272
784.70 4.083253
784.80 4.153234
784.90 4.221489
785.00 4.283627
785.10 4.345765
785.20 4.407903
785.30 4.47004
785.40 4.523087
785.50 4.564082
785.60 4.605078
785.70 4.646073
785.80 4.687069
785.90 4.684425
786.00 4.657234
786.10 4.630042
786.20 4.602851
786.30 4.57566
786.40 4.615416
786.50 4.666986
786.60 4.718557
786.70 4.770127
786.80 4.824952
786.90 4.930773
787.00 5.036594
787.10 5.142414
787.20 5.248235
787.30 5.329061
787.40 5.342309
787.50 5.355557
787.60 5.368805
787.70 5.382052
787.80 5.389644
787.90 5.391109
788.00 5.392573
788.10 5.394038
788.20 5.395503
788.30 5.407564
788.40 5.424385
788.50 5.441207
788.60 5.458028
788.70 5.47485
788.80 5.518186
788.90 5.564469
789.00 5.610752
789.10 5.657035
789.20 5.704452
789.30 5.761046
789.40 5.81764
789.50 5.874234
789.60 5.930828
789.70 5.987183
789.80 6.04303
789.90 6.098877
790.00 6.154724
790.10 6.210571
790.20 6.249305
790.30 6.272864
790.40 6.296423
790.50 6.319982
790.60 6.343541
790.70 6.337251
790.80 6.320473
790.90 6.303696
791.00 6.286918
791.10 6.27014
791.20 6.292072
791.30 6.316041
791.40 6.34001
791.50 6.363979
791.60 6.394128
791.70 6.456719
791.80 6.519311
791.90 6.581903
792.00 6.644494
792.10 6.715098
792.20 6.799345
792.30 6.883592
792.40 6.967838
792.50 7.052085
792.60 7.076973
792.70 7.058877
792.80 7.040781
792.90 7.022685
793.00 7.00459
793.10 7.004481
793.20 7.009153
793.30 7.013825
793.40 7.018497
793.50 7.02317
793.60 7.026413
793.70 7.029657
793.80 7.032901
793.90 7.036144
794.00 7.047497
794.10 7.087599
794.20 7.127701
794.30 7.167803
794.40 7.207905
794.50 7.200813
794.60 7.131162
794.70 7.06151
794.80 6.991859
794.90 6.922208
795.00 6.708965
795.10 6.414951
795.20 6.120938
795.30 5.826924
795.40 5.532911
795.50 5.392226
795.60 5.278598
795.70 5.164971
795.80 5.051344
795.90 4.954345
796.00 5.117866
796.10 5.281386
796.20 5.444907
796.30 5.608428
796.40 5.836704
796.50 6.240061
796.60 6.643417
796.70 7.046774
796.80 7.450131
796.90 7.75527
797.00 7.954008
797.10 8.152746
797.20 8.351485
797.30 8.550223
797.40 8.625899
797.50 8.646287
797.60 8.666675
797.70 8.687063
797.80 8.707451
797.90 8.698904
798.00 8.687143
798.10 8.675382
798.20 8.663621
798.30 8.661573
798.40 8.738116
798.50 8.814658
798.60 8.891201
798.70 8.967743
798.80 9.023624
798.90 9.035597
799.00 9.047571
799.10 9.059544
799.20 9.071518
799.30 9.10596
799.40 9.160328
799.50 9.214696
799.60 9.269063
799.70 9.323431
799.80 9.28758
799.90 9.22003
800.00 9.152481
800.10 9.084931
800.20 9.017382
800.30 9.099437
800.40 9.189367
800.50 9.279296
800.60 9.369225
800.70 9.46084
800.80 9.5613
800.90 9.66176
801.00 9.76222
801.10 9.86268
801.20 9.914774
801.30 9.884515
801.40 9.854255
801.50 9.823995
801.60 9.793736
801.70 9.82983
801.80 9.913974
801.90 9.998118
802.00 10.08226
802.10 10.16641
802.20 10.22304
802.30 10.27236
802.40 10.32168
802.50 10.37101
802.60 10.42033
802.70 10.49651
802.80 10.5727
802.90 10.64888
803.00 10.72506
803.10 10.79951
803.20 10.86744
803.30 10.93536
803.40 11.00328
803.50 11.0712
803.60 11.12086
803.70 11.1453
803.80 11.16974
803.90 11.19418
804.00 11.21861
804.10 11.18976
804.20 11.12959
804.30 11.06943
804.40 11.00927
804.50 10.94911
804.60 10.98658
804.70 11.04265
804.80 11.09872
804.90 11.15478
805.00 11.21061
805.10 11.26184
805.20 11.31308
805.30 11.36431
805.40 11.41554
805.50 11.4728
805.60 11.5472
805.70 11.62159
805.80 11.69599
805.90 11.77039
806.00 11.87647
806.10 12.01829
806.20 12.16012
806.30 12.30194
806.40 12.44376
806.50 12.51631
806.60 12.55627
806.70 12.59622
806.80 12.63618
806.90 12.67613
807.00 12.61228
807.10 12.53559
807.20 12.4589
807.30 12.38221
807.40 12.31565
807.50 12.34024
807.60 12.36483
807.70 12.38942
807.80 12.41401
807.90 12.46054
808.00 12.5559
808.10 12.65125
808.20 12.74661
808.30 12.84197
808.40 12.9391
808.50 13.03787
808.60 13.13663
808.70 13.2354
808.80 13.33417
808.90 13.36274
809.00 13.36534
809.10 13.36794
809.20 13.37054
809.30 13.37314
809.40 13.40175
809.50 13.43202
809.60 13.4623
809.70 13.49257
809.80 13.5341
809.90 13.63941
810.00 13.74472
810.10 13.85003
810.20 13.95533
810.30 14.01984
810.40 14.01183
810.50 14.00381
810.60 13.99579
810.70 13.98777
810.80 13.99146
810.90 14.00399
811.00 14.01652
811.10 14.02905
811.20 14.04158
811.30 14.13661
811.40 14.2549
811.50 14.37319
811.60 14.49148
811.70 14.60978
811.80 14.68014
811.90 14.75002
812.00 14.8199
812.10 14.88977
812.20 14.94735
812.30 14.95569
812.40 14.96403
812.50 14.97237
812.60 14.98071
812.70 14.99974
812.80 15.03414
812.90 15.06855
813.00 15.10295
813.10 15.13736
813.20 15.22276
813.30 15.33942
813.40 15.45608
813.50 15.57274
813.60 15.68939
813.70 15.78679
813.80 15.88024
813.90 15.9737
814.00 16.06715
814.10 16.15435
814.20 16.09145
814.30 16.02856
814.40 15.96567
814.50 15.90278
814.60 15.83746
814.70 15.76487
814.80 15.69229
814.90 15.6197
815.00 15.54711
815.10 15.52844
815.20 15.57308
815.30 15.61771
815.40 15.66235
815.50 15.70698
815.60 15.76425
815.70 15.82773
815.80 15.89122
815.90 15.95471
816.00 16.01819
816.10 16.09047
816.20 16.16394
816.30 16.23741
816.40 16.31089
816.50 16.38265
816.60 16.43716
816.70 16.49167
816.80 16.54618
816.90 16.60068
817.00 16.62023
817.10 16.55819
817.20 16.49616
817.30 16.43412
817.40 16.37209
817.50 16.30058
817.60 16.21998
817.70 16.13938
817.80 16.05878
817.90 15.97818
818.00 15.99544
818.10 16.05074
818.20 16.10605
818.30 16.16135
818.40 16.21666
818.50 16.11427
818.60 16.00001
818.70 15.88575
818.80 15.7715
818.90 15.64518
819.00 15.4448
819.10 15.24443
819.20 15.04405
819.30 14.84367
819.40 14.67729
819.50 14.57405
819.60 14.4708
819.70 14.36756
819.80 14.26432
819.90 14.12961
820.00 13.97018
820.10 13.81076
820.20 13.65133
820.30 13.4919
820.40 13.44784
820.50 13.43823
820.60 13.42862
820.70 13.41901
820.80 13.4094
820.90 13.84142
821.00 14.28245
821.10 14.72347
821.20 15.1645
821.30 15.59759
821.40 15.99683
821.50 16.39607
821.60 16.79531
821.70 17.19455
821.80 17.55487
821.90 17.85681
822.00 18.15875
822.10 18.46068
822.20 18.76262
822.30 19.0211
822.40 19.25181
822.50 19.48251
822.60 19.71321
822.70 19.94391
822.80 20.13229
822.90 20.31201
823.00 20.49172
823.10 20.67143
823.20 20.83129
823.30 20.51462
823.40 20.19796
823.50 19.8813
823.60 19.56463
823.70 19.23239
823.80 18.85339
823.90 18.4744
824.00 18.09541
824.10 17.71642
824.20 17.44836
824.30 17.31054
824.40 17.17272
824.50 17.03489
824.60 16.89707
824.70 17.02589
824.80 17.28604
824.90 17.54619
825.00 17.80634
825.10 18.06649
825.20 18.3747
825.30 18.68946
825.40 19.00422
825.50 19.31898
825.60 19.61719
825.70 19.74813
825.80 19.87907
825.90 20.01001
826.00 20.14095
826.10 20.21
826.20 20.13463
826.30 20.05926
826.40 19.98389
826.50 19.90852
826.60 19.80452
826.70 19.67301
826.80 19.54151
826.90 19.41001
827.00 19.2785
827.10 19.36314
827.20 19.53183
827.30 19.70052
827.40 19.86921
827.50 20.0379
827.60 20.22046
827.70 20.40406
827.80 20.58766
827.90 20.77126
828.00 20.9334
828.10 20.9637
828.20 20.99399
828.30 21.02429
828.40 21.05459
828.50 21.02113
828.60 20.86929
828.70 20.71744
828.80 20.56559
828.90 20.41374
829.00 20.30544
829.10 20.23136
829.20 20.15728
829.30 20.0832
829.40 20.00912
829.50 20.07913
829.60 20.19219
829.70 20.30524
829.80 20.4183
829.90 20.53136
830.00 20.5291
830.10 20.5245
830.20 20.51989
830.30 20.51528
830.40 20.48995
830.50 20.37623
830.60 20.26252
830.70 20.1488
830.80 20.03509
830.90 19.97654
831.00 20.00074
831.10 20.02495
831.20 20.04915
831.30 20.07335
831.40 20.15565
831.50 20.27509
831.60 20.39453
831.70 20.51398
831.80 20.63342
831.90 20.79959
832.00 20.97602
832.10 21.15245
832.20 21.32889
832.30 21.50133
832.40 21.54472
832.50 21.58812
832.60 21.63152
832.70 21.67492
832.80 21.70247
832.90 21.67987
833.00 21.65726
833.10 21.63465
833.20 21.61205
833.30 21.67993
833.40 21.8584
833.50 22.03688
833.60 22.21535
833.70 22.39382
833.80 22.53257
833.90 22.65085
834.00 22.76912
834.10 22.8874
834.20 23.00568
834.30 22.89807
834.40 22.7567
834.50 22.61533
834.60 22.47396
834.70 22.33578
834.80 22.2342
834.90 22.13263
835.00 22.03106
835.10 21.92948
835.20 21.84864
835.30 21.81856
835.40 21.78848
835.50 21.75839
835.60 21.72831
835.70 21.71636
835.80 21.72254
835.90 21.72872
836.00 21.7349
836.10 21.74108
836.20 21.80885
836.30 21.90179
836.40 21.99472
836.50 22.08765
836.60 22.18058
836.70 22.16398
836.80 22.13786
836.90 22.11174
837.00 22.08562
837.10 22.06229
837.20 22.05765
837.30 22.05302
837.40 22.04838
837.50 22.04375
837.60 22.11058
837.70 22.31614
837.80 22.52171
837.90 22.72727
838.00 22.93283
838.10 23.14873
838.20 23.37307
838.30 23.59742
838.40 23.82177
838.50 24.04612
838.60 24.18727
838.70 24.30216
838.80 24.41705
838.90 24.53193
839.00 24.64682
839.10 24.6737
839.20 24.69786
839.30 24.72202
839.40 24.74618
839.50 24.7657
839.60 24.7641
839.70 24.7625
839.80 24.76089
839.90 24.75929
840.00 24.75542
840.10 24.74802
840.20 24.74061
840.30 24.73321
840.40 24.72581
840.50 24.65602
840.60 24.54465
840.70 24.43328
840.80 24.32191
840.90 24.21053
841.00 24.3016
841.10 24.44016
841.20 24.57872
841.30 24.71727
841.40 24.85218
841.50 24.80845
841.60 24.76471
841.70 24.72098
841.80 24.67724
841.90 24.63923
842.00 24.62036
842.10 24.60148
842.20 24.58261
842.30 24.56374
842.40 24.57344
842.50 24.61951
842.60 24.66558
842.70 24.71165
842.80 24.75772
842.90 24.74514
843.00 24.70097
843.10 24.65681
843.20 24.61264
843.30 24.56847
843.40 24.79588
843.50 25.06749
843.60 25.3391
843.70 25.61071
843.80 25.85386
843.90 25.71887
844.00 25.58388
844.10 25.44889
844.20 25.3139
844.30 25.15684
844.40 24.94302
844.50 24.72919
844.60 24.51537
844.70 24.30155
844.80 24.18217
844.90 24.16108
845.00 24.14
845.10 24.11891
845.20 24.09783
845.30 23.98997
845.40 23.84492
845.50 23.69987
845.60 23.55482
845.70 23.40976
845.80 23.29765
845.90 23.1888
846.00 23.07995
846.10 22.9711
846.20 22.88816
846.30 22.99532
846.40 23.10247
846.50 23.20962
846.60 23.31678
846.70 23.39276
846.80 23.40545
846.90 23.41814
847.00 23.43083
847.10 23.44352
847.20 23.33918
847.30 23.13514
847.40 22.9311
847.50 22.72706
847.60 22.52302
847.70 22.39241
847.80 22.28627
847.90 22.18014
848.00 22.074
848.10 21.96787
848.20 21.91072
848.30 21.85562
848.40 21.80052
848.50 21.74542
848.60 21.69641
848.70 21.67709
848.80 21.65777
848.90 21.63845
849.00 21.61913
849.10 21.67315
849.20 21.84682
849.30 22.02049
849.40 22.19416
849.50 22.36783
849.60 22.5721
849.70 22.79762
849.80 23.02315
849.90 23.24868
850.00 23.4742
850.10 23.61037
850.20 23.72419
850.30 23.83802
850.40 23.95184
850.50 24.06391
850.60 24.00151
850.70 23.93912
850.80 23.87672
850.90 23.81433
851.00 23.74591
851.10 23.6561
851.20 23.5663
851.30 23.47649
851.40 23.38669
851.50 23.29852
851.60 23.21252
851.70 23.12652
851.80 23.04052
851.90 22.95452
852.00 22.55716
852.10 21.99216
852.20 21.42716
852.30 20.86216
852.40 20.29715
852.50 19.7077
852.60 19.11427
852.70 18.52084
852.80 17.92741
852.90 17.38124
853.00 17.46297
853.10 17.54471
853.20 17.62644
853.30 17.70818
853.40 17.99114
853.50 18.79156
853.60 19.59197
853.70 20.39239
853.80 21.1928
853.90 21.94493
854.00 22.6468
854.10 23.34866
854.20 24.05053
854.30 24.7524
854.40 25.18659
854.50 25.50608
854.60 25.82556
854.70 26.14505
854.80 26.46453
854.90 26.64002
855.00 26.80127
855.10 26.96252
855.20 27.12377
855.30 27.26126
855.40 27.22453
855.50 27.1878
855.60 27.15106
855.70 27.11433
855.80 27.06653
855.90 26.99626
856.00 26.926
856.10 26.85573
856.20 26.78547
856.30 26.753
856.40 26.75274
856.50 26.75247
856.60 26.75221
856.70 26.75195
856.80 26.71001
856.90 26.65419
857.00 26.59836
857.10 26.54254
857.20 26.48671
857.30 26.49519
857.40 26.50634
857.50 26.51749
857.60 26.52865
857.70 26.5418
857.80 26.56472
857.90 26.58764
858.00 26.61056
858.10 26.63349
858.20 26.62092
858.30 26.55047
858.40 26.48001
858.50 26.40955
858.60 26.3391
858.70 26.35463
858.80 26.42991
858.90 26.50519
859.00 26.58047
859.10 26.65576
859.20 26.69
859.30 26.71398
859.40 26.73797
859.50 26.76195
859.60 26.78594
859.70 26.81066
859.80 26.83537
859.90 26.86009
860.00 26.88481
860.10 26.94862
860.20 27.15107
860.30 27.35353
860.40 27.55598
860.50 27.75843
860.60 27.8904
860.70 27.92895
860.80 27.9675
860.90 28.00605
861.00 28.0446
861.10 27.91441
861.20 27.68931
861.30 27.46421
861.40 27.23911
861.50 27.01401
861.60 26.24221
861.70 25.37394
861.80 24.50566
861.90 23.63739
862.00 22.748
862.10 21.5278
862.20 20.30759
862.30 19.08739
862.40 17.86718
862.50 16.79356
862.60 16.11627
862.70 15.43898
862.80 14.76169
862.90 14.0844
863.00 13.66371
863.10 13.52098
863.20 13.37826
863.30 13.23554
863.40 13.09282
863.50 13.02134
863.60 12.98188
863.70 12.94241
863.80 12.90295
863.90 12.86348
864.00 12.82297
864.10 12.78235
864.20 12.74173
864.30 12.70111
864.40 12.68862
864.50 12.90379
864.60 13.11895
864.70 13.33412
864.80 13.54928
864.90 13.78039
865.00 14.04539
865.10 14.31039
865.20 14.57539
865.30 14.84039
865.40 15.13172
865.50 15.44641
865.60 15.76109
865.70 16.07578
865.80 16.39047
865.90 16.77908
866.00 17.19366
866.10 17.60824
866.20 18.02283
866.30 18.43741
866.40 18.86262
866.50 19.28838
866.60 19.71415
866.70 20.13991
866.80 20.49493
866.90 20.47852
867.00 20.46211
867.10 20.4457
867.20 20.42929
867.30 20.34063
867.40 20.12896
867.50 19.91729
867.60 19.70562
867.70 19.49394
867.80 19.43839
867.90 19.49588
868.00 19.55338
868.10 19.61087
868.20 19.66837
868.30 19.69897
868.40 19.72243
868.50 19.74589
868.60 19.76934
868.70 19.7928
868.80 19.86203
868.90 19.93127
869.00 20.0005
869.10 20.06973
869.20 20.09833
869.30 19.97403
869.40 19.84973
869.50 19.72543
869.60 19.60114
869.70 19.31965
869.80 18.8211
869.90 18.32255
870.00 17.824
870.10 17.32545
870.20 16.93073
870.30 16.59701
870.40 16.26328
870.50 15.92955
870.60 15.59583
870.70 15.41562
870.80 15.26466
870.90 15.1137
871.00 14.96274
871.10 14.81867
871.20 14.80552
871.30 14.79238
871.40 14.77923
871.50 14.76609
871.60 14.75211
871.70 14.73575
871.80 14.71939
871.90 14.70303
872.00 14.68667
872.10 14.61758
872.20 14.48904
872.30 14.36051
872.40 14.23197
872.50 14.10343
872.60 14.09414
872.70 14.14095
872.80 14.18777
872.90 14.23459
873.00 14.28141
873.10 14.43699
873.20 14.60602
873.30 14.77505
873.40 14.94407
873.50 15.11251
873.60 15.27565
873.70 15.43879
873.80 15.60193
873.90 15.76507
874.00 15.92354
874.10 16.0716
874.20 16.21966
874.30 16.36772
874.40 16.51578
874.50 16.67722
874.60 16.85101
874.70 17.0248
874.80 17.19858
874.90 17.37237
875.00 17.47155
875.10 17.54312
875.20 17.6147
875.30 17.68628
875.40 17.75786
875.50 17.93556
875.60 18.12004
875.70 18.30452
875.80 18.489
875.90 18.67334
876.00 18.85691
876.10 19.04047
876.20 19.22404
876.30 19.4076
876.40 19.52566
876.50 19.52727
876.60 19.52888
876.70 19.53049
876.80 19.53211
876.90 19.41193
877.00 19.19989
877.10 18.98784
877.20 18.7758
877.30 18.56376
877.40 18.49093
877.50 18.45736
877.60 18.4238
877.70 18.39024
877.80 18.35668
877.90 18.58574
878.00 18.81745
878.10 19.04917
878.20 19.28088
878.30 19.46232
878.40 19.44262
878.50 19.42293
878.60 19.40324
878.70 19.38355
878.80 19.2992
878.90 19.1218
879.00 18.9444
879.10 18.767
879.20 18.5896
879.30 18.54142
879.40 18.57242
879.50 18.60343
879.60 18.63444
879.70 18.66544
879.80 18.82237
879.90 19.00508
880.00 19.1878
880.10 19.37051
880.20 19.54429
880.30 19.50355
880.40 19.46282
880.50 19.42208
880.60 19.38134
880.70 19.32758
880.80 19.23673
880.90 19.14589
881.00 19.05504
881.10 18.9642
881.20 18.95039
881.30 19.02346
881.40 19.09652
881.50 19.16958
881.60 19.24265
881.70 19.45747
881.80 19.73901
881.90 20.02054
882.00 20.30207
882.10 20.58361
882.20 20.84017
882.30 21.09364
882.40 21.34711
882.50 21.60058
882.60 21.8345
882.70 21.89245
882.80 21.9504
882.90 22.00835
883.00 22.0663
883.10 22.09556
883.20 22.06096
883.30 22.02637
883.40 21.99177
883.50 21.95718
883.60 21.80176
883.70 21.5348
883.80 21.26785
883.90 21.0009
884.00 20.73394
884.10 20.84358
884.20 21.09252
884.30 21.34145
884.40 21.59038
884.50 21.83931
884.60 21.97185
884.70 22.09696
884.80 22.22207
884.90 22.34718
885.00 22.41863
885.10 22.18602
885.20 21.9534
885.30 21.72079
885.40 21.48817
885.50 21.37168
885.60 21.46162
885.70 21.55156
885.80 21.64151
885.90 21.73145
886.00 21.78849
886.10 21.82072
886.20 21.85294
886.30 21.88516
886.40 21.91738
886.50 21.98594
886.60 22.06473
886.70 22.14353
886.80 22.22233
886.90 22.30113
887.00 22.39171
887.10 22.4824
887.20 22.5731
887.30 22.6638
887.40 22.70604
887.50 22.55445
887.60 22.40286
887.70 22.25127
887.80 22.09968
887.90 22.04639
888.00 22.13455
888.10 22.22272
888.20 22.31088
888.30 22.39904
888.40 22.5178
888.50 22.65531
888.60 22.79282
888.70 22.93033
888.80 23.06784
888.90 23.22052
889.00 23.3763
889.10 23.53209
889.20 23.68788
889.30 23.83821
889.40 23.85772
889.50 23.87723
889.60 23.89674
889.70 23.91625
889.80 23.89812
889.90 23.76709
890.00 23.63605
890.10 23.50502
890.20 23.37398
890.30 23.3269
890.40 23.37836
890.50 23.42982
890.60 23.48128
890.70 23.53274
890.80 23.61925
890.90 23.72302
891.00 23.82679
891.10 23.93056
891.20 24.03433
891.30 24.08601
891.40 24.13058
891.50 24.17516
891.60 24.21974
891.70 24.27734
891.80 24.46666
891.90 24.65598
892.00 24.8453
892.10 25.03462
892.20 25.18436
892.30 25.24176
892.40 25.29915
892.50 25.35654
892.60 25.41393
892.70 25.37824
892.80 25.25312
892.90 25.12799
893.00 25.00287
893.10 24.87774
893.20 24.91308
893.30 25.01081
893.40 25.10855
893.50 25.20629
893.60 25.30402
893.70 25.27678
893.80 25.24014
893.90 25.20349
894.00 25.16685
894.10 25.07739
894.20 24.66351
894.30 24.24963
894.40 23.83575
894.50 23.42187
894.60 23.04079
894.70 22.72062
894.80 22.40046
894.90 22.08029
895.00 21.76013
895.10 21.60638
895.20 21.58338
895.30 21.56039
895.40 21.53739
895.50 21.5144
895.60 21.80251
895.70 22.18354
895.80 22.56458
895.90 22.94561
896.00 23.32665
896.10 23.93761
896.20 24.55326
896.30 25.16891
896.40 25.78456
896.50 26.29549
896.60 26.36002
896.70 26.42454
896.80 26.48907
896.90 26.55359
897.00 26.55438
897.10 26.45956
897.20 26.36474
897.30 26.26992
897.40 26.1751
897.50 26.18999
897.60 26.27504
897.70 26.36008
897.80 26.44513
897.90 26.53017
898.00 26.69314
898.10 26.87322
898.20 27.0533
898.30 27.23338
898.40 27.42309
898.50 27.92434
898.60 28.42559
898.70 28.92683
898.80 29.42808
898.90 29.89644
899.00 30.26066
899.10 30.62488
899.20 30.9891
899.30 31.35332
899.40 31.33126
899.50 30.83708
899.60 30.34291
899.70 29.84873
899.80 29.35455
899.90 28.71818
900.00 28.00858
900.10 27.29897
900.20 26.58936
900.30 25.87976
900.40 25.98544
900.50 26.21294
900.60 26.44044
900.70 26.66795
900.80 26.91871
900.90 27.43696
901.00 27.95521
901.10 28.47346
901.20 28.99171
901.30 29.38839
901.40 29.4874
901.50 29.58642
901.60 29.68544
901.70 29.78446
901.80 29.78342
901.90 29.68233
902.00 29.58124
902.10 29.48015
902.20 29.37906
902.30 29.202
902.40 28.9939
902.50 28.7858
902.60 28.5777
902.70 28.36961
902.80 27.97148
902.90 27.55682
903.00 27.14216
903.10 26.72751
903.20 26.34204
903.30 26.15189
903.40 25.96174
903.50 25.77159
903.60 25.58144
903.70 25.58162
903.80 25.95125
903.90 26.32087
904.00 26.6905
904.10 27.06012
904.20 27.58709
904.30 28.2428
904.40 28.89851
904.50 29.55422
904.60 30.20993
904.70 30.52817
904.80 30.73985
904.90 30.95153
905.00 31.16321
905.10 31.37488
905.20 31.47653
905.30 31.57477
905.40 31.67301
905.50 31.77125
905.60 31.82449
905.70 31.67269
905.80 31.5209
905.90 31.3691
906.00 31.2173
906.10 31.05722
906.20 30.88417
906.30 30.71112
906.40 30.53807
906.50 30.36503
906.60 30.37001
906.70 30.49368
906.80 30.61734
906.90 30.74101
907.00 30.86468
907.10 30.66235
907.20 30.38355
907.30 30.10476
907.40 29.82596
907.50 29.5484
907.60 29.33142
907.70 29.11443
907.80 28.89744
907.90 28.68045
908.00 28.58245
908.10 28.88276
908.20 29.18308
908.30 29.4834
908.40 29.78372
908.50 30.03947
908.60 30.23848
908.70 30.4375
908.80 30.63652
908.90 30.83553
909.00 30.96686
909.10 31.06175
909.20 31.15664
909.30 31.25153
909.40 31.34641
909.50 31.52603
909.60 31.7183
909.70 31.91057
909.80 32.10284
909.90 32.29405
910.00 32.47306
910.10 32.65207
910.20 32.83108
910.30 33.01009
910.40 33.17575
910.50 33.30871
910.60 33.44168
910.70 33.57465
910.80 33.70762
910.90 33.70266
911.00 33.55977
911.10 33.41687
911.20 33.27398
911.30 33.13109
911.40 33.1407
911.50 33.2126
911.60 33.2845
911.70 33.3564
911.80 33.4283
911.90 33.63355
912.00 33.8504
912.10 34.06725
912.20 34.2841
912.30 34.51517
912.40 34.84144
912.50 35.16772
912.60 35.49399
912.70 35.82026
912.80 36.1652
912.90 36.54638
913.00 36.92755
913.10 37.30872
913.20 37.6899
913.30 37.94758
913.40 38.10423
913.50 38.26087
913.60 38.41751
913.70 38.57416
913.80 37.91652
913.90 37.00175
914.00 36.08697
914.10 35.1722
914.20 34.25742
914.30 33.62989
914.40 33.01125
914.50 32.3926
914.60 31.77396
914.70 31.34388
914.80 31.77282
914.90 32.20177
915.00 32.63071
915.10 33.05966
915.20 33.56796
915.30 34.20038
915.40 34.8328
915.50 35.46522
915.60 36.09764
915.70 36.38193
915.80 36.43415
915.90 36.48636
916.00 36.53858
916.10 36.59079
916.20 36.39767
916.30 36.14699
916.40 35.89632
916.50 35.64564
916.60 35.40237
916.70 35.52159
916.80 35.64081
916.90 35.76003
917.00 35.87926
917.10 36.09942
917.20 36.65753
917.30 37.21563
917.40 37.77373
917.50 38.33184
917.60 38.63461
917.70 38.61242
917.80 38.59023
917.90 38.56804
918.00 38.54585
918.10 38.15614
918.20 37.56852
918.30 36.9809
918.40 36.39329
918.50 35.80567
918.60 35.52431
918.70 35.2928
918.80 35.06129
918.90 34.82978
919.00 34.6395
919.10 34.99704
919.20 35.35459
919.30 35.71213
919.40 36.06967
919.50 36.46533
919.60 36.95899
919.70 37.45265
919.80 37.94631
919.90 38.43997
920.00 38.67824
920.10 38.6507
920.20 38.62317
920.30 38.59563
920.40 38.5681
920.50 38.59931
920.60 38.6557
920.70 38.71209
920.80 38.76848
920.90 38.82486
921.00 39.19993
921.10 39.60652
921.20 40.01311
921.30 40.41969
921.40 40.76068
921.50 40.62058
921.60 40.48049
921.70 40.3404
921.80 40.2003
921.90 39.96504
922.00 39.53656
922.10 39.10808
922.20 38.67959
922.30 38.25111
922.40 38.16137
922.50 38.3602
922.60 38.55903
922.70 38.75785
922.80 38.95668
922.90 39.31737
923.00 39.73201
923.10 40.14665
923.20 40.56129
923.30 40.97593
923.40 40.88538
923.50 40.77377
923.60 40.66216
923.70 40.55056
923.80 40.44308
923.90 40.35579
924.00 40.2685
924.10 40.18121
924.20 40.09391
924.30 40.06383
924.40 40.12711
924.50 40.19038
924.60 40.25365
924.70 40.31693
924.80 40.20962
924.90 39.98377
925.00 39.75792
925.10 39.53207
925.20 39.30622
925.30 39.18618
925.40 39.09259
925.50 38.999
925.60 38.90541
925.70 38.81446
925.80 38.98524
925.90 39.15602
926.00 39.32679
926.10 39.49757
926.20 39.64265
926.30 39.69662
926.40 39.7506
926.50 39.80457
926.60 39.85854
926.70 39.9554
926.80 40.10912
926.90 40.26283
927.00 40.41655
927.10 40.57026
927.20 40.75004
927.30 40.94447
927.40 41.1389
927.50 41.33333
927.60 41.52776
927.70 41.87644
927.80 42.25235
927.90 42.62825
928.00 43.00415
928.10 43.34803
928.20 43.19029
928.30 43.03255
928.40 42.87481
928.50 42.71706
928.60 42.48462
928.70 42.0502
928.80 41.61579
928.90 41.18138
929.00 40.74696
929.10 40.68058
929.20 41.01291
929.30 41.34524
929.40 41.67757
929.50 42.0099
929.60 42.1154
929.70 42.11898
929.80 42.12257
929.90 42.12616
930.00 42.12975
930.10 41.73175
930.20 41.28914
930.30 40.84652
930.40 40.4039
930.50 39.99284
930.60 39.83707
930.70 39.68131
930.80 39.52554
930.90 39.36978
931.00 39.31096
931.10 39.45816
931.20 39.60536
931.30 39.75255
931.40 39.89975
931.50 40.4277
931.60 41.29331
931.70 42.15892
931.80 43.02452
931.90 43.89013
932.00 44.60541
932.10 45.26787
932.20 45.93033
932.30 46.59279
932.40 47.25525
932.50 47.08279
932.60 46.86639
932.70 46.64999
932.80 46.43359
932.90 46.17191
933.00 45.67254
933.10 45.17317
933.20 44.6738
933.30 44.17442
933.40 44.2665
933.50 45.36565
933.60 46.46479
933.70 47.56394
933.80 48.66308
933.90 49.76707
934.00 50.87456
934.10 51.98206
934.20 53.08955
934.30 54.19704
934.40 53.28452
934.50 51.83503
934.60 50.38554
934.70 48.93606
934.80 47.48657
934.90 46.08512
935.00 44.68367
935.10 43.28222
935.20 41.88077
935.30 40.83531
935.40 41.12905
935.50 41.42278
935.60 41.71652
935.70 42.01025
935.80 42.34388
935.90 42.7326
936.00 43.12132
936.10 43.51003
936.20 43.89875
936.30 44.00105
936.40 43.93515
936.50 43.86924
936.60 43.80333
936.70 43.73742
936.80 43.74625
936.90 43.76932
937.00 43.79239
937.10 43.81545
937.20 43.83147
937.30 43.71342
937.40 43.59537
937.50 43.47731
937.60 43.35926
937.70 43.11951
937.80 42.53338
937.90 41.94725
938.00 41.36112
938.10 40.77499
938.20 40.08146
938.30 39.27158
938.40 38.46171
938.50 37.65183
938.60 36.84195
938.70 36.05159
938.80 35.26998
938.90 34.48838
939.00 33.70678
939.10 32.92518
939.20 33.08811
939.30 33.35598
939.40 33.62386
939.50 33.89174
939.60 34.2768
939.70 35.60999
939.80 36.94319
939.90 38.27639
940.00 39.60958
940.10 40.94505
940.20 42.28535
940.30 43.62565
940.40 44.96595
940.50 46.30625
940.60 47.36849
940.70 48.18415
940.80 48.99981
940.90 49.81548
941.00 50.63114
941.10 51.06567
941.20 51.36629
941.30 51.66691
941.40 51.96753
941.50 52.26814
941.60 52.55485
941.70 52.84082
941.80 53.12679
941.90 53.41277
942.00 53.62364
942.10 53.44027
942.20 53.2569
942.30 53.07352
942.40 52.89015
942.50 52.95226
942.60 53.43238
942.70 53.91249
942.80 54.3926
942.90 54.87271
943.00 55.01803
943.10 54.92093
943.20 54.82382
943.30 54.72672
943.40 54.62961
943.50 54.46389
943.60 54.27993
943.70 54.09597
943.80 53.91201
943.90 53.72805
944.00 53.8948
944.10 54.06155
944.20 54.2283
944.30 54.39505
944.40 54.2372
944.50 52.85824
944.60 51.47927
944.70 50.1003
944.80 48.72134
944.90 47.11658
945.00 45.20002
945.10 43.28345
945.20 41.36689
945.30 39.45032
945.40 39.07748
945.50 39.61127
945.60 40.14506
945.70 40.67885
945.80 41.21264
945.90 42.12063
946.00 43.09989
946.10 44.07916
946.20 45.05842
946.30 45.94875
946.40 45.14935
946.50 44.34994
946.60 43.55054
946.70 42.75113
946.80 42.07848
946.90 41.76658
947.00 41.45469
947.10 41.14279
947.20 40.83089
947.30 40.95646
947.40 41.57535
947.50 42.19424
947.60 42.81313
947.70 43.43201
947.80 44.0878
947.90 44.76095
948.00 45.4341
948.10 46.10726
948.20 46.78041
948.30 47.10845
948.40 47.39384
948.50 47.67922
948.60 47.96461
948.70 48.26225
948.80 48.67015
948.90 49.07806
949.00 49.48596
949.10 49.89387
949.20 50.71095
949.30 52.4388
949.40 54.16664
949.50 55.89449
949.60 57.62233
949.70 59.14804
949.80 60.48717
949.90 61.8263
950.00 63.16543
950.10 64.50455
950.20 63.85931
950.30 62.48013
950.40 61.10094
950.50 59.72175
950.60 58.34257
950.70 56.35182
950.80 54.32204
950.90 52.29226
951.00 50.26248
951.10 48.6283
951.20 49.23591
951.30 49.84352
951.40 50.45113
951.50 51.05874
951.60 52.24131
951.70 54.44605
951.80 56.65078
951.90 58.85552
952.00 61.06025
952.10 62.33296
952.20 62.90256
952.30 63.47216
952.40 64.04176
952.50 64.61137
952.60 62.98425
952.70 60.73756
952.80 58.49086
952.90 56.24417
953.00 53.99747
953.10 52.5345
953.20 51.07944
953.30 49.62439
953.40 48.16934
953.50 47.00573
953.60 47.00793
953.70 47.01013
953.80 47.01232
953.90 47.01452
954.00 47.17372
954.10 47.55885
954.20 47.94398
954.30 48.32911
954.40 48.71423
954.50 49.11984
954.60 49.538
954.70 49.95616
954.80 50.37431
954.90 50.79247
955.00 50.71014
955.10 50.5253
955.20 50.34046
955.30 50.15562
955.40 49.97294
955.50 49.84185
955.60 49.71076
955.70 49.57968
955.80 49.44859
955.90 49.3511
956.00 49.3544
956.10 49.35769
956.20 49.36099
956.30 49.36428
956.40 49.61373
956.50 50.15213
956.60 50.69054
956.70 51.22894
956.80 51.76735
956.90 52.07122
957.00 52.25957
957.10 52.44792
957.20 52.63628
957.30 52.82463
957.40 52.93501
957.50 53.03475
957.60 53.13449
957.70 53.23424
957.80 53.42234
957.90 54.50391
958.00 55.58548
958.10 56.66705
958.20 57.74862
958.30 58.8964
958.40 60.1987
958.50 61.50099
958.60 62.80328
958.70 64.10557
958.80 64.97092
958.90 65.41647
959.00 65.86201
959.10 66.30756
959.20 66.75311
959.30 66.03575
959.40 64.86616
959.50 63.69656
959.60 62.52697
959.70 61.35737
959.80 59.54104
959.90 57.67603
960.00 55.81102
960.10 53.94601
960.20 52.18058
960.30 51.0268
960.40 49.87303
960.50 48.71925
960.60 47.56547
960.70 46.82885
960.80 46.86693
960.90 46.90501
961.00 46.94309
961.10 46.98117
961.20 47.15052
961.30 47.42302
961.40 47.69552
961.50 47.96802
961.60 48.24052
961.70 48.51831
961.80 48.79769
961.90 49.07708
962.00 49.35646
962.10 49.63584
962.20 49.5538
962.30 49.46438
962.40 49.37497
962.50 49.28555
962.60 49.07801
962.70 48.36693
962.80 47.65584
962.90 46.94476
963.00 46.23367
963.10 45.94868
963.20 46.30283
963.30 46.65698
963.40 47.01113
963.50 47.36528
963.60 47.57859
963.70 47.70184
963.80 47.82509
963.90 47.94834
964.00 48.07159
964.10 48.03853
964.20 47.97115
964.30 47.90378
964.40 47.8364
964.50 47.76338
964.60 47.5078
964.70 47.25222
964.80 46.99664
964.90 46.74106
965.00 46.6025
965.10 46.8345
965.20 47.0665
965.30 47.2985
965.40 47.5305
965.50 47.88087
965.60 48.37592
965.70 48.87097
965.80 49.36603
965.90 49.86108
966.00 50.8209
966.10 52.02015
966.20 53.21941
966.30 54.41866
966.40 55.61792
966.50 56.47331
966.60 57.27732
966.70 58.08133
966.80 58.88535
966.90 59.5538
967.00 58.85165
967.10 58.1495
967.20 57.44735
967.30 56.7452
967.40 56.31371
967.50 56.51378
967.60 56.71385
967.70 56.91392
967.80 57.11399
967.90 57.27212
968.00 57.38995
968.10 57.50778
968.20 57.62562
968.30 57.74345
968.40 57.80512
968.50 57.84496
968.60 57.8848
968.70 57.92464
968.80 57.96448
968.90 57.34947
969.00 56.68518
969.10 56.02089
969.20 55.3566
969.30 54.7996
969.40 54.90169
969.50 55.00378
969.60 55.10586
969.70 55.20795
969.80 55.03673
969.90 54.35794
970.00 53.67914
970.10 53.00035
970.20 52.32156
970.30 51.6228
970.40 50.90834
970.50 50.19389
970.60 49.47943
970.70 48.76498
970.80 48.44107
970.90 48.23383
971.00 48.02658
971.10 47.81933
971.20 47.61208
971.30 47.63363
971.40 47.65985
971.50 47.68606
971.60 47.71228
971.70 47.89999
971.80 48.77614
971.90 49.65229
972.00 50.52844
972.10 51.4046
972.20 51.90589
972.30 51.84488
972.40 51.78388
972.50 51.72288
972.60 51.66188
972.70 51.96146
972.80 52.49159
972.90 53.02172
973.00 53.55185
973.10 54.08198
973.20 54.70705
973.30 55.35296
973.40 55.99887
973.50 56.64478
973.60 57.27154
973.70 57.27931
973.80 57.28707
973.90 57.29483
974.00 57.30259
974.10 57.27067
974.20 57.11308
974.30 56.95548
974.40 56.79788
974.50 56.64029
974.60 56.62838
974.70 56.79455
974.80 56.96071
974.90 57.12688
975.00 57.29304
975.10 57.77492
975.20 58.41944
975.30 59.06395
975.40 59.70847
975.50 60.35299
975.60 60.96177
975.70 61.5652
975.80 62.16864
975.90 62.77207
976.00 63.37341
976.10 63.95071
976.20 64.528
976.30 65.10529
976.40 65.68258
976.50 66.13007
976.60 66.25976
976.70 66.38946
976.80 66.51915
976.90 66.64884
977.00 66.5859
977.10 66.33032
977.20 66.07474
977.30 65.81916
977.40 65.56358
977.50 65.66146
977.60 65.90371
977.70 66.14596
977.80 66.38822
977.90 66.63047
978.00 66.92959
978.10 67.23365
978.20 67.53771
978.30 67.84177
978.40 68.04966
978.50 67.61392
978.60 67.17819
978.70 66.74246
978.80 66.30672
978.90 65.9497
979.00 65.74545
979.10 65.54121
979.20 65.33696
979.30 65.13272
979.40 64.92404
979.50 64.71174
979.60 64.49944
979.70 64.28714
979.80 64.07484
979.90 63.44912
980.00 62.69285
980.10 61.93658
980.20 61.18031
980.30 60.42404
980.40 60.04823
980.50 59.68419
980.60 59.32016
980.70 58.95612
980.80 58.55442
980.90 57.98116
981.00 57.40789
981.10 56.83463
981.20 56.26137
981.30 56.14747
981.40 56.75208
981.50 57.35669
981.60 57.96129
981.70 58.5659
981.80 58.87585
981.90 58.98936
982.00 59.10287
982.10 59.21638
982.20 59.32989
982.30 59.59128
982.40 59.88736
982.50 60.18344
982.60 60.47951
982.70 60.76461
982.80 60.51152
982.90 60.25843
983.00 60.00534
983.10 59.75225
983.20 59.45851
983.30 59.02871
983.40 58.59891
983.50 58.16911
983.60 57.73931
983.70 57.58858
983.80 57.79305
983.90 57.99751
984.00 58.20198
984.10 58.40644
984.20 58.77865
984.30 59.24119
984.40 59.70373
984.50 60.16626
984.60 60.6288
984.70 59.57887
984.80 58.28273
984.90 56.98659
985.00 55.69045
985.10 54.40562
985.20 53.27111
985.30 52.13659
985.40 51.00208
985.50 49.86756
985.60 49.61029
985.70 51.6088
985.80 53.60732
985.90 55.60583
986.00 57.60434
986.10 58.9189
986.20 59.52161
986.30 60.12431
986.40 60.72701
986.50 61.32971
986.60 62.23917
986.70 63.2801
986.80 64.32102
986.90 65.36195
987.00 66.40287
987.10 67.63159
987.20 68.87889
987.30 70.12618
987.40 71.37348
987.50 72.52496
987.60 72.9738
987.70 73.42264
987.80 73.87148
987.90 74.32032
988.00 74.58895
988.10 74.4917
988.20 74.39445
988.30 74.29719
988.40 74.19994
988.50 73.92343
988.60 73.49421
988.70 73.065
988.80 72.63578
988.90 72.20657
989.00 71.23256
989.10 70.07695
989.20 68.92135
989.30 67.76574
989.40 66.61013
989.50 65.04719
989.60 63.46727
989.70 61.88736
989.80 60.30744
989.90 58.81643
990.00 57.75947
990.10 56.7025
990.20 55.64554
990.30 54.58858
990.40 53.01771
990.50 50.60836
990.60 48.19902
990.70 45.78967
990.80 43.38033
990.90 41.25974
991.00 39.33982
991.10 37.4199
991.20 35.49998
991.30 33.58007
991.40 32.67925
991.50 32.03321
991.60 31.38717
991.70 30.74112
991.80 30.10561
991.90 30.51188
992.00 30.91816
992.10 31.32444
992.20 31.73072
992.30 32.04437
992.40 32.02962
992.50 32.01488
992.60 32.00013
992.70 31.98538
992.80 31.98504
992.90 32.00381
993.00 32.02258
993.10 32.04135
993.20 32.06012
993.30 32.21094
993.40 32.43604
993.50 32.66114
993.60 32.88625
993.70 33.11135
993.80 33.3701
993.90 33.63479
994.00 33.89948
994.10 34.16417
994.20 34.44752
994.30 35.0231
994.40 35.59869
994.50 36.17427
994.60 36.74986
994.70 37.46777
994.80 38.57051
994.90 39.67324
995.00 40.77597
995.10 41.87871
995.20 42.73259
995.30 43.31688
995.40 43.90118
995.50 44.48548
995.60 45.06977
995.70 45.33395
995.80 45.46094
995.90 45.58792
996.00 45.71491
996.10 45.84189
996.20 46.162
996.30 46.50122
996.40 46.84043
996.50 47.17964
996.60 47.55978
996.70 48.24003
996.80 48.92029
996.90 49.60055
997.00 50.2808
997.10 50.65808
997.20 50.42022
997.30 50.18236
997.40 49.9445
997.50 49.70664
997.60 48.83531
997.70 47.42434
997.80 46.01337
997.90 44.6024
998.00 43.19143
998.10 42.28659
998.20 41.55046
998.30 40.81433
998.40 40.07819
998.50 39.34206
998.60 38.9057
998.70 38.48183
998.80 38.05797
998.90 37.6341
999.00 37.30456
999.10 37.43557
999.20 37.56658
999.30 37.6976
999.40 37.82861
999.50 38.14632
999.60 38.76865
999.70 39.39098
999.80 40.01331
999.90 40.63564
1000.00 41.05515
1000.10 41.33373
1000.20 41.6123
1000.30 41.89088
1000.40 42.16945
1000.50 42.6153
1000.60 43.10296
1000.70 43.59062
1000.80 44.07828
1000.90 44.56595
1001.00 45.07758
1001.10 45.58921
1001.20 46.10084
1001.30 46.61247
1001.40 46.94575
1001.50 46.56559
1001.60 46.18542
1001.70 45.80526
1001.80 45.4251
1001.90 45.13591
1002.00 44.98317
1002.10 44.83044
1002.20 44.6777
1002.30 44.52496
1002.40 44.40331
1002.50 44.30239
1002.60 44.20147
1002.70 44.10054
1002.80 43.99962
1002.90 44.68733
1003.00 45.5722
1003.10 46.45707
1003.20 47.34194
1003.30 48.17274
1003.40 48.51695
1003.50 48.86115
1003.60 49.20536
1003.70 49.54957
1003.80 49.80073
1003.90 49.83478
1004.00 49.86884
1004.10 49.90289
1004.20 49.93695
1004.30 49.77449
1004.40 49.41552
1004.50 49.05655
1004.60 48.69759
1004.70 48.33862
1004.80 47.92011
1004.90 47.47607
1005.00 47.03204
1005.10 46.58801
1005.20 46.14397
1005.30 46.07951
1005.40 46.05722
1005.50 46.03493
1005.60 46.01264
1005.70 45.97384
1005.80 45.78647
1005.90 45.59909
1006.00 45.41171
1006.10 45.22434
1006.20 44.95764
1006.30 44.50586
1006.40 44.05408
1006.50 43.6023
1006.60 43.15052
1006.70 43.07006
1006.80 43.36092
1006.90 43.65178
1007.00 43.94263
1007.10 44.23349
1007.20 44.51376
1007.30 44.78949
1007.40 45.06522
1007.50 45.34095
1007.60 45.61668
1007.70 45.47894
1007.80 45.29527
1007.90 45.11159
1008.00 44.92792
1008.10 44.88516
1008.20 45.40607
1008.30 45.92698
1008.40 46.4479
1008.50 46.96881
1008.60 47.60931
1008.70 48.42919
1008.80 49.24908
1008.90 50.06896
1009.00 50.88884
1009.10 51.20951
1009.20 51.19736
1009.30 51.18521
1009.40 51.17306
1009.50 51.16091
1009.60 51.14876
1009.70 51.13661
1009.80 51.12447
1009.90 51.11232
1010.00 51.10017
1010.10 51.08802
1010.20 51.07587
1010.30 51.06372
1010.40 51.05158
1010.50 51.03943
1010.60 51.02728
1010.70 51.01513
1010.80 51.00298
1010.90 50.99083
1011.00 50.97869
1011.10 50.96654
1011.20 50.95439
1011.30 50.94224
1011.40 50.93009
1011.50 50.91794
1011.60 50.9058
1011.70 50.89365
1011.80 50.8815
1011.90 50.86935
1012.00 50.8572
1012.10 50.84505
1012.20 50.83291
1012.30 50.82076
1012.40 50.80861
1012.50 50.79646
1012.60 50.78431
1012.70 50.77216
1012.80 50.76002
1012.90 50.74787
1013.00 50.73572
1013.10 50.72357
1013.20 50.71142
1013.30 50.69927
1013.40 50.68713
1013.50 50.67498
1013.60 50.66283
1013.70 50.65068
1013.80 50.63853
1013.90 50.62638
1014.00 50.61423
1014.10 50.60209
1014.20 50.58994
1014.30 50.57779
1014.40 50.56564
1014.50 50.55349
1014.60 50.54134
1014.70 50.5292
1014.80 50.51705
1014.90 50.5049
1015.00 50.49275
1015.10 50.4806
1015.20 50.46845
1015.30 50.45631
1015.40 50.44416
1015.50 50.43201
1015.60 50.41986
1015.70 50.40771
1015.80 50.39556
1015.90 50.38342
1016.00 50.37127
1016.10 50.35912
1016.20 50.34697
1016.30 50.33482
1016.40 50.32267
1016.50 50.31053
1016.60 50.29838
1016.70 50.28623
1016.80 50.27408
1016.90 50.26193
1017.00 50.24978
1017.10 50.23764
1017.20 50.22549
1017.30 50.21334
1017.40 50.20119
1017.50 50.18904
1017.60 50.17689
1017.70 50.16474
1017.80 50.1526
1017.90 50.14045
1018.00 50.1283
1018.10 50.11615
1018.20 50.104
1018.30 50.09185
1018.40 50.07971
1018.50 50.06756
1018.60 50.05541
1018.70 50.04326
1018.80 50.03111
1018.90 50.01896
1019.00 50.00682
1019.10 49.99467
1019.20 49.98252
1019.30 49.97037
1019.40 49.95822
1019.50 49.94607
1019.60 49.93393
1019.70 49.92178
1019.80 49.90963
1019.90 49.89748
1020.00 49.88533
1020.10 49.87318
1020.20 49.86104
1020.30 49.84889
1020.40 49.83674
1020.50 49.82459
1020.60 49.81244
1020.70 49.80029
1020.80 49.78815
1020.90 49.776
1021.00 49.76385
1021.10 49.7517
1021.20 49.73955
1021.30 49.7274
1021.40 49.71526
1021.50 49.70311
1021.60 49.69096
1021.70 49.67881
1021.80 49.66666
1021.90 49.65451
1022.00 49.64236
1022.10 49.63022
1022.20 49.61807
1022.30 49.60592
1022.40 49.59377
1022.50 49.58162
1022.60 49.56947
1022.70 49.55733
1022.80 49.54518
1022.90 49.53303
1023.00 49.52088
1023.10 49.50873
1023.20 49.49658
1023.30 49.48444
1023.40 49.47229
1023.50 49.46014
1023.60 49.44799
1023.70 49.43584
1023.80 49.36061
1023.90 49.2696
1024.00 49.17859
1024.10 49.08759
1024.20 48.99658
1024.30 48.90557
1024.40 48.81456
1024.50 48.72356
1024.60 48.63255
1024.70 48.54154
1024.80 48.45054
1024.90 48.35953
1025.00 48.36709
1025.10 48.60463
1025.20 48.84217
1025.30 49.07971
1025.40 49.31726
1025.50 49.5548
1025.60 49.79234
1025.70 50.02988
1025.80 50.26743
1025.90 50.50497
1026.00 50.74251
1026.10 50.98005
1026.20 51.21759
1026.30 51.00785
1026.40 50.74841
1026.50 50.48898
1026.60 50.22954
1026.70 49.9701
1026.80 49.71066
1026.90 49.45122
1027.00 49.19178
1027.10 48.93234
1027.20 48.6729
1027.30 48.41346
1027.40 48.15402
1027.50 48.02805
1027.60 48.10228
1027.70 48.17651
1027.80 48.25074
1027.90 48.32497
1028.00 48.3992
1028.10 48.47343
1028.20 48.54766
1028.30 48.62189
1028.40 48.69612
1028.50 48.77035
1028.60 48.84458
1028.70 48.91881
1028.80 49.03494
1028.90 49.15106
1029.00 49.26718
1029.10 49.38331
1029.20 49.49943
1029.30 49.61555
1029.40 49.73168
1029.50 49.8478
1029.60 49.96392
1029.70 50.08005
1029.80 50.19617
1029.90 50.31229
1030.00 50.42634
1030.10 50.53831
1030.20 50.65027
1030.30 50.76224
1030.40 50.87421
1030.50 50.98618
1030.60 51.09814
1030.70 51.21011
1030.80 51.32208
1030.90 51.43405
1031.00 51.54602
1031.10 51.65798
1031.20 51.77128
1031.30 51.89658
1031.40 52.02188
1031.50 52.14718
1031.60 52.27248
1031.70 52.39778
1031.80 52.52308
1031.90 52.64838
1032.00 52.77368
1032.10 52.89898
1032.20 53.02428
1032.30 53.14958
1032.40 53.27488
1032.50 53.34409
1032.60 53.37592
1032.70 53.40774
1032.80 53.43956
1032.90 53.47139
1033.00 53.50321
1033.10 53.53503
1033.20 53.56686
1033.30 53.59868
1033.40 53.6305
1033.50 53.66233
1033.60 53.69415
1033.70 53.73949
1033.80 53.90645
1033.90 54.07341
1034.00 54.24037
1034.10 54.40733
1034.20 54.57429
1034.30 54.74125
1034.40 54.90822
1034.50 55.07518
1034.60 55.24214
1034.70 55.4091
1034.80 55.57606
1034.90 55.74302
1035.00 55.87377
1035.10 55.98899
1035.20 56.10422
1035.30 56.21944
1035.40 56.33467
1035.50 56.4499
1035.60 56.56512
1035.70 56.68035
1035.80 56.79557
1035.90 56.9108
1036.00 57.02602
1036.10 57.14125
1036.20 57.21174
1036.30 57.10331
1036.40 56.99488
1036.50 56.88645
1036.60 56.77801
1036.70 56.66958
1036.80 56.56115
1036.90 56.45272
1037.00 56.34429
1037.10 56.23586
1037.20 56.12742
1037.30 56.01899
1037.40 55.91056
1037.50 55.8145
1037.60 55.72153
1037.70 55.62855
1037.80 55.53558
1037.90 55.44261
1038.00 55.34964
1038.10 55.25667
1038.20 55.1637
1038.30 55.07073
1038.40 54.97775
1038.50 54.88478
1038.60 54.79181
1038.70 54.74782
1038.80 54.81812
1038.90 54.88842
1039.00 54.95871
1039.10 55.02901
1039.20 55.09931
1039.30 55.16961
1039.40 55.23991
1039.50 55.3102
1039.60 55.3805
1039.70 55.4508
1039.80 55.5211
1039.90 55.5914
1040.00 55.61989
1040.10 55.64375
1040.20 55.6676
1040.30 55.69145
1040.40 55.71531
1040.50 55.73916
1040.60 55.76301
1040.70 55.78687
1040.80 55.81072
1040.90 55.83457
1041.00 55.85843
1041.10 55.88228
1041.20 55.94429
1041.30 56.06353
1041.40 56.18276
1041.50 56.302
1041.60 56.42124
1041.70 56.54048
1041.80 56.65972
1041.90 56.77895
1042.00 56.89819
1042.10 57.01743
1042.20 57.13667
1042.30 57.25591
1042.40 57.37515
1042.50 57.67393
1042.60 57.99266
1042.70 58.31139
1042.80 58.63012
1042.90 58.94886
1043.00 59.26759
1043.10 59.58632
1043.20 59.90505
1043.30 60.22378
1043.40 60.54251
1043.50 60.86125
1043.60 61.17998
1043.70 61.43251
1043.80 61.61885
1043.90 61.80518
1044.00 61.99152
1044.10 62.17786
1044.20 62.36419
1044.30 62.55053
1044.40 62.73686
1044.50 62.9232
1044.60 63.10954
1044.70 63.29587
1044.80 63.48221
1044.90 63.66854
1045.00 63.48764
1045.10 63.30673
1045.20 63.12582
1045.30 62.94491
1045.40 62.764
1045.50 62.5831
1045.60 62.40219
1045.70 62.22128
1045.80 62.04037
1045.90 61.85946
1046.00 61.67856
1046.10 61.49765
1046.20 61.39915
1046.30 61.3556
1046.40 61.31205
1046.50 61.26849
1046.60 61.22494
1046.70 61.18139
1046.80 61.13783
1046.90 61.09428
1047.00 61.05073
1047.10 61.00717
1047.20 60.96362
1047.30 60.92007
1047.40 60.88873
1047.50 60.96735
1047.60 61.04596
1047.70 61.12458
1047.80 61.20319
1047.90 61.28181
1048.00 61.36042
1048.10 61.43904
1048.20 61.51765
1048.30 61.59627
1048.40 61.67488
1048.50 61.7535
1048.60 61.83211
1048.70 61.80513
1048.80 61.7329
1048.90 61.66067
1049.00 61.58843
1049.10 61.5162
1049.20 61.44397
1049.30 61.37173
1049.40 61.2995
1049.50 61.22727
1049.60 61.15503
1049.70 61.0828
1049.80 61.01057
1049.90 60.93043
1050.00 60.81869
1050.10 60.70694
1050.20 60.59519
1050.30 60.48345
1050.40 60.3717
1050.50 60.25996
1050.60 60.14821
1050.70 60.03647
1050.80 59.92472
1050.90 59.81298
1051.00 59.70123
1051.10 59.58949
1051.20 59.70909
1051.30 59.92785
1051.40 60.14661
1051.50 60.36537
1051.60 60.58413
1051.70 60.80289
1051.80 61.02164
1051.90 61.2404
1052.00 61.45916
1052.10 61.67792
1052.20 61.89668
1052.30 62.11544
1052.40 62.31155
1052.50 62.45484
1052.60 62.59813
1052.70 62.74142
1052.80 62.88471
1052.90 63.02799
1053.00 63.17128
1053.10 63.31457
1053.20 63.45786
1053.30 63.60115
1053.40 63.74443
1053.50 63.88772
1053.60 64.03101
1053.70 63.93775
1053.80 63.78536
1053.90 63.63297
1054.00 63.48057
1054.10 63.32818
1054.20 63.17579
1054.30 63.0234
1054.40 62.871
1054.50 62.71861
1054.60 62.56622
1054.70 62.41383
1054.80 62.26143
1054.90 62.1163
1055.00 61.98205
1055.10 61.84779
1055.20 61.71354
1055.30 61.57929
1055.40 61.44504
1055.50 61.31079
1055.60 61.17654
1055.70 61.04228
1055.80 60.90803
1055.90 60.77378
1056.00 60.63953
1056.10 60.50528
1056.20 60.53302
1056.30 60.57876
1056.40 60.62451
1056.50 60.67025
1056.60 60.71599
1056.70 60.76174
1056.80 60.80748
1056.90 60.85322
1057.00 60.89897
1057.10 60.94471
1057.20 60.99045
1057.30 61.0362
1057.40 61.0748
1057.50 61.10626
1057.60 61.13771
1057.70 61.16917
1057.80 61.20063
1057.90 61.23209
1058.00 61.26355
1058.10 61.295
1058.20 61.32646
1058.30 61.35792
1058.40 61.38938
1058.50 61.42084
1058.60 61.4523
1058.70 61.40287
1058.80 61.35345
1058.90 61.30403
1059.00 61.25461
1059.10 61.20519
1059.20 61.15577
1059.30 61.10635
1059.40 61.05693
1059.50 61.00751
1059.60 60.95809
1059.70 60.90867
1059.80 60.85925
1059.90 60.91085
1060.00 61.02981
1060.10 61.14877
1060.20 61.26772
1060.30 61.38668
1060.40 61.50564
1060.50 61.6246
1060.60 61.74356
1060.70 61.86251
1060.80 61.98147
1060.90 62.10043
1061.00 62.21939
1061.10 62.3562
1061.20 62.65375
1061.30 62.9513
1061.40 63.24885
1061.50 63.5464
1061.60 63.84394
1061.70 64.14149
1061.80 64.43904
1061.90 64.73659
1062.00 65.03414
1062.10 65.33168
1062.20 65.62923
1062.30 65.92678
1062.40 66.12018
1062.50 66.24414
1062.60 66.3681
1062.70 66.49206
1062.80 66.61603
1062.90 66.73999
1063.00 66.86395
1063.10 66.98791
1063.20 67.11188
1063.30 67.23584
1063.40 67.3598
1063.50 67.48376
1063.60 67.54413
1063.70 67.35014
1063.80 67.15614
1063.90 66.96214
1064.00 66.76814
1064.10 66.57415
1064.20 66.38015
1064.30 66.18615
1064.40 65.99216
1064.50 65.79816
1064.60 65.60416
1064.70 65.41016
1064.80 65.21617
1064.90 65.05068
1065.00 64.89741
1065.10 64.74414
1065.20 64.59087
1065.30 64.4376
1065.40 64.28433
1065.50 64.13106
1065.60 63.97779
1065.70 63.82452
1065.80 63.67125
1065.90 63.51798
1066.00 63.36471
1066.10 63.29927
1066.20 63.43874
1066.30 63.57821
1066.40 63.71768
1066.50 63.85715
1066.60 63.99662
1066.70 64.1361
1066.80 64.27557
1066.90 64.41504
1067.00 64.55451
1067.10 64.69398
1067.20 64.83345
1067.30 64.97292
1067.40 65.1412
1067.50 65.31668
1067.60 65.49215
1067.70 65.66763
1067.80 65.8431
1067.90 66.01858
1068.00 66.19406
1068.10 66.36953
1068.20 66.54501
1068.30 66.72049
1068.40 66.89596
1068.50 67.07144
1068.60 67.19191
1068.70 67.22988
1068.80 67.26785
1068.90 67.30582
1069.00 67.34379
1069.10 67.38176
1069.20 67.41973
1069.30 67.45769
1069.40 67.49566
1069.50 67.53363
1069.60 67.5716
1069.70 67.60957
1069.80 67.64754
1069.90 67.73871
1070.00 67.8358
1070.10 67.93289
1070.20 68.02998
1070.30 68.12707
1070.40 68.22415
1070.50 68.32124
1070.60 68.41833
1070.70 68.51542
1070.80 68.6125
1070.90 68.70959
1071.00 68.80668
1071.10 68.93289
1071.20 69.08821
1071.30 69.24354
1071.40 69.39887
1071.50 69.55419
1071.60 69.70952
1071.70 69.86485
1071.80 70.02017
1071.90 70.1755
1072.00 70.33083
1072.10 70.48615
1072.20 70.64148
1072.30 70.79681
1072.40 70.87353
1072.50 70.95025
1072.60 71.02697
1072.70 71.10369
1072.80 71.18041
1072.90 71.25713
1073.00 71.33385
1073.10 71.41057
1073.20 71.48728
1073.30 71.564
1073.40 71.64072
1073.50 71.71744
1073.60 71.80085
1073.70 71.88871
1073.80 71.97658
1073.90 72.06444
1074.00 72.15231
1074.10 72.24017
1074.20 72.32804
1074.30 72.4159
1074.40 72.50376
1074.50 72.59163
1074.60 72.67949
1074.70 72.76736
1074.80 72.85124
1074.90 72.89927
1075.00 72.94731
1075.10 72.99534
1075.20 73.04338
1075.30 73.09141
1075.40 73.13945
1075.50 73.18748
1075.60 73.23551
1075.70 73.28355
1075.80 73.33158
1075.90 73.37962
1076.00 73.42765
1076.10 73.34139
1076.20 73.19757
1076.30 73.05375
1076.40 72.90993
1076.50 72.7661
1076.60 72.62228
1076.70 72.47846
1076.80 72.33464
1076.90 72.19082
1077.00 72.047
1077.10 71.90318
1077.20 71.75936
1077.30 71.60729
1077.40 71.42225
1077.50 71.2372
1077.60 71.05216
1077.70 70.86711
1077.80 70.68207
1077.90 70.49702
1078.00 70.31197
1078.10 70.12693
1078.20 69.94188
1078.30 69.75684
1078.40 69.57179
1078.50 69.38675
1078.60 69.33001
1078.70 69.32825
1078.80 69.3265
1078.90 69.32475
1079.00 69.32299
1079.10 69.32124
1079.20 69.31948
1079.30 69.31773
1079.40 69.31598
1079.50 69.31422
1079.60 69.31247
1079.70 69.31071
1079.80 69.38204
1079.90 69.62388
1080.00 69.86573
1080.10 70.10757
1080.20 70.34942
1080.30 70.59126
1080.40 70.8331
1080.50 71.07495
1080.60 71.31679
1080.70 71.55864
1080.80 71.80048
1080.90 72.04232
1081.00 72.28417
1081.10 72.54348
1081.20 72.80716
1081.30 73.07084
1081.40 73.33453
1081.50 73.59821
1081.60 73.86189
1081.70 74.12557
1081.80 74.38925
1081.90 74.65293
1082.00 74.91661
1082.10 75.1803
1082.20 75.44398
1082.30 75.61493
1082.40 75.64678
1082.50 75.67863
1082.60 75.71048
1082.70 75.74233
1082.80 75.77418
1082.90 75.80603
1083.00 75.83788
1083.10 75.86974
1083.20 75.90159
1083.30 75.93344
1083.40 75.96529
1083.50 75.99714
1083.60 75.99615
1083.70 75.99151
1083.80 75.98687
1083.90 75.98223
1084.00 75.97759
1084.10 75.97295
1084.20 75.96831
1084.30 75.96367
1084.40 75.95903
1084.50 75.95439
1084.60 75.94976
1084.70 75.94512
1084.80 76.01474
1084.90 76.15861
1085.00 76.30249
1085.10 76.44637
1085.20 76.59024
1085.30 76.73412
1085.40 76.878
1085.50 77.02188
1085.60 77.16575
1085.70 77.30963
1085.80 77.45351
1085.90 77.59738
1086.00 77.74126
1086.10 77.83501
1086.20 77.92876
1086.30 78.02251
1086.40 78.11626
1086.50 78.21001
1086.60 78.30376
1086.70 78.39751
1086.80 78.49126
1086.90 78.58501
1087.00 78.67876
1087.10 78.77251
1087.20 78.86626
1087.30 78.92814
1087.40 78.96877
1087.50 79.00941
1087.60 79.05004
1087.70 79.09068
1087.80 79.13131
1087.90 79.17195
1088.00 79.21258
1088.10 79.25322
1088.20 79.29385
1088.30 79.33448
1088.40 79.37512
1088.50 79.41874
1088.60 79.48924
1088.70 79.55973
1088.80 79.63023
1088.90 79.70072
1089.00 79.77122
1089.10 79.84172
1089.20 79.91221
1089.30 79.98271
1089.40 80.05321
1089.50 80.1237
1089.60 80.1942
1089.70 80.26469
1089.80 80.30826
1089.90 80.34028
1090.00 80.3723
1090.10 80.40431
1090.20 80.43633
1090.30 80.46835
1090.40 80.50037
1090.50 80.53239
1090.60 80.56441
1090.70 80.59643
1090.80 80.62845
1090.90 80.66047
1091.00 80.68036
1091.10 80.65173
1091.20 80.6231
1091.30 80.59448
1091.40 80.56585
1091.50 80.53722
1091.60 80.50859
1091.70 80.47996
1091.80 80.45133
1091.90 80.4227
1092.00 80.39408
1092.10 80.36545
1092.20 80.33682
1092.30 80.26392
1092.40 80.17996
1092.50 80.096
1092.60 80.01203
1092.70 79.92807
1092.80 79.84411
1092.90 79.76014
1093.00 79.67618
1093.10 79.59222
1093.20 79.50825
1093.30 79.42429
1093.40 79.34032
1093.50 79.28742
1093.60 79.307
1093.70 79.32658
1093.80 79.34615
1093.90 79.36573
1094.00 79.3853
1094.10 79.40488
1094.20 79.42445
1094.30 79.44403
1094.40 79.46361
1094.50 79.48318
1094.60 79.50276
1094.70 79.52233
1094.80 79.61436
1094.90 79.71443
1095.00 79.8145
1095.10 79.91457
1095.20 80.01464
1095.30 80.11471
1095.40 80.21479
1095.50 80.31486
1095.60 80.41493
1095.70 80.515
1095.80 80.61507
1095.90 80.71514
1096.00 80.752
1096.10 80.69404
1096.20 80.63607
1096.30 80.57811
1096.40 80.52014
1096.50 80.46218
1096.60 80.40421
1096.70 80.34625
1096.80 80.28829
1096.90 80.23032
1097.00 80.17236
1097.10 80.11439
1097.20 80.05643
1097.30 79.92187
1097.40 79.78731
1097.50 79.65275
1097.60 79.51819
1097.70 79.38363
1097.80 79.24907
1097.90 79.11451
1098.00 78.97995
1098.10 78.84539
1098.20 78.71083
1098.30 78.57627
1098.40 78.44171
1098.50 78.36923
1098.60 78.35885
1098.70 78.34847
1098.80 78.33809
1098.90 78.32771
1099.00 78.31732
1099.10 78.30694
1099.20 78.29656
1099.30 78.28618
1099.40 78.2758
1099.50 78.26541
1099.60 78.25503
1099.70 78.24825
1099.80 78.2739
1099.90 78.29955
1100.00 78.3252
1100.10 78.35085
1100.20 78.3765
1100.30 78.40215
1100.40 78.4278
1100.50 78.45345
1100.60 78.4791
1100.70 78.50475
1100.80 78.53039
1100.90 78.55604
1101.00 78.56545
1101.10 78.56404
1101.20 78.56263
1101.30 78.56121
1101.40 78.5598
1101.50 78.55838
1101.60 78.55697
1101.70 78.55555
1101.80 78.55414
1101.90 78.55272
1102.00 78.55131
1102.10 78.5499
1102.20 78.523
1102.30 78.3942
1102.40 78.26539
1102.50 78.13658
1102.60 78.00777
1102.70 77.87897
1102.80 77.75016
1102.90 77.62135
1103.00 77.49254
1103.10 77.36373
1103.20 77.23493
1103.30 77.10612
1103.40 76.97731
1103.50 76.84782
1103.60 76.71803
1103.70 76.58824
1103.80 76.45845
1103.90 76.32866
1104.00 76.19887
1104.10 76.06908
1104.20 75.93929
1104.30 75.8095
1104.40 75.67971
1104.50 75.54992
1104.60 75.42013
1104.70 75.28273
1104.80 75.12757
1104.90 74.97241
1105.00 74.81725
1105.10 74.6621
1105.20 74.50694
1105.30 74.35178
1105.40 74.19662
1105.50 74.04146
1105.60 73.8863
1105.70 73.73115
1105.80 73.57599
1105.90 73.42083
1106.00 73.38545
1106.10 73.38002
1106.20 73.37459
1106.30 73.36916
1106.40 73.36373
1106.50 73.35829
1106.60 73.35286
1106.70 73.34743
1106.80 73.342
1106.90 73.33657
1107.00 73.33114
1107.10 73.32571
1107.20 73.40185
1107.30 73.60037
1107.40 73.79888
1107.50 73.9974
1107.60 74.19591
1107.70 74.39443
1107.80 74.59294
1107.90 74.79146
1108.00 74.98997
1108.10 75.18849
1108.20 75.387
1108.30 75.58552
1108.40 75.78403
1108.50 75.7771
1108.60 75.74734
1108.70 75.71758
1108.80 75.68782
1108.90 75.65806
1109.00 75.6283
1109.10 75.59854
1109.20 75.56878
1109.30 75.53902
1109.40 75.50926
1109.50 75.4795
1109.60 75.44974
1109.70 75.31912
1109.80 75.08763
1109.90 74.85614
1110.00 74.62465
1110.10 74.39316
1110.20 74.16167
1110.30 73.93019
1110.40 73.6987
1110.50 73.46721
1110.60 73.23572
1110.70 73.00423
1110.80 72.77274
1110.90 72.54125
1111.00 72.53234
1111.10 72.52343
1111.20 72.51452
1111.30 72.50561
1111.40 72.4967
1111.50 72.48779
1111.60 72.47888
1111.70 72.46996
1111.80 72.46105
1111.90 72.45214
1112.00 72.44323
1112.10 72.43432
1112.20 72.56574
1112.30 72.79072
1112.40 73.0157
1112.50 73.24068
1112.60 73.46566
1112.70 73.69063
1112.80 73.91561
1112.90 74.14059
1113.00 74.36557
1113.10 74.59055
1113.20 74.81553
1113.30 75.0405
1113.40 75.2589
1113.50 75.41805
1113.60 75.57721
1113.70 75.73636
1113.80 75.89551
1113.90 76.05467
1114.00 76.21382
1114.10 76.37298
1114.20 76.53213
1114.30 76.69128
1114.40 76.85044
1114.50 77.00959
1114.60 77.16874
1114.70 77.12212
1114.80 76.98731
1114.90 76.85249
1115.00 76.71768
1115.10 76.58287
1115.20 76.44806
1115.30 76.31324
1115.40 76.17843
1115.50 76.04362
1115.60 75.9088
1115.70 75.77399
1115.80 75.63918
1115.90 75.50303
1116.00 75.36153
1116.10 75.22002
1116.20 75.07852
1116.30 74.93702
1116.40 74.79552
1116.50 74.65402
1116.60 74.51252
1116.70 74.37102
1116.80 74.22951
1116.90 74.08801
1117.00 73.94651
1117.10 73.80501
1117.20 73.8613
1117.30 73.96704
1117.40 74.07278
1117.50 74.17852
1117.60 74.28426
1117.70 74.39
1117.80 74.49574
1117.90 74.60148
1118.00 74.70722
1118.10 74.81296
1118.20 74.9187
1118.30 75.02444
1118.40 75.14517
1118.50 75.30087
1118.60 75.45658
1118.70 75.61228
1118.80 75.76798
1118.90 75.92368
1119.00 76.07939
1119.10 76.23509
1119.20 76.39079
1119.30 76.54649
1119.40 76.7022
1119.50 76.8579
1119.60 77.0136
1119.70 77.05165
1119.80 77.07663
1119.90 77.1016
1120.00 77.12658
1120.10 77.15155
1120.20 77.17653
1120.30 77.2015
1120.40 77.22648
1120.50 77.25146
1120.60 77.27643
1120.70 77.30141
1120.80 77.32638
1120.90 77.3235
1121.00 77.27883
1121.10 77.23416
1121.20 77.1895
1121.30 77.14483
1121.40 77.10016
1121.50 77.05549
1121.60 77.01082
1121.70 76.96616
1121.80 76.92149
1121.90 76.87682
1122.00 76.83215
1122.10 76.78748
1122.20 76.86625
1122.30 76.94503
1122.40 77.0238
1122.50 77.10257
1122.60 77.18134
1122.70 77.26011
1122.80 77.33889
1122.90 77.41766
1123.00 77.49643
1123.10 77.5752
1123.20 77.65397
1123.30 77.73274
1123.40 77.83974
1123.50 77.97496
1123.60 78.11018
1123.70 78.2454
1123.80 78.38063
1123.90 78.51585
1124.00 78.65107
1124.10 78.78629
1124.20 78.92151
1124.30 79.05673
1124.40 79.19195
1124.50 79.32717
1124.60 79.46236
1124.70 79.59726
1124.80 79.73216
1124.90 79.86706
1125.00 80.00195
1125.10 80.13685
1125.20 80.27175
1125.30 80.40664
1125.40 80.54154
1125.50 80.67644
1125.60 80.81134
1125.70 80.94623
1125.80 81.08113
1125.90 81.11839
1126.00 81.09055
1126.10 81.06271
1126.20 81.03488
1126.30 81.00704
1126.40 80.9792
1126.50 80.95137
1126.60 80.92353
1126.70 80.8957
1126.80 80.86786
1126.90 80.84002
1127.00 80.81219
1127.10 80.77384
1127.20 80.69344
1127.30 80.61304
1127.40 80.53264
1127.50 80.45224
1127.60 80.37184
1127.70 80.29144
1127.80 80.21104
1127.90 80.13064
1128.00 80.05024
1128.10 79.96984
1128.20 79.88944
1128.30 79.80904
1128.40 79.81088
1128.50 79.84797
1128.60 79.88506
1128.70 79.92215
1128.80 79.95923
1128.90 79.99632
1129.00 80.03341
1129.10 80.07049
1129.20 80.10758
1129.30 80.14467
1129.40 80.18175
1129.50 80.21884
1129.60 80.22896
1129.70 80.17614
1129.80 80.12333
1129.90 80.07051
1130.00 80.0177
1130.10 79.96489
1130.20 79.91207
1130.30 79.85926
1130.40 79.80645
1130.50 79.75363
1130.60 79.70082
1130.70 79.648
1130.80 79.59519
1130.90 79.42707
1131.00 79.23012
1131.10 79.03317
1131.20 78.83623
1131.30 78.63928
1131.40 78.44233
1131.50 78.24538
1131.60 78.04843
1131.70 77.85149
1131.80 77.65454
1131.90 77.45759
1132.00 77.26064
1132.10 77.00195
1132.20 76.65063
1132.30 76.29932
1132.40 75.948
1132.50 75.59668
1132.60 75.24537
1132.70 74.89405
1132.80 74.54273
1132.90 74.19142
1133.00 73.8401
1133.10 73.48878
1133.20 73.13747
1133.30 72.78615
1133.40 72.58029
1133.50 72.39058
1133.60 72.20087
1133.70 72.01117
1133.80 71.82146
1133.90 71.63176
1134.00 71.44205
1134.10 71.25234
1134.20 71.06264
1134.30 70.87293
1134.40 70.68323
1134.50 70.49352
1134.60 70.44361
1134.70 70.5335
1134.80 70.62338
1134.90 70.71327
1135.00 70.80315
1135.10 70.89303
1135.20 70.98292
1135.30 71.0728
1135.40 71.16269
1135.50 71.25257
1135.60 71.34246
1135.70 71.43234
1135.80 71.52223
1135.90 71.29487
1136.00 71.06751
1136.10 70.84015
1136.20 70.61279
1136.30 70.38544
1136.40 70.15808
1136.50 69.93072
1136.60 69.70336
1136.70 69.476
1136.80 69.24864
1136.90 69.02128
1137.00 68.79393
1137.10 68.50135
1137.20 68.1653
1137.30 67.82925
1137.40 67.4932
1137.50 67.15715
1137.60 66.8211
1137.70 66.48505
1137.80 66.149
1137.90 65.81295
1138.00 65.4769
1138.10 65.14085
1138.20 64.8048
1138.30 64.48461
1138.40 64.30712
1138.50 64.12964
1138.60 63.95215
1138.70 63.77467
1138.80 63.59718
1138.90 63.4197
1139.00 63.24221
1139.10 63.06473
1139.20 62.88724
1139.30 62.70976
1139.40 62.53227
1139.50 62.35479
1139.60 62.43986
1139.70 62.63746
1139.80 62.83506
1139.90 63.03266
1140.00 63.23025
1140.10 63.42785
1140.20 63.62545
1140.30 63.82305
1140.40 64.02065
1140.50 64.21825
1140.60 64.41584
1140.70 64.61344
1140.80 64.90413
1140.90 65.412
1141.00 65.91988
1141.10 66.42776
1141.20 66.93564
1141.30 67.44351
1141.40 67.95139
1141.50 68.45927
1141.60 68.96715
1141.70 69.47503
1141.80 69.9829
1141.90 70.49078
1142.00 70.99866
1142.10 71.28061
1142.20 71.50607
1142.30 71.73153
1142.40 71.95699
1142.50 72.18246
1142.60 72.40792
1142.70 72.63338
1142.80 72.85885
1142.90 73.08431
1143.00 73.30977
1143.10 73.53524
1143.20 73.7607
1143.30 73.93779
1143.40 74.04232
1143.50 74.14686
1143.60 74.25139
1143.70 74.35592
1143.80 74.46046
1143.90 74.56499
1144.00 74.66952
1144.10 74.77406
1144.20 74.87859
1144.30 74.98312
1144.40 75.08766
1144.50 75.19219
1144.60 75.37228
1144.70 75.56077
1144.80 75.74926
1144.90 75.93775
1145.00 76.12624
1145.10 76.31473
1145.20 76.50322
1145.30 76.69171
1145.40 76.8802
1145.50 77.06869
1145.60 77.25718
1145.70 77.44567
1145.80 77.68167
1145.90 77.96519
1146.00 78.2487
1146.10 78.53222
1146.20 78.81574
1146.30 79.09926
1146.40 79.38277
1146.50 79.66629
1146.60 79.94981
1146.70 80.23332
1146.80 80.51684
1146.90 80.80036
1147.00 81.08387
1147.10 81.38133
1147.20 81.67879
1147.30 81.97625
1147.40 82.27371
1147.50 82.57117
1147.60 82.86862
1147.70 83.16608
1147.80 83.46354
1147.90 83.761
1148.00 84.05846
1148.10 84.35592
1148.20 84.65338
1148.30 84.85685
1148.40 84.99767
1148.50 85.13849
1148.60 85.27931
1148.70 85.42012
1148.80 85.56094
1148.90 85.70176
1149.00 85.84258
1149.10 85.9834
1149.20 86.12422
1149.30 86.26503
1149.40 86.40585
1149.50 86.5352
1149.60 86.56128
1149.70 86.58736
1149.80 86.61344
1149.90 86.63953
1150.00 86.66561
1150.10 86.69169
1150.20 86.71777
1150.30 86.74386
1150.40 86.76994
1150.50 86.79602
1150.60 86.8221
1150.70 86.84819
1150.80 86.74775
1150.90 86.5931
1151.00 86.43845
1151.10 86.28379
1151.20 86.12914
1151.30 85.97449
1151.40 85.81983
1151.50 85.66518
1151.60 85.51053
1151.70 85.35587
1151.80 85.20122
1151.90 85.04657
1152.00 84.89635
1152.10 84.76387
1152.20 84.63139
1152.30 84.49892
1152.40 84.36644
1152.50 84.23396
1152.60 84.10149
1152.70 83.96901
1152.80 83.83653
1152.90 83.70405
1153.00 83.57158
1153.10 83.4391
1153.20 83.30662
1153.30 83.30451
1153.40 83.33498
1153.50 83.36546
1153.60 83.39594
1153.70 83.42641
1153.80 83.45689
1153.90 83.48736
1154.00 83.51784
1154.10 83.54832
1154.20 83.57879
1154.30 83.60927
1154.40 83.63974
1154.50 83.70058
1154.60 83.83227
1154.70 83.96395
1154.80 84.09564
1154.90 84.22732
1155.00 84.35901
1155.10 84.49069
1155.20 84.62238
1155.30 84.75406
1155.40 84.88575
1155.50 85.01743
1155.60 85.14912
1155.70 85.2808
1155.80 85.29252
1155.90 85.29091
1156.00 85.2893
1156.10 85.28768
1156.20 85.28607
1156.30 85.28446
1156.40 85.28285
1156.50 85.28123
1156.60 85.27962
1156.70 85.27801
1156.80 85.2764
1156.90 85.27479
1157.00 85.1901
1157.10 85.02234
1157.20 84.85458
1157.30 84.68682
1157.40 84.51907
1157.50 84.35131
1157.60 84.18355
1157.70 84.01579
1157.80 83.84803
1157.90 83.68027
1158.00 83.51251
1158.10 83.34476
1158.20 83.177
1158.30 83.05697
1158.40 82.93694
1158.50 82.81691
1158.60 82.69688
1158.70 82.57685
1158.80 82.45682
1158.90 82.33679
1159.00 82.21676
1159.10 82.09673
1159.20 81.9767
1159.30 81.85667
1159.40 81.73664
1159.50 81.77236
1159.60 81.91191
1159.70 82.05147
1159.80 82.19102
1159.90 82.33058
1160.00 82.47014
1160.10 82.60969
1160.20 82.74925
1160.30 82.8888
1160.40 83.02836
1160.50 83.16791
1160.60 83.30747
1160.70 83.44941
1160.80 83.61284
1160.90 83.77626
1161.00 83.93969
1161.10 84.10311
1161.20 84.26654
1161.30 84.42996
1161.40 84.59339
1161.50 84.75681
1161.60 84.92024
1161.70 85.08366
1161.80 85.24709
1161.90 85.41052
1162.00 85.45506
1162.10 85.44867
1162.20 85.44227
1162.30 85.43587
1162.40 85.42947
1162.50 85.42307
1162.60 85.41667
1162.70 85.41028
1162.80 85.40388
1162.90 85.39748
1163.00 85.39108
1163.10 85.38468
1163.20 85.34962
1163.30 85.19988
1163.40 85.05015
1163.50 84.90042
1163.60 84.75068
1163.70 84.60095
1163.80 84.45122
1163.90 84.30148
1164.00 84.15175
1164.10 84.00202
1164.20 83.85228
1164.30 83.70255
1164.40 83.55282
1164.50 83.34495
1164.60 83.12256
1164.70 82.90016
1164.80 82.67776
1164.90 82.45537
1165.00 82.23297
1165.10 82.01057
1165.20 81.78818
1165.30 81.56578
1165.40 81.34338
1165.50 81.12099
1165.60 80.89859
1165.70 80.62994
1165.80 80.25336
1165.90 79.87677
1166.00 79.50019
1166.10 79.12361
1166.20 78.74702
1166.30 78.37044
1166.40 77.99386
1166.50 77.61728
1166.60 77.24069
1166.70 76.86411
1166.80 76.48753
1166.90 76.11095
1167.00 75.41489
1167.10 74.68334
1167.20 73.95179
1167.30 73.22023
1167.40 72.48868
1167.50 71.75713
1167.60 71.02557
1167.70 70.29402
1167.80 69.56247
1167.90 68.83092
1168.00 68.09936
1168.10 67.36781
1168.20 66.85553
1168.30 66.56253
1168.40 66.26953
1168.50 65.97653
1168.60 65.68353
1168.70 65.39052
1168.80 65.09752
1168.90 64.80452
1169.00 64.51152
1169.10 64.21852
1169.20 63.92551
1169.30 63.63251
1169.40 63.33951
1169.50 63.9428
1169.60 64.54609
1169.70 65.14938
1169.80 65.75267
1169.90 66.35596
1170.00 66.95925
1170.10 67.56254
1170.20 68.16583
1170.30 68.76912
1170.40 69.37241
1170.50 69.9757
1170.60 70.57899
1170.70 71.12941
1170.80 71.64459
1170.90 72.15976
1171.00 72.67494
1171.10 73.19011
1171.20 73.70529
1171.30 74.22046
1171.40 74.73563
1171.50 75.25081
1171.60 75.76598
1171.70 76.28116
1171.80 76.79633
1171.90 77.2775
1172.00 77.45261
1172.10 77.62772
1172.20 77.80282
1172.30 77.97793
1172.40 78.15304
1172.50 78.32815
1172.60 78.50326
1172.70 78.67837
1172.80 78.85348
1172.90 79.02858
1173.00 79.20369
1173.10 79.3788
1173.20 79.38374
1173.30 79.31574
1173.40 79.24775
1173.50 79.17975
1173.60 79.11175
1173.70 79.04376
1173.80 78.97576
1173.90 78.90777
1174.00 78.83977
1174.10 78.77178
1174.20 78.70378
1174.30 78.63578
1174.40 78.44297
1174.50 77.75091
1174.60 77.05885
1174.70 76.36679
1174.80 75.67473
1174.90 74.98267
1175.00 74.29061
1175.10 73.59855
1175.20 72.90649
1175.30 72.21442
1175.40 71.52236
1175.50 70.8303
1175.60 70.13824
1175.70 69.2709
1175.80 68.35974
1175.90 67.44858
1176.00 66.53742
1176.10 65.62626
1176.20 64.7151
1176.30 63.80395
1176.40 62.89279
1176.50 61.98163
1176.60 61.07047
1176.70 60.15931
1176.80 59.24815
1176.90 58.73922
1177.00 58.83362
1177.10 58.92802
1177.20 59.02242
1177.30 59.11683
1177.40 59.21123
1177.50 59.30563
1177.60 59.40003
1177.70 59.49444
1177.80 59.58884
1177.90 59.68324
1178.00 59.77765
1178.10 59.87205
1178.20 60.69112
1178.30 61.59071
1178.40 62.4903
1178.50 63.38989
1178.60 64.28947
1178.70 65.18906
1178.80 66.08865
1178.90 66.98824
1179.00 67.88783
1179.10 68.78742
1179.20 69.68701
1179.30 70.5866
1179.40 71.35666
1179.50 71.99719
1179.60 72.63772
1179.70 73.27825
1179.80 73.91878
1179.90 74.55931
1180.00 75.19984
1180.10 75.84037
1180.20 76.4809
1180.30 77.12143
1180.40 77.76196
1180.50 78.40249
1180.60 79.04302
1180.70 79.35332
1180.80 79.66362
1180.90 79.97392
1181.00 80.28422
1181.10 80.59453
1181.20 80.90483
1181.30 81.21513
1181.40 81.52543
1181.50 81.83573
1181.60 82.14603
1181.70 82.45634
1181.80 82.76664
1181.90 82.97515
1182.00 83.1158
1182.10 83.25645
1182.20 83.3971
1182.30 83.53775
1182.40 83.6784
1182.50 83.81905
1182.60 83.9597
1182.70 84.10035
1182.80 84.241
1182.90 84.38165
1183.00 84.5223
1183.10 84.64982
1183.20 84.65921
1183.30 84.66861
1183.40 84.678
1183.50 84.68739
1183.60 84.69678
1183.70 84.70617
1183.80 84.71557
1183.90 84.72496
1184.00 84.73435
1184.10 84.74374
1184.20 84.75313
1184.30 84.76253
1184.40 84.77728
1184.50 84.79434
1184.60 84.8114
1184.70 84.82846
1184.80 84.84552
1184.90 84.86258
1185.00 84.87963
1185.10 84.89669
1185.20 84.91375
1185.30 84.93081
1185.40 84.94787
1185.50 84.96492
1185.60 84.96539
1185.70 84.92714
1185.80 84.88889
1185.90 84.85064
1186.00 84.81239
1186.10 84.77414
1186.20 84.73589
1186.30 84.69764
1186.40 84.6594
1186.50 84.62115
1186.60 84.5829
1186.70 84.54465
1186.80 84.5064
1186.90 84.4913
1187.00 84.482
1187.10 84.47269
1187.20 84.46338
1187.30 84.45407
1187.40 84.44477
1187.50 84.43546
1187.60 84.42615
1187.70 84.41685
1187.80 84.40754
1187.90 84.39823
1188.00 84.38892
1188.10 84.3913
1188.20 84.4112
1188.30 84.43109
1188.40 84.45099
1188.50 84.47088
1188.60 84.49078
1188.70 84.51068
1188.80 84.53057
1188.90 84.55047
1189.00 84.57037
1189.10 84.59026
1189.20 84.61016
1189.30 84.63006
1189.40 84.62095
1189.50 84.60861
1189.60 84.59628
1189.70 84.58394
1189.80 84.57161
1189.90 84.55928
1190.00 84.54694
1190.10 84.53461
1190.20 84.52227
1190.30 84.50994
1190.40 84.49761
1190.50 84.48527
1190.60 84.45775
1190.70 84.41504
1190.80 84.37233
1190.90 84.32961
1191.00 84.2869
1191.10 84.24419
1191.20 84.20148
1191.30 84.15877
1191.40 84.11606
1191.50 84.07335
1191.60 84.03063
1191.70 83.98792
1191.80 83.94521
1191.90 83.78623
1192.00 83.62724
1192.10 83.46826
1192.20 83.30928
1192.30 83.15029
1192.40 82.99131
1192.50 82.83232
1192.60 82.67334
1192.70 82.51436
1192.80 82.35537
1192.90 82.19639
1193.00 82.0374
1193.10 81.80146
1193.20 81.51422
1193.30 81.22697
1193.40 80.93972
1193.50 80.65248
1193.60 80.36523
1193.70 80.07799
1193.80 79.79074
1193.90 79.50349
1194.00 79.21625
1194.10 78.929
1194.20 78.64176
1194.30 78.36613
1194.40 78.137
1194.50 77.90787
1194.60 77.67874
1194.70 77.44961
1194.80 77.22047
1194.90 76.99134
1195.00 76.76221
1195.10 76.53308
1195.20 76.30395
1195.30 76.07482
1195.40 75.84569
1195.50 75.61655
1195.60 75.38441
1195.70 75.15097
1195.80 74.91753
1195.90 74.68408
1196.00 74.45064
1196.10 74.2172
1196.20 73.98376
1196.30 73.75032
1196.40 73.51688
1196.50 73.28344
1196.60 73.05
1196.70 72.81656
1196.80 72.61004
1196.90 72.46633
1197.00 72.32262
1197.10 72.17891
1197.20 72.0352
1197.30 71.8915
1197.40 71.74779
1197.50 71.60408
1197.60 71.46037
1197.70 71.31666
1197.80 71.17295
1197.90 71.02924
1198.00 70.88553
1198.10 70.83412
1198.20 70.80577
1198.30 70.77742
1198.40 70.74908
1198.50 70.72073
1198.60 70.69239
1198.70 70.66404
1198.80 70.6357
1198.90 70.60735
1199.00 70.57901
1199.10 70.55066
1199.20 70.52231
1199.30 70.50146
1199.40 70.49184
1199.50 70.48222
1199.60 70.4726
1199.70 70.46299
1199.80 70.45337
1199.90 70.44375
1200.00 70.43413
1200.10 70.42451
1200.20 70.4149
1200.30 70.40528
1200.40 70.39566
1200.50 70.38604
1200.60 70.4223
1200.70 70.45855
1200.80 70.49481
1200.90 70.53107
1201.00 70.56733
1201.10 70.60358
1201.20 70.63984
1201.30 70.6761
1201.40 70.71235
1201.50 70.74861
1201.60 70.78487
1201.70 70.82112
1201.80 70.93548
1201.90 71.12793
1202.00 71.32038
1202.10 71.51283
1202.20 71.70528
1202.30 71.89773
1202.40 72.09018
1202.50 72.28263
1202.60 72.47508
1202.70 72.66753
1202.80 72.85998
1202.90 73.05243
1203.00 73.25327
1203.10 73.52963
1203.20 73.80599
1203.30 74.08235
1203.40 74.35871
1203.50 74.63507
1203.60 74.91143
1203.70 75.18779
1203.80 75.46415
1203.90 75.74052
1204.00 76.01688
1204.10 76.29324
1204.20 76.5696
1204.30 76.84842
1204.40 77.12887
1204.50 77.40933
1204.60 77.68979
1204.70 77.97024
1204.80 78.2507
1204.90 78.53116
1205.00 78.81161
1205.10 79.09207
1205.20 79.37253
1205.30 79.65298
1205.40 79.93344
1205.50 80.20272
1205.60 80.42731
1205.70 80.6519
1205.80 80.87648
1205.90 81.10107
1206.00 81.32565
1206.10 81.55024
1206.20 81.77483
1206.30 81.99941
1206.40 82.224
1206.50 82.44858
1206.60 82.67317
1206.70 82.89776
1206.80 83.00109
1206.90 83.07411
1207.00 83.14713
1207.10 83.22015
1207.20 83.29317
1207.30 83.36618
1207.40 83.4392
1207.50 83.51222
1207.60 83.58524
1207.70 83.65826
1207.80 83.73128
1207.90 83.8043
1208.00 83.80481
1208.10 83.63616
1208.20 83.4675
1208.30 83.29884
1208.40 83.13018
1208.50 82.96152
1208.60 82.79286
1208.70 82.6242
1208.80 82.45554
1208.90 82.28688
1209.00 82.11823
1209.10 81.94957
1209.20 81.78091
1209.30 81.54146
1209.40 81.29414
1209.50 81.04683
1209.60 80.79951
1209.70 80.55219
1209.80 80.30488
1209.90 80.05756
1210.00 79.81025
1210.10 79.56293
1210.20 79.31561
1210.30 79.0683
1210.40 78.82098
1210.50 78.66369
1210.60 78.64142
1210.70 78.61916
1210.80 78.5969
1210.90 78.57463
1211.00 78.55237
1211.10 78.5301
1211.20 78.50784
1211.30 78.48558
1211.40 78.46331
1211.50 78.44105
1211.60 78.41879
1211.70 78.39652
1211.80 78.63927
1211.90 78.88202
1212.00 79.12477
1212.10 79.36751
1212.20 79.61026
1212.30 79.85301
1212.40 80.09576
1212.50 80.33851
1212.60 80.58125
1212.70 80.824
1212.80 81.06675
1212.90 81.3095
1213.00 81.58842
1213.10 81.89147
1213.20 82.19452
1213.30 82.49757
1213.40 82.80062
1213.50 83.10367
1213.60 83.40672
1213.70 83.70976
1213.80 84.01281
1213.90 84.31586
1214.00 84.61891
1214.10 84.92196
1214.20 85.20569
1214.30 85.31556
1214.40 85.42544
1214.50 85.53531
1214.60 85.64519
1214.70 85.75506
1214.80 85.86494
1214.90 85.97481
1215.00 86.08468
1215.10 86.19456
1215.20 86.30443
1215.30 86.41431
1215.40 86.52418
1215.50 86.62016
1215.60 86.71019
1215.70 86.80021
1215.80 86.89024
1215.90 86.98026
1216.00 87.07029
1216.10 87.16031
1216.20 87.25034
1216.30 87.34036
1216.40 87.43039
1216.50 87.52041
1216.60 87.61044
1216.70 87.71054
1216.80 87.85093
1216.90 87.99133
1217.00 88.13173
1217.10 88.27213
1217.20 88.41253
1217.30 88.55292
1217.40 88.69332
1217.50 88.83372
1217.60 88.97412
1217.70 89.11452
1217.80 89.25491
1217.90 89.39531
1218.00 89.40404
1218.10 89.37986
1218.20 89.35567
1218.30 89.33148
1218.40 89.30729
1218.50 89.28311
1218.60 89.25892
1218.70 89.23473
1218.80 89.21055
1218.90 89.18636
1219.00 89.16217
1219.10 89.13799
1219.20 89.0701
1219.30 88.93666
1219.40 88.80322
1219.50 88.66978
1219.60 88.53635
1219.70 88.40291
1219.80 88.26947
1219.90 88.13603
1220.00 88.00259
1220.10 87.86916
1220.20 87.73572
1220.30 87.60228
1220.40 87.46884
1220.50 87.42683
1220.60 87.39498
1220.70 87.36312
1220.80 87.33127
1220.90 87.29942
1221.00 87.26756
1221.10 87.23571
1221.20 87.20386
1221.30 87.172
1221.40 87.14015
1221.50 87.1083
1221.60 87.07644
1221.70 87.18833
1221.80 87.44395
1221.90 87.69957
1222.00 87.9552
1222.10 88.21082
1222.20 88.46644
1222.30 88.72206
1222.40 88.97769
1222.50 89.23331
1222.60 89.48893
1222.70 89.74456
1222.80 90.00018
1222.90 90.2558
1223.00 90.56531
1223.10 90.87482
1223.20 91.18433
1223.30 91.49384
1223.40 91.80335
1223.50 92.11286
1223.60 92.42237
1223.70 92.73188
1223.80 93.04139
1223.90 93.3509
1224.00 93.66041
1224.10 93.96992
1224.20 94.13692
1224.30 94.20891
1224.40 94.28091
1224.50 94.3529
1224.60 94.4249
1224.70 94.49689
1224.80 94.56889
1224.90 94.64088
1225.00 94.71288
1225.10 94.78488
1225.20 94.85687
1225.30 94.92887
1225.40 94.98693
1225.50 94.98929
1225.60 94.99165
1225.70 94.99401
1225.80 94.99636
1225.90 94.99872
1226.00 95.00108
1226.10 95.00343
1226.20 95.00579
1226.30 95.00815
1226.40 95.01051
1226.50 95.01286
1226.60 95.01522
1226.70 94.96763
1226.80 94.89863
1226.90 94.82964
1227.00 94.76064
1227.10 94.69164
1227.20 94.62265
1227.30 94.55365
1227.40 94.48465
1227.50 94.41566
1227.60 94.34666
1227.70 94.27766
1227.80 94.20867
1227.90 94.11339
1228.00 93.9568
1228.10 93.80021
1228.20 93.64362
1228.30 93.48703
1228.40 93.33044
1228.50 93.17385
1228.60 93.01726
1228.70 92.86067
1228.80 92.70408
1228.90 92.5475
1229.00 92.39091
1229.10 92.23432
1229.20 92.15271
1229.30 92.08985
1229.40 92.027
1229.50 91.96414
1229.60 91.90128
1229.70 91.83842
1229.80 91.77556
1229.90 91.71271
1230.00 91.64985
1230.10 91.58699
1230.20 91.52413
1230.30 91.46127
1230.40 91.38654
1230.50 91.29401
1230.60 91.20148
1230.70 91.10895
1230.80 91.01641
1230.90 90.92388
1231.00 90.83135
1231.10 90.73881
1231.20 90.64628
1231.30 90.55375
1231.40 90.46121
1231.50 90.36868
1231.60 90.27615
1231.70 90.1202
1231.80 89.96426
1231.90 89.80831
1232.00 89.65237
1232.10 89.49643
1232.20 89.34048
1232.30 89.18454
1232.40 89.02859
1232.50 88.87265
1232.60 88.7167
1232.70 88.56076
1232.80 88.40482
1232.90 88.31527
1233.00 88.29213
1233.10 88.26899
1233.20 88.24585
1233.30 88.22271
1233.40 88.19957
1233.50 88.17643
1233.60 88.15329
1233.70 88.13015
1233.80 88.10701
1233.90 88.08387
1234.00 88.06073
1234.10 88.05254
1234.20 88.17888
1234.30 88.30521
1234.40 88.43155
1234.50 88.55789
1234.60 88.68423
1234.70 88.81057
1234.80 88.93691
1234.90 89.06325
1235.00 89.18958
1235.10 89.31592
1235.20 89.44226
1235.30 89.5686
1235.40 89.58403
1235.50 89.55193
1235.60 89.51982
1235.70 89.48772
1235.80 89.45561
1235.90 89.42351
1236.00 89.39141
1236.10 89.3593
1236.20 89.3272
1236.30 89.2951
1236.40 89.26299
1236.50 89.23089
1236.60 89.15193
1236.70 88.88553
1236.80 88.61913
1236.90 88.35273
1237.00 88.08634
1237.10 87.81994
1237.20 87.55354
1237.30 87.28715
1237.40 87.02075
1237.50 86.75435
1237.60 86.48795
1237.70 86.22156
1237.80 85.95516
1237.90 85.67947
1238.00 85.40145
1238.10 85.12343
1238.20 84.84542
1238.30 84.5674
1238.40 84.28938
1238.50 84.01137
1238.60 83.73335
1238.70 83.45533
1238.80 83.17732
1238.90 82.8993
1239.00 82.62128
1239.10 82.34315
1239.20 82.06473
1239.30 81.78631
1239.40 81.50789
1239.50 81.22947
1239.60 80.95105
1239.70 80.67263
1239.80 80.39421
1239.90 80.11579
1240.00 79.83737
1240.10 79.55895
1240.20 79.28053
1240.30 79.00211
1240.40 78.67391
1240.50 78.34019
1240.60 78.00646
1240.70 77.67274
1240.80 77.33901
1240.90 77.00529
1241.00 76.67156
1241.10 76.33784
1241.20 76.00411
1241.30 75.67039
1241.40 75.33666
1241.50 75.00294
1241.60 74.7466
1241.70 74.56764
1241.80 74.38869
1241.90 74.20973
1242.00 74.03078
1242.10 73.85182
1242.20 73.67286
1242.30 73.49391
1242.40 73.31495
1242.50 73.136
1242.60 72.95704
1242.70 72.77809
1242.80 72.59913
1242.90 73.02621
1243.00 73.45329
1243.10 73.88037
1243.20 74.30745
1243.30 74.73452
1243.40 75.1616
1243.50 75.58868
1243.60 76.01576
1243.70 76.44284
1243.80 76.86992
1243.90 77.29699
1244.00 77.72407
1244.10 78.25491
1244.20 78.85492
1244.30 79.45493
1244.40 80.05494
1244.50 80.65495
1244.60 81.25495
1244.70 81.85496
1244.80 82.45497
1244.90 83.05498
1245.00 83.65499
1245.10 84.255
1245.20 84.85501
1245.30 85.38218
1245.40 85.61802
1245.50 85.85386
1245.60 86.0897
1245.70 86.32554
1245.80 86.56138
1245.90 86.79721
1246.00 87.03305
1246.10 87.26889
1246.20 87.50473
1246.30 87.74057
1246.40 87.97641
1246.50 88.21225
1246.60 88.28292
1246.70 88.2828
1246.80 88.28269
1246.90 88.28258
1247.00 88.28246
1247.10 88.28235
1247.20 88.28224
1247.30 88.28213
1247.40 88.28201
1247.50 88.2819
1247.60 88.28179
1247.70 88.28167
1247.80 88.24925
1247.90 88.14144
1248.00 88.03363
1248.10 87.92582
1248.20 87.81801
1248.30 87.7102
1248.40 87.6024
1248.50 87.49459
1248.60 87.38678
1248.70 87.27897
1248.80 87.17116
1248.90 87.06335
1249.00 86.95554
1249.10 86.50949
1249.20 86.02586
1249.30 85.54223
1249.40 85.0586
1249.50 84.57496
1249.60 84.09133
1249.70 83.6077
1249.80 83.12407
1249.90 82.64044
1250.00 82.1568
1250.10 81.67317
1250.20 81.18954
1250.30 80.64831
1250.40 80.0207
1250.50 79.39308
1250.60 78.76546
1250.70 78.13784
1250.80 77.51022
1250.90 76.8826
1251.00 76.25498
1251.10 75.62736
1251.20 74.99974
1251.30 74.37213
1251.40 73.74451
1251.50 73.11689
1251.60 73.27635
1251.70 73.43582
1251.80 73.59528
1251.90 73.75475
1252.00 73.91421
1252.10 74.07368
1252.20 74.23314
1252.30 74.39261
1252.40 74.55207
1252.50 74.71154
1252.60 74.871
1252.70 75.03047
1252.80 75.59359
1252.90 76.42581
1253.00 77.25804
1253.10 78.09027
1253.20 78.92249
1253.30 79.75472
1253.40 80.58694
1253.50 81.41917
1253.60 82.2514
1253.70 83.08362
1253.80 83.91585
1253.90 84.74807
1254.00 85.56274
1254.10 86.21932
1254.20 86.87591
1254.30 87.5325
1254.40 88.18908
1254.50 88.84567
1254.60 89.50226
1254.70 90.15884
1254.80 90.81543
1254.90 91.47202
1255.00 92.1286
1255.10 92.78519
1255.20 93.44178
1255.30 93.80339
1255.40 94.03858
1255.50 94.27377
1255.60 94.50897
1255.70 94.74416
1255.80 94.97935
1255.90 95.21455
1256.00 95.44974
1256.10 95.68493
1256.20 95.92013
1256.30 96.15532
1256.40 96.39051
1256.50 96.5976
1256.60 96.69229
1256.70 96.78697
1256.80 96.88165
1256.90 96.97634
1257.00 97.07102
1257.10 97.1657
1257.20 97.26039
1257.30 97.35507
1257.40 97.44975
1257.50 97.54444
1257.60 97.63912
1257.70 97.7338
1257.80 97.77336
1257.90 97.79913
1258.00 97.8249
1258.10 97.85067
1258.20 97.87644
1258.30 97.90221
1258.40 97.92798
1258.50 97.95375
1258.60 97.97953
1258.70 98.0053
1258.80 98.03107
1258.90 98.05684
1259.00 98.14072
1259.10 98.31176
1259.20 98.4828
1259.30 98.65384
1259.40 98.82489
1259.50 98.99593
1259.60 99.16697
1259.70 99.33801
1259.80 99.50905
1259.90 99.6801
1260.00 99.85114
1260.10 100.0222
1260.20 100.1932
1260.30 100.3628
1260.40 100.5321
1260.50 100.7015
1260.60 100.8709
1260.70 101.0402
1260.80 101.2096
1260.90 101.379
1261.00 101.5483
1261.10 101.7177
1261.20 101.887
1261.30 102.0564
1261.40 102.2258
1261.50 102.2154
1261.60 102.0254
1261.70 101.8353
1261.80 101.6452
1261.90 101.4551
1262.00 101.2651
1262.10 101.075
1262.20 100.8849
1262.30 100.6948
1262.40 100.5048
1262.50 100.3147
1262.60 100.1246
1262.70 99.92554
1262.80 99.64545
1262.90 99.36536
1263.00 99.08526
1263.10 98.80517
1263.20 98.52508
1263.30 98.24498
1263.40 97.96489
1263.50 97.6848
1263.60 97.4047
1263.70 97.12461
1263.80 96.84452
1263.90 96.56442
1264.00 96.48285
1264.10 96.53363
1264.20 96.58441
1264.30 96.63519
1264.40 96.68597
1264.50 96.73675
1264.60 96.78752
1264.70 96.8383
1264.80 96.88908
1264.90 96.93986
1265.00 96.99064
1265.10 97.04142
1265.20 97.13346
1265.30 97.39058
1265.40 97.6477
1265.50 97.90482
1265.60 98.16194
1265.70 98.41906
1265.80 98.67617
1265.90 98.93329
1266.00 99.19041
1266.10 99.44753
1266.20 99.70465
1266.30 99.96177
1266.40 100.2189
1266.50 100.3602
1266.60 100.4726
1266.70 100.5849
1266.80 100.6973
1266.90 100.8097
1267.00 100.922
1267.10 101.0344
1267.20 101.1467
1267.30 101.2591
1267.40 101.3715
1267.50 101.4838
1267.60 101.5962
1267.70 101.6558
1267.80 101.5925
1267.90 101.5292
1268.00 101.4658
1268.10 101.4025
1268.20 101.3391
1268.30 101.2758
1268.40 101.2125
1268.50 101.1491
1268.60 101.0858
1268.70 101.0225
1268.80 100.9591
1268.90 100.8958
1269.00 100.9436
1269.10 101.0038
1269.20 101.064
1269.30 101.1242
1269.40 101.1844
1269.50 101.2446
1269.60 101.3048
1269.70 101.365
1269.80 101.4252
1269.90 101.4854
1270.00 101.5456
1270.10 101.6058
1270.20 101.6894
1270.30 101.7965
1270.40 101.9036
1270.50 102.0106
1270.60 102.1177
1270.70 102.2247
1270.80 102.3318
1270.90 102.4389
1271.00 102.5459
1271.10 102.653
1271.20 102.76
1271.30 102.8671
1271.40 102.9741
1271.50 102.8965
1271.60 102.8188
1271.70 102.7411
1271.80 102.6634
1271.90 102.5857
1272.00 102.5081
1272.10 102.4304
1272.20 102.3527
1272.30 102.275
1272.40 102.1973
1272.50 102.1196
1272.60 102.042
1272.70 101.9874
1272.80 101.9482
1272.90 101.909
1273.00 101.8698
1273.10 101.8307
1273.20 101.7915
1273.30 101.7523
1273.40 101.7131
1273.50 101.6739
1273.60 101.6348
1273.70 101.5956
1273.80 101.5564
1273.90 101.5388
1274.00 101.6073
1274.10 101.6759
1274.20 101.7444
1274.30 101.813
1274.40 101.8816
1274.50 101.9501
1274.60 102.0187
1274.70 102.0872
1274.80 102.1558
1274.90 102.2243
1275.00 102.2929
1275.10 102.3615
1275.20 102.4152
1275.30 102.4627
1275.40 102.5101
1275.50 102.5576
1275.60 102.605
1275.70 102.6524
1275.80 102.6999
1275.90 102.7473
1276.00 102.7948
1276.10 102.8422
1276.20 102.8896
1276.30 102.9371
1276.40 102.9656
1276.50 102.9501
1276.60 102.9345
1276.70 102.9189
1276.80 102.9034
1276.90 102.8878
1277.00 102.8723
1277.10 102.8567
1277.20 102.8411
1277.30 102.8256
1277.40 102.81
1277.50 102.7945
1277.60 102.7789
1277.70 102.7641
1277.80 102.7494
1277.90 102.7347
1278.00 102.72
1278.10 102.7053
1278.20 102.6906
1278.30 102.6759
1278.40 102.6612
1278.50 102.6465
1278.60 102.6318
1278.70 102.6171
1278.80 102.6024
1278.90 102.5952
1279.00 102.5992
1279.10 102.6032
1279.20 102.6072
1279.30 102.6112
1279.40 102.6152
1279.50 102.6193
1279.60 102.6233
1279.70 102.6273
1279.80 102.6313
1279.90 102.6353
1280.00 102.6393
1280.10 102.6434
1280.20 102.64
1280.30 102.6366
1280.40 102.6333
1280.50 102.6299
1280.60 102.6265
1280.70 102.6232
1280.80 102.6198
1280.90 102.6164
1281.00 102.6131
1281.10 102.6097
1281.20 102.6063
1281.30 102.603
1281.40 102.5968
1281.50 102.5888
1281.60 102.5808
1281.70 102.5728
1281.80 102.5648
1281.90 102.5568
1282.00 102.5488
1282.10 102.5408
1282.20 102.5328
1282.30 102.5248
1282.40 102.5168
1282.50 102.5088
1282.60 102.4975
1282.70 102.4563
1282.80 102.415
1282.90 102.3738
1283.00 102.3325
1283.10 102.2913
1283.20 102.25
1283.30 102.2088
1283.40 102.1676
1283.50 102.1263
1283.60 102.0851
1283.70 102.0438
1283.80 102.0026
1283.90 101.8741
1284.00 101.7082
1284.10 101.5424
1284.20 101.3765
1284.30 101.2107
1284.40 101.0448
1284.50 100.8789
1284.60 100.7131
1284.70 100.5472
1284.80 100.3814
1284.90 100.2155
1285.00 100.0497
1285.10 99.89486
1285.20 99.76589
1285.30 99.63691
1285.40 99.50794
1285.50 99.37896
1285.60 99.24998
1285.70 99.12101
1285.80 98.99203
1285.90 98.86306
1286.00 98.73408
1286.10 98.6051
1286.20 98.47613
1286.30 98.34715
1286.40 98.30597
1286.50 98.28673
1286.60 98.2675
1286.70 98.24826
1286.80 98.22902
1286.90 98.20979
1287.00 98.19055
1287.10 98.17131
1287.20 98.15208
1287.30 98.13284
1287.40 98.1136
1287.50 98.09437
1287.60 98.11271
1287.70 98.18742
1287.80 98.26213
1287.90 98.33684
1288.00 98.41155
1288.10 98.48627
1288.20 98.56098
1288.30 98.63569
1288.40 98.7104
1288.50 98.78511
1288.60 98.85982
1288.70 98.93453
1288.80 99.00924
1288.90 99.08482
1289.00 99.16039
1289.10 99.23596
1289.20 99.31153
1289.30 99.38711
1289.40 99.46268
1289.50 99.53825
1289.60 99.61383
1289.70 99.6894
1289.80 99.76497
1289.90 99.84054
1290.00 99.91612
1290.10 99.95389
1290.20 99.95386
1290.30 99.95383
1290.40 99.9538
1290.50 99.95378
1290.60 99.95375
1290.70 99.95372
1290.80 99.95369
1290.90 99.95366
1291.00 99.95363
1291.10 99.95361
1291.20 99.95358
1291.30 99.95305
1291.40 99.94807
1291.50 99.9431
1291.60 99.93812
1291.70 99.93314
1291.80 99.92816
1291.90 99.92318
1292.00 99.9182
1292.10 99.91322
1292.20 99.90824
1292.30 99.90327
1292.40 99.89829
1292.50 99.89331
1292.60 99.85651
1292.70 99.80609
1292.80 99.75566
1292.90 99.70523
1293.00 99.6548
1293.10 99.60437
1293.20 99.55394
1293.30 99.50351
1293.40 99.45309
1293.50 99.40266
1293.60 99.35223
1293.70 99.3018
1293.80 99.23924
1293.90 99.12818
1294.00 99.01712
1294.10 98.90606
1294.20 98.79499
1294.30 98.68393
1294.40 98.57287
1294.50 98.46181
1294.60 98.35074
1294.70 98.23968
1294.80 98.12862
1294.90 98.01756
1295.00 97.90649
1295.10 97.87763
1295.20 97.86931
1295.30 97.86099
1295.40 97.85268
1295.50 97.84436
1295.60 97.83604
1295.70 97.82773
1295.80 97.81941
1295.90 97.81109
1296.00 97.80278
1296.10 97.79446
1296.20 97.78614
1296.30 97.83044
1296.40 97.95367
1296.50 98.0769
1296.60 98.20012
1296.70 98.32335
1296.80 98.44658
1296.90 98.5698
1297.00 98.69303
1297.10 98.81626
1297.20 98.93948
1297.30 99.06271
1297.40 99.18594
1297.50 99.30916
1297.60 99.40946
1297.70 99.50975
1297.80 99.61005
1297.90 99.71035
1298.00 99.81064
1298.10 99.91094
1298.20 100.0112
1298.30 100.1115
1298.40 100.2118
1298.50 100.3121
1298.60 100.4124
1298.70 100.5127
1298.80 100.4982
1298.90 100.3689
1299.00 100.2397
1299.10 100.1104
1299.20 99.9811
1299.30 99.85182
1299.40 99.72254
1299.50 99.59326
1299.60 99.46398
1299.70 99.3347
1299.80 99.20542
1299.90 99.07614
1300.00 98.94308
1300.10 98.77609
1300.20 98.6091
1300.30 98.44211
1300.40 98.27513
1300.50 98.10814
1300.60 97.94115
1300.70 97.77416
1300.80 97.60717
1300.90 97.44018
1301.00 97.27319
1301.10 97.1062
1301.20 96.93921
1301.30 96.89302
1301.40 96.8986
1301.50 96.90419
1301.60 96.90977
1301.70 96.91536
1301.80 96.92094
1301.90 96.92653
1302.00 96.93211
1302.10 96.9377
1302.20 96.94328
1302.30 96.94886
1302.40 96.95445
1302.50 96.96776
1302.60 97.01197
1302.70 97.05619
1302.80 97.10041
1302.90 97.14462
1303.00 97.18884
1303.10 97.23305
1303.20 97.27727
1303.30 97.32148
1303.40 97.3657
1303.50 97.40992
1303.60 97.45413
1303.70 97.49835
1303.80 97.53602
1303.90 97.57206
1304.00 97.6081
1304.10 97.64414
1304.20 97.68018
1304.30 97.71622
1304.40 97.75226
1304.50 97.7883
1304.60 97.82434
1304.70 97.86038
1304.80 97.89642
1304.90 97.93246
1305.00 97.9414
1305.10 97.90969
1305.20 97.87798
1305.30 97.84627
1305.40 97.81456
1305.50 97.78285
1305.60 97.75114
1305.70 97.71943
1305.80 97.68772
1305.90 97.65601
1306.00 97.6243
1306.10 97.59258
1306.20 97.56087
1306.30 97.51508
1306.40 97.46773
1306.50 97.42037
1306.60 97.37302
1306.70 97.32566
1306.80 97.2783
1306.90 97.23095
1307.00 97.18359
1307.10 97.13624
1307.20 97.08888
1307.30 97.04153
1307.40 96.99417
1307.50 96.9671
1307.60 96.96031
1307.70 96.95352
1307.80 96.94673
1307.90 96.93994
1308.00 96.93315
1308.10 96.92636
1308.20 96.91957
1308.30 96.91278
1308.40 96.90599
1308.50 96.8992
1308.60 96.89241
1308.70 96.88515
1308.80 96.87364
1308.90 96.86213
1309.00 96.85061
1309.10 96.8391
1309.20 96.82758
1309.30 96.81607
1309.40 96.80456
1309.50 96.79304
1309.60 96.78153
1309.70 96.77002
1309.80 96.7585
1309.90 96.74699
1310.00 96.77387
1310.10 96.81719
1310.20 96.86052
1310.30 96.90385
1310.40 96.94718
1310.50 96.99051
1310.60 97.03384
1310.70 97.07717
1310.80 97.1205
1310.90 97.16382
1311.00 97.20715
1311.10 97.25048
1311.20 97.32277
1311.30 97.51092
1311.40 97.69907
1311.50 97.88722
1311.60 98.07537
1311.70 98.26352
1311.80 98.45167
1311.90 98.63982
1312.00 98.82797
1312.10 99.01612
1312.20 99.20427
1312.30 99.39242
1312.40 99.58057
1312.50 99.67829
1312.60 99.7534
1312.70 99.8285
1312.80 99.90361
1312.90 99.97872
1313.00 100.0538
1313.10 100.1289
1313.20 100.204
1313.30 100.2791
1313.40 100.3543
1313.50 100.4294
1313.60 100.5045
1313.70 100.5391
1313.80 100.513
1313.90 100.487
1314.00 100.4609
1314.10 100.4348
1314.20 100.4088
1314.30 100.3827
1314.40 100.3566
1314.50 100.3305
1314.60 100.3045
1314.70 100.2784
1314.80 100.2523
1314.90 100.2263
1315.00 100.2392
1315.10 100.2565
1315.20 100.2738
1315.30 100.2911
1315.40 100.3083
1315.50 100.3256
1315.60 100.3429
1315.70 100.3602
1315.80 100.3775
1315.90 100.3948
1316.00 100.4121
1316.10 100.4293
1316.20 100.4886
1316.30 100.5897
1316.40 100.6909
1316.50 100.792
1316.60 100.8932
1316.70 100.9944
1316.80 101.0955
1316.90 101.1967
1317.00 101.2979
1317.10 101.399
1317.20 101.5002
1317.30 101.6013
1317.40 101.7002
1317.50 101.7781
1317.60 101.856
1317.70 101.934
1317.80 102.0119
1317.90 102.0898
1318.00 102.1678
1318.10 102.2457
1318.20 102.3236
1318.30 102.4015
1318.40 102.4795
1318.50 102.5574
1318.60 102.6353
1318.70 102.5998
1318.80 102.4885
1318.90 102.3772
1319.00 102.266
1319.10 102.1547
1319.20 102.0434
1319.30 101.9322
1319.40 101.8209
1319.50 101.7097
1319.60 101.5984
1319.70 101.4871
1319.80 101.3759
1319.90 101.2694
1320.00 101.1821
1320.10 101.0948
1320.20 101.0074
1320.30 100.9201
1320.40 100.8328
1320.50 100.7454
1320.60 100.6581
1320.70 100.5708
1320.80 100.4835
1320.90 100.3961
1321.00 100.3088
1321.10 100.2215
1321.20 100.1556
1321.30 100.095
1321.40 100.0345
1321.50 99.97397
1321.60 99.91343
1321.70 99.85289
1321.80 99.79235
1321.90 99.73181
1322.00 99.67127
1322.10 99.61073
1322.20 99.5502
1322.30 99.48966
1322.40 99.38282
1322.50 99.20653
1322.60 99.03024
1322.70 98.85395
1322.80 98.67766
1322.90 98.50137
1323.00 98.32508
1323.10 98.14879
1323.20 97.9725
1323.30 97.79621
1323.40 97.61992
1323.50 97.44363
1323.60 97.26734
1323.70 97.08448
1323.80 96.90088
1323.90 96.71729
1324.00 96.53369
1324.10 96.3501
1324.20 96.1665
1324.30 95.98291
1324.40 95.79931
1324.50 95.61572
1324.60 95.43212
1324.70 95.24853
1324.80 95.06493
1324.90 94.95664
1325.00 94.92366
1325.10 94.89067
1325.20 94.85769
1325.30 94.8247
1325.40 94.79172
1325.50 94.75873
1325.60 94.72575
1325.70 94.69276
1325.80 94.65978
1325.90 94.62679
1326.00 94.59381
1326.10 94.55674
1326.20 94.4829
1326.30 94.40907
1326.40 94.33524
1326.50 94.2614
1326.60 94.18757
1326.70 94.11374
1326.80 94.03991
1326.90 93.96607
1327.00 93.89224
1327.10 93.81841
1327.20 93.74458
1327.30 93.67074
1327.40 93.48665
1327.50 93.22905
1327.60 92.97145
1327.70 92.71385
1327.80 92.45625
1327.90 92.19865
1328.00 91.94105
1328.10 91.68345
1328.20 91.42586
1328.30 91.16826
1328.40 90.91066
1328.50 90.65306
1328.60 90.3592
1328.70 89.92033
1328.80 89.48145
1328.90 89.04258
1329.00 88.6037
1329.10 88.16483
1329.20 87.72595
1329.30 87.28708
1329.40 86.8482
1329.50 86.40933
1329.60 85.97045
1329.70 85.53158
1329.80 85.0927
1329.90 84.56638
1330.00 84.0182
1330.10 83.47001
1330.20 82.92183
1330.30 82.37365
1330.40 81.82546
1330.50 81.27728
1330.60 80.7291
1330.70 80.18091
1330.80 79.63273
1330.90 79.08455
1331.00 78.53636
1331.10 78.00911
1331.20 77.51324
1331.30 77.01737
1331.40 76.5215
1331.50 76.02564
1331.60 75.52977
1331.70 75.0339
1331.80 74.53804
1331.90 74.04217
1332.00 73.5463
1332.10 73.05044
1332.20 72.55457
1332.30 72.0587
1332.40 71.51555
1332.50 70.96714
1332.60 70.41873
1332.70 69.87032
1332.80 69.32191
1332.90 68.7735
1333.00 68.22509
1333.10 67.67668
1333.20 67.12827
1333.30 66.57986
1333.40 66.03145
1333.50 65.48304
1333.60 64.87156
1333.70 64.19701
1333.80 63.52246
1333.90 62.84791
1334.00 62.17336
1334.10 61.49881
1334.20 60.82426
1334.30 60.1497
1334.40 59.47515
1334.50 58.8006
1334.60 58.12605
1334.70 57.4515
1334.80 56.79351
1334.90 56.2845
1335.00 55.7755
1335.10 55.2665
1335.20 54.75749
1335.30 54.24849
1335.40 53.73949
1335.50 53.23048
1335.60 52.72148
1335.70 52.21248
1335.80 51.70347
1335.90 51.19447
1336.00 50.68547
1336.10 50.40577
1336.20 50.22434
1336.30 50.04292
1336.40 49.86149
1336.50 49.68007
1336.60 49.49864
1336.70 49.31722
1336.80 49.13579
1336.90 48.95437
1337.00 48.77294
1337.10 48.59152
1337.20 48.41009
1337.30 48.29215
1337.40 48.4281
1337.50 48.56406
1337.60 48.70002
1337.70 48.83597
1337.80 48.97193
1337.90 49.10789
1338.00 49.24384
1338.10 49.3798
1338.20 49.51576
1338.30 49.65171
1338.40 49.78767
1338.50 49.92363
1338.60 50.02611
1338.70 50.12023
1338.80 50.21435
1338.90 50.30846
1339.00 50.40258
1339.10 50.4967
1339.20 50.59082
1339.30 50.68493
1339.40 50.77905
1339.50 50.87317
1339.60 50.96729
1339.70 51.0614
1339.80 51.1104
1339.90 51.09172
1340.00 51.07304
1340.10 51.05436
1340.20 51.03568
1340.30 51.017
1340.40 50.99831
1340.50 50.97963
1340.60 50.96095
1340.70 50.94227
1340.80 50.92359
1340.90 50.90491
1341.00 50.88623
1341.10 50.86755
1341.20 50.84886
1341.30 50.83018
1341.40 50.8115
1341.50 50.79282
1341.60 50.77414
1341.70 50.75546
1341.80 50.73678
1341.90 50.7181
1342.00 50.69942
1342.10 50.68073
1342.20 50.66205
1342.30 50.64337
1342.40 50.62469
1342.50 50.60601
1342.60 50.58733
1342.70 50.56865
1342.80 50.54997
1342.90 50.53128
1343.00 50.5126
1343.10 50.49392
1343.20 50.47524
1343.30 50.45656
1343.40 50.43788
1343.50 50.4192
1343.60 50.40052
1343.70 50.38184
1343.80 50.36315
1343.90 50.34447
1344.00 50.32579
1344.10 50.30711
1344.20 50.28843
1344.30 50.26975
1344.40 50.25107
1344.50 50.23239
1344.60 50.2137
1344.70 50.19502
1344.80 50.17634
1344.90 50.15766
1345.00 50.13898
1345.10 50.1203
1345.20 50.10162
1345.30 50.08294
1345.40 50.06426
1345.50 50.04557
1345.60 50.02689
1345.70 50.00821
1345.80 49.98953
1345.90 49.97085
1346.00 49.95217
1346.10 49.93349
1346.20 49.91481
1346.30 49.89612
1346.40 49.87744
1346.50 49.85876
1346.60 49.84008
1346.70 49.8214
1346.80 49.80272
1346.90 49.78404
1347.00 49.76536
1347.10 49.74668
1347.20 49.72799
1347.30 49.70931
1347.40 49.69063
1347.50 49.67195
1347.60 49.65327
1347.70 49.63459
1347.80 49.61591
1347.90 49.59723
1348.00 49.57855
1348.10 49.55986
1348.20 49.54118
1348.30 49.5225
1348.40 49.50382
1348.50 49.48514
1348.60 49.46646
1348.70 49.44778
1348.80 49.4291
1348.90 49.41041
1349.00 49.39173
1349.10 49.37305
1349.20 49.35437
1349.30 49.33569
1349.40 49.31701
1349.50 49.29833
1349.60 49.27965
1349.70 49.26097
1349.80 49.24228
1349.90 49.2236
1350.00 49.20492
1350.10 49.18624
1350.20 49.16756
1350.30 49.14888
1350.40 49.1302
1350.50 49.11152
1350.60 49.09283
1350.70 49.07415
1350.80 49.05547
1350.90 49.03679
1351.00 49.01811
1351.10 48.99943
1351.20 48.98075
1351.30 48.96207
1351.40 48.94339
1351.50 48.9247
1351.60 48.90602
1351.70 48.88734
1351.80 48.86866
1351.90 48.84998
1352.00 48.8313
1352.10 48.81262
1352.20 48.79394
1352.30 48.77525
1352.40 48.75657
1352.50 48.73789
1352.60 48.71921
1352.70 48.70053
1352.80 48.68185
1352.90 48.66317
1353.00 48.64449
1353.10 48.62581
1353.20 48.60712
1353.30 48.58844
1353.40 48.56976
1353.50 48.55108
1353.60 48.5324
1353.70 48.51372
1353.80 48.49504
1353.90 48.47636
1354.00 48.45767
1354.10 48.43899
1354.20 48.42031
1354.30 48.40163
1354.40 48.38295
1354.50 48.36427
1354.60 48.34559
1354.70 48.32691
1354.80 48.30823
1354.90 48.28954
1355.00 48.27086
1355.10 48.25218
1355.20 48.2335
1355.30 48.21482
1355.40 48.19614
1355.50 48.17746
1355.60 48.15878
1355.70 48.1401
1355.80 48.12141
1355.90 48.10273
1356.00 48.08405
1356.10 48.06537
1356.20 48.04669
1356.30 48.02801
1356.40 48.00933
1356.50 47.99065
1356.60 47.97196
1356.70 47.95328
1356.80 47.9346
1356.90 47.91592
1357.00 47.89724
1357.10 47.87856
1357.20 47.85988
1357.30 47.8412
1357.40 47.82252
1357.50 47.80383
1357.60 47.78515
1357.70 47.76647
1357.80 47.74779
1357.90 47.72911
1358.00 47.71043
1358.10 47.69175
1358.20 47.67307
1358.30 47.65438
1358.40 47.6357
1358.50 47.61702
1358.60 47.59834
1358.70 47.57966
1358.80 47.56098
1358.90 47.5423
1359.00 47.52362
1359.10 47.50494
1359.20 47.48625
1359.30 47.46757
1359.40 47.44889
1359.50 47.43021
1359.60 47.41153
1359.70 47.39285
1359.80 47.37417
1359.90 47.35549
1360.00 47.3368
1360.10 47.31812
1360.20 47.29944
1360.30 47.28076
1360.40 47.26208
1360.50 47.2434
1360.60 47.22472
1360.70 47.20604
1360.80 47.18736
1360.90 47.16867
1361.00 47.14999
1361.10 47.13131
1361.20 47.11263
1361.30 47.09395
1361.40 47.07527
1361.50 47.05659
1361.60 47.03791
1361.70 47.01922
1361.80 47.00054
1361.90 46.98186
1362.00 46.96318
1362.10 46.9445
1362.20 46.92582
1362.30 46.90714
1362.40 46.88846
1362.50 46.86978
1362.60 46.85109
1362.70 46.83241
1362.80 46.81373
1362.90 46.79505
1363.00 46.77637
1363.10 46.75769
1363.20 46.73901
1363.30 46.72033
1363.40 46.70165
1363.50 46.68296
1363.60 46.66428
1363.70 46.6456
1363.80 46.62692
1363.90 46.60824
1364.00 46.58956
1364.10 46.57088
1364.20 46.5522
1364.30 46.53351
1364.40 46.51483
1364.50 46.49615
1364.60 46.47747
1364.70 46.45879
1364.80 46.44011
1364.90 46.42143
1365.00 46.40275
1365.10 46.38407
1365.20 46.36538
1365.30 46.3467
1365.40 46.32802
1365.50 46.30934
1365.60 46.29066
1365.70 46.27198
1365.80 46.2533
1365.90 46.23462
1366.00 46.21593
1366.10 46.19725
1366.20 46.17857
1366.30 46.15989
1366.40 46.14121
1366.50 46.12253
1366.60 46.10385
1366.70 46.08517
1366.80 46.06649
1366.90 46.0478
1367.00 46.02912
1367.10 46.01044
1367.20 45.99176
1367.30 45.97308
1367.40 45.9544
1367.50 45.93572
1367.60 45.91704
1367.70 45.89835
1367.80 45.87967
1367.90 45.86099
1368.00 45.84231
1368.10 45.82363
1368.20 45.80495
1368.30 45.78627
1368.40 45.76759
1368.50 45.74891
1368.60 45.73022
1368.70 45.71154
1368.80 45.69286
1368.90 45.67418
1369.00 45.6555
1369.10 45.63682
1369.20 45.61814
1369.30 45.59946
1369.40 45.58077
1369.50 45.56209
1369.60 45.54341
1369.70 45.52473
1369.80 45.50605
1369.90 45.48737
1370.00 45.46869
1370.10 45.45001
1370.20 45.43133
1370.30 45.41264
1370.40 45.39396
1370.50 45.37528
1370.60 45.3566
1370.70 45.33792
1370.80 45.31924
1370.90 45.30056
1371.00 45.28188
1371.10 45.26319
1371.20 45.24451
1371.30 45.22583
1371.40 45.20715
1371.50 45.18847
1371.60 45.16979
1371.70 45.15111
1371.80 45.13243
1371.90 45.11375
1372.00 45.09506
1372.10 45.07638
1372.20 45.0577
1372.30 45.03902
1372.40 45.02034
1372.50 45.00166
1372.60 44.98298
1372.70 44.9643
1372.80 44.94562
1372.90 44.92693
1373.00 44.90825
1373.10 44.88957
1373.20 44.87089
1373.30 44.85221
1373.40 44.83353
1373.50 44.81485
1373.60 44.79617
1373.70 44.77748
1373.80 44.7588
1373.90 44.74012
1374.00 44.72144
1374.10 44.70276
1374.20 44.68408
1374.30 44.6654
1374.40 44.64672
1374.50 44.62804
1374.60 44.60935
1374.70 44.59067
1374.80 44.57199
1374.90 44.55331
1375.00 44.53463
1375.10 44.51595
1375.20 44.49727
1375.30 44.47859
1375.40 44.4599
1375.50 44.44122
1375.60 44.42254
1375.70 44.40386
1375.80 44.38518
1375.90 44.3665
1376.00 44.34782
1376.10 44.32914
1376.20 44.31046
1376.30 44.29177
1376.40 44.27309
1376.50 44.25441
1376.60 44.23573
1376.70 44.21705
1376.80 44.19837
1376.90 44.17969
1377.00 44.16101
1377.10 44.14232
1377.20 44.12364
1377.30 44.10496
1377.40 44.08628
1377.50 44.0676
1377.60 44.04892
1377.70 44.03024
1377.80 44.01156
1377.90 43.99288
1378.00 43.97419
1378.10 43.95551
1378.20 43.93683
1378.30 43.91815
1378.40 43.89947
1378.50 43.88079
1378.60 43.86211
1378.70 43.84343
1378.80 43.82474
1378.90 43.80606
1379.00 43.78738
1379.10 43.7687
1379.20 43.75002
1379.30 43.73134
1379.40 43.71266
1379.50 43.69398
1379.60 43.6753
1379.70 43.65661
1379.80 43.63793
1379.90 43.61925
1380.00 43.60057
1380.10 43.58189
1380.20 43.56321
1380.30 43.54453
1380.40 43.52585
1380.50 43.50717
1380.60 43.48848
1380.70 43.4698
1380.80 43.45112
1380.90 43.43244
1381.00 43.41376
1381.10 43.39508
1381.20 43.3764
1381.30 43.35772
1381.40 43.33903
1381.50 43.32035
1381.60 43.30167
1381.70 43.28299
1381.80 43.26431
1381.90 43.24563
1382.00 43.22695
1382.10 43.20827
1382.20 43.18959
1382.30 43.1709
1382.40 43.15222
1382.50 43.13354
1382.60 43.11486
1382.70 43.09618
1382.80 43.0775
1382.90 43.05882
1383.00 43.04014
1383.10 43.02145
1383.20 43.00277
1383.30 42.98409
1383.40 42.96541
1383.50 42.94673
1383.60 42.92805
1383.70 42.90937
1383.80 42.89069
1383.90 42.87201
1384.00 42.85332
1384.10 42.83464
1384.20 42.81596
1384.30 42.79728
1384.40 42.7786
1384.50 42.75992
1384.60 42.74124
1384.70 42.72256
1384.80 42.705
1384.90 42.69752
1385.00 42.69004
1385.10 42.68256
1385.20 42.67508
1385.30 42.6676
1385.40 42.66012
1385.50 42.65264
1385.60 42.64517
1385.70 42.63769
1385.80 42.63021
1385.90 42.62273
1386.00 42.61525
1386.10 42.60777
1386.20 42.60029
1386.30 42.59281
1386.40 42.58534
1386.50 42.57786
1386.60 42.57038
1386.70 42.5629
1386.80 42.55542
1386.90 42.54794
1387.00 42.54046
1387.10 42.53298
1387.20 42.52551
1387.30 42.51803
1387.40 42.51056
1387.50 42.5031
1387.60 42.49564
1387.70 42.48817
1387.80 42.48071
1387.90 42.47324
1388.00 42.46578
1388.10 42.45831
1388.20 42.45085
1388.30 42.44338
1388.40 42.43592
1388.50 42.42845
1388.60 42.42099
1388.70 42.41352
1388.80 42.40606
1388.90 42.39859
1389.00 42.39113
1389.10 42.38367
1389.20 42.3762
1389.30 42.36874
1389.40 42.36127
1389.50 42.35381
1389.60 42.34634
1389.70 42.33888
1389.80 42.33141
1389.90 42.32393
1390.00 42.31645
1390.10 42.30897
1390.20 42.3015
1390.30 42.29402
1390.40 42.28654
1390.50 42.27906
1390.60 42.27158
1390.70 42.2641
1390.80 42.25662
1390.90 42.24915
1391.00 42.24167
1391.10 42.23419
1391.20 42.22671
1391.30 42.21923
1391.40 42.21175
1391.50 42.20427
1391.60 42.19679
1391.70 42.18932
1391.80 42.18184
1391.90 42.17436
1392.00 42.16688
1392.10 42.1594
1392.20 42.15192
1392.30 42.14444
1392.40 42.13695
1392.50 42.12946
1392.60 42.12196
1392.70 42.11447
1392.80 42.10698
1392.90 42.09949
1393.00 42.09199
1393.10 42.0845
1393.20 42.07701
1393.30 42.06951
1393.40 42.06202
1393.50 42.05453
1393.60 42.04704
1393.70 42.03954
1393.80 42.03205
1393.90 42.02456
1394.00 42.01707
1394.10 42.00957
1394.20 42.00208
1394.30 41.99459
1394.40 41.98709
1394.50 41.9796
1394.60 41.97211
1394.70 41.96462
1394.80 41.95713
1394.90 41.94966
1395.00 41.9422
1395.10 41.93473
1395.20 41.92727
1395.30 41.9198
1395.40 41.91234
1395.50 41.90487
1395.60 41.89741
1395.70 41.88994
1395.80 41.88248
1395.90 41.87502
1396.00 41.86755
1396.10 41.86009
1396.20 41.85262
1396.30 41.84516
1396.40 41.83769
1396.50 41.83023
1396.60 41.82276
1396.70 41.8153
1396.80 41.80783
1396.90 41.80037
1397.00 41.7929
1397.10 41.78544
1397.20 41.77797
1397.30 41.77051
1397.40 41.76303
1397.50 41.75555
1397.60 41.74807
1397.70 41.74059
1397.80 41.73312
1397.90 41.72564
1398.00 41.71816
1398.10 41.71068
1398.20 41.7032
1398.30 41.69572
1398.40 41.68824
1398.50 41.68076
1398.60 41.67329
1398.70 41.66581
1398.80 41.65833
1398.90 41.65085
1399.00 41.64337
1399.10 41.63589
1399.20 41.62841
1399.30 41.62093
1399.40 41.61346
1399.50 41.60598
1399.60 41.5985
1399.70 41.59102
1399.80 41.58354
1399.90 41.57606
