# Version 2.1 - nm, norm@500 to 1, cut digits
# Wavelength(nm)  Flambda(ergs/cm^s/s/nm)
300.00 2.963818e-95
300.10 2.963818e-95
300.20 2.963818e-95
300.30 2.963818e-95
300.40 2.963818e-95
300.50 2.963818e-95
300.60 2.963818e-95
300.70 2.963818e-95
300.80 2.963818e-95
300.90 2.963818e-95
301.00 2.963818e-95
301.10 2.963818e-95
301.20 2.963818e-95
301.30 2.963818e-95
301.40 2.963818e-95
301.50 2.963818e-95
301.60 2.963818e-95
301.70 2.963818e-95
301.80 2.963818e-95
301.90 2.963818e-95
302.00 2.963818e-95
302.10 2.963818e-95
302.20 2.963818e-95
302.30 2.963818e-95
302.40 2.963818e-95
302.50 2.963818e-95
302.60 2.963818e-95
302.70 2.963818e-95
302.80 2.963818e-95
302.90 2.963818e-95
303.00 2.963818e-95
303.10 2.963818e-95
303.20 2.963818e-95
303.30 2.963818e-95
303.40 2.963818e-95
303.50 2.963818e-95
303.60 2.963818e-95
303.70 2.963818e-95
303.80 2.963818e-95
303.90 2.963818e-95
304.00 2.963818e-95
304.10 2.963818e-95
304.20 2.963818e-95
304.30 2.963818e-95
304.40 2.963818e-95
304.50 2.963818e-95
304.60 2.963818e-95
304.70 2.963818e-95
304.80 2.963818e-95
304.90 2.963818e-95
305.00 2.963818e-95
305.10 2.963818e-95
305.20 2.963818e-95
305.30 2.963818e-95
305.40 2.963818e-95
305.50 2.963818e-95
305.60 2.963818e-95
305.70 2.963818e-95
305.80 2.963818e-95
305.90 2.963818e-95
306.00 2.963818e-95
306.10 2.963818e-95
306.20 2.963818e-95
306.30 2.963818e-95
306.40 2.963818e-95
306.50 2.963818e-95
306.60 2.963818e-95
306.70 2.963818e-95
306.80 2.963818e-95
306.90 2.963818e-95
307.00 2.963818e-95
307.10 2.963818e-95
307.20 2.963818e-95
307.30 2.963818e-95
307.40 2.963818e-95
307.50 2.963818e-95
307.60 2.963818e-95
307.70 2.963818e-95
307.80 2.963818e-95
307.90 2.963818e-95
308.00 2.963818e-95
308.10 2.963818e-95
308.20 2.963818e-95
308.30 2.963818e-95
308.40 2.963818e-95
308.50 2.963818e-95
308.60 2.963818e-95
308.70 2.963818e-95
308.80 2.963818e-95
308.90 2.963818e-95
309.00 2.963818e-95
309.10 2.963818e-95
309.20 2.963818e-95
309.30 2.963818e-95
309.40 2.963818e-95
309.50 2.963818e-95
309.60 2.963818e-95
309.70 2.963818e-95
309.80 2.963818e-95
309.90 2.963818e-95
310.00 2.963818e-95
310.10 2.963818e-95
310.20 2.963818e-95
310.30 2.963818e-95
310.40 2.963818e-95
310.50 2.963818e-95
310.60 2.963818e-95
310.70 2.963818e-95
310.80 2.963818e-95
310.90 2.963818e-95
311.00 2.963818e-95
311.10 2.963818e-95
311.20 2.963818e-95
311.30 2.963818e-95
311.40 2.963818e-95
311.50 2.963818e-95
311.60 2.963818e-95
311.70 2.963818e-95
311.80 2.963818e-95
311.90 2.963818e-95
312.00 2.963818e-95
312.10 2.963818e-95
312.20 2.963818e-95
312.30 2.963818e-95
312.40 2.963818e-95
312.50 2.963818e-95
312.60 2.963818e-95
312.70 2.963818e-95
312.80 2.963818e-95
312.90 2.963818e-95
313.00 2.963818e-95
313.10 2.963818e-95
313.20 2.963818e-95
313.30 2.963818e-95
313.40 2.963818e-95
313.50 2.963818e-95
313.60 2.963818e-95
313.70 2.963818e-95
313.80 2.963818e-95
313.90 2.963818e-95
314.00 2.963818e-95
314.10 2.963818e-95
314.20 2.963818e-95
314.30 2.963818e-95
314.40 2.963818e-95
314.50 2.963818e-95
314.60 2.963818e-95
314.70 2.963818e-95
314.80 2.963818e-95
314.90 2.963818e-95
315.00 2.963818e-95
315.10 2.963818e-95
315.20 2.963818e-95
315.30 2.963818e-95
315.40 2.963818e-95
315.50 2.963818e-95
315.60 2.963818e-95
315.70 2.963818e-95
315.80 2.963818e-95
315.90 2.963818e-95
316.00 2.963818e-95
316.10 2.963818e-95
316.20 2.963818e-95
316.30 2.963818e-95
316.40 2.963818e-95
316.50 2.963818e-95
316.60 2.963818e-95
316.70 2.963818e-95
316.80 2.963818e-95
316.90 2.963818e-95
317.00 2.963818e-95
317.10 2.963818e-95
317.20 2.963818e-95
317.30 2.963818e-95
317.40 2.963818e-95
317.50 2.963818e-95
317.60 2.963818e-95
317.70 2.963818e-95
317.80 2.963818e-95
317.90 2.963818e-95
318.00 2.963818e-95
318.10 2.963818e-95
318.20 2.963818e-95
318.30 2.963818e-95
318.40 2.963818e-95
318.50 2.963818e-95
318.60 2.963818e-95
318.70 2.963818e-95
318.80 2.963818e-95
318.90 2.963818e-95
319.00 2.963818e-95
319.10 2.963818e-95
319.20 2.963818e-95
319.30 2.963818e-95
319.40 2.963818e-95
319.50 2.963818e-95
319.60 2.963818e-95
319.70 2.963818e-95
319.80 2.963818e-95
319.90 2.963818e-95
320.00 2.963818e-95
320.10 2.963818e-95
320.20 2.963818e-95
320.30 2.963818e-95
320.40 2.963818e-95
320.50 2.963818e-95
320.60 2.963818e-95
320.70 2.963818e-95
320.80 2.963818e-95
320.90 2.963818e-95
321.00 2.963818e-95
321.10 2.963818e-95
321.20 2.963818e-95
321.30 2.963818e-95
321.40 2.963818e-95
321.50 2.963818e-95
321.60 2.963818e-95
321.70 2.963818e-95
321.80 2.963818e-95
321.90 2.963818e-95
322.00 2.963818e-95
322.10 2.963818e-95
322.20 2.963818e-95
322.30 2.963818e-95
322.40 2.963818e-95
322.50 2.963818e-95
322.60 2.963818e-95
322.70 2.963818e-95
322.80 2.963818e-95
322.90 2.963818e-95
323.00 2.963818e-95
323.10 2.963818e-95
323.20 2.963818e-95
323.30 2.963818e-95
323.40 2.963818e-95
323.50 2.963818e-95
323.60 2.963818e-95
323.70 2.963818e-95
323.80 2.963818e-95
323.90 2.963818e-95
324.00 2.963818e-95
324.10 2.963818e-95
324.20 2.963818e-95
324.30 2.963818e-95
324.40 2.963818e-95
324.50 2.963818e-95
324.60 2.963818e-95
324.70 2.963818e-95
324.80 2.963818e-95
324.90 2.963818e-95
325.00 2.963818e-95
325.10 2.963818e-95
325.20 2.963818e-95
325.30 2.963818e-95
325.40 2.963818e-95
325.50 2.963818e-95
325.60 2.963818e-95
325.70 2.963818e-95
325.80 2.963818e-95
325.90 2.963818e-95
326.00 2.963818e-95
326.10 2.963818e-95
326.20 2.963818e-95
326.30 2.963818e-95
326.40 2.963818e-95
326.50 2.963818e-95
326.60 2.963818e-95
326.70 2.963818e-95
326.80 2.963818e-95
326.90 2.963818e-95
327.00 2.963818e-95
327.10 2.963818e-95
327.20 2.963818e-95
327.30 2.963818e-95
327.40 2.963818e-95
327.50 2.963818e-95
327.60 2.963818e-95
327.70 2.963818e-95
327.80 2.963818e-95
327.90 2.963818e-95
328.00 2.963818e-95
328.10 2.963818e-95
328.20 2.963818e-95
328.30 2.963818e-95
328.40 2.963818e-95
328.50 2.963818e-95
328.60 2.963818e-95
328.70 2.963818e-95
328.80 2.963818e-95
328.90 2.963818e-95
329.00 2.963818e-95
329.10 2.963818e-95
329.20 2.963818e-95
329.30 2.963818e-95
329.40 2.963818e-95
329.50 2.963818e-95
329.60 2.963818e-95
329.70 2.963818e-95
329.80 2.963818e-95
329.90 2.963818e-95
330.00 2.963818e-95
330.10 2.963818e-95
330.20 2.963818e-95
330.30 2.963818e-95
330.40 2.963818e-95
330.50 2.963818e-95
330.60 2.963818e-95
330.70 2.963818e-95
330.80 2.963818e-95
330.90 2.963818e-95
331.00 2.963818e-95
331.10 2.963818e-95
331.20 2.963818e-95
331.30 2.963818e-95
331.40 2.963818e-95
331.50 2.963818e-95
331.60 2.963818e-95
331.70 2.963818e-95
331.80 2.963818e-95
331.90 2.963818e-95
332.00 2.963818e-95
332.10 2.963818e-95
332.20 2.963818e-95
332.30 2.963818e-95
332.40 2.963818e-95
332.50 2.963818e-95
332.60 2.963818e-95
332.70 2.963818e-95
332.80 2.963818e-95
332.90 2.963818e-95
333.00 2.963818e-95
333.10 2.963818e-95
333.20 2.963818e-95
333.30 2.963818e-95
333.40 2.963818e-95
333.50 2.963818e-95
333.60 2.963818e-95
333.70 2.963818e-95
333.80 2.963818e-95
333.90 2.963818e-95
334.00 2.963818e-95
334.10 2.963818e-95
334.20 2.963818e-95
334.30 2.963818e-95
334.40 2.963818e-95
334.50 2.963818e-95
334.60 2.963818e-95
334.70 2.963818e-95
334.80 2.963818e-95
334.90 2.963818e-95
335.00 2.963818e-95
335.10 2.963818e-95
335.20 2.963818e-95
335.30 2.963818e-95
335.40 2.963818e-95
335.50 2.963818e-95
335.60 2.963818e-95
335.70 2.963818e-95
335.80 2.963818e-95
335.90 2.963818e-95
336.00 2.963818e-95
336.10 2.963818e-95
336.20 2.963818e-95
336.30 2.963818e-95
336.40 2.963818e-95
336.50 2.963818e-95
336.60 2.963818e-95
336.70 2.963818e-95
336.80 2.963818e-95
336.90 2.963818e-95
337.00 2.963818e-95
337.10 2.963818e-95
337.20 2.963818e-95
337.30 2.963818e-95
337.40 2.963818e-95
337.50 2.963818e-95
337.60 2.963818e-95
337.70 2.963818e-95
337.80 2.963818e-95
337.90 2.963818e-95
338.00 2.963818e-95
338.10 2.963818e-95
338.20 2.963818e-95
338.30 2.963818e-95
338.40 2.963818e-95
338.50 2.963818e-95
338.60 2.963818e-95
338.70 2.963818e-95
338.80 2.963818e-95
338.90 2.963818e-95
339.00 2.963818e-95
339.10 2.963818e-95
339.20 2.963818e-95
339.30 2.963818e-95
339.40 2.963818e-95
339.50 2.963818e-95
339.60 2.963818e-95
339.70 2.963818e-95
339.80 2.963818e-95
339.90 2.963818e-95
340.00 2.963818e-95
340.10 2.963818e-95
340.20 2.963818e-95
340.30 2.963818e-95
340.40 2.963818e-95
340.50 2.963818e-95
340.60 2.963818e-95
340.70 2.963818e-95
340.80 2.963818e-95
340.90 2.963818e-95
341.00 2.963818e-95
341.10 2.963818e-95
341.20 2.963818e-95
341.30 2.963818e-95
341.40 2.963818e-95
341.50 2.963818e-95
341.60 2.963818e-95
341.70 2.963818e-95
341.80 2.963818e-95
341.90 2.963818e-95
342.00 2.963818e-95
342.10 2.963818e-95
342.20 2.963818e-95
342.30 2.963818e-95
342.40 2.963818e-95
342.50 2.963818e-95
342.60 2.963818e-95
342.70 2.963818e-95
342.80 2.963818e-95
342.90 2.963818e-95
343.00 2.963818e-95
343.10 2.963818e-95
343.20 2.963818e-95
343.30 2.963818e-95
343.40 2.963818e-95
343.50 2.963818e-95
343.60 2.963818e-95
343.70 2.963818e-95
343.80 2.963818e-95
343.90 2.963818e-95
344.00 2.963818e-95
344.10 2.963818e-95
344.20 2.963818e-95
344.30 2.963818e-95
344.40 2.963818e-95
344.50 2.963818e-95
344.60 2.963818e-95
344.70 2.963818e-95
344.80 2.963818e-95
344.90 2.963818e-95
345.00 2.963818e-95
345.10 2.963818e-95
345.20 2.963818e-95
345.30 2.963818e-95
345.40 2.963818e-95
345.50 2.963818e-95
345.60 2.963818e-95
345.70 2.963818e-95
345.80 2.963818e-95
345.90 2.963818e-95
346.00 2.963818e-95
346.10 2.963818e-95
346.20 2.963818e-95
346.30 2.963818e-95
346.40 2.963818e-95
346.50 2.963818e-95
346.60 2.963818e-95
346.70 2.963818e-95
346.80 2.963818e-95
346.90 2.963818e-95
347.00 2.963818e-95
347.10 2.963818e-95
347.20 2.963818e-95
347.30 2.963818e-95
347.40 2.963818e-95
347.50 2.963818e-95
347.60 2.963818e-95
347.70 2.963818e-95
347.80 2.963818e-95
347.90 2.963818e-95
348.00 2.963818e-95
348.10 2.963818e-95
348.20 2.963818e-95
348.30 2.963818e-95
348.40 2.963818e-95
348.50 2.963818e-95
348.60 2.963818e-95
348.70 2.963818e-95
348.80 2.963818e-95
348.90 2.963818e-95
349.00 2.963818e-95
349.10 2.963818e-95
349.20 2.963818e-95
349.30 2.963818e-95
349.40 2.963818e-95
349.50 2.963818e-95
349.60 2.963818e-95
349.70 2.963818e-95
349.80 2.963818e-95
349.90 2.963818e-95
350.00 2.963818e-95
350.10 2.963818e-95
350.20 2.963818e-95
350.30 2.963818e-95
350.40 2.963818e-95
350.50 2.963818e-95
350.60 2.963818e-95
350.70 2.963818e-95
350.80 2.963818e-95
350.90 2.963818e-95
351.00 2.963818e-95
351.10 2.963818e-95
351.20 2.963818e-95
351.30 2.963818e-95
351.40 2.963818e-95
351.50 2.963818e-95
351.60 2.963818e-95
351.70 2.963818e-95
351.80 2.963818e-95
351.90 2.963818e-95
352.00 2.963818e-95
352.10 2.963818e-95
352.20 2.963818e-95
352.30 2.963818e-95
352.40 2.963818e-95
352.50 2.963818e-95
352.60 2.963818e-95
352.70 2.963818e-95
352.80 2.963818e-95
352.90 2.963818e-95
353.00 2.963818e-95
353.10 2.963818e-95
353.20 2.963818e-95
353.30 2.963818e-95
353.40 2.963818e-95
353.50 2.963818e-95
353.60 2.963818e-95
353.70 2.963818e-95
353.80 2.963818e-95
353.90 2.963818e-95
354.00 2.963818e-95
354.10 2.963818e-95
354.20 2.963818e-95
354.30 2.963818e-95
354.40 2.963818e-95
354.50 2.963818e-95
354.60 2.963818e-95
354.70 2.963818e-95
354.80 2.963818e-95
354.90 2.963818e-95
355.00 2.963818e-95
355.10 2.963818e-95
355.20 2.963818e-95
355.30 2.963818e-95
355.40 2.963818e-95
355.50 2.963818e-95
355.60 2.963818e-95
355.70 2.963818e-95
355.80 2.963818e-95
355.90 2.963818e-95
356.00 2.963818e-95
356.10 2.963818e-95
356.20 2.963818e-95
356.30 2.963818e-95
356.40 2.963818e-95
356.50 2.963818e-95
356.60 2.963818e-95
356.70 2.963818e-95
356.80 2.963818e-95
356.90 2.963818e-95
357.00 2.963818e-95
357.10 2.963818e-95
357.20 2.963818e-95
357.30 2.963818e-95
357.40 2.963818e-95
357.50 2.963818e-95
357.60 2.963818e-95
357.70 2.963818e-95
357.80 2.963818e-95
357.90 2.963818e-95
358.00 2.963818e-95
358.10 2.963818e-95
358.20 2.963818e-95
358.30 2.963818e-95
358.40 2.963818e-95
358.50 2.963818e-95
358.60 2.963818e-95
358.70 2.963818e-95
358.80 2.963818e-95
358.90 2.963818e-95
359.00 2.963818e-95
359.10 2.963818e-95
359.20 2.963818e-95
359.30 2.963818e-95
359.40 2.963818e-95
359.50 2.963818e-95
359.60 2.963818e-95
359.70 2.963818e-95
359.80 2.963818e-95
359.90 2.963818e-95
360.00 2.963818e-95
360.10 2.963818e-95
360.20 2.963818e-95
360.30 2.963818e-95
360.40 2.963818e-95
360.50 2.963818e-95
360.60 2.963818e-95
360.70 2.963818e-95
360.80 2.963818e-95
360.90 2.963818e-95
361.00 2.963818e-95
361.10 2.963818e-95
361.20 2.963818e-95
361.30 2.963818e-95
361.40 2.963818e-95
361.50 2.963818e-95
361.60 2.963818e-95
361.70 2.963818e-95
361.80 2.963818e-95
361.90 2.963818e-95
362.00 2.963818e-95
362.10 2.963818e-95
362.20 2.963818e-95
362.30 2.963818e-95
362.40 2.963818e-95
362.50 2.963818e-95
362.60 2.963818e-95
362.70 2.963818e-95
362.80 2.963818e-95
362.90 2.963818e-95
363.00 2.963818e-95
363.10 2.963818e-95
363.20 2.963818e-95
363.30 2.963818e-95
363.40 2.963818e-95
363.50 2.963818e-95
363.60 2.963818e-95
363.70 2.963818e-95
363.80 2.963818e-95
363.90 2.963818e-95
364.00 2.963818e-95
364.10 2.963818e-95
364.20 2.963818e-95
364.30 2.963818e-95
364.40 2.963818e-95
364.50 2.963818e-95
364.60 2.963818e-95
364.70 2.963818e-95
364.80 2.963818e-95
364.90 2.963818e-95
365.00 2.963818e-95
365.10 2.963818e-95
365.20 2.963818e-95
365.30 2.963818e-95
365.40 2.963818e-95
365.50 2.963818e-95
365.60 2.963818e-95
365.70 2.963818e-95
365.80 2.963818e-95
365.90 2.963818e-95
366.00 2.963818e-95
366.10 2.963818e-95
366.20 2.963818e-95
366.30 2.963818e-95
366.40 2.963818e-95
366.50 2.963818e-95
366.60 2.963818e-95
366.70 2.963818e-95
366.80 2.963818e-95
366.90 2.963818e-95
367.00 2.963818e-95
367.10 2.963818e-95
367.20 2.963818e-95
367.30 2.963818e-95
367.40 2.963818e-95
367.50 2.963818e-95
367.60 2.963818e-95
367.70 2.963818e-95
367.80 2.963818e-95
367.90 2.963818e-95
368.00 2.963818e-95
368.10 2.963818e-95
368.20 2.963818e-95
368.30 2.963818e-95
368.40 2.963818e-95
368.50 2.963818e-95
368.60 2.963818e-95
368.70 2.963818e-95
368.80 2.963818e-95
368.90 2.963818e-95
369.00 2.963818e-95
369.10 2.963818e-95
369.20 2.963818e-95
369.30 2.963818e-95
369.40 2.963818e-95
369.50 2.963818e-95
369.60 2.963818e-95
369.70 2.963818e-95
369.80 2.963818e-95
369.90 2.963818e-95
370.00 2.963818e-95
370.10 2.963818e-95
370.20 2.963818e-95
370.30 2.963818e-95
370.40 2.963818e-95
370.50 2.963818e-95
370.60 2.963818e-95
370.70 2.963818e-95
370.80 2.963818e-95
370.90 2.963818e-95
371.00 2.963818e-95
371.10 2.963818e-95
371.20 2.963818e-95
371.30 2.963818e-95
371.40 2.963818e-95
371.50 2.963818e-95
371.60 2.963818e-95
371.70 2.963818e-95
371.80 2.963818e-95
371.90 2.963818e-95
372.00 2.963818e-95
372.10 2.963818e-95
372.20 2.963818e-95
372.30 2.963818e-95
372.40 2.963818e-95
372.50 2.963818e-95
372.60 2.963818e-95
372.70 2.963818e-95
372.80 2.963818e-95
372.90 2.963818e-95
373.00 2.963818e-95
373.10 2.963818e-95
373.20 2.963818e-95
373.30 2.963818e-95
373.40 2.963818e-95
373.50 2.963818e-95
373.60 2.963818e-95
373.70 2.963818e-95
373.80 2.963818e-95
373.90 2.963818e-95
374.00 2.963818e-95
374.10 2.963818e-95
374.20 2.963818e-95
374.30 2.963818e-95
374.40 2.963818e-95
374.50 2.963818e-95
374.60 2.963818e-95
374.70 2.963818e-95
374.80 2.963818e-95
374.90 2.963818e-95
375.00 2.963818e-95
375.10 2.963818e-95
375.20 2.963818e-95
375.30 2.963818e-95
375.40 2.963818e-95
375.50 2.963818e-95
375.60 2.963818e-95
375.70 2.963818e-95
375.80 2.963818e-95
375.90 2.963818e-95
376.00 2.963818e-95
376.10 2.963818e-95
376.20 2.963818e-95
376.30 2.963818e-95
376.40 2.963818e-95
376.50 2.963818e-95
376.60 2.963818e-95
376.70 2.963818e-95
376.80 2.963818e-95
376.90 2.963818e-95
377.00 2.963818e-95
377.10 2.963818e-95
377.20 2.963818e-95
377.30 2.963818e-95
377.40 2.963818e-95
377.50 2.963818e-95
377.60 2.963818e-95
377.70 2.963818e-95
377.80 2.963818e-95
377.90 2.963818e-95
378.00 2.963818e-95
378.10 2.963818e-95
378.20 2.963818e-95
378.30 2.963818e-95
378.40 2.963818e-95
378.50 2.963818e-95
378.60 2.963818e-95
378.70 2.963818e-95
378.80 2.963818e-95
378.90 2.963818e-95
379.00 2.963818e-95
379.10 2.963818e-95
379.20 2.963818e-95
379.30 2.963818e-95
379.40 2.963818e-95
379.50 2.963818e-95
379.60 2.963818e-95
379.70 2.963818e-95
379.80 2.963818e-95
379.90 2.963818e-95
380.00 2.963818e-95
380.10 2.963818e-95
380.20 2.963818e-95
380.30 2.963818e-95
380.40 2.963818e-95
380.50 2.963818e-95
380.60 2.963818e-95
380.70 2.963818e-95
380.80 2.963818e-95
380.90 2.963818e-95
381.00 2.963818e-95
381.10 2.963818e-95
381.20 2.963818e-95
381.30 2.963818e-95
381.40 2.963818e-95
381.50 2.963818e-95
381.60 2.963818e-95
381.70 2.963818e-95
381.80 2.963818e-95
381.90 2.963818e-95
382.00 2.963818e-95
382.10 2.963818e-95
382.20 2.963818e-95
382.30 2.963818e-95
382.40 2.963818e-95
382.50 2.963818e-95
382.60 2.963818e-95
382.70 2.963818e-95
382.80 2.963818e-95
382.90 2.963818e-95
383.00 2.963818e-95
383.10 2.963818e-95
383.20 2.963818e-95
383.30 2.963818e-95
383.40 2.963818e-95
383.50 2.963818e-95
383.60 2.963818e-95
383.70 2.963818e-95
383.80 2.963818e-95
383.90 2.963818e-95
384.00 2.963818e-95
384.10 2.963818e-95
384.20 2.963818e-95
384.30 2.963818e-95
384.40 2.963818e-95
384.50 2.963818e-95
384.60 2.963818e-95
384.70 2.963818e-95
384.80 2.963818e-95
384.90 2.963818e-95
385.00 2.963818e-95
385.10 2.963818e-95
385.20 2.963818e-95
385.30 2.963818e-95
385.40 2.963818e-95
385.50 2.963818e-95
385.60 2.963818e-95
385.70 2.963818e-95
385.80 2.963818e-95
385.90 2.963818e-95
386.00 2.963818e-95
386.10 2.963818e-95
386.20 2.963818e-95
386.30 2.963818e-95
386.40 2.963818e-95
386.50 2.963818e-95
386.60 2.963818e-95
386.70 2.963818e-95
386.80 2.963818e-95
386.90 2.963818e-95
387.00 2.963818e-95
387.10 2.963818e-95
387.20 2.963818e-95
387.30 2.963818e-95
387.40 2.963818e-95
387.50 2.963818e-95
387.60 2.963818e-95
387.70 2.963818e-95
387.80 2.963818e-95
387.90 2.963818e-95
388.00 2.963818e-95
388.10 2.963818e-95
388.20 2.963818e-95
388.30 2.963818e-95
388.40 2.963818e-95
388.50 2.963818e-95
388.60 2.963818e-95
388.70 2.963818e-95
388.80 2.963818e-95
388.90 2.963818e-95
389.00 2.963818e-95
389.10 2.963818e-95
389.20 2.963818e-95
389.30 2.963818e-95
389.40 2.963818e-95
389.50 2.963818e-95
389.60 2.963818e-95
389.70 2.963818e-95
389.80 2.963818e-95
389.90 2.963818e-95
390.00 2.963818e-95
390.10 2.963818e-95
390.20 2.963818e-95
390.30 2.963818e-95
390.40 2.963818e-95
390.50 2.963818e-95
390.60 2.963818e-95
390.70 2.963818e-95
390.80 2.963818e-95
390.90 2.963818e-95
391.00 2.963818e-95
391.10 2.963818e-95
391.20 2.963818e-95
391.30 2.963818e-95
391.40 2.963818e-95
391.50 2.963818e-95
391.60 2.963818e-95
391.70 2.963818e-95
391.80 2.963818e-95
391.90 2.963818e-95
392.00 2.963818e-95
392.10 2.963818e-95
392.20 2.963818e-95
392.30 2.963818e-95
392.40 2.963818e-95
392.50 2.963818e-95
392.60 2.963818e-95
392.70 2.963818e-95
392.80 2.963818e-95
392.90 2.963818e-95
393.00 2.963818e-95
393.10 2.963818e-95
393.20 2.963818e-95
393.30 2.963818e-95
393.40 2.963818e-95
393.50 2.963818e-95
393.60 2.963818e-95
393.70 2.963818e-95
393.80 2.963818e-95
393.90 2.963818e-95
394.00 2.963818e-95
394.10 2.963818e-95
394.20 2.963818e-95
394.30 2.963818e-95
394.40 2.963818e-95
394.50 2.963818e-95
394.60 2.963818e-95
394.70 2.963818e-95
394.80 2.963818e-95
394.90 2.963818e-95
395.00 0.121221
395.10 0.2214813
395.20 0.2975757
395.30 0.3479656
395.40 0.3733916
395.50 0.3802141
395.60 0.3802141
395.70 0.3846793
395.80 0.4021184
395.90 0.4369102
396.00 0.4893496
396.10 0.5566874
396.20 0.6341302
396.30 0.7143696
396.40 0.7886501
396.50 0.8478126
396.60 0.8838272
396.70 0.8955709
396.80 0.8955709
396.90 0.8955709
397.00 0.8955709
397.10 0.8955709
397.20 0.8955709
397.30 0.907436
397.40 0.9360425
397.50 0.981919
397.60 1.044587
397.70 1.125168
397.80 1.226229
397.90 1.348463
398.00 1.489248
398.10 1.641518
398.20 1.795742
398.30 1.942247
398.40 2.072462
398.50 2.181502
398.60 2.269878
398.70 2.344148
398.80 2.413296
398.90 2.485193
399.00 2.565003
399.10 2.651816
399.20 2.739138
399.30 2.817732
399.40 2.877974
399.50 2.914996
399.60 2.92896
399.70 2.92896
399.80 2.92896
399.90 2.92896
400.00 2.92896
400.10 2.92896
400.20 2.92896
400.30 2.92896
400.40 2.929022
400.50 2.939733
400.60 2.962141
400.70 2.999937
400.80 3.054954
400.90 3.121422
401.00 3.188975
401.10 3.249739
401.20 3.300454
401.30 3.340687
401.40 3.369609
401.50 3.387252
401.60 3.397873
401.70 3.408553
401.80 3.424689
401.90 3.448244
402.00 3.476763
402.10 3.503288
402.20 3.521566
402.30 3.529349
402.40 3.529503
402.50 3.529839
402.60 3.539343
402.70 3.563826
402.80 3.604443
402.90 3.658591
403.00 3.719298
403.10 3.776457
403.20 3.821652
403.30 3.848881
403.40 3.854395
403.50 3.854395
403.60 3.854395
403.70 3.854395
403.80 3.854395
403.90 3.854395
404.00 3.854395
404.10 3.854395
404.20 3.854395
404.30 3.854395
404.40 3.854395
404.50 3.854395
404.60 3.854395
404.70 3.854395
404.80 3.854395
404.90 3.854395
405.00 3.733174
405.10 3.632913
405.20 3.556819
405.30 3.506429
405.40 3.481003
405.50 3.47418
405.60 3.47418
405.70 3.469715
405.80 3.452276
405.90 3.417484
406.00 3.365045
406.10 3.299256
406.20 3.24036
406.30 3.196182
406.40 3.175009
406.50 3.182622
406.60 3.220344
406.70 3.280873
406.80 3.344232
406.90 3.393566
407.00 3.426173
407.10 3.442464
407.20 3.446179
407.30 3.434314
407.40 3.405707
407.50 3.359831
407.60 3.297163
407.70 3.216582
407.80 3.119866
407.90 3.008732
408.00 2.886434
408.10 2.759038
408.20 2.633082
408.30 2.51304
408.40 2.403578
408.50 2.308929
408.60 2.228775
408.70 2.158018
408.80 2.091155
408.90 2.023137
409.00 1.950516
409.10 1.87612
409.20 1.807989
409.30 1.753651
409.40 1.718372
409.50 1.704077
409.60 1.709078
409.70 1.723812
409.80 1.734696
409.90 1.742671
410.00 1.750983
410.10 1.764464
410.20 1.787391
410.30 1.823632
410.40 1.87509
410.50 1.929845
410.60 1.982687
410.70 2.02374
410.80 2.044605
410.90 2.044758
411.00 2.029705
411.10 2.005916
411.20 1.978245
411.30 1.949688
411.40 1.92508
411.50 1.910596
411.60 1.908419
411.70 1.914707
411.80 1.924139
411.90 1.93196
412.00 1.934751
412.10 1.933818
412.20 1.931252
412.30 1.926308
412.40 1.926154
412.50 1.925817
412.60 1.916314
412.70 1.89183
412.80 1.851214
412.90 1.797066
413.00 1.742687
413.10 1.700195
413.20 1.676463
413.30 1.674218
413.40 1.69354
413.50 1.715533
413.60 1.733384
413.70 1.747225
413.80 1.757642
413.90 1.765523
414.00 1.772522
414.10 1.779562
414.20 1.787004
414.30 1.795747
414.40 1.80644
414.50 1.817729
414.60 1.826838
414.70 1.831921
414.80 1.833355
414.90 1.834128
415.00 1.837865
415.10 1.846586
415.20 1.860832
415.30 1.879721
415.40 1.901137
415.50 1.922666
415.60 1.941463
415.70 1.954685
415.80 1.960583
415.90 1.960583
416.00 1.960583
416.10 1.959034
416.20 1.940487
416.30 1.904426
416.40 1.851318
416.50 1.784543
416.60 1.710807
416.70 1.638534
416.80 1.581519
416.90 1.543317
417.00 1.525305
417.10 1.525487
417.20 1.538659
417.30 1.555534
417.40 1.572424
417.50 1.589117
417.60 1.605566
417.70 1.622333
417.80 1.634798
417.90 1.639127
418.00 1.633065
418.10 1.61715
418.20 1.597324
418.30 1.585138
418.40 1.590596
418.50 1.617665
418.60 1.666116
418.70 1.731439
418.80 1.805567
418.90 1.880208
419.00 1.948327
419.10 2.004076
419.20 2.044131
419.30 2.07089
419.40 2.092784
419.50 2.118679
419.60 2.152327
419.70 2.191157
419.80 2.230785
419.90 2.267318
420.00 2.294706
420.10 2.305986
420.20 2.29666
420.30 2.264608
420.40 2.213087
420.50 2.147621
420.60 2.072372
420.70 1.993522
420.80 1.91764
420.90 1.851019
421.00 1.798519
421.10 1.761544
421.20 1.738501
421.30 1.726824
421.40 1.722511
421.50 1.719351
421.60 1.710907
421.70 1.693939
421.80 1.668372
421.90 1.636996
422.00 1.615921
422.10 1.613784
422.20 1.629533
422.30 1.659985
422.40 1.688367
422.50 1.705825
422.60 1.710483
422.70 1.710483
422.80 1.710483
422.90 1.710483
423.00 1.705318
423.10 1.698262
423.20 1.690501
423.30 1.684028
423.40 1.680588
423.50 1.681215
423.60 1.68638
423.70 1.696303
423.80 1.712929
423.90 1.739248
424.00 1.774489
424.10 1.814901
424.20 1.856529
424.30 1.895945
424.40 1.930672
424.50 1.959726
424.60 1.983071
424.70 2.000181
424.80 2.009988
424.90 2.010738
425.00 2.007002
425.10 1.998281
425.20 1.984034
425.30 1.965146
425.40 1.947967
425.50 1.935497
425.60 1.928273
425.70 1.924618
425.80 1.923348
425.90 1.923567
426.00 1.923567
426.10 1.925135
426.20 1.935128
426.30 1.957852
426.40 1.99432
426.50 2.041437
426.60 2.094809
426.70 2.149939
426.80 2.19595
426.90 2.231127
427.00 2.255228
427.10 2.270207
427.20 2.278208
427.30 2.280402
427.40 2.278768
427.50 2.275967
427.60 2.273745
427.70 2.271635
427.80 2.269318
427.90 2.268843
428.00 2.273091
428.10 2.283633
428.20 2.2985
428.30 2.311963
428.40 2.319191
428.50 2.318585
428.60 2.31045
428.70 2.296176
428.80 2.276928
428.90 2.253015
429.00 2.225095
429.10 2.194971
429.20 2.164675
429.30 2.134524
429.40 2.101766
429.50 2.061957
429.60 2.014065
429.70 1.96266
429.80 1.912485
429.90 1.867976
430.00 1.832278
430.10 1.807516
430.20 1.793915
430.30 1.789726
430.40 1.789726
430.50 1.789726
430.60 1.789726
430.70 1.789726
430.80 1.789726
430.90 1.789726
431.00 1.789726
431.10 1.789726
431.20 1.789726
431.30 1.789726
431.40 1.789726
431.50 1.789726
431.60 1.789726
431.70 1.789726
431.80 1.789726
431.90 1.796724
432.00 1.807197
432.10 1.814554
432.20 1.818219
432.30 1.816926
432.40 1.809477
432.50 1.79668
432.60 1.792021
432.70 1.792021
432.80 1.792021
432.90 1.792021
433.00 1.790858
433.10 1.783248
433.20 1.769547
433.30 1.754862
433.40 1.753263
433.50 1.765645
433.60 1.790033
433.70 1.820737
433.80 1.847909
433.90 1.860385
434.00 1.852488
434.10 1.825449
434.20 1.783422
434.30 1.735263
434.40 1.689843
434.50 1.6495
434.60 1.625555
434.70 1.626661
434.80 1.653531
434.90 1.702318
435.00 1.761347
435.10 1.825901
435.20 1.89262
435.30 1.957097
435.40 2.010041
435.50 2.045713
435.60 2.062579
435.70 2.063555
435.80 2.058928
435.90 2.058709
436.00 2.058709
436.10 2.057141
436.20 2.047148
436.30 2.024424
436.40 1.987956
436.50 1.940839
436.60 1.887467
436.70 1.832337
436.80 1.779982
436.90 1.733673
437.00 1.694976
437.10 1.663524
437.20 1.638637
437.30 1.619568
437.40 1.604312
437.50 1.600108
437.60 1.610212
437.70 1.632893
437.80 1.66607
437.90 1.705555
438.00 1.746068
438.10 1.782225
438.20 1.807965
438.30 1.817046
438.40 1.802798
438.50 1.761942
438.60 1.713405
438.70 1.658844
438.80 1.601679
438.90 1.547071
439.00 1.499683
439.10 1.461641
439.20 1.432691
439.30 1.411827
439.40 1.397729
439.50 1.388916
439.60 1.384194
439.70 1.382035
439.80 1.381699
439.90 1.381699
440.00 1.381699
440.10 1.381699
440.20 1.381699
440.30 1.381699
440.40 1.381699
440.50 1.381699
440.60 1.381699
440.70 1.381699
440.80 1.381699
440.90 1.381699
441.00 1.381699
441.10 1.381699
441.20 1.381699
441.30 1.387549
441.40 1.397729
441.50 1.407915
441.60 1.4152
441.70 1.41822
441.80 1.41822
441.90 1.411222
442.00 1.390514
442.10 1.359702
442.20 1.324576
442.30 1.292577
442.40 1.271645
442.50 1.266984
442.60 1.266984
442.70 1.272683
442.80 1.29144
442.90 1.323633
443.00 1.366644
443.10 1.414542
443.20 1.45881
443.30 1.486641
443.40 1.478808
443.50 1.443806
443.60 1.396402
443.70 1.341934
443.80 1.287719
443.90 1.241043
444.00 1.206699
444.10 1.186287
444.20 1.179243
444.30 1.179243
444.40 1.179243
444.50 1.179243
444.60 1.170734
444.70 1.147435
444.80 1.109326
444.90 1.059014
445.00 0.9999848
445.10 0.9354314
445.20 0.8687122
445.30 0.8042346
445.40 0.7470539
445.50 0.7023241
445.60 0.6738833
445.70 0.6633398
445.80 0.6633398
445.90 0.6633398
446.00 0.6633398
446.10 0.6633398
446.20 0.6633398
446.30 0.6633398
446.40 0.6633398
446.50 0.6633398
446.60 0.6633398
446.70 0.6633398
446.80 0.6633398
446.90 0.6661661
447.00 0.6727472
447.10 0.6844597
447.20 0.7015919
447.30 0.7228889
447.40 0.7458561
447.50 0.7582758
447.60 0.7536348
447.70 0.7338148
447.80 0.7035205
447.90 0.6685309
448.00 0.6339144
448.10 0.6036433
448.20 0.5817217
448.30 0.5723613
448.40 0.5783621
448.50 0.5988942
448.60 0.6144495
448.70 0.6270036
448.80 0.6403514
448.90 0.6568226
449.00 0.6757733
449.10 0.6954014
449.20 0.7130818
449.30 0.7254666
449.40 0.7302888
449.50 0.7302888
449.60 0.7302888
449.70 0.7302888
449.80 0.7302888
449.90 0.7302888
450.00 0.7302888
450.10 0.7302888
450.20 0.734675
450.30 0.7479431
450.40 0.7731053
450.50 0.8112678
450.60 0.8603626
450.70 0.9160713
450.80 0.9725425
450.90 1.024292
451.00 1.066316
451.10 1.095038
451.20 1.110335
451.30 1.10941
451.40 1.09923
451.50 1.089045
451.60 1.082466
451.70 1.080999
451.80 1.080999
451.90 1.080999
452.00 1.080999
452.10 1.080999
452.20 1.080999
452.30 1.080999
452.40 1.080999
452.50 1.091015
452.60 1.113171
452.70 1.13838
452.80 1.154949
452.90 1.158751
453.00 1.149539
453.10 1.131953
453.20 1.114559
453.30 1.106342
453.40 1.114045
453.50 1.128907
453.60 1.136536
453.70 1.136536
453.80 1.136536
453.90 1.136536
454.00 1.136536
454.10 1.136536
454.20 1.138482
454.30 1.152392
454.40 1.176938
454.50 1.207872
454.60 1.238725
454.70 1.262304
454.80 1.273024
454.90 1.273024
455.00 1.273024
455.10 1.273024
455.20 1.273024
455.30 1.273024
455.40 1.273024
455.50 1.278208
455.60 1.299073
455.70 1.332712
455.80 1.371947
455.90 1.407781
456.00 1.432484
456.10 1.441413
456.20 1.441413
456.30 1.441413
456.40 1.441413
456.50 1.441413
456.60 1.441413
456.70 1.441413
456.80 1.441413
456.90 1.438587
457.00 1.432006
457.10 1.420293
457.20 1.403161
457.30 1.381864
457.40 1.358897
457.50 1.336789
457.60 1.317099
457.70 1.299581
457.80 1.282205
457.90 1.262756
458.00 1.240185
458.10 1.214799
458.20 1.187672
458.30 1.160211
458.40 1.13502
458.50 1.114488
458.60 1.098933
458.70 1.086379
458.80 1.073031
458.90 1.05656
459.00 1.037609
459.10 1.017981
459.20 1.000301
459.30 0.9879158
459.40 0.9830936
459.50 0.9830936
459.60 0.9830936
459.70 0.9830948
459.80 0.9831467
459.90 0.9831467
460.00 0.9831467
460.10 0.9831467
460.20 0.9787604
460.30 0.9654924
460.40 0.9403301
460.50 0.9021676
460.60 0.8610837
460.70 0.8186264
460.80 0.7767234
460.90 0.7375166
461.00 0.7027783
461.10 0.6740559
461.20 0.6587594
461.30 0.6538333
461.40 0.6538333
461.50 0.6538333
461.60 0.6531268
461.70 0.6515742
461.80 0.6515742
461.90 0.6515742
462.00 0.6515742
462.10 0.6515742
462.20 0.6515742
462.30 0.6515742
462.40 0.6515742
462.50 0.6415575
462.60 0.6194013
462.70 0.5996879
462.80 0.5838124
462.90 0.5724089
463.00 0.5679853
463.10 0.5714284
463.20 0.5812849
463.30 0.5962791
463.40 0.615005
463.50 0.6353981
463.60 0.6571688
463.70 0.6796952
463.80 0.6953318
463.90 0.7054947
464.00 0.7133374
464.10 0.7223971
464.20 0.7322216
464.30 0.7326282
464.40 0.7248046
464.50 0.7125126
464.60 0.7011122
464.70 0.6957805
464.80 0.70005
464.90 0.7114403
465.00 0.7206826
465.10 0.7297525
465.20 0.740755
465.30 0.7549186
465.40 0.7717449
465.50 0.784172
465.60 0.7784649
465.70 0.7525236
465.80 0.7132889
465.90 0.6774543
466.00 0.652751
466.10 0.6438222
466.20 0.6438222
466.30 0.6438222
466.40 0.6438222
466.50 0.6438222
466.60 0.6523491
466.70 0.6699171
466.80 0.6896975
466.90 0.7042617
467.00 0.70831
467.10 0.70831
467.20 0.70831
467.30 0.70831
467.40 0.70831
467.50 0.70831
467.60 0.70831
467.70 0.70831
467.80 0.70831
467.90 0.7120337
468.00 0.7176954
468.10 0.7214898
468.20 0.7214898
468.30 0.7214898
468.40 0.7214898
468.50 0.7214898
468.60 0.7214898
468.70 0.7214898
468.80 0.7214898
468.90 0.7214898
469.00 0.7214898
469.10 0.7214898
469.20 0.7214898
469.30 0.7214898
469.40 0.7214898
469.50 0.7214898
469.60 0.7214898
469.70 0.7214886
469.80 0.7214367
469.90 0.7214367
470.00 0.7217046
470.10 0.7233738
470.20 0.7265277
470.30 0.7325441
470.40 0.7423626
470.50 0.7546577
470.60 0.7595149
470.70 0.7597319
470.80 0.7602153
470.90 0.764604
471.00 0.7754091
471.10 0.7934061
471.20 0.8093526
471.30 0.8207816
471.40 0.8256848
471.50 0.8256848
471.60 0.8256848
471.70 0.8256848
471.80 0.8256848
471.90 0.8256848
472.00 0.8256848
472.10 0.8256848
472.20 0.8256848
472.30 0.8256848
472.40 0.8256848
472.50 0.8256848
472.60 0.8292064
472.70 0.8333593
472.80 0.8414187
472.90 0.8536797
473.00 0.865702
473.10 0.8740929
473.20 0.8775601
473.30 0.8760445
473.40 0.8723777
473.50 0.8719823
473.60 0.8784309
473.70 0.8911845
473.80 0.9066958
473.90 0.9192374
474.00 0.9225086
474.10 0.9134489
474.20 0.9016792
474.30 0.8873626
474.40 0.8706401
474.50 0.8519978
474.60 0.8325448
474.70 0.814298
474.80 0.7993086
474.90 0.7879183
475.00 0.778676
475.10 0.7696061
475.20 0.7655735
475.30 0.7714706
475.40 0.7823487
475.50 0.7943999
475.60 0.8063059
475.70 0.8194499
475.80 0.8315705
475.90 0.8335592
476.00 0.8335592
476.10 0.8335592
476.20 0.8335592
476.30 0.8335592
476.40 0.8335592
476.50 0.8335592
476.60 0.8250323
476.70 0.8074644
476.80 0.7876839
476.90 0.7731198
477.00 0.7690714
477.10 0.7690714
477.20 0.7690714
477.30 0.7690714
477.40 0.7690714
477.50 0.7690714
477.60 0.7714252
477.70 0.7806622
477.80 0.7946429
477.90 0.808309
478.00 0.8226016
478.10 0.8398194
478.20 0.8602597
478.30 0.8799802
478.40 0.8999841
478.50 0.9210613
478.60 0.9436043
478.70 0.9673064
478.80 0.9914667
478.90 1.015074
479.00 1.036214
479.10 1.052859
479.20 1.063865
479.30 1.068938
479.40 1.068967
479.50 1.068967
479.60 1.068967
479.70 1.068967
479.80 1.070761
479.90 1.0766
480.00 1.087278
480.10 1.101513
480.20 1.117001
480.30 1.128352
480.40 1.131442
480.50 1.127349
480.60 1.119928
480.70 1.112022
480.80 1.106548
480.90 1.108377
481.00 1.122719
481.10 1.153348
481.20 1.202076
481.30 1.267549
481.40 1.345067
481.50 1.42564
481.60 1.497639
481.70 1.55596
481.80 1.596592
481.90 1.616337
482.00 1.616337
482.10 1.616337
482.20 1.616337
482.30 1.616337
482.40 1.616337
482.50 1.616337
482.60 1.612815
482.70 1.597468
482.80 1.569959
482.90 1.537735
483.00 1.504747
483.10 1.4716
483.20 1.439602
483.30 1.410767
483.40 1.385271
483.50 1.362322
483.60 1.342703
483.70 1.329047
483.80 1.325436
483.90 1.335344
484.00 1.359884
484.10 1.395377
484.20 1.426486
484.30 1.449418
484.40 1.461878
484.50 1.462835
484.60 1.462835
484.70 1.462835
484.80 1.462835
484.90 1.462835
485.00 1.462835
485.10 1.462835
485.20 1.455865
485.30 1.435805
485.40 1.4081
485.50 1.381266
485.60 1.362009
485.70 1.352891
485.80 1.354459
485.90 1.365987
486.00 1.377951
486.10 1.388338
486.20 1.398566
486.30 1.410316
486.40 1.424141
486.50 1.439122
486.60 1.453848
486.70 1.467042
486.80 1.477566
486.90 1.485159
487.00 1.49001
487.10 1.491711
487.20 1.491711
487.30 1.491711
487.40 1.491711
487.50 1.491711
487.60 1.489358
487.70 1.480121
487.80 1.46614
487.90 1.44875
488.00 1.4288
488.10 1.412343
488.20 1.400771
488.30 1.391831
488.40 1.381561
488.50 1.367598
488.60 1.349449
488.70 1.32812
488.80 1.304729
488.90 1.281121
489.00 1.259981
489.10 1.243336
489.20 1.23233
489.30 1.227257
489.40 1.227228
489.50 1.231747
489.60 1.242952
489.70 1.262672
489.80 1.2892
489.90 1.3179
490.00 1.343705
490.10 1.363068
490.20 1.375705
490.30 1.383448
490.40 1.387846
490.50 1.389055
490.60 1.386211
490.70 1.380649
490.80 1.371071
490.90 1.35231
491.00 1.319878
491.10 1.271252
491.20 1.206578
491.30 1.136768
491.40 1.071176
491.50 1.015005
491.60 0.9716798
491.70 0.9444124
491.80 0.9353614
491.90 0.9452846
492.00 0.9714426
492.10 0.9936716
492.20 1.012675
492.30 1.029993
492.40 1.046935
492.50 1.063616
492.60 1.079994
492.70 1.096582
492.80 1.114055
492.90 1.128832
493.00 1.141851
493.10 1.15436
493.20 1.165971
493.30 1.175231
493.40 1.180208
493.50 1.179807
493.60 1.174465
493.70 1.165073
493.80 1.151847
493.90 1.135883
494.00 1.118697
494.10 1.101686
494.20 1.087049
494.30 1.077053
494.40 1.072582
494.50 1.074093
494.60 1.074093
494.70 1.074093
494.80 1.074093
494.90 1.074093
495.00 1.074093
495.10 1.074093
495.20 1.074093
495.30 1.074093
495.40 1.074093
495.50 1.071265
495.60 1.063458
495.70 1.051734
495.80 1.038046
495.90 1.024529
496.00 1.012565
496.10 1.002178
496.20 0.9919505
496.30 0.9833392
496.40 0.9756639
496.50 0.96718
496.60 0.9566891
496.70 0.9434944
496.80 0.9329712
496.90 0.9253774
497.00 0.9205268
497.10 0.9188256
497.20 0.9188256
497.30 0.9188256
497.40 0.9188256
497.50 0.9188256
497.60 0.9188256
497.70 0.9188256
497.80 0.9188256
497.90 0.9188256
498.00 0.9188211
498.10 0.9142665
498.20 0.90772
498.30 0.9067082
498.40 0.9136365
498.50 0.9293794
498.60 0.9529354
498.70 0.9808375
498.80 1.008331
498.90 1.030055
499.00 1.042112
499.10 1.044134
499.20 1.044134
499.30 1.044134
499.40 1.044134
499.50 1.039615
499.60 1.03247
499.70 1.026339
499.80 1.019648
499.90 1.011166
500.00 1
500.10 0.9855205
500.20 0.9677631
500.30 0.9486268
500.40 0.9313204
500.50 0.9219084
500.60 0.9193057
500.70 0.9193057
500.80 0.9193057
500.90 0.9193057
501.00 0.9210132
501.10 0.9265808
501.20 0.9344831
501.30 0.9358372
501.40 0.9260422
501.50 0.9047874
501.60 0.8761137
501.70 0.8450596
501.80 0.8134785
501.90 0.7838105
502.00 0.7576525
502.10 0.7354235
502.20 0.7164196
502.30 0.6991024
502.40 0.6821603
502.50 0.665479
502.60 0.6491006
502.70 0.6406886
502.80 0.6376914
502.90 0.6358063
503.00 0.6324754
503.10 0.6274142
503.20 0.62016
503.30 0.6101777
503.40 0.5990753
503.50 0.5887712
503.60 0.5790208
503.70 0.5677907
503.80 0.553479
503.90 0.5368309
504.00 0.5183624
504.10 0.4998811
504.20 0.4834084
504.30 0.4704733
504.40 0.4624847
504.50 0.4600155
504.60 0.4600155
504.70 0.4600155
504.80 0.4600155
504.90 0.4600155
505.00 0.4600155
505.10 0.4600155
505.20 0.462493
505.30 0.4728124
505.40 0.4876295
505.50 0.5033263
505.60 0.5172426
505.70 0.528285
505.80 0.5371251
505.90 0.5471807
506.00 0.5630942
506.10 0.587923
506.20 0.6228472
506.30 0.6633118
506.40 0.7052327
506.50 0.7468123
506.60 0.7867483
506.70 0.8237605
506.80 0.8518476
506.90 0.8705539
507.00 0.8802788
507.10 0.8828178
507.20 0.8828178
507.30 0.8828178
507.40 0.8828178
507.50 0.8828178
507.60 0.8828178
507.70 0.8839687
507.80 0.8880017
507.90 0.8936195
508.00 0.8991278
508.10 0.9033457
508.20 0.9030187
508.30 0.8932497
508.40 0.8765876
508.50 0.8537309
508.60 0.8288811
508.70 0.8058713
508.80 0.7884724
508.90 0.7804316
509.00 0.7839367
509.10 0.7974726
509.20 0.8104995
509.30 0.8197423
509.40 0.8246127
509.50 0.8246127
509.60 0.8205535
509.70 0.8069638
509.80 0.7853335
509.90 0.7592763
510.00 0.733692
510.10 0.7129042
510.20 0.6993824
510.30 0.693409
510.40 0.693409
510.50 0.693409
510.60 0.693409
510.70 0.693409
510.80 0.693409
510.90 0.693409
511.00 0.6917015
511.10 0.6861338
511.20 0.6782316
511.30 0.6697842
511.40 0.662751
511.50 0.6596039
511.60 0.6596039
511.70 0.6596039
511.80 0.6596039
511.90 0.6596039
512.00 0.6596039
512.10 0.6596039
512.20 0.6596039
512.30 0.6596039
512.40 0.6596039
512.50 0.6604481
512.60 0.6689978
512.70 0.6754353
512.80 0.6791279
512.90 0.6809953
513.00 0.6819416
513.10 0.683262
513.20 0.6856699
513.30 0.6878429
513.40 0.6867006
513.50 0.6854937
513.60 0.6843571
513.70 0.6833559
513.80 0.6833559
513.90 0.6833559
514.00 0.690086
514.10 0.7063573
514.20 0.7320395
514.30 0.7655093
514.40 0.8032357
514.50 0.8405534
514.60 0.873854
514.70 0.9018118
514.80 0.9249915
514.90 0.9448475
515.00 0.9622697
515.10 0.9768815
515.20 0.9858267
515.30 0.9842688
515.40 0.9758353
515.50 0.9639375
515.60 0.9509625
515.70 0.93992
515.80 0.9310799
515.90 0.9210244
516.00 0.9051108
516.10 0.880282
516.20 0.8453578
516.30 0.8017543
516.40 0.7559714
516.50 0.7139789
516.60 0.6803103
516.70 0.6575186
516.80 0.6462628
516.90 0.6453721
517.00 0.6519506
517.10 0.6619063
517.20 0.6695303
517.30 0.6722193
517.40 0.6722193
517.50 0.6722193
517.60 0.6722193
517.70 0.6710684
517.80 0.6670354
517.90 0.6614176
518.00 0.6559093
518.10 0.6516914
518.20 0.6496962
518.30 0.6496962
518.40 0.6496962
518.50 0.6496962
518.60 0.6465956
518.70 0.6393309
518.80 0.6284667
518.90 0.6147839
519.00 0.6012989
519.10 0.5942408
519.20 0.5928549
519.30 0.5950973
519.40 0.6000208
519.50 0.6087897
519.60 0.6182598
519.70 0.6307265
519.80 0.6491157
519.90 0.6757131
520.00 0.7116405
520.10 0.7573269
520.20 0.8112587
520.30 0.8694503
520.40 0.9262969
520.50 0.9763855
520.60 1.016461
520.70 1.045859
520.80 1.06553
520.90 1.077426
521.00 1.084401
521.10 1.089966
521.20 1.096712
521.30 1.105541
521.40 1.115367
521.50 1.12339
521.60 1.127238
521.70 1.127238
521.80 1.127238
521.90 1.128568
522.00 1.135588
522.10 1.149272
522.20 1.169145
522.30 1.19394
522.40 1.221148
522.50 1.246651
522.60 1.261158
522.70 1.264857
522.80 1.259789
522.90 1.249131
523.00 1.235883
523.10 1.222089
523.20 1.209755
523.30 1.202294
523.40 1.202648
523.50 1.206299
523.60 1.212988
523.70 1.22388
523.80 1.2392
523.90 1.257923
524.00 1.270914
524.10 1.272054
524.20 1.258584
524.30 1.230144
524.40 1.192417
524.50 1.1551
524.60 1.121799
524.70 1.093841
524.80 1.070662
524.90 1.050806
525.00 1.033383
525.10 1.018772
525.20 1.010403
525.30 1.008135
525.40 1.009791
525.50 1.01323
525.60 1.017169
525.70 1.019444
525.80 1.020707
525.90 1.023372
526.00 1.028908
526.10 1.037709
526.20 1.049755
526.30 1.064515
526.40 1.079349
526.50 1.092913
526.60 1.104721
526.70 1.115803
526.80 1.128506
526.90 1.145921
527.00 1.171009
527.10 1.20404
527.20 1.241251
527.30 1.276897
527.40 1.303715
527.50 1.315841
527.60 1.315841
527.70 1.315841
527.80 1.315841
527.90 1.315841
528.00 1.315841
528.10 1.315841
528.20 1.315841
528.30 1.315841
528.40 1.315841
528.50 1.315841
528.60 1.315841
528.70 1.323025
528.80 1.340255
528.90 1.363421
529.00 1.385779
529.10 1.399068
529.20 1.403518
529.30 1.400231
529.40 1.390437
529.50 1.381668
529.60 1.372198
529.70 1.359732
529.80 1.341342
529.90 1.314745
530.00 1.278818
530.10 1.233131
530.20 1.179199
530.30 1.121008
530.40 1.064161
530.50 1.015685
530.60 0.9833808
530.70 0.966478
530.80 0.9626121
530.90 0.9685692
531.00 0.9796571
531.10 0.9892647
531.20 0.9920928
531.30 0.9861315
531.40 0.9763055
531.50 0.9682824
531.60 0.9644346
531.70 0.9644346
531.80 0.9644346
531.90 0.9631038
532.00 0.9639941
532.10 0.9650857
532.20 0.9635755
532.30 0.9559901
532.40 0.9406271
532.50 0.919786
532.60 0.8971964
532.70 0.8788849
532.80 0.8657836
532.90 0.8598837
533.00 0.8626449
533.10 0.8723825
533.20 0.8855329
533.30 0.8965664
533.40 0.9005411
533.50 0.8968907
533.60 0.8902017
533.70 0.8793091
533.80 0.8639896
533.90 0.8452666
534.00 0.8255451
534.10 0.8081338
534.20 0.7999499
534.30 0.8018371
534.40 0.8093382
534.50 0.8155343
534.60 0.8198477
534.70 0.8231774
534.80 0.826734
534.90 0.8308027
535.00 0.834629
535.10 0.8366805
535.20 0.8336262
535.30 0.8271332
535.40 0.8190934
535.50 0.8118551
535.60 0.8069755
535.70 0.8047001
535.80 0.8034372
535.90 0.8007718
536.00 0.7952364
536.10 0.7864348
536.20 0.7743893
536.30 0.7596291
536.40 0.7425075
536.50 0.7228592
536.60 0.7005485
536.70 0.6803337
536.80 0.6619605
536.90 0.6399912
537.00 0.610725
537.10 0.5743889
537.20 0.5353164
537.30 0.4995691
537.40 0.4728688
537.50 0.4607434
537.60 0.4607434
537.70 0.4621081
537.80 0.4643395
537.90 0.4667497
538.00 0.4706747
538.10 0.4789437
538.20 0.4942199
538.30 0.5179524
538.40 0.5494016
538.50 0.5858103
538.60 0.6236359
538.70 0.6517678
538.80 0.663926
538.90 0.6630932
539.00 0.6554687
539.10 0.6478734
539.20 0.6465702
539.30 0.6558261
539.40 0.6764609
539.50 0.6995233
539.60 0.7230482
539.70 0.7443654
539.80 0.7607819
539.90 0.7706612
540.00 0.7740779
540.10 0.7740779
540.20 0.7740779
540.30 0.7756171
540.40 0.7852175
540.50 0.8033842
540.60 0.8248747
540.70 0.8466159
540.80 0.8629782
540.90 0.8681582
541.00 0.8586413
541.10 0.8434695
541.20 0.8338949
541.30 0.8310275
541.40 0.8310275
541.50 0.8310275
541.60 0.8310275
541.70 0.8310275
541.80 0.832166
541.90 0.8455995
542.00 0.8575181
542.10 0.8637762
542.20 0.8630011
542.30 0.8548925
542.40 0.8430475
542.50 0.8375423
542.60 0.8370743
542.70 0.8370743
542.80 0.8370743
542.90 0.8342446
543.00 0.8256876
543.10 0.8119771
543.20 0.7961956
543.30 0.7830863
543.40 0.7767968
543.50 0.7767968
543.60 0.7767968
543.70 0.7767968
543.80 0.7767968
543.90 0.7767968
544.00 0.7767968
544.10 0.7767968
544.20 0.7727687
544.30 0.765852
544.40 0.7583508
544.50 0.7521548
544.60 0.7478413
544.70 0.7445117
544.80 0.7437335
544.90 0.7515567
545.00 0.7677558
545.10 0.7904929
545.20 0.8147663
545.30 0.8338539
545.40 0.8457771
545.50 0.8513353
545.60 0.85324
545.70 0.8548772
545.80 0.8593309
545.90 0.8680558
546.00 0.880305
546.10 0.8933948
546.20 0.9041227
546.30 0.9102311
546.40 0.9108355
546.50 0.9108355
546.60 0.9108355
546.70 0.9061493
546.80 0.9039867
546.90 0.9094256
547.00 0.9252622
547.10 0.9525839
547.20 0.9897916
547.30 1.033096
547.40 1.078144
547.50 1.119935
547.60 1.156643
547.70 1.186515
547.80 1.21169
547.90 1.235451
548.00 1.258728
548.10 1.27939
548.20 1.29369
548.30 1.298162
548.40 1.290804
548.50 1.270774
548.60 1.239146
548.70 1.20383
548.80 1.174441
548.90 1.152108
549.00 1.135296
549.10 1.121103
549.20 1.107964
549.30 1.098171
549.40 1.090535
549.50 1.083336
549.60 1.076775
549.70 1.07339
549.80 1.076216
549.90 1.087835
550.00 0.5897222
550.10 0.6809995
550.20 0.7884244
550.30 0.903156
550.40 1.01607
550.50 1.120547
550.60 1.212318
550.70 1.290408
550.80 1.358924
550.90 1.424354
551.00 1.492357
551.10 1.564685
551.20 1.638626
551.30 1.709138
551.40 1.769366
551.50 1.810311
551.60 1.825805
551.70 1.825805
551.80 1.818859
551.90 1.789129
552.00 1.739066
552.10 1.677094
552.20 1.620534
552.30 1.591966
552.40 1.594657
552.50 1.620418
552.60 1.658068
552.70 1.698805
552.80 1.735776
552.90 1.76771
553.00 1.800819
553.10 1.843478
553.20 1.900553
553.30 1.970336
553.40 2.046268
553.50 2.108227
553.60 2.147524
553.70 2.156663
553.80 2.134168
553.90 2.087418
554.00 2.017512
554.10 1.926234
554.20 1.818809
554.30 1.724404
554.40 1.661206
554.50 1.630281
554.60 1.625809
554.70 1.636402
554.80 1.647212
554.90 1.644825
555.00 1.623885
555.10 1.588785
555.20 1.551726
555.30 1.513992
555.40 1.453765
555.50 1.412819
555.60 1.397325
555.70 1.397325
555.80 1.397325
555.90 1.397325
556.00 1.397325
556.10 1.397325
556.20 1.393202
556.30 1.374051
556.40 1.352542
556.50 1.391974
556.60 1.455965
556.70 1.510369
556.80 1.546673
556.90 1.565628
557.00 1.565267
557.10 1.547272
557.20 1.516615
557.30 1.481174
557.40 1.448921
557.50 1.427445
557.60 1.426055
557.70 1.45611
557.80 1.507405
557.90 1.579462
558.00 1.678557
558.10 1.807112
558.20 1.96267
558.30 2.117216
558.40 2.250184
558.50 2.354085
558.60 2.425643
558.70 2.465991
558.80 2.481894
558.90 2.483684
559.00 2.477595
559.10 2.46424
559.20 2.439877
559.30 2.414542
559.40 2.425138
559.50 2.445842
559.60 2.479965
559.70 2.527627
559.80 2.585655
559.90 2.649172
560.00 2.718319
560.10 2.798928
560.20 2.896072
560.30 3.0121
560.40 3.135805
560.50 3.205959
560.60 3.254766
560.70 3.304441
560.80 3.348921
560.90 3.37296
561.00 3.367122
561.10 3.329409
561.20 3.276171
561.30 3.226558
561.40 3.181368
561.50 3.140885
561.60 3.102978
561.70 3.062781
561.80 3.011486
561.90 2.939429
562.00 2.840333
562.10 2.711778
562.20 2.562155
562.30 2.431156
562.40 2.326807
562.50 2.250569
562.60 2.19876
562.70 2.164191
562.80 2.135739
562.90 2.103192
563.00 2.062754
563.10 2.038881
563.20 2.026362
563.30 2.018918
563.40 2.015777
563.50 2.022619
563.60 2.034639
563.70 2.045487
563.80 2.048073
563.90 2.03711
564.00 2.006291
564.10 1.948828
564.20 1.861367
564.30 1.745339
564.40 1.610644
564.50 1.461401
564.60 1.306192
564.70 1.157283
564.80 1.028394
564.90 0.9316545
565.00 0.8741209
565.10 0.8544453
565.20 0.8544453
565.30 0.8544453
565.40 0.8544453
565.50 0.8544453
565.60 0.8544453
565.70 0.8544453
565.80 0.8544453
565.90 0.8753525
566.00 0.9221176
566.10 0.993554
566.20 1.08003
566.30 1.140626
566.40 1.167119
566.50 1.161246
566.60 1.13642
566.70 1.11521
566.80 1.124897
566.90 1.18916
567.00 1.316272
567.10 1.475964
567.20 1.662424
567.30 1.86551
567.40 2.06189
567.50 2.219842
567.60 2.324751
567.70 2.373468
567.80 2.374983
567.90 2.343505
568.00 2.305177
568.10 2.282031
568.20 2.272348
568.30 2.272348
568.40 2.272348
568.50 2.272348
568.60 2.272348
568.70 2.272348
568.80 2.272348
568.90 2.272348
569.00 2.272348
569.10 2.276108
569.20 2.287438
569.30 2.295546
569.40 2.295546
569.50 2.295546
569.60 2.295546
569.70 2.295546
569.80 2.295546
569.90 2.274639
570.00 2.227874
570.10 2.156438
570.20 2.064027
570.30 1.959558
570.40 1.85473
570.50 1.759388
570.60 1.677166
570.70 1.603913
570.80 1.52991
570.90 1.450447
571.00 1.351229
571.10 1.226348
571.20 1.07839
571.30 0.9179306
571.40 0.7618665
571.50 0.6305551
571.60 0.5394101
571.70 0.4937905
571.80 0.4902675
571.90 0.5200463
572.00 0.5584427
572.10 0.5816175
572.20 0.5882995
572.30 0.5882995
572.40 0.5882995
572.50 0.5882995
572.60 0.5882995
572.70 0.5882995
572.80 0.5882995
572.90 0.5882995
573.00 0.5882995
573.10 0.584539
573.20 0.5732095
573.30 0.5651009
573.40 0.5651009
573.50 0.5651009
573.60 0.5651009
573.70 0.5651009
573.80 0.5854099
573.90 0.6264435
574.00 0.6769595
574.10 0.7251471
574.20 0.7634216
574.30 0.790498
574.40 0.8084416
574.50 0.8196886
574.60 0.82599
574.70 0.8276298
574.80 0.8251701
574.90 0.8080843
575.00 0.7796538
575.10 0.7448429
575.20 0.7063409
575.30 0.6637139
575.40 0.6159439
575.50 0.561757
575.60 0.5018506
575.70 0.4402428
575.80 0.3816368
575.90 0.3307821
576.00 0.2951719
576.10 0.2946669
576.20 0.3206195
576.30 0.3514154
576.40 0.3699416
576.50 0.3699416
576.60 0.3699416
576.70 0.3699416
576.80 0.3699416
576.90 0.3699416
577.00 0.3699416
577.10 0.3699416
577.20 0.3905385
577.30 0.4503885
577.40 0.5464442
577.50 0.6735177
577.60 0.8235033
577.70 0.9866648
577.80 1.132917
577.90 1.254324
578.00 1.356657
578.10 1.4478
578.20 1.533327
578.30 1.612067
578.40 1.680103
578.50 1.735349
578.60 1.777416
578.70 1.806958
578.80 1.818449
578.90 1.818449
579.00 1.818449
579.10 1.818449
579.20 1.818449
579.30 1.818449
579.40 1.818449
579.50 1.818449
579.60 1.818449
579.70 1.818449
579.80 1.842381
579.90 1.891175
580.00 1.943078
580.10 1.962315
580.20 1.946652
580.30 1.915856
580.40 1.89733
580.50 1.89733
580.60 1.89733
580.70 1.89733
580.80 1.89733
580.90 1.904399
581.00 1.928407
581.10 1.963836
581.20 1.982611
581.30 1.958859
581.40 1.889793
581.50 1.775737
581.60 1.625752
581.70 1.46259
581.80 1.296029
581.90 1.133589
582.00 0.9807396
582.10 0.8414086
582.20 0.7176077
582.30 0.611791
582.40 0.5368063
582.50 0.4861875
582.60 0.4481879
582.70 0.4170058
582.80 0.4055151
582.90 0.4055151
583.00 0.4055151
583.10 0.4055151
583.20 0.4055151
583.30 0.4055151
583.40 0.4055151
583.50 0.4055151
583.60 0.4198354
583.70 0.4531724
583.80 0.4756803
583.90 0.4798383
584.00 0.4781808
584.10 0.4848588
584.20 0.5108076
584.30 0.5487077
584.40 0.5839957
584.50 0.6220934
584.60 0.6676742
584.70 0.7211466
584.80 0.7817315
584.90 0.8409073
585.00 0.8848701
585.10 0.9131905
585.20 0.9272954
585.30 0.9292682
585.40 0.9212871
585.50 0.9082694
585.60 0.9082694
585.70 0.9082694
585.80 0.9082694
585.90 0.9082694
586.00 0.9082694
586.10 0.9082694
586.20 0.9082694
586.30 0.9082694
586.40 0.9120174
586.50 0.913425
586.60 0.9074257
586.70 0.9074257
586.80 0.9074257
586.90 0.9074257
587.00 0.9074257
587.10 0.9074257
587.20 0.9074257
587.30 0.9074257
587.40 0.9074257
587.50 0.9074257
587.60 0.8931053
587.70 0.8597683
587.80 0.8133286
587.90 0.7603768
588.00 0.707345
588.10 0.65876
588.20 0.6158393
588.30 0.6052379
588.40 0.6381176
588.50 0.6872145
588.60 0.7311184
588.70 0.7537672
588.80 0.7372451
588.90 0.6710005
589.00 0.6030299
589.10 0.5392797
589.20 0.4858031
589.30 0.4477327
589.40 0.4287235
589.50 0.4287235
589.60 0.4287235
589.70 0.4287235
589.80 0.4287235
589.90 0.4287235
590.00 0.4287235
590.10 0.4287235
590.20 0.4287235
590.30 0.4287235
590.40 0.4139805
590.50 0.3966989
590.60 0.4136588
590.70 0.460567
590.80 0.5213389
590.90 0.5766655
591.00 0.6036892
591.10 0.6036892
591.20 0.6036892
591.30 0.6036892
591.40 0.6036892
591.50 0.6036892
591.60 0.6036892
591.70 0.6036892
591.80 0.6036892
591.90 0.6036892
592.00 0.6036892
592.10 0.6062209
592.20 0.6159164
592.30 0.6012492
592.40 0.5478462
592.50 0.4787962
592.60 0.4118088
592.70 0.3619121
592.80 0.3454939
592.90 0.3705703
593.00 0.3885115
593.10 0.3958379
593.20 0.3958379
593.30 0.3958379
593.40 0.3958379
593.50 0.3958379
593.60 0.3958379
593.70 0.4121217
593.80 0.4521056
593.90 0.515987
594.00 0.5986458
594.10 0.6886143
594.20 0.7703659
594.30 0.8296374
594.40 0.8581591
594.50 0.8581591
594.60 0.8368299
594.70 0.7899217
594.80 0.7291498
594.90 0.6738232
595.00 0.6467995
595.10 0.6467995
595.20 0.6467995
595.30 0.6467995
595.40 0.6467995
595.50 0.6467995
595.60 0.6467995
595.70 0.6467995
595.80 0.6467995
595.90 0.6467995
596.00 0.6467995
596.10 0.6442678
596.20 0.6345723
596.30 0.6219409
596.40 0.6071761
596.50 0.607461
596.60 0.6180408
596.70 0.6289179
596.80 0.6309498
596.90 0.6172773
597.00 0.5993361
597.10 0.5920097
597.20 0.5920097
597.30 0.5920097
597.40 0.5920097
597.50 0.5920097
597.60 0.5920097
597.70 0.5757259
597.80 0.535742
597.90 0.4718606
598.00 0.3892018
598.10 0.2992333
598.20 0.2174817
598.30 0.1582103
598.40 0.1296886
598.50 0.1296886
598.60 0.1296886
598.70 0.1555527
598.80 0.2194364
598.90 0.3096151
599.00 0.4059609
599.10 0.4863859
599.20 0.5340462
599.30 0.5409161
599.40 0.5409161
599.50 0.5409161
599.60 0.5409161
599.70 0.5409161
599.80 0.5409161
599.90 0.5409161
600.00 0
600.10 0
600.20 0
600.30 0
600.40 0
600.50 0
600.60 0
600.70 1.034567
600.80 2.555346
600.90 3.607146
601.00 3.853835
601.10 3.217
601.20 1.906409
601.30 0.2747977
601.40 0
601.50 0
601.60 0
601.70 0
601.80 0
601.90 0
602.00 0
602.10 0
602.20 0
602.30 0
602.40 0
602.50 0
602.60 0
602.70 0
602.80 0
602.90 0
603.00 0
603.10 0
603.20 0
603.30 0
603.40 0
603.50 1.346059
603.60 2.577863
603.70 3.213845
603.80 3.467755
603.90 3.483091
604.00 3.294578
604.10 3.005131
604.20 2.756132
604.30 2.577679
604.40 2.392459
604.50 2.04343
604.60 1.345666
604.70 0.2942426
604.80 0
604.90 0
605.00 0
605.10 0
605.20 0
605.30 0
605.40 0
605.50 0
605.60 0
605.70 0
605.80 0
605.90 0
606.00 0
606.10 0
606.20 0.5292774
606.30 1.775124
606.40 2.797731
606.50 3.394438
606.60 3.618901
606.70 3.685512
606.80 3.667908
606.90 3.47535
607.00 3.08998
607.10 2.618223
607.20 2.194535
607.30 1.9431
607.40 1.928283
607.50 2.045699
607.60 2.14586
607.70 2.143201
607.80 2.063868
607.90 1.991714
608.00 1.917991
608.10 1.741518
608.20 1.504384
608.30 1.353949
608.40 1.362584
608.50 1.491079
608.60 1.62085
608.70 1.670428
608.80 1.627443
608.90 1.563379
609.00 1.520596
609.10 1.389468
609.20 0.9576437
609.30 0.06148714
609.40 0
609.50 0
609.60 0
609.70 0
609.80 0
609.90 0
610.00 0
610.10 0
610.20 0
610.30 0
610.40 0
610.50 0
610.60 0
610.70 0
610.80 0
610.90 0
611.00 0
611.10 0
611.20 0
611.30 0
611.40 0
611.50 0
611.60 0
611.70 0
611.80 0
611.90 0.2950078
612.00 0.8468418
612.10 1.490184
612.20 2.004071
612.30 2.235204
612.40 2.174789
612.50 1.810982
612.60 1.148538
612.70 0.2539657
612.80 0
612.90 0
613.00 0
613.10 0
613.20 0
613.30 0.6871366
613.40 2.22565
613.50 3.502887
613.60 4.331636
613.70 4.595311
613.80 4.277521
613.90 3.560155
614.00 2.709888
614.10 1.939832
614.20 1.399358
614.30 1.130415
614.40 1.062862
614.50 1.099223
614.60 1.137916
614.70 1.103944
614.80 0.978906
614.90 0.8472416
615.00 0.9607819
615.10 1.55322
615.20 2.615936
615.30 3.84075
615.40 4.899884
615.50 5.713698
615.60 6.28764
615.70 6.567011
615.80 6.46623
615.90 5.984766
616.00 5.260734
616.10 4.536065
616.20 4.031308
616.30 3.846143
616.40 3.868333
616.50 3.90229
616.60 3.868157
616.70 3.866596
616.80 3.939482
616.90 3.954508
617.00 3.791154
617.10 3.415216
617.20 2.926122
617.30 2.540083
617.40 2.517604
617.50 2.991142
617.60 3.904665
617.70 5.003621
617.80 5.959861
617.90 6.542039
618.00 6.609635
618.10 6.215476
618.20 5.609609
618.30 4.998576
618.40 4.472218
618.50 4.120347
618.60 3.995352
618.70 3.958679
618.80 3.767698
618.90 3.310753
619.00 2.644687
619.10 1.930267
619.20 1.333734
619.30 0.9474414
619.40 0.7775967
619.50 0.6887593
619.60 0.4936471
619.70 0.1687186
619.80 0
619.90 0
620.00 0
620.10 0
620.20 0
620.30 0
620.40 0
620.50 0
620.60 0
620.70 0
620.80 1.546832
620.90 3.186896
621.00 4.574059
621.10 5.392666
621.20 5.489158
621.30 5.031058
621.40 4.358147
621.50 3.734583
621.60 3.29099
621.70 3.091615
621.80 3.04617
621.90 3.047422
622.00 3.00174
622.10 2.758265
622.20 2.275714
622.30 1.603919
622.40 0.8712206
622.50 0.2707701
622.60 0
622.70 0
622.80 0.09285409
622.90 0.4801877
623.00 0.9925506
623.10 1.532527
623.20 1.996622
623.30 2.322341
623.40 2.587229
623.50 2.913369
623.60 3.282479
623.70 3.614233
623.80 3.816398
623.90 3.855253
624.00 3.777313
624.10 3.687651
624.20 3.674188
624.30 3.759162
624.40 3.876483
624.50 3.969375
624.60 3.978625
624.70 3.872989
624.80 3.620127
624.90 3.183276
625.00 2.624217
625.10 2.090823
625.20 1.781477
625.30 1.760142
625.40 1.931546
625.50 2.132956
625.60 2.313086
625.70 2.517584
625.80 2.756734
625.90 2.997902
626.00 3.268511
626.10 3.553674
626.20 3.715677
626.30 3.727709
626.40 3.698557
626.50 3.719921
626.60 3.800362
626.70 3.93582
626.80 4.166548
626.90 4.404878
627.00 4.381391
627.10 3.918801
627.20 3.075787
627.30 2.046555
627.40 1.021839
627.50 0.2183301
627.60 0
627.70 0.1680609
627.80 0.9750439
627.90 2.125486
628.00 3.268641
628.10 4.038597
628.20 4.222284
628.30 3.897652
628.40 3.295745
628.50 2.632954
628.60 2.064711
628.70 1.60887
628.80 1.205437
628.90 0.8271474
629.00 0.4914046
629.10 0.2511034
629.20 0.2415166
629.30 0.5088559
629.40 0.9267698
629.50 1.369575
629.60 1.489721
629.70 0.8093304
629.80 0
629.90 0
630.00 0
630.10 0
630.20 0
630.30 0
630.40 0
630.50 0
630.60 1.695683
630.70 4.060072
630.80 5.440516
630.90 5.787923
631.00 5.41922
631.10 4.929649
631.20 4.76551
631.30 5.063027
631.40 5.677498
631.50 6.355951
631.60 6.877715
631.70 7.100551
631.80 7.023641
631.90 6.859267
632.00 6.844345
632.10 7.040886
632.20 7.441451
632.30 7.990944
632.40 8.616677
632.50 9.162402
632.60 9.3351
632.70 8.99554
632.80 8.281077
632.90 7.39669
633.00 6.458832
633.10 5.542819
633.20 4.723102
633.30 4.080225
633.40 3.605954
633.50 3.269894
633.60 3.099677
633.70 3.125532
633.80 3.280585
633.90 3.491651
634.00 3.759794
634.10 4.038009
634.20 4.250547
634.30 4.337057
634.40 4.352568
634.50 4.447726
634.60 4.772432
634.70 5.433832
634.80 6.487222
634.90 7.794671
635.00 9.045445
635.10 9.890471
635.20 10.05692
635.30 9.478644
635.40 8.333864
635.50 6.92669
635.60 5.61815
635.70 4.751821
635.80 4.460258
635.90 4.729431
636.00 5.363769
636.10 5.932658
636.20 6.105387
636.30 5.84852
636.40 5.273686
636.50 4.55786
636.60 3.934063
636.70 3.60722
636.80 3.580215
636.90 3.710216
637.00 3.815261
637.10 3.776675
637.20 3.605702
637.30 3.306259
637.40 3.042819
637.50 3.138751
637.60 3.706454
637.70 4.60734
637.80 5.670085
637.90 6.712629
638.00 7.497187
638.10 7.820162
638.20 7.723755
638.30 7.389753
638.40 6.890864
638.50 6.246168
638.60 5.541386
638.70 4.936048
638.80 4.525889
638.90 4.348092
639.00 4.426132
639.10 4.745269
639.20 5.194503
639.30 5.647269
639.40 6.09221
639.50 6.552721
639.60 7.012861
639.70 7.416383
639.80 7.730101
639.90 7.97684
640.00 8.171603
640.10 8.327024
640.20 8.457674
640.30 8.536539
640.40 8.510619
640.50 8.371395
640.60 8.165791
640.70 7.897717
640.80 7.523353
640.90 7.031088
641.00 6.443579
641.10 5.88418
641.20 5.516562
641.30 5.418897
641.40 5.612223
641.50 6.003719
641.60 6.490254
641.70 7.089796
641.80 7.81962
641.90 8.542711
642.00 9.072945
642.10 9.3795
642.20 9.505408
642.30 9.472126
642.40 9.298308
642.50 9.017341
642.60 8.709441
642.70 8.441967
642.80 8.221945
642.90 8.10979
643.00 8.115984
643.10 8.118499
643.20 8.010866
643.30 7.779986
643.40 7.436421
643.50 6.976568
643.60 6.438381
643.70 5.915298
643.80 5.535703
643.90 5.387372
644.00 5.498197
644.10 5.887231
644.20 6.566553
644.30 7.46275
644.40 8.465346
644.50 9.443112
644.60 10.2041
644.70 10.63476
644.80 10.79192
644.90 10.68654
645.00 10.31178
645.10 9.803104
645.20 9.307039
645.30 8.920236
645.40 8.701908
645.50 8.669986
645.60 8.771822
645.70 8.923798
645.80 9.056177
645.90 9.184467
646.00 9.403048
646.10 9.643646
646.20 9.698369
646.30 9.533262
646.40 9.243425
646.50 8.913724
646.60 8.641019
646.70 8.494999
646.80 8.488598
646.90 8.542174
647.00 8.514756
647.10 8.362746
647.20 8.10523
647.30 7.627918
647.40 6.867472
647.50 6.039648
647.60 5.427379
647.70 5.183616
647.80 5.355915
647.90 5.87843
648.00 6.578466
648.10 7.290826
648.20 7.932096
648.30 8.464908
648.40 8.919486
648.50 9.304904
648.60 9.65239
648.70 10.09249
648.80 10.66292
648.90 11.30413
649.00 11.93961
649.10 12.48256
649.20 12.90479
649.30 13.25586
649.40 13.55325
649.50 13.79595
649.60 13.99047
649.70 14.1609
649.80 14.28851
649.90 14.30363
650.00 14.09821
650.10 13.60475
650.20 12.87129
650.30 11.96637
650.40 11.01914
650.50 10.23893
650.60 9.776592
650.70 9.620269
650.80 9.723185
650.90 10.0264
651.00 10.40696
651.10 10.75884
651.20 11.08926
651.30 11.42694
651.40 11.77507
651.50 12.16467
651.60 12.63706
651.70 13.23674
651.80 13.92718
651.90 14.54684
652.00 14.93755
652.10 15.05025
652.20 14.89868
652.30 14.52697
652.40 14.03595
652.50 13.53145
652.60 13.08623
652.70 12.72221
652.80 12.36526
652.90 11.90063
653.00 11.27312
653.10 10.49991
653.20 9.705757
653.30 9.1052
653.40 8.846274
653.50 8.941328
653.60 9.329783
653.70 9.893446
653.80 10.45749
653.90 10.88847
654.00 11.06962
654.10 10.99171
654.20 10.83705
654.30 10.79937
654.40 10.95177
654.50 11.32704
654.60 11.90564
654.70 12.60724
654.80 13.38006
654.90 14.20741
655.00 15.02245
655.10 15.66518
655.20 16.01281
655.30 16.03243
655.40 15.77563
655.50 15.29177
655.60 14.6213
655.70 13.9131
655.80 13.41076
655.90 13.2799
656.00 13.55502
656.10 14.14949
656.20 14.82891
656.30 15.40963
656.40 15.84216
656.50 16.13874
656.60 16.31723
656.70 16.3467
656.80 16.19988
656.90 15.86579
657.00 15.33634
657.10 14.60494
657.20 13.70702
657.30 12.76404
657.40 11.83851
657.50 11.04831
657.60 10.65518
657.70 10.73828
657.80 11.20377
657.90 11.97295
658.00 12.9504
658.10 13.98121
658.20 14.85878
658.30 15.43933
658.40 15.7199
658.50 15.79566
658.60 15.76326
658.70 15.64264
658.80 15.52955
658.90 15.53608
659.00 15.64558
659.10 15.80701
659.20 15.95139
659.30 16.01679
659.40 15.98921
659.50 15.91058
659.60 15.8789
659.70 15.99339
659.80 16.27822
659.90 16.62594
660.00 16.90133
660.10 17.10045
660.20 17.25305
660.30 17.3059
660.40 17.14481
660.50 16.72145
660.60 16.15608
660.70 15.64236
660.80 15.3553
660.90 15.40555
661.00 15.80027
661.10 16.46787
661.20 17.24416
661.30 17.9561
661.40 18.46508
661.50 18.62843
661.60 18.4013
661.70 17.87017
661.80 17.24467
661.90 16.74205
662.00 16.47241
662.10 16.47192
662.20 16.71075
662.30 17.13197
662.40 17.68624
662.50 18.30915
662.60 18.92547
662.70 19.47096
662.80 19.85087
662.90 19.96614
663.00 19.74524
663.10 19.18397
663.20 18.39864
663.30 17.56219
663.40 16.90677
663.50 16.63905
663.60 16.76377
663.70 17.14762
663.80 17.67749
663.90 18.27013
664.00 18.80184
664.10 19.13507
664.20 19.26639
664.30 19.2662
664.40 19.21633
664.50 19.1469
664.60 19.00189
664.70 18.78231
664.80 18.43873
664.90 17.84203
665.00 17.03578
665.10 16.26223
665.20 15.72507
665.30 15.50531
665.40 15.61877
665.50 16.04089
665.60 16.6485
665.70 17.25727
665.80 17.73662
665.90 18.09364
666.00 18.40812
666.10 18.69692
666.20 18.96019
666.30 19.26944
666.40 19.70397
666.50 20.1831
666.60 20.54257
666.70 20.67472
666.80 20.59968
666.90 20.435
667.00 20.32149
667.10 20.38972
667.20 20.68862
667.30 21.11261
667.40 21.50523
667.50 21.7891
667.60 21.9454
667.70 21.95984
667.80 21.80661
667.90 21.56091
668.00 21.34849
668.10 21.30008
668.20 21.51666
668.30 21.97353
668.40 22.51008
668.50 22.95514
668.60 23.20283
668.70 23.2395
668.80 23.05643
668.90 22.61986
669.00 22.00127
669.10 21.34919
669.20 20.80157
669.30 20.35569
669.40 19.9743
669.50 19.66596
669.60 19.4161
669.70 19.20973
669.80 19.04429
669.90 18.891
670.00 18.73412
670.10 18.59516
670.20 18.49446
670.30 18.35554
670.40 18.02401
670.50 17.42926
670.60 16.63527
670.70 15.83856
670.80 15.19028
670.90 14.73109
671.00 14.53242
671.10 14.69951
671.20 15.30275
671.30 16.30289
671.40 17.55792
671.50 18.86375
671.60 20.05263
671.70 21.06899
671.80 21.87634
671.90 22.44191
672.00 22.74375
672.10 22.8052
672.20 22.75441
672.30 22.73074
672.40 22.77598
672.50 22.84718
672.60 22.87782
672.70 22.8431
672.80 22.75233
672.90 22.65118
673.00 22.56103
673.10 22.49643
673.20 22.52982
673.30 22.67862
673.40 22.90458
673.50 23.14876
673.60 23.33697
673.70 23.41186
673.80 23.30908
673.90 23.02008
674.00 22.65096
674.10 22.37604
674.20 22.38189
674.30 22.75817
674.40 23.40506
674.50 24.1129
674.60 24.70078
674.70 25.07082
674.80 25.17942
674.90 24.9959
675.00 24.60327
675.10 24.22284
675.20 24.15004
675.30 24.5524
675.40 25.37941
675.50 26.48806
675.60 27.6467
675.70 28.57404
675.80 29.10505
675.90 29.21885
676.00 28.94257
676.10 28.36334
676.20 27.66336
676.30 27.08569
676.40 26.76479
676.50 26.68136
676.60 26.73895
676.70 26.89546
676.80 27.19888
676.90 27.6236
677.00 28.04587
677.10 28.37784
677.20 28.64471
677.30 28.92479
677.40 29.2614
677.50 29.60906
677.60 29.86667
677.70 29.88169
677.80 29.54456
677.90 28.90255
678.00 28.10051
678.10 27.28745
678.20 26.56765
678.30 26.05157
678.40 25.87036
678.50 26.07302
678.60 26.50303
678.70 26.89645
678.80 27.03657
678.90 26.83506
679.00 26.30271
679.10 25.5545
679.20 24.79481
679.30 24.14991
679.40 23.67419
679.50 23.39424
679.60 23.32362
679.70 23.42573
679.80 23.58916
679.90 23.71671
680.00 23.83654
680.10 24.0378
680.20 24.3699
680.30 24.76297
680.40 25.07434
680.50 25.2393
680.60 25.22633
680.70 25.06212
680.80 24.83546
680.90 24.68876
681.00 24.77927
681.10 25.16132
681.20 25.79696
681.30 26.58646
681.40 27.3868
681.50 28.0326
681.60 28.41507
681.70 28.54188
681.80 28.46825
681.90 28.24279
682.00 27.93605
682.10 27.64504
682.20 27.47652
682.30 27.40236
682.40 27.27979
682.50 27.01484
682.60 26.59038
682.70 26.0761
682.80 25.4963
682.90 24.79936
683.00 23.9244
683.10 22.9547
683.20 22.14291
683.30 21.63557
683.40 21.45367
683.50 21.59637
683.60 21.97334
683.70 22.44988
683.80 22.89328
683.90 23.24643
684.00 23.52872
684.10 23.74098
684.20 23.93201
684.30 24.1813
684.40 24.56329
684.50 25.01114
684.60 25.35213
684.70 25.5078
684.80 25.45556
684.90 25.1528
685.00 24.57064
685.10 23.81002
685.20 23.06902
685.30 22.47954
685.40 22.04215
685.50 21.68206
685.60 21.35881
685.70 21.08372
685.80 20.87604
685.90 20.7418
686.00 20.55639
686.10 20.13758
686.20 19.44919
686.30 18.63006
686.40 17.90766
686.50 17.44648
686.60 17.37554
686.70 17.78917
686.80 18.73926
686.90 20.18789
687.00 21.89045
687.10 23.50192
687.20 24.6648
687.30 25.12586
687.40 24.88313
687.50 24.09307
687.60 22.94151
687.70 21.59525
687.80 20.2619
687.90 19.23076
688.00 18.64936
688.10 18.51779
688.20 18.75658
688.30 19.25793
688.40 19.92095
688.50 20.58562
688.60 21.10052
688.70 21.37555
688.80 21.45498
688.90 21.5421
689.00 21.8221
689.10 22.34044
689.20 22.97036
689.30 23.46169
689.40 23.6532
689.50 23.52939
689.60 23.1131
689.70 22.42946
689.80 21.61428
689.90 20.93184
690.00 20.61176
690.10 20.74839
690.20 21.23402
690.30 21.80147
690.40 22.22166
690.50 22.38364
690.60 22.26676
690.70 21.93267
690.80 21.45108
690.90 20.80098
691.00 19.99513
691.10 19.1598
691.20 18.38942
691.30 17.71802
691.40 17.20389
691.50 16.93874
691.60 17.0189
691.70 17.51331
691.80 18.33513
691.90 19.24829
692.00 20.00167
692.10 20.40397
692.20 20.38471
692.30 20.06255
692.40 19.67001
692.50 19.35814
692.60 19.22615
692.70 19.33266
692.80 19.65245
692.90 20.11264
693.00 20.59464
693.10 20.9555
693.20 21.11006
693.30 21.09178
693.40 21.04087
693.50 21.10028
693.60 21.2864
693.70 21.5238
693.80 21.75645
693.90 21.98158
694.00 22.22863
694.10 22.58585
694.20 23.05844
694.30 23.48654
694.40 23.73267
694.50 23.72038
694.60 23.41034
694.70 22.82971
694.80 22.11247
694.90 21.47047
695.00 21.10124
695.10 21.10084
695.20 21.42687
695.30 21.98729
695.40 22.66504
695.50 23.25023
695.60 23.58419
695.70 23.68967
695.80 23.62067
695.90 23.45151
696.00 23.31218
696.10 23.3124
696.20 23.44845
696.30 23.60271
696.40 23.69177
696.50 23.6835
696.60 23.58647
696.70 23.46308
696.80 23.34565
696.90 23.26156
697.00 23.26121
697.10 23.32265
697.20 23.39462
697.30 23.47168
697.40 23.56152
697.50 23.67392
697.60 23.76834
697.70 23.81303
697.80 23.82784
697.90 23.86232
698.00 23.94622
698.10 24.01628
698.20 24.00702
698.30 23.87824
698.40 23.66166
698.50 23.48225
698.60 23.46281
698.70 23.61518
698.80 23.85322
698.90 24.08489
699.00 24.29161
699.10 24.46815
699.20 24.5686
699.30 24.58043
699.40 24.51011
699.50 24.37206
699.60 24.2395
699.70 24.25338
699.80 24.48157
699.90 24.86886
700.00 25.29399
700.10 25.64887
700.20 25.88578
700.30 25.94153
700.40 25.7571
700.50 25.34762
700.60 24.80643
700.70 24.32739
700.80 24.09351
700.90 24.20428
701.00 24.64946
701.10 25.30308
701.20 26.04363
701.30 26.78973
701.40 27.47938
701.50 28.04651
701.60 28.42612
701.70 28.63075
701.80 28.69235
701.90 28.62239
702.00 28.45422
702.10 28.10261
702.20 27.47565
702.30 26.70232
702.40 26.03572
702.50 25.69993
702.60 25.8474
702.70 26.54173
702.80 27.70404
702.90 29.18562
703.00 30.825
703.10 32.34463
703.20 33.48498
703.30 34.1452
703.40 34.34337
703.50 34.23394
703.60 34.01779
703.70 33.76702
703.80 33.50029
703.90 33.28146
704.00 33.1115
704.10 32.86897
704.20 32.48637
704.30 32.03617
704.40 31.64901
704.50 31.48808
704.60 31.65974
704.70 32.15914
704.80 32.86229
704.90 33.51715
705.00 33.88624
705.10 33.90339
705.20 33.60645
705.30 33.07704
705.40 32.47765
705.50 31.95631
705.60 31.52726
705.70 31.16435
705.80 30.85733
705.90 30.58951
706.00 30.36594
706.10 30.20993
706.20 30.11013
706.30 30.11049
706.40 30.33979
706.50 30.85944
706.60 31.61299
706.70 32.44393
706.80 33.12342
706.90 33.53492
707.00 33.76762
707.10 33.87817
707.20 33.83825
707.30 33.67978
707.40 33.49104
707.50 33.35528
707.60 33.37869
707.70 33.65818
707.80 34.19807
707.90 34.91025
708.00 35.65077
708.10 36.29413
708.20 36.76009
708.30 37.042
708.40 37.15838
708.50 37.09978
708.60 36.87172
708.70 36.50436
708.80 36.0373
708.90 35.5316
709.00 35.08452
709.10 34.7632
709.20 34.55774
709.30 34.43858
709.40 34.41097
709.50 34.47267
709.60 34.60733
709.70 34.74525
709.80 34.77721
709.90 34.64071
710.00 34.32267
710.10 33.86531
710.20 33.33894
710.30 32.83021
710.40 32.45071
710.50 32.33254
710.60 32.56702
710.70 33.11346
710.80 33.81971
710.90 34.48897
711.00 34.93117
711.10 35.04562
711.20 34.81683
711.30 34.30065
711.40 33.68638
711.50 33.20747
711.60 33.04061
711.70 33.3187
711.80 34.12306
711.90 35.37793
712.00 36.8571
712.10 38.27793
712.20 39.35722
712.30 39.89071
712.40 39.83503
712.50 39.28523
712.60 38.42768
712.70 37.51706
712.80 36.75715
712.90 36.28599
713.00 36.20436
713.10 36.43857
713.20 36.76182
713.30 36.97036
713.40 36.96014
713.50 36.76104
713.60 36.46105
713.70 36.18173
713.80 36.01152
713.90 36.00119
714.00 36.16243
714.10 36.42226
714.20 36.69068
714.30 36.88047
714.40 36.96449
714.50 37.01146
714.60 37.08207
714.70 37.17268
714.80 37.26094
714.90 37.33349
715.00 37.40898
715.10 37.47961
715.20 37.59466
715.30 37.80869
715.40 38.09219
715.50 38.43144
715.60 38.79743
715.70 39.13558
715.80 39.36448
715.90 39.40428
716.00 39.23177
716.10 38.92477
716.20 38.64182
716.30 38.51007
716.40 38.60326
716.50 38.93389
716.60 39.35597
716.70 39.66603
716.80 39.76733
716.90 39.64618
717.00 39.35045
717.10 38.94647
717.20 38.5218
717.30 38.19414
717.40 38.03694
717.50 38.0855
717.60 38.35147
717.70 38.80508
717.80 39.38936
717.90 40.01472
718.00 40.54694
718.10 40.87495
718.20 40.97336
718.30 40.86705
718.40 40.62454
718.50 40.33738
718.60 40.01721
718.70 39.59977
718.80 39.10441
718.90 38.62775
719.00 38.26289
719.10 38.0742
719.20 38.08138
719.30 38.29669
719.40 38.72331
719.50 39.29206
719.60 39.83835
719.70 40.18759
719.80 40.18535
719.90 39.79126
720.00 39.12013
720.10 38.41551
720.20 37.93107
720.30 37.8464
720.40 38.22719
720.50 38.95295
720.60 39.79513
720.70 40.51664
720.80 40.99103
720.90 41.21549
721.00 41.23414
721.10 41.07089
721.20 40.74804
721.30 40.32431
721.40 39.89942
721.50 39.58739
721.60 39.44569
721.70 39.44378
721.80 39.52113
721.90 39.66577
722.00 39.88764
722.10 40.23523
722.20 40.79295
722.30 41.53519
722.40 42.29608
722.50 42.97994
722.60 43.59438
722.70 44.11728
722.80 44.46911
722.90 44.54109
723.00 44.3009
723.10 43.81458
723.20 43.19584
723.30 42.59198
723.40 42.17768
723.50 41.96992
723.60 41.68799
723.70 41.07759
723.80 40.21277
723.90 39.24034
724.00 38.12039
724.10 36.72595
724.20 35.05179
724.30 33.40561
724.40 32.26449
724.50 31.92119
724.60 32.44524
724.70 33.80441
724.80 35.78241
724.90 38.09626
725.00 40.55736
725.10 42.97279
725.20 45.00341
725.30 46.27666
725.40 46.72282
725.50 46.66909
725.60 46.50175
725.70 46.27615
725.80 45.82597
725.90 45.10527
726.00 44.24945
726.10 43.41742
726.20 42.77739
726.30 42.44948
726.40 42.45151
726.50 42.75118
726.60 43.28753
726.70 43.96569
726.80 44.57123
726.90 44.81598
727.00 44.61589
727.10 44.03702
727.20 43.13511
727.30 41.97436
727.40 40.67977
727.50 39.58941
727.60 39.08857
727.70 39.35056
727.80 40.3525
727.90 41.89069
728.00 43.55376
728.10 44.89369
728.20 45.69924
728.30 45.95329
728.40 45.6696
728.50 44.99696
728.60 44.24002
728.70 43.77752
728.80 43.86325
728.90 44.42527
729.00 45.24941
729.10 46.2258
729.20 47.30165
729.30 48.33671
729.40 49.231
729.50 49.96938
729.60 50.46123
729.70 50.5407
729.80 50.08597
729.90 49.21287
730.00 48.14481
730.10 47.05838
730.20 46.15197
730.30 45.60586
730.40 45.50475
730.50 45.77709
730.60 46.24974
730.70 46.77646
730.80 47.25362
730.90 47.49281
731.00 47.35447
731.10 46.83354
731.20 45.93293
731.30 44.70035
731.40 43.43073
731.50 42.50934
731.60 42.17164
731.70 42.48513
731.80 43.31505
731.90 44.41979
732.00 45.57099
732.10 46.59879
732.20 47.25459
732.30 47.32024
732.40 46.70366
732.50 45.55075
732.60 44.32941
732.70 43.44477
732.80 43.01481
732.90 43.05467
733.00 43.52939
733.10 44.32107
733.20 45.29763
733.30 46.28904
733.40 47.02775
733.50 47.29489
733.60 47.13163
733.70 46.75983
733.80 46.38356
733.90 46.14071
734.00 46.1001
734.10 46.2196
734.20 46.43637
734.30 46.70101
734.40 46.951
734.50 47.15776
734.60 47.31667
734.70 47.47042
734.80 47.7415
734.90 48.13458
735.00 48.49055
735.10 48.69645
735.20 48.81708
735.30 48.91782
735.40 48.86806
735.50 48.48069
735.60 47.64629
735.70 46.37323
735.80 44.87547
735.90 43.43057
736.00 42.26224
736.10 41.55573
736.20 41.33646
736.30 41.4889
736.40 41.91524
736.50 42.44797
736.60 42.61908
736.70 42.0024
736.80 40.76732
736.90 39.54938
737.00 38.93067
737.10 39.19558
737.20 40.25857
737.30 41.80614
737.40 43.43656
737.50 44.71109
737.60 45.33529
737.70 45.25483
737.80 44.5351
737.90 43.38288
738.00 42.25211
738.10 41.56033
738.20 41.36735
738.30 41.50594
738.40 41.85146
738.50 42.35627
738.60 43.03299
738.70 43.86339
738.80 44.75419
738.90 45.54998
739.00 46.07255
739.10 46.18582
739.20 45.9152
739.30 45.34115
739.40 44.51518
739.50 43.55065
739.60 42.53024
739.70 41.51388
739.80 40.62117
739.90 39.96158
740.00 39.57887
740.10 39.50096
740.20 39.73288
740.30 40.18367
740.40 40.67201
740.50 41.02687
740.60 41.05828
740.70 40.75029
740.80 40.30392
740.90 39.86085
741.00 39.50651
741.10 39.29367
741.20 39.26066
741.30 39.48618
741.40 39.95102
741.50 40.5076
741.60 41.00895
741.70 41.39501
741.80 41.65211
741.90 41.74204
742.00 41.62735
742.10 41.23624
742.20 40.5485
742.30 39.63011
742.40 38.56383
742.50 37.53338
742.60 36.75636
742.70 36.36162
742.80 36.41044
742.90 36.88614
743.00 37.70043
743.10 38.68751
743.20 39.70442
743.30 40.70943
743.40 41.72617
743.50 42.74426
743.60 43.62003
743.70 44.25472
743.80 44.71751
743.90 45.01596
744.00 44.95472
744.10 44.29205
744.20 42.9815
744.30 41.22541
744.40 39.2854
744.50 37.42071
744.60 35.86543
744.70 34.75204
744.80 34.13362
744.90 34.0448
745.00 34.48141
745.10 35.30936
745.20 36.26731
745.30 37.13451
745.40 37.8453
745.50 38.40004
745.60 38.76606
745.70 38.86249
745.80 38.68441
745.90 38.35411
746.00 37.98175
746.10 37.61576
746.20 37.26457
746.30 36.86839
746.40 36.37409
746.50 35.82116
746.60 35.27394
746.70 34.70608
746.80 34.14302
746.90 33.88369
747.00 34.17579
747.10 35.04698
747.20 36.41008
747.30 38.00567
747.40 39.49498
747.50 40.54146
747.60 40.77475
747.70 40.04475
747.80 38.57548
747.90 36.74149
748.00 34.96476
748.10 33.70996
748.20 33.24625
748.30 33.40391
748.40 33.93613
748.50 34.65809
748.60 35.34179
748.70 35.80873
748.80 35.91559
748.90 35.6342
749.00 35.14502
749.10 34.642
749.20 34.16806
749.30 33.697
749.40 33.21772
749.50 32.79428
749.60 32.51276
749.70 32.39422
749.80 32.40674
749.90 32.50562
750.00 32.60125
750.10 32.61192
750.20 32.53225
750.30 32.39675
750.40 32.23759
750.50 32.11012
750.60 32.13049
750.70 32.43941
750.80 33.07744
750.90 33.89525
751.00 34.66933
751.10 35.26096
751.20 35.53367
751.30 35.36439
751.40 34.79909
751.50 33.98681
751.60 33.042
751.70 31.99645
751.80 30.88892
751.90 29.71357
752.00 28.30873
752.10 26.43029
752.20 24.08199
752.30 21.59605
752.40 19.39834
752.50 17.85542
752.60 17.15589
752.70 17.4232
752.80 18.63387
752.90 20.44766
753.00 22.46057
753.10 24.40126
753.20 26.04142
753.30 27.18758
753.40 27.86454
753.50 28.32105
753.60 28.68774
753.70 28.89041
753.80 28.85321
753.90 28.55393
754.00 28.10209
754.10 27.59595
754.20 27.06628
754.30 26.68961
754.40 26.65364
754.50 26.98142
754.60 27.58081
754.70 28.332
754.80 29.05449
754.90 29.51269
755.00 29.50267
755.10 28.92039
755.20 27.79716
755.30 26.24366
755.40 24.48262
755.50 22.84847
755.60 21.64766
755.70 21.03419
755.80 21.09513
755.90 21.82721
756.00 22.99524
756.10 24.21528
756.20 25.10549
756.30 25.44702
756.40 25.30751
756.50 24.83951
756.60 24.11341
756.70 23.13923
756.80 21.84398
756.90 20.27655
757.00 18.67277
757.10 17.39293
757.20 16.67489
757.30 16.54457
757.40 16.93912
757.50 17.69348
757.60 18.63262
757.70 19.56089
757.80 20.22632
757.90 20.453
758.00 20.13909
758.10 19.34005
758.20 18.34207
758.30 17.36858
758.40 16.52859
758.50 15.85388
758.60 15.37848
758.70 15.15515
758.80 15.24926
758.90 15.78927
759.00 16.8079
759.10 18.06317
759.20 19.01387
759.30 19.16029
759.40 18.40068
759.50 17.00509
759.60 15.47047
759.70 14.19108
759.80 13.35919
759.90 13.31541
760.00 14.23316
760.10 15.78666
760.20 17.52418
760.30 19.11868
760.40 20.31896
760.50 21.00144
760.60 21.29257
760.70 21.39216
760.80 21.35432
760.90 21.02433
761.00 20.05383
761.10 18.36944
761.20 16.29809
761.30 13.95992
761.40 11.51121
761.50 9.482039
761.60 8.313381
761.70 8.127478
761.80 8.733889
761.90 9.709556
762.00 10.54802
762.10 10.89479
762.20 10.67948
762.30 10.00488
762.40 9.047223
762.50 7.988019
762.60 6.960966
762.70 6.130373
762.80 5.616209
762.90 5.355748
763.00 5.250794
763.10 5.18674
763.20 5.055328
763.30 4.837118
763.40 4.600123
763.50 4.399764
763.60 4.199548
763.70 4.042672
763.80 4.127645
763.90 4.600609
764.00 5.428925
764.10 6.43022
764.20 7.343736
764.30 7.973898
764.40 8.138851
764.50 7.669371
764.60 6.564489
764.70 5.022886
764.80 3.41227
764.90 2.096801
765.00 1.368799
765.10 1.3507
765.20 1.840033
765.30 2.48665
765.40 2.915414
765.50 2.750326
765.60 1.770079
765.70 0.07936111
765.80 0
765.90 0
766.00 0
766.10 0
766.20 0
766.30 0
766.40 0
766.50 0
766.60 0.4320628
766.70 1.811176
766.80 2.767084
766.90 3.338226
767.00 3.682156
767.10 3.884651
767.20 3.934576
767.30 3.797819
767.40 3.44028
767.50 2.855067
767.60 2.09053
767.70 1.244883
767.80 0.4723788
767.90 0
768.00 0
768.10 0
768.20 0.05088122
768.30 0.710313
768.40 1.516083
768.50 2.268487
768.60 2.792832
768.70 3.004356
768.80 2.921034
768.90 2.676062
769.00 2.376177
769.10 2.054315
769.20 1.793449
769.30 1.656791
769.40 1.565739
769.50 1.365242
769.60 1.055026
769.70 0.7509371
769.80 0.5221125
769.90 0.4458592
770.00 0.6056214
770.10 1.034722
770.20 1.650015
770.30 2.303526
770.40 2.898015
770.50 3.385381
770.60 3.634699
770.70 3.455945
770.80 2.710691
770.90 1.264996
771.00 0
771.10 0
771.20 0
771.30 0
771.40 0
771.50 0
771.60 0
771.70 0
771.80 0
771.90 0
772.00 0
772.10 0
772.20 3.146258
772.30 6.133707
772.40 7.635509
772.50 8.124614
772.60 7.869226
772.70 7.092376
772.80 6.298428
772.90 5.828829
773.00 5.700634
773.10 5.745948
773.20 5.824744
773.30 6.036936
773.40 6.582451
773.50 7.600784
773.60 9.051878
773.70 10.6257
773.80 12.00049
773.90 12.98912
774.00 13.46574
774.10 13.37075
774.20 12.84865
774.30 12.15212
774.40 11.39191
774.50 10.55569
774.60 9.505754
774.70 7.959282
774.80 5.76862
774.90 3.268357
775.00 1.175533
775.10 0.1232052
775.20 0.4474628
775.30 2.182394
775.40 5.07628
775.50 8.632112
775.60 12.20316
775.70 15.21546
775.80 17.28071
775.90 18.27065
776.00 18.43626
776.10 18.28539
776.20 18.26875
776.30 18.42548
776.40 18.4753
776.50 18.26081
776.60 17.7743
776.70 17.11675
776.80 16.47186
776.90 16.03165
777.00 15.84152
777.10 15.80021
777.20 15.96006
777.30 16.40628
777.40 17.05159
777.50 17.71191
777.60 18.23174
777.70 18.56038
777.80 18.75804
777.90 18.95238
778.00 19.30466
778.10 19.84005
778.20 20.46452
778.30 21.07876
778.40 21.67095
778.50 22.29953
778.60 22.84514
778.70 23.10255
778.80 22.97263
778.90 22.35582
779.00 20.95145
779.10 18.55076
779.20 15.39537
779.30 12.0188
779.40 8.925603
779.50 6.496608
779.60 5.08564
779.70 4.860988
779.80 5.668624
779.90 7.112183
780.00 8.740462
780.10 10.21827
780.20 11.22123
780.30 11.57442
780.40 11.48876
780.50 11.16262
780.60 10.64731
780.70 10.10514
780.80 9.847721
780.90 10.24767
781.00 11.47762
781.10 13.57027
781.20 16.5577
781.30 20.3173
781.40 24.48275
781.50 28.25555
781.60 30.5881
781.70 30.85781
781.80 29.12375
781.90 26.02344
782.00 22.51773
782.10 19.60819
782.20 18.04149
782.30 18.16305
782.40 19.97189
782.50 23.10161
782.60 26.80703
782.70 30.19626
782.80 32.55172
782.90 33.6208
783.00 33.76556
783.10 33.45877
783.20 32.97214
783.30 32.56219
783.40 32.3314
783.50 32.1731
783.60 31.97736
783.70 31.58833
783.80 30.8167
783.90 29.58224
784.00 28.01917
784.10 26.51914
784.20 25.45675
784.30 25.04508
784.40 25.34258
784.50 26.32381
784.60 28.00676
784.70 30.09095
784.80 31.84589
784.90 32.51309
785.00 31.3826
785.10 28.42209
785.20 24.64427
785.30 21.25745
785.40 19.13261
785.50 18.76073
785.60 20.25703
785.70 23.31602
785.80 27.37237
785.90 31.80875
786.00 35.91048
786.10 39.15669
786.20 41.4535
786.30 42.92307
786.40 43.97028
786.50 44.84106
786.60 45.13567
786.70 44.52696
786.80 43.17599
786.90 41.45989
787.00 39.88014
787.10 39.00717
787.20 39.15454
787.30 40.26447
787.40 42.06075
787.50 44.16797
787.60 46.22183
787.70 47.86082
787.80 48.85125
787.90 49.19948
788.00 49.20965
788.10 49.31026
788.20 49.70269
788.30 50.31878
788.40 51.0219
788.50 51.66084
788.60 51.96656
788.70 51.61752
788.80 50.39166
788.90 48.38961
789.00 46.05826
789.10 43.9412
789.20 42.50325
789.30 42.10941
789.40 42.92795
789.50 44.82955
789.60 47.47234
789.70 50.37168
789.80 52.92413
789.90 54.64594
790.00 55.40382
790.10 55.29211
790.20 54.55861
790.30 53.46568
790.40 52.15713
790.50 50.87602
790.60 49.9995
790.70 49.63342
790.80 49.31969
790.90 48.3824
791.00 46.41904
791.10 43.73266
791.20 41.15479
791.30 39.41226
791.40 38.97387
791.50 40.03257
791.60 42.39567
791.70 45.52039
791.80 48.78678
791.90 51.53451
792.00 53.1876
792.10 53.58379
792.20 53.11625
792.30 52.49423
792.40 52.37058
792.50 52.90668
792.60 53.85748
792.70 55.04267
792.80 56.27539
792.90 57.3646
793.00 58.15541
793.10 58.62033
793.20 58.84146
793.30 58.90391
793.40 58.79972
793.50 58.46707
793.60 57.97037
793.70 57.50969
793.80 57.27776
793.90 57.31493
794.00 57.44254
794.10 57.28913
794.20 56.45766
794.30 54.55447
794.40 51.45486
794.50 47.36518
794.60 42.68664
794.70 38.06408
794.80 34.26743
794.90 31.98759
795.00 31.66466
795.10 33.37626
795.20 36.85351
795.30 41.57692
795.40 46.90518
795.50 52.11611
795.60 56.57364
795.70 59.9268
795.80 62.06752
795.90 63.15265
796.00 63.36456
796.10 62.68464
796.20 61.20781
796.30 59.33742
796.40 57.5946
796.50 56.47694
796.60 56.24481
796.70 56.91738
796.80 58.44169
796.90 60.66918
797.00 63.32683
797.10 66.04615
797.20 68.34912
797.30 69.78053
797.40 70.27892
797.50 70.26046
797.60 70.16873
797.70 70.2518
797.80 70.65687
797.90 71.3025
798.00 72.13337
798.10 73.11637
798.20 74.00535
798.30 74.58031
798.40 74.76382
798.50 74.61118
798.60 74.18758
798.70 73.45157
798.80 72.33417
798.90 70.93935
799.00 69.39837
799.10 67.69974
799.20 65.98664
799.30 64.7095
799.40 64.29004
799.50 64.99582
799.60 66.92522
799.70 69.82871
799.80 73.20245
799.90 76.50486
800.00 79.37216
800.10 81.60835
800.20 83.08448
800.30 83.65225
800.40 83.37557
800.50 82.71944
800.60 82.14597
800.70 81.77974
800.80 81.62605
800.90 81.73824
801.00 82.05767
801.10 82.46749
801.20 82.87321
801.30 83.20671
801.40 83.39674
801.50 83.3995
801.60 83.31383
801.70 83.34324
801.80 83.68687
801.90 84.37326
802.00 85.21294
802.10 85.94547
802.20 86.04418
802.30 84.85017
802.40 82.32782
802.50 79.1486
802.60 76.25806
802.70 74.41236
802.80 74.0039
802.90 75.09807
803.00 77.40885
803.10 80.47374
803.20 83.78562
803.30 86.79358
803.40 89.01997
803.50 90.25279
803.60 90.69383
803.70 90.80318
803.80 90.85536
803.90 90.83418
804.00 90.62437
804.10 90.26231
804.20 89.96468
804.30 89.99537
804.40 90.59022
804.50 91.82154
804.60 93.52512
804.70 95.40794
804.80 97.17154
804.90 98.57667
805.00 99.53414
805.10 100.1125
805.20 100.424
805.30 100.5502
805.40 100.5282
805.50 100.3277
805.60 99.97335
805.70 99.45195
805.80 98.69454
805.90 97.73962
806.00 96.68072
806.10 95.71791
806.20 95.19792
806.30 95.43988
806.40 96.59699
806.50 98.59014
806.60 101.1153
806.70 103.7683
806.80 106.1557
806.90 107.9343
807.00 108.8053
807.10 108.7497
807.20 108.0049
807.30 106.8741
807.40 105.7538
807.50 104.9947
807.60 104.7052
807.70 104.8038
807.80 105.0509
807.90 105.095
808.00 104.7036
808.10 103.9116
808.20 102.9658
808.30 102.2177
808.40 102.011
808.50 102.4674
808.60 103.4098
808.70 104.4797
808.80 105.3855
808.90 105.9977
809.00 106.3217
809.10 106.4323
809.20 106.3958
809.30 106.3072
809.40 106.297
809.50 106.359
809.60 106.3492
809.70 106.0814
809.80 105.3527
809.90 104.1299
810.00 102.6163
810.10 101.1327
810.20 99.95824
810.30 99.26724
810.40 99.21941
810.50 99.95151
810.60 101.5625
810.70 103.9888
810.80 106.8737
810.90 109.7856
811.00 112.3288
811.10 114.2393
811.20 115.4906
811.30 116.266
811.40 116.8217
811.50 117.3354
811.60 117.9128
811.70 118.6139
811.80 119.3636
811.90 119.9993
812.00 120.3671
812.10 120.4356
812.20 120.3655
812.30 120.3234
812.40 120.4068
812.50 120.6963
812.60 121.2408
812.70 121.9278
812.80 122.5461
812.90 122.8472
813.00 122.6016
813.10 121.7506
813.20 120.387
813.30 118.8008
813.40 117.4565
813.50 116.7391
813.60 116.7714
813.70 117.437
813.80 118.4551
813.90 119.4385
814.00 120.0199
814.10 120.0127
814.20 119.4846
814.30 118.8905
814.40 118.7558
814.50 119.283
814.60 120.4116
814.70 121.7669
814.80 122.8968
814.90 123.5414
815.00 123.5625
815.10 123.0181
815.20 122.1962
815.30 121.5053
815.40 121.3403
815.50 121.9274
815.60 123.2674
815.70 125.0338
815.80 126.7416
815.90 128.0855
816.00 129.0512
816.10 129.845
816.20 130.6196
816.30 131.3976
816.40 132.2287
816.50 133.2249
816.60 134.4484
816.70 135.7819
816.80 137.0015
816.90 137.9129
817.00 138.4064
817.10 138.4611
817.20 138.0955
817.30 137.1878
817.40 135.5652
817.50 133.2906
817.60 130.5962
817.70 127.8069
817.80 125.198
817.90 122.8263
818.00 120.6411
818.10 118.6676
818.20 117.0658
818.30 116.0189
818.40 115.4999
818.50 115.2829
818.60 115.1282
818.70 114.9896
818.80 114.8894
818.90 114.5388
819.00 113.3754
819.10 111.0081
819.20 107.5624
819.30 103.6238
819.40 100.1057
819.50 97.92462
819.60 97.56388
819.70 99.07648
819.80 102.3605
819.90 107.1417
820.00 112.8679
820.10 118.8143
820.20 124.3007
820.30 128.986
820.40 132.9772
820.50 136.4578
820.60 139.4359
820.70 141.8494
820.80 143.604
820.90 144.6968
821.00 145.2117
821.10 145.1931
821.20 144.6959
821.30 143.9339
821.40 143.2522
821.50 142.9299
821.60 143.0386
821.70 143.431
821.80 143.9158
821.90 144.4024
822.00 144.9031
822.10 145.4841
822.20 146.1769
822.30 146.9352
822.40 147.7261
822.50 148.6853
822.60 149.9616
822.70 151.5152
822.80 153.2496
822.90 155.0183
823.00 156.5193
823.10 157.4086
823.20 157.4473
823.30 156.5942
823.40 155.042
823.50 153.1077
823.60 151.1615
823.70 149.6365
823.80 148.9451
823.90 149.1396
824.00 149.9323
824.10 150.9527
824.20 151.7828
824.30 152.1676
824.40 152.1219
824.50 151.8716
824.60 151.7399
824.70 151.9913
824.80 152.7666
824.90 154.0599
825.00 155.6716
825.10 157.2025
825.20 158.1233
825.30 158.0479
825.40 156.8831
825.50 154.8604
825.60 152.5649
825.70 150.6896
825.80 149.8301
825.90 150.3359
826.00 152.092
826.10 154.6665
826.20 157.5542
826.30 160.229
826.40 162.2097
826.50 163.1372
826.60 162.9904
826.70 162.0546
826.80 160.7635
826.90 159.6162
827.00 159.0218
827.10 159.1365
827.20 159.835
827.30 160.9792
827.40 162.4783
827.50 163.9952
827.60 164.8945
827.70 164.5202
827.80 162.6451
827.90 159.595
828.00 155.9296
828.10 152.3092
828.20 149.3406
828.30 147.3103
828.40 146.0987
828.50 145.4342
828.60 145.1704
828.70 144.9514
828.80 144.4911
828.90 143.9827
829.00 143.7444
829.10 144.1281
829.20 145.3125
829.30 147.139
829.40 149.1904
829.50 150.9139
829.60 151.7072
829.70 151.1864
829.80 149.8026
829.90 148.5018
830.00 147.9573
830.10 148.6408
830.20 150.7656
830.30 154.0192
830.40 157.7232
830.50 161.0132
830.60 163.0684
830.70 163.4059
830.80 162.0857
830.90 159.67
831.00 157.1416
831.10 155.4042
831.20 154.6133
831.30 154.5154
831.40 154.9489
831.50 155.9769
831.60 157.6362
831.70 159.7048
831.80 161.9934
831.90 164.4482
832.00 166.9709
832.10 169.3298
832.20 171.2146
832.30 172.3277
832.40 172.4895
832.50 171.9142
832.60 171.1896
832.70 170.9467
832.80 171.6356
832.90 173.2332
833.00 175.2915
833.10 177.3151
833.20 178.9096
833.30 179.8304
833.40 180.0205
833.50 179.6274
833.60 178.827
833.70 177.8907
833.80 177.257
833.90 177.2013
834.00 177.356
834.10 176.6972
834.20 174.244
834.30 169.8192
834.40 164.2649
834.50 158.9732
834.60 155.2637
834.70 153.9256
834.80 155.0676
834.90 158.2193
835.00 162.6828
835.10 167.5834
835.20 171.9121
835.30 174.9219
835.40 176.6084
835.50 177.7066
835.60 179.061
835.70 180.9402
835.80 182.8605
835.90 184.2033
836.00 184.7173
836.10 184.5913
836.20 184.3301
836.30 184.4766
836.40 185.3822
836.50 187.1793
836.60 189.7076
836.70 192.4913
836.80 194.7605
836.90 195.7751
837.00 195.2437
837.10 193.3451
837.20 190.6445
837.30 187.8712
837.40 185.5054
837.50 183.5768
837.60 181.9973
837.70 180.7725
837.80 179.9265
837.90 179.248
838.00 178.4805
838.10 177.6755
838.20 177.1032
838.30 177.0118
838.40 177.4016
838.50 178.1641
838.60 179.277
838.70 180.6438
838.80 182.0358
838.90 183.3681
839.00 184.6157
839.10 185.6834
839.20 186.5036
839.30 187.3127
839.40 188.3236
839.50 189.3044
839.60 189.7509
839.70 189.2653
839.80 187.8973
839.90 185.9881
840.00 183.9194
840.10 182.0877
840.20 180.8795
840.30 180.5543
840.40 181.2196
840.50 182.7561
840.60 184.8843
840.70 187.2737
840.80 189.6924
840.90 192.0591
841.00 194.5413
841.10 197.3924
841.20 200.5383
841.30 203.6588
841.40 206.4033
841.50 208.4269
841.60 209.4889
841.70 209.5479
841.80 208.716
841.90 207.3042
842.00 205.7183
842.10 204.2727
842.20 203.0966
842.30 202.0166
842.40 200.5826
842.50 198.3796
842.60 195.5375
842.70 192.6483
842.80 190.29
842.90 188.8805
843.00 188.6637
843.10 189.6779
843.20 191.704
843.30 194.2384
843.40 196.6351
843.50 198.1902
843.60 198.2542
843.70 196.6283
843.80 193.7257
843.90 190.2886
844.00 186.9387
844.10 184.0983
844.20 182.0835
844.30 181.0315
844.40 180.9189
844.50 181.6122
844.60 182.9479
844.70 184.8194
844.80 186.8808
844.90 188.5145
845.00 189.2809
845.10 189.0331
845.20 187.8394
845.30 185.9687
845.40 183.7962
845.50 181.6748
845.60 179.9629
845.70 179.1004
845.80 179.2933
845.90 180.4294
846.00 182.0893
846.10 183.4709
846.20 183.5228
846.30 181.5381
846.40 177.8809
846.50 173.7659
846.60 170.4073
846.70 168.5886
846.80 168.6551
846.90 170.5528
847.00 173.8409
847.10 177.6856
847.20 181.2521
847.30 183.8945
847.40 185.1887
847.50 185.0581
847.60 184.0521
847.70 183.0836
847.80 182.5538
847.90 182.2571
848.00 181.9444
848.10 181.573
848.20 181.2855
848.30 181.3125
848.40 181.7394
848.50 182.5205
848.60 183.5921
848.70 184.743
848.80 185.6488
848.90 186.0508
849.00 185.8833
849.10 185.1965
849.20 184.0833
849.30 182.8077
849.40 181.7498
849.50 181.1401
849.60 180.9468
849.70 181.0592
849.80 181.385
849.90 181.8495
850.00 182.3663
850.10 182.844
850.20 183.1515
850.30 183.224
850.40 183.2076
850.50 183.2762
850.60 183.3314
850.70 182.9781
850.80 181.8533
850.90 180.0417
851.00 178.0386
851.10 176.3335
851.20 175.2152
851.30 174.6839
851.40 174.3144
851.50 173.2258
851.60 170.443
851.70 165.1964
851.80 157.0973
851.90 146.5166
852.00 134.7531
852.10 123.7852
852.20 115.6737
852.30 111.9499
852.40 113.2035
852.50 119.0332
852.60 128.3089
852.70 139.4882
852.80 150.9678
852.90 161.5219
853.00 170.4954
853.10 177.7362
853.20 183.3729
853.30 187.6632
853.40 190.9614
853.50 193.5757
853.60 195.6764
853.70 197.236
853.80 198.1996
853.90 198.6743
854.00 198.9528
854.10 199.3306
854.20 199.9413
854.30 200.7648
854.40 201.7207
854.50 202.7651
854.60 203.9676
854.70 205.3937
854.80 206.8979
854.90 208.1757
855.00 209.066
855.10 209.6148
855.20 209.8914
855.30 209.9622
855.40 209.825
855.50 209.456
855.60 208.9833
855.70 208.686
855.80 208.787
855.90 209.3511
856.00 210.2894
856.10 211.4371
856.20 212.7576
856.30 214.2283
856.40 215.5016
856.50 216.0626
856.60 215.7098
856.70 214.6095
856.80 213.0844
856.90 211.5624
857.00 210.4672
857.10 210.0808
857.20 210.4739
857.30 211.5488
857.40 213.118
857.50 214.8778
857.60 216.3818
857.70 217.2445
857.80 217.4277
857.90 217.2231
858.00 217.0384
858.10 217.1125
858.20 217.4698
858.30 218.0711
858.40 218.902
858.50 220.0139
858.60 221.358
858.70 222.7302
858.80 223.9428
858.90 224.9005
859.00 225.5096
859.10 225.7906
859.20 225.9312
859.30 226.0605
859.40 226.0793
859.50 225.9348
859.60 225.787
859.70 225.7501
859.80 225.8251
859.90 225.9179
860.00 225.9376
860.10 225.8751
860.20 225.7436
860.30 225.3836
860.40 224.5376
860.50 222.9298
860.60 220.2578
860.70 216.3547
860.80 211.2106
860.90 204.8265
861.00 197.2879
861.10 188.8889
861.20 180.0437
861.30 171.035
861.40 162.0707
861.50 153.5486
861.60 145.8902
861.70 139.3185
861.80 133.8538
861.90 129.3816
862.00 125.6712
862.10 122.5557
862.20 120.0807
862.30 118.4334
862.40 117.7458
862.50 117.967
862.60 118.7618
862.70 119.7937
862.80 120.737
862.90 120.9353
863.00 119.5683
863.10 116.3443
863.20 111.8315
863.30 107.009
863.40 102.8888
863.50 100.2763
863.60 99.55626
863.70 100.6144
863.80 102.9856
863.90 106.0731
864.00 109.3497
864.10 112.3479
864.20 114.6738
864.30 116.2939
864.40 117.6391
864.50 119.1871
864.60 121.0581
864.70 123.1022
864.80 125.0966
864.90 126.7406
865.00 127.8532
865.10 128.6356
865.20 129.4964
865.30 130.7733
865.40 132.7056
865.50 135.4927
865.60 139.3631
865.70 144.1149
865.80 148.9117
865.90 152.8722
866.00 155.6143
866.10 157.3222
866.20 158.421
866.30 159.3298
866.40 160.2161
866.50 160.9599
866.60 161.3536
866.70 161.2097
866.80 160.3961
866.90 158.8297
867.00 156.6133
867.10 154.3413
867.20 152.9267
867.30 153.0703
867.40 154.8194
867.50 157.5533
867.60 160.3555
867.70 162.3559
867.80 162.9737
867.90 161.9961
868.00 159.5065
868.10 155.9112
868.20 152.0056
868.30 148.8697
868.40 147.4343
868.50 148.0564
868.60 150.4588
868.70 153.8766
868.80 157.1613
868.90 159.0762
869.00 158.6354
869.10 155.4155
869.20 149.7368
869.30 142.4719
869.40 134.8614
869.50 128.2729
869.60 123.7264
869.70 121.6298
869.80 121.8329
869.90 123.7583
870.00 126.588
870.10 129.4495
870.20 131.675
870.30 132.911
870.40 133.152
870.50 132.5356
870.60 131.2311
870.70 129.4018
870.80 127.1436
870.90 124.6134
871.00 122.0423
871.10 119.6985
871.20 117.855
871.30 116.6962
871.40 116.2458
871.50 116.3468
871.60 116.7221
871.70 117.1674
871.80 117.5997
871.90 118.0252
872.00 118.4284
872.10 118.8749
872.20 119.5958
872.30 120.7617
872.40 122.4897
872.50 124.769
872.60 127.2753
872.70 129.6112
872.80 131.5185
872.90 132.8749
873.00 133.7108
873.10 134.0933
873.20 134.0782
873.30 133.8346
873.40 133.7241
873.50 134.0637
873.60 134.9082
873.70 136.1804
873.80 137.7542
873.90 139.4904
874.00 141.3737
874.10 143.3937
874.20 145.4743
874.30 147.4691
874.40 149.1503
874.50 150.3557
874.60 151.0339
874.70 151.158
874.80 150.7259
874.90 149.8738
875.00 148.8395
875.10 147.906
875.20 147.3174
875.30 147.2216
875.40 147.7177
875.50 148.6938
875.60 149.5298
875.70 149.5791
875.80 148.5489
875.90 146.393
876.00 143.4616
876.10 140.4804
876.20 138.1044
876.30 136.5802
876.40 135.3934
876.50 133.7902
876.60 131.5793
876.70 128.8695
876.80 126.2358
876.90 124.7933
877.00 125.9446
877.10 130.765
877.20 139.3902
877.30 150.9441
877.40 163.4751
877.50 174.2955
877.60 180.8107
877.70 181.7053
877.80 177.99
877.90 171.8074
878.00 164.8763
878.10 158.6773
878.20 153.9747
878.30 150.7578
878.40 148.7917
878.50 147.6724
878.60 147.0989
878.70 147.0781
878.80 147.639
878.90 148.7408
879.00 150.5853
879.10 153.2317
879.20 156.462
879.30 160.0602
879.40 163.8345
879.50 167.5172
879.60 170.7841
879.70 173.292
879.80 174.635
879.90 174.4516
880.00 172.4664
880.10 168.5439
880.20 163.1232
880.30 157.2365
880.40 151.8734
880.50 147.7786
880.60 145.2677
880.70 144.3309
880.80 144.9934
880.90 147.2496
881.00 151.1344
881.10 156.6896
881.20 163.7709
881.30 171.9955
881.40 180.7451
881.50 189.255
881.60 196.6577
881.70 202.095
881.80 205.0962
881.90 205.6253
882.00 203.8992
882.10 200.4393
882.20 195.7478
882.30 189.9716
882.40 182.8857
882.50 174.4824
882.60 165.1961
882.70 155.9625
882.80 148.1745
882.90 143.0845
883.00 141.4944
883.10 143.7086
883.20 149.2959
883.30 157.0954
883.40 165.6432
883.50 173.275
883.60 178.8898
883.70 182.5816
883.80 185.2146
883.90 187.4707
884.00 189.6479
884.10 191.5945
884.20 192.7692
884.30 192.6886
884.40 190.8859
884.50 186.9085
884.60 180.8923
884.70 173.9924
884.80 167.7346
884.90 163.5508
885.00 162.3582
885.10 164.2948
885.20 168.8337
885.30 174.9367
885.40 181.2802
885.50 186.6123
885.60 190.0223
885.70 191.0666
885.80 190.1734
885.90 188.7155
886.00 188.106
886.10 188.9138
886.20 190.9947
886.30 193.9033
886.40 196.955
886.50 199.1437
886.60 199.4807
886.70 197.4941
886.80 193.3956
886.90 187.7824
887.00 181.432
887.10 175.4492
887.20 171.0449
887.30 169.1228
887.40 170.3018
887.50 174.936
887.60 182.8379
887.70 193.0843
887.80 204.3704
887.90 215.2317
888.00 224.3554
888.10 230.8119
888.20 233.9105
888.30 233.5653
888.40 230.5592
888.50 226.1906
888.60 221.9031
888.70 218.962
888.80 217.8546
888.90 218.3483
889.00 219.8263
889.10 221.3556
889.20 221.6959
889.30 219.9102
889.40 215.7447
889.50 209.5343
889.60 202.4608
889.70 196.2334
889.80 192.1436
889.90 190.5047
890.00 190.7586
890.10 191.9165
890.20 193.2841
890.30 194.4655
890.40 195.0861
890.50 194.9824
890.60 194.3125
890.70 193.4412
890.80 192.8576
890.90 193.0791
891.00 194.3172
891.10 196.5095
891.20 199.5839
891.30 203.5099
891.40 208.3242
891.50 213.9549
891.60 219.8359
891.70 224.5394
891.80 226.7549
891.90 226.1123
892.00 222.7741
892.10 217.3004
892.20 210.4999
892.30 203.4085
892.40 197.1753
892.50 192.7143
892.60 190.5992
892.70 191.2205
892.80 194.5741
892.90 200.1911
893.00 207.3445
893.10 215.5319
893.20 223.9694
893.30 231.1176
893.40 235.4951
893.50 236.2
893.60 232.9417
893.70 225.7337
893.80 215.0117
893.90 201.8425
894.00 187.7413
894.10 174.1227
894.20 162.0698
894.30 152.5523
894.40 146.4405
894.50 144.2579
894.60 146.0066
894.70 151.2449
894.80 159.0884
894.90 168.3054
895.00 177.7031
895.10 186.4576
895.20 194.2689
895.30 201.4351
895.40 208.2232
895.50 214.7581
895.60 221.1107
895.70 227.0831
895.80 232.4123
895.90 236.5744
896.00 238.8665
896.10 238.8331
896.20 236.4583
896.30 232.0905
896.40 226.2625
896.50 219.7523
896.60 213.5797
896.70 208.4902
896.80 205.0933
896.90 204.0445
897.00 205.8444
897.10 210.4397
897.20 216.8396
897.30 223.7948
897.40 230.2965
897.50 235.4995
897.60 238.8882
897.70 240.3345
897.80 239.9977
897.90 238.4128
898.00 236.4178
898.10 234.9995
898.20 235.1709
898.30 237.6766
898.40 242.6504
898.50 249.4699
898.60 256.9377
898.70 263.1483
898.80 266.3828
898.90 266.2018
899.00 262.9452
899.10 257.392
899.20 250.7943
899.30 244.3548
899.40 238.7206
899.50 234.1033
899.60 230.6397
899.70 228.3746
899.80 227.2434
899.90 227.4248
900.00 227.7531
900.10 228.0814
900.20 228.4097
900.30 228.738
900.40 229.0663
900.50 229.3946
900.60 229.7229
900.70 230.0513
900.80 230.3796
900.90 230.7079
901.00 231.0362
901.10 231.3645
901.20 231.6928
901.30 232.0211
901.40 232.3494
901.50 232.6777
901.60 233.006
901.70 233.3344
901.80 233.6627
901.90 233.991
902.00 234.3193
902.10 234.6476
902.20 234.9759
902.30 235.3042
902.40 235.6325
902.50 235.9608
902.60 236.4503
902.70 237.5459
902.80 238.6415
902.90 239.737
903.00 240.8326
903.10 241.9282
903.20 243.0238
903.30 244.0814
903.40 245.0821
903.50 246.0827
903.60 247.0834
903.70 248.084
903.80 249.0846
903.90 250.0853
904.00 251.0859
904.10 252.0865
904.20 253.0872
904.30 254.0878
904.40 255.0885
904.50 256.0891
904.60 257.0897
904.70 258.0904
904.80 259.091
904.90 260.0917
905.00 261.0923
905.10 262.0929
905.20 263.0936
905.30 264.0942
905.40 265.0949
905.50 266.0955
905.60 267.0961
905.70 268.0968
905.80 269.0974
905.90 270.0981
906.00 271.0987
906.10 271.8491
906.20 272.5863
906.30 273.3235
906.40 274.0607
906.50 274.7979
906.60 275.5352
906.70 276.2334
906.80 276.5807
906.90 276.9281
907.00 277.2754
907.10 277.6227
907.20 277.9701
907.30 278.3174
907.40 278.6648
907.50 279.0121
907.60 279.3595
907.70 279.7068
907.80 280.0541
907.90 280.4015
908.00 280.7488
908.10 281.0962
908.20 281.4435
908.30 281.7908
908.40 282.1382
908.50 282.4855
908.60 282.8329
908.70 283.1802
908.80 283.5276
908.90 283.8749
909.00 284.2222
909.10 284.5696
909.20 284.9169
909.30 285.2643
909.40 285.6116
909.50 285.9277
909.60 286.2137
909.70 286.4997
909.80 286.7858
909.90 287.0718
910.00 287.3578
910.10 287.6439
910.20 288.1289
910.30 288.7358
910.40 289.3427
910.50 289.9497
910.60 290.5566
910.70 291.1635
910.80 291.7705
910.90 292.3774
911.00 292.9843
911.10 293.5913
911.20 294.1982
911.30 294.8051
911.40 295.4121
911.50 296.019
911.60 296.6259
911.70 297.2329
911.80 297.8398
911.90 298.4467
912.00 299.0537
912.10 299.6606
912.20 300.2675
912.30 300.8745
912.40 301.4814
912.50 302.0883
912.60 302.6953
912.70 303.3022
912.80 303.9091
912.90 304.5161
913.00 304.8929
913.10 305.2385
913.20 305.584
913.30 305.9295
913.40 306.275
913.50 306.6206
913.60 306.9661
913.70 307.2848
913.80 307.6024
913.90 307.92
914.00 308.2375
914.10 308.5551
914.20 308.8727
914.30 309.1903
914.40 309.5079
914.50 309.8255
914.60 310.143
914.70 310.4606
914.80 310.7782
914.90 311.0958
915.00 311.4134
915.10 311.731
915.20 312.0485
915.30 312.3661
915.40 312.6837
915.50 313.0013
915.60 313.3189
915.70 313.6365
915.80 313.954
915.90 314.2716
916.00 314.5892
916.10 314.9068
916.20 315.2244
916.30 315.542
916.40 315.8706
916.50 316.3263
916.60 316.7821
916.70 317.2378
916.80 317.6936
916.90 318.1493
917.00 318.605
917.10 319.0378
917.20 319.3022
917.30 319.5666
917.40 319.831
917.50 320.0954
917.60 320.3597
917.70 320.6241
917.80 320.8885
917.90 321.1529
918.00 321.4173
918.10 321.6817
918.20 321.946
918.30 322.2104
918.40 322.4748
918.50 322.7392
918.60 323.0036
918.70 323.268
918.80 323.5324
918.90 323.7967
919.00 324.0611
919.10 324.3255
919.20 324.5899
919.30 324.8543
919.40 325.1187
919.50 325.383
919.60 325.6474
919.70 325.9118
919.80 326.1762
919.90 326.4181
920.00 326.4576
920.10 326.4971
920.20 326.5366
920.30 326.5761
920.40 326.6156
920.50 326.6552
920.60 326.7014
920.70 326.802
920.80 326.9026
920.90 327.0033
921.00 327.1039
921.10 327.2045
921.20 327.3051
921.30 327.4058
921.40 327.5064
921.50 327.607
921.60 327.7076
921.70 327.8083
921.80 327.9089
921.90 328.0095
922.00 328.1101
922.10 328.2108
922.20 328.3114
922.30 328.412
922.40 328.5126
922.50 328.6133
922.60 328.7139
922.70 328.8145
922.80 328.9151
922.90 329.0158
923.00 329.1164
923.10 329.217
923.20 329.3176
923.30 329.4183
923.40 329.5189
923.50 330.0777
923.60 330.6657
923.70 331.2537
923.80 331.8418
923.90 332.4298
924.00 333.0178
924.10 333.6059
924.20 334.1317
924.30 334.6521
924.40 335.1726
924.50 335.693
924.60 336.2135
924.70 336.7339
924.80 337.2544
924.90 337.7748
925.00 338.2953
925.10 338.8157
925.20 339.3361
925.30 339.8566
925.40 340.377
925.50 340.8975
925.60 341.4179
925.70 341.9384
925.80 342.4588
925.90 342.9792
926.00 343.4997
926.10 344.0201
926.20 344.5406
926.30 345.061
926.40 345.5815
926.50 346.1019
926.60 346.6224
926.70 347.1428
926.80 347.6632
926.90 348.1837
927.00 348.4934
927.10 348.6684
927.20 348.8435
927.30 349.0185
927.40 349.1935
927.50 349.3685
927.60 349.5435
927.70 349.8709
927.80 350.3229
927.90 350.775
928.00 351.227
928.10 351.679
928.20 352.131
928.30 352.583
928.40 353.0351
928.50 353.4871
928.60 353.9391
928.70 354.3911
928.80 354.8431
928.90 355.2951
929.00 355.7472
929.10 356.1992
929.20 356.6512
929.30 357.1032
929.40 357.5552
929.50 358.0073
929.60 358.4593
929.70 358.9113
929.80 359.3633
929.90 359.8153
930.00 360.2674
930.10 360.7194
930.20 361.1714
930.30 361.6234
930.40 362.0754
930.50 362.5162
930.60 362.8658
930.70 363.2154
930.80 363.565
930.90 363.9146
931.00 364.2642
931.10 364.6138
931.20 364.9602
931.30 365.1522
931.40 365.3441
931.50 365.536
931.60 365.728
931.70 365.9199
931.80 366.1118
931.90 366.3038
932.00 366.4957
932.10 366.6876
932.20 366.8796
932.30 367.0715
932.40 367.2634
932.50 367.4554
932.60 367.6473
932.70 367.8393
932.80 368.0312
932.90 368.2231
933.00 368.4151
933.10 368.607
933.20 368.7989
933.30 368.9909
933.40 369.1828
933.50 369.3747
933.60 369.5667
933.70 369.7586
933.80 369.9505
933.90 370.1425
934.00 370.3344
934.10 370.6493
934.20 371.1207
934.30 371.5921
934.40 372.0635
934.50 372.535
934.60 373.0064
934.70 373.4778
934.80 373.9576
934.90 374.4562
935.00 374.9548
935.10 375.4534
935.20 375.9519
935.30 376.4505
935.40 376.9491
935.50 377.4477
935.60 377.9463
935.70 378.4449
935.80 378.9434
935.90 379.442
936.00 379.9406
936.10 380.4392
936.20 380.9378
936.30 381.4364
936.40 381.935
936.50 382.4335
936.60 382.9321
936.70 383.4307
936.80 383.9293
936.90 384.4279
937.00 384.9265
937.10 385.425
937.20 385.9236
937.30 386.4222
937.40 386.9208
937.50 387.4194
937.60 387.918
937.70 388.3535
937.80 388.747
937.90 389.1406
938.00 389.5341
938.10 389.9276
938.20 390.3211
938.30 390.7146
938.40 391.1282
938.50 391.5684
938.60 392.0086
938.70 392.4488
938.80 392.889
938.90 393.3292
939.00 393.7694
939.10 394.2096
939.20 394.6498
939.30 395.09
939.40 395.5302
939.50 395.9704
939.60 396.4106
939.70 396.8508
939.80 397.291
939.90 397.7312
940.00 398.1714
940.10 398.6116
940.20 399.0518
940.30 399.4919
940.40 399.9321
940.50 400.3723
940.60 400.8125
940.70 401.2527
940.80 401.6929
940.90 402.1331
941.00 402.5733
941.10 403.0135
941.20 403.4537
941.30 404.0251
941.40 404.6876
941.50 405.3502
941.60 406.0127
941.70 406.6752
941.80 407.3378
941.90 408.0003
942.00 408.6518
942.10 409.2862
942.20 409.9205
942.30 410.5549
942.40 411.1892
942.50 411.8235
942.60 412.4579
942.70 413.0922
942.80 413.7265
942.90 414.3609
943.00 414.9952
943.10 415.6295
943.20 416.2639
943.30 416.8982
943.40 417.5325
943.50 418.1669
943.60 418.8012
943.70 419.4355
943.80 420.0699
943.90 420.7042
944.00 421.3385
944.10 421.9729
944.20 422.6072
944.30 423.2415
944.40 423.8759
944.50 424.5102
944.60 425.1445
944.70 425.7789
944.80 426.4132
944.90 426.9982
945.00 427.5121
945.10 428.0261
945.20 428.54
945.30 429.054
945.40 429.568
945.50 430.0819
945.60 430.5592
945.70 430.8695
945.80 431.1797
945.90 431.49
946.00 431.8002
946.10 432.1104
946.20 432.4207
946.30 432.7309
946.40 433.0412
946.50 433.3514
946.60 433.6617
946.70 433.9719
946.80 434.2822
946.90 434.5924
947.00 434.9027
947.10 435.2129
947.20 435.5232
947.30 435.8334
947.40 436.1437
947.50 436.4539
947.60 436.7642
947.70 437.0744
947.80 437.3847
947.90 437.6949
948.00 438.0052
948.10 438.3154
948.20 438.6257
948.30 438.9359
948.40 439.2462
948.50 439.5279
948.60 439.43
948.70 439.3322
948.80 439.2344
948.90 439.1366
949.00 439.0388
949.10 438.941
949.20 438.8432
949.30 438.7867
949.40 438.74
949.50 438.6932
949.60 438.6465
949.70 438.5997
949.80 438.5529
949.90 438.5062
950.00 438.4594
950.10 438.4127
950.20 438.3659
950.30 438.3192
950.40 438.2724
950.50 438.2256
950.60 438.1789
950.70 438.1321
950.80 438.0854
950.90 438.0386
951.00 437.9918
951.10 437.9451
951.20 437.8983
951.30 437.8516
951.40 437.8048
951.50 437.7581
951.60 437.7113
951.70 437.6645
951.80 437.6178
951.90 437.571
952.00 437.5243
952.10 437.4775
952.20 437.6058
952.30 437.8716
952.40 438.1374
952.50 438.4032
952.60 438.669
952.70 438.9348
952.80 439.2006
952.90 439.4781
953.00 439.7872
953.10 440.0963
953.20 440.4054
953.30 440.7145
953.40 441.0236
953.50 441.3326
953.60 441.6417
953.70 441.9508
953.80 442.2599
953.90 442.569
954.00 442.8781
954.10 443.1872
954.20 443.4963
954.30 443.8053
954.40 444.1144
954.50 444.4235
954.60 444.7326
954.70 445.0417
954.80 445.3508
954.90 445.6599
955.00 445.969
955.10 446.2781
955.20 446.5871
955.30 446.8962
955.40 447.2053
955.50 447.5144
955.60 447.8235
955.70 448.1326
955.80 448.4417
955.90 448.5662
956.00 448.6701
956.10 448.7741
956.20 448.8781
956.30 448.982
956.40 449.086
956.50 449.19
956.60 449.3152
956.70 449.4563
956.80 449.5975
956.90 449.7387
957.00 449.8798
957.10 450.021
957.20 450.1622
957.30 450.3033
957.40 450.4445
957.50 450.5856
957.60 450.7268
957.70 450.868
957.80 451.0091
957.90 451.1503
958.00 451.2915
958.10 451.4326
958.20 451.5738
958.30 451.715
958.40 451.8561
958.50 451.9973
958.60 452.1385
958.70 452.2796
958.80 452.4208
958.90 452.5619
959.00 452.7031
959.10 452.8443
959.20 452.9854
959.30 453.1266
959.40 453.2678
959.50 453.4069
959.60 453.5184
959.70 453.63
959.80 453.7415
959.90 453.8531
960.00 453.9647
960.10 454.0762
960.20 454.1878
960.30 454.3911
960.40 454.6319
960.50 454.8726
960.60 455.1134
960.70 455.3542
960.80 455.5949
960.90 455.8357
961.00 456.0765
961.10 456.3172
961.20 456.558
961.30 456.7988
961.40 457.0395
961.50 457.2803
961.60 457.5211
961.70 457.7619
961.80 458.0026
961.90 458.2434
962.00 458.4842
962.10 458.7249
962.20 458.9657
962.30 459.2065
962.40 459.4472
962.50 459.688
962.60 459.9288
962.70 460.1695
962.80 460.4103
962.90 460.6511
963.00 460.8919
963.10 461.1326
963.20 461.4036
963.30 461.9806
963.40 462.5575
963.50 463.1344
963.60 463.7114
963.70 464.2883
963.80 464.8652
963.90 465.4422
964.00 465.9243
964.10 466.3657
964.20 466.8071
964.30 467.2485
964.40 467.69
964.50 468.1314
964.60 468.5728
964.70 469.0142
964.80 469.4557
964.90 469.8971
965.00 470.3385
965.10 470.7799
965.20 471.2214
965.30 471.6628
965.40 472.1042
965.50 472.5456
965.60 472.9871
965.70 473.4285
965.80 473.8699
965.90 474.3113
966.00 474.7528
966.10 475.1942
966.20 475.6356
966.30 476.077
966.40 476.5185
966.50 476.9599
966.60 477.4013
966.70 477.8427
966.80 478.2842
966.90 478.7256
967.00 479.1133
967.10 479.4982
967.20 479.8831
967.30 480.268
967.40 480.6529
967.50 481.0378
967.60 481.4227
967.70 481.8469
967.80 482.306
967.90 482.7651
968.00 483.2242
968.10 483.6833
968.20 484.1425
968.30 484.6016
968.40 485.0607
968.50 485.5198
968.60 485.9789
968.70 486.438
968.80 486.8972
968.90 487.3563
969.00 487.8154
969.10 488.2745
969.20 488.7336
969.30 489.1927
969.40 489.6518
969.50 490.111
969.60 490.5701
969.70 491.0292
969.80 491.4883
969.90 491.9474
970.00 492.4065
970.10 492.8656
970.20 493.3248
970.30 493.7839
970.40 494.243
970.50 494.7021
970.60 495.1612
970.70 495.9785
970.80 496.9885
970.90 497.9986
971.00 499.0087
971.10 500.0188
971.20 501.0288
971.30 502.0389
971.40 503.0362
971.50 503.9827
971.60 504.9291
971.70 505.8755
971.80 506.8219
971.90 507.7683
972.00 508.7148
972.10 509.6612
972.20 510.6076
972.30 511.554
972.40 512.5004
972.50 513.4469
972.60 514.3933
972.70 515.3397
972.80 516.2861
972.90 517.2325
973.00 518.179
973.10 519.1254
973.20 520.0718
973.30 521.0182
973.40 521.9646
973.50 522.9111
973.60 523.8575
973.70 524.8039
973.80 525.7503
973.90 526.6967
974.00 527.6432
974.10 528.5896
974.20 529.536
974.30 530.4824
974.40 531.2131
974.50 531.1324
974.60 531.0517
974.70 530.9709
974.80 530.8902
974.90 530.8095
975.00 530.7287
975.10 530.648
975.20 530.5151
975.30 530.362
975.40 530.2088
975.50 530.0557
975.60 529.9025
975.70 529.7494
975.80 529.5962
975.90 529.4431
976.00 529.2899
976.10 529.1368
976.20 528.9836
976.30 528.8305
976.40 528.6773
976.50 528.5241
976.60 528.371
976.70 528.2178
976.80 528.0647
976.90 527.9115
977.00 527.7584
977.10 527.6052
977.20 527.4521
977.30 527.2989
977.40 527.1458
977.50 526.9926
977.60 526.8395
977.70 526.6863
977.80 526.5332
977.90 526.38
978.00 526.2269
978.10 526.0737
978.20 525.9484
978.30 525.8408
978.40 525.7333
978.50 525.6257
978.60 525.5182
978.70 525.4106
978.80 525.3031
978.90 525.183
979.00 524.9497
979.10 524.7165
979.20 524.4832
979.30 524.25
979.40 524.0167
979.50 523.7835
979.60 523.5502
979.70 523.317
979.80 523.0837
979.90 522.8505
980.00 522.6172
980.10 522.384
980.20 522.1507
980.30 521.9175
980.40 521.6842
980.50 521.451
980.60 521.2177
980.70 520.9845
980.80 520.7512
980.90 520.5179
981.00 520.2847
981.10 520.0514
981.20 519.8182
981.30 519.5849
981.40 519.3517
981.50 519.1184
981.60 518.8852
981.70 518.6519
981.80 518.4187
981.90 518.1854
982.00 517.7741
982.10 517.3338
982.20 516.8935
982.30 516.4533
982.40 516.013
982.50 515.5727
982.60 515.1324
982.70 514.6469
982.80 514.0655
982.90 513.4841
983.00 512.9026
983.10 512.3212
983.20 511.7398
983.30 511.1583
983.40 510.5769
983.50 509.9955
983.60 509.4141
983.70 508.8326
983.80 508.2512
983.90 507.6698
984.00 507.0883
984.10 506.5069
984.20 505.9255
984.30 505.344
984.40 504.7626
984.50 504.1812
984.60 503.5998
984.70 503.0183
984.80 502.4369
984.90 501.8555
985.00 501.274
985.10 500.6926
985.20 500.1112
985.30 499.5297
985.40 498.9483
985.50 498.3669
985.60 497.7855
985.70 497.204
985.80 495.9789
985.90 494.7339
986.00 493.4889
986.10 492.2439
986.20 490.9989
986.30 489.7538
986.40 488.5088
986.50 487.3052
986.60 486.1636
986.70 485.0221
986.80 483.8805
986.90 482.739
987.00 481.5974
987.10 480.4559
987.20 479.3143
987.30 478.1728
987.40 477.0312
987.50 475.8897
987.60 474.7481
987.70 473.6066
987.80 472.465
987.90 471.3235
988.00 470.1819
988.10 469.0404
988.20 467.8988
988.30 466.7572
988.40 465.6157
988.50 464.4741
988.60 463.3326
988.70 462.191
988.80 461.0495
988.90 459.9079
989.00 458.7664
989.10 457.6248
989.20 456.4833
989.30 455.3417
989.40 454.2002
989.50 453.0586
989.60 452.0937
989.70 451.142
989.80 450.1904
989.90 449.2387
990.00 448.2871
990.10 447.3354
990.20 446.3838
990.30 445.3985
990.40 444.3451
990.50 443.2916
990.60 442.2382
990.70 441.1847
990.80 440.1313
990.90 439.0778
991.00 438.0244
991.10 436.9709
991.20 435.9175
991.30 434.864
991.40 433.8106
991.50 432.7571
991.60 431.7037
991.70 430.6502
991.80 429.5968
991.90 428.5433
992.00 427.4899
992.10 426.4364
992.20 425.383
992.30 424.3295
992.40 423.2761
992.50 422.2226
992.60 421.1692
992.70 420.1157
992.80 419.0623
992.90 418.0088
993.00 416.9554
993.10 415.9019
993.20 414.8485
993.30 413.795
993.40 412.9021
993.50 412.0627
993.60 411.2233
993.70 410.3838
993.80 409.5444
993.90 408.705
994.00 407.8656
994.10 407.0481
994.20 406.3915
994.30 405.7349
994.40 405.0783
994.50 404.4217
994.60 403.7651
994.70 403.1084
994.80 402.4518
994.90 401.7952
995.00 401.1386
995.10 400.482
995.20 399.8254
995.30 399.1688
995.40 398.5122
995.50 397.8556
995.60 397.199
995.70 396.5424
995.80 395.8858
995.90 395.2292
996.00 394.5726
996.10 393.916
996.20 393.2594
996.30 392.6028
996.40 391.9462
996.50 391.2896
996.60 390.633
996.70 389.9764
996.80 389.3197
996.90 388.6631
997.00 388.0065
997.10 387.3499
997.20 387.1173
997.30 387.47
997.40 387.8228
997.50 388.1756
997.60 388.5283
997.70 388.8811
997.80 389.2339
997.90 389.5866
998.00 389.9607
998.10 390.3411
998.20 390.7215
998.30 391.1019
998.40 391.4823
998.50 391.8627
998.60 392.2431
998.70 392.6235
998.80 393.0039
998.90 393.3843
999.00 393.7647
999.10 394.1451
999.20 394.5255
999.30 394.9059
999.40 395.2863
999.50 395.6667
999.60 396.0471
999.70 396.4274
999.80 396.8078
999.90 397.1882
1000.00 397.5686
1000.10 397.949
1000.20 398.3294
1000.30 398.7098
1000.40 399.0902
1000.50 399.4706
1000.60 399.851
1000.70 400.2314
1000.80 400.6118
1000.90 400.9922
1001.00 401.3726
1001.10 401.6559
1001.20 401.9391
1001.30 402.2224
1001.40 402.5056
1001.50 402.7889
1001.60 403.0721
1001.70 403.3554
1001.80 403.7083
1001.90 404.2236
1002.00 404.7389
1002.10 405.2543
1002.20 405.7696
1002.30 406.285
1002.40 406.8003
1002.50 407.3156
1002.60 407.831
1002.70 408.3463
1002.80 408.8617
1002.90 409.377
1003.00 409.8924
1003.10 410.4077
1003.20 410.923
1003.30 411.4384
1003.40 411.9537
1003.50 412.4691
1003.60 412.9844
1003.70 413.4997
1003.80 414.0151
1003.90 414.5304
1004.00 415.0458
1004.10 415.5611
1004.20 416.0765
1004.30 416.5918
1004.40 417.1071
1004.50 417.6225
1004.60 418.1378
1004.70 418.6532
1004.80 419.1685
1004.90 419.7433
1005.00 420.4074
1005.10 421.0715
1005.20 421.7356
1005.30 422.3997
1005.40 423.0638
1005.50 423.7278
1005.60 424.3919
1005.70 425.0211
1005.80 425.6352
1005.90 426.2494
1006.00 426.8635
1006.10 427.4777
1006.20 428.0918
1006.30 428.706
1006.40 429.3201
1006.50 429.9343
1006.60 430.5484
1006.70 431.1626
1006.80 431.7767
1006.90 432.3909
1007.00 433.005
1007.10 433.6192
1007.20 434.2334
1007.30 434.8475
1007.40 435.4617
1007.50 436.0758
1007.60 436.69
1007.70 437.3041
1007.80 437.9183
1007.90 438.5324
1008.00 439.1466
1008.10 439.7607
1008.20 440.3749
1008.30 440.989
1008.40 441.6032
1008.50 442.2174
1008.60 442.8315
1008.70 443.4457
1008.80 444.0308
1008.90 444.5965
1009.00 445.1622
1009.10 445.728
1009.20 446.2937
1009.30 446.8594
1009.40 447.4252
1009.50 447.9909
1009.60 448.5398
1009.70 449.0868
1009.80 449.6338
1009.90 450.1807
1010.00 450.7277
1010.10 451.2747
1010.20 451.8217
1010.30 452.3687
1010.40 452.9157
1010.50 453.4627
1010.60 454.0097
1010.70 454.5567
1010.80 455.1037
1010.90 455.6506
1011.00 456.1976
1011.10 456.7446
1011.20 457.2916
1011.30 457.8386
1011.40 458.3856
1011.50 458.9326
1011.60 459.4796
1011.70 460.0266
1011.80 460.5736
1011.90 461.1206
1012.00 461.6675
1012.10 462.2145
1012.20 462.7615
1012.30 463.3085
1012.40 463.8555
1012.50 464.4025
1012.60 464.9495
1012.70 465.3258
1012.80 465.6595
1012.90 465.9932
1013.00 466.3269
1013.10 466.6606
1013.20 466.9943
1013.30 467.328
1013.40 467.6617
1013.50 467.8379
1013.60 468.014
1013.70 468.1901
1013.80 468.3663
1013.90 468.5424
1014.00 468.7185
1014.10 468.8947
1014.20 469.0708
1014.30 469.247
1014.40 469.4231
1014.50 469.5992
1014.60 469.7754
1014.70 469.9515
1014.80 470.1276
1014.90 470.3038
1015.00 470.4799
1015.10 470.656
1015.20 470.8322
1015.30 471.0083
1015.40 471.1845
1015.50 471.3606
1015.60 471.5367
1015.70 471.7129
1015.80 471.889
1015.90 472.0651
1016.00 472.2413
1016.10 472.4174
1016.20 472.5935
1016.30 472.7697
1016.40 472.9458
1016.50 473.122
1016.60 473.0116
1016.70 472.8297
1016.80 472.6477
1016.90 472.4657
1017.00 472.2838
1017.10 472.1018
1017.20 471.9199
1017.30 471.7379
1017.40 471.7655
1017.50 471.7931
1017.60 471.8207
1017.70 471.8483
1017.80 471.8759
1017.90 471.9034
1018.00 471.931
1018.10 471.9586
1018.20 471.9862
1018.30 472.0138
1018.40 472.0414
1018.50 472.069
1018.60 472.0966
1018.70 472.1242
1018.80 472.1517
1018.90 472.1793
1019.00 472.2069
1019.10 472.2345
1019.20 472.2621
1019.30 472.2897
1019.40 472.3173
1019.50 472.3449
1019.60 472.3725
1019.70 472.4
1019.80 472.4276
1019.90 472.4552
1020.00 472.4828
1020.10 472.5104
1020.20 472.538
1020.30 472.5656
1020.40 472.5932
1020.50 473.0414
1020.60 473.77
1020.70 474.4986
1020.80 475.2272
1020.90 475.9558
1021.00 476.6844
1021.10 477.413
1021.20 478.1416
1021.30 478.846
1021.40 479.5444
1021.50 480.2428
1021.60 480.9411
1021.70 481.6395
1021.80 482.3378
1021.90 483.0362
1022.00 483.7346
1022.10 484.4329
1022.20 485.1313
1022.30 485.8296
1022.40 486.528
1022.50 487.2264
1022.60 487.9247
1022.70 488.6231
1022.80 489.3214
1022.90 490.0198
1023.00 490.7182
1023.10 491.4165
1023.20 492.1149
1023.30 492.8132
1023.40 493.5116
1023.50 494.2099
1023.60 494.9083
1023.70 495.6067
1023.80 496.305
1023.90 497.0034
1024.00 497.7017
1024.10 498.4001
1024.20 499.0985
1024.30 499.7968
1024.40 500.2825
1024.50 500.449
1024.60 500.6156
1024.70 500.7822
1024.80 500.9488
1024.90 501.1153
1025.00 501.2819
1025.10 501.4485
1025.20 501.6144
1025.30 501.7796
1025.40 501.9448
1025.50 502.1101
1025.60 502.2753
1025.70 502.4406
1025.80 502.6058
1025.90 502.771
1026.00 502.9363
1026.10 503.1015
1026.20 503.2668
1026.30 503.432
1026.40 503.5972
1026.50 503.7625
1026.60 503.9277
1026.70 504.093
1026.80 504.2582
1026.90 504.4234
1027.00 504.5887
1027.10 504.7539
1027.20 504.9192
1027.30 505.0844
1027.40 505.2496
1027.50 505.4149
1027.60 505.5801
1027.70 505.7453
1027.80 505.9106
1027.90 506.0758
1028.00 506.2411
1028.10 506.4063
1028.20 506.5715
1028.30 506.7368
1028.40 507.4504
1028.50 508.164
1028.60 508.8776
1028.70 509.5912
1028.80 510.3048
1028.90 511.0184
1029.00 511.732
1029.10 512.4267
1029.20 512.9516
1029.30 513.4765
1029.40 514.0014
1029.50 514.5263
1029.60 515.0512
1029.70 515.5761
1029.80 516.101
1029.90 516.6258
1030.00 517.1507
1030.10 517.6756
1030.20 518.2005
1030.30 518.7254
1030.40 519.2503
1030.50 519.7752
1030.60 520.3001
1030.70 520.8249
1030.80 521.3498
1030.90 521.8747
1031.00 522.3996
1031.10 522.9245
1031.20 523.4494
1031.30 523.9743
1031.40 524.4991
1031.50 525.024
1031.60 525.5489
1031.70 526.0738
1031.80 526.5987
1031.90 527.1236
1032.00 527.6485
1032.10 528.1734
1032.20 528.6982
1032.30 529.0566
1032.40 529.2483
1032.50 529.4401
1032.60 529.6319
1032.70 529.8237
1032.80 530.0154
1032.90 530.2072
1033.00 530.399
1033.10 530.8151
1033.20 531.3808
1033.30 531.9465
1033.40 532.5122
1033.50 533.0779
1033.60 533.6436
1033.70 534.2093
1033.80 534.775
1033.90 535.3407
1034.00 535.9064
1034.10 536.4721
1034.20 537.0378
1034.30 537.6035
1034.40 538.1692
1034.50 538.7349
1034.60 539.3006
1034.70 539.8663
1034.80 540.432
1034.90 540.9977
1035.00 541.5634
1035.10 542.1291
1035.20 542.6948
1035.30 543.2605
1035.40 543.8262
1035.50 544.3919
1035.60 544.9576
1035.70 545.5233
1035.80 546.089
1035.90 546.6547
1036.00 547.2204
1036.10 547.7861
1036.20 548.3518
1036.30 549.1348
1036.40 549.9722
1036.50 550.8095
1036.60 551.6468
1036.70 552.4842
1036.80 553.3215
1036.90 554.1589
1037.00 554.9962
1037.10 555.6584
1037.20 556.3012
1037.30 556.9439
1037.40 557.5867
1037.50 558.2294
1037.60 558.8722
1037.70 559.515
1037.80 560.1577
1037.90 560.8005
1038.00 561.4432
1038.10 562.086
1038.20 562.7287
1038.30 563.3715
1038.40 564.0142
1038.50 564.657
1038.60 565.2997
1038.70 565.9425
1038.80 566.5852
1038.90 567.228
1039.00 567.8707
1039.10 568.5135
1039.20 569.1562
1039.30 569.799
1039.40 570.4417
1039.50 571.0845
1039.60 571.7272
1039.70 572.37
1039.80 573.0127
1039.90 573.6555
1040.00 574.2982
1040.10 574.941
1040.20 575.5942
1040.30 576.3414
1040.40 577.0885
1040.50 577.8357
1040.60 578.5829
1040.70 579.3301
1040.80 580.0772
1040.90 580.8244
1041.00 581.5453
1041.10 582.1608
1041.20 582.7764
1041.30 583.392
1041.40 584.0075
1041.50 584.6231
1041.60 585.2387
1041.70 585.8543
1041.80 586.4698
1041.90 587.0854
1042.00 587.701
1042.10 588.3165
1042.20 588.9321
1042.30 589.5477
1042.40 590.1632
1042.50 590.7788
1042.60 591.3944
1042.70 592.01
1042.80 592.6255
1042.90 593.2411
1043.00 593.8567
1043.10 594.4722
1043.20 595.0878
1043.30 595.7034
1043.40 596.3189
1043.50 596.9345
1043.60 597.5501
1043.70 598.1656
1043.80 598.7812
1043.90 599.3968
1044.00 600.0124
1044.10 600.6279
1044.20 601.1345
1044.30 601.205
1044.40 601.2754
1044.50 601.3459
1044.60 601.4164
1044.70 601.4869
1044.80 601.5574
1044.90 601.6278
1045.00 601.7561
1045.10 602.0193
1045.20 602.2824
1045.30 602.5456
1045.40 602.8088
1045.50 603.0719
1045.60 603.3351
1045.70 603.5983
1045.80 603.8614
1045.90 604.1246
1046.00 604.3878
1046.10 604.6509
1046.20 604.9141
1046.30 605.1773
1046.40 605.4404
1046.50 605.7036
1046.60 605.9667
1046.70 606.2299
1046.80 606.4931
1046.90 606.7562
1047.00 607.0194
1047.10 607.2826
1047.20 607.5457
1047.30 607.8089
1047.40 608.0721
1047.50 608.3352
1047.60 608.5984
1047.70 608.8616
1047.80 609.1247
1047.90 609.3879
1048.00 609.651
1048.10 609.9142
1048.20 610.11
1048.30 610.1488
1048.40 610.1876
1048.50 610.2263
1048.60 610.2651
1048.70 610.3038
1048.80 610.3426
1048.90 610.3813
1049.00 610.378
1049.10 610.2767
1049.20 610.1753
1049.30 610.074
1049.40 609.9726
1049.50 609.8712
1049.60 609.7699
1049.70 609.6685
1049.80 609.5671
1049.90 609.4658
1050.00 609.3644
1050.10 609.263
1050.20 609.1617
1050.30 609.0603
1050.40 608.9589
1050.50 608.8576
1050.60 608.7562
1050.70 608.6549
1050.80 608.5535
1050.90 608.4521
1051.00 608.3508
1051.10 608.2494
1051.20 608.148
1051.30 608.0467
1051.40 607.9453
1051.50 607.8439
1051.60 607.7426
1051.70 607.6412
1051.80 607.5398
1051.90 607.4385
1052.00 607.3371
1052.10 607.2358
1052.20 607.3122
1052.30 608.1
1052.40 608.8878
1052.50 609.6756
1052.60 610.4634
1052.70 611.2512
1052.80 612.039
1052.90 612.8268
1053.00 613.6298
1053.10 614.4934
1053.20 615.3569
1053.30 616.2205
1053.40 617.0841
1053.50 617.9477
1053.60 618.8112
1053.70 619.6748
1053.80 620.5384
1053.90 621.402
1054.00 622.2655
1054.10 623.1291
1054.20 623.9927
1054.30 624.8562
1054.40 625.7198
1054.50 626.5834
1054.60 627.447
1054.70 628.3105
1054.80 629.1741
1054.90 630.0377
1055.00 630.9013
1055.10 631.7648
1055.20 632.6284
1055.30 633.492
1055.40 634.3555
1055.50 635.2191
1055.60 636.0827
1055.70 636.9463
1055.80 637.8098
1055.90 638.6734
1056.00 639.537
1056.10 640.4005
1056.20 641.2641
1056.30 641.3432
1056.40 641.4223
1056.50 641.5013
1056.60 641.5804
1056.70 641.6595
1056.80 641.7386
1056.90 641.8176
1057.00 641.8967
1057.10 641.7913
1057.20 641.6654
1057.30 641.5395
1057.40 641.4136
1057.50 641.2877
1057.60 641.1618
1057.70 641.0359
1057.80 640.91
1057.90 640.7841
1058.00 640.6582
1058.10 640.5323
1058.20 640.4064
1058.30 640.2805
1058.40 640.1546
1058.50 640.0287
1058.60 639.9028
1058.70 639.7769
1058.80 639.651
1058.90 639.5251
1059.00 639.3992
1059.10 639.2733
1059.20 639.1474
1059.30 639.0215
1059.40 638.8956
1059.50 638.7697
1059.60 638.6438
1059.70 638.5179
1059.80 638.392
1059.90 638.2661
1060.00 638.1402
1060.10 638.0143
1060.20 637.8884
1060.30 637.9899
1060.40 638.2431
1060.50 638.4964
1060.60 638.7496
1060.70 639.0028
1060.80 639.256
1060.90 639.5092
1061.00 639.7624
1061.10 640.163
1061.20 640.662
1061.30 641.161
1061.40 641.66
1061.50 642.159
1061.60 642.658
1061.70 643.157
1061.80 643.6559
1061.90 644.1549
1062.00 644.6539
1062.10 645.1529
1062.20 645.6519
1062.30 646.1509
1062.40 646.6499
1062.50 647.1489
1062.60 647.6478
1062.70 648.1468
1062.80 648.6458
1062.90 649.1448
1063.00 649.6438
1063.10 650.1428
1063.20 650.6418
1063.30 651.1408
1063.40 651.6397
1063.50 652.1387
1063.60 652.6377
1063.70 653.1367
1063.80 653.6357
1063.90 654.1347
1064.00 654.6337
1064.10 655.1327
1064.20 655.6316
1064.30 656.1131
1064.40 656.5245
1064.50 656.9358
1064.60 657.3472
1064.70 657.7585
1064.80 658.1698
1064.90 658.5812
1065.00 658.9925
1065.10 659.3859
1065.20 659.7076
1065.30 660.0292
1065.40 660.3508
1065.50 660.6725
1065.60 660.9941
1065.70 661.3157
1065.80 661.6374
1065.90 661.959
1066.00 662.2806
1066.10 662.6023
1066.20 662.9239
1066.30 663.2455
1066.40 663.5671
1066.50 663.8888
1066.60 664.2104
1066.70 664.532
1066.80 664.8537
1066.90 665.1753
1067.00 665.4969
1067.10 665.8186
1067.20 666.1402
1067.30 666.4618
1067.40 666.7834
1067.50 667.1051
1067.60 667.4267
1067.70 667.7483
1067.80 668.07
1067.90 668.3916
1068.00 668.7132
1068.10 669.0349
1068.20 669.3565
1068.30 669.6781
1068.40 670.2068
1068.50 670.8242
1068.60 671.4416
1068.70 672.059
1068.80 672.6763
1068.90 673.2937
1069.00 673.9111
1069.10 674.5285
1069.20 675.1624
1069.30 675.8071
1069.40 676.4519
1069.50 677.0967
1069.60 677.7415
1069.70 678.3863
1069.80 679.0311
1069.90 679.6759
1070.00 680.3207
1070.10 680.9655
1070.20 681.6103
1070.30 682.2551
1070.40 682.8999
1070.50 683.5446
1070.60 684.1894
1070.70 684.8342
1070.80 685.479
1070.90 686.1238
1071.00 686.7686
1071.10 687.4134
1071.20 688.0582
1071.30 688.703
1071.40 689.3478
1071.50 689.9926
1071.60 690.6373
1071.70 691.2821
1071.80 691.9269
1071.90 692.5717
1072.00 693.2165
1072.10 693.8613
1072.20 694.5061
1072.30 695.1509
1072.40 695.7507
1072.50 695.946
1072.60 696.1414
1072.70 696.3367
1072.80 696.532
1072.90 696.7273
1073.00 696.9226
1073.10 697.1179
1073.20 697.3132
1073.30 697.5853
1073.40 697.8575
1073.50 698.1296
1073.60 698.4017
1073.70 698.6738
1073.80 698.946
1073.90 699.2181
1074.00 699.4902
1074.10 699.7623
1074.20 700.0344
1074.30 700.3066
1074.40 700.5787
1074.50 700.8508
1074.60 701.1229
1074.70 701.3951
1074.80 701.6672
1074.90 701.9393
1075.00 702.2114
1075.10 702.4835
1075.20 702.7557
1075.30 703.0278
1075.40 703.2999
1075.50 703.572
1075.60 703.8442
1075.70 704.1163
1075.80 704.3884
1075.90 704.6605
1076.00 704.9327
1076.10 705.2048
1076.20 705.4769
1076.30 705.749
1076.40 706.0211
1076.50 706.4755
1076.60 707.2031
1076.70 707.9307
1076.80 708.6583
1076.90 709.3859
1077.00 710.1135
1077.10 710.8411
1077.20 711.5687
1077.30 712.2841
1077.40 712.9508
1077.50 713.6174
1077.60 714.2841
1077.70 714.9508
1077.80 715.6175
1077.90 716.2842
1078.00 716.9509
1078.10 717.6176
1078.20 718.2842
1078.30 718.9509
1078.40 719.6176
1078.50 720.2843
1078.60 720.951
1078.70 721.6177
1078.80 722.2844
1078.90 722.951
1079.00 723.6177
1079.10 724.2844
1079.20 724.9511
1079.30 725.6178
1079.40 726.2845
1079.50 726.9512
1079.60 727.6179
1079.70 728.2845
1079.80 728.9512
1079.90 729.6179
1080.00 730.2846
1080.10 730.9513
1080.20 731.618
1080.30 732.2847
1080.40 732.9513
1080.50 733.618
1080.60 734.1096
1080.70 734.4262
1080.80 734.7427
1080.90 735.0593
1081.00 735.3758
1081.10 735.6924
1081.20 736.0089
1081.30 736.3255
1081.40 736.5482
1081.50 736.6302
1081.60 736.7122
1081.70 736.7943
1081.80 736.8763
1081.90 736.9583
1082.00 737.0404
1082.10 737.1224
1082.20 737.2044
1082.30 737.2864
1082.40 737.3685
1082.50 737.4505
1082.60 737.5325
1082.70 737.6146
1082.80 737.6966
1082.90 737.7786
1083.00 737.8606
1083.10 737.9427
1083.20 738.0247
1083.30 738.1067
1083.40 738.1887
1083.50 738.2708
1083.60 738.3528
1083.70 738.4348
1083.80 738.5169
1083.90 738.5989
1084.00 738.6809
1084.10 738.7629
1084.20 738.845
1084.30 738.927
1084.40 739.009
1084.50 739.091
1084.60 739.1731
1084.70 739.3994
1084.80 739.7219
1084.90 740.0443
1085.00 740.3668
1085.10 740.6893
1085.20 741.0118
1085.30 741.3343
1085.40 741.6567
1085.50 742.0765
1085.60 742.6422
1085.70 743.2079
1085.80 743.7736
1085.90 744.3393
1086.00 744.9051
1086.10 745.4708
1086.20 746.0365
1086.30 746.6022
1086.40 747.1679
1086.50 747.7336
1086.60 748.2993
1086.70 748.865
1086.80 749.4307
1086.90 749.9964
1087.00 750.5621
1087.10 751.1279
1087.20 751.6936
1087.30 752.2593
1087.40 752.825
1087.50 753.3907
1087.60 753.9564
1087.70 754.5221
1087.80 755.0878
1087.90 755.6535
1088.00 756.2192
1088.10 756.7849
1088.20 757.3506
1088.30 757.9164
1088.40 758.4821
1088.50 759.0478
1088.60 759.6135
1088.70 760.1792
1088.80 760.6752
1088.90 761.1246
1089.00 761.5741
1089.10 762.0236
1089.20 762.4731
1089.30 762.9225
1089.40 763.372
1089.50 763.8215
1089.60 764.1944
1089.70 764.4522
1089.80 764.7101
1089.90 764.968
1090.00 765.2259
1090.10 765.4838
1090.20 765.7417
1090.30 765.9996
1090.40 766.2575
1090.50 766.5154
1090.60 766.7733
1090.70 767.0312
1090.80 767.2891
1090.90 767.547
1091.00 767.8049
1091.10 768.0628
1091.20 768.3207
1091.30 768.5786
1091.40 768.8365
1091.50 769.0944
1091.60 769.3523
1091.70 769.6102
1091.80 769.8681
1091.90 770.126
1092.00 770.3839
1092.10 770.6417
1092.20 770.8996
1092.30 771.1575
1092.40 771.4154
1092.50 771.6733
1092.60 771.9312
1092.70 772.1891
1092.80 772.447
1092.90 772.7223
1093.00 773.0151
1093.10 773.3078
1093.20 773.6005
1093.30 773.8932
1093.40 774.186
1093.50 774.4787
1093.60 774.7714
1093.70 775.0652
1093.80 775.3613
1093.90 775.6574
1094.00 775.9535
1094.10 776.2496
1094.20 776.5457
1094.30 776.8418
1094.40 777.1379
1094.50 777.434
1094.60 777.7301
1094.70 778.0262
1094.80 778.3223
1094.90 778.6184
1095.00 778.9145
1095.10 779.2107
1095.20 779.5068
1095.30 779.8029
1095.40 780.099
1095.50 780.3951
1095.60 780.6912
1095.70 780.9873
1095.80 781.2834
1095.90 781.5795
1096.00 781.8756
1096.10 782.1717
1096.20 782.4678
1096.30 782.7639
1096.40 783.06
1096.50 783.3561
1096.60 783.6522
1096.70 783.9483
1096.80 784.2444
1096.90 784.5406
1097.00 784.701
1097.10 784.545
1097.20 784.389
1097.30 784.233
1097.40 784.077
1097.50 783.921
1097.60 783.7649
1097.70 783.6089
1097.80 783.458
1097.90 783.3531
1098.00 783.2481
1098.10 783.1431
1098.20 783.0382
1098.30 782.9332
1098.40 782.8282
1098.50 782.7233
1098.60 782.6183
1098.70 782.5133
1098.80 782.4084
1098.90 782.3034
1099.00 782.1984
1099.10 782.0935
1099.20 781.9885
1099.30 781.8835
1099.40 781.7786
1099.50 781.6736
1099.60 781.5686
1099.70 781.4637
1099.80 781.3587
1099.90 781.2537
1100.00 781.1488
1100.10 781.0438
1100.20 780.9388
1100.30 780.8339
1100.40 780.7289
1100.50 780.6239
1100.60 780.519
1100.70 780.414
1100.80 780.309
1100.90 780.2041
1101.00 780.0991
1101.10 779.9941
1101.20 779.9943
1101.30 779.9945
1101.40 779.9947
1101.50 779.9949
1101.60 779.9951
1101.70 779.9953
1101.80 779.9955
1101.90 779.9957
1102.00 779.9826
1102.10 779.9662
1102.20 779.9498
1102.30 779.9333
1102.40 779.9169
1102.50 779.9005
1102.60 779.8841
1102.70 779.8677
1102.80 779.8513
1102.90 779.8348
1103.00 779.8184
1103.10 779.802
1103.20 779.7856
1103.30 779.7692
1103.40 779.7527
1103.50 779.7363
1103.60 779.7199
1103.70 779.7035
1103.80 779.6871
1103.90 779.6707
1104.00 779.6542
1104.10 779.6378
1104.20 779.6214
1104.30 779.605
1104.40 779.5886
1104.50 779.5722
1104.60 779.5557
1104.70 779.5393
1104.80 779.5229
1104.90 779.5065
1105.00 779.4901
1105.10 779.4736
1105.20 779.4572
1105.30 779.3838
1105.40 779.2725
1105.50 779.1611
1105.60 779.0498
1105.70 778.9384
1105.80 778.8271
1105.90 778.7157
1106.00 778.6044
1106.10 778.4276
1106.20 778.1527
1106.30 777.8777
1106.40 777.6028
1106.50 777.3279
1106.60 777.053
1106.70 776.778
1106.80 776.5031
1106.90 776.2282
1107.00 775.9533
1107.10 775.6784
1107.20 775.4034
1107.30 775.1285
1107.40 774.8536
1107.50 774.5787
1107.60 774.3038
1107.70 774.0288
1107.80 773.7539
1107.90 773.479
1108.00 773.2041
1108.10 772.9291
1108.20 772.6542
1108.30 772.3793
1108.40 772.1044
1108.50 771.8295
1108.60 771.5545
1108.70 771.2796
1108.80 771.0047
1108.90 770.7298
1109.00 770.4549
1109.10 770.1799
1109.20 769.905
1109.30 769.6301
1109.40 769.4024
1109.50 769.3636
1109.60 769.3249
1109.70 769.2861
1109.80 769.2473
1109.90 769.2086
1110.00 769.1698
1110.10 769.131
1110.20 769.0923
1110.30 769.1552
1110.40 769.2294
1110.50 769.3036
1110.60 769.3778
1110.70 769.452
1110.80 769.5262
1110.90 769.6004
1111.00 769.6746
1111.10 769.7488
1111.20 769.823
1111.30 769.8973
1111.40 769.9715
1111.50 770.0457
1111.60 770.1199
1111.70 770.1941
1111.80 770.2683
1111.90 770.3425
1112.00 770.4167
1112.10 770.4909
1112.20 770.5651
1112.30 770.6393
1112.40 770.7135
1112.50 770.7877
1112.60 770.862
1112.70 770.9362
1112.80 771.0104
1112.90 771.0846
1113.00 771.1588
1113.10 771.233
1113.20 771.3072
1113.30 771.3814
1113.40 771.4556
1113.50 771.5298
1113.60 771.6577
1113.70 771.8213
1113.80 771.9849
1113.90 772.1484
1114.00 772.312
1114.10 772.4756
1114.20 772.6392
1114.30 772.8028
1114.40 772.9948
1114.50 773.2529
1114.60 773.511
1114.70 773.7691
1114.80 774.0272
1114.90 774.2853
1115.00 774.5434
1115.10 774.8015
1115.20 775.0596
1115.30 775.3177
1115.40 775.5758
1115.50 775.8339
1115.60 776.092
1115.70 776.3501
1115.80 776.6082
1115.90 776.8663
1116.00 777.1244
1116.10 777.3825
1116.20 777.6406
1116.30 777.8987
1116.40 778.1568
1116.50 778.4149
1116.60 778.673
1116.70 778.9311
1116.80 779.1892
1116.90 779.4473
1117.00 779.7054
1117.10 779.9635
1117.20 780.2216
1117.30 780.4797
1117.40 780.7378
1117.50 780.9959
1117.60 781.254
1117.70 781.5121
1117.80 781.7214
1117.90 781.9307
1118.00 782.14
1118.10 782.3492
1118.20 782.5585
1118.30 782.7678
1118.40 782.9771
1118.50 783.1863
1118.60 783.4382
1118.70 783.7083
1118.80 783.9784
1118.90 784.2485
1119.00 784.5186
1119.10 784.7887
1119.20 785.0588
1119.30 785.3289
1119.40 785.599
1119.50 785.8691
1119.60 786.1392
1119.70 786.4093
1119.80 786.6794
1119.90 786.9495
1120.00 787.2196
1120.10 787.4897
1120.20 787.7598
1120.30 788.0299
1120.40 788.3
1120.50 788.5701
1120.60 788.8402
1120.70 789.1103
1120.80 789.3804
1120.90 789.6505
1121.00 789.9206
1121.10 790.1907
1121.20 790.4608
1121.30 790.7309
1121.40 791.001
1121.50 791.2711
1121.60 791.5412
1121.70 791.8113
1121.80 792.0814
1121.90 792.2387
1122.00 792.1328
1122.10 792.0268
1122.20 791.9209
1122.30 791.815
1122.40 791.7091
1122.50 791.6031
1122.60 791.4972
1122.70 791.3913
1122.80 791.0296
1122.90 790.6678
1123.00 790.3061
1123.10 789.9444
1123.20 789.5827
1123.30 789.221
1123.40 788.8593
1123.50 788.4976
1123.60 788.1359
1123.70 787.7741
1123.80 787.4124
1123.90 787.0507
1124.00 786.689
1124.10 786.3273
1124.20 785.9656
1124.30 785.6039
1124.40 785.2421
1124.50 784.8804
1124.60 784.5187
1124.70 784.157
1124.80 783.7953
1124.90 783.4336
1125.00 783.0719
1125.10 782.7102
1125.20 782.3484
1125.30 781.9867
1125.40 781.625
1125.50 781.2633
1125.60 780.9016
1125.70 780.5399
1125.80 780.1782
1125.90 779.8164
1126.00 779.4547
1126.10 779.0437
1126.20 778.5832
1126.30 778.1228
1126.40 777.6624
1126.50 777.202
1126.60 776.7415
1126.70 776.2811
1126.80 775.8207
1126.90 775.4027
1127.00 775.1546
1127.10 774.9065
1127.20 774.6583
1127.30 774.4102
1127.40 774.1621
1127.50 773.914
1127.60 773.6659
1127.70 773.4177
1127.80 773.1696
1127.90 772.9215
1128.00 772.6734
1128.10 772.4253
1128.20 772.1771
1128.30 771.929
1128.40 771.6809
1128.50 771.4328
1128.60 771.1846
1128.70 770.9365
1128.80 770.6884
1128.90 770.4403
1129.00 770.1922
1129.10 769.944
1129.20 769.6959
1129.30 769.4478
1129.40 769.1997
1129.50 768.9515
1129.60 768.7034
1129.70 768.4553
1129.80 768.2072
1129.90 767.9591
1130.00 767.7109
1130.10 767.4628
1130.20 767.2147
1130.30 766.7975
1130.40 766.3078
1130.50 765.8181
1130.60 765.3284
1130.70 764.8387
1130.80 764.349
1130.90 763.8593
1131.00 763.3696
1131.10 762.8485
1131.20 762.2801
1131.30 761.7117
1131.40 761.1433
1131.50 760.5749
1131.60 760.0066
1131.70 759.4382
1131.80 758.8698
1131.90 758.3014
1132.00 757.733
1132.10 757.1646
1132.20 756.5963
1132.30 756.0279
1132.40 755.4595
1132.50 754.8911
1132.60 754.3227
1132.70 753.7543
1132.80 753.186
1132.90 752.6176
1133.00 752.0492
1133.10 751.4808
1133.20 750.9124
1133.30 750.344
1133.40 749.7757
1133.50 749.2073
1133.60 748.6389
1133.70 748.0705
1133.80 747.5021
1133.90 746.9337
1134.00 746.3654
1134.10 745.797
1134.20 745.2286
1134.30 744.6602
1134.40 744.0918
1134.50 743.8727
1134.60 743.7408
1134.70 743.6089
1134.80 743.4771
1134.90 743.3452
1135.00 743.2133
1135.10 743.0815
1135.20 742.9496
1135.30 742.877
1135.40 742.8932
1135.50 742.9095
1135.60 742.9257
1135.70 742.9419
1135.80 742.9581
1135.90 742.9744
1136.00 742.9906
1136.10 743.0068
1136.20 743.0231
1136.30 743.0393
1136.40 743.0555
1136.50 743.0717
1136.60 743.088
1136.70 743.1042
1136.80 743.1204
1136.90 743.1367
1137.00 743.1529
1137.10 743.1691
1137.20 743.1854
1137.30 743.2016
1137.40 743.2178
1137.50 743.234
1137.60 743.2503
1137.70 743.2665
1137.80 743.2827
1137.90 743.299
1138.00 743.3152
1138.10 743.3314
1138.20 743.3477
1138.30 743.3639
1138.40 743.3801
1138.50 743.3963
1138.60 743.4126
1138.70 743.8718
1138.80 744.4418
1138.90 745.0118
1139.00 745.5819
1139.10 746.1519
1139.20 746.7219
1139.30 747.2919
1139.40 747.8619
1139.50 748.4299
1139.60 748.9949
1139.70 749.5599
1139.80 750.1249
1139.90 750.6899
1140.00 751.2549
1140.10 751.8199
1140.20 752.3849
1140.30 752.9498
1140.40 753.5148
1140.50 754.0798
1140.60 754.6448
1140.70 755.2098
1140.80 755.7748
1140.90 756.3398
1141.00 756.9048
1141.10 757.4698
1141.20 758.0348
1141.30 758.5998
1141.40 759.1648
1141.50 759.7298
1141.60 760.2948
1141.70 760.8598
1141.80 761.4248
1141.90 761.9898
1142.00 762.5547
1142.10 763.1197
1142.20 763.6847
1142.30 764.2497
1142.40 764.8147
1142.50 765.3797
1142.60 765.9447
1142.70 766.5097
1142.80 767.0747
1142.90 768.2901
1143.00 769.6682
1143.10 771.0462
1143.20 772.4243
1143.30 773.8023
1143.40 775.1804
1143.50 776.5584
1143.60 777.9364
1143.70 779.3313
1143.80 780.7514
1143.90 782.1715
1144.00 783.5916
1144.10 785.0117
1144.20 786.4318
1144.30 787.8519
1144.40 789.2721
1144.50 790.6922
1144.60 792.1123
1144.70 793.5324
1144.80 794.9525
1144.90 796.3726
1145.00 797.7927
1145.10 799.2128
1145.20 800.6329
1145.30 802.053
1145.40 803.4731
1145.50 804.8932
1145.60 806.3133
1145.70 807.7334
1145.80 809.1535
1145.90 810.5736
1146.00 811.9937
1146.10 813.4139
1146.20 814.834
1146.30 816.2541
1146.40 817.6742
1146.50 819.0943
1146.60 820.5144
1146.70 821.9345
1146.80 823.3546
1146.90 824.7747
1147.00 826.1948
1147.10 826.9858
1147.20 827.3573
1147.30 827.7288
1147.40 828.1004
1147.50 828.4719
1147.60 828.8434
1147.70 829.215
1147.80 829.5865
1147.90 829.9371
1148.00 830.2039
1148.10 830.4707
1148.20 830.7375
1148.30 831.0043
1148.40 831.2711
1148.50 831.5379
1148.60 831.8047
1148.70 832.0715
1148.80 832.3383
1148.90 832.605
1149.00 832.8718
1149.10 833.1386
1149.20 833.4054
1149.30 833.6722
1149.40 833.939
1149.50 834.2058
1149.60 834.4726
1149.70 834.7394
1149.80 835.0062
1149.90 835.273
1150.00 835.5398
1150.10 835.8066
1150.20 836.0734
1150.30 836.3402
1150.40 836.607
1150.50 836.8738
1150.60 837.1406
1150.70 837.4073
1150.80 837.6741
1150.90 837.9409
1151.00 838.2077
1151.10 838.4745
1151.20 838.7413
1151.30 839.0659
1151.40 839.4482
1151.50 839.8306
1151.60 840.2129
1151.70 840.5953
1151.80 840.9777
1151.90 841.36
1152.00 841.7424
1152.10 842.1157
1152.20 842.408
1152.30 842.7003
1152.40 842.9925
1152.50 843.2848
1152.60 843.5771
1152.70 843.8694
1152.80 844.1617
1152.90 844.4539
1153.00 844.7462
1153.10 845.0385
1153.20 845.3308
1153.30 845.6231
1153.40 845.9154
1153.50 846.2076
1153.60 846.4999
1153.70 846.7922
1153.80 847.0845
1153.90 847.3768
1154.00 847.669
1154.10 847.9613
1154.20 848.2536
1154.30 848.5459
1154.40 848.8382
1154.50 849.1304
1154.60 849.4227
1154.70 849.715
1154.80 850.0073
1154.90 850.2996
1155.00 850.5918
1155.10 850.8841
1155.20 851.1764
1155.30 851.4687
1155.40 851.761
1155.50 851.9331
1155.60 851.6247
1155.70 851.3162
1155.80 851.0078
1155.90 850.6994
1156.00 850.3909
1156.10 850.0825
1156.20 849.774
1156.30 849.4656
1156.40 849.15
1156.50 848.8327
1156.60 848.5153
1156.70 848.1979
1156.80 847.8806
1156.90 847.5632
1157.00 847.2459
1157.10 846.9285
1157.20 846.6111
1157.30 846.2938
1157.40 845.9764
1157.50 845.6591
1157.60 845.3417
1157.70 845.0243
1157.80 844.707
1157.90 844.3896
1158.00 844.0723
1158.10 843.7549
1158.20 843.4375
1158.30 843.1202
1158.40 842.8028
1158.50 842.4855
1158.60 842.1681
1158.70 841.8507
1158.80 841.5334
1158.90 841.216
1159.00 840.8987
1159.10 840.5813
1159.20 840.2639
1159.30 839.9466
1159.40 839.6292
1159.50 839.3119
1159.60 838.9945
1159.70 838.6771
1159.80 838.2613
1159.90 837.8346
1160.00 837.4079
1160.10 836.9811
1160.20 836.5544
1160.30 836.1277
1160.40 835.7009
1160.50 835.2742
1160.60 834.7682
1160.70 834.183
1160.80 833.5978
1160.90 833.0126
1161.00 832.4273
1161.10 831.8421
1161.20 831.2569
1161.30 830.6716
1161.40 830.0864
1161.50 829.5012
1161.60 828.916
1161.70 828.3307
1161.80 827.7455
1161.90 827.1603
1162.00 826.575
1162.10 825.9898
1162.20 825.4046
1162.30 824.8194
1162.40 824.2341
1162.50 823.6489
1162.60 823.0637
1162.70 822.4785
1162.80 821.8932
1162.90 821.308
1163.00 820.7228
1163.10 820.1375
1163.20 819.5523
1163.30 818.9671
1163.40 818.3819
1163.50 817.7966
1163.60 817.2114
1163.70 816.6262
1163.80 816.0409
1163.90 815.4557
1164.00 814.8103
1164.10 814.1247
1164.20 813.439
1164.30 812.7534
1164.40 812.0678
1164.50 811.3822
1164.60 810.6966
1164.70 810.011
1164.80 809.3412
1164.90 808.814
1165.00 808.2868
1165.10 807.7595
1165.20 807.2323
1165.30 806.7051
1165.40 806.1778
1165.50 805.6506
1165.60 805.1234
1165.70 804.5961
1165.80 804.0689
1165.90 803.5417
1166.00 803.0144
1166.10 802.4872
1166.20 801.96
1166.30 801.4327
1166.40 800.9055
1166.50 800.3783
1166.60 799.851
1166.70 799.3238
1166.80 798.7966
1166.90 798.2693
1167.00 797.7421
1167.10 797.2149
1167.20 796.6876
1167.30 796.1604
1167.40 795.6332
1167.50 795.1059
1167.60 794.5787
1167.70 794.0515
1167.80 793.5242
1167.90 792.997
1168.00 792.4698
1168.10 791.9425
1168.20 791.3905
1168.30 790.739
1168.40 790.0875
1168.50 789.4361
1168.60 788.7846
1168.70 788.1332
1168.80 787.4817
1168.90 786.8302
1169.00 786.1788
1169.10 785.6145
1169.20 785.0875
1169.30 784.5606
1169.40 784.0336
1169.50 783.5066
1169.60 782.9797
1169.70 782.4527
1169.80 781.9257
1169.90 781.3988
1170.00 780.8718
1170.10 780.3449
1170.20 779.8179
1170.30 779.2909
1170.40 778.764
1170.50 778.237
1170.60 777.7101
1170.70 777.1831
1170.80 776.6561
1170.90 776.1292
1171.00 775.6022
1171.10 775.0753
1171.20 774.5483
1171.30 774.0213
1171.40 773.4944
1171.50 772.9674
1171.60 772.4405
1171.70 771.9135
1171.80 771.3865
1171.90 770.8596
1172.00 770.3326
1172.10 769.8057
1172.20 769.2787
1172.30 768.7517
1172.40 768.2248
1172.50 768.2195
1172.60 768.4377
1172.70 768.656
1172.80 768.8742
1172.90 769.0925
1173.00 769.3107
1173.10 769.529
1173.20 769.7472
1173.30 769.9605
1173.40 770.1542
1173.50 770.3478
1173.60 770.5414
1173.70 770.7351
1173.80 770.9287
1173.90 771.1223
1174.00 771.316
1174.10 771.5096
1174.20 771.7032
1174.30 771.8969
1174.40 772.0905
1174.50 772.2841
1174.60 772.4778
1174.70 772.6714
1174.80 772.8651
1174.90 773.0587
1175.00 773.2523
1175.10 773.446
1175.20 773.6396
1175.30 773.8332
1175.40 774.0269
1175.50 774.2205
1175.60 774.4141
1175.70 774.6078
1175.80 774.8014
1175.90 774.995
1176.00 775.1887
1176.10 775.3823
1176.20 775.5759
1176.30 775.7696
1176.40 775.9632
1176.50 776.1568
1176.60 776.3505
1176.70 776.5594
1176.80 776.8293
1176.90 777.0992
1177.00 777.3691
1177.10 777.639
1177.20 777.9089
1177.30 778.1788
1177.40 778.4487
1177.50 778.7186
1177.60 779.0982
1177.70 779.5249
1177.80 779.9515
1177.90 780.3781
1178.00 780.8048
1178.10 781.2314
1178.20 781.6581
1178.30 782.0847
1178.40 782.5114
1178.50 782.938
1178.60 783.3647
1178.70 783.7913
1178.80 784.218
1178.90 784.6446
1179.00 785.0713
1179.10 785.4979
1179.20 785.9246
1179.30 786.3512
1179.40 786.7779
1179.50 787.2045
1179.60 787.6312
1179.70 788.0578
1179.80 788.4845
1179.90 788.9111
1180.00 789.3377
1180.10 789.7644
1180.20 790.191
1180.30 790.6177
1180.40 791.0443
1180.50 791.471
1180.60 791.8976
1180.70 792.3243
1180.80 792.7509
1180.90 793.1776
1181.00 793.8886
1181.10 794.7892
1181.20 795.6898
1181.30 796.5905
1181.40 797.4911
1181.50 798.3917
1181.60 799.2923
1181.70 800.1929
1181.80 801.0873
1181.90 801.9255
1182.00 802.7636
1182.10 803.6018
1182.20 804.44
1182.30 805.2782
1182.40 806.1164
1182.50 806.9545
1182.60 807.7927
1182.70 808.6309
1182.80 809.4691
1182.90 810.3072
1183.00 811.1454
1183.10 811.9836
1183.20 812.8218
1183.30 813.6599
1183.40 814.4981
1183.50 815.3363
1183.60 816.1745
1183.70 817.0127
1183.80 817.8508
1183.90 818.689
1184.00 819.5272
1184.10 820.3654
1184.20 821.2035
1184.30 822.0417
1184.40 822.8799
1184.50 823.7181
1184.60 824.5562
1184.70 825.3944
1184.80 826.2326
1184.90 827.0708
1185.00 827.9089
1185.10 828.7471
1185.20 829.5853
1185.30 830.1066
1185.40 830.6279
1185.50 831.1492
1185.60 831.6705
1185.70 832.1918
1185.80 832.7131
1185.90 833.2344
1186.00 833.7557
1186.10 834.2441
1186.20 834.6998
1186.30 835.1555
1186.40 835.6111
1186.50 836.0668
1186.60 836.5224
1186.70 836.9781
1186.80 837.4337
1186.90 837.8894
1187.00 838.345
1187.10 838.8007
1187.20 839.2563
1187.30 839.712
1187.40 840.1677
1187.50 840.6233
1187.60 841.079
1187.70 841.5346
1187.80 841.9903
1187.90 842.4459
1188.00 842.9016
1188.10 843.3572
1188.20 843.8129
1188.30 844.2686
1188.40 844.7242
1188.50 845.1799
1188.60 845.6355
1188.70 846.0912
1188.80 846.5468
1188.90 847.0025
1189.00 847.4581
1189.10 847.9138
1189.20 848.3694
1189.30 848.8251
1189.40 849.2808
1189.50 849.3311
1189.60 848.7736
1189.70 848.216
1189.80 847.6584
1189.90 847.1009
1190.00 846.5433
1190.10 845.9857
1190.20 845.4282
1190.30 844.8706
1190.40 844.2478
1190.50 843.6178
1190.60 842.9878
1190.70 842.3577
1190.80 841.7277
1190.90 841.0976
1191.00 840.4676
1191.10 839.8376
1191.20 839.2075
1191.30 838.5775
1191.40 837.9475
1191.50 837.3174
1191.60 836.6874
1191.70 836.0574
1191.80 835.4273
1191.90 834.7973
1192.00 834.1673
1192.10 833.5372
1192.20 832.9072
1192.30 832.2772
1192.40 831.6471
1192.50 831.0171
1192.60 830.3871
1192.70 829.757
1192.80 829.127
1192.90 828.497
1193.00 827.8669
1193.10 827.2369
1193.20 826.6069
1193.30 825.9768
1193.40 825.3468
1193.50 824.7168
1193.60 824.0867
1193.70 823.4567
1193.80 822.9343
1193.90 822.458
1194.00 821.9817
1194.10 821.5054
1194.20 821.0291
1194.30 820.5528
1194.40 820.0765
1194.50 819.6002
1194.60 819.1284
1194.70 818.6969
1194.80 818.2654
1194.90 817.8339
1195.00 817.4024
1195.10 816.9709
1195.20 816.5394
1195.30 816.1079
1195.40 815.6764
1195.50 815.2449
1195.60 814.8133
1195.70 814.3818
1195.80 813.9503
1195.90 813.5188
1196.00 813.0873
1196.10 812.6558
1196.20 812.2243
1196.30 811.7928
1196.40 811.3613
1196.50 810.9298
1196.60 810.4983
1196.70 810.0668
1196.80 809.6353
1196.90 809.2038
1197.00 808.7723
1197.10 808.3408
1197.20 807.9093
1197.30 807.4778
1197.40 807.0463
1197.50 806.6148
1197.60 806.1833
1197.70 805.7518
1197.80 805.3203
1197.90 804.8888
1198.00 804.4573
1198.10 804.6457
1198.20 804.9029
1198.30 805.1601
1198.40 805.4174
1198.50 805.6746
1198.60 805.9318
1198.70 806.1891
1198.80 806.4463
1198.90 806.6654
1199.00 806.8272
1199.10 806.9891
1199.20 807.1509
1199.30 807.3128
1199.40 807.4747
1199.50 807.6365
1199.60 807.7984
1199.70 807.9602
1199.80 808.1221
1199.90 808.284
1200.00 808.4458
1200.10 808.6077
1200.20 808.7695
1200.30 808.9314
1200.40 809.0933
1200.50 809.2551
1200.60 809.417
1200.70 809.5788
1200.80 809.7407
1200.90 809.9025
1201.00 810.0644
1201.10 810.2263
1201.20 810.3881
1201.30 810.55
1201.40 810.7118
1201.50 810.8737
1201.60 811.0356
1201.70 811.1974
1201.80 811.3593
1201.90 811.5211
1202.00 811.683
1202.10 811.8449
1202.20 812.0067
1202.30 812.2002
1202.40 812.6783
1202.50 813.1565
1202.60 813.6346
1202.70 814.1128
1202.80 814.5909
1202.90 815.0691
1203.00 815.5472
1203.10 816.0254
1203.20 816.6872
1203.30 817.4716
1203.40 818.2559
1203.50 819.0402
1203.60 819.8246
1203.70 820.6089
1203.80 821.3932
1203.90 822.1776
1204.00 822.9619
1204.10 823.7463
1204.20 824.5306
1204.30 825.3149
1204.40 826.0993
1204.50 826.8836
1204.60 827.6679
1204.70 828.4523
1204.80 829.2366
1204.90 830.021
1205.00 830.8053
1205.10 831.5896
1205.20 832.374
1205.30 833.1583
1205.40 833.9427
1205.50 834.727
1205.60 835.5113
1205.70 836.2957
1205.80 837.08
1205.90 837.8643
1206.00 838.6487
1206.10 839.433
1206.20 840.2174
1206.30 841.0017
1206.40 841.786
1206.50 842.5704
1206.60 843.402
1206.70 844.3441
1206.80 845.2862
1206.90 846.2283
1207.00 847.1704
1207.10 848.1125
1207.20 849.0546
1207.30 849.9966
1207.40 850.9387
1207.50 851.7727
1207.60 852.5797
1207.70 853.3867
1207.80 854.1936
1207.90 855.0006
1208.00 855.8076
1208.10 856.6145
1208.20 857.4215
1208.30 858.2285
1208.40 859.0355
1208.50 859.8424
1208.60 860.6494
1208.70 861.4564
1208.80 862.2633
1208.90 863.0703
1209.00 863.8773
1209.10 864.6842
1209.20 865.4912
1209.30 866.2982
1209.40 867.1052
1209.50 867.9121
1209.60 868.7191
1209.70 869.5261
1209.80 870.333
1209.90 871.14
1210.00 871.947
1210.10 872.7539
1210.20 873.5609
1210.30 874.3679
1210.40 875.1749
1210.50 875.9818
1210.60 876.7888
1210.70 877.5958
1210.80 878.4027
1210.90 879.0953
1211.00 879.6734
1211.10 880.2516
1211.20 880.8297
1211.30 881.4078
1211.40 881.9859
1211.50 882.5641
1211.60 883.1422
1211.70 883.7203
1211.80 884.3896
1211.90 885.069
1212.00 885.7484
1212.10 886.4278
1212.20 887.1072
1212.30 887.7866
1212.40 888.466
1212.50 889.1454
1212.60 889.8248
1212.70 890.5043
1212.80 891.1837
1212.90 891.8631
1213.00 892.5425
1213.10 893.2219
1213.20 893.9013
1213.30 894.5807
1213.40 895.2601
1213.50 895.9395
1213.60 896.6189
1213.70 897.2983
1213.80 897.9777
1213.90 898.6571
1214.00 899.3365
1214.10 900.0159
1214.20 900.6953
1214.30 901.3747
1214.40 902.0541
1214.50 902.7335
1214.60 903.413
1214.70 904.0924
1214.80 904.7718
1214.90 905.4512
1215.00 906.1306
1215.10 906.81
1215.20 907.5874
1215.30 908.4303
1215.40 909.2731
1215.50 910.1159
1215.60 910.9588
1215.70 911.8016
1215.80 912.6444
1215.90 913.4873
1216.00 914.3301
1216.10 914.9079
1216.20 915.4858
1216.30 916.0636
1216.40 916.6414
1216.50 917.2193
1216.60 917.7971
1216.70 918.3749
1216.80 918.9527
1216.90 919.5306
1217.00 920.1084
1217.10 920.6862
1217.20 921.2641
1217.30 921.8419
1217.40 922.4197
1217.50 922.9976
1217.60 923.5754
1217.70 924.1532
1217.80 924.7311
1217.90 925.3089
1218.00 925.8867
1218.10 926.4646
1218.20 927.0424
1218.30 927.6202
1218.40 928.1981
1218.50 928.7759
1218.60 929.3537
1218.70 929.9316
1218.80 930.5094
1218.90 931.0872
1219.00 931.6651
1219.10 932.2429
1219.20 932.8207
1219.30 933.3986
1219.40 933.9764
1219.50 934.4479
1219.60 934.874
1219.70 935.3
1219.80 935.726
1219.90 936.152
1220.00 936.578
1220.10 937.0041
1220.20 937.4301
1220.30 937.8731
1220.40 938.4691
1220.50 939.065
1220.60 939.661
1220.70 940.257
1220.80 940.8529
1220.90 941.4489
1221.00 942.0449
1221.10 942.6408
1221.20 943.2368
1221.30 943.8328
1221.40 944.4287
1221.50 945.0247
1221.60 945.6207
1221.70 946.2167
1221.80 946.8126
1221.90 947.4086
1222.00 948.0046
1222.10 948.6005
1222.20 949.1965
1222.30 949.7925
1222.40 950.3884
1222.50 950.9844
1222.60 951.5804
1222.70 952.1763
1222.80 952.7723
1222.90 953.3683
1223.00 953.9642
1223.10 954.5602
1223.20 955.1562
1223.30 955.7521
1223.40 956.3481
1223.50 956.9441
1223.60 957.5401
1223.70 958.136
1223.80 958.4287
1223.90 958.5915
1224.00 958.7542
1224.10 958.917
1224.20 959.0797
1224.30 959.2425
1224.40 959.4052
1224.50 959.568
1224.60 959.7049
1224.70 959.7383
1224.80 959.7717
1224.90 959.8051
1225.00 959.8385
1225.10 959.872
1225.20 959.9054
1225.30 959.9388
1225.40 959.9722
1225.50 960.0056
1225.60 960.0391
1225.70 960.0725
1225.80 960.1059
1225.90 960.1393
1226.00 960.1727
1226.10 960.2062
1226.20 960.2396
1226.30 960.273
1226.40 960.3064
1226.50 960.3398
1226.60 960.3732
1226.70 960.4067
1226.80 960.4401
1226.90 960.4735
1227.00 960.5069
1227.10 960.5403
1227.20 960.5738
1227.30 960.6072
1227.40 960.6406
1227.50 960.674
1227.60 960.7074
1227.70 960.7408
1227.80 960.7743
1227.90 960.8077
1228.00 960.8411
1228.10 960.8066
1228.20 960.7552
1228.30 960.7038
1228.40 960.6524
1228.50 960.6009
1228.60 960.5495
1228.70 960.4981
1228.80 960.4467
1228.90 960.3843
1229.00 960.2785
1229.10 960.1726
1229.20 960.0667
1229.30 959.9609
1229.40 959.855
1229.50 959.7491
1229.60 959.6433
1229.70 959.5374
1229.80 959.4315
1229.90 959.3257
1230.00 959.2198
1230.10 959.1139
1230.20 959.0081
1230.30 958.9022
1230.40 958.7963
1230.50 958.6905
1230.60 958.5846
1230.70 958.4787
1230.80 958.3729
1230.90 958.267
1231.00 958.1611
1231.10 958.0553
1231.20 957.9494
1231.30 957.8435
1231.40 957.7377
1231.50 957.6318
1231.60 957.5259
1231.70 957.4201
1231.80 957.3142
1231.90 957.2083
1232.00 957.1025
1232.10 956.9966
1232.20 956.8907
1232.30 956.7849
1232.40 956.0364
1232.50 955.1272
1232.60 954.2181
1232.70 953.3089
1232.80 952.3998
1232.90 951.4906
1233.00 950.5814
1233.10 949.6723
1233.20 948.7548
1233.30 947.8038
1233.40 946.8528
1233.50 945.9019
1233.60 944.9509
1233.70 944
1233.80 943.049
1233.90 942.098
1234.00 941.1471
1234.10 940.1961
1234.20 939.2451
1234.30 938.2942
1234.40 937.3432
1234.50 936.3923
1234.60 935.4413
1234.70 934.4903
1234.80 933.5394
1234.90 932.5884
1235.00 931.6374
1235.10 930.6865
1235.20 929.7355
1235.30 928.7845
1235.40 927.8336
1235.50 926.8826
1235.60 925.9317
1235.70 924.9807
1235.80 924.0297
1235.90 923.0788
1236.00 922.1278
1236.10 921.1768
1236.20 920.2259
1236.30 919.2749
1236.40 918.3239
1236.50 917.373
1236.60 916.422
1236.70 915.8485
1236.80 915.4367
1236.90 915.025
1237.00 914.6132
1237.10 914.2015
1237.20 913.7897
1237.30 913.378
1237.40 912.9662
1237.50 912.5561
1237.60 912.1528
1237.70 911.7494
1237.80 911.346
1237.90 910.9427
1238.00 910.5393
1238.10 910.136
1238.20 909.7326
1238.30 909.3292
1238.40 908.9259
1238.50 908.5225
1238.60 908.1192
1238.70 907.7158
1238.80 907.3124
1238.90 906.9091
1239.00 906.5057
1239.10 906.1024
1239.20 905.699
1239.30 905.2956
1239.40 904.8923
1239.50 904.4889
1239.60 904.0856
1239.70 903.6822
1239.80 903.2788
1239.90 902.8755
1240.00 902.4721
1240.10 902.0688
1240.20 901.6654
1240.30 901.262
1240.40 900.8587
1240.50 900.4553
1240.60 900.052
1240.70 899.6486
1240.80 899.2452
1240.90 898.8419
1241.00 898.4153
1241.10 897.9787
1241.20 897.5421
1241.30 897.1056
1241.40 896.669
1241.50 896.2324
1241.60 895.7959
1241.70 895.3593
1241.80 894.9355
1241.90 894.627
1242.00 894.3185
1242.10 894.0099
1242.20 893.7014
1242.30 893.3929
1242.40 893.0843
1242.50 892.7758
1242.60 892.4672
1242.70 892.1587
1242.80 891.8502
1242.90 891.5416
1243.00 891.2331
1243.10 890.9246
1243.20 890.616
1243.30 890.3075
1243.40 889.9989
1243.50 889.6904
1243.60 889.3819
1243.70 889.0733
1243.80 888.7648
1243.90 888.4562
1244.00 888.1477
1244.10 887.8392
1244.20 887.5306
1244.30 887.2221
1244.40 886.9136
1244.50 886.605
1244.60 886.2965
1244.70 885.9879
1244.80 885.6794
1244.90 885.3709
1245.00 885.0623
1245.10 884.7538
1245.20 884.4452
1245.30 884.7557
1245.40 885.4787
1245.50 886.2017
1245.60 886.9248
1245.70 887.6478
1245.80 888.3708
1245.90 889.0939
1246.00 889.8169
1246.10 890.5399
1246.20 891.4612
1246.30 892.3824
1246.40 893.3036
1246.50 894.2248
1246.60 895.1461
1246.70 896.0673
1246.80 896.9885
1246.90 897.9097
1247.00 898.831
1247.10 899.7522
1247.20 900.6734
1247.30 901.5946
1247.40 902.5159
1247.50 903.4371
1247.60 904.3583
1247.70 905.2795
1247.80 906.2008
1247.90 907.122
1248.00 908.0432
1248.10 908.9644
1248.20 909.8857
1248.30 910.8069
1248.40 911.7281
1248.50 912.6493
1248.60 913.5705
1248.70 914.4918
1248.80 915.413
1248.90 916.3342
1249.00 917.2554
1249.10 918.1767
1249.20 919.0979
1249.30 920.0191
1249.40 920.9403
1249.50 921.8616
1249.60 922.7414
1249.70 923.5798
1249.80 924.4181
1249.90 925.2565
1250.00 926.0949
1250.10 926.9333
1250.20 927.7717
1250.30 928.6101
1250.40 929.4485
1250.50 930.2257
1250.60 931.0029
1250.70 931.7801
1250.80 932.5573
1250.90 933.3345
1251.00 934.1117
1251.10 934.8889
1251.20 935.6661
1251.30 936.4433
1251.40 937.2205
1251.50 937.9977
1251.60 938.775
1251.70 939.5522
1251.80 940.3294
1251.90 941.1066
1252.00 941.8838
1252.10 942.661
1252.20 943.4382
1252.30 944.2154
1252.40 944.9926
1252.50 945.7698
1252.60 946.547
1252.70 947.3242
1252.80 948.1015
1252.90 948.8787
1253.00 949.6559
1253.10 950.4331
1253.20 951.2103
1253.30 951.9875
1253.40 952.7647
1253.50 953.5419
1253.60 954.3191
1253.70 955.0963
1253.80 955.8735
1253.90 956.8063
1254.00 957.9725
1254.10 959.1387
1254.20 960.3048
1254.30 961.471
1254.40 962.6372
1254.50 963.8033
1254.60 964.9695
1254.70 966.1357
1254.80 967.2072
1254.90 968.2682
1255.00 969.3292
1255.10 970.3901
1255.20 971.4511
1255.30 972.5121
1255.40 973.5731
1255.50 974.6341
1255.60 975.6951
1255.70 976.7561
1255.80 977.8171
1255.90 978.8781
1256.00 979.9391
1256.10 981.0001
1256.20 982.0611
1256.30 983.1221
1256.40 984.183
1256.50 985.244
1256.60 986.305
1256.70 987.366
1256.80 988.427
1256.90 989.488
1257.00 990.549
1257.10 991.61
1257.20 992.671
1257.30 993.732
1257.40 994.793
1257.50 995.854
1257.60 996.915
1257.70 997.9759
1257.80 999.0369
1257.90 1000.098
1258.00 1001.159
1258.10 1002.22
1258.20 1003.026
1258.30 1003.238
1258.40 1003.45
1258.50 1003.662
1258.60 1003.873
1258.70 1004.085
1258.80 1004.297
1258.90 1004.509
1259.00 1004.721
1259.10 1005.159
1259.20 1005.695
1259.30 1006.231
1259.40 1006.766
1259.50 1007.302
1259.60 1007.838
1259.70 1008.373
1259.80 1008.909
1259.90 1009.445
1260.00 1009.98
1260.10 1010.516
1260.20 1011.051
1260.30 1011.587
1260.40 1012.123
1260.50 1012.658
1260.60 1013.194
1260.70 1013.73
1260.80 1014.265
1260.90 1014.801
1261.00 1015.337
1261.10 1015.872
1261.20 1016.408
1261.30 1016.944
1261.40 1017.479
1261.50 1018.015
1261.60 1018.551
1261.70 1019.086
1261.80 1019.622
1261.90 1020.158
1262.00 1020.693
1262.10 1021.229
1262.20 1021.765
1262.30 1022.3
1262.40 1022.836
1262.50 1023.529
1262.60 1024.85
1262.70 1026.171
1262.80 1027.492
1262.90 1028.813
1263.00 1030.134
1263.10 1031.456
1263.20 1032.777
1263.30 1034.098
1263.40 1035.214
1263.50 1036.195
1263.60 1037.175
1263.70 1038.155
1263.80 1039.136
1263.90 1040.116
1264.00 1041.096
1264.10 1042.077
1264.20 1043.057
1264.30 1044.037
1264.40 1045.017
1264.50 1045.998
1264.60 1046.978
1264.70 1047.958
1264.80 1048.939
1264.90 1049.919
1265.00 1050.899
1265.10 1051.88
1265.20 1052.86
1265.30 1053.84
1265.40 1054.82
1265.50 1055.801
1265.60 1056.781
1265.70 1057.761
1265.80 1058.742
1265.90 1059.722
1266.00 1060.702
1266.10 1061.683
1266.20 1062.663
1266.30 1063.643
1266.40 1064.623
1266.50 1065.604
1266.60 1066.584
1266.70 1067.564
1266.80 1068.545
1266.90 1068.043
1267.00 1067.54
1267.10 1067.038
1267.20 1066.536
1267.30 1066.034
1267.40 1065.532
1267.50 1065.03
1267.60 1064.528
1267.70 1064.068
1267.80 1063.67
1267.90 1063.273
1268.00 1062.875
1268.10 1062.478
1268.20 1062.081
1268.30 1061.683
1268.40 1061.286
1268.50 1060.888
1268.60 1060.491
1268.70 1060.093
1268.80 1059.696
1268.90 1059.299
1269.00 1058.901
1269.10 1058.504
1269.20 1058.106
1269.30 1057.709
1269.40 1057.312
1269.50 1056.914
1269.60 1056.517
1269.70 1056.119
1269.80 1055.722
1269.90 1055.324
1270.00 1054.927
1270.10 1054.53
1270.20 1054.132
1270.30 1053.735
1270.40 1053.337
1270.50 1052.94
1270.60 1052.543
1270.70 1052.145
1270.80 1051.748
1270.90 1051.35
1271.00 1050.953
1271.10 1050.555
1271.20 1051.219
1271.30 1052.001
1271.40 1052.782
1271.50 1053.564
1271.60 1054.345
1271.70 1055.127
1271.80 1055.908
1271.90 1056.69
1272.00 1057.34
1272.10 1057.686
1272.20 1058.031
1272.30 1058.376
1272.40 1058.721
1272.50 1059.067
1272.60 1059.412
1272.70 1059.757
1272.80 1060.102
1272.90 1060.448
1273.00 1060.793
1273.10 1061.138
1273.20 1061.483
1273.30 1061.829
1273.40 1062.174
1273.50 1062.519
1273.60 1062.864
1273.70 1063.21
1273.80 1063.555
1273.90 1063.9
1274.00 1064.245
1274.10 1064.591
1274.20 1064.936
1274.30 1065.281
1274.40 1065.626
1274.50 1065.971
1274.60 1066.317
1274.70 1066.662
1274.80 1067.007
1274.90 1067.352
1275.00 1067.698
1275.10 1068.043
1275.20 1068.388
1275.30 1068.733
1275.40 1069.079
1275.50 1069.001
1275.60 1068.741
1275.70 1068.481
1275.80 1068.222
1275.90 1067.962
1276.00 1067.703
1276.10 1067.443
1276.20 1067.184
1276.30 1066.965
1276.40 1067.113
1276.50 1067.261
1276.60 1067.409
1276.70 1067.557
1276.80 1067.705
1276.90 1067.853
1277.00 1068.001
1277.10 1068.149
1277.20 1068.297
1277.30 1068.445
1277.40 1068.593
1277.50 1068.741
1277.60 1068.889
1277.70 1069.037
1277.80 1069.185
1277.90 1069.333
1278.00 1069.481
1278.10 1069.629
1278.20 1069.777
1278.30 1069.925
1278.40 1070.073
1278.50 1070.221
1278.60 1070.369
1278.70 1070.517
1278.80 1070.665
1278.90 1070.813
1279.00 1070.961
1279.10 1071.109
1279.20 1071.258
1279.30 1071.406
1279.40 1071.554
1279.50 1071.702
1279.60 1071.85
1279.70 1071.998
1279.80 1072.175
1279.90 1072.371
1280.00 1072.568
1280.10 1072.765
1280.20 1072.962
1280.30 1073.158
1280.40 1073.355
1280.50 1073.552
1280.60 1073.748
1280.70 1073.788
1280.80 1073.828
1280.90 1073.868
1281.00 1073.908
1281.10 1073.948
1281.20 1073.988
1281.30 1074.028
1281.40 1074.068
1281.50 1074.108
1281.60 1074.148
1281.70 1074.187
1281.80 1074.227
1281.90 1074.267
1282.00 1074.307
1282.10 1074.347
1282.20 1074.387
1282.30 1074.427
1282.40 1074.467
1282.50 1074.507
1282.60 1074.547
1282.70 1074.587
1282.80 1074.627
1282.90 1074.667
1283.00 1074.707
1283.10 1074.747
1283.20 1074.786
1283.30 1074.826
1283.40 1074.866
1283.50 1074.906
1283.60 1074.946
1283.70 1074.986
1283.80 1075.026
1283.90 1075.066
1284.00 1075.106
1284.10 1075.284
1284.20 1075.67
1284.30 1076.055
1284.40 1076.441
1284.50 1076.826
1284.60 1077.212
1284.70 1077.597
1284.80 1077.983
1284.90 1078.368
1285.00 1078.818
1285.10 1079.284
1285.20 1079.75
1285.30 1080.216
1285.40 1080.682
1285.50 1081.148
1285.60 1081.614
1285.70 1082.08
1285.80 1082.546
1285.90 1083.012
1286.00 1083.478
1286.10 1083.944
1286.20 1084.41
1286.30 1084.876
1286.40 1085.342
1286.50 1085.808
1286.60 1086.274
1286.70 1086.74
1286.80 1087.206
1286.90 1087.672
1287.00 1088.138
1287.10 1088.604
1287.20 1089.07
1287.30 1089.536
1287.40 1090.003
1287.50 1090.469
1287.60 1090.935
1287.70 1091.401
1287.80 1091.867
1287.90 1092.333
1288.00 1092.799
1288.10 1093.265
1288.20 1093.731
1288.30 1094.197
1288.40 1094.622
1288.50 1094.885
1288.60 1095.148
1288.70 1095.41
1288.80 1095.673
1288.90 1095.936
1289.00 1096.199
1289.10 1096.461
1289.20 1096.724
1289.30 1096.928
1289.40 1097.094
1289.50 1097.259
1289.60 1097.424
1289.70 1097.589
1289.80 1097.755
1289.90 1097.92
1290.00 1098.085
1290.10 1098.25
1290.20 1098.416
1290.30 1098.581
1290.40 1098.746
1290.50 1098.911
1290.60 1099.077
1290.70 1099.242
1290.80 1099.407
1290.90 1099.572
1291.00 1099.738
1291.10 1099.903
1291.20 1100.068
1291.30 1100.233
1291.40 1100.399
1291.50 1100.564
1291.60 1100.729
1291.70 1100.894
1291.80 1101.06
1291.90 1101.225
1292.00 1101.39
1292.10 1101.555
1292.20 1101.721
1292.30 1101.886
1292.40 1102.051
1292.50 1102.216
1292.60 1102.382
1292.70 1102.547
1292.80 1102.616
1292.90 1102.685
1293.00 1102.754
1293.10 1102.823
1293.20 1102.893
1293.30 1102.962
1293.40 1103.031
1293.50 1103.1
1293.60 1103.172
1293.70 1103.248
1293.80 1103.324
1293.90 1103.4
1294.00 1103.476
1294.10 1103.552
1294.20 1103.628
1294.30 1103.704
1294.40 1103.78
1294.50 1103.856
1294.60 1103.932
1294.70 1104.008
1294.80 1104.084
1294.90 1104.16
1295.00 1104.236
1295.10 1104.312
1295.20 1104.388
1295.30 1104.464
1295.40 1104.54
1295.50 1104.616
1295.60 1104.692
1295.70 1104.768
1295.80 1104.844
1295.90 1104.92
1296.00 1104.996
1296.10 1105.072
1296.20 1105.148
1296.30 1105.224
1296.40 1105.3
1296.50 1105.376
1296.60 1105.452
1296.70 1105.528
1296.80 1105.604
1296.90 1105.68
1297.00 1105.756
1297.10 1105.574
1297.20 1105.326
1297.30 1105.079
1297.40 1104.832
1297.50 1104.584
1297.60 1104.337
1297.70 1104.09
1297.80 1103.842
1297.90 1103.589
1298.00 1103.309
1298.10 1103.029
1298.20 1102.749
1298.30 1102.469
1298.40 1102.189
1298.50 1101.91
1298.60 1101.63
1298.70 1101.35
1298.80 1101.07
1298.90 1100.79
1299.00 1100.51
1299.10 1100.231
1299.20 1099.951
1299.30 1099.671
1299.40 1099.391
1299.50 1099.111
1299.60 1098.831
1299.70 1098.552
1299.80 1098.272
1299.90 1097.992
