# Version 2.1 - nm, norm@500 to 1, cut digits
# Wavelength(nm)  Flambda(ergs/cm^s/s/nm)
300.00 3.528663e-95
300.10 3.528663e-95
300.20 3.528663e-95
300.30 3.528663e-95
300.40 3.528663e-95
300.50 3.528663e-95
300.60 3.528663e-95
300.70 3.528663e-95
300.80 3.528663e-95
300.90 3.528663e-95
301.00 3.528663e-95
301.10 3.528663e-95
301.20 3.528663e-95
301.30 3.528663e-95
301.40 3.528663e-95
301.50 3.528663e-95
301.60 3.528663e-95
301.70 3.528663e-95
301.80 3.528663e-95
301.90 3.528663e-95
302.00 3.528663e-95
302.10 3.528663e-95
302.20 3.528663e-95
302.30 3.528663e-95
302.40 3.528663e-95
302.50 3.528663e-95
302.60 3.528663e-95
302.70 3.528663e-95
302.80 3.528663e-95
302.90 3.528663e-95
303.00 3.528663e-95
303.10 3.528663e-95
303.20 3.528663e-95
303.30 3.528663e-95
303.40 3.528663e-95
303.50 3.528663e-95
303.60 3.528663e-95
303.70 3.528663e-95
303.80 3.528663e-95
303.90 3.528663e-95
304.00 3.528663e-95
304.10 3.528663e-95
304.20 3.528663e-95
304.30 3.528663e-95
304.40 3.528663e-95
304.50 3.528663e-95
304.60 3.528663e-95
304.70 3.528663e-95
304.80 3.528663e-95
304.90 3.528663e-95
305.00 3.528663e-95
305.10 3.528663e-95
305.20 3.528663e-95
305.30 3.528663e-95
305.40 3.528663e-95
305.50 3.528663e-95
305.60 3.528663e-95
305.70 3.528663e-95
305.80 3.528663e-95
305.90 3.528663e-95
306.00 3.528663e-95
306.10 3.528663e-95
306.20 3.528663e-95
306.30 3.528663e-95
306.40 3.528663e-95
306.50 3.528663e-95
306.60 3.528663e-95
306.70 3.528663e-95
306.80 3.528663e-95
306.90 3.528663e-95
307.00 3.528663e-95
307.10 3.528663e-95
307.20 3.528663e-95
307.30 3.528663e-95
307.40 3.528663e-95
307.50 3.528663e-95
307.60 3.528663e-95
307.70 3.528663e-95
307.80 3.528663e-95
307.90 3.528663e-95
308.00 3.528663e-95
308.10 3.528663e-95
308.20 3.528663e-95
308.30 3.528663e-95
308.40 3.528663e-95
308.50 3.528663e-95
308.60 3.528663e-95
308.70 3.528663e-95
308.80 3.528663e-95
308.90 3.528663e-95
309.00 3.528663e-95
309.10 3.528663e-95
309.20 3.528663e-95
309.30 3.528663e-95
309.40 3.528663e-95
309.50 3.528663e-95
309.60 3.528663e-95
309.70 3.528663e-95
309.80 3.528663e-95
309.90 3.528663e-95
310.00 3.528663e-95
310.10 3.528663e-95
310.20 3.528663e-95
310.30 3.528663e-95
310.40 3.528663e-95
310.50 3.528663e-95
310.60 3.528663e-95
310.70 3.528663e-95
310.80 3.528663e-95
310.90 3.528663e-95
311.00 3.528663e-95
311.10 3.528663e-95
311.20 3.528663e-95
311.30 3.528663e-95
311.40 3.528663e-95
311.50 3.528663e-95
311.60 3.528663e-95
311.70 3.528663e-95
311.80 3.528663e-95
311.90 3.528663e-95
312.00 3.528663e-95
312.10 3.528663e-95
312.20 3.528663e-95
312.30 3.528663e-95
312.40 3.528663e-95
312.50 3.528663e-95
312.60 3.528663e-95
312.70 3.528663e-95
312.80 3.528663e-95
312.90 3.528663e-95
313.00 3.528663e-95
313.10 3.528663e-95
313.20 3.528663e-95
313.30 3.528663e-95
313.40 3.528663e-95
313.50 3.528663e-95
313.60 3.528663e-95
313.70 3.528663e-95
313.80 3.528663e-95
313.90 3.528663e-95
314.00 3.528663e-95
314.10 3.528663e-95
314.20 3.528663e-95
314.30 3.528663e-95
314.40 3.528663e-95
314.50 3.528663e-95
314.60 3.528663e-95
314.70 3.528663e-95
314.80 3.528663e-95
314.90 3.528663e-95
315.00 3.528663e-95
315.10 3.528663e-95
315.20 3.528663e-95
315.30 3.528663e-95
315.40 3.528663e-95
315.50 3.528663e-95
315.60 3.528663e-95
315.70 3.528663e-95
315.80 3.528663e-95
315.90 3.528663e-95
316.00 3.528663e-95
316.10 3.528663e-95
316.20 3.528663e-95
316.30 3.528663e-95
316.40 3.528663e-95
316.50 3.528663e-95
316.60 3.528663e-95
316.70 3.528663e-95
316.80 3.528663e-95
316.90 3.528663e-95
317.00 3.528663e-95
317.10 3.528663e-95
317.20 3.528663e-95
317.30 3.528663e-95
317.40 3.528663e-95
317.50 3.528663e-95
317.60 3.528663e-95
317.70 3.528663e-95
317.80 3.528663e-95
317.90 3.528663e-95
318.00 3.528663e-95
318.10 3.528663e-95
318.20 3.528663e-95
318.30 3.528663e-95
318.40 3.528663e-95
318.50 3.528663e-95
318.60 3.528663e-95
318.70 3.528663e-95
318.80 3.528663e-95
318.90 3.528663e-95
319.00 3.528663e-95
319.10 3.528663e-95
319.20 3.528663e-95
319.30 3.528663e-95
319.40 3.528663e-95
319.50 3.528663e-95
319.60 3.528663e-95
319.70 3.528663e-95
319.80 3.528663e-95
319.90 3.528663e-95
320.00 3.528663e-95
320.10 3.528663e-95
320.20 3.528663e-95
320.30 3.528663e-95
320.40 3.528663e-95
320.50 3.528663e-95
320.60 3.528663e-95
320.70 3.528663e-95
320.80 3.528663e-95
320.90 3.528663e-95
321.00 3.528663e-95
321.10 3.528663e-95
321.20 3.528663e-95
321.30 3.528663e-95
321.40 3.528663e-95
321.50 3.528663e-95
321.60 3.528663e-95
321.70 3.528663e-95
321.80 3.528663e-95
321.90 3.528663e-95
322.00 3.528663e-95
322.10 3.528663e-95
322.20 3.528663e-95
322.30 3.528663e-95
322.40 3.528663e-95
322.50 3.528663e-95
322.60 3.528663e-95
322.70 3.528663e-95
322.80 3.528663e-95
322.90 3.528663e-95
323.00 3.528663e-95
323.10 3.528663e-95
323.20 3.528663e-95
323.30 3.528663e-95
323.40 3.528663e-95
323.50 3.528663e-95
323.60 3.528663e-95
323.70 3.528663e-95
323.80 3.528663e-95
323.90 3.528663e-95
324.00 3.528663e-95
324.10 3.528663e-95
324.20 3.528663e-95
324.30 3.528663e-95
324.40 3.528663e-95
324.50 3.528663e-95
324.60 3.528663e-95
324.70 3.528663e-95
324.80 3.528663e-95
324.90 3.528663e-95
325.00 3.528663e-95
325.10 3.528663e-95
325.20 3.528663e-95
325.30 3.528663e-95
325.40 3.528663e-95
325.50 3.528663e-95
325.60 3.528663e-95
325.70 3.528663e-95
325.80 3.528663e-95
325.90 3.528663e-95
326.00 3.528663e-95
326.10 3.528663e-95
326.20 3.528663e-95
326.30 3.528663e-95
326.40 3.528663e-95
326.50 3.528663e-95
326.60 3.528663e-95
326.70 3.528663e-95
326.80 3.528663e-95
326.90 3.528663e-95
327.00 3.528663e-95
327.10 3.528663e-95
327.20 3.528663e-95
327.30 3.528663e-95
327.40 3.528663e-95
327.50 3.528663e-95
327.60 3.528663e-95
327.70 3.528663e-95
327.80 3.528663e-95
327.90 3.528663e-95
328.00 3.528663e-95
328.10 3.528663e-95
328.20 3.528663e-95
328.30 3.528663e-95
328.40 3.528663e-95
328.50 3.528663e-95
328.60 3.528663e-95
328.70 3.528663e-95
328.80 3.528663e-95
328.90 3.528663e-95
329.00 3.528663e-95
329.10 3.528663e-95
329.20 3.528663e-95
329.30 3.528663e-95
329.40 3.528663e-95
329.50 3.528663e-95
329.60 3.528663e-95
329.70 3.528663e-95
329.80 3.528663e-95
329.90 3.528663e-95
330.00 3.528663e-95
330.10 3.528663e-95
330.20 3.528663e-95
330.30 3.528663e-95
330.40 3.528663e-95
330.50 3.528663e-95
330.60 3.528663e-95
330.70 3.528663e-95
330.80 3.528663e-95
330.90 3.528663e-95
331.00 3.528663e-95
331.10 3.528663e-95
331.20 3.528663e-95
331.30 3.528663e-95
331.40 3.528663e-95
331.50 3.528663e-95
331.60 3.528663e-95
331.70 3.528663e-95
331.80 3.528663e-95
331.90 3.528663e-95
332.00 3.528663e-95
332.10 3.528663e-95
332.20 3.528663e-95
332.30 3.528663e-95
332.40 3.528663e-95
332.50 3.528663e-95
332.60 3.528663e-95
332.70 3.528663e-95
332.80 3.528663e-95
332.90 3.528663e-95
333.00 3.528663e-95
333.10 3.528663e-95
333.20 3.528663e-95
333.30 3.528663e-95
333.40 3.528663e-95
333.50 3.528663e-95
333.60 3.528663e-95
333.70 3.528663e-95
333.80 3.528663e-95
333.90 3.528663e-95
334.00 3.528663e-95
334.10 3.528663e-95
334.20 3.528663e-95
334.30 3.528663e-95
334.40 3.528663e-95
334.50 3.528663e-95
334.60 3.528663e-95
334.70 3.528663e-95
334.80 3.528663e-95
334.90 3.528663e-95
335.00 3.528663e-95
335.10 3.528663e-95
335.20 3.528663e-95
335.30 3.528663e-95
335.40 3.528663e-95
335.50 3.528663e-95
335.60 3.528663e-95
335.70 3.528663e-95
335.80 3.528663e-95
335.90 3.528663e-95
336.00 3.528663e-95
336.10 3.528663e-95
336.20 3.528663e-95
336.30 3.528663e-95
336.40 3.528663e-95
336.50 3.528663e-95
336.60 3.528663e-95
336.70 3.528663e-95
336.80 3.528663e-95
336.90 3.528663e-95
337.00 3.528663e-95
337.10 3.528663e-95
337.20 3.528663e-95
337.30 3.528663e-95
337.40 3.528663e-95
337.50 3.528663e-95
337.60 3.528663e-95
337.70 3.528663e-95
337.80 3.528663e-95
337.90 3.528663e-95
338.00 3.528663e-95
338.10 3.528663e-95
338.20 3.528663e-95
338.30 3.528663e-95
338.40 3.528663e-95
338.50 3.528663e-95
338.60 3.528663e-95
338.70 3.528663e-95
338.80 3.528663e-95
338.90 3.528663e-95
339.00 3.528663e-95
339.10 3.528663e-95
339.20 3.528663e-95
339.30 3.528663e-95
339.40 3.528663e-95
339.50 3.528663e-95
339.60 3.528663e-95
339.70 3.528663e-95
339.80 3.528663e-95
339.90 3.528663e-95
340.00 3.528663e-95
340.10 3.528663e-95
340.20 3.528663e-95
340.30 3.528663e-95
340.40 3.528663e-95
340.50 3.528663e-95
340.60 3.528663e-95
340.70 3.528663e-95
340.80 3.528663e-95
340.90 3.528663e-95
341.00 3.528663e-95
341.10 3.528663e-95
341.20 3.528663e-95
341.30 3.528663e-95
341.40 3.528663e-95
341.50 3.528663e-95
341.60 3.528663e-95
341.70 3.528663e-95
341.80 3.528663e-95
341.90 3.528663e-95
342.00 3.528663e-95
342.10 3.528663e-95
342.20 3.528663e-95
342.30 3.528663e-95
342.40 3.528663e-95
342.50 3.528663e-95
342.60 3.528663e-95
342.70 3.528663e-95
342.80 3.528663e-95
342.90 3.528663e-95
343.00 3.528663e-95
343.10 3.528663e-95
343.20 3.528663e-95
343.30 3.528663e-95
343.40 3.528663e-95
343.50 3.528663e-95
343.60 3.528663e-95
343.70 3.528663e-95
343.80 3.528663e-95
343.90 3.528663e-95
344.00 3.528663e-95
344.10 3.528663e-95
344.20 3.528663e-95
344.30 3.528663e-95
344.40 3.528663e-95
344.50 3.528663e-95
344.60 3.528663e-95
344.70 3.528663e-95
344.80 3.528663e-95
344.90 3.528663e-95
345.00 3.528663e-95
345.10 3.528663e-95
345.20 3.528663e-95
345.30 3.528663e-95
345.40 3.528663e-95
345.50 3.528663e-95
345.60 3.528663e-95
345.70 3.528663e-95
345.80 3.528663e-95
345.90 3.528663e-95
346.00 3.528663e-95
346.10 3.528663e-95
346.20 3.528663e-95
346.30 3.528663e-95
346.40 3.528663e-95
346.50 3.528663e-95
346.60 3.528663e-95
346.70 3.528663e-95
346.80 3.528663e-95
346.90 3.528663e-95
347.00 3.528663e-95
347.10 3.528663e-95
347.20 3.528663e-95
347.30 3.528663e-95
347.40 3.528663e-95
347.50 3.528663e-95
347.60 3.528663e-95
347.70 3.528663e-95
347.80 3.528663e-95
347.90 3.528663e-95
348.00 3.528663e-95
348.10 3.528663e-95
348.20 3.528663e-95
348.30 3.528663e-95
348.40 3.528663e-95
348.50 3.528663e-95
348.60 3.528663e-95
348.70 3.528663e-95
348.80 3.528663e-95
348.90 3.528663e-95
349.00 3.528663e-95
349.10 3.528663e-95
349.20 3.528663e-95
349.30 3.528663e-95
349.40 3.528663e-95
349.50 3.528663e-95
349.60 3.528663e-95
349.70 3.528663e-95
349.80 3.528663e-95
349.90 3.528663e-95
350.00 3.528663e-95
350.10 3.528663e-95
350.20 3.528663e-95
350.30 3.528663e-95
350.40 3.528663e-95
350.50 3.528663e-95
350.60 3.528663e-95
350.70 3.528663e-95
350.80 3.528663e-95
350.90 3.528663e-95
351.00 3.528663e-95
351.10 3.528663e-95
351.20 3.528663e-95
351.30 3.528663e-95
351.40 3.528663e-95
351.50 3.528663e-95
351.60 3.528663e-95
351.70 3.528663e-95
351.80 3.528663e-95
351.90 3.528663e-95
352.00 3.528663e-95
352.10 3.528663e-95
352.20 3.528663e-95
352.30 3.528663e-95
352.40 3.528663e-95
352.50 3.528663e-95
352.60 3.528663e-95
352.70 3.528663e-95
352.80 3.528663e-95
352.90 3.528663e-95
353.00 3.528663e-95
353.10 3.528663e-95
353.20 3.528663e-95
353.30 3.528663e-95
353.40 3.528663e-95
353.50 3.528663e-95
353.60 3.528663e-95
353.70 3.528663e-95
353.80 3.528663e-95
353.90 3.528663e-95
354.00 3.528663e-95
354.10 3.528663e-95
354.20 3.528663e-95
354.30 3.528663e-95
354.40 3.528663e-95
354.50 3.528663e-95
354.60 3.528663e-95
354.70 3.528663e-95
354.80 3.528663e-95
354.90 3.528663e-95
355.00 3.528663e-95
355.10 3.528663e-95
355.20 3.528663e-95
355.30 3.528663e-95
355.40 3.528663e-95
355.50 3.528663e-95
355.60 3.528663e-95
355.70 3.528663e-95
355.80 3.528663e-95
355.90 3.528663e-95
356.00 3.528663e-95
356.10 3.528663e-95
356.20 3.528663e-95
356.30 3.528663e-95
356.40 3.528663e-95
356.50 3.528663e-95
356.60 3.528663e-95
356.70 3.528663e-95
356.80 3.528663e-95
356.90 3.528663e-95
357.00 3.528663e-95
357.10 3.528663e-95
357.20 3.528663e-95
357.30 3.528663e-95
357.40 3.528663e-95
357.50 3.528663e-95
357.60 3.528663e-95
357.70 3.528663e-95
357.80 3.528663e-95
357.90 3.528663e-95
358.00 3.528663e-95
358.10 3.528663e-95
358.20 3.528663e-95
358.30 3.528663e-95
358.40 3.528663e-95
358.50 3.528663e-95
358.60 3.528663e-95
358.70 3.528663e-95
358.80 3.528663e-95
358.90 3.528663e-95
359.00 3.528663e-95
359.10 3.528663e-95
359.20 3.528663e-95
359.30 3.528663e-95
359.40 3.528663e-95
359.50 3.528663e-95
359.60 3.528663e-95
359.70 3.528663e-95
359.80 3.528663e-95
359.90 3.528663e-95
360.00 3.528663e-95
360.10 3.528663e-95
360.20 3.528663e-95
360.30 3.528663e-95
360.40 3.528663e-95
360.50 3.528663e-95
360.60 3.528663e-95
360.70 3.528663e-95
360.80 3.528663e-95
360.90 3.528663e-95
361.00 3.528663e-95
361.10 3.528663e-95
361.20 3.528663e-95
361.30 3.528663e-95
361.40 3.528663e-95
361.50 3.528663e-95
361.60 3.528663e-95
361.70 3.528663e-95
361.80 3.528663e-95
361.90 3.528663e-95
362.00 3.528663e-95
362.10 3.528663e-95
362.20 3.528663e-95
362.30 3.528663e-95
362.40 3.528663e-95
362.50 3.528663e-95
362.60 3.528663e-95
362.70 3.528663e-95
362.80 3.528663e-95
362.90 3.528663e-95
363.00 3.528663e-95
363.10 3.528663e-95
363.20 3.528663e-95
363.30 3.528663e-95
363.40 3.528663e-95
363.50 3.528663e-95
363.60 3.528663e-95
363.70 3.528663e-95
363.80 3.528663e-95
363.90 3.528663e-95
364.00 3.528663e-95
364.10 3.528663e-95
364.20 3.528663e-95
364.30 3.528663e-95
364.40 3.528663e-95
364.50 3.528663e-95
364.60 3.528663e-95
364.70 3.528663e-95
364.80 3.528663e-95
364.90 3.528663e-95
365.00 3.528663e-95
365.10 3.528663e-95
365.20 3.528663e-95
365.30 3.528663e-95
365.40 3.528663e-95
365.50 3.528663e-95
365.60 3.528663e-95
365.70 3.528663e-95
365.80 3.528663e-95
365.90 3.528663e-95
366.00 3.528663e-95
366.10 3.528663e-95
366.20 3.528663e-95
366.30 3.528663e-95
366.40 3.528663e-95
366.50 3.528663e-95
366.60 3.528663e-95
366.70 3.528663e-95
366.80 3.528663e-95
366.90 3.528663e-95
367.00 3.528663e-95
367.10 3.528663e-95
367.20 3.528663e-95
367.30 3.528663e-95
367.40 3.528663e-95
367.50 3.528663e-95
367.60 3.528663e-95
367.70 3.528663e-95
367.80 3.528663e-95
367.90 3.528663e-95
368.00 3.528663e-95
368.10 3.528663e-95
368.20 3.528663e-95
368.30 3.528663e-95
368.40 3.528663e-95
368.50 3.528663e-95
368.60 3.528663e-95
368.70 3.528663e-95
368.80 3.528663e-95
368.90 3.528663e-95
369.00 3.528663e-95
369.10 3.528663e-95
369.20 3.528663e-95
369.30 3.528663e-95
369.40 3.528663e-95
369.50 3.528663e-95
369.60 3.528663e-95
369.70 3.528663e-95
369.80 3.528663e-95
369.90 3.528663e-95
370.00 3.528663e-95
370.10 3.528663e-95
370.20 3.528663e-95
370.30 3.528663e-95
370.40 3.528663e-95
370.50 3.528663e-95
370.60 3.528663e-95
370.70 3.528663e-95
370.80 3.528663e-95
370.90 3.528663e-95
371.00 3.528663e-95
371.10 3.528663e-95
371.20 3.528663e-95
371.30 3.528663e-95
371.40 3.528663e-95
371.50 3.528663e-95
371.60 3.528663e-95
371.70 3.528663e-95
371.80 3.528663e-95
371.90 3.528663e-95
372.00 3.528663e-95
372.10 3.528663e-95
372.20 3.528663e-95
372.30 3.528663e-95
372.40 3.528663e-95
372.50 3.528663e-95
372.60 3.528663e-95
372.70 3.528663e-95
372.80 3.528663e-95
372.90 3.528663e-95
373.00 3.528663e-95
373.10 3.528663e-95
373.20 3.528663e-95
373.30 3.528663e-95
373.40 3.528663e-95
373.50 3.528663e-95
373.60 3.528663e-95
373.70 3.528663e-95
373.80 3.528663e-95
373.90 3.528663e-95
374.00 3.528663e-95
374.10 3.528663e-95
374.20 3.528663e-95
374.30 3.528663e-95
374.40 3.528663e-95
374.50 3.528663e-95
374.60 3.528663e-95
374.70 3.528663e-95
374.80 3.528663e-95
374.90 3.528663e-95
375.00 3.528663e-95
375.10 3.528663e-95
375.20 3.528663e-95
375.30 3.528663e-95
375.40 3.528663e-95
375.50 3.528663e-95
375.60 3.528663e-95
375.70 3.528663e-95
375.80 3.528663e-95
375.90 3.528663e-95
376.00 3.528663e-95
376.10 3.528663e-95
376.20 3.528663e-95
376.30 3.528663e-95
376.40 3.528663e-95
376.50 3.528663e-95
376.60 3.528663e-95
376.70 3.528663e-95
376.80 3.528663e-95
376.90 3.528663e-95
377.00 3.528663e-95
377.10 3.528663e-95
377.20 3.528663e-95
377.30 3.528663e-95
377.40 3.528663e-95
377.50 3.528663e-95
377.60 3.528663e-95
377.70 3.528663e-95
377.80 3.528663e-95
377.90 3.528663e-95
378.00 3.528663e-95
378.10 3.528663e-95
378.20 3.528663e-95
378.30 3.528663e-95
378.40 3.528663e-95
378.50 3.528663e-95
378.60 3.528663e-95
378.70 3.528663e-95
378.80 3.528663e-95
378.90 3.528663e-95
379.00 3.528663e-95
379.10 3.528663e-95
379.20 3.528663e-95
379.30 3.528663e-95
379.40 3.528663e-95
379.50 3.528663e-95
379.60 3.528663e-95
379.70 3.528663e-95
379.80 3.528663e-95
379.90 3.528663e-95
380.00 3.528663e-95
380.10 3.528663e-95
380.20 3.528663e-95
380.30 3.528663e-95
380.40 3.528663e-95
380.50 3.528663e-95
380.60 3.528663e-95
380.70 3.528663e-95
380.80 3.528663e-95
380.90 3.528663e-95
381.00 3.528663e-95
381.10 3.528663e-95
381.20 3.528663e-95
381.30 3.528663e-95
381.40 3.528663e-95
381.50 3.528663e-95
381.60 3.528663e-95
381.70 3.528663e-95
381.80 3.528663e-95
381.90 3.528663e-95
382.00 3.528663e-95
382.10 3.528663e-95
382.20 3.528663e-95
382.30 3.528663e-95
382.40 3.528663e-95
382.50 3.528663e-95
382.60 3.528663e-95
382.70 3.528663e-95
382.80 3.528663e-95
382.90 3.528663e-95
383.00 3.528663e-95
383.10 3.528663e-95
383.20 3.528663e-95
383.30 3.528663e-95
383.40 3.528663e-95
383.50 3.528663e-95
383.60 3.528663e-95
383.70 3.528663e-95
383.80 3.528663e-95
383.90 3.528663e-95
384.00 3.528663e-95
384.10 3.528663e-95
384.20 3.528663e-95
384.30 3.528663e-95
384.40 3.528663e-95
384.50 3.528663e-95
384.60 3.528663e-95
384.70 3.528663e-95
384.80 3.528663e-95
384.90 3.528663e-95
385.00 3.528663e-95
385.10 3.528663e-95
385.20 3.528663e-95
385.30 3.528663e-95
385.40 3.528663e-95
385.50 3.528663e-95
385.60 3.528663e-95
385.70 3.528663e-95
385.80 3.528663e-95
385.90 3.528663e-95
386.00 3.528663e-95
386.10 3.528663e-95
386.20 3.528663e-95
386.30 3.528663e-95
386.40 3.528663e-95
386.50 3.528663e-95
386.60 3.528663e-95
386.70 3.528663e-95
386.80 3.528663e-95
386.90 3.528663e-95
387.00 3.528663e-95
387.10 3.528663e-95
387.20 3.528663e-95
387.30 3.528663e-95
387.40 3.528663e-95
387.50 3.528663e-95
387.60 3.528663e-95
387.70 3.528663e-95
387.80 3.528663e-95
387.90 3.528663e-95
388.00 3.528663e-95
388.10 3.528663e-95
388.20 3.528663e-95
388.30 3.528663e-95
388.40 3.528663e-95
388.50 3.528663e-95
388.60 3.528663e-95
388.70 3.528663e-95
388.80 3.528663e-95
388.90 3.528663e-95
389.00 3.528663e-95
389.10 3.528663e-95
389.20 3.528663e-95
389.30 3.528663e-95
389.40 3.528663e-95
389.50 3.528663e-95
389.60 3.528663e-95
389.70 3.528663e-95
389.80 3.528663e-95
389.90 3.528663e-95
390.00 3.528663e-95
390.10 3.528663e-95
390.20 3.528663e-95
390.30 3.528663e-95
390.40 3.528663e-95
390.50 3.528663e-95
390.60 3.528663e-95
390.70 3.528663e-95
390.80 3.528663e-95
390.90 3.528663e-95
391.00 3.528663e-95
391.10 3.528663e-95
391.20 3.528663e-95
391.30 3.528663e-95
391.40 3.528663e-95
391.50 3.528663e-95
391.60 3.528663e-95
391.70 3.528663e-95
391.80 3.528663e-95
391.90 3.528663e-95
392.00 3.528663e-95
392.10 3.528663e-95
392.20 3.528663e-95
392.30 3.528663e-95
392.40 3.528663e-95
392.50 3.528663e-95
392.60 3.528663e-95
392.70 3.528663e-95
392.80 3.528663e-95
392.90 3.528663e-95
393.00 3.528663e-95
393.10 3.528663e-95
393.20 3.528663e-95
393.30 3.528663e-95
393.40 3.528663e-95
393.50 3.528663e-95
393.60 3.528663e-95
393.70 3.528663e-95
393.80 3.528663e-95
393.90 3.528663e-95
394.00 3.528663e-95
394.10 3.528663e-95
394.20 3.528663e-95
394.30 3.528663e-95
394.40 3.528663e-95
394.50 3.528663e-95
394.60 3.528663e-95
394.70 3.528663e-95
394.80 3.528663e-95
394.90 3.528663e-95
395.00 0.1167459
395.10 0.2065088
395.20 0.2650065
395.30 0.2905568
395.40 0.2905568
395.50 0.2905568
395.60 0.2905568
395.70 0.2905568
395.80 0.2905568
395.90 0.3126275
396.00 0.361077
396.10 0.4314195
396.20 0.5164956
396.30 0.6061804
396.40 0.6890854
396.50 0.7548372
396.60 0.7952881
396.70 0.8096379
396.80 0.8096379
396.90 0.8096379
397.00 0.8096379
397.10 0.8096379
397.20 0.8096379
397.30 0.8096379
397.40 0.8256154
397.50 0.8606117
397.60 0.9164569
397.70 0.9965892
397.80 1.106312
397.90 1.248167
398.00 1.419207
398.10 1.609884
398.20 1.807228
398.30 1.997834
398.40 2.169157
398.50 2.312922
398.60 2.427543
398.70 2.519945
398.80 2.6018
398.90 2.68404
399.00 2.77466
399.10 2.874696
399.20 2.977625
399.30 3.072893
399.40 3.149823
399.50 3.203879
399.60 3.236285
399.70 3.249698
399.80 3.249698
399.90 3.249698
400.00 3.249698
400.10 3.249698
400.20 3.255443
400.30 3.2731
400.40 3.299111
400.50 3.330928
400.60 3.369455
400.70 3.419234
400.80 3.483175
400.90 3.555062
401.00 3.623356
401.10 3.679949
401.20 3.722309
401.30 3.751178
401.40 3.76705
401.50 3.771583
401.60 3.771583
401.70 3.773359
401.80 3.782709
401.90 3.8002
402.00 3.82187
402.10 3.839353
402.20 3.845555
402.30 3.845555
402.40 3.845555
402.50 3.845555
402.60 3.855145
402.70 3.890373
402.80 3.951928
402.90 4.034854
403.00 4.127696
403.10 4.214884
403.20 4.283732
403.30 4.325628
403.40 4.335886
403.50 4.335886
403.60 4.335886
403.70 4.335886
403.80 4.335886
403.90 4.335886
404.00 4.335886
404.10 4.335886
404.20 4.335886
404.30 4.335886
404.40 4.335886
404.50 4.335886
404.60 4.335886
404.70 4.335886
404.80 4.335886
404.90 4.335886
405.00 4.21914
405.10 4.129377
405.20 4.07088
405.30 4.045329
405.40 4.045329
405.50 4.045329
405.60 4.045329
405.70 4.045329
405.80 4.045329
405.90 4.023259
406.00 3.974809
406.10 3.910761
406.20 3.852076
406.30 3.809179
406.40 3.792221
406.50 3.806976
406.60 3.853495
406.70 3.922907
406.80 3.99557
406.90 4.052747
407.00 4.093081
407.10 4.118349
407.20 4.133416
407.30 4.142581
407.40 4.132261
407.50 4.102243
407.60 4.053216
407.70 3.982327
407.80 3.884243
407.90 3.757713
408.00 3.606934
408.10 3.441412
408.20 3.271897
408.30 3.106714
408.40 2.954606
408.50 2.823657
408.60 2.716144
408.70 2.627023
408.80 2.548352
408.90 2.47204
409.00 2.391606
409.10 2.307601
409.20 2.227724
409.30 2.159485
409.40 2.107179
409.50 2.071519
409.60 2.050179
409.70 2.041203
409.80 2.041203
409.90 2.041203
410.00 2.042312
410.10 2.053295
410.20 2.073408
410.30 2.100354
410.40 2.138888
410.50 2.18847
410.60 2.241659
410.70 2.286183
410.80 2.312265
410.90 2.319408
411.00 2.31361
411.10 2.301261
411.20 2.286732
411.30 2.272124
411.40 2.261195
411.50 2.259147
411.60 2.266476
411.70 2.280378
411.80 2.294787
411.90 2.306049
412.00 2.312017
412.10 2.315281
412.20 2.318821
412.30 2.318821
412.40 2.318821
412.50 2.318821
412.60 2.30923
412.70 2.274002
412.80 2.212448
412.90 2.129521
413.00 2.042643
413.10 1.970356
413.20 1.924087
413.30 1.909497
413.40 1.927647
413.50 1.95434
413.60 1.977683
413.70 1.997274
413.80 2.013091
413.90 2.025528
414.00 2.035962
414.10 2.045271
414.20 2.053997
414.30 2.063575
414.40 2.075415
414.50 2.088792
414.60 2.101038
414.70 2.109951
414.80 2.115481
414.90 2.120176
415.00 2.127219
415.10 2.138325
415.20 2.15396
415.30 2.173301
415.40 2.194886
415.50 2.217455
415.60 2.239095
415.70 2.257382
415.80 2.270499
415.90 2.27761
416.00 2.278753
416.10 2.272458
416.20 2.246068
416.30 2.19928
416.40 2.133333
416.50 2.052826
416.60 1.965857
416.70 1.885159
416.80 1.823445
416.90 1.783072
417.00 1.763601
417.10 1.761031
417.20 1.768493
417.30 1.781048
417.40 1.796444
417.50 1.811974
417.60 1.824838
417.70 1.83429
417.80 1.839188
417.90 1.835967
418.00 1.821529
418.10 1.796374
418.20 1.768545
418.30 1.74646
418.40 1.745048
418.50 1.769624
418.60 1.820075
418.70 1.890923
418.80 1.972589
418.90 2.054939
419.00 2.129721
419.10 2.190611
419.20 2.234064
419.30 2.263572
419.40 2.290265
419.50 2.325335
419.60 2.372935
419.70 2.42901
419.80 2.486565
419.90 2.537447
420.00 2.576544
420.10 2.591224
420.20 2.574868
420.30 2.530265
420.40 2.46572
420.50 2.38432
420.60 2.292605
420.70 2.198301
420.80 2.108279
420.90 2.029249
421.00 1.966752
421.10 1.922508
421.20 1.894678
421.30 1.880417
421.40 1.875473
421.50 1.872988
421.60 1.86566
421.70 1.849982
421.80 1.826222
421.90 1.797469
422.00 1.785779
422.10 1.796081
422.20 1.8267
422.30 1.869385
422.40 1.906709
422.50 1.93182
422.60 1.942581
422.70 1.943076
422.80 1.943076
422.90 1.943646
423.00 1.944975
423.10 1.944921
423.20 1.943839
423.30 1.942761
423.40 1.942765
423.50 1.944547
423.60 1.94867
423.70 1.955971
423.80 1.969437
423.90 1.993173
424.00 2.027066
424.10 2.067427
424.20 2.110068
424.30 2.151008
424.40 2.18701
424.50 2.216449
424.60 2.239124
424.70 2.254755
424.80 2.262588
424.90 2.261241
425.00 2.254198
425.10 2.243091
425.20 2.227456
425.30 2.210269
425.40 2.194058
425.50 2.179735
425.60 2.16661
425.70 2.152683
425.80 2.139566
425.90 2.132455
426.00 2.131312
426.10 2.134767
426.20 2.151375
426.30 2.185105
426.40 2.23547
426.50 2.296983
426.60 2.363253
426.70 2.425322
426.80 2.472854
426.90 2.504386
427.00 2.520682
427.10 2.525539
427.20 2.522643
427.30 2.513941
427.40 2.501992
427.50 2.489835
427.60 2.480022
427.70 2.473087
427.80 2.469551
427.90 2.472447
428.00 2.485161
428.10 2.508675
428.20 2.538463
428.30 2.571648
428.40 2.597779
428.50 2.612568
428.60 2.614664
428.70 2.60514
428.80 2.585917
428.90 2.558816
429.00 2.525892
429.10 2.490145
429.20 2.454924
429.30 2.421221
429.40 2.385647
429.50 2.342277
429.60 2.289113
429.70 2.230977
429.80 2.173506
429.90 2.122625
430.00 2.082419
430.10 2.056756
430.20 2.047255
430.30 2.047255
430.40 2.047255
430.50 2.047255
430.60 2.047255
430.70 2.047255
430.80 2.047255
430.90 2.047255
431.00 2.047255
431.10 2.047255
431.20 2.047255
431.30 2.047255
431.40 2.047255
431.50 2.047255
431.60 2.047255
431.70 2.047255
431.80 2.047255
431.90 2.055444
432.00 2.062006
432.10 2.064361
432.20 2.062432
432.30 2.055552
432.40 2.043149
432.50 2.026711
432.60 2.01595
432.70 2.015455
432.80 2.015455
432.90 2.014884
433.00 2.007593
433.10 1.992745
433.20 1.971248
433.30 1.955945
433.40 1.955967
433.50 1.972564
433.60 2.003547
433.70 2.042486
433.80 2.078323
433.90 2.098622
434.00 2.097535
434.10 2.077192
434.20 2.042513
434.30 1.999624
434.40 1.956892
434.50 1.92438
434.60 1.910601
434.70 1.920013
434.80 1.952213
434.90 2.003012
435.00 2.062627
435.10 2.12556
435.20 2.189971
435.30 2.250678
435.40 2.301891
435.50 2.338173
435.60 2.357613
435.70 2.362574
435.80 2.362574
435.90 2.362574
436.00 2.362574
436.10 2.359118
436.20 2.342511
436.30 2.308781
436.40 2.258416
436.50 2.196903
436.60 2.130632
436.70 2.0655
436.80 2.007018
436.90 1.958681
437.00 1.921522
437.10 1.893967
437.20 1.874334
437.30 1.861317
437.40 1.852213
437.50 1.851455
437.60 1.863373
437.70 1.886751
437.80 1.920284
437.90 1.960166
438.00 2.001031
438.10 2.037013
438.20 2.060808
438.30 2.064792
438.40 2.041189
438.50 1.989009
438.60 1.929353
438.70 1.864748
438.80 1.799123
438.90 1.737944
439.00 1.6859
439.10 1.644727
439.20 1.613442
439.30 1.590608
439.40 1.574865
439.50 1.56477
439.60 1.559267
439.70 1.556891
439.80 1.556807
439.90 1.556807
440.00 1.556807
440.10 1.556807
440.20 1.556807
440.30 1.556807
440.40 1.556807
440.50 1.556807
440.60 1.556807
440.70 1.556807
440.80 1.556807
440.90 1.556807
441.00 1.556807
441.10 1.556807
441.20 1.556807
441.30 1.561885
441.40 1.569541
441.50 1.575243
441.60 1.576397
441.70 1.576397
441.80 1.576397
441.90 1.568208
442.00 1.545698
442.10 1.512294
442.20 1.473863
442.30 1.438058
442.40 1.413137
442.50 1.404464
442.60 1.404464
442.70 1.408399
442.80 1.42554
442.90 1.456363
443.00 1.498295
443.10 1.545046
443.20 1.587374
443.30 1.604766
443.40 1.583326
443.50 1.538254
443.60 1.479807
443.70 1.413976
443.80 1.348856
443.90 1.292383
444.00 1.249143
444.10 1.219816
444.20 1.203128
444.30 1.195499
444.40 1.190389
444.50 1.180085
444.60 1.158943
444.70 1.124988
444.80 1.079424
444.90 1.025278
445.00 0.9656628
445.10 0.9027305
445.20 0.838319
445.30 0.7754573
445.40 0.7188724
445.50 0.6743437
445.60 0.6463883
445.70 0.6370677
445.80 0.6370677
445.90 0.6370677
446.00 0.6370677
446.10 0.6370677
446.20 0.6370677
446.30 0.6370677
446.40 0.6370677
446.50 0.6370677
446.60 0.6370677
446.70 0.6370733
446.80 0.6416168
446.90 0.6504792
447.00 0.6640354
447.10 0.6837181
447.20 0.7096823
447.30 0.7404326
447.40 0.7734977
447.50 0.7990382
447.60 0.8090248
447.70 0.8044399
447.80 0.7889125
447.90 0.7669566
448.00 0.7424722
448.10 0.7188323
448.20 0.7006057
448.30 0.6936156
448.40 0.7024526
448.50 0.7250066
448.60 0.7411537
448.70 0.7536396
448.80 0.7667947
448.90 0.7826435
449.00 0.7992562
449.10 0.8133297
449.20 0.8209789
449.30 0.8209789
449.40 0.8209789
449.50 0.8209789
449.60 0.8209789
449.70 0.8209789
449.80 0.8209789
449.90 0.8209789
450.00 0.8209789
450.10 0.8209789
450.20 0.8328456
450.30 0.8584301
450.40 0.9012996
450.50 0.9621563
450.60 1.037434
450.70 1.120984
450.80 1.204793
450.90 1.281382
451.00 1.343836
451.10 1.387097
451.20 1.410779
451.30 1.413781
451.40 1.406125
451.50 1.400423
451.60 1.399269
451.70 1.399706
451.80 1.399706
451.90 1.399706
452.00 1.399706
452.10 1.399706
452.20 1.399706
452.30 1.399706
452.40 1.399706
452.50 1.405354
452.60 1.427023
452.70 1.456824
452.80 1.479939
452.90 1.490744
453.00 1.48763
453.10 1.474804
453.20 1.461416
453.30 1.457216
453.40 1.469613
453.50 1.483817
453.60 1.490516
453.70 1.490516
453.80 1.490516
453.90 1.490516
454.00 1.490516
454.10 1.490516
454.20 1.490516
454.30 1.504172
454.40 1.531559
454.50 1.56846
454.60 1.607976
454.70 1.64211
454.80 1.664123
454.90 1.670909
455.00 1.670909
455.10 1.670909
455.20 1.670909
455.30 1.670909
455.40 1.670909
455.50 1.675853
455.60 1.695532
455.70 1.726814
455.80 1.76208
455.90 1.791932
456.00 1.807986
456.10 1.807986
456.20 1.807986
456.30 1.807986
456.40 1.807986
456.50 1.807986
456.60 1.807986
456.70 1.80798
456.80 1.803437
456.90 1.794574
457.00 1.781018
457.10 1.761336
457.20 1.735371
457.30 1.704621
457.40 1.671556
457.50 1.638422
457.60 1.606648
457.70 1.576095
457.80 1.545087
457.90 1.512163
458.00 1.477245
458.10 1.441388
458.20 1.406033
458.30 1.372515
458.40 1.343346
458.50 1.320792
458.60 1.304645
458.70 1.292159
458.80 1.279004
458.90 1.263155
459.00 1.246542
459.10 1.232469
459.20 1.22482
459.30 1.22482
459.40 1.22482
459.50 1.22482
459.60 1.22482
459.70 1.22482
459.80 1.22482
459.90 1.22482
460.00 1.22482
460.10 1.22482
460.20 1.212953
460.30 1.187369
460.40 1.144499
460.50 1.084027
460.60 1.021864
460.70 0.9588705
460.80 0.8972397
460.90 0.8391376
461.00 0.7864958
461.10 0.7432349
461.20 0.7195529
461.30 0.7114724
461.40 0.7114724
461.50 0.7114724
461.60 0.7114724
461.70 0.7110353
461.80 0.7110353
461.90 0.7110353
462.00 0.7110353
462.10 0.7110353
462.20 0.7110353
462.30 0.7110353
462.40 0.7110353
462.50 0.7053869
462.60 0.6837184
462.70 0.6548756
462.80 0.6284343
462.90 0.608706
463.00 0.6021171
463.10 0.6118373
463.20 0.6366528
463.30 0.6738212
463.40 0.7189735
463.50 0.7662351
463.60 0.8122114
463.70 0.8529454
463.80 0.880523
463.90 0.8964208
464.00 0.9052752
464.10 0.9133088
464.20 0.9243912
464.30 0.9259883
464.40 0.9187039
464.50 0.9065798
464.60 0.8952365
464.70 0.8900834
464.80 0.8948552
464.90 0.9111932
465.00 0.9310091
465.10 0.9486476
465.20 0.9658961
465.30 0.9841823
465.40 1.003455
465.50 1.017351
465.60 1.01276
465.70 0.9869747
465.80 0.9517086
465.90 0.9218565
466.00 0.9058026
466.10 0.9058026
466.20 0.9058026
466.30 0.9058026
466.40 0.9058026
466.50 0.9058026
466.60 0.9111173
466.70 0.9287134
466.80 0.9511423
466.90 0.9695513
467.00 0.9771885
467.10 0.9771885
467.20 0.9771885
467.30 0.9771885
467.40 0.9771885
467.50 0.9771885
467.60 0.9771885
467.70 0.9771885
467.80 0.9771885
467.90 0.9771885
468.00 0.9774545
468.10 0.9774545
468.20 0.9774545
468.30 0.9774545
468.40 0.9774545
468.50 0.9774545
468.60 0.9774545
468.70 0.9774545
468.80 0.9774545
468.90 0.9774545
469.00 0.9774545
469.10 0.9774545
469.20 0.9774545
469.30 0.9774545
469.40 0.9774545
469.50 0.9774545
469.60 0.9774545
469.70 0.9774545
469.80 0.9774545
469.90 0.9774545
470.00 0.9774545
470.10 0.9774545
470.20 0.9785268
470.30 0.9835814
470.40 0.9932954
470.50 1.005309
470.60 1.004801
470.70 0.9968125
470.80 0.9879071
470.90 0.9836266
471.00 0.9883482
471.10 1.002235
471.20 1.01353
471.30 1.019467
471.40 1.019467
471.50 1.019467
471.60 1.019467
471.70 1.019467
471.80 1.019467
471.90 1.019467
472.00 1.019467
472.10 1.019467
472.20 1.019467
472.30 1.019467
472.40 1.019467
472.50 1.019467
472.60 1.021382
472.70 1.031633
472.80 1.046736
472.90 1.064555
473.00 1.077618
473.10 1.080529
473.20 1.071257
473.30 1.050326
473.40 1.023048
473.50 0.9989767
473.60 0.9855545
473.70 0.9848214
473.80 0.9945492
473.90 1.008607
474.00 1.018467
474.10 1.013561
474.20 1.002478
474.30 0.9872256
474.40 0.967123
474.50 0.9423466
474.60 0.9141734
474.70 0.8851922
474.80 0.8584077
474.90 0.8352842
475.00 0.8154683
475.10 0.7978298
475.20 0.7812961
475.30 0.7783444
475.40 0.7832333
475.50 0.7917845
475.60 0.8031384
475.70 0.8196233
475.80 0.8343325
475.90 0.839751
476.00 0.839751
476.10 0.839751
476.20 0.839751
476.30 0.839751
476.40 0.839751
476.50 0.839751
476.60 0.8344363
476.70 0.8168402
476.80 0.7944113
476.90 0.7760024
477.00 0.7683651
477.10 0.7683651
477.20 0.7683651
477.30 0.7683651
477.40 0.7683651
477.50 0.7683651
477.60 0.7701958
477.70 0.7802022
477.80 0.7953312
477.90 0.8137515
478.00 0.8340518
478.10 0.8548835
478.20 0.8741716
478.30 0.8918442
478.40 0.9091274
478.50 0.9270609
478.60 0.946349
478.70 0.9670812
478.80 0.9889341
478.90 1.011128
479.00 1.031749
479.10 1.048575
479.20 1.060165
479.30 1.065872
479.40 1.066456
479.50 1.066456
479.60 1.066456
479.70 1.067259
479.80 1.072023
479.90 1.081807
480.00 1.097494
480.10 1.118413
480.20 1.140525
480.30 1.15611
480.40 1.160699
480.50 1.155872
480.60 1.146338
480.70 1.135826
480.80 1.128837
480.90 1.132494
481.00 1.15389
481.10 1.197611
481.20 1.265469
481.30 1.355345
481.40 1.459166
481.50 1.561329
481.60 1.652899
481.70 1.72708
481.80 1.778467
481.90 1.80292
482.00 1.80292
482.10 1.80292
482.20 1.80292
482.30 1.80292
482.40 1.80292
482.50 1.80292
482.60 1.801006
482.70 1.785862
482.80 1.756943
482.90 1.721338
483.00 1.685311
483.10 1.648908
483.20 1.613522
483.30 1.581915
483.40 1.554364
483.50 1.529654
483.60 1.508448
483.70 1.493497
483.80 1.488682
483.90 1.496892
484.00 1.518717
484.10 1.554152
484.20 1.585741
484.30 1.606335
484.40 1.61394
484.50 1.61394
484.60 1.61394
484.70 1.61394
484.80 1.61394
484.90 1.61394
485.00 1.61394
485.10 1.61394
485.20 1.613225
485.30 1.597891
485.40 1.573729
485.50 1.548005
485.60 1.527415
485.70 1.514427
485.80 1.510093
485.90 1.514679
486.00 1.523482
486.10 1.53167
486.20 1.541148
486.30 1.554023
486.40 1.571109
486.50 1.591264
486.60 1.612361
486.70 1.632322
486.80 1.649316
486.90 1.662543
487.00 1.671877
487.10 1.676766
487.20 1.677119
487.30 1.677119
487.40 1.677119
487.50 1.677119
487.60 1.675288
487.70 1.665282
487.80 1.650153
487.90 1.631733
488.00 1.611167
488.10 1.591892
488.20 1.57926
488.30 1.571161
488.40 1.56329
488.50 1.552781
488.60 1.538583
488.70 1.521084
488.80 1.500411
488.90 1.478217
489.00 1.457596
489.10 1.44077
489.20 1.42918
489.30 1.423473
489.40 1.422889
489.50 1.422889
489.60 1.430005
489.70 1.446999
489.80 1.470919
489.90 1.497965
490.00 1.522511
490.10 1.540584
490.20 1.552042
490.30 1.559308
490.40 1.564382
490.50 1.567555
490.60 1.56772
490.70 1.565664
490.80 1.559379
490.90 1.541516
491.00 1.505587
491.10 1.447979
491.20 1.369111
491.30 1.28541
491.40 1.207113
491.50 1.141261
491.60 1.092119
491.70 1.062916
491.80 1.055544
491.90 1.070388
492.00 1.102733
492.10 1.127826
492.20 1.147196
492.30 1.163776
492.40 1.180512
492.50 1.198364
492.60 1.217149
492.70 1.236888
492.80 1.25756
492.90 1.275678
493.00 1.290217
493.10 1.30325
493.20 1.314625
493.30 1.322692
493.40 1.325409
493.50 1.321416
493.60 1.311055
493.70 1.29548
493.80 1.275276
493.90 1.252286
494.00 1.229037
494.10 1.207767
494.20 1.191147
494.30 1.181397
494.40 1.178935
494.50 1.178935
494.60 1.178935
494.70 1.178935
494.80 1.178935
494.90 1.178935
495.00 1.178935
495.10 1.178935
495.20 1.178935
495.30 1.178935
495.40 1.178935
495.50 1.177269
495.60 1.171415
495.70 1.162422
495.80 1.152047
495.90 1.142043
496.00 1.13324
496.10 1.125051
496.20 1.11569
496.30 1.108368
496.40 1.09894
496.50 1.08537
496.60 1.066869
496.70 1.046909
496.80 1.029914
496.90 1.016687
497.00 1.007353
497.10 1.002464
497.20 1.002111
497.30 1.002111
497.40 1.002111
497.50 1.002111
497.60 1.002111
497.70 1.002111
497.80 1.002111
497.90 1.002111
498.00 1.002111
498.10 1.000554
498.20 0.9938979
498.30 0.9875664
498.40 0.9869044
498.50 0.9931386
498.60 1.005931
498.70 1.022618
498.80 1.039682
498.90 1.052289
499.00 1.056579
499.10 1.056579
499.20 1.056579
499.30 1.056579
499.40 1.056579
499.50 1.056579
499.60 1.050609
499.70 1.042993
499.80 1.032215
499.90 1.017821
500.00 1
500.10 0.9793164
500.20 0.9565179
500.30 0.9336538
500.40 0.9142766
500.50 0.9035318
500.60 0.9002945
500.70 0.9002945
500.80 0.9002945
500.90 0.9002945
501.00 0.9017484
501.10 0.9073
501.20 0.915139
501.30 0.9119493
501.40 0.8942178
501.50 0.8620934
501.60 0.8196652
501.70 0.7746877
501.80 0.7306728
501.90 0.6913751
502.00 0.6590302
502.10 0.6339377
502.20 0.6145668
502.30 0.5979877
502.40 0.5812515
502.50 0.5633993
502.60 0.5459743
502.70 0.5362802
502.80 0.5319299
502.90 0.5293424
503.00 0.5264684
503.10 0.5234902
503.20 0.5201356
503.30 0.5157266
503.40 0.5119018
503.50 0.5106692
503.60 0.5111363
503.70 0.5101167
503.80 0.5043922
503.90 0.4917509
504.00 0.4744612
504.10 0.4571686
504.20 0.4421998
504.30 0.4313557
504.40 0.4262119
504.50 0.4262119
504.60 0.4262119
504.70 0.4262119
504.80 0.4262119
504.90 0.4262119
505.00 0.4262119
505.10 0.4262119
505.20 0.4292996
505.30 0.4408093
505.40 0.4570435
505.50 0.4735745
505.60 0.4870468
505.70 0.4961974
505.80 0.5020812
505.90 0.5093554
506.00 0.524219
506.10 0.550891
506.20 0.5911309
506.30 0.6383311
506.40 0.6909916
506.50 0.7465765
506.60 0.8024608
506.70 0.8523714
506.80 0.8907692
506.90 0.9167802
507.00 0.9310697
507.10 0.9362272
507.20 0.9362272
507.30 0.9362272
507.40 0.9362272
507.50 0.9362272
507.60 0.9362272
507.70 0.9376074
507.80 0.9417631
507.90 0.9469847
508.00 0.9509839
508.10 0.9521848
508.20 0.9521848
508.30 0.9489433
508.40 0.9401922
508.50 0.9265336
508.60 0.9086519
508.70 0.8889551
508.80 0.8759811
508.90 0.8731703
509.00 0.8821365
509.10 0.896518
509.20 0.9088894
509.30 0.9176533
509.40 0.9214527
509.50 0.9214527
509.60 0.9203072
509.70 0.9101265
509.80 0.8922209
509.90 0.8697838
510.00 0.8473711
510.10 0.829064
510.20 0.8172201
510.30 0.8121792
510.40 0.8121792
510.50 0.8121792
510.60 0.8121792
510.70 0.8121792
510.80 0.8121792
510.90 0.8121792
511.00 0.8107253
511.10 0.8051737
511.20 0.7970491
511.30 0.7881271
511.40 0.7803347
511.50 0.7761475
511.60 0.7761475
511.70 0.7761475
511.80 0.7761475
511.90 0.7761475
512.00 0.7761475
512.10 0.7761475
512.20 0.7761475
512.30 0.7761475
512.40 0.7761475
512.50 0.777033
512.60 0.7839046
512.70 0.7876719
512.80 0.7882372
512.90 0.7863776
513.00 0.782776
513.10 0.7786575
513.20 0.7749727
513.30 0.7707248
513.40 0.7629884
513.50 0.7555307
513.60 0.7473766
513.70 0.7389207
513.80 0.7323593
513.90 0.7383913
514.00 0.7580396
514.10 0.7880953
514.20 0.8270041
514.30 0.8718121
514.40 0.918102
514.50 0.9609815
514.60 0.9976592
514.70 1.028683
514.80 1.05656
514.90 1.083733
515.00 1.110991
515.10 1.137187
515.20 1.157695
515.30 1.166417
515.40 1.166144
515.50 1.160303
515.60 1.15176
515.70 1.142609
515.80 1.136726
515.90 1.129451
516.00 1.114588
516.10 1.087916
516.20 1.04756
516.30 0.9965468
516.40 0.9406493
516.50 0.8868389
516.60 0.8410455
516.70 0.8073159
516.80 0.7874684
516.90 0.7807861
517.00 0.7842063
517.10 0.7930608
517.20 0.8025777
517.30 0.8076118
517.40 0.8077991
517.50 0.8077991
517.60 0.8077991
517.70 0.8064189
517.80 0.8022631
517.90 0.7970415
518.00 0.7930423
518.10 0.7918415
518.20 0.7918415
518.30 0.7918415
518.40 0.7918415
518.50 0.7918415
518.60 0.7918415
518.70 0.7916173
518.80 0.7863473
518.90 0.7765515
519.00 0.763295
519.10 0.7570828
519.20 0.7575203
519.30 0.76161
519.40 0.7684881
519.50 0.7777356
519.60 0.7872569
519.70 0.7992229
519.80 0.8165678
519.90 0.8416559
520.00 0.8757401
520.10 0.9194703
520.20 0.9715756
520.30 1.028271
520.40 1.084066
520.50 1.133567
520.60 1.173482
520.70 1.203061
520.80 1.223127
520.90 1.235441
521.00 1.242801
521.10 1.248808
521.20 1.256126
521.30 1.265679
521.40 1.276322
521.50 1.285125
521.60 1.28936
521.70 1.28936
521.80 1.28936
521.90 1.28936
522.00 1.292454
522.10 1.301357
522.20 1.316104
522.30 1.335879
522.40 1.358208
522.50 1.37869
522.60 1.388236
522.70 1.387062
522.80 1.377266
522.90 1.362011
523.00 1.344683
523.10 1.328592
523.20 1.315161
523.30 1.307001
523.40 1.307551
523.50 1.311883
523.60 1.320903
523.70 1.335659
523.80 1.356326
523.90 1.373179
524.00 1.380455
524.10 1.373687
524.20 1.349497
524.30 1.307466
524.40 1.261176
524.50 1.218296
524.60 1.181619
524.70 1.150594
524.80 1.122717
524.90 1.095544
525.00 1.068286
525.10 1.04209
525.20 1.020852
525.30 1.007096
525.40 0.9983902
525.50 0.9929058
525.60 0.9897987
525.70 0.9897987
525.80 0.9897987
525.90 0.9897987
526.00 0.9932762
526.10 1.000239
526.20 1.010202
526.30 1.020511
526.40 1.029811
526.50 1.037397
526.60 1.043708
526.70 1.050654
526.80 1.061155
526.90 1.078515
527.00 1.105445
527.10 1.140873
527.20 1.178853
527.30 1.212059
527.40 1.235215
527.50 1.240649
527.60 1.240649
527.70 1.240649
527.80 1.240649
527.90 1.240649
528.00 1.240649
528.10 1.240649
528.20 1.240649
528.30 1.240649
528.40 1.240649
528.50 1.240649
528.60 1.240649
528.70 1.244996
528.80 1.260053
528.90 1.281597
529.00 1.304987
529.10 1.318309
529.20 1.322257
529.30 1.319254
529.40 1.310546
529.50 1.301298
529.60 1.291777
529.70 1.279811
529.80 1.262466
529.90 1.237378
530.00 1.203294
530.10 1.159564
530.20 1.107458
530.30 1.050763
530.40 0.9949684
530.50 0.9460544
530.60 0.9113657
530.70 0.8905085
530.80 0.8818602
530.90 0.88315
531.00 0.8903054
531.10 0.8968943
531.20 0.897701
531.30 0.8906693
531.40 0.8800267
531.50 0.8712236
531.60 0.8669879
531.70 0.8669879
531.80 0.8669879
531.90 0.8669879
532.00 0.8721687
532.10 0.8784817
532.20 0.8823689
532.30 0.8794813
532.40 0.8678758
532.50 0.8502034
532.60 0.8324269
532.70 0.8197878
532.80 0.8126968
532.90 0.8110794
533.00 0.8185219
533.10 0.8320591
533.20 0.84831
533.30 0.8618974
533.40 0.866654
533.50 0.8623214
533.60 0.8533021
533.70 0.8385461
533.80 0.8178785
533.90 0.7924591
534.00 0.7655348
534.10 0.7422477
534.20 0.7288345
534.30 0.7308632
534.40 0.7367037
534.50 0.7414024
534.60 0.744255
534.70 0.746262
534.80 0.7487036
534.90 0.7518793
535.00 0.7549838
535.10 0.7563752
535.20 0.7540187
535.30 0.7475423
535.40 0.7402874
535.50 0.7350818
535.60 0.7332593
535.70 0.7332593
535.80 0.7332593
535.90 0.7332593
536.00 0.7297817
536.10 0.7228188
536.20 0.7128557
536.30 0.7008064
536.40 0.6870849
536.50 0.6711413
536.60 0.6521423
536.70 0.6314147
536.80 0.6107865
536.90 0.584958
537.00 0.5507131
537.10 0.5096093
537.20 0.4678015
537.30 0.4324178
537.40 0.4090745
537.50 0.403641
537.60 0.403641
537.70 0.403641
537.80 0.403641
537.90 0.403641
538.00 0.403641
538.10 0.4056906
538.20 0.41648
538.30 0.4377262
538.40 0.4685281
538.50 0.5055714
538.60 0.5446269
538.70 0.5767637
538.80 0.5918054
538.90 0.5927949
539.00 0.5858819
539.10 0.5776647
539.20 0.5742257
539.30 0.5799152
539.40 0.5963947
539.50 0.6171993
539.60 0.6385779
539.70 0.6580025
539.80 0.6728738
539.90 0.6815942
540.00 0.6842258
540.10 0.6842258
540.20 0.6842258
540.30 0.6859886
540.40 0.6962347
540.50 0.7161208
540.60 0.7405407
540.70 0.7657881
540.80 0.7853667
540.90 0.79234
541.00 0.7821853
541.10 0.7695892
541.20 0.7614641
541.30 0.7589431
541.40 0.7589431
541.50 0.7589431
541.60 0.7589431
541.70 0.7589431
541.80 0.7589431
541.90 0.7697288
542.00 0.7797922
542.10 0.7847
542.20 0.782588
542.30 0.7727179
542.40 0.7619946
542.50 0.7582993
542.60 0.7582993
542.70 0.7582993
542.80 0.7582993
542.90 0.7573876
543.00 0.7499452
543.10 0.7364079
543.20 0.720157
543.30 0.7065696
543.40 0.7003929
543.50 0.7003929
543.60 0.7003929
543.70 0.7003929
543.80 0.7003929
543.90 0.7003929
544.00 0.7003929
544.10 0.7003929
544.20 0.699087
544.30 0.6942815
544.40 0.688441
544.50 0.6837424
544.60 0.6808897
544.70 0.6796502
544.80 0.687943
544.90 0.7056313
545.00 0.7315399
545.10 0.7628417
545.20 0.7930199
545.30 0.8155025
545.40 0.8283456
545.50 0.8329088
545.60 0.8329088
545.70 0.8329088
545.80 0.835825
545.90 0.8432181
546.00 0.853885
546.10 0.864316
546.20 0.8703656
546.30 0.8703656
546.40 0.8703656
546.50 0.8703656
546.60 0.8703656
546.70 0.8679659
546.80 0.8595425
546.90 0.8604478
547.00 0.873586
547.10 0.899606
547.20 0.9362097
547.30 0.9786797
547.40 1.022009
547.50 1.059993
547.60 1.090947
547.70 1.114875
547.80 1.1341
547.90 1.15203
548.00 1.171655
548.10 1.192037
548.20 1.205256
548.30 1.206906
548.40 1.194328
548.50 1.166555
548.60 1.1275
548.70 1.091016
548.80 1.060917
548.90 1.038383
549.00 1.021906
549.10 1.008632
549.20 0.9953145
549.30 0.986401
549.40 0.9802054
549.50 0.9733053
549.60 0.9648351
549.70 0.9571089
549.80 0.9534798
549.90 0.9571834
550.00 0.5922362
550.10 0.678127
550.20 0.7838581
550.30 0.8971748
550.40 1.005498
550.50 1.100458
550.60 1.177843
550.70 1.237664
550.80 1.285724
550.90 1.330551
551.00 1.379612
551.10 1.435691
551.20 1.495712
551.30 1.552953
551.40 1.598513
551.50 1.621689
551.60 1.621689
551.70 1.619771
551.80 1.592934
551.90 1.540774
552.00 1.468242
552.10 1.386509
552.20 1.311063
552.30 1.271423
552.40 1.269949
552.50 1.293302
552.60 1.325573
552.70 1.354819
552.80 1.375634
552.90 1.388211
553.00 1.402118
553.10 1.430054
553.20 1.481027
553.30 1.552847
553.40 1.621718
553.50 1.679024
553.60 1.716137
553.70 1.724708
553.80 1.724708
553.90 1.695296
554.00 1.636462
554.10 1.550572
554.20 1.44484
554.30 1.351575
554.40 1.289933
554.50 1.262778
554.60 1.265372
554.70 1.286858
554.80 1.312268
554.90 1.327461
555.00 1.326092
555.10 1.311521
555.20 1.295326
555.30 1.274176
555.40 1.228616
555.50 1.20544
555.60 1.20544
555.70 1.20544
555.80 1.20544
555.90 1.20544
556.00 1.20544
556.10 1.20544
556.20 1.20544
556.30 1.188874
556.40 1.15824
556.50 1.203825
556.60 1.285999
556.70 1.365253
556.80 1.431723
556.90 1.4845
557.00 1.519095
557.10 1.534448
557.20 1.53319
557.30 1.521866
557.40 1.508284
557.50 1.500768
557.60 1.509949
557.70 1.549277
557.80 1.608387
557.90 1.689164
558.00 1.798431
558.10 1.938761
558.20 2.10722
558.30 2.275115
558.40 2.423386
558.50 2.543601
558.60 2.630498
558.70 2.682919
558.80 2.705747
558.90 2.708414
559.00 2.696768
559.10 2.671166
559.20 2.628457
559.30 2.592366
559.40 2.592366
559.50 2.595315
559.60 2.612365
559.70 2.645038
559.80 2.691108
559.90 2.746408
560.00 2.812949
560.10 2.898849
560.20 3.009734
560.30 3.146675
560.40 3.307353
560.50 3.40502
560.60 3.474716
560.70 3.541259
560.80 3.596186
560.90 3.622451
561.00 3.610607
561.10 3.560419
561.20 3.49558
561.30 3.435084
561.40 3.379796
561.50 3.330006
561.60 3.283712
561.70 3.235813
561.80 3.176703
561.90 3.095925
562.00 2.986658
562.10 2.846329
562.20 2.698466
562.30 2.580472
562.40 2.499183
562.50 2.452467
562.60 2.43168
562.70 2.425058
562.80 2.418076
562.90 2.398883
563.00 2.36464
563.10 2.348734
563.20 2.347617
563.30 2.347617
563.40 2.353172
563.50 2.37835
563.60 2.409932
563.70 2.439609
563.80 2.458823
563.90 2.462038
564.00 2.442284
564.10 2.391329
564.20 2.305346
564.30 2.18308
564.40 2.02551
564.50 1.847497
564.60 1.663356
564.70 1.488312
564.80 1.338809
564.90 1.228708
565.00 1.165383
565.10 1.146204
565.20 1.146204
565.30 1.146204
565.40 1.146204
565.50 1.146204
565.60 1.146204
565.70 1.146204
565.80 1.146204
565.90 1.164371
566.00 1.211473
566.10 1.284705
566.20 1.358819
566.30 1.394578
566.40 1.384174
566.50 1.33276
566.60 1.259574
566.70 1.193524
566.80 1.167359
566.90 1.208057
567.00 1.324269
567.10 1.478143
567.20 1.662908
567.30 1.867916
567.40 2.070433
567.50 2.232527
567.60 2.338443
567.70 2.38489
567.80 2.381702
567.90 2.34311
568.00 2.296323
568.10 2.261378
568.20 2.236476
568.30 2.2218
568.40 2.218692
568.50 2.218692
568.60 2.218692
568.70 2.218692
568.80 2.218692
568.90 2.218692
569.00 2.218692
569.10 2.225668
569.20 2.239276
569.30 2.246415
569.40 2.246415
569.50 2.246415
569.60 2.246415
569.70 2.246415
569.80 2.246415
569.90 2.228248
570.00 2.181146
570.10 2.107913
570.20 2.013203
570.30 1.907491
570.40 1.804233
570.50 1.714342
570.60 1.641439
570.70 1.580384
570.80 1.517232
570.90 1.446527
571.00 1.354873
571.10 1.235625
571.20 1.090994
571.30 0.9315663
571.40 0.7748192
571.50 0.6423678
571.60 0.5509487
571.70 0.5062157
571.80 0.5040635
571.90 0.5345801
572.00 0.5697294
572.10 0.585961
572.20 0.585961
572.30 0.585961
572.40 0.585961
572.50 0.585961
572.60 0.585961
572.70 0.585961
572.80 0.585961
572.90 0.585961
573.00 0.585961
573.10 0.5789855
573.20 0.5653776
573.30 0.558239
573.40 0.558239
573.50 0.558239
573.60 0.558239
573.70 0.558239
573.80 0.5706621
573.90 0.6089479
574.00 0.6608914
574.10 0.7129027
574.20 0.7559967
574.30 0.7887009
574.40 0.8130834
574.50 0.8312468
574.60 0.8444514
574.70 0.852406
574.80 0.852406
574.90 0.8389195
575.00 0.8125579
575.10 0.7779322
575.20 0.7377986
575.30 0.6922184
575.40 0.6408934
575.50 0.5831231
575.60 0.5199945
575.70 0.4559316
575.80 0.3959869
575.90 0.345548
576.00 0.3295751
576.10 0.3523338
576.20 0.3994283
576.30 0.4416335
576.40 0.4680442
576.50 0.4708269
576.60 0.4708269
576.70 0.4708269
576.80 0.4708269
576.90 0.4708269
577.00 0.4708269
577.10 0.4708269
577.20 0.4764369
577.30 0.5220548
577.40 0.605789
577.50 0.7232639
577.60 0.8667563
577.70 1.026291
577.80 1.178899
577.90 1.30306
578.00 1.405117
578.10 1.494074
578.20 1.576406
578.30 1.651238
578.40 1.71505
578.50 1.766377
578.60 1.805414
578.70 1.832781
578.80 1.846399
578.90 1.846399
579.00 1.846399
579.10 1.846399
579.20 1.846399
579.30 1.846399
579.40 1.846399
579.50 1.846399
579.60 1.846399
579.70 1.846399
579.80 1.854462
579.90 1.894811
580.00 1.924083
580.10 1.917674
580.20 1.872091
580.30 1.829886
580.40 1.803475
580.50 1.800693
580.60 1.800693
580.70 1.800693
580.80 1.800693
580.90 1.800693
581.00 1.817204
581.10 1.849957
581.20 1.883595
581.30 1.874747
581.40 1.818218
581.50 1.712074
581.60 1.568582
581.70 1.409047
581.80 1.244016
581.90 1.081569
582.00 0.9275681
582.10 0.7866004
582.20 0.6611737
582.30 0.553638
582.40 0.4821001
582.50 0.4350715
582.60 0.3987899
582.70 0.363469
582.80 0.3498512
582.90 0.3498512
583.00 0.3498512
583.10 0.3498512
583.20 0.3498512
583.30 0.3498512
583.40 0.3498512
583.50 0.3498512
583.60 0.3498512
583.70 0.355392
583.80 0.3760104
583.90 0.3801051
584.00 0.3835838
584.10 0.4037776
584.20 0.4537634
584.30 0.5042118
584.40 0.555492
584.50 0.6128267
584.60 0.6805875
584.70 0.7576609
584.80 0.8408292
584.90 0.9263375
585.00 0.99197
585.10 1.031088
585.20 1.047727
585.30 1.046809
585.40 1.033176
585.50 1.021845
585.60 1.021845
585.70 1.021845
585.80 1.021845
585.90 1.021845
586.00 1.021845
586.10 1.021845
586.20 1.035648
586.30 1.081502
586.40 1.130124
586.50 1.172509
586.60 1.199031
586.70 1.199031
586.80 1.199031
586.90 1.199031
587.00 1.199031
587.10 1.199031
587.20 1.199031
587.30 1.199031
587.40 1.199031
587.50 1.199031
587.60 1.199031
587.70 1.19349
587.80 1.164808
587.90 1.120365
588.00 1.068438
588.10 1.015662
588.20 0.9641646
588.30 0.9492201
588.40 0.9933975
588.50 1.06241
588.60 1.128543
588.70 1.169495
588.80 1.159755
588.90 1.0796
589.00 0.997456
589.10 0.9255849
589.20 0.8696979
589.30 0.8338454
589.40 0.8202742
589.50 0.8202742
589.60 0.8202742
589.70 0.8202742
589.80 0.8202742
589.90 0.8202742
590.00 0.8202742
590.10 0.8202742
590.20 0.8064713
590.30 0.7606164
590.40 0.6953384
590.50 0.6334374
590.60 0.6217868
590.70 0.6732749
590.80 0.7317143
590.90 0.7752879
591.00 0.7778529
591.10 0.7778529
591.20 0.7778529
591.30 0.7778529
591.40 0.7778529
591.50 0.7778529
591.60 0.7778529
591.70 0.7778529
591.80 0.7778529
591.90 0.7778529
592.00 0.7868525
592.10 0.8120608
592.20 0.8371231
592.30 0.8171384
592.40 0.7261053
592.50 0.5997581
592.60 0.4658638
592.70 0.3478384
592.80 0.2784003
592.90 0.2771443
593.00 0.2771443
593.10 0.2771443
593.20 0.2771443
593.30 0.2771443
593.40 0.2771443
593.50 0.2771443
593.60 0.2771443
593.70 0.2844471
593.80 0.3197978
593.90 0.3831478
594.00 0.4679958
594.10 0.5601234
594.20 0.6401269
594.30 0.6906143
594.40 0.7020886
594.50 0.6991418
594.60 0.668311
594.70 0.616823
594.80 0.5583835
594.90 0.5148099
595.00 0.5122449
595.10 0.5122449
595.20 0.5122449
595.30 0.5122449
595.40 0.5122449
595.50 0.5122449
595.60 0.5122449
595.70 0.5122449
595.80 0.5122449
595.90 0.5122449
596.00 0.5032454
596.10 0.478037
596.20 0.4529748
596.30 0.4374555
596.40 0.4330311
596.50 0.4330311
596.60 0.437219
596.70 0.4433867
596.80 0.4393968
596.90 0.4352999
597.00 0.4352999
597.10 0.4352999
597.20 0.4352999
597.30 0.4352999
597.40 0.4352999
597.50 0.4352999
597.60 0.4352999
597.70 0.4279971
597.80 0.3926465
597.90 0.3292964
598.00 0.2444484
598.10 0.1523208
598.20 0.07231729
598.30 0.02182993
598.40 0.01035563
598.50 0.01035563
598.60 0.01035563
598.70 0.03155414
598.80 0.09507753
598.90 0.1855192
599.00 0.280112
599.10 0.3556117
599.20 0.3952809
599.30 0.3952809
599.40 0.3952809
599.50 0.3952809
599.60 0.3952809
599.70 0.3952809
599.80 0.3952809
599.90 0.3952809
600.00 0
600.10 0
600.20 0
600.30 0
600.40 0
600.50 0
600.60 0
600.70 0.8479403
600.80 2.540936
600.90 3.617667
601.00 3.783711
601.10 3.019987
601.20 1.586771
601.30 0
601.40 0
601.50 0
601.60 0
601.70 0
601.80 0
601.90 0
602.00 0.3718074
602.10 0.4477497
602.20 0
602.30 0
602.40 0
602.50 0
602.60 0
602.70 0
602.80 0
602.90 0
603.00 0
603.10 0
603.20 0
603.30 0
603.40 0
603.50 0.5424041
603.60 2.04314
603.70 2.82742
603.80 3.199481
603.90 3.354856
604.00 3.315752
604.10 3.165599
604.20 3.001524
604.30 2.801735
604.40 2.485974
604.50 1.918736
604.60 0.9107925
604.70 0
604.80 0
604.90 0
605.00 0
605.10 0
605.20 0
605.30 0
605.40 0
605.50 0
605.60 0
605.70 0
605.80 0
605.90 0
606.00 0
606.10 0
606.20 1.510145
606.30 2.955285
606.40 4.040993
606.50 4.557749
606.60 4.633139
606.70 4.593092
606.80 4.554726
606.90 4.415479
607.00 4.131971
607.10 3.778665
607.20 3.441299
607.30 3.202611
607.40 3.122754
607.50 3.066226
607.60 2.838103
607.70 2.370817
607.80 1.75301
607.90 1.152552
608.00 0.6256573
608.10 0.09651214
608.20 0
608.30 0
608.40 0
608.50 0.2122738
608.60 0.7331922
608.70 1.127914
608.80 1.320123
608.90 1.384921
609.00 1.412475
609.10 1.267921
609.20 0.6665315
609.30 0
609.40 0
609.50 0
609.60 0
609.70 0
609.80 0
609.90 0
610.00 0
610.10 0
610.20 0
610.30 0
610.40 0
610.50 0
610.60 0
610.70 0
610.80 0
610.90 0
611.00 0
611.10 0
611.20 0
611.30 0
611.40 0
611.50 0
611.60 0
611.70 0
611.80 0
611.90 0
612.00 0.569088
612.10 1.44546
612.20 2.103128
612.30 2.388158
612.40 2.307539
612.50 1.853637
612.60 1.045672
612.70 0
612.80 0
612.90 0
613.00 0
613.10 0
613.20 0
613.30 0.3336837
613.40 2.166546
613.50 3.756597
613.60 4.861119
613.70 5.316068
613.80 5.095536
613.90 4.397019
614.00 3.506312
614.10 2.651278
614.20 2.006747
614.30 1.647433
614.40 1.502093
614.50 1.429399
614.60 1.276963
614.70 0.9433204
614.80 0.4160175
614.90 0
615.00 0
615.10 0
615.20 1.120174
615.30 2.622549
615.40 4.041729
615.50 5.232854
615.60 6.145231
615.70 6.644949
615.80 6.584473
615.90 5.989393
616.00 5.096036
616.10 4.245909
616.20 3.716681
616.30 3.621063
616.40 3.785468
616.50 3.927498
616.60 3.932378
616.70 3.951298
616.80 4.060939
616.90 4.095185
617.00 3.909029
617.10 3.470409
617.20 2.894781
617.30 2.40599
617.40 2.27893
617.50 2.672137
617.60 3.55641
617.70 4.688667
617.80 5.731962
617.90 6.432547
618.00 6.614669
618.10 6.326384
618.20 5.854267
618.30 5.408379
618.40 5.031142
618.50 4.774808
618.60 4.693218
618.70 4.651149
618.80 4.394066
618.90 3.804766
619.00 2.958431
619.10 2.051196
619.20 1.29546
619.30 0.8211064
619.40 0.6503024
619.50 0.620841
619.60 0.4912717
619.70 0.2079875
619.80 0
619.90 0
620.00 0
620.10 0
620.20 0
620.30 0
620.40 0
620.50 0
620.60 0
620.70 0
620.80 0.9546458
620.90 3.196956
621.00 5.009097
621.10 5.965769
621.20 5.908189
621.30 5.093209
621.40 4.021988
621.50 3.084868
621.60 2.446122
621.70 2.147121
621.80 2.051688
621.90 2.030013
622.00 1.990457
622.10 1.778141
622.20 1.347589
622.30 0.7693876
622.40 0.2176958
622.50 0
622.60 0
622.70 0.1652725
622.80 0.5717395
622.90 1.037618
623.00 1.55496
623.10 2.099283
623.20 2.592185
623.30 2.96542
623.40 3.332622
623.50 3.848084
623.60 4.452985
623.70 5.005043
623.80 5.355054
623.90 5.4232
624.00 5.235221
624.10 4.936134
624.20 4.682309
624.30 4.548354
624.40 4.494835
624.50 4.504366
624.60 4.553167
624.70 4.599988
624.80 4.517013
624.90 4.15263
625.00 3.545408
625.10 2.861891
625.20 2.334049
625.30 2.066739
625.40 1.987352
625.50 1.92679
625.60 1.851548
625.70 1.868918
625.80 2.040641
625.90 2.32653
626.00 2.726558
626.10 3.20837
626.20 3.629917
626.30 3.960691
626.40 4.263527
626.50 4.566633
626.60 4.821067
626.70 4.988896
626.80 5.135719
626.90 5.211757
627.00 4.947065
627.10 4.152156
627.20 2.910009
627.30 1.479151
627.40 0.1063265
627.50 0
627.60 0
627.70 0
627.80 0.02427726
627.90 1.56615
628.00 3.149546
628.10 4.268875
628.20 4.594359
628.30 4.164951
628.40 3.246341
628.50 2.144724
628.60 1.123303
628.70 0.297377
628.80 0
628.90 0
629.00 0
629.10 0
629.20 0
629.30 0.5459487
629.40 1.469751
629.50 2.157491
629.60 2.009209
629.70 0.4087621
629.80 0
629.90 0
630.00 0
630.10 0
630.20 0
630.30 0
630.40 0
630.50 0
630.60 1.302028
630.70 5.05248
630.80 7.191934
630.90 7.673314
631.00 7.023803
631.10 6.121061
631.20 5.611086
631.30 5.696429
631.40 6.197416
631.50 6.809915
631.60 7.305473
631.70 7.51866
631.80 7.425206
631.90 7.242833
632.00 7.232857
632.10 7.470862
632.20 7.938144
632.30 8.577969
632.40 9.327015
632.50 9.987426
632.60 10.14554
632.70 9.590003
632.80 8.506327
632.90 7.179244
633.00 5.794413
633.10 4.538851
633.20 3.583854
633.30 3.027422
633.40 2.787407
633.50 2.756665
633.60 2.93168
633.70 3.31488
633.80 3.795456
633.90 4.273338
634.00 4.741304
634.10 5.129932
634.20 5.362851
634.30 5.381312
634.40 5.258784
634.50 5.182683
634.60 5.336821
634.70 5.892663
634.80 6.991777
634.90 8.50865
635.00 10.05966
635.10 11.18842
635.20 11.53922
635.30 11.01573
635.40 9.815211
635.50 8.270826
635.60 6.780123
635.70 5.751353
635.80 5.354147
635.90 5.578721
636.00 6.187263
636.10 6.64625
636.20 6.568537
636.30 5.964153
636.40 5.027357
636.50 4.016214
636.60 3.209125
636.70 2.825243
636.80 2.84769
636.90 3.112953
637.00 3.39803
637.10 3.511798
637.20 3.417952
637.30 3.096385
637.40 2.750046
637.50 2.75862
637.60 3.257222
637.70 4.121346
637.80 5.218939
637.90 6.396668
638.00 7.394329
638.10 7.967111
638.20 8.145104
638.30 8.073127
638.40 7.732277
638.50 7.090119
638.60 6.242007
638.70 5.402627
638.80 4.737868
638.90 4.384285
639.00 4.431381
639.10 4.861134
639.20 5.504961
639.30 6.159203
639.40 6.795451
639.50 7.446012
639.60 8.102994
639.70 8.721496
639.80 9.258648
639.90 9.70325
640.00 10.03684
640.10 10.24908
640.20 10.34564
640.30 10.30873
640.40 10.10789
640.50 9.767579
640.60 9.3728
640.70 8.953809
640.80 8.462293
640.90 7.84939
641.00 7.094237
641.10 6.326952
641.20 5.772249
641.30 5.573665
641.40 5.804713
641.50 6.379889
641.60 7.158123
641.70 8.104239
641.80 9.185347
641.90 10.1831
642.00 10.83366
642.10 11.12027
642.20 11.13915
642.30 10.9749
642.40 10.70679
642.50 10.40156
642.60 10.15862
642.70 10.03696
642.80 9.993552
642.90 10.04322
643.00 10.16998
643.10 10.2235
643.20 10.08291
643.30 9.771036
643.40 9.34004
643.50 8.776419
643.60 8.100674
643.70 7.416676
643.80 6.879098
643.90 6.591156
644.00 6.581929
644.10 6.875003
644.20 7.501552
644.30 8.404396
644.40 9.47661
644.50 10.56722
644.60 11.44638
644.70 11.97255
644.80 12.20441
644.90 12.12692
645.00 11.70204
645.10 11.08761
645.20 10.46358
645.30 9.95588
645.40 9.655608
645.50 9.616977
645.60 9.801006
645.70 10.10479
645.80 10.42213
645.90 10.76981
646.00 11.25875
646.10 11.73779
646.20 11.85636
646.30 11.54099
646.40 10.96705
646.50 10.32897
646.60 9.825803
646.70 9.594559
646.80 9.65959
646.90 9.878385
647.00 9.991898
647.10 9.884789
647.20 9.57096
647.30 8.905365
647.40 7.808962
647.50 6.60253
647.60 5.724497
647.70 5.424411
647.80 5.75013
647.90 6.554244
648.00 7.561703
648.10 8.529067
648.20 9.332586
648.30 9.932613
648.40 10.41044
648.50 10.81273
648.60 11.19382
648.70 11.73002
648.80 12.46061
648.90 13.29317
649.00 14.11841
649.10 14.81796
649.20 15.33861
649.30 15.71854
649.40 15.96549
649.50 16.09232
649.60 16.15303
649.70 16.22278
649.80 16.3128
649.90 16.36148
650.00 16.21926
650.10 15.77434
650.20 15.07256
650.30 14.17822
650.40 13.21395
650.50 12.39263
650.60 11.88747
650.70 11.70154
650.80 11.80168
650.90 12.12909
651.00 12.51769
651.10 12.82328
651.20 13.05742
651.30 13.27203
651.40 13.51071
651.50 13.84095
651.60 14.32198
651.70 15.00899
651.80 15.84596
651.90 16.63767
652.00 17.18909
652.10 17.41619
652.20 17.3137
652.30 16.91717
652.40 16.35095
652.50 15.75348
652.60 15.21332
652.70 14.74976
652.80 14.2722
652.90 13.6317
653.00 12.73475
653.10 11.58427
653.20 10.36042
653.30 9.376905
653.40 8.854048
653.50 8.847431
653.60 9.306589
653.70 10.09592
653.80 10.9804
653.90 11.742
654.00 12.1642
654.10 12.18784
654.20 12.01246
654.30 11.87308
654.40 11.90921
654.50 12.25341
654.60 12.9482
654.70 13.89546
654.80 15.00873
654.90 16.22861
655.00 17.40536
655.10 18.27097
655.20 18.6436
655.30 18.50539
655.40 17.9806
655.50 17.17569
655.60 16.17688
655.70 15.21842
655.80 14.62292
655.90 14.56001
656.00 15.02569
656.10 15.89134
656.20 16.84813
656.30 17.66932
656.40 18.31165
656.50 18.79042
656.60 19.10924
656.70 19.20689
656.80 19.03198
656.90 18.5583
657.00 17.78915
657.10 16.75647
657.20 15.54634
657.30 14.35055
657.40 13.27745
657.50 12.4654
657.60 12.2124
657.70 12.58256
657.80 13.41588
657.90 14.5729
658.00 15.92002
658.10 17.27035
658.20 18.38068
658.30 19.11083
658.40 19.46583
658.50 19.53187
658.60 19.41927
658.70 19.14073
658.80 18.78315
658.90 18.50038
659.00 18.32228
659.10 18.2295
659.20 18.18004
659.30 18.13833
659.40 18.09471
659.50 18.08185
659.60 18.18846
659.70 18.49189
659.80 18.98421
659.90 19.50302
660.00 19.85824
660.10 20.08269
660.20 20.28448
660.30 20.42669
660.40 20.36728
660.50 20.02406
660.60 19.5096
660.70 19.02188
660.80 18.72892
660.90 18.72749
661.00 19.02514
661.10 19.57976
661.20 20.25948
661.30 20.91074
661.40 21.40113
661.50 21.56268
661.60 21.32919
661.70 20.78984
661.80 20.16513
661.90 19.68097
662.00 19.44378
662.10 19.50534
662.20 19.86796
662.30 20.5119
662.40 21.40253
662.50 22.41882
662.60 23.39021
662.70 24.18708
662.80 24.66734
662.90 24.6916
663.00 24.17694
663.10 23.15808
663.20 21.84321
663.30 20.51416
663.40 19.50149
663.50 19.05959
663.60 19.16941
663.70 19.62087
663.80 20.22551
663.90 20.87391
664.00 21.44227
664.10 21.79208
664.20 21.93665
664.30 21.9749
664.40 22.01424
664.50 22.08572
664.60 22.10888
664.70 22.05769
664.80 21.82931
664.90 21.20904
665.00 20.19989
665.10 19.10259
665.20 18.21609
665.30 17.69679
665.40 17.60756
665.50 17.95033
665.60 18.59771
665.70 19.31496
665.80 19.91011
665.90 20.35822
666.00 20.7338
666.10 21.05379
666.20 21.34523
666.30 21.74739
666.40 22.39563
666.50 23.18295
666.60 23.86289
666.70 24.25366
666.80 24.33825
666.90 24.2292
667.00 24.0863
667.10 24.09011
667.20 24.34282
667.30 24.74906
667.40 25.14863
667.50 25.49352
667.60 25.77421
667.70 25.9368
667.80 25.90217
667.90 25.72658
668.00 25.54011
668.10 25.48483
668.20 25.68141
668.30 26.10943
668.40 26.59213
668.50 26.94687
668.60 27.0719
668.70 26.9897
668.80 26.68605
668.90 26.06834
669.00 25.21329
669.10 24.34352
669.20 23.67206
669.30 23.19987
669.40 22.85313
669.50 22.61345
669.60 22.44021
669.70 22.30308
669.80 22.20334
669.90 22.11984
670.00 22.04373
670.10 21.99126
670.20 22.0007
670.30 22.0079
670.40 21.81789
670.50 21.30595
670.60 20.50353
670.70 19.62564
670.80 18.85309
670.90 18.25048
671.00 17.93974
671.10 18.07908
671.20 18.76127
671.30 19.93984
671.40 21.44461
671.50 23.03369
671.60 24.48684
671.70 25.70777
671.80 26.6365
671.90 27.22785
672.00 27.46464
672.10 27.3943
672.20 27.19655
672.30 27.05406
672.40 27.01918
672.50 27.05179
672.60 27.08961
672.70 27.10453
672.80 27.08979
672.90 27.06555
673.00 27.03105
673.10 26.98995
673.20 27.01626
673.30 27.11818
673.40 27.24162
673.50 27.3372
673.60 27.36607
673.70 27.30477
673.80 27.09036
673.90 26.71202
674.00 26.30534
674.10 26.08142
674.20 26.25209
674.30 26.89795
674.40 27.83808
674.50 28.76622
674.60 29.45338
674.70 29.80002
674.80 29.79552
674.90 29.44711
675.00 28.87133
675.10 28.33815
675.20 28.21742
675.30 28.71788
675.40 29.76015
675.50 31.13554
675.60 32.53328
675.70 33.61021
675.80 34.20677
675.90 34.33651
676.00 34.03764
676.10 33.40618
676.20 32.65174
676.30 32.06578
676.40 31.8095
676.50 31.83851
676.60 31.99943
676.70 32.20875
676.80 32.50948
676.90 32.88215
677.00 33.21091
677.10 33.42462
677.20 33.57635
677.30 33.7905
677.40 34.15155
677.50 34.62233
677.60 35.06771
677.70 35.23993
677.80 34.9502
677.90 34.24252
678.00 33.29658
678.10 32.30464
678.20 31.40331
678.30 30.73542
678.40 30.46359
678.50 30.65488
678.60 31.13324
678.70 31.58107
678.80 31.73407
678.90 31.48252
679.00 30.84784
679.10 30.00045
679.20 29.19497
679.30 28.55084
679.40 28.09574
679.50 27.83264
679.60 27.7586
679.70 27.82359
679.80 27.91093
679.90 27.93385
680.00 27.9585
680.10 28.10096
680.20 28.41286
680.30 28.83502
680.40 29.21723
680.50 29.46655
680.60 29.53212
680.70 29.45536
680.80 29.35807
680.90 29.41366
681.00 29.8003
681.10 30.54929
681.20 31.5562
681.30 32.64046
681.40 33.59374
681.50 34.23378
681.60 34.48904
681.70 34.40959
681.80 34.0869
681.90 33.62836
682.00 33.15894
682.10 32.79873
682.20 32.64851
682.30 32.6316
682.40 32.52961
682.50 32.20883
682.60 31.66396
682.70 31.0225
682.80 30.36255
682.90 29.63044
683.00 28.7249
683.10 27.70499
683.20 26.83766
683.30 26.27511
683.40 26.02867
683.50 26.09683
683.60 26.39169
683.70 26.77727
683.80 27.11367
683.90 27.3551
684.00 27.54788
684.10 27.69346
684.20 27.83184
684.30 28.05157
684.40 28.44315
684.50 28.94393
684.60 29.3816
684.70 29.66852
684.80 29.7554
684.90 29.56379
685.00 29.02026
685.10 28.21778
685.20 27.39109
685.30 26.70141
685.40 26.16024
685.50 25.69882
685.60 25.29328
685.70 24.98447
685.80 24.80032
685.90 24.70996
686.00 24.48159
686.10 23.8253
686.20 22.70721
686.30 21.35625
686.40 20.12518
686.50 19.28609
686.60 19.03906
686.70 19.51231
686.80 20.74218
686.90 22.63158
687.00 24.84337
687.10 26.92936
687.20 28.44204
687.30 29.08028
687.40 28.87474
687.50 28.04417
687.60 26.80206
687.70 25.30826
687.80 23.7715
687.90 22.52315
688.00 21.7556
688.10 21.50765
688.20 21.71591
688.30 22.27387
688.40 23.07255
688.50 23.90416
688.60 24.55964
688.70 24.91869
688.80 25.05129
688.90 25.24186
689.00 25.7184
689.10 26.5236
689.20 27.50014
689.30 28.31047
689.40 28.71337
689.50 28.66583
689.60 28.20565
689.70 27.39446
689.80 26.43057
689.90 25.67011
690.00 25.40954
690.10 25.7439
690.20 26.48507
690.30 27.23636
690.40 27.68011
690.50 27.67583
690.60 27.20792
690.70 26.41347
690.80 25.47272
690.90 24.43397
691.00 23.35743
691.10 22.39719
691.20 21.63796
691.30 21.07696
691.40 20.71157
691.50 20.59089
691.60 20.82243
691.70 21.52648
691.80 22.63104
691.90 23.84461
692.00 24.86267
692.10 25.44948
692.20 25.49374
692.30 25.10528
692.40 24.53495
692.50 23.96723
692.60 23.54121
692.70 23.36417
692.80 23.48567
692.90 23.90312
693.00 24.50735
693.10 25.07746
693.20 25.42497
693.30 25.53793
693.40 25.53949
693.50 25.55034
693.60 25.56185
693.70 25.51122
693.80 25.43341
693.90 25.43486
694.00 25.60968
694.10 26.06803
694.20 26.79482
694.30 27.56127
694.40 28.12365
694.50 28.30371
694.60 28.0045
694.70 27.25001
694.80 26.24388
694.90 25.3191
695.00 24.78842
695.10 24.80488
695.20 25.2978
695.30 26.11615
695.40 27.09971
695.50 27.98668
695.60 28.55878
695.70 28.79719
695.80 28.7409
695.90 28.48888
696.00 28.2338
696.10 28.15509
696.20 28.28367
696.30 28.48539
696.40 28.65379
696.50 28.73997
696.60 28.72858
696.70 28.65854
696.80 28.53193
696.90 28.36074
697.00 28.19461
697.10 28.0052
697.20 27.74364
697.30 27.42464
697.40 27.09039
697.50 26.80146
697.60 26.55988
697.70 26.37238
697.80 26.2978
697.90 26.40586
698.00 26.71659
698.10 27.11739
698.20 27.47501
698.30 27.68046
698.40 27.72959
698.50 27.74632
698.60 27.86471
698.70 28.1211
698.80 28.45714
698.90 28.7794
699.00 29.04907
699.10 29.24923
699.20 29.32905
699.30 29.28247
699.40 29.13128
699.50 28.91805
699.60 28.77839
699.70 28.9159
699.80 29.40021
699.90 30.13207
700.00 30.9275
700.10 31.59902
700.20 32.0208
700.30 32.08391
700.40 31.73042
700.50 31.01439
700.60 30.09474
700.70 29.24477
700.80 28.70724
700.90 28.61171
701.00 28.93333
701.10 29.51017
701.20 30.2048
701.30 30.93222
701.40 31.63543
701.50 32.25386
701.60 32.72586
701.70 33.08333
701.80 33.36161
701.90 33.53329
702.00 33.57535
702.10 33.34759
702.20 32.74032
702.30 31.91358
702.40 31.16534
702.50 30.75018
702.60 30.84235
702.70 31.52521
702.80 32.73394
702.90 34.33794
703.00 36.18143
703.10 37.93678
703.20 39.28086
703.30 40.08053
703.40 40.34873
703.50 40.25223
703.60 39.99274
703.70 39.62477
703.80 39.16719
703.90 38.72011
704.00 38.33106
704.10 37.9049
704.20 37.3941
704.30 36.89171
704.40 36.53095
704.50 36.45827
704.60 36.74422
704.70 37.3437
704.80 38.10055
704.90 38.74587
705.00 39.05651
705.10 39.00283
705.20 38.66093
705.30 38.13673
705.40 37.59898
705.50 37.16447
705.60 36.76415
705.70 36.31837
705.80 35.83488
705.90 35.34616
706.00 34.9214
706.10 34.65036
706.20 34.55841
706.30 34.69076
706.40 35.15575
706.50 35.99156
706.60 37.09246
706.70 38.22547
706.80 39.10037
706.90 39.60307
707.00 39.88938
707.10 40.04239
707.20 40.00509
707.30 39.79535
707.40 39.51296
707.50 39.26056
707.60 39.16405
707.70 39.33481
707.80 39.79484
707.90 40.46444
708.00 41.20259
708.10 41.89344
708.20 42.43807
708.30 42.7994
708.40 42.97804
708.50 42.9515
708.60 42.72741
708.70 42.34451
708.80 41.85013
708.90 41.32187
709.00 40.87823
709.10 40.60453
709.20 40.49856
709.30 40.50863
709.40 40.60287
709.50 40.74973
709.60 40.92907
709.70 41.07696
709.80 41.08308
709.90 40.89637
710.00 40.52319
710.10 40.02585
710.20 39.48808
710.30 39.01559
710.40 38.7478
710.50 38.828
710.60 39.32034
710.70 40.13871
710.80 41.08906
710.90 41.93423
711.00 42.45226
711.10 42.52684
711.20 42.14619
711.30 41.39064
711.40 40.49456
711.50 39.74371
711.60 39.36641
711.70 39.53007
711.80 40.34614
711.90 41.75317
712.00 43.50306
712.10 45.25885
712.20 46.65775
712.30 47.42321
712.40 47.48231
712.50 46.927
712.60 45.93218
712.70 44.76713
712.80 43.68789
712.90 42.89684
713.00 42.55507
713.10 42.60063
713.20 42.77802
713.30 42.86124
713.40 42.73679
713.50 42.44998
713.60 42.11688
713.70 41.88778
713.80 41.84117
713.90 41.98881
714.00 42.31311
714.10 42.69584
714.20 43.01068
714.30 43.16452
714.40 43.14446
714.50 43.06807
714.60 43.04081
714.70 43.07476
714.80 43.15636
714.90 43.27231
715.00 43.43105
715.10 43.59023
715.20 43.8096
715.30 44.19217
715.40 44.71836
715.50 45.35782
715.60 46.02618
715.70 46.60565
715.80 46.97135
715.90 47.01715
716.00 46.7252
716.10 46.21305
716.20 45.70767
716.30 45.4059
716.40 45.43328
716.50 45.83405
716.60 46.41914
716.70 46.89232
716.80 47.10859
716.90 47.04362
717.00 46.75147
717.10 46.30343
717.20 45.81085
717.30 45.4324
717.40 45.26178
717.50 45.34072
717.60 45.67792
717.70 46.22347
717.80 46.8977
717.90 47.57487
718.00 48.04695
718.10 48.1601
718.20 47.92024
718.30 47.42014
718.40 46.80514
718.50 46.24144
718.60 45.76508
718.70 45.27542
718.80 44.75669
718.90 44.29236
719.00 43.98939
719.10 43.92074
719.20 44.07634
719.30 44.44878
719.40 45.0622
719.50 45.85294
719.60 46.60714
719.70 47.07796
719.80 47.05005
719.90 46.45493
720.00 45.43343
720.10 44.33357
720.20 43.53995
720.30 43.34532
720.40 43.8555
720.50 44.90821
720.60 46.21051
720.70 47.43895
720.80 48.37933
720.90 48.95245
721.00 49.14928
721.10 48.98745
721.20 48.52732
721.30 47.89258
721.40 47.256
721.50 46.79279
721.60 46.59142
721.70 46.59918
721.80 46.71248
721.90 46.90024
722.00 47.16751
722.10 47.57181
722.20 48.23233
722.30 49.14282
722.40 50.11728
722.50 51.04159
722.60 51.91812
722.70 52.71473
722.80 53.31909
722.90 53.56853
723.00 53.39166
723.10 52.85034
723.20 52.09424
723.30 51.32944
723.40 50.79565
723.50 50.52525
723.60 50.15783
723.70 49.35557
723.80 48.20293
723.90 46.87072
724.00 45.27654
724.10 43.23503
724.20 40.76043
724.30 38.29509
724.40 36.48505
724.50 35.75652
724.60 36.23858
724.70 37.89044
724.80 40.39343
724.90 43.33551
725.00 46.45455
725.10 49.5189
725.20 52.11493
725.30 53.7754
725.40 54.42999
725.50 54.51505
725.60 54.51281
725.70 54.44546
725.80 54.06626
725.90 53.27563
726.00 52.20432
726.10 51.06779
726.20 50.16096
726.30 49.72317
726.40 49.80522
726.50 50.34446
726.60 51.21158
726.70 52.23576
726.80 53.12947
726.90 53.51789
727.00 53.23954
727.10 52.3312
727.20 50.88234
727.30 49.0245
727.40 46.97956
727.50 45.22759
727.60 44.2791
727.70 44.38489
727.80 45.55233
727.90 47.5331
728.00 49.76113
728.10 51.56703
728.20 52.58049
728.30 52.73765
728.40 52.10678
728.50 50.96994
728.60 49.76611
728.70 49.01974
728.80 49.09884
728.90 49.92706
729.00 51.19617
729.10 52.671
729.20 54.19179
729.30 55.5186
729.40 56.53317
729.50 57.30564
729.60 57.80443
729.70 57.86895
729.80 57.37525
729.90 56.48881
730.00 55.50738
730.10 54.62383
730.20 53.97751
730.30 53.6579
730.40 53.69044
730.50 53.97016
730.60 54.30913
730.70 54.59628
730.80 54.81395
730.90 54.86229
731.00 54.62583
731.10 54.03599
731.20 52.96605
731.30 51.35186
731.40 49.49402
731.50 47.88908
731.60 46.93496
731.70 46.85185
731.80 47.58353
731.90 48.90054
732.00 50.54737
732.10 52.28831
732.20 53.73447
732.30 54.45648
732.40 54.17013
732.50 52.95253
732.60 51.36947
732.70 49.99122
732.80 49.06523
732.90 48.69193
733.00 48.90511
733.10 49.64102
733.20 50.78119
733.30 52.10235
733.40 53.2398
733.50 53.86304
733.60 53.90017
733.70 53.5367
733.80 53.04899
733.90 52.68318
734.00 52.5819
734.10 52.68645
734.20 52.89561
734.30 53.16809
734.40 53.44586
734.50 53.69721
734.60 53.92797
734.70 54.21476
734.80 54.68403
734.90 55.30093
735.00 55.87776
735.10 56.29273
735.20 56.61898
735.30 56.92132
735.40 57.02453
735.50 56.70019
735.60 55.79375
735.70 54.2792
735.80 52.40535
735.90 50.51511
736.00 48.90138
736.10 47.83363
736.20 47.42829
736.30 47.64195
736.40 48.38119
736.50 49.31745
736.60 49.66075
736.70 48.76655
736.80 46.89818
736.90 44.96391
737.00 43.80192
737.10 43.85138
737.20 45.0613
737.30 47.05545
737.40 49.29255
737.50 51.1409
737.60 52.11739
737.70 52.04173
737.80 50.95003
737.90 49.1932
738.00 47.5032
738.10 46.49267
738.20 46.22611
738.30 46.47263
738.40 47.07887
738.50 47.96671
738.60 49.11135
738.70 50.44845
738.80 51.82623
738.90 53.02411
739.00 53.80118
739.10 53.97733
739.20 53.57388
739.30 52.66955
739.40 51.35261
739.50 49.85776
739.60 48.3823
739.70 47.02158
739.80 45.88359
739.90 45.08562
740.00 44.67517
740.10 44.66849
740.20 45.05079
740.30 45.6915
740.40 46.36176
740.50 46.85225
740.60 46.94111
740.70 46.64646
740.80 46.23502
740.90 45.85026
741.00 45.55147
741.10 45.39928
741.20 45.46886
741.30 45.85582
741.40 46.51145
741.50 47.24064
741.60 47.87406
741.70 48.36734
741.80 48.71609
741.90 48.85559
742.00 48.71774
742.10 48.20919
742.20 47.31649
742.30 46.14315
742.40 44.83831
742.50 43.65178
742.60 42.80927
742.70 42.41041
742.80 42.49333
742.90 43.03158
743.00 43.92971
743.10 44.99041
743.20 46.04165
743.30 47.04511
743.40 48.04285
743.50 49.03702
743.60 49.87935
743.70 50.46972
743.80 50.86544
743.90 51.0515
744.00 50.80586
744.10 49.84442
744.20 48.1218
744.30 45.90036
744.40 43.49808
744.50 41.22074
744.60 39.35027
744.70 38.06075
744.80 37.43444
744.90 37.50919
745.00 38.25992
745.10 39.50852
745.20 40.93197
745.30 42.238
745.40 43.3212
745.50 44.19282
745.60 44.82115
745.70 45.0873
745.80 44.98346
745.90 44.67948
746.00 44.30739
746.10 43.89064
746.20 43.39044
746.30 42.70828
746.40 41.776
746.50 40.65059
746.60 39.45571
746.70 38.23192
746.80 37.1063
746.90 36.56489
747.00 36.96538
747.10 38.30681
747.20 40.40658
747.30 42.84454
747.40 45.10736
747.50 46.69579
747.60 47.09481
747.70 46.11016
747.80 44.06184
747.90 41.48714
748.00 38.96571
748.10 37.14511
748.20 36.42982
748.30 36.61295
748.40 37.37941
748.50 38.47986
748.60 39.54874
748.70 40.27853
748.80 40.4398
748.90 39.99905
749.00 39.24052
749.10 38.46813
749.20 37.78455
749.30 37.20411
749.40 36.75111
749.50 36.48902
749.60 36.45729
749.70 36.59857
749.80 36.79573
749.90 36.96107
750.00 37.00316
750.10 36.86861
750.20 36.61381
750.30 36.32898
750.40 36.06625
750.50 35.90442
750.60 35.99523
750.70 36.50024
750.80 37.44523
750.90 38.63416
751.00 39.78878
751.10 40.72149
751.20 41.24887
751.30 41.1972
751.40 40.5893
751.50 39.57861
751.60 38.30355
751.70 36.84722
751.80 35.3093
751.90 33.69138
752.00 31.78521
752.10 29.30673
752.20 26.29913
752.30 23.19999
752.40 20.52533
752.50 18.70789
752.60 17.93022
752.70 18.29608
752.80 19.77354
752.90 21.94466
753.00 24.30268
753.10 26.5017
753.20 28.28044
753.30 29.46852
753.40 30.16272
753.50 30.69332
753.60 31.21349
753.70 31.61363
753.80 31.77606
753.90 31.63993
754.00 31.32909
754.10 30.96724
754.20 30.57818
754.30 30.35299
754.40 30.49541
754.50 31.02621
754.60 31.83708
754.70 32.78536
754.80 33.65935
754.90 34.19029
755.00 34.15502
755.10 33.44634
755.20 32.11243
755.30 30.2629
755.40 28.11192
755.50 26.02382
755.60 24.36087
755.70 23.3439
755.80 23.16165
755.90 23.87451
756.00 25.21419
756.10 26.72009
756.20 27.93553
756.30 28.58151
756.40 28.67621
756.50 28.3373
756.60 27.60847
756.70 26.48627
756.80 24.87425
756.90 22.83474
757.00 20.67714
757.10 18.89758
757.20 17.84121
757.30 17.5683
757.40 18.04293
757.50 19.08122
757.60 20.43543
757.70 21.79812
757.80 22.80498
757.90 23.1885
758.00 22.78153
758.10 21.64603
758.20 20.17298
758.30 18.71463
758.40 17.4852
758.50 16.56909
758.60 16.02643
758.70 15.92184
758.80 16.29667
758.90 17.26356
759.00 18.81171
759.10 20.6083
759.20 21.99328
759.30 22.3117
759.40 21.32625
759.50 19.29797
759.60 16.86451
759.70 14.61197
759.80 12.8688
759.90 12.1041
760.00 12.60264
760.10 14.0697
760.20 16.04445
760.30 18.16629
760.40 20.10841
760.50 21.61148
760.60 22.64912
760.70 23.33987
760.80 23.7434
760.90 23.68969
761.00 22.74748
761.10 20.80489
761.20 18.30253
761.30 15.47947
761.40 12.55687
761.50 10.16938
761.60 8.831687
761.70 8.648773
761.80 9.353711
761.90 10.43303
762.00 11.2886
762.10 11.51898
762.20 11.05809
762.30 10.05117
762.40 8.738366
762.50 7.28894
762.60 5.784534
762.70 4.448012
762.80 3.54823
762.90 3.131941
763.00 3.140635
763.10 3.436821
763.20 3.831979
763.30 4.208006
763.40 4.540825
763.50 4.792545
763.60 4.851614
763.70 4.741651
763.80 4.709652
763.90 5.041805
764.00 5.852803
764.10 6.993846
764.20 8.120275
764.30 8.927936
764.40 9.157675
764.50 8.602123
764.60 7.276577
764.70 5.441762
764.80 3.56162
764.90 2.066942
765.00 1.258238
765.10 1.249377
765.20 1.819612
765.30 2.5722
765.40 3.056324
765.50 2.821656
765.60 1.611503
765.70 0
765.80 0
765.90 0
766.00 0
766.10 0
766.20 0
766.30 0
766.40 0
766.50 0
766.60 0
766.70 1.73633
766.80 3.073773
766.90 3.896532
767.00 4.353982
767.10 4.532365
767.20 4.417892
767.30 3.997745
767.40 3.259401
767.50 2.209694
767.60 0.9434122
767.70 0
767.80 0
767.90 0
768.00 0
768.10 0
768.20 0
768.30 0
768.40 1.172147
768.50 2.219602
768.60 2.855989
768.70 3.009101
768.80 2.759344
768.90 2.335604
769.00 1.920163
769.10 1.576754
769.20 1.401509
769.30 1.436044
769.40 1.536884
769.50 1.471094
769.60 1.209699
769.70 0.8941932
769.80 0.6259129
769.90 0.5188402
770.00 0.6837742
770.10 1.160843
770.20 1.855248
770.30 2.598241
770.40 3.278132
770.50 3.857385
770.60 4.199251
770.70 4.0862
770.80 3.351954
770.90 1.786985
771.00 0
771.10 0
771.20 0
771.30 0
771.40 0
771.50 0
771.60 0
771.70 0
771.80 0
771.90 0
772.00 0
772.10 0
772.20 2.217728
772.30 5.843585
772.40 7.573221
772.50 7.991699
772.60 7.539592
772.70 6.585155
772.80 5.730044
772.90 5.340556
773.00 5.42417
773.10 5.770533
773.20 6.181554
773.30 6.717538
773.40 7.559902
773.50 8.893599
773.60 10.72459
773.70 12.69934
773.80 14.42035
773.90 15.64179
774.00 16.19074
774.10 15.97443
774.20 15.15939
774.30 14.09216
774.40 13.00788
774.50 11.89939
774.60 10.3849
774.70 7.886689
774.80 4.181749
774.90 0
775.00 0
775.10 0
775.20 0
775.30 0
775.40 0
775.50 4.27691
775.60 9.97842
775.70 15.03516
775.80 18.61308
775.90 20.34897
776.00 20.64741
776.10 20.36822
776.20 20.22676
776.30 20.33921
776.40 20.38288
776.50 20.17072
776.60 19.6893
776.70 19.07846
776.80 18.56231
776.90 18.30005
777.00 18.24348
777.10 18.21479
777.20 18.26585
777.30 18.52037
777.40 18.937
777.50 19.38167
777.60 19.7519
777.70 20.03821
777.80 20.30847
777.90 20.67897
778.00 21.28753
778.10 22.08176
778.20 22.88486
778.30 23.58107
778.40 24.20809
778.50 24.8786
778.60 25.47844
778.70 25.81469
778.80 25.78861
778.90 25.21671
779.00 23.60616
779.10 20.54985
779.20 16.29259
779.30 11.55348
779.40 7.076121
779.50 3.482942
779.60 1.382937
779.70 1.112041
779.80 2.519055
779.90 5.089573
780.00 8.141985
780.10 11.04676
780.20 13.19539
780.30 14.247
780.40 14.41111
780.50 13.97432
780.60 13.09387
780.70 12.07741
780.80 11.41932
780.90 11.66727
781.00 13.06398
781.10 15.62487
781.20 19.33817
781.30 24.00775
781.40 29.18376
781.50 33.86933
781.60 36.70333
781.70 36.79423
781.80 34.12808
781.90 29.53841
782.00 24.33828
782.10 19.92721
782.20 17.39077
782.30 17.24894
782.40 19.51566
782.50 23.70688
782.60 28.83213
782.70 33.6492
782.80 37.0828
782.90 38.66651
783.00 38.79649
783.10 38.1441
783.20 37.22437
783.30 36.50247
783.40 36.1758
783.50 36.09917
783.60 36.08271
783.70 35.85875
783.80 35.09857
783.90 33.6842
784.00 31.8082
784.10 29.9828
784.20 28.69588
784.30 28.21336
784.40 28.60556
784.50 29.86171
784.60 32.05489
784.70 34.86979
784.80 37.43079
784.90 38.71385
785.00 37.64105
785.10 34.05909
785.20 29.23705
785.30 24.69949
785.40 21.57576
785.50 20.55137
785.60 21.84658
785.70 25.13712
785.80 29.73858
785.90 34.8914
786.00 39.68723
786.10 43.42172
786.20 45.93181
786.30 47.42374
786.40 48.55751
786.50 49.74166
786.60 50.41809
786.70 50.01167
786.80 48.5913
786.90 46.5834
787.00 44.63053
787.10 43.50932
787.20 43.69299
787.30 45.14996
787.40 47.53944
787.50 50.3783
787.60 53.16814
787.70 55.41919
787.80 56.80252
787.90 57.28525
788.00 57.26547
788.10 57.34996
788.20 57.86612
788.30 58.78029
788.40 59.88531
788.50 60.91228
788.60 61.47848
788.70 61.16532
788.80 59.71624
788.90 57.27808
789.00 54.39322
789.10 51.71719
789.20 49.80974
789.30 49.11243
789.40 49.85662
789.50 51.9193
789.60 54.88009
789.70 58.10974
789.80 60.88333
789.90 62.68772
790.00 63.41269
790.10 63.18154
790.20 62.27788
790.30 61.00066
790.40 59.5275
790.50 58.14172
790.60 57.29753
790.70 57.11299
790.80 56.94743
790.90 55.80323
791.00 52.9475
791.10 48.68452
791.20 44.23984
791.30 40.77227
791.40 39.13294
791.50 39.80029
791.60 42.65772
791.70 47.02877
791.80 52.01031
791.90 56.56795
792.00 59.72004
792.10 61.01713
792.20 60.83616
792.30 60.13819
792.40 59.97633
792.50 60.72475
792.60 62.06463
792.70 63.71277
792.80 65.36982
792.90 66.72726
793.00 67.57962
793.10 67.92302
793.20 67.91861
793.30 67.75557
793.40 67.50878
793.50 67.15968
793.60 66.77793
793.70 66.54757
793.80 66.62187
793.90 66.95639
794.00 67.26655
794.10 67.09569
794.20 66.01304
794.30 63.62445
794.40 59.83052
794.50 54.90587
794.60 49.35516
794.70 43.93821
794.80 39.52941
794.90 36.90713
795.00 36.56147
795.10 38.5413
795.20 42.50321
795.30 47.86162
795.40 53.91146
795.50 59.85102
795.60 64.97278
795.70 68.86513
795.80 71.37343
795.90 72.64652
796.00 72.85862
796.10 71.9349
796.20 70.0004
796.30 67.6098
796.40 65.44057
796.50 64.15341
796.60 64.09974
796.70 65.27633
796.80 67.55787
796.90 70.6807
797.00 74.22675
797.10 77.70791
797.20 80.56974
797.30 82.31457
797.40 82.90164
797.50 82.86644
797.60 82.73588
797.70 82.76648
797.80 83.14199
797.90 83.78644
798.00 84.66857
798.10 85.8049
798.20 86.93079
798.30 87.77583
798.40 88.22141
798.50 88.29657
798.60 87.99537
798.70 87.20006
798.80 85.82213
798.90 83.99181
799.00 81.87431
799.10 79.5118
799.20 77.13375
799.30 75.30581
799.40 74.538
799.50 75.13281
799.60 77.2133
799.70 80.48679
799.80 84.32817
799.90 88.07017
800.00 91.29794
800.10 93.79971
800.20 95.43575
800.30 96.03703
800.40 95.68661
800.50 94.93324
800.60 94.34123
800.70 94.09058
800.80 94.18643
800.90 94.66212
801.00 95.38515
801.10 96.14319
801.20 96.76847
801.30 97.17579
801.40 97.32621
801.50 97.2143
801.60 96.97959
801.70 96.91016
801.80 97.30253
801.90 98.20454
802.00 99.35846
802.10 100.4006
802.20 100.6111
802.30 99.09745
802.40 95.76191
802.50 91.43515
802.60 87.36161
802.70 84.56902
802.80 83.60285
802.90 84.57454
803.00 87.17274
803.10 90.88494
803.20 95.12853
803.30 99.2187
803.40 102.4857
803.50 104.535
803.60 105.5162
803.70 105.9631
803.80 106.2207
803.90 106.294
804.00 106.0421
804.10 105.4988
804.20 104.9618
804.30 104.8307
804.40 105.4427
804.50 106.8935
804.60 108.9765
804.70 111.3275
804.80 113.5744
804.90 115.4248
805.00 116.7762
805.10 117.6872
805.20 118.24
805.30 118.4796
805.40 118.427
805.50 118.0576
805.60 117.4322
805.70 116.5688
805.80 115.3965
805.90 113.9495
806.00 112.3397
806.10 110.8529
806.20 109.97
806.30 110.1137
806.40 111.476
806.50 113.9579
806.60 117.1664
806.70 120.5577
806.80 123.5977
806.90 125.8174
807.00 126.8013
807.10 126.5273
807.20 125.3847
807.30 123.887
807.40 122.6258
807.50 122.0384
807.60 122.1803
807.70 122.8236
807.80 123.5385
807.90 123.7877
808.00 123.2321
808.10 121.927
808.20 120.2455
808.30 118.7308
808.40 117.9395
808.50 118.1464
808.60 119.1993
808.70 120.6534
808.80 122.0841
808.90 123.22
809.00 123.9657
809.10 124.3367
809.20 124.3568
809.30 124.1297
809.40 123.8627
809.50 123.6244
809.60 123.3177
809.70 122.7953
809.80 121.8552
809.90 120.457
810.00 118.8258
810.10 117.2927
810.20 116.0891
810.30 115.3391
810.40 115.1921
810.50 115.8282
810.60 117.4485
810.70 120.0511
810.80 123.2519
810.90 126.5945
811.00 129.6684
811.10 132.1718
811.20 134.0444
811.30 135.4533
811.40 136.6417
811.50 137.7647
811.60 138.9206
811.70 140.1598
811.80 141.356
811.90 142.2684
812.00 142.6793
812.10 142.5751
812.20 142.2126
812.30 141.8455
812.40 141.6493
812.50 141.7886
812.60 142.3392
812.70 143.1311
812.80 143.8929
812.90 144.3182
813.00 144.0904
813.10 143.0988
813.20 141.4319
813.30 139.4518
813.40 137.7654
813.50 136.8587
813.60 136.8935
813.70 137.7444
813.80 139.0452
813.90 140.2685
814.00 140.9538
814.10 140.8943
814.20 140.1709
814.30 139.3599
814.40 139.1371
814.50 139.7665
814.60 141.2228
814.70 143.1089
814.80 144.8719
814.90 146.1525
815.00 146.7155
815.10 146.5427
815.20 145.9149
815.30 145.2881
815.40 145.1146
815.50 145.67
815.60 146.993
815.70 148.7284
815.80 150.3688
815.90 151.6384
816.00 152.547
816.10 153.3108
816.20 154.0879
816.30 154.9091
816.40 155.8267
816.50 156.9635
816.60 158.4026
816.70 160.0169
816.80 161.5459
816.90 162.7542
817.00 163.4829
817.10 163.672
817.20 163.3135
817.30 162.2653
817.40 160.3695
817.50 157.7457
817.60 154.675
817.70 151.5037
817.80 148.5194
817.90 145.7745
818.00 143.2036
818.10 140.8513
818.20 138.9294
818.30 137.6513
818.40 136.9396
818.50 136.4604
818.60 135.8836
818.70 135.1451
818.80 134.3424
818.90 133.2695
819.00 131.3868
819.10 128.3524
819.20 124.3996
819.30 120.233
819.40 116.8765
819.50 115.2332
819.60 115.6147
819.70 117.8767
819.80 121.8367
819.90 127.2426
820.00 133.5495
820.10 140.0189
820.20 145.947
820.30 151.0141
820.40 155.4503
820.50 159.5262
820.60 163.2259
820.70 166.3842
820.80 168.7701
820.90 170.3465
821.00 171.2404
821.10 171.4994
821.20 171.1499
821.30 170.4048
821.40 169.6726
821.50 169.2986
821.60 169.3732
821.70 169.7164
821.80 170.1009
821.90 170.4488
822.00 170.7996
822.10 171.2552
822.20 171.8864
822.30 172.6573
822.40 173.5666
822.50 174.8137
822.60 176.5575
822.70 178.6991
822.80 181.0925
822.90 183.5317
823.00 185.6111
823.10 186.8987
823.20 187.0894
823.30 186.1027
823.40 184.1727
823.50 181.7254
823.60 179.2478
823.70 177.2801
823.80 176.3043
823.90 176.3654
824.00 177.133
824.10 178.1547
824.20 178.8901
824.30 179.0393
824.40 178.6686
824.50 178.0964
824.60 177.7644
824.70 178.0489
824.80 179.1464
824.90 181.0016
825.00 183.2738
825.10 185.3843
825.20 186.6335
825.30 186.5389
825.40 184.9955
825.50 182.3503
825.60 179.4127
825.70 177.0838
825.80 176.1098
825.90 176.9158
826.00 179.3058
826.10 182.6788
826.20 186.3904
826.30 189.8178
826.40 192.418
826.50 193.7703
826.60 193.803
826.70 192.8087
826.80 191.2854
826.90 189.8081
827.00 188.865
827.10 188.6844
827.20 189.1729
827.30 190.2012
827.40 191.7017
827.50 193.3072
827.60 194.1951
827.70 193.409
827.80 190.5324
827.90 185.9957
828.00 180.6612
828.10 175.555
828.20 171.607
828.30 169.2235
828.40 168.0728
828.50 167.4827
828.60 167.0307
828.70 166.2589
828.80 164.9441
828.90 163.4972
829.00 162.536
829.10 162.7854
829.20 164.6568
829.30 167.8526
829.40 171.5172
829.50 174.5284
829.60 175.8444
829.70 174.9489
829.80 172.6119
829.90 170.3947
830.00 169.4388
830.10 170.443
830.20 173.6555
830.30 178.605
830.40 184.3258
830.50 189.5374
830.60 192.9416
830.70 193.7636
830.80 192.1274
830.90 188.9334
831.00 185.5547
831.10 183.1921
831.20 182.093
831.30 181.9397
831.40 182.486
831.50 183.7467
831.60 185.721
831.70 188.1053
831.80 190.6382
831.90 193.2895
832.00 196.0679
832.10 198.8296
832.20 201.2438
832.30 202.9063
832.40 203.521
832.50 203.2864
832.60 202.8743
832.70 203.0008
832.80 204.1846
832.90 206.4134
833.00 209.1647
833.10 211.8482
833.20 213.996
833.30 215.3319
833.40 215.8002
833.50 215.55
833.60 214.7471
833.70 213.6947
833.80 212.9008
833.90 212.608
834.00 212.1687
834.10 210.1718
834.20 205.5466
834.30 198.4624
834.40 190.32
834.50 183.0654
834.60 178.4354
834.70 177.35
834.80 179.7531
834.90 184.8256
835.00 191.48
835.10 198.4005
835.20 204.1006
835.30 207.5971
835.40 209.1526
835.50 210.0764
835.60 211.6168
835.70 214.0573
835.80 216.6804
835.90 218.6284
836.00 219.5177
836.10 219.5103
836.20 219.1775
836.30 219.1823
836.40 219.9624
836.50 221.7485
836.60 224.5036
836.70 227.773
836.80 230.6587
836.90 232.2525
837.00 232.1255
837.10 230.399
837.20 227.7021
837.30 224.838
837.40 222.2831
837.50 220.0614
837.60 218.1042
837.70 216.3726
837.80 214.8359
837.90 213.2912
838.00 211.5487
838.10 209.7964
838.20 208.465
838.30 207.9373
838.40 208.2857
838.50 209.3893
838.60 211.152
838.70 213.3753
838.80 215.7188
838.90 218.0065
839.00 220.1329
839.10 221.951
839.20 223.4055
839.30 224.7648
839.40 226.1009
839.50 226.8555
839.60 226.2357
839.70 223.7542
839.80 219.7155
839.90 214.9845
840.00 210.5084
840.10 207.1247
840.20 205.4197
840.30 205.6027
840.40 207.5623
840.50 210.8712
840.60 214.866
840.70 218.8169
840.80 222.3316
840.90 225.4586
841.00 228.6276
841.10 232.3387
841.20 236.5187
841.30 240.6637
841.40 244.2788
841.50 246.9504
841.60 248.4331
841.70 248.7306
841.80 248.0371
841.90 246.7219
842.00 245.194
842.10 243.773
842.20 242.5989
842.30 241.4687
842.40 239.8366
842.50 237.1215
842.60 233.4138
842.70 229.4753
842.80 226.0651
842.90 223.7651
843.00 223.0001
843.10 223.9083
843.20 226.2473
843.30 229.4344
843.40 232.7145
843.50 235.1849
843.60 235.9394
843.70 234.5912
843.80 231.5143
843.90 227.6184
844.00 223.7578
844.10 220.4666
844.20 218.0987
844.30 216.7644
844.40 216.3853
844.50 216.8314
844.60 217.9997
844.70 219.8699
844.80 222.0706
844.90 223.8027
845.00 224.5068
845.10 224.0598
845.20 222.5924
845.30 220.4423
845.40 218.064
845.50 215.8802
845.60 214.2846
845.70 213.7487
845.80 214.4714
845.90 216.2519
846.00 218.5283
846.10 220.3313
846.20 220.3983
846.30 217.9256
846.40 213.3981
846.50 208.2398
846.60 203.8975
846.70 201.3503
846.80 201.0809
846.90 203.1036
847.00 206.9214
847.10 211.5503
847.20 215.9727
847.30 219.3662
847.40 221.1573
847.50 221.1571
847.60 219.9931
847.70 218.8082
847.80 218.1441
847.90 217.8218
848.00 217.5881
848.10 217.3896
848.20 217.336
848.30 217.6192
848.40 218.3243
848.50 219.411
848.60 220.8113
848.70 222.2564
848.80 223.3045
848.90 223.6049
849.00 223.0611
849.10 221.7288
849.20 219.7468
849.30 217.5237
849.40 215.6467
849.50 214.4996
849.60 214.0954
849.70 214.3112
849.80 215.0105
849.90 216.0272
850.00 217.1554
850.10 218.2262
850.20 219.0604
850.30 219.5353
850.40 219.798
850.50 220.0333
850.60 220.0579
850.70 219.3344
850.80 217.3999
850.90 214.4172
851.00 211.1225
851.10 208.2458
851.20 206.2458
851.30 205.2296
851.40 204.7393
851.50 203.6576
851.60 200.6919
851.70 194.8137
851.80 185.4827
851.90 173.1377
852.00 159.3758
852.10 146.5645
852.20 137.143
852.30 132.906
852.40 134.5189
852.50 141.4741
852.60 152.4056
852.70 165.458
852.80 178.751
852.90 190.9509
853.00 201.4289
853.10 210.1056
853.20 217.1443
853.30 222.781
853.40 227.3554
853.50 231.178
853.60 234.3708
853.70 236.8112
853.80 238.3636
853.90 239.1127
854.00 239.4481
854.10 239.8403
854.20 240.5637
854.30 241.6404
854.40 242.9624
854.50 244.3707
854.60 245.7884
854.70 247.1687
854.80 248.3051
854.90 248.9131
855.00 248.988
855.10 248.815
855.20 248.6547
855.30 248.6962
855.40 248.9456
855.50 249.2685
855.60 249.5998
855.70 250.0075
855.80 250.5586
855.90 251.3078
856.00 252.273
856.10 253.3937
856.20 254.7176
856.30 256.2848
856.40 257.7082
856.50 258.3464
856.60 257.9429
856.70 256.7131
856.80 255.0547
856.90 253.463
857.00 252.4388
857.10 252.2981
857.20 253.0577
857.30 254.5283
857.40 256.4218
857.50 258.3715
857.60 259.9062
857.70 260.6206
857.80 260.5113
857.90 259.9786
858.00 259.5645
858.10 259.5951
858.20 260.1011
858.30 261.0189
858.40 262.3058
858.50 263.9929
858.60 265.9659
858.70 267.8891
858.80 269.4993
858.90 270.6973
859.00 271.3697
859.10 271.5408
859.20 271.4736
859.30 271.3732
859.40 271.1298
859.50 270.6727
859.60 270.228
859.70 269.9841
859.80 269.9793
859.90 270.1386
860.00 270.4038
860.10 270.8169
860.20 271.3703
860.30 271.7607
860.40 271.5386
860.50 270.2344
860.60 267.3693
860.70 262.6942
860.80 256.2807
860.90 248.2892
861.00 238.954
861.10 228.6983
861.20 218.0272
861.30 207.2358
861.40 196.4727
861.50 186.0824
861.60 176.4797
861.70 167.942
861.80 160.6077
861.90 154.4929
862.00 149.4767
862.10 145.4805
862.20 142.5882
862.30 140.9529
862.40 140.6111
862.50 141.355
862.60 142.6535
862.70 144.0355
862.80 145.1083
862.90 145.1658
863.00 143.3535
863.10 139.4365
863.20 134.1577
863.30 128.6975
863.40 124.2203
863.50 121.613
863.60 121.2656
863.70 122.9835
863.80 126.1485
863.90 129.952
864.00 133.6548
864.10 136.7037
864.20 138.7941
864.30 140.0721
864.40 141.1709
864.50 142.6985
864.60 144.7565
864.70 147.0551
864.80 149.181
864.90 150.7167
865.00 151.5147
865.10 151.8638
865.20 152.249
865.30 153.1948
865.40 155.2244
865.50 158.6952
865.60 163.8109
865.70 170.1285
865.80 176.4282
865.90 181.5256
866.00 184.9316
866.10 186.9433
866.20 188.2075
866.30 189.2737
866.40 190.2847
866.50 191.1276
866.60 191.6715
866.70 191.7052
866.80 190.967
866.90 189.2836
867.00 186.7812
867.10 184.2093
867.20 182.6806
867.30 183.0061
867.40 185.1962
867.50 188.4866
867.60 191.7746
867.70 194.0029
867.80 194.4856
867.90 193.0089
868.00 189.7444
868.10 185.2675
868.20 180.6132
868.30 177.0865
868.40 175.7134
868.50 176.8222
868.60 180.0331
868.70 184.4375
868.80 188.7017
868.90 191.3441
869.00 191.1457
869.10 187.6035
869.20 181.1086
869.30 172.6535
869.40 163.6392
869.50 155.6724
869.60 150.0065
869.70 147.2002
869.80 147.1858
869.90 149.3791
870.00 152.8582
870.10 156.5298
870.20 159.4517
870.30 161.0971
870.40 161.4657
870.50 160.7812
870.60 159.2867
870.70 157.2052
870.80 154.6783
870.90 151.8844
871.00 149.0424
871.10 146.4015
871.20 144.2131
871.30 142.6638
871.40 141.8065
871.50 141.5398
871.60 141.6656
871.70 142.0348
871.80 142.5551
871.90 143.1836
872.00 143.8375
872.10 144.5327
872.20 145.4928
872.30 146.9202
872.40 149.0051
872.50 151.7531
872.60 154.731
872.70 157.4211
872.80 159.5082
872.90 160.8505
873.00 161.5021
873.10 161.5872
873.20 161.2419
873.30 160.7241
873.40 160.4919
873.50 160.9279
873.60 162.0878
873.70 163.8422
873.80 165.9869
873.90 168.3362
874.00 170.9017
874.10 173.6749
874.20 176.5093
874.30 179.1506
874.40 181.2601
874.50 182.6204
874.60 183.1923
874.70 182.9833
874.80 182.0561
874.90 180.6468
875.00 179.0382
875.10 177.5778
875.20 176.6252
875.30 176.4055
875.40 177.0517
875.50 178.3736
875.60 179.4864
875.70 179.4869
875.80 178.0034
875.90 174.9784
876.00 170.8753
876.10 166.7426
876.20 163.5629
876.30 161.7373
876.40 160.5127
876.50 158.7062
876.60 155.9792
876.70 152.5488
876.80 149.2595
876.90 147.5981
877.00 149.3755
877.10 155.9145
877.20 167.253
877.30 182.1816
877.40 198.1579
877.50 211.7384
877.60 219.6535
877.70 220.3067
877.80 215.2075
877.90 207.3294
878.00 198.8922
878.10 191.5794
878.20 186.1395
878.30 182.4601
878.40 180.2421
878.50 179.0301
878.60 178.4922
878.70 178.6287
878.80 179.3293
878.90 180.307
879.00 181.7893
879.10 184.0296
879.20 187.0074
879.30 190.6866
879.40 194.9555
879.50 199.5386
879.60 203.9711
879.70 207.6597
879.80 209.9227
879.90 210.1697
880.00 207.9867
880.10 203.2147
880.20 196.5689
880.30 189.567
880.40 183.4465
880.50 178.9521
880.60 176.2986
880.70 175.3699
880.80 176.1586
880.90 178.656
881.00 182.9658
881.10 189.2581
881.20 197.4807
881.30 207.2415
881.40 217.7995
881.50 228.1947
881.60 237.3301
881.70 244.1118
881.80 247.9093
881.90 248.625
882.00 246.5098
882.10 242.2322
882.20 236.2654
882.30 228.3729
882.40 217.9002
882.50 204.9125
882.60 190.3739
882.70 175.8873
882.80 163.6765
882.90 155.767
883.00 153.4265
883.10 157.0777
883.20 165.9187
883.30 178.0016
883.40 190.9287
883.50 202.1051
883.60 209.9698
883.70 214.8996
883.80 218.4085
883.90 221.5417
884.00 224.6633
884.10 227.6582
884.20 229.8881
884.30 230.7185
884.40 229.5077
884.50 225.5193
884.60 218.7672
884.70 210.6934
884.80 203.2257
884.90 198.0754
885.00 196.3293
885.10 198.2004
885.20 203.1476
885.30 210.0751
885.40 217.5539
885.50 224.1414
885.60 228.6964
885.70 230.5689
885.80 230.1206
885.90 228.8916
886.00 228.5141
886.10 229.5925
886.20 231.9177
886.30 235.0103
886.40 238.1623
886.50 240.3055
886.60 240.3908
886.70 237.9033
886.80 233.0553
886.90 226.5087
887.00 219.0882
887.10 212.0195
887.20 206.761
887.30 204.4654
887.40 205.9835
887.50 211.8301
887.60 221.7997
887.70 234.7537
887.80 249.0721
887.90 262.8902
888.00 274.5162
888.10 282.7498
888.20 286.68
888.30 286.2222
888.40 282.4773
888.50 277.1481
888.60 271.9658
888.70 268.3992
888.80 267.0153
888.90 267.4922
889.00 269.0748
889.10 270.6676
889.20 270.7168
889.30 268.0701
889.40 262.4814
889.50 254.4593
889.60 245.5579
889.70 237.904
889.80 233.0273
889.90 231.2333
890.00 231.8055
890.10 233.4963
890.20 235.4139
890.30 237.0413
890.40 237.8518
890.50 237.5898
890.60 236.5105
890.70 235.1764
890.80 234.2765
890.90 234.486
891.00 236.0742
891.10 238.9261
891.20 242.8621
891.30 247.7539
891.40 253.6042
891.50 260.3592
891.60 267.3329
891.70 272.596
891.80 274.4784
891.90 272.804
892.00 268.0716
892.10 261.0876
892.20 252.84
892.30 244.5519
892.40 237.5416
892.50 232.8111
892.60 230.9337
892.70 232.2492
892.80 236.5972
892.90 243.257
893.00 251.3197
893.10 260.4557
893.20 269.9795
893.30 277.9929
893.40 282.6504
893.50 282.9568
893.60 278.675
893.70 269.8218
893.80 256.8345
893.90 240.8725
894.00 223.6708
894.10 206.9464
894.20 192.1212
894.30 180.4387
894.40 172.9224
894.50 170.1971
894.60 172.3185
894.70 178.8368
894.80 188.7357
894.90 200.4851
895.00 212.4931
895.10 223.6229
895.20 233.5194
895.30 242.5869
895.40 250.9871
895.50 258.6614
895.60 265.7114
895.70 272.0863
895.80 277.7118
895.90 282.1667
896.00 284.7496
896.10 284.9522
896.20 282.694
896.30 278.2845
896.40 272.2561
896.50 265.3956
896.60 258.7004
896.70 252.9051
896.80 248.8401
896.90 247.4555
897.00 249.3547
897.10 254.4423
897.20 261.5518
897.30 269.2383
897.40 276.3693
897.50 282.0253
897.60 285.6774
897.70 287.2343
897.80 286.8868
897.90 285.2416
898.00 283.2352
898.10 281.9563
898.20 282.5621
898.30 285.8913
898.40 292.0368
898.50 300.2435
898.60 309.1576
898.70 316.6159
898.80 320.6337
898.90 320.6826
899.00 317.1157
899.10 310.777
899.20 303.0949
899.30 295.4382
899.40 288.5722
899.50 282.8917
899.60 278.7156
899.70 276.1691
899.80 275.1501
899.90 275.8251
900.00 276.3782
900.10 276.9312
900.20 277.4843
900.30 278.0373
900.40 278.5904
900.50 279.1434
900.60 279.6965
900.70 280.2495
900.80 280.8026
900.90 281.3556
901.00 281.9087
901.10 282.4617
901.20 283.0148
901.30 283.5678
901.40 284.1209
901.50 284.6739
901.60 285.227
901.70 285.78
901.80 286.3331
901.90 286.8861
902.00 287.4392
902.10 287.9922
902.20 288.5453
902.30 289.0983
902.40 289.6514
902.50 290.2044
902.60 290.9219
902.70 292.258
902.80 293.594
902.90 294.9301
903.00 296.2661
903.10 297.6022
903.20 298.9383
903.30 300.214
903.40 301.3993
903.50 302.5847
903.60 303.77
903.70 304.9553
903.80 306.1407
903.90 307.326
904.00 308.5113
904.10 309.6966
904.20 310.882
904.30 312.0673
904.40 313.2526
904.50 314.4379
904.60 315.6233
904.70 316.8086
904.80 317.9939
904.90 319.1793
905.00 320.3646
905.10 321.5499
905.20 322.7352
905.30 323.9206
905.40 325.1059
905.50 326.2912
905.60 327.4765
905.70 328.6619
905.80 329.8472
905.90 331.0325
906.00 332.2178
906.10 333.1478
906.20 334.0643
906.30 334.9808
906.40 335.8973
906.50 336.8138
906.60 337.7303
906.70 338.5849
906.80 338.8825
906.90 339.1801
907.00 339.4777
907.10 339.7753
907.20 340.0729
907.30 340.3705
907.40 340.6681
907.50 340.9657
907.60 341.2633
907.70 341.5609
907.80 341.8585
907.90 342.1561
908.00 342.4537
908.10 342.7514
908.20 343.049
908.30 343.3466
908.40 343.6442
908.50 343.9418
908.60 344.2394
908.70 344.537
908.80 344.8346
908.90 345.1322
909.00 345.4298
909.10 345.7274
909.20 346.025
909.30 346.3226
909.40 346.6202
909.50 346.8859
909.60 347.1209
909.70 347.356
909.80 347.591
909.90 347.826
910.00 348.0611
910.10 348.2961
910.20 348.847
910.30 349.5914
910.40 350.3359
910.50 351.0803
910.60 351.8248
910.70 352.5692
910.80 353.3137
910.90 354.0581
911.00 354.8026
911.10 355.547
911.20 356.2915
911.30 357.0359
911.40 357.7803
911.50 358.5248
911.60 359.2692
911.70 360.0137
911.80 360.7581
911.90 361.5026
912.00 362.247
912.10 362.9915
912.20 363.7359
912.30 364.4804
912.40 365.2248
912.50 365.9693
912.60 366.7137
912.70 367.4582
912.80 368.2026
912.90 368.9471
913.00 369.4568
913.10 369.9344
913.20 370.4121
913.30 370.8898
913.40 371.3675
913.50 371.8452
913.60 372.3228
913.70 372.7579
913.80 373.1913
913.90 373.6246
914.00 374.0579
914.10 374.4913
914.20 374.9246
914.30 375.3579
914.40 375.7912
914.50 376.2246
914.60 376.6579
914.70 377.0912
914.80 377.5245
914.90 377.9579
915.00 378.3912
915.10 378.8245
915.20 379.2579
915.30 379.6912
915.40 380.1245
915.50 380.5578
915.60 380.9912
915.70 381.4245
915.80 381.8578
915.90 382.2911
916.00 382.7245
916.10 383.1578
916.20 383.5911
916.30 384.0244
916.40 384.4691
916.50 385.0434
916.60 385.6177
916.70 386.192
916.80 386.7663
916.90 387.3406
917.00 387.915
917.10 388.4528
917.20 388.7234
917.30 388.9939
917.40 389.2645
917.50 389.535
917.60 389.8056
917.70 390.0761
917.80 390.3467
917.90 390.6172
918.00 390.8878
918.10 391.1583
918.20 391.4289
918.30 391.6994
918.40 391.97
918.50 392.2405
918.60 392.5111
918.70 392.7816
918.80 393.0522
918.90 393.3227
919.00 393.5933
919.10 393.8638
919.20 394.1344
919.30 394.4049
919.40 394.6755
919.50 394.946
919.60 395.2166
919.70 395.4871
919.80 395.7577
919.90 396.0053
920.00 396.0463
920.10 396.0874
920.20 396.1285
920.30 396.1695
920.40 396.2106
920.50 396.2516
920.60 396.3034
920.70 396.4415
920.80 396.5795
920.90 396.7176
921.00 396.8557
921.10 396.9938
921.20 397.1319
921.30 397.27
921.40 397.408
921.50 397.5461
921.60 397.6842
921.70 397.8223
921.80 397.9604
921.90 398.0984
922.00 398.2365
922.10 398.3746
922.20 398.5127
922.30 398.6508
922.40 398.7889
922.50 398.9269
922.60 399.065
922.70 399.2031
922.80 399.3412
922.90 399.4793
923.00 399.6173
923.10 399.7554
923.20 399.8935
923.30 400.0316
923.40 400.1697
923.50 400.7753
923.60 401.4108
923.70 402.0463
923.80 402.6817
923.90 403.3172
924.00 403.9527
924.10 404.5882
924.20 405.1249
924.30 405.6531
924.40 406.1813
924.50 406.7095
924.60 407.2377
924.70 407.7659
924.80 408.2941
924.90 408.8223
925.00 409.3505
925.10 409.8786
925.20 410.4068
925.30 410.935
925.40 411.4632
925.50 411.9914
925.60 412.5196
925.70 413.0478
925.80 413.576
925.90 414.1041
926.00 414.6323
926.10 415.1605
926.20 415.6887
926.30 416.2169
926.40 416.7451
926.50 417.2733
926.60 417.8015
926.70 418.3296
926.80 418.8578
926.90 419.386
927.00 419.6992
927.10 419.8749
927.20 420.0506
927.30 420.2262
927.40 420.4019
927.50 420.5776
927.60 420.7533
927.70 421.1708
927.80 421.7862
927.90 422.4016
928.00 423.017
928.10 423.6324
928.20 424.2478
928.30 424.8632
928.40 425.4786
928.50 426.094
928.60 426.7094
928.70 427.3248
928.80 427.9403
928.90 428.5557
929.00 429.1711
929.10 429.7865
929.20 430.4019
929.30 431.0173
929.40 431.6327
929.50 432.2481
929.60 432.8635
929.70 433.4789
929.80 434.0943
929.90 434.7097
930.00 435.3251
930.10 435.9405
930.20 436.5559
930.30 437.1713
930.40 437.7867
930.50 438.3906
930.60 438.9015
930.70 439.4124
930.80 439.9232
930.90 440.4341
931.00 440.945
931.10 441.4559
931.20 441.9618
931.30 442.2224
931.40 442.483
931.50 442.7436
931.60 443.0042
931.70 443.2648
931.80 443.5254
931.90 443.786
932.00 444.0466
932.10 444.3072
932.20 444.5678
932.30 444.8284
932.40 445.089
932.50 445.3496
932.60 445.6102
932.70 445.8708
932.80 446.1314
932.90 446.392
933.00 446.6526
933.10 446.9132
933.20 447.1738
933.30 447.4344
933.40 447.695
933.50 447.9556
933.60 448.2162
933.70 448.4768
933.80 448.7374
933.90 448.998
934.00 449.2586
934.10 449.6447
934.20 450.1905
934.30 450.7363
934.40 451.2821
934.50 451.8279
934.60 452.3737
934.70 452.9195
934.80 453.4787
934.90 454.0677
935.00 454.6566
935.10 455.2455
935.20 455.8345
935.30 456.4234
935.40 457.0124
935.50 457.6013
935.60 458.1903
935.70 458.7792
935.80 459.3682
935.90 459.9571
936.00 460.546
936.10 461.135
936.20 461.7239
936.30 462.3129
936.40 462.9018
936.50 463.4908
936.60 464.0797
936.70 464.6687
936.80 465.2576
936.90 465.8465
937.00 466.4355
937.10 467.0244
937.20 467.6134
937.30 468.2023
937.40 468.7913
937.50 469.3802
937.60 469.9692
937.70 470.4938
937.80 470.9755
937.90 471.4572
938.00 471.939
938.10 472.4207
938.20 472.9024
938.30 473.3841
938.40 473.8977
938.50 474.4535
938.60 475.0094
938.70 475.5652
938.80 476.121
938.90 476.6768
939.00 477.2326
939.10 477.7885
939.20 478.3443
939.30 478.9001
939.40 479.4559
939.50 480.0117
939.60 480.5676
939.70 481.1234
939.80 481.6792
939.90 482.235
940.00 482.7908
940.10 483.3467
940.20 483.9025
940.30 484.4583
940.40 485.0141
940.50 485.5699
940.60 486.1258
940.70 486.6816
940.80 487.2374
940.90 487.7932
941.00 488.349
941.10 488.9049
941.20 489.4607
941.30 490.1504
941.40 490.9331
941.50 491.7158
941.60 492.4985
941.70 493.2812
941.80 494.064
941.90 494.8467
942.00 495.6119
942.10 496.3499
942.20 497.0878
942.30 497.8258
942.40 498.5637
942.50 499.3017
942.60 500.0396
942.70 500.7776
942.80 501.5155
942.90 502.2535
943.00 502.9914
943.10 503.7294
943.20 504.4673
943.30 505.2053
943.40 505.9432
943.50 506.6812
943.60 507.4191
943.70 508.157
943.80 508.895
943.90 509.6329
944.00 510.3709
944.10 511.1088
944.20 511.8468
944.30 512.5847
944.40 513.3227
944.50 514.0606
944.60 514.7986
944.70 515.5365
944.80 516.2745
944.90 516.962
945.00 517.5772
945.10 518.1923
945.20 518.8074
945.30 519.4225
945.40 520.0376
945.50 520.6527
945.60 521.2096
945.70 521.5013
945.80 521.793
945.90 522.0847
946.00 522.3765
946.10 522.6682
946.20 522.9599
946.30 523.2517
946.40 523.5434
946.50 523.8351
946.60 524.1268
946.70 524.4186
946.80 524.7103
946.90 525.002
947.00 525.2938
947.10 525.5855
947.20 525.8772
947.30 526.1689
947.40 526.4607
947.50 526.7524
947.60 527.0441
947.70 527.3359
947.80 527.6276
947.90 527.9193
948.00 528.211
948.10 528.5028
948.20 528.7945
948.30 529.0862
948.40 529.378
948.50 529.6405
948.60 529.5158
948.70 529.3912
948.80 529.2665
948.90 529.1418
949.00 529.0171
949.10 528.8924
949.20 528.7677
949.30 528.7086
949.40 528.665
949.50 528.6213
949.60 528.5777
949.70 528.534
949.80 528.4904
949.90 528.4467
950.00 528.4031
950.10 528.3594
950.20 528.3158
950.30 528.2721
950.40 528.2285
950.50 528.1848
950.60 528.1411
950.70 528.0975
950.80 528.0538
950.90 528.0102
951.00 527.9665
951.10 527.9229
951.20 527.8792
951.30 527.8356
951.40 527.7919
951.50 527.7483
951.60 527.7046
951.70 527.661
951.80 527.6173
951.90 527.5737
952.00 527.53
952.10 527.4864
952.20 527.6213
952.30 527.8966
952.40 528.172
952.50 528.4473
952.60 528.7226
952.70 528.9979
952.80 529.2732
952.90 529.5671
953.00 529.9111
953.10 530.2552
953.20 530.5992
953.30 530.9432
953.40 531.2872
953.50 531.6313
953.60 531.9753
953.70 532.3193
953.80 532.6633
953.90 533.0074
954.00 533.3514
954.10 533.6954
954.20 534.0394
954.30 534.3835
954.40 534.7275
954.50 535.0715
954.60 535.4155
954.70 535.7596
954.80 536.1036
954.90 536.4476
955.00 536.7916
955.10 537.1357
955.20 537.4797
955.30 537.8237
955.40 538.1678
955.50 538.5118
955.60 538.8558
955.70 539.1998
955.80 539.5439
955.90 539.6995
956.00 539.8342
956.10 539.9689
956.20 540.1036
956.30 540.2383
956.40 540.373
956.50 540.5077
956.60 540.6761
956.70 540.8698
956.80 541.0636
956.90 541.2573
957.00 541.4511
957.10 541.6448
957.20 541.8386
957.30 542.0323
957.40 542.2261
957.50 542.4198
957.60 542.6135
957.70 542.8073
957.80 543.001
957.90 543.1948
958.00 543.3885
958.10 543.5823
958.20 543.776
958.30 543.9698
958.40 544.1635
958.50 544.3573
958.60 544.551
958.70 544.7447
958.80 544.9385
958.90 545.1322
959.00 545.326
959.10 545.5197
959.20 545.7135
959.30 545.9072
959.40 546.101
959.50 546.2926
959.60 546.4561
959.70 546.6197
959.80 546.7832
959.90 546.9467
960.00 547.1103
960.10 547.2738
960.20 547.4373
960.30 547.7465
960.40 548.1151
960.50 548.4838
960.60 548.8524
960.70 549.2211
960.80 549.5897
960.90 549.9584
961.00 550.327
961.10 550.6957
961.20 551.0643
961.30 551.433
961.40 551.8016
961.50 552.1702
961.60 552.5389
961.70 552.9075
961.80 553.2762
961.90 553.6448
962.00 554.0135
962.10 554.3821
962.20 554.7508
962.30 555.1194
962.40 555.4881
962.50 555.8567
962.60 556.2254
962.70 556.594
962.80 556.9627
962.90 557.3313
963.00 557.6999
963.10 558.0686
963.20 558.4681
963.30 559.1798
963.40 559.8915
963.50 560.6032
963.60 561.3149
963.70 562.0266
963.80 562.7383
963.90 563.45
964.00 564.0111
964.10 564.5077
964.20 565.0043
964.30 565.5009
964.40 565.9975
964.50 566.4941
964.60 566.9907
964.70 567.4873
964.80 567.9838
964.90 568.4804
965.00 568.977
965.10 569.4736
965.20 569.9702
965.30 570.4668
965.40 570.9634
965.50 571.46
965.60 571.9566
965.70 572.4532
965.80 572.9497
965.90 573.4463
966.00 573.9429
966.10 574.4395
966.20 574.9361
966.30 575.4327
966.40 575.9293
966.50 576.4259
966.60 576.9225
966.70 577.419
966.80 577.9156
966.90 578.4122
967.00 578.854
967.10 579.2929
967.20 579.7318
967.30 580.1707
967.40 580.6096
967.50 581.0485
967.60 581.4874
967.70 581.9888
967.80 582.5455
967.90 583.1022
968.00 583.6589
968.10 584.2156
968.20 584.7724
968.30 585.3291
968.40 585.8858
968.50 586.4425
968.60 586.9992
968.70 587.556
968.80 588.1127
968.90 588.6694
969.00 589.2261
969.10 589.7828
969.20 590.3396
969.30 590.8963
969.40 591.453
969.50 592.0097
969.60 592.5665
969.70 593.1232
969.80 593.6799
969.90 594.2366
970.00 594.7933
970.10 595.3501
970.20 595.9068
970.30 596.4635
970.40 597.0202
970.50 597.5769
970.60 598.1337
970.70 599.0559
970.80 600.1748
970.90 601.2938
971.00 602.4128
971.10 603.5318
971.20 604.6507
971.30 605.7697
971.40 606.8685
971.50 607.8864
971.60 608.9043
971.70 609.9222
971.80 610.9402
971.90 611.9581
972.00 612.976
972.10 613.9939
972.20 615.0119
972.30 616.0298
972.40 617.0477
972.50 618.0657
972.60 619.0836
972.70 620.1015
972.80 621.1194
972.90 622.1374
973.00 623.1553
973.10 624.1732
973.20 625.1911
973.30 626.2091
973.40 627.227
973.50 628.2449
973.60 629.2628
973.70 630.2808
973.80 631.2987
973.90 632.3166
974.00 633.3345
974.10 634.3525
974.20 635.3704
974.30 636.3883
974.40 637.1861
974.50 637.1558
974.60 637.1256
974.70 637.0953
974.80 637.065
974.90 637.0347
975.00 637.0044
975.10 636.9742
975.20 636.8611
975.30 636.7159
975.40 636.5706
975.50 636.4254
975.60 636.2801
975.70 636.1349
975.80 635.9897
975.90 635.8444
976.00 635.6992
976.10 635.5539
976.20 635.4087
976.30 635.2635
976.40 635.1182
976.50 634.973
976.60 634.8277
976.70 634.6825
976.80 634.5372
976.90 634.392
977.00 634.2468
977.10 634.1015
977.20 633.9563
977.30 633.811
977.40 633.6658
977.50 633.5206
977.60 633.3753
977.70 633.2301
977.80 633.0848
977.90 632.9396
978.00 632.7943
978.10 632.6491
978.20 632.5323
978.30 632.4336
978.40 632.3349
978.50 632.2362
978.60 632.1374
978.70 632.0387
978.80 631.94
978.90 631.8214
979.00 631.5231
979.10 631.2249
979.20 630.9266
979.30 630.6284
979.40 630.3301
979.50 630.0319
979.60 629.7336
979.70 629.4354
979.80 629.1371
979.90 628.8389
980.00 628.5406
980.10 628.2424
980.20 627.9441
980.30 627.6459
980.40 627.3476
980.50 627.0494
980.60 626.7511
980.70 626.4529
980.80 626.1546
980.90 625.8564
981.00 625.5581
981.10 625.2599
981.20 624.9616
981.30 624.6634
981.40 624.3651
981.50 624.0669
981.60 623.7686
981.70 623.4704
981.80 623.1721
981.90 622.8739
982.00 622.3939
982.10 621.8844
982.20 621.3749
982.30 620.8653
982.40 620.3558
982.50 619.8463
982.60 619.3367
982.70 618.7555
982.80 618.0219
982.90 617.2883
983.00 616.5547
983.10 615.8212
983.20 615.0876
983.30 614.354
983.40 613.6204
983.50 612.8868
983.60 612.1532
983.70 611.4196
983.80 610.6861
983.90 609.9525
984.00 609.2189
984.10 608.4853
984.20 607.7517
984.30 607.0181
984.40 606.2846
984.50 605.551
984.60 604.8174
984.70 604.0838
984.80 603.3502
984.90 602.6166
985.00 601.8831
985.10 601.1495
985.20 600.4159
985.30 599.6823
985.40 598.9487
985.50 598.2151
985.60 597.4815
985.70 596.748
985.80 595.3575
985.90 593.9467
986.00 592.536
986.10 591.1252
986.20 589.7144
986.30 588.3037
986.40 586.8929
986.50 585.5478
986.60 584.3013
986.70 583.0548
986.80 581.8082
986.90 580.5617
987.00 579.3152
987.10 578.0686
987.20 576.8221
987.30 575.5756
987.40 574.329
987.50 573.0825
987.60 571.836
987.70 570.5894
987.80 569.3429
987.90 568.0964
988.00 566.8498
988.10 565.6033
988.20 564.3568
988.30 563.1103
988.40 561.8637
988.50 560.6172
988.60 559.3707
988.70 558.1241
988.80 556.8776
988.90 555.6311
989.00 554.3845
989.10 553.138
989.20 551.8915
989.30 550.6449
989.40 549.3984
989.50 548.1519
989.60 547.0856
989.70 546.0328
989.80 544.9801
989.90 543.9274
990.00 542.8746
990.10 541.8219
990.20 540.7692
990.30 539.6631
990.40 538.4488
990.50 537.2344
990.60 536.0201
990.70 534.8058
990.80 533.5914
990.90 532.3771
991.00 531.1627
991.10 529.9484
991.20 528.7341
991.30 527.5197
991.40 526.3054
991.50 525.0911
991.60 523.8767
991.70 522.6624
991.80 521.448
991.90 520.2337
992.00 519.0194
992.10 517.805
992.20 516.5907
992.30 515.3764
992.40 514.162
992.50 512.9477
992.60 511.7333
992.70 510.519
992.80 509.3047
992.90 508.0903
993.00 506.876
993.10 505.6617
993.20 504.4473
993.30 503.233
993.40 502.1825
993.50 501.1865
993.60 500.1906
993.70 499.1947
993.80 498.1988
993.90 497.2028
994.00 496.2069
994.10 495.2458
994.20 494.5401
994.30 493.8344
994.40 493.1287
994.50 492.423
994.60 491.7173
994.70 491.0115
994.80 490.3058
994.90 489.6001
995.00 488.8944
995.10 488.1887
995.20 487.483
995.30 486.7773
995.40 486.0716
995.50 485.3659
995.60 484.6602
995.70 483.9544
995.80 483.2487
995.90 482.543
996.00 481.8373
996.10 481.1316
996.20 480.4259
996.30 479.7202
996.40 479.0145
996.50 478.3088
996.60 477.6031
996.70 476.8973
996.80 476.1916
996.90 475.4859
997.00 474.7802
997.10 474.0745
997.20 473.8014
997.30 474.1258
997.40 474.4501
997.50 474.7745
997.60 475.0988
997.70 475.4232
997.80 475.7475
997.90 476.0719
998.00 476.43
998.10 476.7982
998.20 477.1664
998.30 477.5347
998.40 477.9029
998.50 478.2711
998.60 478.6393
998.70 479.0075
998.80 479.3757
998.90 479.7439
999.00 480.1121
999.10 480.4804
999.20 480.8486
999.30 481.2168
999.40 481.585
999.50 481.9532
999.60 482.3214
999.70 482.6896
999.80 483.0578
999.90 483.426
1000.00 483.7943
1000.10 484.1625
1000.20 484.5307
1000.30 484.8989
1000.40 485.2671
1000.50 485.6353
1000.60 486.0035
1000.70 486.3717
1000.80 486.74
1000.90 487.1082
1001.00 487.4764
1001.10 487.7455
1001.20 488.0145
1001.30 488.2836
1001.40 488.5527
1001.50 488.8218
1001.60 489.0908
1001.70 489.3599
1001.80 489.7395
1001.90 490.377
1002.00 491.0145
1002.10 491.652
1002.20 492.2895
1002.30 492.927
1002.40 493.5645
1002.50 494.202
1002.60 494.8395
1002.70 495.477
1002.80 496.1145
1002.90 496.7521
1003.00 497.3896
1003.10 498.0271
1003.20 498.6646
1003.30 499.3021
1003.40 499.9396
1003.50 500.5771
1003.60 501.2146
1003.70 501.8521
1003.80 502.4896
1003.90 503.1271
1004.00 503.7646
1004.10 504.4021
1004.20 505.0396
1004.30 505.6771
1004.40 506.3146
1004.50 506.9521
1004.60 507.5896
1004.70 508.2271
1004.80 508.8646
1004.90 509.5629
1005.00 510.3522
1005.10 511.1415
1005.20 511.9307
1005.30 512.72
1005.40 513.5093
1005.50 514.2986
1005.60 515.0879
1005.70 515.8217
1005.80 516.5318
1005.90 517.2418
1006.00 517.9518
1006.10 518.6619
1006.20 519.3719
1006.30 520.0819
1006.40 520.792
1006.50 521.502
1006.60 522.2121
1006.70 522.9221
1006.80 523.6321
1006.90 524.3422
1007.00 525.0522
1007.10 525.7622
1007.20 526.4723
1007.30 527.1823
1007.40 527.8923
1007.50 528.6024
1007.60 529.3124
1007.70 530.0224
1007.80 530.7325
1007.90 531.4425
1008.00 532.1525
1008.10 532.8626
1008.20 533.5726
1008.30 534.2826
1008.40 534.9927
1008.50 535.7027
1008.60 536.4128
1008.70 537.1228
1008.80 537.8032
1008.90 538.4638
1009.00 539.1244
1009.10 539.7851
1009.20 540.4457
1009.30 541.1063
1009.40 541.7669
1009.50 542.4275
1009.60 543.0614
1009.70 543.6923
1009.80 544.3231
1009.90 544.954
1010.00 545.5849
1010.10 546.2157
1010.20 546.8466
1010.30 547.4775
1010.40 548.1083
1010.50 548.7392
1010.60 549.3701
1010.70 550.0009
1010.80 550.6318
1010.90 551.2627
1011.00 551.8935
1011.10 552.5244
1011.20 553.1553
1011.30 553.7861
1011.40 554.417
1011.50 555.0479
1011.60 555.6787
1011.70 556.3096
1011.80 556.9405
1011.90 557.5713
1012.00 558.2022
1012.10 558.8331
1012.20 559.464
1012.30 560.0948
1012.40 560.7257
1012.50 561.3566
1012.60 561.9874
1012.70 562.4442
1012.80 562.8574
1012.90 563.2706
1013.00 563.6838
1013.10 564.097
1013.20 564.5102
1013.30 564.9234
1013.40 565.3366
1013.50 565.4997
1013.60 565.6627
1013.70 565.8258
1013.80 565.9889
1013.90 566.152
1014.00 566.3151
1014.10 566.4782
1014.20 566.6413
1014.30 566.8043
1014.40 566.9674
1014.50 567.1305
1014.60 567.2936
1014.70 567.4567
1014.80 567.6198
1014.90 567.7828
1015.00 567.9459
1015.10 568.109
1015.20 568.2721
1015.30 568.4352
1015.40 568.5983
1015.50 568.7613
1015.60 568.9244
1015.70 569.0875
1015.80 569.2506
1015.90 569.4137
1016.00 569.5768
1016.10 569.7399
1016.20 569.9029
1016.30 570.066
1016.40 570.2291
1016.50 570.3922
1016.60 570.2629
1016.70 570.0606
1016.80 569.8582
1016.90 569.6559
1017.00 569.4535
1017.10 569.2512
1017.20 569.0488
1017.30 568.8465
1017.40 568.9768
1017.50 569.1071
1017.60 569.2374
1017.70 569.3677
1017.80 569.4979
1017.90 569.6282
1018.00 569.7585
1018.10 569.8888
1018.20 570.0191
1018.30 570.1494
1018.40 570.2797
1018.50 570.41
1018.60 570.5403
1018.70 570.6706
1018.80 570.8009
1018.90 570.9312
1019.00 571.0615
1019.10 571.1917
1019.20 571.322
1019.30 571.4523
1019.40 571.5826
1019.50 571.7129
1019.60 571.8432
1019.70 571.9735
1019.80 572.1038
1019.90 572.2341
1020.00 572.3644
1020.10 572.4947
1020.20 572.625
1020.30 572.7553
1020.40 572.8855
1020.50 573.4451
1020.60 574.2908
1020.70 575.1364
1020.80 575.9821
1020.90 576.8278
1021.00 577.6735
1021.10 578.5192
1021.20 579.3648
1021.30 580.1721
1021.40 580.9698
1021.50 581.7674
1021.60 582.5651
1021.70 583.3628
1021.80 584.1604
1021.90 584.9581
1022.00 585.7557
1022.10 586.5534
1022.20 587.3511
1022.30 588.1487
1022.40 588.9464
1022.50 589.7441
1022.60 590.5417
1022.70 591.3394
1022.80 592.137
1022.90 592.9347
1023.00 593.7324
1023.10 594.53
1023.20 595.3277
1023.30 596.1254
1023.40 596.923
1023.50 597.7207
1023.60 598.5183
1023.70 599.316
1023.80 600.1137
1023.90 600.9113
1024.00 601.709
1024.10 602.5067
1024.20 603.3043
1024.30 604.102
1024.40 604.6826
1024.50 604.9375
1024.60 605.1925
1024.70 605.4475
1024.80 605.7025
1024.90 605.9574
1025.00 606.2124
1025.10 606.4674
1025.20 606.7213
1025.30 606.9742
1025.40 607.227
1025.50 607.4799
1025.60 607.7327
1025.70 607.9856
1025.80 608.2385
1025.90 608.4913
1026.00 608.7442
1026.10 608.997
1026.20 609.2499
1026.30 609.5028
1026.40 609.7556
1026.50 610.0085
1026.60 610.2613
1026.70 610.5142
1026.80 610.7671
1026.90 611.0199
1027.00 611.2728
1027.10 611.5256
1027.20 611.7785
1027.30 612.0314
1027.40 612.2842
1027.50 612.5371
1027.60 612.7899
1027.70 613.0428
1027.80 613.2957
1027.90 613.5485
1028.00 613.8014
1028.10 614.0542
1028.20 614.3071
1028.30 614.56
1028.40 615.3724
1028.50 616.1849
1028.60 616.9974
1028.70 617.8098
1028.80 618.6223
1028.90 619.4348
1029.00 620.2472
1029.10 621.0297
1029.20 621.5426
1029.30 622.0555
1029.40 622.5684
1029.50 623.0813
1029.60 623.5942
1029.70 624.1071
1029.80 624.6199
1029.90 625.1328
1030.00 625.6457
1030.10 626.1586
1030.20 626.6715
1030.30 627.1844
1030.40 627.6973
1030.50 628.2102
1030.60 628.723
1030.70 629.2359
1030.80 629.7488
1030.90 630.2617
1031.00 630.7746
1031.10 631.2875
1031.20 631.8004
1031.30 632.3133
1031.40 632.8261
1031.50 633.339
1031.60 633.8519
1031.70 634.3648
1031.80 634.8777
1031.90 635.3906
1032.00 635.9035
1032.10 636.4164
1032.20 636.9292
1032.30 637.2722
1032.40 637.4451
1032.50 637.618
1032.60 637.791
1032.70 637.9639
1032.80 638.1369
1032.90 638.3098
1033.00 638.4828
1033.10 639.0119
1033.20 639.7784
1033.30 640.5449
1033.40 641.3115
1033.50 642.078
1033.60 642.8445
1033.70 643.6111
1033.80 644.3776
1033.90 645.1441
1034.00 645.9107
1034.10 646.6772
1034.20 647.4437
1034.30 648.2103
1034.40 648.9768
1034.50 649.7433
1034.60 650.5099
1034.70 651.2764
1034.80 652.0429
1034.90 652.8095
1035.00 653.576
1035.10 654.3425
1035.20 655.109
1035.30 655.8756
1035.40 656.6421
1035.50 657.4086
1035.60 658.1752
1035.70 658.9417
1035.80 659.7082
1035.90 660.4748
1036.00 661.2413
1036.10 662.0078
1036.20 662.7744
1036.30 663.7627
1036.40 664.8064
1036.50 665.8502
1036.60 666.8939
1036.70 667.9377
1036.80 668.9814
1036.90 670.0251
1037.00 671.0689
1037.10 671.8346
1037.20 672.5695
1037.30 673.3043
1037.40 674.0391
1037.50 674.774
1037.60 675.5088
1037.70 676.2437
1037.80 676.9785
1037.90 677.7133
1038.00 678.4482
1038.10 679.183
1038.20 679.9179
1038.30 680.6527
1038.40 681.3876
1038.50 682.1224
1038.60 682.8572
1038.70 683.5921
1038.80 684.3269
1038.90 685.0618
1039.00 685.7966
1039.10 686.5314
1039.20 687.2663
1039.30 688.0011
1039.40 688.736
1039.50 689.4708
1039.60 690.2056
1039.70 690.9405
1039.80 691.6753
1039.90 692.4102
1040.00 693.145
1040.10 693.8798
1040.20 694.6253
1040.30 695.4667
1040.40 696.3082
1040.50 697.1496
1040.60 697.991
1040.70 698.8324
1040.80 699.6738
1040.90 700.5152
1041.00 701.3148
1041.10 701.9473
1041.20 702.5798
1041.30 703.2123
1041.40 703.8447
1041.50 704.4772
1041.60 705.1097
1041.70 705.7422
1041.80 706.3747
1041.90 707.0072
1042.00 707.6397
1042.10 708.2722
1042.20 708.9047
1042.30 709.5371
1042.40 710.1696
1042.50 710.8021
1042.60 711.4346
1042.70 712.0671
1042.80 712.6996
1042.90 713.3321
1043.00 713.9646
1043.10 714.5971
1043.20 715.2295
1043.30 715.862
1043.40 716.4945
1043.50 717.127
1043.60 717.7595
1043.70 718.392
1043.80 719.0245
1043.90 719.657
1044.00 720.2895
1044.10 720.9219
1044.20 721.4432
1044.30 721.5194
1044.40 721.5956
1044.50 721.6719
1044.60 721.7481
1044.70 721.8243
1044.80 721.9005
1044.90 721.9768
1045.00 722.1448
1045.10 722.5269
1045.20 722.909
1045.30 723.2911
1045.40 723.6732
1045.50 724.0553
1045.60 724.4374
1045.70 724.8195
1045.80 725.2016
1045.90 725.5837
1046.00 725.9658
1046.10 726.3479
1046.20 726.73
1046.30 727.1121
1046.40 727.4942
1046.50 727.8763
1046.60 728.2584
1046.70 728.6405
1046.80 729.0226
1046.90 729.4047
1047.00 729.7868
1047.10 730.1689
1047.20 730.551
1047.30 730.9331
1047.40 731.3152
1047.50 731.6973
1047.60 732.0794
1047.70 732.4615
1047.80 732.8436
1047.90 733.2257
1048.00 733.6078
1048.10 733.9899
1048.20 734.3033
1048.30 734.4564
1048.40 734.6095
1048.50 734.7626
1048.60 734.9157
1048.70 735.0687
1048.80 735.2218
1048.90 735.3749
1049.00 735.4613
1049.10 735.392
1049.20 735.3226
1049.30 735.2533
1049.40 735.1839
1049.50 735.1146
1049.60 735.0453
1049.70 734.9759
1049.80 734.9066
1049.90 734.8372
1050.00 734.7679
1050.10 734.6986
1050.20 734.6292
1050.30 734.5599
1050.40 734.4906
1050.50 734.4212
1050.60 734.3519
1050.70 734.2825
1050.80 734.2132
1050.90 734.1439
1051.00 734.0745
1051.10 734.0052
1051.20 733.9359
1051.30 733.8665
1051.40 733.7972
1051.50 733.7278
1051.60 733.6585
1051.70 733.5892
1051.80 733.5198
1051.90 733.4505
1052.00 733.3811
1052.10 733.3118
1052.20 733.424
1052.30 734.262
1052.40 735.1001
1052.50 735.9381
1052.60 736.7762
1052.70 737.6142
1052.80 738.4523
1052.90 739.2903
1053.00 740.1524
1053.10 741.1108
1053.20 742.0691
1053.30 743.0274
1053.40 743.9858
1053.50 744.9441
1053.60 745.9024
1053.70 746.8608
1053.80 747.8191
1053.90 748.7774
1054.00 749.7358
1054.10 750.6941
1054.20 751.6525
1054.30 752.6108
1054.40 753.5691
1054.50 754.5275
1054.60 755.4858
1054.70 756.4441
1054.80 757.4025
1054.90 758.3608
1055.00 759.3191
1055.10 760.2775
1055.20 761.2358
1055.30 762.1941
1055.40 763.1525
1055.50 764.1108
1055.60 765.0691
1055.70 766.0275
1055.80 766.9858
1055.90 767.9441
1056.00 768.9025
1056.10 769.8608
1056.20 770.8191
1056.30 770.9769
1056.40 771.1347
1056.50 771.2924
1056.60 771.4502
1056.70 771.6079
1056.80 771.7657
1056.90 771.9234
1057.00 772.0812
1057.10 771.9461
1057.20 771.7785
1057.30 771.6108
1057.40 771.4432
1057.50 771.2756
1057.60 771.108
1057.70 770.9403
1057.80 770.7727
1057.90 770.6051
1058.00 770.4374
1058.10 770.2698
1058.20 770.1022
1058.30 769.9345
1058.40 769.7669
1058.50 769.5993
1058.60 769.4317
1058.70 769.264
1058.80 769.0964
1058.90 768.9288
1059.00 768.7611
1059.10 768.5935
1059.20 768.4259
1059.30 768.2583
1059.40 768.0906
1059.50 767.923
1059.60 767.7554
1059.70 767.5877
1059.80 767.4201
1059.90 767.2525
1060.00 767.0848
1060.10 766.9172
1060.20 766.7496
1060.30 766.8141
1060.40 767.0333
1060.50 767.2526
1060.60 767.4718
1060.70 767.691
1060.80 767.9103
1060.90 768.1295
1061.00 768.3488
1061.10 768.8021
1061.20 769.4115
1061.30 770.0209
1061.40 770.6304
1061.50 771.2398
1061.60 771.8492
1061.70 772.4586
1061.80 773.068
1061.90 773.6774
1062.00 774.2868
1062.10 774.8963
1062.20 775.5057
1062.30 776.1151
1062.40 776.7245
1062.50 777.3339
1062.60 777.9433
1062.70 778.5527
1062.80 779.1622
1062.90 779.7716
1063.00 780.381
1063.10 780.9904
1063.20 781.5998
1063.30 782.2092
1063.40 782.8186
1063.50 783.4281
1063.60 784.0375
1063.70 784.6469
1063.80 785.2563
1063.90 785.8657
1064.00 786.4751
1064.10 787.0845
1064.20 787.694
1064.30 788.2855
1064.40 788.8055
1064.50 789.3254
1064.60 789.8454
1064.70 790.3654
1064.80 790.8854
1064.90 791.4054
1065.00 791.9253
1065.10 792.4168
1065.20 792.7944
1065.30 793.1719
1065.40 793.5495
1065.50 793.9271
1065.60 794.3046
1065.70 794.6822
1065.80 795.0597
1065.90 795.4373
1066.00 795.8148
1066.10 796.1924
1066.20 796.57
1066.30 796.9475
1066.40 797.3251
1066.50 797.7026
1066.60 798.0802
1066.70 798.4577
1066.80 798.8353
1066.90 799.2129
1067.00 799.5904
1067.10 799.968
1067.20 800.3455
1067.30 800.7231
1067.40 801.1006
1067.50 801.4782
1067.60 801.8557
1067.70 802.2333
1067.80 802.6109
1067.90 802.9884
1068.00 803.366
1068.10 803.7435
1068.20 804.1211
1068.30 804.4986
1068.40 805.0875
1068.50 805.7669
1068.60 806.4462
1068.70 807.1256
1068.80 807.805
1068.90 808.4844
1069.00 809.1638
1069.10 809.8431
1069.20 810.5486
1069.30 811.2715
1069.40 811.9944
1069.50 812.7172
1069.60 813.4401
1069.70 814.163
1069.80 814.8859
1069.90 815.6087
1070.00 816.3316
1070.10 817.0545
1070.20 817.7774
1070.30 818.5002
1070.40 819.2231
1070.50 819.946
1070.60 820.6689
1070.70 821.3917
1070.80 822.1146
1070.90 822.8375
1071.00 823.5604
1071.10 824.2833
1071.20 825.0061
1071.30 825.729
1071.40 826.4519
1071.50 827.1748
1071.60 827.8976
1071.70 828.6205
1071.80 829.3434
1071.90 830.0663
1072.00 830.7891
1072.10 831.512
1072.20 832.2349
1072.30 832.9578
1072.40 833.6348
1072.50 833.8989
1072.60 834.1631
1072.70 834.4273
1072.80 834.6915
1072.90 834.9557
1073.00 835.2199
1073.10 835.484
1073.20 835.7482
1073.30 836.1343
1073.40 836.5205
1073.50 836.9066
1073.60 837.2927
1073.70 837.6788
1073.80 838.0649
1073.90 838.451
1074.00 838.8372
1074.10 839.2233
1074.20 839.6094
1074.30 839.9955
1074.40 840.3816
1074.50 840.7677
1074.60 841.1538
1074.70 841.54
1074.80 841.9261
1074.90 842.3122
1075.00 842.6983
1075.10 843.0844
1075.20 843.4705
1075.30 843.8567
1075.40 844.2428
1075.50 844.6289
1075.60 845.015
1075.70 845.4011
1075.80 845.7872
1075.90 846.1733
1076.00 846.5595
1076.10 846.9456
1076.20 847.3317
1076.30 847.7178
1076.40 848.1039
1076.50 848.676
1076.60 849.5269
1076.70 850.3778
1076.80 851.2288
1076.90 852.0797
1077.00 852.9306
1077.10 853.7815
1077.20 854.6325
1077.30 855.4641
1077.40 856.2183
1077.50 856.9725
1077.60 857.7268
1077.70 858.481
1077.80 859.2352
1077.90 859.9895
1078.00 860.7437
1078.10 861.4979
1078.20 862.2521
1078.30 863.0064
1078.40 863.7606
1078.50 864.5148
1078.60 865.2691
1078.70 866.0233
1078.80 866.7775
1078.90 867.5318
1079.00 868.286
1079.10 869.0402
1079.20 869.7945
1079.30 870.5487
1079.40 871.3029
1079.50 872.0572
1079.60 872.8114
1079.70 873.5656
1079.80 874.3199
1079.90 875.0741
1080.00 875.8283
1080.10 876.5826
1080.20 877.3368
1080.30 878.091
1080.40 878.8453
1080.50 879.5995
1080.60 880.1751
1080.70 880.572
1080.80 880.9689
1080.90 881.3658
1081.00 881.7627
1081.10 882.1596
1081.20 882.5566
1081.30 882.9535
1081.40 883.2015
1081.50 883.2261
1081.60 883.2507
1081.70 883.2754
1081.80 883.3
1081.90 883.3246
1082.00 883.3493
1082.10 883.3739
1082.20 883.3985
1082.30 883.4232
1082.40 883.4478
1082.50 883.4724
1082.60 883.4971
1082.70 883.5217
1082.80 883.5463
1082.90 883.571
1083.00 883.5956
1083.10 883.6202
1083.20 883.6449
1083.30 883.6695
1083.40 883.6941
1083.50 883.7187
1083.60 883.7434
1083.70 883.768
1083.80 883.7926
1083.90 883.8173
1084.00 883.8419
1084.10 883.8665
1084.20 883.8912
1084.30 883.9158
1084.40 883.9404
1084.50 883.9651
1084.60 883.9897
1084.70 884.1616
1084.80 884.4316
1084.90 884.7016
1085.00 884.9716
1085.10 885.2416
1085.20 885.5116
1085.30 885.7817
1085.40 886.0517
1085.50 886.4761
1085.60 887.1323
1085.70 887.7884
1085.80 888.4445
1085.90 889.1006
1086.00 889.7567
1086.10 890.4129
1086.20 891.069
1086.30 891.7251
1086.40 892.3812
1086.50 893.0374
1086.60 893.6935
1086.70 894.3496
1086.80 895.0057
1086.90 895.6619
1087.00 896.318
1087.10 896.9741
1087.20 897.6302
1087.30 898.2864
1087.40 898.9425
1087.50 899.5986
1087.60 900.2547
1087.70 900.9108
1087.80 901.567
1087.90 902.2231
1088.00 902.8792
1088.10 903.5353
1088.20 904.1915
1088.30 904.8476
1088.40 905.5037
1088.50 906.1598
1088.60 906.816
1088.70 907.4721
1088.80 908.057
1088.90 908.5945
1089.00 909.1321
1089.10 909.6696
1089.20 910.2071
1089.30 910.7446
1089.40 911.2821
1089.50 911.8196
1089.60 912.2355
1089.70 912.4689
1089.80 912.7022
1089.90 912.9356
1090.00 913.169
1090.10 913.4024
1090.20 913.6358
1090.30 913.8692
1090.40 914.1026
1090.50 914.3359
1090.60 914.5693
1090.70 914.8027
1090.80 915.0361
1090.90 915.2695
1091.00 915.5029
1091.10 915.7363
1091.20 915.9696
1091.30 916.203
1091.40 916.4364
1091.50 916.6698
1091.60 916.9032
1091.70 917.1366
1091.80 917.3699
1091.90 917.6033
1092.00 917.8367
1092.10 918.0701
1092.20 918.3035
1092.30 918.5369
1092.40 918.7703
1092.50 919.0036
1092.60 919.237
1092.70 919.4704
1092.80 919.7038
1092.90 919.955
1093.00 920.2239
1093.10 920.4928
1093.20 920.7618
1093.30 921.0307
1093.40 921.2996
1093.50 921.5686
1093.60 921.8375
1093.70 922.108
1093.80 922.3823
1093.90 922.6566
1094.00 922.9309
1094.10 923.2052
1094.20 923.4795
1094.30 923.7538
1094.40 924.0281
1094.50 924.3024
1094.60 924.5767
1094.70 924.851
1094.80 925.1252
1094.90 925.3995
1095.00 925.6738
1095.10 925.9481
1095.20 926.2224
1095.30 926.4967
1095.40 926.771
1095.50 927.0453
1095.60 927.3196
1095.70 927.5939
1095.80 927.8682
1095.90 928.1425
1096.00 928.4168
1096.10 928.6911
1096.20 928.9653
1096.30 929.2396
1096.40 929.5139
1096.50 929.7882
1096.60 930.0625
1096.70 930.3368
1096.80 930.6111
1096.90 930.8854
1097.00 931.0213
1097.10 930.8342
1097.20 930.6471
1097.30 930.46
1097.40 930.2729
1097.50 930.0858
1097.60 929.8987
1097.70 929.7116
1097.80 929.5326
1097.90 929.4266
1098.00 929.3205
1098.10 929.2145
1098.20 929.1084
1098.30 929.0023
1098.40 928.8963
1098.50 928.7902
1098.60 928.6842
1098.70 928.5781
1098.80 928.472
1098.90 928.366
1099.00 928.2599
1099.10 928.1539
1099.20 928.0478
1099.30 927.9417
1099.40 927.8357
1099.50 927.7296
1099.60 927.6236
1099.70 927.5175
1099.80 927.4114
1099.90 927.3054
1100.00 927.1993
1100.10 927.0933
1100.20 926.9872
1100.30 926.8811
1100.40 926.7751
1100.50 926.669
1100.60 926.563
1100.70 926.4569
1100.80 926.3508
1100.90 926.2448
1101.00 926.1387
1101.10 926.0327
1101.20 926.0339
1101.30 926.0352
1101.40 926.0364
1101.50 926.0377
1101.60 926.0389
1101.70 926.0402
1101.80 926.0414
1101.90 926.0427
1102.00 926.0229
1102.10 925.9978
1102.20 925.9726
1102.30 925.9475
1102.40 925.9224
1102.50 925.8973
1102.60 925.8722
1102.70 925.8471
1102.80 925.822
1102.90 925.7968
1103.00 925.7717
1103.10 925.7466
1103.20 925.7215
1103.30 925.6964
1103.40 925.6713
1103.50 925.6462
1103.60 925.6211
1103.70 925.5959
1103.80 925.5708
1103.90 925.5457
1104.00 925.5206
1104.10 925.4955
1104.20 925.4704
1104.30 925.4453
1104.40 925.4201
1104.50 925.395
1104.60 925.3699
1104.70 925.3448
1104.80 925.3197
1104.90 925.2946
1105.00 925.2695
1105.10 925.2444
1105.20 925.2192
1105.30 925.136
1105.40 925.014
1105.50 924.892
1105.60 924.77
1105.70 924.648
1105.80 924.526
1105.90 924.404
1106.00 924.282
1106.10 924.0562
1106.20 923.6745
1106.30 923.2929
1106.40 922.9112
1106.50 922.5296
1106.60 922.1479
1106.70 921.7663
1106.80 921.3846
1106.90 921.003
1107.00 920.6213
1107.10 920.2397
1107.20 919.858
1107.30 919.4764
1107.40 919.0947
1107.50 918.7131
1107.60 918.3314
1107.70 917.9498
1107.80 917.5681
1107.90 917.1865
1108.00 916.8048
1108.10 916.4232
1108.20 916.0415
1108.30 915.6599
1108.40 915.2782
1108.50 914.8966
1108.60 914.515
1108.70 914.1333
1108.80 913.7517
1108.90 913.37
1109.00 912.9884
1109.10 912.6067
1109.20 912.2251
1109.30 911.8434
1109.40 911.51
1109.50 911.3693
1109.60 911.2287
1109.70 911.088
1109.80 910.9474
1109.90 910.8067
1110.00 910.6661
1110.10 910.5254
1110.20 910.3847
1110.30 910.4055
1110.40 910.4442
1110.50 910.4829
1110.60 910.5216
1110.70 910.5602
1110.80 910.5989
1110.90 910.6376
1111.00 910.6763
1111.10 910.715
1111.20 910.7537
1111.30 910.7924
1111.40 910.8311
1111.50 910.8697
1111.60 910.9084
1111.70 910.9471
1111.80 910.9858
1111.90 911.0245
1112.00 911.0632
1112.10 911.1019
1112.20 911.1405
1112.30 911.1792
1112.40 911.2179
1112.50 911.2566
1112.60 911.2953
1112.70 911.334
1112.80 911.3727
1112.90 911.4113
1113.00 911.45
1113.10 911.4887
1113.20 911.5274
1113.30 911.5661
1113.40 911.6048
1113.50 911.6435
1113.60 911.7369
1113.70 911.8668
1113.80 911.9967
1113.90 912.1266
1114.00 912.2565
1114.10 912.3864
1114.20 912.5163
1114.30 912.6462
1114.40 912.8212
1114.50 913.1011
1114.60 913.381
1114.70 913.6609
1114.80 913.9409
1114.90 914.2208
1115.00 914.5007
1115.10 914.7807
1115.20 915.0606
1115.30 915.3405
1115.40 915.6204
1115.50 915.9004
1115.60 916.1803
1115.70 916.4602
1115.80 916.7402
1115.90 917.0201
1116.00 917.3
1116.10 917.58
1116.20 917.8599
1116.30 918.1398
1116.40 918.4197
1116.50 918.6997
1116.60 918.9796
1116.70 919.2595
1116.80 919.5395
1116.90 919.8194
1117.00 920.0993
1117.10 920.3793
1117.20 920.6592
1117.30 920.9391
1117.40 921.219
1117.50 921.499
1117.60 921.7789
1117.70 922.0588
1117.80 922.2889
1117.90 922.519
1118.00 922.7491
1118.10 922.9792
1118.20 923.2093
1118.30 923.4395
1118.40 923.6696
1118.50 923.8997
1118.60 924.1973
1118.70 924.524
1118.80 924.8507
1118.90 925.1773
1119.00 925.504
1119.10 925.8306
1119.20 926.1573
1119.30 926.484
1119.40 926.8106
1119.50 927.1373
1119.60 927.4639
1119.70 927.7906
1119.80 928.1172
1119.90 928.4439
1120.00 928.7706
1120.10 929.0972
1120.20 929.4239
1120.30 929.7505
1120.40 930.0772
1120.50 930.4038
1120.60 930.7305
1120.70 931.0572
1120.80 931.3838
1120.90 931.7105
1121.00 932.0371
1121.10 932.3638
1121.20 932.6905
1121.30 933.0171
1121.40 933.3438
1121.50 933.6704
1121.60 933.9971
1121.70 934.3237
1121.80 934.6504
1121.90 934.8619
1122.00 934.8049
1122.10 934.7478
1122.20 934.6907
1122.30 934.6336
1122.40 934.5765
1122.50 934.5195
1122.60 934.4624
1122.70 934.4053
1122.80 933.9422
1122.90 933.4791
1123.00 933.0159
1123.10 932.5528
1123.20 932.0897
1123.30 931.6266
1123.40 931.1635
1123.50 930.7003
1123.60 930.2372
1123.70 929.7741
1123.80 929.311
1123.90 928.8479
1124.00 928.3847
1124.10 927.9216
1124.20 927.4585
1124.30 926.9954
1124.40 926.5322
1124.50 926.0691
1124.60 925.606
1124.70 925.1429
1124.80 924.6798
1124.90 924.2166
1125.00 923.7535
1125.10 923.2904
1125.20 922.8273
1125.30 922.3641
1125.40 921.901
1125.50 921.4379
1125.60 920.9748
1125.70 920.5117
1125.80 920.0485
1125.90 919.5854
1126.00 919.1223
1126.10 918.6088
1126.20 918.0449
1126.30 917.4811
1126.40 916.9172
1126.50 916.3534
1126.60 915.7895
1126.70 915.2257
1126.80 914.6618
1126.90 914.1653
1127.00 913.9385
1127.10 913.7117
1127.20 913.4848
1127.30 913.258
1127.40 913.0312
1127.50 912.8043
1127.60 912.5775
1127.70 912.3506
1127.80 912.1238
1127.90 911.897
1128.00 911.6701
1128.10 911.4433
1128.20 911.2165
1128.30 910.9896
1128.40 910.7628
1128.50 910.5359
1128.60 910.3091
1128.70 910.0823
1128.80 909.8554
1128.90 909.6286
1129.00 909.4018
1129.10 909.1749
1129.20 908.9481
1129.30 908.7212
1129.40 908.4944
1129.50 908.2676
1129.60 908.0407
1129.70 907.8139
1129.80 907.5871
1129.90 907.3602
1130.00 907.1334
1130.10 906.9065
1130.20 906.6797
1130.30 906.2803
1130.40 905.8069
1130.50 905.3336
1130.60 904.8602
1130.70 904.3869
1130.80 903.9135
1130.90 903.4402
1131.00 902.9668
1131.10 902.4435
1131.20 901.8452
1131.30 901.2469
1131.40 900.6486
1131.50 900.0504
1131.60 899.4521
1131.70 898.8538
1131.80 898.2555
1131.90 897.6573
1132.00 897.059
1132.10 896.4607
1132.20 895.8624
1132.30 895.2641
1132.40 894.6659
1132.50 894.0676
1132.60 893.4693
1132.70 892.871
1132.80 892.2727
1132.90 891.6745
1133.00 891.0762
1133.10 890.4779
1133.20 889.8796
1133.30 889.2813
1133.40 888.6831
1133.50 888.0848
1133.60 887.4865
1133.70 886.8882
1133.80 886.29
1133.90 885.6917
1134.00 885.0934
1134.10 884.4951
1134.20 883.8968
1134.30 883.2986
1134.40 882.7003
1134.50 882.4584
1134.60 882.3056
1134.70 882.1528
1134.80 881.9999
1134.90 881.8471
1135.00 881.6943
1135.10 881.5415
1135.20 881.3887
1135.30 881.3299
1135.40 881.4122
1135.50 881.4945
1135.60 881.5768
1135.70 881.659
1135.80 881.7413
1135.90 881.8236
1136.00 881.9059
1136.10 881.9881
1136.20 882.0704
1136.30 882.1527
1136.40 882.235
1136.50 882.3172
1136.60 882.3995
1136.70 882.4818
1136.80 882.5641
1136.90 882.6464
1137.00 882.7286
1137.10 882.8109
1137.20 882.8932
1137.30 882.9755
1137.40 883.0577
1137.50 883.14
1137.60 883.2223
1137.70 883.3046
1137.80 883.3869
1137.90 883.4691
1138.00 883.5514
1138.10 883.6337
1138.20 883.716
1138.30 883.7982
1138.40 883.8805
1138.50 883.9628
1138.60 884.0451
1138.70 884.5794
1138.80 885.2269
1138.90 885.8743
1139.00 886.5217
1139.10 887.1691
1139.20 887.8165
1139.30 888.4639
1139.40 889.1113
1139.50 889.7555
1139.60 890.395
1139.70 891.0344
1139.80 891.6739
1139.90 892.3133
1140.00 892.9528
1140.10 893.5922
1140.20 894.2317
1140.30 894.8711
1140.40 895.5105
1140.50 896.15
1140.60 896.7894
1140.70 897.4289
1140.80 898.0683
1140.90 898.7078
1141.00 899.3472
1141.10 899.9867
1141.20 900.6261
1141.30 901.2656
1141.40 901.905
1141.50 902.5445
1141.60 903.1839
1141.70 903.8233
1141.80 904.4628
1141.90 905.1022
1142.00 905.7417
1142.10 906.3811
1142.20 907.0206
1142.30 907.66
1142.40 908.2995
1142.50 908.9389
1142.60 909.5784
1142.70 910.2178
1142.80 910.8573
1142.90 912.1605
1143.00 913.6296
1143.10 915.0988
1143.20 916.568
1143.30 918.0371
1143.40 919.5063
1143.50 920.9755
1143.60 922.4446
1143.70 923.9405
1143.80 925.4764
1143.90 927.0123
1144.00 928.5483
1144.10 930.0842
1144.20 931.6201
1144.30 933.1561
1144.40 934.692
1144.50 936.2279
1144.60 937.7639
1144.70 939.2998
1144.80 940.8357
1144.90 942.3717
1145.00 943.9076
1145.10 945.4435
1145.20 946.9795
1145.30 948.5154
1145.40 950.0513
1145.50 951.5872
1145.60 953.1232
1145.70 954.6591
1145.80 956.195
1145.90 957.731
1146.00 959.2669
1146.10 960.8028
1146.20 962.3388
1146.30 963.8747
1146.40 965.4106
1146.50 966.9466
1146.60 968.4825
1146.70 970.0184
1146.80 971.5544
1146.90 973.0903
1147.00 974.6262
1147.10 975.5201
1147.20 975.986
1147.30 976.4519
1147.40 976.9177
1147.50 977.3836
1147.60 977.8495
1147.70 978.3153
1147.80 978.7812
1147.90 979.2138
1148.00 979.5134
1148.10 979.813
1148.20 980.1126
1148.30 980.4122
1148.40 980.7118
1148.50 981.0114
1148.60 981.311
1148.70 981.6106
1148.80 981.9102
1148.90 982.2098
1149.00 982.5094
1149.10 982.809
1149.20 983.1086
1149.30 983.4082
1149.40 983.7078
1149.50 984.0074
1149.60 984.307
1149.70 984.6066
1149.80 984.9062
1149.90 985.2058
1150.00 985.5054
1150.10 985.805
1150.20 986.1046
1150.30 986.4042
1150.40 986.7038
1150.50 987.0034
1150.60 987.303
1150.70 987.6026
1150.80 987.9022
1150.90 988.2018
1151.00 988.5014
1151.10 988.801
1151.20 989.1006
1151.30 989.4591
1151.40 989.8767
1151.50 990.2942
1151.60 990.7117
1151.70 991.1292
1151.80 991.5468
1151.90 991.9643
1152.00 992.3818
1152.10 992.785
1152.20 993.0596
1152.30 993.3341
1152.40 993.6087
1152.50 993.8832
1152.60 994.1577
1152.70 994.4323
1152.80 994.7068
1152.90 994.9814
1153.00 995.2559
1153.10 995.5305
1153.20 995.805
1153.30 996.0795
1153.40 996.3541
1153.50 996.6286
1153.60 996.9032
1153.70 997.1777
1153.80 997.4523
1153.90 997.7268
1154.00 998.0013
1154.10 998.2759
1154.20 998.5504
1154.30 998.825
1154.40 999.0995
1154.50 999.3741
1154.60 999.6486
1154.70 999.9231
1154.80 1000.198
1154.90 1000.472
1155.00 1000.747
1155.10 1001.021
1155.20 1001.296
1155.30 1001.57
1155.40 1001.845
1155.50 1001.997
1155.60 1001.658
1155.70 1001.32
1155.80 1000.981
1155.90 1000.643
1156.00 1000.304
1156.10 999.9659
1156.20 999.6274
1156.30 999.289
1156.40 998.9391
1156.50 998.5865
1156.60 998.2338
1156.70 997.8812
1156.80 997.5285
1156.90 997.1759
1157.00 996.8232
1157.10 996.4706
1157.20 996.1179
1157.30 995.7653
1157.40 995.4126
1157.50 995.06
1157.60 994.7073
1157.70 994.3547
1157.80 994.002
1157.90 993.6494
1158.00 993.2967
1158.10 992.9441
1158.20 992.5914
1158.30 992.2388
1158.40 991.8861
1158.50 991.5334
1158.60 991.1808
1158.70 990.8281
1158.80 990.4755
1158.90 990.1228
1159.00 989.7702
1159.10 989.4175
1159.20 989.0649
1159.30 988.7122
1159.40 988.3596
1159.50 988.0069
1159.60 987.6543
1159.70 987.3016
1159.80 986.8485
1159.90 986.3843
1160.00 985.92
1160.10 985.4557
1160.20 984.9915
1160.30 984.5272
1160.40 984.0629
1160.50 983.5987
1160.60 983.0086
1160.70 982.2927
1160.80 981.5769
1160.90 980.861
1161.00 980.1451
1161.10 979.4293
1161.20 978.7134
1161.30 977.9975
1161.40 977.2816
1161.50 976.5658
1161.60 975.8499
1161.70 975.134
1161.80 974.4182
1161.90 973.7023
1162.00 972.9864
1162.10 972.2706
1162.20 971.5547
1162.30 970.8388
1162.40 970.123
1162.50 969.4071
1162.60 968.6912
1162.70 967.9754
1162.80 967.2595
1162.90 966.5436
1163.00 965.8278
1163.10 965.1119
1163.20 964.396
1163.30 963.6802
1163.40 962.9643
1163.50 962.2484
1163.60 961.5326
1163.70 960.8167
1163.80 960.1008
1163.90 959.3849
1164.00 958.6076
1164.10 957.7893
1164.20 956.971
1164.30 956.1527
1164.40 955.3344
1164.50 954.5161
1164.60 953.6978
1164.70 952.8795
1164.80 952.0863
1164.90 951.5194
1165.00 950.9525
1165.10 950.3856
1165.20 949.8187
1165.30 949.2518
1165.40 948.6849
1165.50 948.1181
1165.60 947.5512
1165.70 946.9843
1165.80 946.4174
1165.90 945.8505
1166.00 945.2836
1166.10 944.7167
1166.20 944.1498
1166.30 943.5829
1166.40 943.016
1166.50 942.4491
1166.60 941.8822
1166.70 941.3153
1166.80 940.7484
1166.90 940.1815
1167.00 939.6146
1167.10 939.0477
1167.20 938.4809
1167.30 937.914
1167.40 937.3471
1167.50 936.7802
1167.60 936.2133
1167.70 935.6464
1167.80 935.0795
1167.90 934.5126
1168.00 933.9457
1168.10 933.3788
1168.20 932.7866
1168.30 932.0929
1168.40 931.3992
1168.50 930.7056
1168.60 930.0119
1168.70 929.3182
1168.80 928.6246
1168.90 927.9309
1169.00 927.2372
1169.10 926.6819
1169.20 926.1859
1169.30 925.6898
1169.40 925.1938
1169.50 924.6978
1169.60 924.2017
1169.70 923.7057
1169.80 923.2097
1169.90 922.7136
1170.00 922.2176
1170.10 921.7216
1170.20 921.2255
1170.30 920.7295
1170.40 920.2335
1170.50 919.7374
1170.60 919.2414
1170.70 918.7454
1170.80 918.2493
1170.90 917.7533
1171.00 917.2573
1171.10 916.7613
1171.20 916.2652
1171.30 915.7692
1171.40 915.2732
1171.50 914.7771
1171.60 914.2811
1171.70 913.7851
1171.80 913.289
1171.90 912.793
1172.00 912.297
1172.10 911.8009
1172.20 911.3049
1172.30 910.8089
1172.40 910.3128
1172.50 910.3491
1172.60 910.6136
1172.70 910.878
1172.80 911.1425
1172.90 911.4069
1173.00 911.6714
1173.10 911.9359
1173.20 912.2003
1173.30 912.4569
1173.40 912.6823
1173.50 912.9077
1173.60 913.1331
1173.70 913.3585
1173.80 913.5838
1173.90 913.8092
1174.00 914.0346
1174.10 914.26
1174.20 914.4854
1174.30 914.7107
1174.40 914.9361
1174.50 915.1615
1174.60 915.3869
1174.70 915.6122
1174.80 915.8376
1174.90 916.063
1175.00 916.2884
1175.10 916.5138
1175.20 916.7391
1175.30 916.9645
1175.40 917.1899
1175.50 917.4153
1175.60 917.6407
1175.70 917.866
1175.80 918.0914
1175.90 918.3168
1176.00 918.5422
1176.10 918.7676
1176.20 918.9929
1176.30 919.2183
1176.40 919.4437
1176.50 919.6691
1176.60 919.8944
1176.70 920.1354
1176.80 920.4386
1176.90 920.7418
1177.00 921.045
1177.10 921.3482
1177.20 921.6514
1177.30 921.9546
1177.40 922.2578
1177.50 922.5611
1177.60 923.0384
1177.70 923.5905
1177.80 924.1425
1177.90 924.6945
1178.00 925.2466
1178.10 925.7986
1178.20 926.3506
1178.30 926.9027
1178.40 927.4547
1178.50 928.0067
1178.60 928.5588
1178.70 929.1108
1178.80 929.6628
1178.90 930.2149
1179.00 930.7669
1179.10 931.3189
1179.20 931.871
1179.30 932.423
1179.40 932.975
1179.50 933.5271
1179.60 934.0791
1179.70 934.6311
1179.80 935.1832
1179.90 935.7352
1180.00 936.2873
1180.10 936.8393
1180.20 937.3913
1180.30 937.9434
1180.40 938.4954
1180.50 939.0474
1180.60 939.5995
1180.70 940.1515
1180.80 940.7035
1180.90 941.2556
1181.00 942.0978
1181.10 943.1335
1181.20 944.1692
1181.30 945.205
1181.40 946.2407
1181.50 947.2764
1181.60 948.3121
1181.70 949.3478
1181.80 950.3736
1181.90 951.3102
1182.00 952.2468
1182.10 953.1834
1182.20 954.12
1182.30 955.0566
1182.40 955.9932
1182.50 956.9298
1182.60 957.8664
1182.70 958.803
1182.80 959.7396
1182.90 960.6762
1183.00 961.6128
1183.10 962.5494
1183.20 963.486
1183.30 964.4226
1183.40 965.3592
1183.50 966.2958
1183.60 967.2324
1183.70 968.169
1183.80 969.1056
1183.90 970.0422
1184.00 970.9788
1184.10 971.9154
1184.20 972.852
1184.30 973.7886
1184.40 974.7252
1184.50 975.6618
1184.60 976.5984
1184.70 977.535
1184.80 978.4716
1184.90 979.4082
1185.00 980.3448
1185.10 981.2814
1185.20 982.218
1185.30 982.8312
1185.40 983.4444
1185.50 984.0576
1185.60 984.6708
1185.70 985.2841
1185.80 985.8973
1185.90 986.5105
1186.00 987.1237
1186.10 987.6848
1186.20 988.1939
1186.30 988.7029
1186.40 989.2119
1186.50 989.7209
1186.60 990.23
1186.70 990.739
1186.80 991.248
1186.90 991.757
1187.00 992.266
1187.10 992.7751
1187.20 993.2841
1187.30 993.7931
1187.40 994.3021
1187.50 994.8111
1187.60 995.3202
1187.70 995.8292
1187.80 996.3382
1187.90 996.8472
1188.00 997.3562
1188.10 997.8653
1188.20 998.3743
1188.30 998.8833
1188.40 999.3923
1188.50 999.9014
1188.60 1000.41
1188.70 1000.919
1188.80 1001.428
1188.90 1001.937
1189.00 1002.446
1189.10 1002.955
1189.20 1003.465
1189.30 1003.974
1189.40 1004.483
1189.50 1004.578
1189.60 1004.053
1189.70 1003.528
1189.80 1003.003
1189.90 1002.478
1190.00 1001.953
1190.10 1001.428
1190.20 1000.903
1190.30 1000.378
1190.40 999.7497
1190.50 999.1097
1190.60 998.4697
1190.70 997.8297
1190.80 997.1897
1190.90 996.5497
1191.00 995.9097
1191.10 995.2697
1191.20 994.6297
1191.30 993.9897
1191.40 993.3497
1191.50 992.7097
1191.60 992.0696
1191.70 991.4296
1191.80 990.7896
1191.90 990.1496
1192.00 989.5096
1192.10 988.8696
1192.20 988.2296
1192.30 987.5896
1192.40 986.9496
1192.50 986.3096
1192.60 985.6696
1192.70 985.0296
1192.80 984.3896
1192.90 983.7496
1193.00 983.1095
1193.10 982.4695
1193.20 981.8295
1193.30 981.1895
1193.40 980.5495
1193.50 979.9095
1193.60 979.2695
1193.70 978.6295
1193.80 978.0993
1193.90 977.6162
1194.00 977.1331
1194.10 976.6499
1194.20 976.1668
1194.30 975.6837
1194.40 975.2006
1194.50 974.7175
1194.60 974.2415
1194.70 973.8294
1194.80 973.4174
1194.90 973.0054
1195.00 972.5934
1195.10 972.1814
1195.20 971.7694
1195.30 971.3574
1195.40 970.9454
1195.50 970.5334
1195.60 970.1214
1195.70 969.7094
1195.80 969.2973
1195.90 968.8853
1196.00 968.4733
1196.10 968.0613
1196.20 967.6493
1196.30 967.2373
1196.40 966.8253
1196.50 966.4133
1196.60 966.0013
1196.70 965.5893
1196.80 965.1773
1196.90 964.7652
1197.00 964.3532
1197.10 963.9412
1197.20 963.5292
1197.30 963.1172
1197.40 962.7052
1197.50 962.2932
1197.60 961.8812
1197.70 961.4692
1197.80 961.0572
1197.90 960.6452
1198.00 960.2331
1198.10 960.4537
1198.20 960.7445
1198.30 961.0354
1198.40 961.3262
1198.50 961.6171
1198.60 961.9079
1198.70 962.1988
1198.80 962.4896
1198.90 962.7199
1199.00 962.8593
1199.10 962.9988
1199.20 963.1382
1199.30 963.2777
1199.40 963.4171
1199.50 963.5565
1199.60 963.696
1199.70 963.8354
1199.80 963.9749
1199.90 964.1143
1200.00 964.2538
1200.10 964.3932
1200.20 964.5326
1200.30 964.6721
1200.40 964.8115
1200.50 964.951
1200.60 965.0904
1200.70 965.2299
1200.80 965.3693
1200.90 965.5087
1201.00 965.6482
1201.10 965.7876
1201.20 965.9271
1201.30 966.0665
1201.40 966.206
1201.50 966.3454
1201.60 966.4849
1201.70 966.6243
1201.80 966.7637
1201.90 966.9032
1202.00 967.0426
1202.10 967.1821
1202.20 967.3215
1202.30 967.4932
1202.40 967.9554
1202.50 968.4176
1202.60 968.8799
1202.70 969.3421
1202.80 969.8043
1202.90 970.2665
1203.00 970.7287
1203.10 971.1909
1203.20 971.9448
1203.30 972.893
1203.40 973.8413
1203.50 974.7896
1203.60 975.7379
1203.70 976.6861
1203.80 977.6344
1203.90 978.5827
1204.00 979.531
1204.10 980.4793
1204.20 981.4275
1204.30 982.3758
1204.40 983.3241
1204.50 984.2724
1204.60 985.2206
1204.70 986.1689
1204.80 987.1172
1204.90 988.0655
1205.00 989.0137
1205.10 989.962
1205.20 990.9103
1205.30 991.8586
1205.40 992.8068
1205.50 993.7551
1205.60 994.7034
1205.70 995.6517
1205.80 996.5999
1205.90 997.5482
1206.00 998.4965
1206.10 999.4448
1206.20 1000.393
1206.30 1001.341
1206.40 1002.29
1206.50 1003.238
1206.60 1004.234
1206.70 1005.344
1206.80 1006.453
1206.90 1007.562
1207.00 1008.671
1207.10 1009.781
1207.20 1010.89
1207.30 1011.999
1207.40 1013.109
1207.50 1014.046
1207.60 1014.941
1207.70 1015.836
1207.80 1016.73
1207.90 1017.625
1208.00 1018.52
1208.10 1019.415
1208.20 1020.31
1208.30 1021.204
1208.40 1022.099
1208.50 1022.994
1208.60 1023.889
1208.70 1024.783
1208.80 1025.678
1208.90 1026.573
1209.00 1027.468
1209.10 1028.362
1209.20 1029.257
1209.30 1030.152
1209.40 1031.047
1209.50 1031.942
1209.60 1032.836
1209.70 1033.731
1209.80 1034.626
1209.90 1035.521
1210.00 1036.415
1210.10 1037.31
1210.20 1038.205
1210.30 1039.1
1210.40 1039.994
1210.50 1040.889
1210.60 1041.784
1210.70 1042.679
1210.80 1043.574
1210.90 1044.352
1211.00 1045.013
1211.10 1045.674
1211.20 1046.335
1211.30 1046.997
1211.40 1047.658
1211.50 1048.319
1211.60 1048.98
1211.70 1049.641
1211.80 1050.447
1211.90 1051.269
1212.00 1052.091
1212.10 1052.913
1212.20 1053.735
1212.30 1054.557
1212.40 1055.379
1212.50 1056.201
1212.60 1057.023
1212.70 1057.845
1212.80 1058.667
1212.90 1059.489
1213.00 1060.312
1213.10 1061.134
1213.20 1061.956
1213.30 1062.778
1213.40 1063.6
1213.50 1064.422
1213.60 1065.244
1213.70 1066.066
1213.80 1066.888
1213.90 1067.71
1214.00 1068.532
1214.10 1069.354
1214.20 1070.176
1214.30 1070.998
1214.40 1071.82
1214.50 1072.642
1214.60 1073.464
1214.70 1074.286
1214.80 1075.108
1214.90 1075.93
1215.00 1076.752
1215.10 1077.574
1215.20 1078.496
1215.30 1079.485
1215.40 1080.473
1215.50 1081.462
1215.60 1082.451
1215.70 1083.44
1215.80 1084.428
1215.90 1085.417
1216.00 1086.406
1216.10 1086.974
1216.20 1087.542
1216.30 1088.11
1216.40 1088.678
1216.50 1089.247
1216.60 1089.815
1216.70 1090.383
1216.80 1090.951
1216.90 1091.519
1217.00 1092.087
1217.10 1092.655
1217.20 1093.223
1217.30 1093.791
1217.40 1094.36
1217.50 1094.928
1217.60 1095.496
1217.70 1096.064
1217.80 1096.632
1217.90 1097.2
1218.00 1097.768
1218.10 1098.336
1218.20 1098.904
1218.30 1099.473
1218.40 1100.041
1218.50 1100.609
1218.60 1101.177
1218.70 1101.745
1218.80 1102.313
1218.90 1102.881
1219.00 1103.449
1219.10 1104.018
1219.20 1104.586
1219.30 1105.154
1219.40 1105.722
1219.50 1106.182
1219.60 1106.595
1219.70 1107.008
1219.80 1107.421
1219.90 1107.834
1220.00 1108.247
1220.10 1108.661
1220.20 1109.074
1220.30 1109.514
1220.40 1110.197
1220.50 1110.88
1220.60 1111.563
1220.70 1112.246
1220.80 1112.929
1220.90 1113.612
1221.00 1114.295
1221.10 1114.978
1221.20 1115.661
1221.30 1116.344
1221.40 1117.027
1221.50 1117.71
1221.60 1118.393
1221.70 1119.076
1221.80 1119.759
1221.90 1120.442
1222.00 1121.125
1222.10 1121.808
1222.20 1122.49
1222.30 1123.173
1222.40 1123.856
1222.50 1124.539
1222.60 1125.222
1222.70 1125.905
1222.80 1126.588
1222.90 1127.271
1223.00 1127.954
1223.10 1128.637
1223.20 1129.32
1223.30 1130.003
1223.40 1130.686
1223.50 1131.369
1223.60 1132.052
1223.70 1132.735
1223.80 1133.109
1223.90 1133.349
1224.00 1133.59
1224.10 1133.831
1224.20 1134.072
1224.30 1134.313
1224.40 1134.554
1224.50 1134.795
1224.60 1134.995
1224.70 1135.03
1224.80 1135.066
1224.90 1135.101
1225.00 1135.137
1225.10 1135.172
1225.20 1135.208
1225.30 1135.244
1225.40 1135.279
1225.50 1135.315
1225.60 1135.35
1225.70 1135.386
1225.80 1135.421
1225.90 1135.457
1226.00 1135.492
1226.10 1135.528
1226.20 1135.564
1226.30 1135.599
1226.40 1135.635
1226.50 1135.67
1226.60 1135.706
1226.70 1135.741
1226.80 1135.777
1226.90 1135.813
1227.00 1135.848
1227.10 1135.884
1227.20 1135.919
1227.30 1135.955
1227.40 1135.99
1227.50 1136.026
1227.60 1136.062
1227.70 1136.097
1227.80 1136.133
1227.90 1136.168
1228.00 1136.204
1228.10 1136.17
1228.20 1136.119
1228.30 1136.068
1228.40 1136.017
1228.50 1135.966
1228.60 1135.915
1228.70 1135.864
1228.80 1135.813
1228.90 1135.745
1229.00 1135.607
1229.10 1135.47
1229.20 1135.332
1229.30 1135.195
1229.40 1135.058
1229.50 1134.92
1229.60 1134.783
1229.70 1134.645
1229.80 1134.508
1229.90 1134.37
1230.00 1134.233
1230.10 1134.096
1230.20 1133.958
1230.30 1133.821
1230.40 1133.683
1230.50 1133.546
1230.60 1133.408
1230.70 1133.271
1230.80 1133.133
1230.90 1132.996
1231.00 1132.859
1231.10 1132.721
1231.20 1132.584
1231.30 1132.446
1231.40 1132.309
1231.50 1132.171
1231.60 1132.034
1231.70 1131.897
1231.80 1131.759
1231.90 1131.622
1232.00 1131.484
1232.10 1131.347
1232.20 1131.209
1232.30 1131.072
1232.40 1130.279
1232.50 1129.322
1232.60 1128.364
1232.70 1127.407
1232.80 1126.45
1232.90 1125.493
1233.00 1124.536
1233.10 1123.578
1233.20 1122.608
1233.30 1121.584
1233.40 1120.561
1233.50 1119.537
1233.60 1118.514
1233.70 1117.49
1233.80 1116.467
1233.90 1115.443
1234.00 1114.419
1234.10 1113.396
1234.20 1112.372
1234.30 1111.349
1234.40 1110.325
1234.50 1109.302
1234.60 1108.278
1234.70 1107.255
1234.80 1106.231
1234.90 1105.207
1235.00 1104.184
1235.10 1103.16
1235.20 1102.137
1235.30 1101.113
1235.40 1100.09
1235.50 1099.066
1235.60 1098.043
1235.70 1097.019
1235.80 1095.995
1235.90 1094.972
1236.00 1093.948
1236.10 1092.925
1236.20 1091.901
1236.30 1090.878
1236.40 1089.854
1236.50 1088.831
1236.60 1087.807
1236.70 1087.169
1236.80 1086.695
1236.90 1086.222
1237.00 1085.749
1237.10 1085.275
1237.20 1084.802
1237.30 1084.329
1237.40 1083.856
1237.50 1083.385
1237.60 1082.925
1237.70 1082.465
1237.80 1082.005
1237.90 1081.545
1238.00 1081.085
1238.10 1080.625
1238.20 1080.165
1238.30 1079.705
1238.40 1079.245
1238.50 1078.785
1238.60 1078.325
1238.70 1077.865
1238.80 1077.405
1238.90 1076.945
1239.00 1076.485
1239.10 1076.025
1239.20 1075.565
1239.30 1075.105
1239.40 1074.645
1239.50 1074.185
1239.60 1073.725
1239.70 1073.266
1239.80 1072.806
1239.90 1072.346
1240.00 1071.886
1240.10 1071.426
1240.20 1070.966
1240.30 1070.506
1240.40 1070.046
1240.50 1069.586
1240.60 1069.126
1240.70 1068.666
1240.80 1068.206
1240.90 1067.746
1241.00 1067.262
1241.10 1066.768
1241.20 1066.274
1241.30 1065.781
1241.40 1065.287
1241.50 1064.793
1241.60 1064.299
1241.70 1063.805
1241.80 1063.332
1241.90 1063.041
1242.00 1062.75
1242.10 1062.46
1242.20 1062.169
1242.30 1061.879
1242.40 1061.588
1242.50 1061.297
1242.60 1061.007
1242.70 1060.716
1242.80 1060.425
1242.90 1060.135
1243.00 1059.844
1243.10 1059.554
1243.20 1059.263
1243.30 1058.972
1243.40 1058.682
1243.50 1058.391
1243.60 1058.1
1243.70 1057.81
1243.80 1057.519
1243.90 1057.229
1244.00 1056.938
1244.10 1056.647
1244.20 1056.357
1244.30 1056.066
1244.40 1055.776
1244.50 1055.485
1244.60 1055.194
1244.70 1054.904
1244.80 1054.613
1244.90 1054.322
1245.00 1054.032
1245.10 1053.741
1245.20 1053.451
1245.30 1053.792
1245.40 1054.554
1245.50 1055.316
1245.60 1056.078
1245.70 1056.84
1245.80 1057.602
1245.90 1058.364
1246.00 1059.126
1246.10 1059.888
1246.20 1060.965
1246.30 1062.042
1246.40 1063.118
1246.50 1064.195
1246.60 1065.272
1246.70 1066.349
1246.80 1067.425
1246.90 1068.502
1247.00 1069.579
1247.10 1070.655
1247.20 1071.732
1247.30 1072.809
1247.40 1073.886
1247.50 1074.962
1247.60 1076.039
1247.70 1077.116
1247.80 1078.192
1247.90 1079.269
1248.00 1080.346
1248.10 1081.423
1248.20 1082.499
1248.30 1083.576
1248.40 1084.653
1248.50 1085.729
1248.60 1086.806
1248.70 1087.883
1248.80 1088.96
1248.90 1090.036
1249.00 1091.113
1249.10 1092.19
1249.20 1093.266
1249.30 1094.343
1249.40 1095.42
1249.50 1096.496
1249.60 1097.531
1249.70 1098.523
1249.80 1099.515
1249.90 1100.507
1250.00 1101.5
1250.10 1102.492
1250.20 1103.484
1250.30 1104.476
1250.40 1105.468
1250.50 1106.363
1250.60 1107.258
1250.70 1108.153
1250.80 1109.049
1250.90 1109.944
1251.00 1110.839
1251.10 1111.734
1251.20 1112.629
1251.30 1113.524
1251.40 1114.419
1251.50 1115.314
1251.60 1116.209
1251.70 1117.104
1251.80 1117.999
1251.90 1118.894
1252.00 1119.789
1252.10 1120.684
1252.20 1121.579
1252.30 1122.474
1252.40 1123.369
1252.50 1124.265
1252.60 1125.16
1252.70 1126.055
1252.80 1126.95
1252.90 1127.845
1253.00 1128.74
1253.10 1129.635
1253.20 1130.53
1253.30 1131.425
1253.40 1132.32
1253.50 1133.215
1253.60 1134.11
1253.70 1135.005
1253.80 1135.9
1253.90 1136.954
1254.00 1138.246
1254.10 1139.538
1254.20 1140.83
1254.30 1142.122
1254.40 1143.414
1254.50 1144.706
1254.60 1145.998
1254.70 1147.29
1254.80 1148.432
1254.90 1149.557
1255.00 1150.682
1255.10 1151.807
1255.20 1152.932
1255.30 1154.057
1255.40 1155.182
1255.50 1156.307
1255.60 1157.432
1255.70 1158.557
1255.80 1159.682
1255.90 1160.807
1256.00 1161.932
1256.10 1163.057
1256.20 1164.182
1256.30 1165.307
1256.40 1166.432
1256.50 1167.557
1256.60 1168.682
1256.70 1169.807
1256.80 1170.932
1256.90 1172.057
1257.00 1173.182
1257.10 1174.307
1257.20 1175.432
1257.30 1176.558
1257.40 1177.683
1257.50 1178.808
1257.60 1179.933
1257.70 1181.058
1257.80 1182.183
1257.90 1183.308
1258.00 1184.433
1258.10 1185.558
1258.20 1186.423
1258.30 1186.681
1258.40 1186.94
1258.50 1187.198
1258.60 1187.457
1258.70 1187.715
1258.80 1187.974
1258.90 1188.232
1259.00 1188.49
1259.10 1189.109
1259.20 1189.881
1259.30 1190.654
1259.40 1191.426
1259.50 1192.199
1259.60 1192.971
1259.70 1193.744
1259.80 1194.516
1259.90 1195.289
1260.00 1196.061
1260.10 1196.834
1260.20 1197.607
1260.30 1198.379
1260.40 1199.152
1260.50 1199.924
1260.60 1200.697
1260.70 1201.469
1260.80 1202.242
1260.90 1203.014
1261.00 1203.787
1261.10 1204.559
1261.20 1205.332
1261.30 1206.104
1261.40 1206.877
1261.50 1207.649
1261.60 1208.422
1261.70 1209.194
1261.80 1209.967
1261.90 1210.739
1262.00 1211.512
1262.10 1212.284
1262.20 1213.057
1262.30 1213.83
1262.40 1214.602
1262.50 1215.535
1262.60 1217.109
1262.70 1218.683
1262.80 1220.257
1262.90 1221.831
1263.00 1223.405
1263.10 1224.98
1263.20 1226.554
1263.30 1228.128
1263.40 1229.377
1263.50 1230.41
1263.60 1231.443
1263.70 1232.476
1263.80 1233.509
1263.90 1234.542
1264.00 1235.575
1264.10 1236.609
1264.20 1237.642
1264.30 1238.675
1264.40 1239.708
1264.50 1240.741
1264.60 1241.774
1264.70 1242.807
1264.80 1243.84
1264.90 1244.873
1265.00 1245.906
1265.10 1246.939
1265.20 1247.972
1265.30 1249.005
1265.40 1250.038
1265.50 1251.071
1265.60 1252.104
1265.70 1253.137
1265.80 1254.17
1265.90 1255.203
1266.00 1256.236
1266.10 1257.269
1266.20 1258.302
1266.30 1259.336
1266.40 1260.369
1266.50 1261.402
1266.60 1262.435
1266.70 1263.468
1266.80 1264.501
1266.90 1264.021
1267.00 1263.541
1267.10 1263.062
1267.20 1262.582
1267.30 1262.102
1267.40 1261.622
1267.50 1261.143
1267.60 1260.663
1267.70 1260.249
1267.80 1259.936
1267.90 1259.622
1268.00 1259.309
1268.10 1258.995
1268.20 1258.682
1268.30 1258.368
1268.40 1258.055
1268.50 1257.741
1268.60 1257.428
1268.70 1257.114
1268.80 1256.8
1268.90 1256.487
1269.00 1256.173
1269.10 1255.86
1269.20 1255.546
1269.30 1255.233
1269.40 1254.919
1269.50 1254.606
1269.60 1254.292
1269.70 1253.978
1269.80 1253.665
1269.90 1253.351
1270.00 1253.038
1270.10 1252.724
1270.20 1252.411
1270.30 1252.097
1270.40 1251.784
1270.50 1251.47
1270.60 1251.156
1270.70 1250.843
1270.80 1250.529
1270.90 1250.216
1271.00 1249.902
1271.10 1249.589
1271.20 1250.358
1271.30 1251.247
1271.40 1252.137
1271.50 1253.027
1271.60 1253.916
1271.70 1254.806
1271.80 1255.695
1271.90 1256.585
1272.00 1257.267
1272.10 1257.464
1272.20 1257.66
1272.30 1257.857
1272.40 1258.054
1272.50 1258.251
1272.60 1258.448
1272.70 1258.645
1272.80 1258.842
1272.90 1259.039
1273.00 1259.236
1273.10 1259.433
1273.20 1259.63
1273.30 1259.827
1273.40 1260.024
1273.50 1260.221
1273.60 1260.418
1273.70 1260.615
1273.80 1260.812
1273.90 1261.009
1274.00 1261.206
1274.10 1261.403
1274.20 1261.6
1274.30 1261.797
1274.40 1261.994
1274.50 1262.191
1274.60 1262.388
1274.70 1262.585
1274.80 1262.782
1274.90 1262.979
1275.00 1263.176
1275.10 1263.373
1275.20 1263.57
1275.30 1263.767
1275.40 1263.964
1275.50 1263.729
1275.60 1263.309
1275.70 1262.889
1275.80 1262.468
1275.90 1262.048
1276.00 1261.628
1276.10 1261.208
1276.20 1260.788
1276.30 1260.432
1276.40 1260.659
1276.50 1260.886
1276.60 1261.112
1276.70 1261.339
1276.80 1261.566
1276.90 1261.793
1277.00 1262.019
1277.10 1262.246
1277.20 1262.473
1277.30 1262.7
1277.40 1262.927
1277.50 1263.153
1277.60 1263.38
1277.70 1263.607
1277.80 1263.834
1277.90 1264.06
1278.00 1264.287
1278.10 1264.514
1278.20 1264.741
1278.30 1264.968
1278.40 1265.194
1278.50 1265.421
1278.60 1265.648
1278.70 1265.875
1278.80 1266.101
1278.90 1266.328
1279.00 1266.555
1279.10 1266.782
1279.20 1267.009
1279.30 1267.235
1279.40 1267.462
1279.50 1267.689
1279.60 1267.916
1279.70 1268.142
1279.80 1268.399
1279.90 1268.675
1280.00 1268.952
1280.10 1269.228
1280.20 1269.505
1280.30 1269.781
1280.40 1270.058
1280.50 1270.334
1280.60 1270.61
1280.70 1270.638
1280.80 1270.666
1280.90 1270.693
1281.00 1270.721
1281.10 1270.749
1281.20 1270.776
1281.30 1270.804
1281.40 1270.831
1281.50 1270.859
1281.60 1270.887
1281.70 1270.914
1281.80 1270.942
1281.90 1270.969
1282.00 1270.997
1282.10 1271.025
1282.20 1271.052
1282.30 1271.08
1282.40 1271.108
1282.50 1271.135
1282.60 1271.163
1282.70 1271.19
1282.80 1271.218
1282.90 1271.246
1283.00 1271.273
1283.10 1271.301
1283.20 1271.328
1283.30 1271.356
1283.40 1271.384
1283.50 1271.411
1283.60 1271.439
1283.70 1271.467
1283.80 1271.494
1283.90 1271.522
1284.00 1271.549
1284.10 1271.718
1284.20 1272.098
1284.30 1272.479
1284.40 1272.859
1284.50 1273.239
1284.60 1273.619
1284.70 1274
1284.80 1274.38
1284.90 1274.76
1285.00 1275.243
1285.10 1275.751
1285.20 1276.259
1285.30 1276.767
1285.40 1277.275
1285.50 1277.783
1285.60 1278.291
1285.70 1278.799
1285.80 1279.307
1285.90 1279.816
1286.00 1280.324
1286.10 1280.832
1286.20 1281.34
1286.30 1281.848
1286.40 1282.356
1286.50 1282.864
1286.60 1283.372
1286.70 1283.88
1286.80 1284.388
1286.90 1284.896
1287.00 1285.405
1287.10 1285.913
1287.20 1286.421
1287.30 1286.929
1287.40 1287.437
1287.50 1287.945
1287.60 1288.453
1287.70 1288.961
1287.80 1289.469
1287.90 1289.977
1288.00 1290.485
1288.10 1290.994
1288.20 1291.502
1288.30 1292.01
1288.40 1292.476
1288.50 1292.777
1288.60 1293.078
1288.70 1293.378
1288.80 1293.679
1288.90 1293.98
1289.00 1294.28
1289.10 1294.581
1289.20 1294.882
1289.30 1295.09
1289.40 1295.235
1289.50 1295.381
1289.60 1295.527
1289.70 1295.673
1289.80 1295.819
1289.90 1295.965
1290.00 1296.111
1290.10 1296.256
1290.20 1296.402
1290.30 1296.548
1290.40 1296.694
1290.50 1296.84
1290.60 1296.986
1290.70 1297.132
1290.80 1297.278
1290.90 1297.423
1291.00 1297.569
1291.10 1297.715
1291.20 1297.861
1291.30 1298.007
1291.40 1298.153
1291.50 1298.299
1291.60 1298.444
1291.70 1298.59
1291.80 1298.736
1291.90 1298.882
1292.00 1299.028
1292.10 1299.174
1292.20 1299.32
1292.30 1299.466
1292.40 1299.611
1292.50 1299.757
1292.60 1299.903
1292.70 1300.049
1292.80 1300.097
1292.90 1300.145
1293.00 1300.192
1293.10 1300.24
1293.20 1300.288
1293.30 1300.336
1293.40 1300.384
1293.50 1300.431
1293.60 1300.484
1293.70 1300.542
1293.80 1300.601
1293.90 1300.66
1294.00 1300.718
1294.10 1300.777
1294.20 1300.836
1294.30 1300.894
1294.40 1300.953
1294.50 1301.012
1294.60 1301.07
1294.70 1301.129
1294.80 1301.188
1294.90 1301.246
1295.00 1301.305
1295.10 1301.364
1295.20 1301.422
1295.30 1301.481
1295.40 1301.54
1295.50 1301.599
1295.60 1301.657
1295.70 1301.716
1295.80 1301.775
1295.90 1301.833
1296.00 1301.892
1296.10 1301.951
1296.20 1302.009
1296.30 1302.068
1296.40 1302.127
1296.50 1302.185
1296.60 1302.244
1296.70 1302.303
1296.80 1302.361
1296.90 1302.42
1297.00 1302.479
1297.10 1302.273
1297.20 1302.002
1297.30 1301.731
1297.40 1301.46
1297.50 1301.188
1297.60 1300.917
1297.70 1300.646
1297.80 1300.375
1297.90 1300.093
1298.00 1299.77
1298.10 1299.447
1298.20 1299.124
1298.30 1298.802
1298.40 1298.479
1298.50 1298.156
1298.60 1297.833
1298.70 1297.51
1298.80 1297.187
1298.90 1296.864
1299.00 1296.541
1299.10 1296.218
1299.20 1295.895
1299.30 1295.573
1299.40 1295.25
1299.50 1294.927
1299.60 1294.604
1299.70 1294.281
1299.80 1293.958
1299.90 1293.635
