# Version 2.1 - nm, norm@500 to 1, cut digits
# Wavelength(nm)  Flambda(ergs/cm^s/s/nm)
300.00 4.536607e-95
300.10 4.536607e-95
300.20 4.536607e-95
300.30 4.536607e-95
300.40 4.536607e-95
300.50 4.536607e-95
300.60 4.536607e-95
300.70 4.536607e-95
300.80 4.536607e-95
300.90 4.536607e-95
301.00 4.536607e-95
301.10 4.536607e-95
301.20 4.536607e-95
301.30 4.536607e-95
301.40 4.536607e-95
301.50 4.536607e-95
301.60 4.536607e-95
301.70 4.536607e-95
301.80 4.536607e-95
301.90 4.536607e-95
302.00 4.536607e-95
302.10 4.536607e-95
302.20 4.536607e-95
302.30 4.536607e-95
302.40 4.536607e-95
302.50 4.536607e-95
302.60 4.536607e-95
302.70 4.536607e-95
302.80 4.536607e-95
302.90 4.536607e-95
303.00 4.536607e-95
303.10 4.536607e-95
303.20 4.536607e-95
303.30 4.536607e-95
303.40 4.536607e-95
303.50 4.536607e-95
303.60 4.536607e-95
303.70 4.536607e-95
303.80 4.536607e-95
303.90 4.536607e-95
304.00 4.536607e-95
304.10 4.536607e-95
304.20 4.536607e-95
304.30 4.536607e-95
304.40 4.536607e-95
304.50 4.536607e-95
304.60 4.536607e-95
304.70 4.536607e-95
304.80 4.536607e-95
304.90 4.536607e-95
305.00 4.536607e-95
305.10 4.536607e-95
305.20 4.536607e-95
305.30 4.536607e-95
305.40 4.536607e-95
305.50 4.536607e-95
305.60 4.536607e-95
305.70 4.536607e-95
305.80 4.536607e-95
305.90 4.536607e-95
306.00 4.536607e-95
306.10 4.536607e-95
306.20 4.536607e-95
306.30 4.536607e-95
306.40 4.536607e-95
306.50 4.536607e-95
306.60 4.536607e-95
306.70 4.536607e-95
306.80 4.536607e-95
306.90 4.536607e-95
307.00 4.536607e-95
307.10 4.536607e-95
307.20 4.536607e-95
307.30 4.536607e-95
307.40 4.536607e-95
307.50 4.536607e-95
307.60 4.536607e-95
307.70 4.536607e-95
307.80 4.536607e-95
307.90 4.536607e-95
308.00 4.536607e-95
308.10 4.536607e-95
308.20 4.536607e-95
308.30 4.536607e-95
308.40 4.536607e-95
308.50 4.536607e-95
308.60 4.536607e-95
308.70 4.536607e-95
308.80 4.536607e-95
308.90 4.536607e-95
309.00 4.536607e-95
309.10 4.536607e-95
309.20 4.536607e-95
309.30 4.536607e-95
309.40 4.536607e-95
309.50 4.536607e-95
309.60 4.536607e-95
309.70 4.536607e-95
309.80 4.536607e-95
309.90 4.536607e-95
310.00 4.536607e-95
310.10 4.536607e-95
310.20 4.536607e-95
310.30 4.536607e-95
310.40 4.536607e-95
310.50 4.536607e-95
310.60 4.536607e-95
310.70 4.536607e-95
310.80 4.536607e-95
310.90 4.536607e-95
311.00 4.536607e-95
311.10 4.536607e-95
311.20 4.536607e-95
311.30 4.536607e-95
311.40 4.536607e-95
311.50 4.536607e-95
311.60 4.536607e-95
311.70 4.536607e-95
311.80 4.536607e-95
311.90 4.536607e-95
312.00 4.536607e-95
312.10 4.536607e-95
312.20 4.536607e-95
312.30 4.536607e-95
312.40 4.536607e-95
312.50 4.536607e-95
312.60 4.536607e-95
312.70 4.536607e-95
312.80 4.536607e-95
312.90 4.536607e-95
313.00 4.536607e-95
313.10 4.536607e-95
313.20 4.536607e-95
313.30 4.536607e-95
313.40 4.536607e-95
313.50 4.536607e-95
313.60 4.536607e-95
313.70 4.536607e-95
313.80 4.536607e-95
313.90 4.536607e-95
314.00 4.536607e-95
314.10 4.536607e-95
314.20 4.536607e-95
314.30 4.536607e-95
314.40 4.536607e-95
314.50 4.536607e-95
314.60 4.536607e-95
314.70 4.536607e-95
314.80 4.536607e-95
314.90 4.536607e-95
315.00 4.536607e-95
315.10 4.536607e-95
315.20 4.536607e-95
315.30 4.536607e-95
315.40 4.536607e-95
315.50 4.536607e-95
315.60 4.536607e-95
315.70 4.536607e-95
315.80 4.536607e-95
315.90 4.536607e-95
316.00 4.536607e-95
316.10 4.536607e-95
316.20 4.536607e-95
316.30 4.536607e-95
316.40 4.536607e-95
316.50 4.536607e-95
316.60 4.536607e-95
316.70 4.536607e-95
316.80 4.536607e-95
316.90 4.536607e-95
317.00 4.536607e-95
317.10 4.536607e-95
317.20 4.536607e-95
317.30 4.536607e-95
317.40 4.536607e-95
317.50 4.536607e-95
317.60 4.536607e-95
317.70 4.536607e-95
317.80 4.536607e-95
317.90 4.536607e-95
318.00 4.536607e-95
318.10 4.536607e-95
318.20 4.536607e-95
318.30 4.536607e-95
318.40 4.536607e-95
318.50 4.536607e-95
318.60 4.536607e-95
318.70 4.536607e-95
318.80 4.536607e-95
318.90 4.536607e-95
319.00 4.536607e-95
319.10 4.536607e-95
319.20 4.536607e-95
319.30 4.536607e-95
319.40 4.536607e-95
319.50 4.536607e-95
319.60 4.536607e-95
319.70 4.536607e-95
319.80 4.536607e-95
319.90 4.536607e-95
320.00 4.536607e-95
320.10 4.536607e-95
320.20 4.536607e-95
320.30 4.536607e-95
320.40 4.536607e-95
320.50 4.536607e-95
320.60 4.536607e-95
320.70 4.536607e-95
320.80 4.536607e-95
320.90 4.536607e-95
321.00 4.536607e-95
321.10 4.536607e-95
321.20 4.536607e-95
321.30 4.536607e-95
321.40 4.536607e-95
321.50 4.536607e-95
321.60 4.536607e-95
321.70 4.536607e-95
321.80 4.536607e-95
321.90 4.536607e-95
322.00 4.536607e-95
322.10 4.536607e-95
322.20 4.536607e-95
322.30 4.536607e-95
322.40 4.536607e-95
322.50 4.536607e-95
322.60 4.536607e-95
322.70 4.536607e-95
322.80 4.536607e-95
322.90 4.536607e-95
323.00 4.536607e-95
323.10 4.536607e-95
323.20 4.536607e-95
323.30 4.536607e-95
323.40 4.536607e-95
323.50 4.536607e-95
323.60 4.536607e-95
323.70 4.536607e-95
323.80 4.536607e-95
323.90 4.536607e-95
324.00 4.536607e-95
324.10 4.536607e-95
324.20 4.536607e-95
324.30 4.536607e-95
324.40 4.536607e-95
324.50 4.536607e-95
324.60 4.536607e-95
324.70 4.536607e-95
324.80 4.536607e-95
324.90 4.536607e-95
325.00 4.536607e-95
325.10 4.536607e-95
325.20 4.536607e-95
325.30 4.536607e-95
325.40 4.536607e-95
325.50 4.536607e-95
325.60 4.536607e-95
325.70 4.536607e-95
325.80 4.536607e-95
325.90 4.536607e-95
326.00 4.536607e-95
326.10 4.536607e-95
326.20 4.536607e-95
326.30 4.536607e-95
326.40 4.536607e-95
326.50 4.536607e-95
326.60 4.536607e-95
326.70 4.536607e-95
326.80 4.536607e-95
326.90 4.536607e-95
327.00 4.536607e-95
327.10 4.536607e-95
327.20 4.536607e-95
327.30 4.536607e-95
327.40 4.536607e-95
327.50 4.536607e-95
327.60 4.536607e-95
327.70 4.536607e-95
327.80 4.536607e-95
327.90 4.536607e-95
328.00 4.536607e-95
328.10 4.536607e-95
328.20 4.536607e-95
328.30 4.536607e-95
328.40 4.536607e-95
328.50 4.536607e-95
328.60 4.536607e-95
328.70 4.536607e-95
328.80 4.536607e-95
328.90 4.536607e-95
329.00 4.536607e-95
329.10 4.536607e-95
329.20 4.536607e-95
329.30 4.536607e-95
329.40 4.536607e-95
329.50 4.536607e-95
329.60 4.536607e-95
329.70 4.536607e-95
329.80 4.536607e-95
329.90 4.536607e-95
330.00 4.536607e-95
330.10 4.536607e-95
330.20 4.536607e-95
330.30 4.536607e-95
330.40 4.536607e-95
330.50 4.536607e-95
330.60 4.536607e-95
330.70 4.536607e-95
330.80 4.536607e-95
330.90 4.536607e-95
331.00 4.536607e-95
331.10 4.536607e-95
331.20 4.536607e-95
331.30 4.536607e-95
331.40 4.536607e-95
331.50 4.536607e-95
331.60 4.536607e-95
331.70 4.536607e-95
331.80 4.536607e-95
331.90 4.536607e-95
332.00 4.536607e-95
332.10 4.536607e-95
332.20 4.536607e-95
332.30 4.536607e-95
332.40 4.536607e-95
332.50 4.536607e-95
332.60 4.536607e-95
332.70 4.536607e-95
332.80 4.536607e-95
332.90 4.536607e-95
333.00 4.536607e-95
333.10 4.536607e-95
333.20 4.536607e-95
333.30 4.536607e-95
333.40 4.536607e-95
333.50 4.536607e-95
333.60 4.536607e-95
333.70 4.536607e-95
333.80 4.536607e-95
333.90 4.536607e-95
334.00 4.536607e-95
334.10 4.536607e-95
334.20 4.536607e-95
334.30 4.536607e-95
334.40 4.536607e-95
334.50 4.536607e-95
334.60 4.536607e-95
334.70 4.536607e-95
334.80 4.536607e-95
334.90 4.536607e-95
335.00 4.536607e-95
335.10 4.536607e-95
335.20 4.536607e-95
335.30 4.536607e-95
335.40 4.536607e-95
335.50 4.536607e-95
335.60 4.536607e-95
335.70 4.536607e-95
335.80 4.536607e-95
335.90 4.536607e-95
336.00 4.536607e-95
336.10 4.536607e-95
336.20 4.536607e-95
336.30 4.536607e-95
336.40 4.536607e-95
336.50 4.536607e-95
336.60 4.536607e-95
336.70 4.536607e-95
336.80 4.536607e-95
336.90 4.536607e-95
337.00 4.536607e-95
337.10 4.536607e-95
337.20 4.536607e-95
337.30 4.536607e-95
337.40 4.536607e-95
337.50 4.536607e-95
337.60 4.536607e-95
337.70 4.536607e-95
337.80 4.536607e-95
337.90 4.536607e-95
338.00 4.536607e-95
338.10 4.536607e-95
338.20 4.536607e-95
338.30 4.536607e-95
338.40 4.536607e-95
338.50 4.536607e-95
338.60 4.536607e-95
338.70 4.536607e-95
338.80 4.536607e-95
338.90 4.536607e-95
339.00 4.536607e-95
339.10 4.536607e-95
339.20 4.536607e-95
339.30 4.536607e-95
339.40 4.536607e-95
339.50 4.536607e-95
339.60 4.536607e-95
339.70 4.536607e-95
339.80 4.536607e-95
339.90 4.536607e-95
340.00 4.536607e-95
340.10 4.536607e-95
340.20 4.536607e-95
340.30 4.536607e-95
340.40 4.536607e-95
340.50 4.536607e-95
340.60 4.536607e-95
340.70 4.536607e-95
340.80 4.536607e-95
340.90 4.536607e-95
341.00 4.536607e-95
341.10 4.536607e-95
341.20 4.536607e-95
341.30 4.536607e-95
341.40 4.536607e-95
341.50 4.536607e-95
341.60 4.536607e-95
341.70 4.536607e-95
341.80 4.536607e-95
341.90 4.536607e-95
342.00 4.536607e-95
342.10 4.536607e-95
342.20 4.536607e-95
342.30 4.536607e-95
342.40 4.536607e-95
342.50 4.536607e-95
342.60 4.536607e-95
342.70 4.536607e-95
342.80 4.536607e-95
342.90 4.536607e-95
343.00 4.536607e-95
343.10 4.536607e-95
343.20 4.536607e-95
343.30 4.536607e-95
343.40 4.536607e-95
343.50 4.536607e-95
343.60 4.536607e-95
343.70 4.536607e-95
343.80 4.536607e-95
343.90 4.536607e-95
344.00 4.536607e-95
344.10 4.536607e-95
344.20 4.536607e-95
344.30 4.536607e-95
344.40 4.536607e-95
344.50 4.536607e-95
344.60 4.536607e-95
344.70 4.536607e-95
344.80 4.536607e-95
344.90 4.536607e-95
345.00 4.536607e-95
345.10 4.536607e-95
345.20 4.536607e-95
345.30 4.536607e-95
345.40 4.536607e-95
345.50 4.536607e-95
345.60 4.536607e-95
345.70 4.536607e-95
345.80 4.536607e-95
345.90 4.536607e-95
346.00 4.536607e-95
346.10 4.536607e-95
346.20 4.536607e-95
346.30 4.536607e-95
346.40 4.536607e-95
346.50 4.536607e-95
346.60 4.536607e-95
346.70 4.536607e-95
346.80 4.536607e-95
346.90 4.536607e-95
347.00 4.536607e-95
347.10 4.536607e-95
347.20 4.536607e-95
347.30 4.536607e-95
347.40 4.536607e-95
347.50 4.536607e-95
347.60 4.536607e-95
347.70 4.536607e-95
347.80 4.536607e-95
347.90 4.536607e-95
348.00 4.536607e-95
348.10 4.536607e-95
348.20 4.536607e-95
348.30 4.536607e-95
348.40 4.536607e-95
348.50 4.536607e-95
348.60 4.536607e-95
348.70 4.536607e-95
348.80 4.536607e-95
348.90 4.536607e-95
349.00 4.536607e-95
349.10 4.536607e-95
349.20 4.536607e-95
349.30 4.536607e-95
349.40 4.536607e-95
349.50 4.536607e-95
349.60 4.536607e-95
349.70 4.536607e-95
349.80 4.536607e-95
349.90 4.536607e-95
350.00 4.536607e-95
350.10 4.536607e-95
350.20 4.536607e-95
350.30 4.536607e-95
350.40 4.536607e-95
350.50 4.536607e-95
350.60 4.536607e-95
350.70 4.536607e-95
350.80 4.536607e-95
350.90 4.536607e-95
351.00 4.536607e-95
351.10 4.536607e-95
351.20 4.536607e-95
351.30 4.536607e-95
351.40 4.536607e-95
351.50 4.536607e-95
351.60 4.536607e-95
351.70 4.536607e-95
351.80 4.536607e-95
351.90 4.536607e-95
352.00 4.536607e-95
352.10 4.536607e-95
352.20 4.536607e-95
352.30 4.536607e-95
352.40 4.536607e-95
352.50 4.536607e-95
352.60 4.536607e-95
352.70 4.536607e-95
352.80 4.536607e-95
352.90 4.536607e-95
353.00 4.536607e-95
353.10 4.536607e-95
353.20 4.536607e-95
353.30 4.536607e-95
353.40 4.536607e-95
353.50 4.536607e-95
353.60 4.536607e-95
353.70 4.536607e-95
353.80 4.536607e-95
353.90 4.536607e-95
354.00 4.536607e-95
354.10 4.536607e-95
354.20 4.536607e-95
354.30 4.536607e-95
354.40 4.536607e-95
354.50 4.536607e-95
354.60 4.536607e-95
354.70 4.536607e-95
354.80 4.536607e-95
354.90 4.536607e-95
355.00 4.536607e-95
355.10 4.536607e-95
355.20 4.536607e-95
355.30 4.536607e-95
355.40 4.536607e-95
355.50 4.536607e-95
355.60 4.536607e-95
355.70 4.536607e-95
355.80 4.536607e-95
355.90 4.536607e-95
356.00 4.536607e-95
356.10 4.536607e-95
356.20 4.536607e-95
356.30 4.536607e-95
356.40 4.536607e-95
356.50 4.536607e-95
356.60 4.536607e-95
356.70 4.536607e-95
356.80 4.536607e-95
356.90 4.536607e-95
357.00 4.536607e-95
357.10 4.536607e-95
357.20 4.536607e-95
357.30 4.536607e-95
357.40 4.536607e-95
357.50 4.536607e-95
357.60 4.536607e-95
357.70 4.536607e-95
357.80 4.536607e-95
357.90 4.536607e-95
358.00 4.536607e-95
358.10 4.536607e-95
358.20 4.536607e-95
358.30 4.536607e-95
358.40 4.536607e-95
358.50 4.536607e-95
358.60 4.536607e-95
358.70 4.536607e-95
358.80 4.536607e-95
358.90 4.536607e-95
359.00 4.536607e-95
359.10 4.536607e-95
359.20 4.536607e-95
359.30 4.536607e-95
359.40 4.536607e-95
359.50 4.536607e-95
359.60 4.536607e-95
359.70 4.536607e-95
359.80 4.536607e-95
359.90 4.536607e-95
360.00 4.536607e-95
360.10 4.536607e-95
360.20 4.536607e-95
360.30 4.536607e-95
360.40 4.536607e-95
360.50 4.536607e-95
360.60 4.536607e-95
360.70 4.536607e-95
360.80 4.536607e-95
360.90 4.536607e-95
361.00 4.536607e-95
361.10 4.536607e-95
361.20 4.536607e-95
361.30 4.536607e-95
361.40 4.536607e-95
361.50 4.536607e-95
361.60 4.536607e-95
361.70 4.536607e-95
361.80 4.536607e-95
361.90 4.536607e-95
362.00 4.536607e-95
362.10 4.536607e-95
362.20 4.536607e-95
362.30 4.536607e-95
362.40 4.536607e-95
362.50 4.536607e-95
362.60 4.536607e-95
362.70 4.536607e-95
362.80 4.536607e-95
362.90 4.536607e-95
363.00 4.536607e-95
363.10 4.536607e-95
363.20 4.536607e-95
363.30 4.536607e-95
363.40 4.536607e-95
363.50 4.536607e-95
363.60 4.536607e-95
363.70 4.536607e-95
363.80 4.536607e-95
363.90 4.536607e-95
364.00 4.536607e-95
364.10 4.536607e-95
364.20 4.536607e-95
364.30 4.536607e-95
364.40 4.536607e-95
364.50 4.536607e-95
364.60 4.536607e-95
364.70 4.536607e-95
364.80 4.536607e-95
364.90 4.536607e-95
365.00 4.536607e-95
365.10 4.536607e-95
365.20 4.536607e-95
365.30 4.536607e-95
365.40 4.536607e-95
365.50 4.536607e-95
365.60 4.536607e-95
365.70 4.536607e-95
365.80 4.536607e-95
365.90 4.536607e-95
366.00 4.536607e-95
366.10 4.536607e-95
366.20 4.536607e-95
366.30 4.536607e-95
366.40 4.536607e-95
366.50 4.536607e-95
366.60 4.536607e-95
366.70 4.536607e-95
366.80 4.536607e-95
366.90 4.536607e-95
367.00 4.536607e-95
367.10 4.536607e-95
367.20 4.536607e-95
367.30 4.536607e-95
367.40 4.536607e-95
367.50 4.536607e-95
367.60 4.536607e-95
367.70 4.536607e-95
367.80 4.536607e-95
367.90 4.536607e-95
368.00 4.536607e-95
368.10 4.536607e-95
368.20 4.536607e-95
368.30 4.536607e-95
368.40 4.536607e-95
368.50 4.536607e-95
368.60 4.536607e-95
368.70 4.536607e-95
368.80 4.536607e-95
368.90 4.536607e-95
369.00 4.536607e-95
369.10 4.536607e-95
369.20 4.536607e-95
369.30 4.536607e-95
369.40 4.536607e-95
369.50 4.536607e-95
369.60 4.536607e-95
369.70 4.536607e-95
369.80 4.536607e-95
369.90 4.536607e-95
370.00 4.536607e-95
370.10 4.536607e-95
370.20 4.536607e-95
370.30 4.536607e-95
370.40 4.536607e-95
370.50 4.536607e-95
370.60 4.536607e-95
370.70 4.536607e-95
370.80 4.536607e-95
370.90 4.536607e-95
371.00 4.536607e-95
371.10 4.536607e-95
371.20 4.536607e-95
371.30 4.536607e-95
371.40 4.536607e-95
371.50 4.536607e-95
371.60 4.536607e-95
371.70 4.536607e-95
371.80 4.536607e-95
371.90 4.536607e-95
372.00 4.536607e-95
372.10 4.536607e-95
372.20 4.536607e-95
372.30 4.536607e-95
372.40 4.536607e-95
372.50 4.536607e-95
372.60 4.536607e-95
372.70 4.536607e-95
372.80 4.536607e-95
372.90 4.536607e-95
373.00 4.536607e-95
373.10 4.536607e-95
373.20 4.536607e-95
373.30 4.536607e-95
373.40 4.536607e-95
373.50 4.536607e-95
373.60 4.536607e-95
373.70 4.536607e-95
373.80 4.536607e-95
373.90 4.536607e-95
374.00 4.536607e-95
374.10 4.536607e-95
374.20 4.536607e-95
374.30 4.536607e-95
374.40 4.536607e-95
374.50 4.536607e-95
374.60 4.536607e-95
374.70 4.536607e-95
374.80 4.536607e-95
374.90 4.536607e-95
375.00 4.536607e-95
375.10 4.536607e-95
375.20 4.536607e-95
375.30 4.536607e-95
375.40 4.536607e-95
375.50 4.536607e-95
375.60 4.536607e-95
375.70 4.536607e-95
375.80 4.536607e-95
375.90 4.536607e-95
376.00 4.536607e-95
376.10 4.536607e-95
376.20 4.536607e-95
376.30 4.536607e-95
376.40 4.536607e-95
376.50 4.536607e-95
376.60 4.536607e-95
376.70 4.536607e-95
376.80 4.536607e-95
376.90 4.536607e-95
377.00 4.536607e-95
377.10 4.536607e-95
377.20 4.536607e-95
377.30 4.536607e-95
377.40 4.536607e-95
377.50 4.536607e-95
377.60 4.536607e-95
377.70 4.536607e-95
377.80 4.536607e-95
377.90 4.536607e-95
378.00 4.536607e-95
378.10 4.536607e-95
378.20 4.536607e-95
378.30 4.536607e-95
378.40 4.536607e-95
378.50 4.536607e-95
378.60 4.536607e-95
378.70 4.536607e-95
378.80 4.536607e-95
378.90 4.536607e-95
379.00 4.536607e-95
379.10 4.536607e-95
379.20 4.536607e-95
379.30 4.536607e-95
379.40 4.536607e-95
379.50 4.536607e-95
379.60 4.536607e-95
379.70 4.536607e-95
379.80 4.536607e-95
379.90 4.536607e-95
380.00 4.536607e-95
380.10 4.536607e-95
380.20 4.536607e-95
380.30 4.536607e-95
380.40 4.536607e-95
380.50 4.536607e-95
380.60 4.536607e-95
380.70 4.536607e-95
380.80 4.536607e-95
380.90 4.536607e-95
381.00 4.536607e-95
381.10 4.536607e-95
381.20 4.536607e-95
381.30 4.536607e-95
381.40 4.536607e-95
381.50 4.536607e-95
381.60 4.536607e-95
381.70 4.536607e-95
381.80 4.536607e-95
381.90 4.536607e-95
382.00 4.536607e-95
382.10 4.536607e-95
382.20 4.536607e-95
382.30 4.536607e-95
382.40 4.536607e-95
382.50 4.536607e-95
382.60 4.536607e-95
382.70 4.536607e-95
382.80 4.536607e-95
382.90 4.536607e-95
383.00 4.536607e-95
383.10 4.536607e-95
383.20 4.536607e-95
383.30 4.536607e-95
383.40 4.536607e-95
383.50 4.536607e-95
383.60 4.536607e-95
383.70 4.536607e-95
383.80 4.536607e-95
383.90 4.536607e-95
384.00 4.536607e-95
384.10 4.536607e-95
384.20 4.536607e-95
384.30 4.536607e-95
384.40 4.536607e-95
384.50 4.536607e-95
384.60 4.536607e-95
384.70 4.536607e-95
384.80 4.536607e-95
384.90 4.536607e-95
385.00 4.536607e-95
385.10 4.536607e-95
385.20 4.536607e-95
385.30 4.536607e-95
385.40 4.536607e-95
385.50 4.536607e-95
385.60 4.536607e-95
385.70 4.536607e-95
385.80 4.536607e-95
385.90 4.536607e-95
386.00 4.536607e-95
386.10 4.536607e-95
386.20 4.536607e-95
386.30 4.536607e-95
386.40 4.536607e-95
386.50 4.536607e-95
386.60 4.536607e-95
386.70 4.536607e-95
386.80 4.536607e-95
386.90 4.536607e-95
387.00 4.536607e-95
387.10 4.536607e-95
387.20 4.536607e-95
387.30 4.536607e-95
387.40 4.536607e-95
387.50 4.536607e-95
387.60 4.536607e-95
387.70 4.536607e-95
387.80 4.536607e-95
387.90 4.536607e-95
388.00 4.536607e-95
388.10 4.536607e-95
388.20 4.536607e-95
388.30 4.536607e-95
388.40 4.536607e-95
388.50 4.536607e-95
388.60 4.536607e-95
388.70 4.536607e-95
388.80 4.536607e-95
388.90 4.536607e-95
389.00 4.536607e-95
389.10 4.536607e-95
389.20 4.536607e-95
389.30 4.536607e-95
389.40 4.536607e-95
389.50 4.536607e-95
389.60 4.536607e-95
389.70 4.536607e-95
389.80 4.536607e-95
389.90 4.536607e-95
390.00 4.536607e-95
390.10 4.536607e-95
390.20 4.536607e-95
390.30 4.536607e-95
390.40 4.536607e-95
390.50 4.536607e-95
390.60 4.536607e-95
390.70 4.536607e-95
390.80 4.536607e-95
390.90 4.536607e-95
391.00 4.536607e-95
391.10 4.536607e-95
391.20 4.536607e-95
391.30 4.536607e-95
391.40 4.536607e-95
391.50 4.536607e-95
391.60 4.536607e-95
391.70 4.536607e-95
391.80 4.536607e-95
391.90 4.536607e-95
392.00 4.536607e-95
392.10 4.536607e-95
392.20 4.536607e-95
392.30 4.536607e-95
392.40 4.536607e-95
392.50 4.536607e-95
392.60 4.536607e-95
392.70 4.536607e-95
392.80 4.536607e-95
392.90 4.536607e-95
393.00 4.536607e-95
393.10 4.536607e-95
393.20 4.536607e-95
393.30 4.536607e-95
393.40 4.536607e-95
393.50 4.536607e-95
393.60 4.536607e-95
393.70 4.536607e-95
393.80 4.536607e-95
393.90 4.536607e-95
394.00 4.536607e-95
394.10 4.536607e-95
394.20 4.536607e-95
394.30 4.536607e-95
394.40 4.536607e-95
394.50 4.536607e-95
394.60 4.536607e-95
394.70 4.536607e-95
394.80 4.536607e-95
394.90 4.536607e-95
395.00 0.07918414
395.10 0.1184646
395.20 0.1184646
395.30 0.1184646
395.40 0.1184646
395.50 0.1184646
395.60 0.1184646
395.70 0.1184646
395.80 0.1184646
395.90 0.1184646
396.00 0.1447967
396.10 0.2099603
396.20 0.3010155
396.30 0.4012852
396.40 0.4936472
396.50 0.5661321
396.60 0.611896
396.70 0.6312911
396.80 0.6312911
396.90 0.6312911
397.00 0.6312911
397.10 0.6312911
397.20 0.6312911
397.30 0.6312911
397.40 0.6312911
397.50 0.6312911
397.60 0.6548361
397.70 0.717216
397.80 0.831029
397.90 1.003955
398.00 1.232655
398.10 1.501937
398.20 1.790948
398.30 2.077607
398.40 2.33976
398.50 2.56044
398.60 2.731981
398.70 2.861004
398.80 2.965027
398.90 3.062123
399.00 3.167315
399.10 3.287383
399.20 3.417052
399.30 3.543892
399.40 3.656187
399.50 3.75134
399.60 3.833582
399.70 3.90725
399.80 3.975492
399.90 4.043473
400.00 4.120464
400.10 4.211287
400.20 4.312853
400.30 4.417955
400.40 4.518088
400.50 4.608013
400.60 4.688013
400.70 4.764302
400.80 4.842491
400.90 4.916273
401.00 4.972881
401.10 5.005137
401.20 5.013262
401.30 5.013262
401.40 5.013262
401.50 5.013262
401.60 5.013262
401.70 5.013262
401.80 5.013262
401.90 5.013262
402.00 5.013262
402.10 5.013262
402.20 5.013262
402.30 5.013262
402.40 5.013262
402.50 5.013262
402.60 5.02116
402.70 5.082079
402.80 5.195151
402.90 5.349228
403.00 5.521467
403.10 5.682763
403.20 5.809951
403.30 5.888183
403.40 5.910869
403.50 5.910869
403.60 5.910869
403.70 5.910869
403.80 5.910869
403.90 5.910869
404.00 5.910869
404.10 5.910869
404.20 5.910869
404.30 5.910869
404.40 5.910869
404.50 5.910869
404.60 5.910869
404.70 5.910869
404.80 5.910869
404.90 5.910869
405.00 5.831685
405.10 5.792405
405.20 5.792405
405.30 5.792405
405.40 5.792405
405.50 5.792405
405.60 5.792405
405.70 5.792405
405.80 5.792405
405.90 5.792405
406.00 5.766072
406.10 5.720446
406.20 5.6744
406.30 5.644193
406.40 5.643601
406.50 5.677209
406.60 5.741149
406.70 5.823565
406.80 5.909858
406.90 5.979364
407.00 6.035107
407.10 6.082693
407.20 6.129431
407.30 6.178703
407.40 6.228898
407.50 6.277936
407.60 6.300024
407.70 6.277086
407.80 6.194864
407.90 6.04706
408.00 5.83991
408.10 5.591502
408.20 5.323289
408.30 5.053675
408.40 4.802106
408.50 4.586797
408.60 4.417502
408.70 4.290378
408.80 4.191639
408.90 4.105531
409.00 4.017621
409.10 3.92137
409.20 3.821861
409.30 3.725013
409.40 3.631272
409.50 3.537496
409.60 3.455254
409.70 3.381586
409.80 3.313344
409.90 3.245362
410.00 3.168371
410.10 3.078637
410.20 3.006614
410.30 2.962601
410.40 2.953693
410.50 2.977307
410.60 3.020684
410.70 3.066733
410.80 3.103457
410.90 3.130536
411.00 3.154255
411.10 3.179454
411.20 3.208127
411.30 3.227383
411.40 3.233248
411.50 3.233248
411.60 3.235662
411.70 3.244189
411.80 3.257558
411.90 3.272405
412.00 3.283152
412.10 3.284827
412.20 3.284827
412.30 3.284827
412.40 3.284827
412.50 3.284827
412.60 3.276928
412.70 3.216009
412.80 3.102938
412.90 2.948861
413.00 2.780246
413.10 2.631527
413.20 2.525721
413.30 2.476319
413.40 2.487173
413.50 2.522799
413.60 2.558184
413.70 2.591373
413.80 2.620488
413.90 2.644327
414.00 2.663147
414.10 2.677501
414.20 2.688372
414.30 2.698547
414.40 2.711479
414.50 2.728514
414.60 2.747858
414.70 2.766677
414.80 2.783618
414.90 2.799355
415.00 2.815081
415.10 2.831221
415.20 2.847909
415.30 2.864684
415.40 2.882372
415.50 2.903514
415.60 2.929436
415.70 2.959487
415.80 2.992023
415.90 3.025075
416.00 3.055898
416.10 3.062619
416.20 3.03706
416.30 2.976826
416.40 2.8867
416.50 2.780607
416.60 2.673955
416.70 2.584394
416.80 2.52091
416.90 2.482143
417.00 2.462183
417.10 2.451712
417.20 2.440171
417.30 2.423012
417.40 2.402311
417.50 2.38127
417.60 2.361196
417.70 2.342531
417.80 2.323262
417.90 2.29814
418.00 2.27659
418.10 2.255716
418.20 2.234918
418.30 2.217872
418.40 2.20729
418.50 2.219212
418.60 2.265476
418.70 2.338759
418.80 2.426805
418.90 2.515927
419.00 2.59582
419.10 2.660002
419.20 2.704975
419.30 2.736867
419.40 2.772799
419.50 2.828787
419.60 2.893993
419.70 2.96341
419.80 3.030762
419.90 3.090751
420.00 3.136541
420.10 3.158629
420.20 3.129085
420.30 3.067996
420.40 2.976771
420.50 2.863233
420.60 2.739855
420.70 2.617517
420.80 2.502605
420.90 2.401743
421.00 2.321417
421.10 2.263962
421.20 2.227163
421.30 2.207907
421.40 2.202042
421.50 2.202042
421.60 2.199628
421.70 2.191101
421.80 2.177732
421.90 2.172484
422.00 2.191912
422.10 2.238187
422.20 2.297542
422.30 2.36026
422.40 2.417331
422.50 2.460735
422.60 2.487979
422.70 2.503637
422.80 2.515718
422.90 2.531614
423.00 2.552549
423.10 2.573943
423.20 2.593531
423.30 2.609188
423.40 2.619736
423.50 2.62469
423.60 2.624776
423.70 2.622558
423.80 2.623599
423.90 2.634576
424.00 2.657415
424.10 2.689371
424.20 2.7264
424.30 2.763636
424.40 2.79618
424.50 2.820784
424.60 2.836774
424.70 2.844678
424.80 2.844872
424.90 2.837376
425.00 2.825011
425.10 2.813497
425.20 2.804854
425.30 2.797239
425.40 2.787302
425.50 2.770236
425.60 2.744314
425.70 2.714262
425.80 2.681726
425.90 2.648675
426.00 2.617852
426.10 2.600122
426.20 2.614133
426.30 2.664833
426.40 2.745801
426.50 2.838813
426.60 2.927975
426.70 2.998165
426.80 3.040639
426.90 3.054565
427.00 3.043639
427.10 3.016518
427.20 2.981321
427.30 2.949208
427.40 2.919714
427.50 2.891717
427.60 2.866158
427.70 2.845868
427.80 2.839325
427.90 2.851395
428.00 2.871847
428.10 2.902841
428.20 2.946374
428.30 3.002323
428.40 3.06941
428.50 3.128301
428.60 3.161291
428.70 3.168257
428.80 3.153039
428.90 3.121718
429.00 3.080202
429.10 3.034547
429.20 2.991451
429.30 2.953764
429.40 2.916839
429.50 2.871433
429.60 2.812997
429.70 2.746134
429.80 2.678781
429.90 2.618793
430.00 2.573003
430.10 2.549828
430.20 2.549828
430.30 2.549828
430.40 2.549828
430.50 2.549828
430.60 2.549828
430.70 2.549828
430.80 2.549828
430.90 2.549828
431.00 2.549828
431.10 2.549828
431.20 2.549828
431.30 2.549828
431.40 2.549828
431.50 2.549828
431.60 2.549828
431.70 2.549828
431.80 2.549828
431.90 2.550392
432.00 2.543641
432.10 2.530202
432.20 2.511541
432.30 2.488964
432.40 2.46393
432.50 2.439707
432.60 2.41817
432.70 2.402512
432.80 2.390431
432.90 2.374535
433.00 2.349974
433.10 2.316004
433.20 2.287883
433.30 2.273816
433.40 2.278798
433.50 2.304906
433.60 2.349741
433.70 2.405932
433.80 2.460973
433.90 2.501073
434.00 2.521053
434.10 2.525368
434.20 2.520272
434.30 2.511801
434.40 2.507024
434.50 2.513088
434.60 2.533246
434.70 2.566161
434.80 2.6081
434.90 2.654674
435.00 2.700538
435.10 2.741018
435.20 2.777155
435.30 2.813061
435.40 2.848505
435.50 2.879242
435.60 2.899998
435.70 2.903669
435.80 2.903669
435.90 2.903669
436.00 2.903669
436.10 2.895142
436.20 2.86168
436.30 2.801151
436.40 2.718539
436.50 2.625526
436.60 2.533313
436.70 2.450872
436.80 2.385591
436.90 2.340925
437.00 2.316068
437.10 2.306074
437.20 2.306074
437.30 2.306074
437.40 2.306074
437.50 2.306074
437.60 2.315624
437.70 2.336356
437.80 2.364126
437.90 2.397073
438.00 2.430662
438.10 2.458756
438.20 2.471733
438.30 2.459299
438.40 2.411883
438.50 2.335698
438.60 2.254197
438.70 2.172049
438.80 2.093938
438.90 2.025149
439.00 1.96949
439.10 1.927145
439.20 1.895109
439.30 1.870912
439.40 1.868576
439.50 1.878195
439.60 1.879765
439.70 1.87721
439.80 1.87721
439.90 1.87721
440.00 1.87721
440.10 1.87721
440.20 1.87721
440.30 1.87721
440.40 1.87721
440.50 1.87721
440.60 1.87721
440.70 1.87721
440.80 1.87721
440.90 1.87721
441.00 1.87721
441.10 1.87721
441.20 1.87721
441.30 1.878887
441.40 1.878887
441.50 1.878887
441.60 1.878887
441.70 1.878887
441.80 1.878887
441.90 1.868723
442.00 1.845299
442.10 1.810789
442.20 1.770095
442.30 1.729954
442.40 1.697918
442.50 1.678736
442.60 1.673029
442.70 1.673029
442.80 1.681722
442.90 1.702053
443.00 1.732107
443.10 1.765794
443.20 1.780683
443.30 1.762564
443.40 1.713493
443.50 1.646806
443.60 1.5665
443.70 1.479337
443.80 1.394142
443.90 1.319224
444.00 1.257586
444.10 1.20696
444.20 1.164157
444.30 1.125217
444.40 1.084518
444.50 1.036814
444.60 0.9813222
444.70 0.9216851
444.80 0.8626113
444.90 0.8077957
445.00 0.7585715
445.10 0.7163403
445.20 0.6794306
445.30 0.6379587
445.40 0.5947633
445.50 0.5599516
445.60 0.5391957
445.70 0.5355241
445.80 0.5355241
445.90 0.5355241
446.00 0.5355241
446.10 0.5355241
446.20 0.5355241
446.30 0.5355241
446.40 0.5355241
446.50 0.535941
446.60 0.5403452
446.70 0.5513778
446.80 0.5701861
446.90 0.5957157
447.00 0.6278539
447.10 0.6679134
447.20 0.7156086
447.30 0.769013
447.40 0.8262332
447.50 0.886347
447.60 0.9390724
447.70 0.9820642
447.80 1.014917
447.90 1.037349
448.00 1.048886
448.10 1.050379
448.20 1.047189
448.30 1.048884
448.40 1.064597
448.50 1.088731
448.60 1.10339
448.70 1.113115
448.80 1.122991
448.90 1.133695
449.00 1.139755
449.10 1.139755
449.20 1.139755
449.30 1.139755
449.40 1.12453
449.50 1.102952
449.60 1.094613
449.70 1.094613
449.80 1.094613
449.90 1.094613
450.00 1.094613
450.10 1.100452
450.20 1.132793
450.30 1.190853
450.40 1.279168
450.50 1.39706
450.60 1.537104
450.70 1.688809
450.80 1.839179
450.90 1.976157
451.00 2.088388
451.10 2.167315
451.20 2.211827
451.30 2.226236
451.40 2.226236
451.50 2.226236
451.60 2.226236
451.70 2.226236
451.80 2.226236
451.90 2.226236
452.00 2.226236
452.10 2.226236
452.20 2.226236
452.30 2.226236
452.40 2.226236
452.50 2.226236
452.60 2.241983
452.70 2.277477
452.80 2.315911
452.90 2.345942
453.00 2.362135
453.10 2.366505
453.20 2.368115
453.30 2.377072
453.40 2.391661
453.50 2.400942
453.60 2.403429
453.70 2.403429
453.80 2.403429
453.90 2.403429
454.00 2.403429
454.10 2.403429
454.20 2.403429
454.30 2.413515
454.40 2.444001
454.50 2.491624
454.60 2.549584
454.70 2.609056
454.80 2.661141
454.90 2.69945
455.00 2.72223
455.10 2.72818
455.20 2.720909
455.30 2.717314
455.40 2.717314
455.50 2.72051
455.60 2.73254
455.70 2.750212
455.80 2.76612
455.90 2.771556
456.00 2.771556
456.10 2.771556
456.20 2.771556
456.30 2.771556
456.40 2.771556
456.50 2.77114
456.60 2.766735
456.70 2.755703
456.80 2.736894
456.90 2.711365
457.00 2.679227
457.10 2.639167
457.20 2.591472
457.30 2.538067
457.40 2.480847
457.50 2.420734
457.60 2.358458
457.70 2.294247
457.80 2.227845
457.90 2.160397
458.00 2.094818
458.10 2.034238
458.20 1.980918
458.30 1.935707
458.40 1.900323
458.50 1.87619
458.60 1.861531
458.70 1.851806
458.80 1.841929
458.90 1.831225
459.00 1.825165
459.10 1.825165
459.20 1.825165
459.30 1.825165
459.40 1.825165
459.50 1.825165
459.60 1.825165
459.70 1.825165
459.80 1.825165
459.90 1.825165
460.00 1.825165
460.10 1.819327
460.20 1.786986
460.30 1.728926
460.40 1.640611
460.50 1.527285
460.60 1.413298
460.70 1.300312
460.80 1.190885
460.90 1.086814
461.00 0.9901233
461.10 0.9111972
461.20 0.866685
461.30 0.8505996
461.40 0.8505996
461.50 0.8505996
461.60 0.8505996
461.70 0.8505996
461.80 0.8505996
461.90 0.8505996
462.00 0.8505996
462.10 0.8505996
462.20 0.8505996
462.30 0.8505996
462.40 0.8505996
462.50 0.8505996
462.60 0.8348526
462.70 0.7993581
462.80 0.7522308
462.90 0.7110499
463.00 0.6991791
463.10 0.7261288
463.20 0.7916665
463.30 0.8891208
463.40 1.005944
463.50 1.125799
463.60 1.236479
463.70 1.324627
463.80 1.383123
463.90 1.413328
464.00 1.42347
464.10 1.42672
464.20 1.433434
464.30 1.438349
464.40 1.434204
464.50 1.425072
464.60 1.416222
464.70 1.412669
464.80 1.418003
464.90 1.43401
465.00 1.459365
465.10 1.490804
465.20 1.523648
465.30 1.550817
465.40 1.573641
465.50 1.589191
465.60 1.588958
465.70 1.571286
465.80 1.555377
465.90 1.549941
466.00 1.549941
466.10 1.549941
466.20 1.549941
466.30 1.549941
466.40 1.549941
466.50 1.549941
466.60 1.549941
466.70 1.564027
466.80 1.589979
466.90 1.616396
467.00 1.633459
467.10 1.637224
467.20 1.637224
467.30 1.637224
467.40 1.637224
467.50 1.637224
467.60 1.637224
467.70 1.637224
467.80 1.637224
467.90 1.637224
468.00 1.637224
468.10 1.637224
468.20 1.637224
468.30 1.637224
468.40 1.637224
468.50 1.637224
468.60 1.637224
468.70 1.637224
468.80 1.637224
468.90 1.637224
469.00 1.637224
469.10 1.637224
469.20 1.637224
469.30 1.637224
469.40 1.637224
469.50 1.637224
469.60 1.637224
469.70 1.637224
469.80 1.637224
469.90 1.637224
470.00 1.637224
470.10 1.637224
470.20 1.637224
470.30 1.638301
470.40 1.645709
470.50 1.651323
470.60 1.634493
470.70 1.603017
470.80 1.56719
470.90 1.537245
471.00 1.522378
471.10 1.522378
471.20 1.522378
471.30 1.522378
471.40 1.522378
471.50 1.522378
471.60 1.522378
471.70 1.522378
471.80 1.522378
471.90 1.522378
472.00 1.522378
472.10 1.522378
472.20 1.522378
472.30 1.522378
472.40 1.522378
472.50 1.522378
472.60 1.522378
472.70 1.533803
472.80 1.561127
472.90 1.592317
473.00 1.605895
473.10 1.591438
473.20 1.545061
473.30 1.468972
473.40 1.374989
473.50 1.283356
473.60 1.211846
473.70 1.169976
473.80 1.16001
473.90 1.175836
474.00 1.203852
474.10 1.223255
474.20 1.216542
474.30 1.20154
474.40 1.175199
474.50 1.136708
474.60 1.087598
474.70 1.031679
474.80 0.9742599
474.90 0.9199434
475.00 0.8718087
475.10 0.831544
475.20 0.7986997
475.30 0.7715307
475.40 0.7570855
475.50 0.7531744
475.60 0.7605179
475.70 0.7814939
475.80 0.801121
475.90 0.8159318
476.00 0.8230524
476.10 0.8230524
476.20 0.8230524
476.30 0.8230524
476.40 0.8230524
476.50 0.8230524
476.60 0.8230524
476.70 0.8089665
476.80 0.7830144
476.90 0.7565978
477.00 0.7395345
477.10 0.7357698
477.20 0.7357698
477.30 0.7357698
477.40 0.7357698
477.50 0.7357698
477.60 0.7357698
477.70 0.7460862
477.80 0.7616383
477.90 0.7794485
478.00 0.7976843
478.10 0.8137059
478.20 0.8255244
478.30 0.8333152
478.40 0.8387371
478.50 0.8433813
478.60 0.8487629
478.70 0.8561656
478.80 0.8664883
478.90 0.8798178
479.00 0.8946374
479.10 0.9085781
479.20 0.9195865
479.30 0.9260681
479.40 0.9282305
479.50 0.9285464
479.60 0.930611
479.70 0.9373691
479.80 0.9502501
479.90 0.9701161
480.00 0.99711
480.10 1.029104
480.20 1.061454
480.30 1.086815
480.40 1.095056
480.50 1.08897
480.60 1.079743
480.70 1.0725
480.80 1.067384
480.90 1.075885
481.00 1.114503
481.10 1.187833
481.20 1.295135
481.30 1.429252
481.40 1.577366
481.50 1.724744
481.60 1.857513
481.70 1.965081
481.80 2.038889
481.90 2.072759
482.00 2.072759
482.10 2.072759
482.20 2.072759
482.30 2.072759
482.40 2.072759
482.50 2.072759
482.60 2.072759
482.70 2.061334
482.80 2.03401
482.90 1.995331
483.00 1.957364
483.10 1.918437
483.20 1.879909
483.30 1.846275
483.40 1.818065
483.50 1.793012
483.60 1.771286
483.70 1.755425
483.80 1.747909
483.90 1.749243
484.00 1.758293
484.10 1.775715
484.20 1.802319
484.30 1.811546
484.40 1.811546
484.50 1.811546
484.60 1.811546
484.70 1.811546
484.80 1.811546
484.90 1.811546
485.00 1.811546
485.10 1.811546
485.20 1.811546
485.30 1.811546
485.40 1.803167
485.50 1.788332
485.60 1.769192
485.70 1.748216
485.80 1.728589
485.90 1.713778
486.00 1.706658
486.10 1.706658
486.20 1.711903
486.30 1.72559
486.40 1.749168
486.50 1.781038
486.60 1.817332
486.70 1.853924
486.80 1.887255
486.90 1.915026
487.00 1.936176
487.10 1.949824
487.20 1.955839
487.30 1.955839
487.40 1.955839
487.50 1.955839
487.60 1.955839
487.70 1.945523
487.80 1.92997
487.90 1.91216
488.00 1.893924
488.10 1.877903
488.20 1.866084
488.30 1.862213
488.40 1.863297
488.50 1.865512
488.60 1.866307
488.70 1.864112
488.80 1.855986
488.90 1.842656
489.00 1.827836
489.10 1.813896
489.20 1.802887
489.30 1.796406
489.40 1.794243
489.50 1.793927
489.60 1.791863
489.70 1.793373
489.80 1.804422
489.90 1.820876
490.00 1.836554
490.10 1.846979
490.20 1.852487
490.30 1.856808
490.40 1.862915
490.50 1.871449
490.60 1.875968
490.70 1.875968
490.80 1.875968
490.90 1.864505
491.00 1.825213
491.10 1.751883
491.20 1.65059
491.30 1.541472
491.40 1.440286
491.50 1.358256
491.60 1.301351
491.70 1.272191
491.80 1.271465
491.90 1.298341
492.00 1.343015
492.10 1.371744
492.20 1.38828
492.30 1.399211
492.40 1.411896
492.50 1.429683
492.60 1.451995
492.70 1.477351
492.80 1.503589
492.90 1.528233
493.00 1.544454
493.10 1.556425
493.20 1.564751
493.30 1.567518
493.40 1.56276
493.50 1.55031
493.60 1.530379
493.70 1.499962
493.80 1.462521
493.90 1.422723
494.00 1.385664
494.10 1.355706
494.20 1.336408
494.30 1.329408
494.40 1.329408
494.50 1.329408
494.60 1.329408
494.70 1.329408
494.80 1.329408
494.90 1.329408
495.00 1.329408
495.10 1.329408
495.20 1.329408
495.30 1.329408
495.40 1.329515
495.50 1.329635
495.60 1.329635
495.70 1.329635
495.80 1.329635
495.90 1.329735
496.00 1.331507
496.10 1.336421
496.20 1.340233
496.30 1.338356
496.40 1.325489
496.50 1.299121
496.60 1.262828
496.70 1.226236
496.80 1.192905
496.90 1.165134
497.00 1.143984
497.10 1.130336
497.20 1.124321
497.30 1.124321
497.40 1.124321
497.50 1.124321
497.60 1.124321
497.70 1.124321
497.80 1.124321
497.90 1.124321
498.00 1.124321
498.10 1.124321
498.20 1.124321
498.30 1.120402
498.40 1.113895
498.50 1.107037
498.60 1.10086
498.70 1.095652
498.80 1.093456
498.90 1.093456
499.00 1.093456
499.10 1.093456
499.20 1.093456
499.30 1.093456
499.40 1.093456
499.50 1.093456
499.60 1.093456
499.70 1.085187
499.80 1.064101
499.90 1.03455
500.00 1
500.10 0.9645513
500.20 0.9309802
500.30 0.9013771
500.40 0.8796212
500.50 0.8669923
500.60 0.8624742
500.70 0.8624742
500.80 0.8624742
500.90 0.8624742
501.00 0.8628544
501.10 0.867222
501.20 0.868358
501.30 0.8519105
501.40 0.8135066
501.50 0.7546729
501.60 0.6812206
501.70 0.6028121
501.80 0.5297297
501.90 0.4689844
502.00 0.4243104
502.10 0.3955805
502.20 0.3790453
502.30 0.3681143
502.40 0.3554289
502.50 0.3389308
502.60 0.3241612
502.70 0.3125236
502.80 0.3049201
502.90 0.3007112
503.00 0.2998232
503.10 0.3038307
503.20 0.3130997
503.30 0.3266535
503.40 0.3458896
503.50 0.3709587
503.60 0.3989291
503.70 0.4284778
503.80 0.4527785
503.90 0.4682067
504.00 0.4736562
504.10 0.4707996
504.20 0.4634941
504.30 0.4612677
504.40 0.4612677
504.50 0.4612677
504.60 0.4612677
504.70 0.4612677
504.80 0.4612677
504.90 0.4612677
505.00 0.4612677
505.10 0.4612677
505.20 0.4655925
505.30 0.4783933
505.40 0.4955404
505.50 0.5111258
505.60 0.5204855
505.70 0.5219744
505.80 0.5219744
505.90 0.5218748
506.00 0.528714
506.10 0.5506628
506.20 0.5903417
506.30 0.6485147
506.40 0.7232891
506.50 0.8103878
506.60 0.9007258
506.70 0.9799216
506.80 1.042035
506.90 1.085092
507.00 1.110435
507.10 1.122554
507.20 1.126946
507.30 1.12708
507.40 1.12708
507.50 1.12708
507.60 1.12708
507.70 1.12888
507.80 1.132562
507.90 1.135504
508.00 1.135504
508.10 1.135504
508.20 1.135504
508.30 1.135504
508.40 1.135504
508.50 1.135504
508.60 1.135504
508.70 1.135504
508.80 1.135504
508.90 1.135504
509.00 1.138991
509.10 1.146831
509.20 1.154667
509.30 1.160174
509.40 1.160174
509.50 1.160174
509.60 1.160174
509.70 1.160174
509.80 1.157331
509.90 1.150562
510.00 1.142439
510.10 1.135468
510.20 1.131182
510.30 1.130026
510.40 1.130026
510.50 1.130026
510.60 1.130026
510.70 1.130026
510.80 1.130026
510.90 1.130026
511.00 1.129645
511.10 1.125278
511.20 1.118133
511.30 1.109581
511.40 1.101058
511.50 1.094543
511.60 1.092132
511.70 1.092132
511.80 1.092132
511.90 1.092132
512.00 1.092132
512.10 1.092132
512.20 1.092132
512.30 1.092132
512.40 1.092132
512.50 1.091673
512.60 1.089705
512.70 1.084528
512.80 1.075404
512.90 1.062515
513.00 1.045726
513.10 1.0258
513.20 1.004216
513.30 0.9811802
513.40 0.9574823
513.50 0.9324131
513.60 0.9044427
513.70 0.8830331
513.80 0.8782869
513.90 0.8952346
514.00 0.9348169
514.10 0.9936658
514.20 1.065113
514.30 1.135472
514.40 1.198517
514.50 1.249659
514.60 1.289178
514.70 1.323248
514.80 1.359808
514.90 1.403826
515.00 1.455623
515.10 1.511929
515.20 1.56364
515.30 1.602049
515.40 1.626814
515.50 1.640709
515.60 1.647481
515.70 1.650076
515.80 1.650076
515.90 1.650076
516.00 1.641465
516.10 1.614602
516.20 1.56917
516.30 1.50602
516.40 1.430584
516.50 1.351593
516.60 1.278041
516.70 1.217721
516.80 1.175629
516.90 1.152582
517.00 1.145635
517.10 1.149308
517.20 1.158283
517.30 1.169333
517.40 1.176885
517.50 1.178689
517.60 1.178689
517.70 1.176889
517.80 1.173207
517.90 1.170265
518.00 1.170265
518.10 1.170265
518.20 1.170265
518.30 1.170265
518.40 1.170265
518.50 1.170265
518.60 1.170265
518.70 1.170265
518.80 1.170265
518.90 1.170265
519.00 1.166779
519.10 1.164426
519.20 1.170356
519.30 1.179265
519.40 1.190464
519.50 1.199287
519.60 1.207019
519.70 1.215006
519.80 1.225609
519.90 1.240949
520.00 1.262424
520.10 1.291227
520.20 1.327091
520.30 1.367618
520.40 1.408789
520.50 1.446376
520.60 1.477637
520.70 1.501727
520.80 1.518899
520.90 1.52998
521.00 1.53701
521.10 1.543146
521.20 1.550719
521.30 1.560535
521.40 1.571503
521.50 1.580894
521.60 1.585452
521.70 1.585452
521.80 1.585452
521.90 1.585452
522.00 1.585452
522.10 1.585452
522.20 1.585452
522.30 1.585817
522.40 1.588645
522.50 1.589573
522.60 1.584
522.70 1.575458
522.80 1.565948
522.90 1.55671
523.00 1.548178
523.10 1.540504
523.20 1.534512
523.30 1.532239
523.40 1.532239
523.50 1.537774
523.60 1.552084
523.70 1.567512
523.80 1.5772
523.90 1.577981
524.00 1.566273
524.10 1.536677
524.20 1.484616
524.30 1.414256
524.40 1.351212
524.50 1.30007
524.60 1.260551
524.70 1.226481
524.80 1.189921
524.90 1.145902
525.00 1.094105
525.10 1.0378
525.20 0.981764
525.30 0.9356556
525.40 0.8970061
525.50 0.8674055
525.60 0.8512737
525.70 0.8471891
525.80 0.8471891
525.90 0.8471891
526.00 0.8471891
526.10 0.8471891
526.20 0.8454373
526.30 0.8398919
526.40 0.8303511
526.50 0.8180834
526.60 0.8062746
526.70 0.7991414
526.80 0.800757
526.90 0.8143995
527.00 0.8414634
527.10 0.8769896
527.20 0.9095601
527.30 0.92851
527.40 0.928892
527.50 0.9270879
527.60 0.9270879
527.70 0.9270879
527.80 0.9270879
527.90 0.9270879
528.00 0.9270879
528.10 0.9270879
528.20 0.9270879
528.30 0.9270879
528.40 0.9270879
528.50 0.9270879
528.60 0.9270879
528.70 0.9270879
528.80 0.9324143
528.90 0.9445915
529.00 0.9599968
529.10 0.9706985
529.20 0.9723007
529.30 0.9707805
529.40 0.9688785
529.50 0.9651242
529.60 0.9577121
529.70 0.9497252
529.80 0.9391222
529.90 0.9237821
530.00 0.9023071
530.10 0.8735041
530.20 0.8376399
530.30 0.7971135
530.40 0.7559428
530.50 0.7183554
530.60 0.6870941
530.70 0.663004
530.80 0.6458321
530.90 0.6347509
531.00 0.628405
531.10 0.6244059
531.20 0.6188598
531.30 0.6099885
531.40 0.599021
531.50 0.5896296
531.60 0.5850722
531.70 0.5850722
531.80 0.5850722
531.90 0.5858313
532.00 0.5935316
532.10 0.606985
532.20 0.6226409
532.30 0.634725
532.40 0.6369944
532.50 0.6352356
532.60 0.6352356
532.70 0.6352356
532.80 0.6352356
532.90 0.6352356
533.00 0.6377448
533.10 0.647985
533.20 0.662351
533.30 0.6746249
533.40 0.679194
533.50 0.6736585
533.60 0.6593489
533.70 0.6357818
533.80 0.6029659
533.90 0.5622425
534.00 0.5187708
534.10 0.4822559
534.20 0.4628702
534.30 0.4628702
534.40 0.4628702
534.50 0.4628702
534.60 0.4628702
534.70 0.4628702
534.80 0.4628702
534.90 0.4628702
535.00 0.4631305
535.10 0.4631305
535.20 0.4631305
535.30 0.4580285
535.40 0.4546592
535.50 0.4546592
535.60 0.4546592
535.70 0.4546592
535.80 0.4546592
535.90 0.4546592
536.00 0.4546592
536.10 0.4546592
536.20 0.453107
536.30 0.4518192
536.40 0.4513117
536.50 0.4499677
536.60 0.4449902
536.70 0.4332478
536.80 0.4116112
536.90 0.3792473
537.00 0.3367604
537.10 0.2894625
537.20 0.2478263
537.30 0.2207875
537.40 0.2128535
537.50 0.2128535
537.60 0.2128535
537.70 0.2128535
537.80 0.2128535
537.90 0.2128535
538.00 0.2128535
538.10 0.2128535
538.20 0.2128535
538.30 0.2221461
538.40 0.2446708
538.50 0.2760853
538.60 0.3109234
538.70 0.3435256
538.80 0.3643201
538.90 0.3706861
539.00 0.3673642
539.10 0.3589226
539.20 0.349648
539.30 0.3432569
539.40 0.3419461
539.50 0.3465187
539.60 0.3566364
539.70 0.3662973
539.80 0.3733985
539.90 0.376789
540.00 0.376789
540.10 0.376789
540.20 0.376789
540.30 0.3788763
540.40 0.3890046
540.50 0.4074217
540.60 0.4321804
540.70 0.4583911
540.80 0.4794648
540.90 0.488322
541.00 0.4876385
541.10 0.4855018
541.20 0.4834749
541.30 0.4825296
541.40 0.4825296
541.50 0.4825296
541.60 0.4825296
541.70 0.4825296
541.80 0.4825296
541.90 0.4822459
542.00 0.4845728
542.10 0.484344
542.20 0.4785708
542.30 0.4661215
542.40 0.4610235
542.50 0.4610235
542.60 0.4610235
542.70 0.4610235
542.80 0.4610235
542.90 0.4610235
543.00 0.4585143
543.10 0.4482741
543.20 0.4339081
543.30 0.4216342
543.40 0.4170651
543.50 0.4170651
543.60 0.4170651
543.70 0.4170651
543.80 0.4170651
543.90 0.4170651
544.00 0.4170651
544.10 0.4170651
544.20 0.4170651
544.30 0.4170651
544.40 0.4170651
544.50 0.4170651
544.60 0.4241049
544.70 0.4438235
544.80 0.4767199
544.90 0.5207859
545.00 0.5711232
545.10 0.6213327
545.20 0.6634193
545.30 0.6916998
545.40 0.7047339
545.50 0.7053187
545.60 0.7053187
545.70 0.7053187
545.80 0.7053187
545.90 0.7071239
546.00 0.7107667
546.10 0.7109263
546.20 0.7109263
546.30 0.7109263
546.40 0.7109263
546.50 0.7109263
546.60 0.7109263
546.70 0.7109263
546.80 0.7109263
546.90 0.7096374
547.00 0.7118294
547.10 0.7285463
547.20 0.7558196
547.30 0.787054
547.40 0.8159055
547.50 0.8344725
547.60 0.8414831
547.70 0.8414831
547.80 0.8414831
547.90 0.8414831
548.00 0.8414831
548.10 0.8414831
548.20 0.8435392
548.30 0.8362114
548.40 0.8136868
548.50 0.7822723
548.60 0.7474341
548.70 0.7148319
548.80 0.688711
548.90 0.6701678
549.00 0.6580844
549.10 0.6503371
549.20 0.6442431
549.30 0.6398459
549.40 0.639324
549.50 0.6347516
549.60 0.6243135
549.70 0.6146527
549.80 0.6075514
549.90 0.604161
550.00 0.7482143
550.10 0.8000598
550.20 0.8789951
550.30 0.9648193
550.40 1.036948
550.50 1.083366
550.60 1.100892
550.70 1.100892
550.80 1.100892
550.90 1.100892
551.00 1.100892
551.10 1.100892
551.20 1.106032
551.30 1.110944
551.40 1.110944
551.50 1.110944
551.60 1.093345
551.70 1.044049
551.80 0.9618074
551.90 0.8516425
552.00 0.7251482
552.10 0.5996244
552.20 0.494408
552.30 0.4289745
552.40 0.4150511
552.50 0.4262603
552.60 0.4262603
552.70 0.4262603
552.80 0.4262603
552.90 0.4217473
553.00 0.4126402
553.10 0.4122412
553.20 0.4122412
553.30 0.4288696
553.40 0.4574178
553.50 0.4887683
553.60 0.5116083
553.70 0.5136193
553.80 0.5136193
553.90 0.5136193
554.00 0.5007089
554.10 0.4488634
554.20 0.3699281
554.30 0.2992154
554.40 0.2549335
554.50 0.2448706
554.60 0.2685669
554.70 0.3106751
554.80 0.3512036
554.90 0.3897004
555.00 0.4295721
555.10 0.4756952
555.20 0.526683
555.30 0.5606251
555.40 0.5606251
555.50 0.5606251
555.60 0.5606251
555.70 0.5606251
555.80 0.5606251
555.90 0.5606251
556.00 0.5606251
556.10 0.5606251
556.20 0.5606251
556.30 0.5553574
556.40 0.5366955
556.50 0.5917993
556.60 0.7074707
556.70 0.8221629
556.80 0.9285312
556.90 1.029322
557.00 1.125242
557.10 1.217105
557.20 1.304205
557.30 1.369023
557.40 1.415377
557.50 1.452133
557.60 1.491798
557.70 1.551475
557.80 1.622428
557.90 1.71339
558.00 1.831463
558.10 1.979156
558.20 2.152679
558.30 2.327124
558.40 2.491936
558.50 2.637524
558.60 2.753618
558.70 2.832281
558.80 2.871643
558.90 2.876451
559.00 2.850172
559.10 2.804049
559.20 2.747921
559.30 2.709067
559.40 2.709067
559.50 2.709067
559.60 2.709067
559.70 2.709067
559.80 2.709116
559.90 2.727956
560.00 2.772921
560.10 2.857462
560.20 2.987749
560.30 3.160721
560.40 3.368099
560.50 3.530031
560.60 3.649428
560.70 3.754012
560.80 3.829694
560.90 3.857407
561.00 3.829597
561.10 3.751474
561.20 3.664375
561.30 3.582928
561.40 3.508026
561.50 3.439919
561.60 3.377415
561.70 3.315727
561.80 3.244773
561.90 3.153811
562.00 3.035738
562.10 2.888045
562.20 2.775796
562.30 2.72173
562.40 2.727649
562.50 2.780857
562.60 2.85929
562.70 2.939575
562.80 2.999749
562.90 3.025359
563.00 3.017078
563.10 3.017078
563.20 3.017078
563.30 3.017078
563.40 3.017078
563.50 3.041235
563.60 3.08755
563.70 3.148904
563.80 3.215095
563.90 3.261054
564.00 3.279212
564.10 3.258596
564.20 3.194711
564.30 3.088125
564.40 2.941784
564.50 2.762103
564.60 2.56007
564.70 2.345589
564.80 2.163538
564.90 2.035034
565.00 1.966925
565.10 1.953184
565.20 1.953184
565.30 1.953184
565.40 1.953184
565.50 1.953184
565.60 1.953184
565.70 1.953184
565.80 1.953184
565.90 1.959249
566.00 1.997754
566.10 2.061517
566.20 2.082638
566.30 2.035056
566.40 1.913824
566.50 1.733504
566.60 1.527226
566.70 1.337407
566.80 1.206837
566.90 1.167075
567.00 1.226169
567.10 1.33078
567.20 1.472591
567.30 1.641579
567.40 1.820097
567.50 1.961743
567.60 2.04909
567.70 2.079096
567.80 2.062163
567.90 2.009683
568.00 1.94656
568.10 1.882636
568.20 1.816233
568.30 1.749847
568.40 1.68881
568.50 1.638784
568.60 1.605748
568.70 1.600954
568.80 1.600954
568.90 1.600954
569.00 1.602314
569.10 1.617706
569.20 1.635507
569.30 1.638217
569.40 1.638217
569.50 1.638217
569.60 1.638217
569.70 1.638217
569.80 1.638217
569.90 1.632152
570.00 1.593648
570.10 1.529884
570.20 1.44749
570.30 1.359581
570.40 1.282236
570.50 1.227405
570.60 1.197932
570.70 1.186695
570.80 1.177202
570.90 1.14805
571.00 1.098283
571.10 1.020653
571.20 0.9157673
571.30 0.7920842
571.40 0.6652835
571.50 0.5564144
571.60 0.4828417
571.70 0.4499656
571.80 0.4524498
571.90 0.4789877
572.00 0.4970126
572.10 0.4970126
572.20 0.4970126
572.30 0.4970126
572.40 0.4970126
572.50 0.4970126
572.60 0.4970126
572.70 0.4970126
572.80 0.4970126
572.90 0.4970126
573.00 0.4956525
573.10 0.4802604
573.20 0.4624592
573.30 0.4597488
573.40 0.4597488
573.50 0.4597488
573.60 0.4597488
573.70 0.4597488
573.80 0.4597488
573.90 0.4817974
574.00 0.527494
574.10 0.5805802
574.20 0.6296202
574.30 0.6728683
574.40 0.7119785
574.50 0.7476034
574.60 0.7792418
574.70 0.8049021
574.80 0.8196563
574.90 0.8196563
575.00 0.8050161
575.10 0.778035
575.20 0.7411095
575.30 0.6958048
575.40 0.644087
575.50 0.5871545
575.60 0.5270645
575.70 0.4685797
575.80 0.4218388
575.90 0.4212228
576.00 0.468631
576.10 0.5496142
576.20 0.6313495
576.30 0.6998559
576.40 0.7450056
576.50 0.7599535
576.60 0.7599535
576.70 0.7599535
576.80 0.7599535
576.90 0.7599535
577.00 0.7599535
577.10 0.7599535
577.20 0.7599535
577.30 0.7599535
577.40 0.7888535
577.50 0.8529325
577.60 0.947219
577.70 1.063044
577.80 1.189659
577.90 1.296873
578.00 1.377227
578.10 1.441307
578.20 1.497034
578.30 1.544605
578.40 1.582443
578.50 1.611284
578.60 1.633067
578.70 1.648179
578.80 1.650771
578.90 1.650771
579.00 1.650771
579.10 1.650771
579.20 1.650771
579.30 1.650771
579.40 1.650771
579.50 1.650771
579.60 1.650771
579.70 1.650771
579.80 1.645721
579.90 1.613727
580.00 1.567735
580.10 1.486751
580.20 1.405016
580.30 1.33651
580.40 1.29136
580.50 1.276412
580.60 1.276412
580.70 1.276412
580.80 1.276412
580.90 1.276412
581.00 1.276412
581.10 1.294275
581.20 1.325126
581.30 1.356438
581.40 1.349839
581.50 1.289612
581.60 1.195325
581.70 1.079501
581.80 0.9528847
581.90 0.8236226
582.00 0.6975716
582.10 0.5804059
582.20 0.4756385
582.30 0.3939125
582.40 0.3475482
582.50 0.3211226
582.60 0.297516
582.70 0.2611885
582.80 0.2438423
582.90 0.2438423
583.00 0.2438423
583.10 0.2438423
583.20 0.2438423
583.30 0.2438423
583.40 0.2438423
583.50 0.2438423
583.60 0.2438423
583.70 0.2438423
583.80 0.2438423
583.90 0.2469065
584.00 0.2653975
584.10 0.320216
584.20 0.3874427
584.30 0.4659945
584.40 0.5557507
584.50 0.6602573
584.60 0.7820686
584.70 0.9156392
584.80 1.050944
584.90 1.177948
585.00 1.286691
585.10 1.350869
585.20 1.371862
585.30 1.362285
585.40 1.339984
585.50 1.336132
585.60 1.336132
585.70 1.336132
585.80 1.336132
585.90 1.336132
586.00 1.343559
586.10 1.407336
586.20 1.533696
586.30 1.704035
586.40 1.880091
586.50 2.039259
586.60 2.159916
586.70 2.227634
586.80 2.227634
586.90 2.227634
587.00 2.227634
587.10 2.227634
587.20 2.227634
587.30 2.227634
587.40 2.227634
587.50 2.227634
587.60 2.227634
587.70 2.227634
587.80 2.227634
587.90 2.218323
588.00 2.180392
588.10 2.125573
588.20 2.058347
588.30 2.033161
588.40 2.102895
588.50 2.218769
588.60 2.339438
588.70 2.428052
588.80 2.441064
588.90 2.340723
589.00 2.23198
589.10 2.149938
589.20 2.098094
589.30 2.076359
589.40 2.076359
589.50 2.076359
589.60 2.076359
589.70 2.076359
589.80 2.076359
589.90 2.076359
590.00 2.068932
590.10 2.005155
590.20 1.878796
590.30 1.699364
590.40 1.503654
590.50 1.345028
590.60 1.248173
590.70 1.230996
590.80 1.27035
590.90 1.27035
591.00 1.27035
591.10 1.27035
591.20 1.27035
591.30 1.27035
591.40 1.27035
591.50 1.27035
591.60 1.27035
591.70 1.27035
591.80 1.27035
591.90 1.286885
592.00 1.360724
592.10 1.4502
592.20 1.517183
592.30 1.485004
592.40 1.325514
592.50 1.105133
592.60 0.8626529
592.70 0.6404685
592.80 0.492152
592.90 0.4654894
593.00 0.4654894
593.10 0.4654894
593.20 0.4654894
593.30 0.4654894
593.40 0.4654894
593.50 0.4654894
593.60 0.4654894
593.70 0.4654894
593.80 0.4794307
593.90 0.5282057
594.00 0.6024134
594.10 0.6823207
594.20 0.7406207
594.30 0.7538979
594.40 0.7429682
594.50 0.7043847
594.60 0.6507678
594.70 0.5957832
594.80 0.5564286
594.90 0.5564286
595.00 0.5564286
595.10 0.5564286
595.20 0.5564286
595.30 0.5564286
595.40 0.5564286
595.50 0.5564286
595.60 0.5564286
595.70 0.5564286
595.80 0.5564286
595.90 0.5398942
596.00 0.4660553
596.10 0.3765786
596.20 0.3095963
596.30 0.2884085
596.40 0.2884085
596.50 0.2884085
596.60 0.2884085
596.70 0.2884085
596.80 0.2884085
596.90 0.2884085
597.00 0.2884085
597.10 0.2884085
597.20 0.2884085
597.30 0.2884085
597.40 0.2884085
597.50 0.2884085
597.60 0.2884085
597.70 0.2884085
597.80 0.2744673
597.90 0.2256922
598.00 0.1514845
598.10 0.07157726
598.20 0.01327728
598.30 0
598.40 0
598.50 0
598.60 0
598.70 0.002582585
598.80 0.05201944
598.90 0.1247808
599.00 0.1946728
599.10 0.239663
599.20 0.2467613
599.30 0.2467613
599.40 0.2467613
599.50 0.2467613
599.60 0.2467613
599.70 0.2467613
599.80 0.2467613
599.90 0.2730118
600.00 0
600.10 0
600.20 0
600.30 0
600.40 0
600.50 0
600.60 0
600.70 0.1033034
600.80 1.977474
600.90 2.910455
601.00 2.79568
601.10 1.799609
601.20 0.2839305
601.30 0
601.40 0
601.50 0
601.60 0
601.70 0
601.80 0
601.90 1.050021
602.00 2.34385
602.10 2.354473
602.20 0.5924204
602.30 0
602.40 0
602.50 0
602.60 0
602.70 0
602.80 0
602.90 0
603.00 0
603.10 0
603.20 0
603.30 0
603.40 0
603.50 0
603.60 0
603.70 1.066545
603.80 1.724261
603.90 2.276584
604.00 2.70286
604.10 3.009823
604.20 3.139261
604.30 2.914995
604.40 2.264142
604.50 1.144833
604.60 0
604.70 0
604.80 0
604.90 0
605.00 0
605.10 0
605.20 0
605.30 0
605.40 0
605.50 0
605.60 0
605.70 0
605.80 0
605.90 0
606.00 0
606.10 1.862385
606.20 4.20424
606.30 5.964109
606.40 7.021078
606.50 7.18746
606.60 6.791078
606.70 6.432702
606.80 6.338617
606.90 6.391036
607.00 6.477307
607.10 6.558829
607.20 6.554677
607.30 6.403799
607.40 6.141154
607.50 5.563683
607.60 4.377203
607.70 2.58305
607.80 0.443073
607.90 0
608.00 0
608.10 0
608.20 0
608.30 0
608.40 0
608.50 0
608.60 0
608.70 0
608.80 0.1094931
608.90 0.555536
609.00 0.7927827
609.10 0.6366729
609.20 0
609.30 0
609.40 0
609.50 0
609.60 0
609.70 0
609.80 0
609.90 0
610.00 0
610.10 0
610.20 0
610.30 0
610.40 0
610.50 0
610.60 0
610.70 0
610.80 0
610.90 0
611.00 0
611.10 0
611.20 0
611.30 0
611.40 0
611.50 0
611.60 0
611.70 0
611.80 0
611.90 0
612.00 0
612.10 1.013105
612.20 1.976512
612.30 2.368281
612.40 2.242287
612.50 1.605349
612.60 0.5170398
612.70 0
612.80 0
612.90 0
613.00 0
613.10 0
613.20 0
613.30 0
613.40 1.542784
613.50 3.765468
613.60 5.488466
613.70 6.435981
613.80 6.558263
613.90 6.060218
614.00 5.227768
614.10 4.287348
614.20 3.456
614.30 2.893472
614.40 2.539708
614.50 2.148018
614.60 1.441628
614.70 0.2587917
614.80 0
614.90 0
615.00 0
615.10 0
615.20 0
615.30 0
615.40 0.5885411
615.50 2.691283
615.60 4.453239
615.70 5.525371
615.80 5.600644
615.90 4.779378
616.00 3.550254
616.10 2.489819
616.20 1.993848
616.30 2.191904
616.40 2.758072
616.50 3.20192
616.60 3.325234
616.70 3.402984
616.80 3.60274
616.90 3.688822
617.00 3.470909
617.10 2.930051
617.20 2.207169
617.30 1.503722
617.40 1.082474
617.50 1.149395
617.60 1.763387
617.70 2.766167
617.80 3.862723
617.90 4.782597
618.00 5.278095
618.10 5.372849
618.20 5.406683
618.30 5.55749
618.40 5.713868
618.50 5.802396
618.60 5.870358
618.70 5.82037
618.80 5.413474
618.90 4.539438
619.00 3.314226
619.10 2.002152
619.20 0.9135089
619.30 0.2665263
619.40 0.1276968
619.50 0.2860263
619.60 0.3835881
619.70 0.2856917
619.80 0
619.90 0
620.00 0
620.10 0
620.20 0
620.30 0
620.40 0
620.50 0
620.60 0
620.70 0
620.80 0
620.90 2.574321
621.00 5.317074
621.10 6.500872
621.20 5.983394
621.30 4.242463
621.40 2.170835
621.50 0.4653563
621.60 0
621.70 0
621.80 0
621.90 0
622.00 0
622.10 0
622.20 0
622.30 0
622.40 0
622.50 0
622.60 0
622.70 0.9731668
622.80 1.920905
622.90 2.532013
623.00 2.958857
623.10 3.405234
623.20 3.885577
623.30 4.327988
623.40 4.933352
623.50 5.923037
623.60 7.126135
623.70 8.239775
623.80 8.970853
623.90 9.114742
624.00 8.628317
624.10 7.749245
624.20 6.811471
624.30 6.034683
624.40 5.469106
624.50 5.221493
624.60 5.381398
624.70 5.885373
624.80 6.339436
624.90 6.271376
625.00 5.640821
625.10 4.637436
625.20 3.548592
625.30 2.582908
625.40 1.751992
625.50 0.9018266
625.60 0.06019056
625.70 0
625.80 0
625.90 0
626.00 0.5101788
626.10 1.495516
626.20 2.625452
626.30 3.864393
626.40 5.121657
626.50 6.225314
626.60 6.960392
626.70 7.193017
626.80 7.052967
626.90 6.616636
627.00 5.667639
627.10 4.017867
627.20 1.807727
627.30 0
627.40 0
627.50 0
627.60 0
627.70 0
627.80 0
627.90 0
628.00 2.141214
628.10 4.101312
628.20 4.794355
628.30 4.13196
628.40 2.431576
628.50 0.2117266
628.60 0
628.70 0
628.80 0
628.90 0
629.00 0
629.10 0
629.20 0
629.30 0.5479143
629.40 2.831591
629.50 4.128584
629.60 3.188863
629.70 0
629.80 0
629.90 0
630.00 0
630.10 0
630.20 0
630.30 0
630.40 0
630.50 0
630.60 0
630.70 7.057882
630.80 11.08362
630.90 11.87675
631.00 10.50035
631.10 8.517268
631.20 7.052814
631.30 6.471176
631.40 6.522354
631.50 6.807756
631.60 7.121804
631.70 7.261878
631.80 7.136877
631.90 6.936681
632.00 6.943885
632.10 7.260178
632.20 7.836192
632.30 8.62178
632.40 9.59523
632.50 10.47175
632.60 10.5529
632.70 9.449731
632.80 7.457271
632.90 5.046194
633.00 2.576081
633.10 0.5376732
633.20 0
633.30 0
633.40 0
633.50 0.6220631
633.60 1.818173
633.70 3.217001
633.80 4.595885
633.90 5.792903
634.00 6.776942
634.10 7.42415
634.20 7.671854
634.30 7.478221
634.40 6.958156
634.50 6.373328
634.60 5.973797
634.70 6.092882
634.80 7.107326
634.90 8.955276
635.00 11.10839
635.10 12.87507
635.20 13.71849
635.30 13.46974
635.40 12.34395
635.50 10.69518
635.60 8.9515
635.70 7.635719
635.80 6.996288
635.90 7.038433
636.00 7.443622
636.10 7.472353
636.20 6.643838
636.30 5.099123
636.40 3.245713
636.50 1.537178
636.60 0.3339349
636.70 0
636.80 0.02314674
636.90 0.6482763
637.00 1.426222
637.10 1.983143
637.20 2.144587
637.30 1.821018
637.40 1.291686
637.50 1.031077
637.60 1.216228
637.70 1.791191
637.80 2.771128
637.90 4.121983
638.00 5.568107
638.10 6.788559
638.20 7.770199
638.30 8.515076
638.40 8.727705
638.50 8.224569
638.60 7.111024
638.70 5.726723
638.80 4.418424
638.90 3.598971
639.00 3.541714
639.10 4.222259
639.20 5.330207
639.30 6.46751
639.40 7.559367
639.50 8.658767
639.60 9.784062
639.70 10.93427
639.80 12.04564
639.90 13.00509
640.00 13.69547
640.10 14.03831
640.20 14.01076
640.30 13.62698
640.40 12.93168
640.50 12.04534
640.60 11.15213
640.70 10.35677
640.80 9.607071
640.90 8.750127
641.00 7.636112
641.10 6.389244
641.20 5.375192
641.30 4.908249
641.40 5.207554
641.50 6.227472
641.60 7.739629
641.70 9.553342
641.80 11.48888
641.90 13.12351
642.00 14.00947
642.10 14.17645
642.20 13.86383
642.30 13.33222
642.40 12.83025
642.50 12.51311
642.60 12.51868
642.70 12.86829
642.80 13.37442
642.90 13.90932
643.00 14.37928
643.10 14.57798
643.20 14.36525
643.30 13.86917
643.40 13.25861
643.50 12.49252
643.60 11.53379
643.70 10.49698
643.80 9.585638
643.90 8.929156
644.00 8.554297
644.10 8.4937
644.20 8.830637
644.30 9.569294
644.40 10.63548
644.50 11.84863
644.60 12.90985
644.70 13.62087
644.80 14.03402
644.90 14.05776
645.00 13.56629
645.10 12.75371
645.20 11.86546
645.30 11.09143
645.40 10.60167
645.50 10.5504
645.60 10.94843
645.70 11.65486
645.80 12.47358
645.90 13.42181
646.00 14.63847
646.10 15.74953
646.20 16.03934
646.30 15.32843
646.40 14.00205
646.50 12.55035
646.60 11.4445
646.70 10.99963
646.80 11.27004
646.90 11.94991
647.00 12.47165
647.10 12.52389
647.20 12.10181
647.30 10.99587
647.40 9.095085
647.50 6.976193
647.60 5.464033
647.70 5.052859
647.80 5.781675
647.90 7.2835
648.00 9.026162
648.10 10.57646
648.20 11.71244
648.30 12.39559
648.40 12.84693
648.50 13.21866
648.60 13.62473
648.70 14.34552
648.80 15.41708
648.90 16.66526
649.00 17.90276
649.10 18.93869
649.20 19.65423
649.30 20.04485
649.40 20.08691
649.50 19.83312
649.60 19.47181
649.70 19.21909
649.80 19.17559
649.90 19.3171
650.00 19.39739
650.10 19.19202
650.20 18.73065
650.30 18.05152
650.40 17.23216
650.50 16.45287
650.60 15.91986
650.70 15.68129
650.80 15.75246
650.90 16.08702
651.00 16.42082
651.10 16.52225
651.20 16.4138
651.30 16.20776
651.40 16.06261
651.50 16.14364
651.60 16.55277
651.70 17.36672
651.80 18.4812
651.90 19.63779
652.00 20.56852
652.10 21.0994
652.20 21.16809
652.30 20.77661
652.40 20.09593
652.50 19.33596
652.60 18.61558
652.70 17.94203
652.80 17.19285
652.90 16.14485
653.00 14.60642
653.10 12.53614
653.20 10.24698
653.30 8.292122
653.40 7.068153
653.50 6.751643
653.60 7.333395
653.70 8.65224
653.80 10.33691
653.90 11.95497
654.00 13.02881
654.10 13.35852
654.20 13.15553
654.30 12.7333
654.40 12.4061
654.50 12.58484
654.60 13.49333
654.70 14.99899
654.80 16.92696
654.90 19.09917
655.00 21.14269
655.10 22.51372
655.20 22.88672
655.30 22.2936
655.40 21.05566
655.50 19.43245
655.60 17.6326
655.70 16.1039
655.80 15.34492
655.90 15.5029
656.00 16.45676
656.10 17.97566
656.20 19.586
656.30 20.97551
656.40 22.12882
656.50 23.06748
656.60 23.75071
656.70 24.03716
656.80 23.81198
656.90 23.00778
657.00 21.66207
657.10 19.9181
657.20 17.99955
657.30 16.27427
657.40 14.9687
657.50 14.25573
657.60 14.48347
657.70 15.65675
657.80 17.44578
657.90 19.55362
658.00 21.75708
658.10 23.80958
658.20 25.40549
658.30 26.44442
658.40 26.95467
658.50 26.97745
658.60 26.64236
658.70 25.93731
658.80 24.90439
658.90 23.79373
659.00 22.77163
659.10 21.91957
659.20 21.28681
659.30 20.92573
659.40 20.84194
659.50 21.03301
659.60 21.54121
659.70 22.36103
659.80 23.38793
659.90 24.32443
660.00 24.85145
660.10 25.10757
660.20 25.41871
660.30 25.80541
660.40 26.06942
660.50 26.04169
660.60 25.78823
660.70 25.47978
660.80 25.22865
660.90 25.06929
661.00 25.00893
661.10 25.10432
661.20 25.34949
661.30 25.68185
661.40 26.01511
661.50 26.13815
661.60 25.93292
661.70 25.47864
661.80 24.98404
661.90 24.65532
662.00 24.56596
662.10 24.8049
662.20 25.47238
662.30 26.66649
662.40 28.40481
662.50 30.41763
662.60 32.27747
662.70 33.68102
662.80 34.37035
662.90 34.11101
663.00 32.80224
663.10 30.59082
663.20 27.92359
663.30 25.35819
663.40 23.45884
663.50 22.57401
663.60 22.61582
663.70 23.18198
663.80 23.89189
663.90 24.57848
664.00 25.14287
664.10 25.47194
664.20 25.62753
664.30 25.77564
664.40 26.08005
664.50 26.56826
664.60 27.10153
664.70 27.57631
664.80 27.74726
664.90 27.18163
665.00 25.75758
665.10 23.89343
665.20 22.11867
665.30 20.78856
665.40 20.09708
665.50 20.12686
665.60 20.76368
665.70 21.66641
665.80 22.49442
665.90 23.1298
666.00 23.61563
666.10 23.9657
666.20 24.28385
666.30 24.88822
666.40 26.0582
666.50 27.62807
666.60 29.15012
666.70 30.25271
666.80 30.80867
666.90 30.89225
667.00 30.68858
667.10 30.49441
667.20 30.55406
667.30 30.8229
667.40 31.1621
667.50 31.62331
667.60 32.22741
667.70 32.81032
667.80 33.14585
667.90 33.22075
668.00 33.15185
668.10 33.08686
668.20 33.18198
668.30 33.43424
668.40 33.65341
668.50 33.65911
668.60 33.38312
668.70 32.9538
668.80 32.34311
668.90 31.2971
669.00 29.89294
669.10 28.53453
669.20 27.62119
669.30 27.16501
669.40 26.99517
669.50 27.01466
669.60 27.11143
669.70 27.21427
669.80 27.33603
669.90 27.48323
670.00 27.66999
670.10 27.89302
670.20 28.2377
670.30 28.69072
670.40 28.97279
670.50 28.81901
670.60 28.1548
670.70 27.20779
670.80 26.21273
670.90 25.29424
671.00 24.70394
671.10 24.72983
671.20 25.51428
671.30 26.99817
671.40 28.95995
671.50 31.09133
671.60 33.05649
671.70 34.65415
671.80 35.76462
671.90 36.31404
672.00 36.3033
672.10 35.84385
672.20 35.23663
672.30 34.75952
672.40 34.48653
672.50 34.39432
672.60 34.44635
672.70 34.61022
672.80 34.83125
672.90 35.04741
673.00 35.1903
673.10 35.22954
673.20 35.22882
673.30 35.16638
673.40 34.95077
673.50 34.57187
673.60 34.10708
673.70 33.64138
673.80 33.12905
673.90 32.55453
674.00 32.11601
674.10 32.09398
674.20 32.73435
674.30 34.07346
674.40 35.71913
674.50 37.13199
674.60 37.98261
674.70 38.18675
674.80 37.83696
674.90 37.05497
675.00 36.03621
675.10 35.14438
675.20 34.90161
675.30 35.60007
675.40 37.08832
675.50 38.99917
675.60 40.84315
675.70 42.1579
675.80 42.83323
675.90 42.98523
676.00 42.67829
676.10 42.01599
676.20 41.24905
676.30 40.7575
676.40 40.7514
676.50 41.11871
676.60 41.56308
676.70 41.89128
676.80 42.12229
676.90 42.25945
677.00 42.23475
677.10 42.04272
677.20 41.81099
677.30 41.77956
677.40 42.14162
677.50 42.89307
677.60 43.82226
677.70 44.44051
677.80 44.35512
677.90 43.59101
678.00 42.39791
678.10 41.06109
678.20 39.78828
678.30 38.79216
678.40 38.29846
678.50 38.41587
678.60 38.94442
678.70 39.46729
678.80 39.62847
678.90 39.27516
679.00 38.45693
679.10 37.47912
679.20 36.69812
679.30 36.18799
679.40 35.88904
679.50 35.73129
679.60 35.6619
679.70 35.59995
679.80 35.4365
679.90 35.13447
680.00 34.86267
680.10 34.79604
680.20 34.98233
680.30 35.40724
680.40 35.92823
680.50 36.38482
680.60 36.67745
680.70 36.88406
680.80 37.20272
680.90 37.86622
681.00 39.08039
681.10 40.79958
681.20 42.73728
681.30 44.5023
681.40 45.72894
681.50 46.22053
681.60 46.03414
681.70 45.33956
681.80 44.32033
681.90 43.24202
682.00 42.3705
682.10 41.87206
682.20 41.80859
682.30 41.97039
682.40 41.95225
682.50 41.52612
682.60 40.724
682.70 39.8243
682.80 39.05387
682.90 38.36372
683.00 37.54966
683.10 36.58452
683.20 35.72444
683.30 35.10785
683.40 34.71421
683.50 34.54026
683.60 34.52344
683.70 34.55175
683.80 34.49186
683.90 34.34195
684.00 34.22128
684.10 34.13297
684.20 34.0819
684.30 34.16621
684.40 34.50713
684.50 35.0676
684.60 35.71179
684.70 36.34184
684.80 36.83687
684.90 37.02469
685.00 36.71052
685.10 35.9439
685.20 35.02384
685.30 34.16839
685.40 33.42011
685.50 32.7428
685.60 32.16825
685.70 31.81931
685.80 31.74482
685.90 31.80729
686.00 31.49407
686.10 30.24492
686.20 28.03988
686.30 25.33698
686.40 22.80032
686.50 20.97581
686.60 20.24023
686.70 20.79924
686.80 22.63425
686.90 25.48678
687.00 28.80547
687.10 31.91774
687.20 34.19207
687.30 35.24227
687.40 35.1926
687.50 34.40776
687.60 33.14234
687.70 31.50218
687.80 29.65683
687.90 27.99867
688.00 26.81814
688.10 26.26462
688.20 26.33683
688.30 26.95406
688.40 28.0048
688.50 29.1775
688.60 30.12933
688.70 30.67221
688.80 30.94051
688.90 31.40878
689.00 32.38961
689.10 33.90843
689.20 35.74648
689.30 37.36775
689.40 38.33544
689.50 38.53109
689.60 38.03063
689.70 36.99478
689.80 35.77261
689.90 34.92874
690.00 34.90361
690.10 35.77493
690.20 37.14693
690.30 38.30743
690.40 38.73261
690.50 38.22026
690.60 36.77337
690.70 34.73197
690.80 32.57786
690.90 30.56164
691.00 28.87649
691.10 27.73009
691.20 27.16018
691.30 27.05183
691.40 27.21647
691.50 27.56271
691.60 28.21032
691.70 29.41227
691.80 31.15666
691.90 33.0418
692.00 34.66203
692.10 35.69377
692.20 35.92342
692.30 35.41139
692.40 34.41337
692.50 33.17848
692.60 31.93937
692.70 30.93051
692.80 30.42013
692.90 30.62142
693.00 31.47636
693.10 32.5705
693.20 33.43767
693.30 33.92931
693.40 34.09119
693.50 33.95115
693.60 33.42574
693.70 32.50373
693.80 31.49141
693.90 30.8078
694.00 30.7258
694.10 31.40005
694.20 32.75644
694.30 34.40204
694.40 35.81765
694.50 36.54974
694.60 36.34483
694.70 35.21233
694.80 33.52744
694.90 31.92601
695.00 31.00955
695.10 31.07426
695.20 31.97733
695.30 33.418
695.40 35.13675
695.50 36.76626
695.60 37.95042
695.70 38.54709
695.80 38.54118
695.90 38.08701
696.00 37.52973
696.10 37.22546
696.20 37.30493
696.30 37.61071
696.40 37.98752
696.50 38.34525
696.60 38.59837
696.70 38.70596
696.80 38.57713
696.90 38.17427
697.00 37.53465
697.10 36.616
697.20 35.38685
697.30 33.92056
697.40 32.35639
697.50 30.89789
697.60 29.67707
697.70 28.81709
697.80 28.48411
697.90 28.79533
698.00 29.73696
698.10 31.06833
698.20 32.47601
698.30 33.66266
698.40 34.51516
698.50 35.12893
698.60 35.64508
698.70 36.16747
698.80 36.73486
698.90 37.26855
699.00 37.67584
699.10 37.90738
699.20 37.90772
699.30 37.69188
699.40 37.324
699.50 36.92422
699.60 36.79135
699.70 37.27921
699.80 38.44861
699.90 40.08572
700.00 41.85216
700.10 43.35581
700.20 44.25732
700.30 44.33005
700.40 43.53128
700.50 42.02316
700.60 40.13287
700.70 38.32109
700.80 36.96385
700.90 36.25631
701.00 36.13393
701.10 36.35781
701.20 36.7699
701.30 37.29145
701.40 37.89242
701.50 38.54152
701.60 39.19988
701.70 39.9522
701.80 40.83691
701.90 41.71323
702.00 42.39031
702.10 42.58823
702.20 42.16532
702.30 41.34407
702.40 40.49882
702.50 39.92557
702.60 39.82963
702.70 40.33776
702.80 41.44156
702.90 43.09248
703.00 45.18403
703.10 47.30222
703.20 48.99525
703.30 50.05839
703.40 50.48616
703.50 50.44895
703.60 50.10984
703.70 49.45827
703.80 48.50998
703.90 47.45552
704.00 46.47529
704.10 45.5741
704.20 44.77523
704.30 44.21575
704.40 44.00952
704.50 44.22189
704.60 44.79926
704.70 45.58258
704.80 46.34911
704.90 46.83334
705.00 46.90154
705.10 46.64204
705.20 46.23238
705.30 45.83127
705.40 45.59212
705.50 45.51224
705.60 45.28171
705.70 44.67334
705.80 43.74843
705.90 42.68335
706.00 41.7295
706.10 41.16172
706.20 41.11259
706.30 41.62196
706.40 42.71344
706.50 44.34628
706.60 46.2855
706.70 48.11171
706.80 49.40596
706.90 50.08512
707.00 50.47702
707.10 50.72878
707.20 50.70712
707.30 50.38329
707.40 49.87192
707.50 49.31401
707.60 48.87012
707.70 48.67311
707.80 48.79467
707.90 49.19702
708.00 49.77705
708.10 50.47209
708.20 51.1462
708.30 51.67683
708.40 52.00957
708.50 52.0866
708.60 51.92044
708.70 51.56824
708.80 51.0913
708.90 50.60196
709.00 50.25948
709.10 50.18753
709.20 50.40777
709.30 50.81144
709.40 51.25941
709.50 51.63697
709.60 51.91642
709.70 52.0646
709.80 51.99038
709.90 51.68809
710.00 51.2224
710.10 50.70434
710.20 50.24157
710.30 49.9766
710.40 50.10551
710.50 50.7766
710.60 51.95773
710.70 53.44129
710.80 54.94465
710.90 56.15558
711.00 56.79988
711.10 56.73714
711.20 55.96944
711.30 54.63549
711.40 53.05988
711.50 51.63
711.60 50.68556
711.70 50.46551
711.80 51.1506
711.90 52.73587
712.00 54.95685
712.10 57.37918
712.20 59.4706
712.30 60.78973
712.40 61.18815
712.50 60.72947
712.60 59.51774
712.70 57.81194
712.80 55.97572
712.90 54.36703
713.00 53.29877
713.10 52.75749
713.20 52.45209
713.30 52.13467
713.40 51.68596
713.50 51.18926
713.60 50.82287
713.70 50.79436
713.80 51.13566
713.90 51.7367
714.00 52.49391
714.10 53.17466
714.20 53.56723
714.30 53.57957
714.40 53.245
714.50 52.80657
714.60 52.48531
714.70 52.33884
714.80 52.38336
714.90 52.60848
715.00 52.98965
715.10 53.38735
715.20 53.88125
715.30 54.7016
715.40 55.86317
715.50 57.291
715.60 58.7484
715.70 59.94815
715.80 60.65793
715.90 60.71272
716.00 60.11478
716.10 59.07927
716.20 57.99628
716.30 57.23568
716.40 57.056
716.50 57.58961
716.60 58.55411
716.70 59.42993
716.80 59.95398
716.90 60.07427
717.00 59.85282
717.10 59.36148
717.20 58.76164
717.30 58.30507
717.40 58.12823
717.50 58.28408
717.60 58.77041
717.70 59.4859
717.80 60.29769
717.90 60.99506
718.00 61.18652
718.10 60.61881
718.20 59.3924
718.30 57.78901
718.40 56.15938
718.50 54.8643
718.60 54.00718
718.70 53.39653
718.80 52.9123
718.90 52.58061
719.00 52.52902
719.10 52.84186
719.20 53.42005
719.30 54.1974
719.40 55.25728
719.50 56.56598
719.60 57.80249
719.70 58.54927
719.80 58.4485
719.90 57.35961
720.00 55.47431
720.10 53.38927
720.20 51.81134
720.30 51.31989
720.40 52.12192
720.50 53.96033
720.60 56.40506
720.70 58.9343
720.80 61.10901
720.90 62.63232
721.00 63.33439
721.10 63.21001
721.20 62.42366
721.30 61.2727
721.40 60.11815
721.50 59.28683
721.60 58.94393
721.70 58.97974
721.80 59.1799
721.90 59.46133
722.00 59.81293
722.10 60.3082
722.20 61.1484
722.30 62.38786
722.40 63.81699
722.50 65.28846
722.60 66.78819
722.70 68.25989
722.80 69.5138
722.90 70.25551
723.00 70.30863
723.10 69.70957
723.20 68.68751
723.30 67.58636
723.40 66.79586
723.50 66.38896
723.60 65.83493
723.70 64.60929
723.80 62.81112
723.90 60.64983
724.00 57.92971
724.10 54.32457
724.20 49.90535
724.30 45.43617
724.40 41.94835
724.50 40.1894
724.60 40.44435
724.70 42.65464
724.80 46.2532
724.90 50.51714
725.00 55.01283
725.10 59.43742
725.20 63.23376
725.30 65.74025
725.40 66.89911
725.50 67.39167
725.60 67.89534
725.70 68.32618
725.80 68.24179
725.90 67.3987
726.00 65.88668
726.10 64.05021
726.20 62.51201
726.30 61.8273
726.40 62.13758
726.50 63.3
726.60 65.00247
726.70 66.87659
726.80 68.46982
726.90 69.21866
727.00 68.7576
727.10 67.02634
727.20 64.19919
727.30 60.5871
727.40 56.66306
727.50 53.24378
727.60 51.11873
727.70 50.72471
727.80 52.16017
727.90 55.091
728.00 58.59315
728.10 61.45643
728.20 62.89923
728.30 62.72765
728.40 61.16289
728.50 58.83734
728.60 56.5115
728.70 55.04865
728.80 55.09128
728.90 56.56515
729.00 58.9371
729.10 61.63636
729.20 64.20839
729.30 66.1572
729.40 67.33258
729.50 68.05154
729.60 68.46963
729.70 68.47519
729.80 67.96307
729.90 67.21698
730.00 66.70138
730.10 66.61948
730.20 66.90149
730.30 67.34061
730.40 67.77561
730.50 68.02078
730.60 67.88122
730.70 67.37626
730.80 66.75506
730.90 66.20926
731.00 65.72078
731.10 65.04055
731.20 63.67091
731.30 61.21843
731.40 57.93959
731.50 54.5701
731.60 51.92391
731.70 50.64369
731.80 50.92509
731.90 52.62272
732.00 55.45025
732.10 59.01853
732.20 62.58865
732.30 65.1724
732.40 65.95553
732.50 64.78874
732.60 62.42189
732.70 59.81427
732.80 57.55902
732.90 55.99719
733.00 55.36615
733.10 55.78093
733.20 57.18891
733.30 59.24952
733.40 61.37511
733.50 62.96114
733.60 63.60414
733.70 63.34044
733.80 62.61129
733.90 61.9438
734.00 61.6775
734.10 61.71493
734.20 61.85802
734.30 62.09883
734.40 62.40489
734.50 62.74135
734.60 63.14489
734.70 63.78034
734.80 64.76044
734.90 65.93642
735.00 67.07148
735.10 68.04167
735.20 68.9307
735.30 69.7884
735.40 70.3388
735.50 70.27372
735.60 69.33204
735.70 67.38775
735.80 64.74558
735.90 61.87833
736.00 59.23093
736.10 57.27553
736.20 56.38342
736.30 56.74083
736.40 58.28687
736.50 60.26709
736.60 61.06738
736.70 59.50637
736.80 56.08114
736.90 52.3493
737.00 49.76165
737.10 49.14143
737.20 50.5539
737.30 53.50758
737.40 57.14465
737.50 60.37189
737.60 62.22723
737.70 62.18177
737.80 60.17445
737.90 56.9258
738.00 53.86923
738.10 52.08947
738.20 51.65215
738.30 52.17866
738.40 53.45915
738.50 55.33811
738.60 57.68123
738.70 60.29623
738.80 62.88321
738.90 65.0672
739.00 66.46452
739.10 66.79716
739.20 66.06956
739.30 64.33894
739.40 61.78817
739.50 58.97538
739.60 56.40844
739.70 54.27164
739.80 52.61535
739.90 51.55686
740.00 51.14537
740.10 51.35809
740.20 52.12267
740.30 53.21378
740.40 54.30399
740.50 55.10943
740.60 55.356
740.70 55.16241
740.80 54.94201
740.90 54.81436
741.00 54.74673
741.10 54.81131
741.20 55.18073
741.30 55.98283
741.40 57.0885
741.50 58.19706
741.60 59.10534
741.70 59.82605
741.80 60.38409
741.90 60.6468
742.00 60.46622
742.10 59.70213
742.20 58.36444
742.30 56.65043
742.40 54.882
742.50 53.46015
742.60 52.58934
742.70 52.2594
742.80 52.42973
742.90 53.04948
743.00 54.02069
743.10 55.08998
743.20 56.03147
743.30 56.82508
743.40 57.56069
743.50 58.27847
743.60 58.84627
743.70 59.18029
743.80 59.28982
743.90 59.09375
744.00 58.33382
744.10 56.65428
744.20 54.02224
744.30 50.83025
744.40 47.5038
744.50 44.4287
744.60 41.97566
744.70 40.41048
744.80 39.88803
744.90 40.44824
745.00 42.00718
745.10 44.28832
745.20 46.84589
745.30 49.22834
745.40 51.23022
745.50 52.89377
745.60 54.19667
745.70 54.92803
745.80 55.07266
745.90 54.9114
746.00 54.6162
746.10 54.12921
746.20 53.27512
746.30 51.85687
746.40 49.77435
746.50 47.12641
746.60 44.19308
746.70 41.21137
746.80 38.59366
746.90 37.29937
747.00 37.9498
747.10 40.45665
747.20 44.38239
747.30 48.90085
747.40 53.06914
747.50 55.99198
747.60 56.8168
747.70 55.25384
747.80 51.85153
747.90 47.53552
748.00 43.24967
748.10 40.06911
748.20 38.72981
748.30 38.95347
748.40 40.28036
748.50 42.31459
748.60 44.34416
748.70 45.72948
748.80 46.02432
748.90 45.18583
749.00 43.75775
749.10 42.31861
749.20 41.13298
749.30 40.33629
749.40 40.05634
749.50 40.34179
749.60 41.08121
749.70 41.98903
749.80 42.71115
749.90 43.04615
750.00 42.91572
750.10 42.36411
750.20 41.62525
750.30 40.94151
750.40 40.41538
750.50 40.18144
750.60 40.46934
750.70 41.47143
750.80 43.16298
750.90 45.24501
751.00 47.32859
751.10 49.11484
751.20 50.31403
751.30 50.63295
751.40 50.01891
751.50 48.6074
751.60 46.58196
751.70 44.16573
751.80 41.62462
751.90 38.9825
752.00 35.9312
752.10 32.12242
752.20 27.7112
752.30 23.36828
752.40 19.78022
752.50 17.49384
752.60 16.63591
752.70 17.22869
752.80 19.22091
752.90 22.04218
753.00 24.97471
753.10 27.51511
753.20 29.35455
753.30 30.4281
753.40 31.03319
753.50 31.68213
753.60 32.56585
753.70 33.48874
753.80 34.22908
753.90 34.62028
754.00 34.80459
754.10 34.95843
754.20 35.07934
754.30 35.36389
754.40 36.02332
754.50 37.06714
754.60 38.35966
754.70 39.71749
754.80 40.87664
754.90 41.52174
755.00 41.41639
755.10 40.46561
755.20 38.75938
755.30 36.38164
755.40 33.47654
755.50 30.42553
755.60 27.68775
755.70 25.64339
755.80 24.75387
755.90 25.26222
756.00 26.85354
756.10 28.92677
756.20 30.88943
756.30 32.33538
756.40 33.12771
756.50 33.25326
756.60 32.66507
756.70 31.31907
756.80 29.06679
756.90 25.99898
757.00 22.58693
757.10 19.64129
757.20 17.76511
757.30 17.11147
757.40 17.73422
757.50 19.42952
757.60 21.77759
757.70 24.19167
757.80 26.03796
757.90 26.82322
758.00 26.21458
758.10 24.28114
758.20 21.65482
758.30 19.01021
758.40 16.83988
758.50 15.372
758.60 14.73435
758.70 15.01462
758.80 16.17226
758.90 18.24834
759.00 21.10109
759.10 24.1876
759.20 26.61897
759.30 27.39885
759.40 25.92347
759.50 22.37288
759.60 17.68516
759.70 12.91386
759.80 8.737286
759.90 5.921922
760.00 5.035243
760.10 5.937809
760.20 8.235183
760.30 11.53767
760.40 15.35386
760.50 19.06182
760.60 22.17264
760.70 24.53199
760.80 26.2042
760.90 27.00725
761.00 26.34422
761.10 24.00826
761.20 20.69788
761.30 16.96742
761.40 13.19143
761.50 10.19504
761.60 8.613269
761.70 8.476892
761.80 9.339369
761.90 10.51541
762.00 11.24846
762.10 11.07543
762.20 9.956966
762.30 8.138498
762.40 6.006805
762.50 3.659034
762.60 1.00078
762.70 0
762.80 0
762.90 0
763.00 0
763.10 0
763.20 0
763.30 1.422007
763.40 3.431189
763.50 5.015421
763.60 5.856171
763.70 5.9123
763.80 5.528752
763.90 5.361948
764.00 5.954172
764.10 7.289808
764.20 8.8378
764.30 10.02376
764.40 10.40488
764.50 9.69938
764.60 7.969238
764.70 5.611828
764.80 3.290863
764.90 1.553067
765.00 0.662601
765.10 0.6838304
765.20 1.385185
765.30 2.308359
765.40 2.863008
765.50 2.463298
765.60 0.7966713
765.70 0
765.80 0
765.90 0
766.00 0
766.10 0
766.20 0
766.30 0
766.40 0
766.50 0
766.60 0
766.70 1.152309
766.80 3.384396
766.90 4.809269
767.00 5.520741
767.10 5.588851
767.20 4.994501
767.30 3.792679
767.40 2.039477
767.50 0
767.60 0
767.70 0
767.80 0
767.90 0
768.00 0
768.10 0
768.20 0
768.30 0
768.40 0
768.50 1.616282
768.60 2.465595
768.70 2.408591
768.80 1.700371
768.90 0.815974
769.00 0.1316907
769.10 0
769.20 0
769.30 0.4667499
769.40 1.134425
769.50 1.49446
769.60 1.43595
769.70 1.149981
769.80 0.8157484
769.90 0.6362122
770.00 0.7832677
770.10 1.309673
770.20 2.104338
770.30 2.969399
770.40 3.771773
770.50 4.513927
770.60 5.069236
770.70 5.180433
770.80 4.629959
770.90 3.019719
771.00 0
771.10 0
771.20 0
771.30 0
771.40 0
771.50 0
771.60 0
771.70 0
771.80 0
771.90 0
772.00 0
772.10 0
772.20 0
772.30 3.761046
772.40 5.834637
772.50 5.951368
772.60 4.989446
772.70 3.686436
772.80 2.818865
772.90 2.75423
773.00 3.46917
773.10 4.666349
773.20 6.010408
773.30 7.428074
773.40 9.007018
773.50 11.03355
773.60 13.65331
773.70 16.45182
773.80 18.88093
773.90 20.56544
774.00 21.22362
774.10 20.68011
774.20 19.13486
774.30 17.15094
774.40 15.29619
774.50 13.58075
774.60 10.95368
774.70 6.052484
774.80 0
774.90 0
775.00 0
775.10 0
775.20 0
775.30 0
775.40 0
775.50 0
775.60 1.128262
775.70 11.41015
775.80 18.88754
775.90 22.55225
776.00 23.19629
776.10 22.58133
776.20 22.08669
776.30 22.04061
776.40 22.05652
776.50 21.89486
776.60 21.52742
776.70 21.18444
776.80 21.16789
776.90 21.50396
777.00 21.86783
777.10 21.88366
777.20 21.59124
777.30 21.20688
777.40 20.83828
777.50 20.53192
777.60 20.36851
777.70 20.46671
777.80 20.90395
777.90 21.73802
778.00 23.00677
778.10 24.43107
778.20 25.61682
778.30 26.42171
778.40 27.02719
778.50 27.68901
778.60 28.33225
778.70 28.84116
778.80 29.13827
778.90 28.82073
779.00 26.9082
779.10 22.46949
779.20 15.70919
779.30 7.767564
779.40 0
779.50 0
779.60 0
779.70 0
779.80 0
779.90 0
780.00 4.645697
780.10 11.32518
780.20 16.5419
780.30 19.51668
780.40 20.4119
780.50 19.72564
780.60 17.90731
780.70 15.64667
780.80 13.89649
780.90 13.62845
781.00 15.25018
781.10 18.72108
781.20 23.89753
781.30 30.39846
781.40 37.61017
781.50 44.13232
781.60 47.92217
781.70 47.4471
781.80 42.47249
781.90 34.26149
782.00 24.93704
782.10 16.83087
782.20 11.84417
782.30 10.92501
782.40 14.13016
782.50 20.71433
782.60 29.13858
782.70 37.34216
782.80 43.37449
782.90 46.20997
783.00 46.26813
783.10 44.69108
783.20 42.6335
783.30 41.10415
783.40 40.55073
783.50 40.73977
783.60 41.27553
783.70 41.60267
783.80 41.03292
783.90 39.35686
784.00 36.90634
784.10 34.45796
784.20 32.74672
784.30 32.1459
784.40 32.74788
784.50 34.5889
784.60 37.8958
784.70 42.37227
784.80 46.87746
784.90 49.78362
785.00 49.10668
785.10 44.35442
785.20 37.32126
785.30 30.18833
785.40 24.64512
785.50 21.83259
785.60 22.24746
785.70 25.57427
785.80 30.904
785.90 37.1969
786.00 43.13736
786.10 47.60332
786.20 50.2533
786.30 51.50874
786.40 52.6758
786.50 54.57723
786.60 56.28428
786.70 56.5802
786.80 55.23769
786.90 52.74688
787.00 50.05091
787.10 48.39892
787.20 48.65621
787.30 50.87774
787.40 54.59484
787.50 59.09324
787.60 63.56596
787.70 67.23064
787.80 69.53399
787.90 70.32982
788.00 70.2224
788.10 70.24027
788.20 71.02969
788.30 72.6695
788.40 74.77904
788.50 76.784
788.60 78.03188
788.70 77.89255
788.80 76.05634
788.90 72.78142
789.00 68.79171
789.10 64.95149
789.20 61.9966
789.30 60.51281
789.40 60.87726
789.50 63.01149
789.60 66.34061
789.70 69.92132
789.80 72.80501
789.90 74.49337
790.00 74.96941
790.10 74.41988
790.20 73.18002
790.30 71.59969
790.40 69.92366
790.50 68.50071
790.60 67.92805
790.70 68.33699
790.80 68.65884
790.90 67.11512
791.00 62.11125
791.10 53.89305
791.20 44.64192
791.30 36.60221
791.40 31.62145
791.50 30.95436
791.60 34.74106
791.70 42.03414
791.80 51.24811
791.90 60.41496
792.00 67.5117
792.10 71.3016
792.20 72.03493
792.30 71.24712
792.40 71.00134
792.50 72.24681
792.60 74.50393
792.70 77.23239
792.80 79.8498
792.90 81.75093
793.00 82.61751
793.10 82.51868
793.20 81.82474
793.30 81.00472
793.40 80.37181
793.50 80.04372
793.60 80.09191
793.70 80.61372
793.80 81.61031
793.90 82.78672
794.00 83.59232
794.10 83.40299
794.20 81.77268
794.30 78.3863
794.40 73.24232
794.50 66.76808
794.60 59.68189
794.70 52.94021
794.80 47.55856
794.90 44.42396
795.00 44.07935
795.10 46.47567
795.20 51.1115
795.30 57.31862
795.40 64.34093
795.50 71.29705
795.60 77.40541
795.70 82.1528
795.80 85.27372
795.90 86.86201
796.00 87.03134
796.10 85.5501
796.20 82.60992
796.30 79.1154
796.40 76.08412
796.50 74.54116
796.60 75.0448
796.70 77.52386
796.80 81.65722
796.90 86.88268
797.00 92.42361
797.10 97.52552
797.20 101.5133
797.30 103.861
797.40 104.5995
797.50 104.5203
797.60 104.2975
797.70 104.1612
797.80 104.3695
797.90 104.8786
798.00 105.7374
798.10 107.1108
798.20 108.7319
798.30 110.231
798.40 111.3878
798.50 112.145
798.60 112.28
798.70 111.4657
798.80 109.5718
798.90 106.7824
799.00 103.3328
799.10 99.42084
799.20 95.49322
799.30 92.35268
799.40 90.6754
799.50 90.80895
799.60 92.9267
799.70 96.66384
799.80 101.1517
799.90 105.4746
800.00 109.1461
800.10 111.9496
800.20 113.7408
800.30 114.3217
800.40 113.8172
800.50 112.9201
800.60 112.3923
800.70 112.5468
800.80 113.387
800.90 114.8782
801.00 116.689
801.10 118.3581
801.20 119.5277
801.30 120.0778
801.40 120.0762
801.50 119.6361
801.60 118.9931
801.70 118.6353
801.80 119.0967
801.90 120.4744
802.00 122.3545
802.10 124.1313
802.20 124.6412
802.30 122.4583
802.40 117.3151
802.50 110.3597
802.60 103.4972
802.70 98.37665
802.80 95.90064
802.90 96.29876
803.00 99.24582
803.10 104.1809
803.20 110.4094
803.30 116.9766
803.40 122.7614
803.50 126.8915
803.60 129.3255
803.70 130.7147
803.80 131.5485
803.90 131.8959
804.00 131.5668
804.10 130.5796
804.20 129.4195
804.30 128.8198
804.40 129.3596
804.50 131.1856
804.60 134.0044
804.70 137.3079
804.80 140.5751
804.90 143.4105
805.00 145.6915
805.10 147.4349
805.20 148.6135
805.30 149.1509
805.40 149.0156
805.50 148.2047
805.60 146.8773
805.70 145.1434
805.80 142.9405
805.90 140.283
806.00 137.3156
806.10 134.5285
806.20 132.7151
806.30 132.5286
806.40 134.2407
806.50 137.7114
806.60 142.356
806.70 147.3144
806.80 151.731
806.90 154.8472
807.00 155.9759
807.10 155.0892
807.20 152.9624
807.30 150.6479
807.40 149.2129
807.50 149.2708
807.60 150.7044
807.70 152.884
807.80 154.8849
807.90 155.7109
808.00 154.7662
808.10 152.1572
808.20 148.567
808.30 145.0152
808.40 142.5962
808.50 141.9966
808.60 143.1725
808.70 145.5061
808.80 148.2513
808.90 150.758
809.00 152.6423
809.10 153.7347
809.20 153.9239
809.30 153.3191
809.40 152.3204
809.50 151.2117
809.60 150.0585
809.70 148.8636
809.80 147.4685
809.90 145.8192
810.00 144.1616
810.10 142.7903
810.20 141.7432
810.30 140.9661
810.40 140.5454
810.50 140.7575
810.60 142.0754
810.70 144.6858
810.80 148.1992
810.90 152.1773
811.00 156.2477
811.10 160.0542
811.20 163.4463
811.30 166.5064
811.40 169.3887
811.50 172.1474
811.60 174.8384
811.70 177.4715
811.80 179.79
811.90 181.3629
812.00 181.8216
812.10 181.21
812.20 180.0266
812.30 178.7397
812.40 177.7277
812.50 177.3785
812.60 177.8354
812.70 178.7865
812.80 179.8318
812.90 180.5504
813.00 180.4238
813.10 179.2045
813.20 176.9497
813.30 174.1684
813.40 171.7794
813.50 170.4783
813.60 170.5138
813.70 171.7581
813.80 173.6585
813.90 175.3662
814.00 176.2296
814.10 176.0222
814.20 174.8486
814.30 173.5393
814.40 173.0924
814.50 173.906
814.60 176.0676
814.70 179.1934
814.80 182.5343
814.90 185.5002
815.00 187.6069
815.10 188.6069
815.20 188.7016
815.30 188.3994
815.40 188.2351
815.50 188.5803
815.60 189.5805
815.70 190.8665
815.80 191.965
815.90 192.7479
816.00 193.296
816.10 193.8118
816.20 194.438
816.30 195.2231
816.40 196.2181
816.50 197.553
816.60 199.3579
816.70 201.5019
816.80 203.6656
816.90 205.536
817.00 206.8356
817.10 207.3976
817.20 207.1339
817.30 205.8699
817.40 203.5253
817.50 200.369
817.60 196.7737
817.70 193.0813
817.80 189.5578
817.90 186.2313
818.00 183.0052
818.10 179.9738
818.20 177.465
818.30 175.7404
818.40 174.5845
818.50 173.4005
818.60 171.6492
818.70 169.2252
818.80 166.4358
818.90 163.3712
819.00 159.6714
819.10 155.2148
819.20 150.5175
819.30 146.5046
819.40 144.3288
819.50 144.6679
819.60 147.2435
819.70 151.3374
819.80 156.5573
819.90 162.7707
820.00 169.5663
820.10 176.3143
820.20 182.3829
820.30 187.5835
820.40 192.475
820.50 197.5404
820.60 202.6931
820.70 207.4857
820.80 211.3165
820.90 214.0509
821.00 215.9225
821.10 216.9787
821.20 217.1527
821.30 216.6117
821.40 215.8743
821.50 215.4187
821.60 215.3738
821.70 215.4959
821.80 215.4947
821.90 215.3472
822.00 215.1673
822.10 215.146
822.20 215.4595
822.30 216.1115
822.40 217.1973
822.50 219.0711
822.60 221.8892
822.70 225.3932
822.80 229.3148
822.90 233.3082
823.00 236.733
823.10 238.9771
823.20 239.5938
823.30 238.3999
823.40 235.7079
823.50 232.1906
823.60 228.5924
823.70 225.6717
823.80 224.0246
823.90 223.6647
824.00 224.1988
824.10 225.0154
824.20 225.311
824.30 224.7083
824.40 223.4182
824.50 221.9777
824.60 221.1003
824.70 221.428
824.80 223.2876
824.90 226.4839
825.00 230.3135
825.10 233.7669
825.20 235.7664
825.30 235.632
825.40 233.2455
825.50 229.2352
825.60 224.9322
825.70 221.6906
825.80 220.5654
825.90 222.1253
826.00 225.9678
826.10 231.0955
826.20 236.5705
826.30 241.6017
826.40 245.567
826.50 247.943
826.60 248.5189
826.70 247.5486
826.80 245.6259
826.90 243.4404
827.00 241.6224
827.10 240.5747
827.20 240.3204
827.30 240.7835
827.40 241.9817
827.50 243.5306
827.60 244.202
827.70 242.3159
827.80 236.9615
827.90 228.8008
828.00 219.4468
828.10 210.8362
828.20 204.6968
828.30 201.7189
828.40 200.9902
828.50 200.7482
828.60 199.8126
828.70 197.506
828.80 193.8443
828.90 189.8198
829.00 186.8421
829.10 186.6295
829.20 190.2214
829.30 196.9562
829.40 204.81
829.50 211.1482
829.60 213.7953
829.70 211.9358
829.80 207.1582
829.90 202.5887
830.00 200.5687
830.10 202.3496
830.20 208.2355
830.30 217.3646
830.40 228.0904
830.50 238.1195
830.60 244.9578
830.70 247.0948
830.80 244.8255
830.90 239.9017
831.00 234.6106
831.10 230.8169
831.20 228.999
831.30 228.7073
831.40 229.4877
831.50 231.2028
831.60 233.7377
831.70 236.6015
831.80 239.3642
831.90 242.0756
832.00 245.0686
832.10 248.4987
832.20 252.0406
832.30 255.045
832.40 256.9206
832.50 257.7768
832.60 258.4056
832.70 259.6372
832.80 262.0939
832.90 265.7997
833.00 270.1102
833.10 274.2654
833.20 277.6682
833.30 280.0014
833.40 281.2256
833.50 281.4644
833.60 280.818
833.70 279.6252
833.80 278.5029
833.90 277.5441
834.00 275.3762
834.10 269.6912
834.20 259.3622
834.30 245.5847
834.40 231.1834
834.50 219.4022
834.60 212.9007
834.70 212.8112
834.80 218.5834
834.90 228.4992
835.00 240.5008
835.10 252.1903
835.20 260.9234
835.30 265.1955
835.40 266.0321
835.50 266.2331
835.60 268.0282
835.70 271.6883
835.80 275.9266
835.90 279.3293
836.00 281.1858
836.10 281.5428
836.20 281.0588
836.30 280.6287
836.40 280.8652
836.50 282.2525
836.60 285.1391
836.70 289.2267
836.80 293.41
836.90 296.4513
837.00 297.5884
837.10 296.7416
837.20 294.6069
837.30 292.0506
837.40 289.4387
837.50 286.7739
837.60 284.0608
837.70 281.1313
837.80 277.7944
837.90 273.9136
838.00 269.5425
838.10 265.2484
838.20 261.865
838.30 260.1098
838.40 260.2604
838.50 262.1824
838.60 265.5738
838.70 269.9647
838.80 274.7421
838.90 279.4871
839.00 283.8694
839.10 287.6131
839.20 290.7119
839.30 293.4781
839.40 295.5365
839.50 295.4445
839.60 291.6869
839.70 283.6025
839.80 272.2135
839.90 259.8108
840.00 248.8801
840.10 241.4365
840.20 238.559
840.30 240.2606
840.40 245.7819
840.50 253.8403
840.60 262.7326
840.70 270.6565
840.80 276.8082
840.90 281.6236
841.00 286.2474
841.10 291.8328
841.20 298.3241
841.30 304.7582
841.40 310.2997
841.50 314.4088
841.60 316.8764
841.70 317.8429
841.80 317.7153
841.90 316.9645
842.00 315.9266
842.10 314.871
842.20 313.9429
842.30 312.8901
842.40 310.9855
842.50 307.2577
842.60 301.6577
842.70 295.3122
842.80 289.3783
842.90 284.8227
843.00 282.5357
843.10 282.9336
843.20 285.7527
843.30 290.2865
843.40 295.6002
843.50 300.3682
843.60 303.0821
843.70 302.8597
843.80 299.878
843.90 295.3737
844.00 290.7387
844.10 286.7402
844.20 283.7754
844.30 281.8495
844.40 280.7321
844.50 280.3302
844.60 280.7474
844.70 282.2312
844.80 284.4084
844.90 286.0882
845.00 286.4573
845.10 285.4922
845.20 283.4867
845.30 280.9206
845.40 278.3984
845.50 276.4699
845.60 275.5564
845.70 276.1299
845.80 278.3271
845.90 281.7162
846.00 285.4145
846.10 288.1391
846.20 288.2388
846.30 284.7772
846.40 278.511
846.50 271.2133
846.60 264.7468
846.70 260.4904
846.80 259.2475
846.90 261.2395
847.00 265.8989
847.10 271.9821
847.20 278.1208
847.30 283.1201
847.40 286.0663
847.50 286.4652
847.60 285.0555
847.70 283.4504
847.80 282.5109
847.90 282.1758
848.00 282.2322
848.10 282.6032
848.20 283.2765
848.30 284.2865
848.40 285.6991
848.50 287.4992
848.60 289.6196
848.70 291.6698
848.80 292.9396
848.90 292.8674
849.00 291.2827
849.10 288.2466
849.20 284.0101
849.30 279.3408
849.40 275.3399
849.50 272.7819
849.60 271.815
849.70 272.3027
849.80 274.0029
849.90 276.5021
850.00 279.2714
850.10 281.9392
850.20 284.2149
850.30 285.8249
850.40 286.8883
850.50 287.5857
850.60 287.5115
850.70 285.803
850.80 281.7852
850.90 275.8267
851.00 269.2517
851.10 263.3759
851.20 259.0858
851.30 256.7927
851.40 256.0329
851.50 255.1935
851.60 252.2741
851.70 245.6636
851.80 234.4687
851.90 219.2457
852.00 202.1788
852.10 186.3426
852.20 174.8366
852.30 169.8946
852.40 172.2778
852.50 181.2571
852.60 195.0231
852.70 211.1417
852.80 227.2694
852.90 242.0141
853.00 254.9558
853.10 266.2552
853.20 276.1472
853.30 284.7536
853.40 292.2995
853.50 299.0402
853.60 304.9236
853.70 309.5618
853.80 312.599
853.90 314.0352
854.00 314.4764
854.10 314.8322
854.20 315.7531
854.30 317.3847
854.40 319.5574
854.50 321.7916
854.60 323.5782
854.70 324.5363
854.80 324.3148
854.90 322.748
855.00 320.311
855.10 317.9638
855.20 316.499
855.30 316.442
855.40 317.8242
855.50 320.1993
855.60 322.9239
855.70 325.4068
855.80 327.223
855.90 328.3857
856.00 329.236
856.10 330.0452
856.20 331.1086
856.30 332.6511
856.40 334.2431
856.50 334.9869
856.60 334.5111
856.70 333.1359
856.80 331.4081
856.90 329.9287
857.00 329.3311
857.10 329.9715
857.20 331.6978
857.30 334.079
857.40 336.5783
857.50 338.711
857.60 340.026
857.70 340.1404
857.80 339.158
857.90 337.7297
858.00 336.6981
858.10 336.5891
858.20 337.447
858.30 339.1461
858.40 341.5658
858.50 344.6688
858.60 348.1641
858.70 351.3808
858.80 353.8791
858.90 355.5681
859.00 356.2967
859.10 356.0963
859.20 355.407
859.30 354.6236
859.40 353.6273
859.50 352.307
859.60 351.0443
859.70 350.2161
859.80 349.968
859.90 350.2982
860.00 351.2612
860.10 353.0458
860.20 355.5829
860.30 358.1906
860.40 359.9237
860.50 359.8156
860.60 356.9449
860.70 350.862
860.80 341.8731
860.90 330.5947
861.00 317.6674
861.10 303.8239
861.20 289.7442
861.30 275.7011
861.40 261.6309
861.50 247.6453
861.60 234.0531
861.70 221.2418
861.80 209.6833
861.90 199.7896
862.00 191.8012
862.10 185.9257
862.20 182.3469
862.30 181.0827
862.40 181.8695
862.50 184.0615
862.60 186.6365
862.70 188.8079
862.80 190.0578
862.90 189.6725
863.00 186.8677
863.10 181.6296
863.20 175.0849
863.30 168.7883
863.40 164.1335
863.50 162.0749
863.60 162.9392
863.70 166.3257
863.80 171.2739
863.90 176.492
864.00 180.7426
864.10 183.3235
864.20 184.2658
864.30 184.2353
864.40 184.3555
864.50 185.5083
864.60 187.7179
864.70 190.326
864.80 192.4198
864.90 193.3102
865.00 192.982
865.10 191.9333
865.20 190.7838
865.30 190.5227
865.40 192.4352
865.50 197.2899
865.60 205.1717
865.70 214.992
865.80 224.605
865.90 232.1408
866.00 236.8829
866.10 239.4133
866.20 240.9256
866.30 242.2558
866.40 243.4419
866.50 244.4159
866.60 245.3082
866.70 245.8791
866.80 245.5227
866.90 243.8251
867.00 240.9585
867.10 237.9941
867.20 236.4285
867.30 237.2442
867.40 240.3371
867.50 244.6587
867.60 248.7619
867.70 251.2322
867.80 251.2027
867.90 248.4998
868.00 243.5304
868.10 237.2695
868.20 231.2747
868.30 227.2722
868.40 226.3705
868.50 228.7428
868.60 233.7724
868.70 240.2967
868.80 246.688
868.90 251.0173
869.00 251.6017
869.10 247.7968
869.20 240.1309
869.30 229.7602
869.40 218.2909
869.50 207.7331
869.60 199.7981
869.70 195.3928
869.80 194.7155
869.90 197.2807
870.00 202.037
870.10 207.438
870.20 211.8949
870.30 214.4572
870.40 215.1409
870.50 214.3877
870.60 212.6172
870.70 210.1893
870.80 207.3562
870.90 204.3262
871.00 201.2357
871.10 198.2248
871.20 195.4279
871.30 192.9997
871.40 191.0722
871.50 189.7342
871.60 189.0703
871.70 189.1314
871.80 189.8146
871.90 190.9362
872.00 192.224
872.10 193.5383
872.20 195.0344
872.30 196.9708
872.40 199.7219
872.50 203.3433
872.60 207.156
872.70 210.3809
872.80 212.5917
872.90 213.6165
873.00 213.5707
873.10 212.7281
873.20 211.4422
873.30 210.191
873.40 209.6339
873.50 210.2754
873.60 212.1639
873.70 215.036
873.80 218.4901
873.90 222.2361
874.00 226.3656
874.10 230.8777
874.20 235.4405
874.30 239.5211
874.40 242.5105
874.50 244.067
874.60 244.1965
874.70 243.0105
874.80 240.7576
874.90 237.9302
875.00 234.8921
875.10 232.1172
875.20 230.245
875.30 229.691
875.40 230.665
875.50 232.7754
875.60 234.5077
875.70 234.3588
875.80 231.791
875.90 226.7236
876.00 219.8722
876.10 213.0593
876.20 208.0688
876.30 205.6937
876.40 204.6035
876.50 202.5441
876.60 198.7945
876.70 193.8588
876.80 189.2353
876.90 187.2433
877.00 190.574
877.10 201.0378
877.20 218.3653
877.30 240.5734
877.40 263.8314
877.50 283.0857
877.60 293.6685
877.70 293.4493
877.80 285.1558
877.90 273.6973
878.00 262.374
878.10 253.1462
878.20 246.5609
878.30 242.2178
878.40 239.6823
878.50 238.4337
878.60 238.1151
878.70 238.705
878.80 239.6903
878.90 240.0882
879.00 240.1584
879.10 240.698
879.20 242.2941
879.30 245.4694
879.40 250.3796
879.50 256.7825
879.60 263.8771
879.70 270.4266
879.80 275.0436
879.90 276.5578
880.00 274.2152
880.10 267.818
880.20 258.7802
880.30 249.7953
880.40 242.607
880.50 237.808
880.60 235.2604
880.70 234.5464
880.80 235.5604
880.90 238.2855
881.00 243.0153
881.10 250.2781
881.20 260.3141
881.30 272.7825
881.40 286.7189
881.50 300.7607
881.60 313.3331
881.70 322.8446
881.80 328.3036
881.90 329.4441
882.00 326.5705
882.10 320.6638
882.20 312.0125
882.30 299.2545
882.40 280.5541
882.50 256.1867
882.60 228.5406
882.70 200.9335
882.80 177.6789
882.90 162.7549
883.00 158.5955
883.10 165.8993
883.20 182.8943
883.30 205.6202
883.40 229.3115
883.50 249.0548
883.60 262.1997
883.70 269.9118
883.80 275.385
883.90 280.563
884.00 285.9378
884.10 291.5293
884.20 296.534
884.30 299.9836
884.40 300.8321
884.50 297.6254
884.60 290.0002
884.70 279.983
884.80 270.3377
884.90 263.2813
885.00 260.1978
885.10 261.4859
885.20 266.6721
885.30 274.7075
885.40 284.1332
885.50 293.2176
885.60 300.347
885.70 304.3719
885.80 305.3774
885.90 305.1004
886.00 305.5103
886.10 307.1967
886.20 309.7946
886.30 312.8181
886.40 315.6331
886.50 317.1991
886.60 316.4961
886.70 312.9837
886.80 306.8321
886.90 298.7662
887.00 289.5864
887.10 280.6382
887.20 273.8395
887.30 270.8697
887.40 273.1156
887.50 281.4789
887.60 295.7403
887.70 314.3356
887.80 335.0103
887.90 355.0561
888.00 371.9658
888.10 383.957
888.20 389.6298
888.30 388.9206
888.40 383.6796
888.50 376.499
888.60 369.6366
888.70 364.8839
888.80 362.9366
888.90 363.2644
889.00 364.844
889.10 366.3055
889.20 365.4537
889.30 360.712
889.40 351.9087
889.50 339.9801
889.60 327.3019
889.70 316.8457
889.80 310.5567
889.90 308.6546
890.00 310.0843
890.10 313.061
890.20 316.2704
890.30 318.9306
890.40 320.1566
890.50 319.4636
890.60 317.3517
890.70 314.8732
890.80 313.189
890.90 313.3191
891.00 315.6544
891.10 319.9424
891.20 325.7118
891.30 332.5605
891.40 340.3863
891.50 349.2028
891.60 358.096
891.70 363.9965
891.80 364.4747
891.90 359.9837
892.00 351.9502
892.10 341.7706
892.20 330.7784
892.30 320.5207
892.40 312.5645
892.50 307.9758
892.60 307.2097
892.70 310.3817
892.80 316.885
892.90 325.3759
893.00 334.5745
893.10 344.7471
893.20 355.6498
893.30 364.6739
893.40 369.2366
893.50 368.2608
893.60 361.7207
893.70 349.6406
893.80 332.373
893.90 311.1237
894.00 287.9462
894.10 265.132
894.20 244.8501
894.30 228.9279
894.40 218.6482
894.50 214.8184
894.60 217.6475
894.70 226.752
894.80 240.9201
894.90 258.0203
895.00 275.5649
895.10 291.6914
895.20 305.9487
895.30 318.9833
895.40 330.6015
895.50 340.1954
895.60 347.9394
895.70 354.2438
895.80 359.6265
895.90 364.0673
896.00 367.0122
896.10 367.8961
896.20 366.4563
896.30 362.8203
896.40 357.4108
896.50 350.88
896.60 343.9533
896.70 337.1818
896.80 331.9022
896.90 329.7728
897.00 331.588
897.10 337.1429
897.20 344.9715
897.30 353.3253
897.40 360.9253
897.50 366.8124
897.60 370.5243
897.70 372.1017
897.80 371.7926
897.90 370.2989
898.00 368.6679
898.10 368.0768
898.20 369.8886
898.30 375.0585
898.40 383.5346
898.50 394.3107
898.60 405.8305
898.70 415.584
898.80 421.1786
898.90 421.9212
899.00 418.1334
899.10 410.6857
899.20 401.2538
899.30 391.436
899.40 382.2025
899.50 374.4284
899.60 368.9246
899.70 366.0373
899.80 365.5696
899.90 367.6181
900.00 368.7461
900.10 369.8741
900.20 371.0021
900.30 372.1301
900.40 373.2581
900.50 374.3862
900.60 375.5142
900.70 376.6422
900.80 377.7702
900.90 378.8982
901.00 380.0262
901.10 381.1542
901.20 382.2822
901.30 383.4103
901.40 384.5383
901.50 385.6663
901.60 386.7943
901.70 387.9223
901.80 389.0503
901.90 390.1783
902.00 391.3063
902.10 392.4344
902.20 393.5624
902.30 394.6904
902.40 395.8184
902.50 396.9464
902.60 398.2154
902.70 400.0145
902.80 401.8136
902.90 403.6127
903.00 405.4119
903.10 407.211
903.20 409.0101
903.30 410.693
903.40 412.2014
903.50 413.7099
903.60 415.2183
903.70 416.7267
903.80 418.2352
903.90 419.7436
904.00 421.2521
904.10 422.7605
904.20 424.269
904.30 425.7774
904.40 427.2859
904.50 428.7943
904.60 430.3027
904.70 431.8112
904.80 433.3196
904.90 434.8281
905.00 436.3365
905.10 437.845
905.20 439.3534
905.30 440.8619
905.40 442.3703
905.50 443.8787
905.60 445.3872
905.70 446.8956
905.80 448.4041
905.90 449.9125
906.00 451.421
906.10 452.7105
906.20 453.9886
906.30 455.2666
906.40 456.5446
906.50 457.8227
906.60 459.1007
906.70 460.2594
906.80 460.3439
906.90 460.4284
907.00 460.5129
907.10 460.5974
907.20 460.6819
907.30 460.7664
907.40 460.8509
907.50 460.9355
907.60 461.02
907.70 461.1045
907.80 461.189
907.90 461.2735
908.00 461.358
908.10 461.4425
908.20 461.527
908.30 461.6115
908.40 461.696
908.50 461.7805
908.60 461.8651
908.70 461.9496
908.80 462.0341
908.90 462.1186
909.00 462.2031
909.10 462.2876
909.20 462.3721
909.30 462.4566
909.40 462.5411
909.50 462.5983
909.60 462.6292
909.70 462.66
909.80 462.6909
909.90 462.7218
910.00 462.7527
910.10 462.7836
910.20 463.4235
910.30 464.4368
910.40 465.4501
910.50 466.4633
910.60 467.4766
910.70 468.4899
910.80 469.5031
910.90 470.5164
911.00 471.5297
911.10 472.5429
911.20 473.5562
911.30 474.5695
911.40 475.5827
911.50 476.596
911.60 477.6093
911.70 478.6225
911.80 479.6358
911.90 480.6491
912.00 481.6624
912.10 482.6756
912.20 483.6889
912.30 484.7022
912.40 485.7154
912.50 486.7287
912.60 487.742
912.70 488.7552
912.80 489.7685
912.90 490.7818
913.00 491.5938
913.10 492.3784
913.20 493.1631
913.30 493.9477
913.40 494.7323
913.50 495.5169
913.60 496.3015
913.70 497.0041
913.80 497.7031
913.90 498.4022
914.00 499.1013
914.10 499.8004
914.20 500.4995
914.30 501.1986
914.40 501.8977
914.50 502.5968
914.60 503.2958
914.70 503.9949
914.80 504.694
914.90 505.3931
915.00 506.0922
915.10 506.7913
915.20 507.4904
915.30 508.1895
915.40 508.8885
915.50 509.5876
915.60 510.2867
915.70 510.9858
915.80 511.6849
915.90 512.384
916.00 513.0831
916.10 513.7822
916.20 514.4812
916.30 515.1803
916.40 515.8891
916.50 516.709
916.60 517.5289
916.70 518.3489
916.80 519.1688
916.90 519.9887
917.00 520.8087
917.10 521.5583
917.20 521.7924
917.30 522.0265
917.40 522.2607
917.50 522.4948
917.60 522.7289
917.70 522.963
917.80 523.1972
917.90 523.4313
918.00 523.6654
918.10 523.8995
918.20 524.1337
918.30 524.3678
918.40 524.6019
918.50 524.836
918.60 525.0702
918.70 525.3043
918.80 525.5384
918.90 525.7725
919.00 526.0067
919.10 526.2408
919.20 526.4749
919.30 526.709
919.40 526.9432
919.50 527.1773
919.60 527.4114
919.70 527.6455
919.80 527.8796
919.90 528.0941
920.00 528.1315
920.10 528.169
920.20 528.2064
920.30 528.2438
920.40 528.2813
920.50 528.3187
920.60 528.3767
920.70 528.6013
920.80 528.8258
920.90 529.0503
921.00 529.2748
921.10 529.4994
921.20 529.7239
921.30 529.9484
921.40 530.1729
921.50 530.3975
921.60 530.622
921.70 530.8465
921.80 531.0711
921.90 531.2956
922.00 531.5201
922.10 531.7446
922.20 531.9692
922.30 532.1937
922.40 532.4182
922.50 532.6427
922.60 532.8673
922.70 533.0918
922.80 533.3163
922.90 533.5409
923.00 533.7654
923.10 533.9899
923.20 534.2144
923.30 534.439
923.40 534.6635
923.50 535.2888
923.60 535.9396
923.70 536.5904
923.80 537.2413
923.90 537.8921
924.00 538.543
924.10 539.1938
924.20 539.6543
924.30 540.0982
924.40 540.5422
924.50 540.9861
924.60 541.4301
924.70 541.874
924.80 542.3179
924.90 542.7619
925.00 543.2058
925.10 543.6498
925.20 544.0937
925.30 544.5376
925.40 544.9816
925.50 545.4255
925.60 545.8694
925.70 546.3134
925.80 546.7573
925.90 547.2013
926.00 547.6452
926.10 548.0891
926.20 548.5331
926.30 548.977
926.40 549.4209
926.50 549.8649
926.60 550.3088
926.70 550.7528
926.80 551.1967
926.90 551.6406
927.00 551.9003
927.10 552.0421
927.20 552.1839
927.30 552.3257
927.40 552.4675
927.50 552.6093
927.60 552.7511
927.70 553.3593
927.80 554.3491
927.90 555.3389
928.00 556.3287
928.10 557.3185
928.20 558.3083
928.30 559.2981
928.40 560.2879
928.50 561.2776
928.60 562.2674
928.70 563.2572
928.80 564.247
928.90 565.2368
929.00 566.2266
929.10 567.2164
929.20 568.2062
929.30 569.196
929.40 570.1858
929.50 571.1755
929.60 572.1653
929.70 573.1551
929.80 574.1449
929.90 575.1347
930.00 576.1245
930.10 577.1143
930.20 578.1041
930.30 579.0939
930.40 580.0836
930.50 581.0636
930.60 581.9638
930.70 582.864
930.80 583.7642
930.90 584.6644
931.00 585.5646
931.10 586.4648
931.20 587.3554
931.30 587.7729
931.40 588.1905
931.50 588.608
931.60 589.0256
931.70 589.4431
931.80 589.8607
931.90 590.2782
932.00 590.6958
932.10 591.1133
932.20 591.5308
932.30 591.9484
932.40 592.3659
932.50 592.7835
932.60 593.201
932.70 593.6186
932.80 594.0361
932.90 594.4537
933.00 594.8712
933.10 595.2888
933.20 595.7063
933.30 596.1239
933.40 596.5414
933.50 596.959
933.60 597.3765
933.70 597.7941
933.80 598.2116
933.90 598.6292
934.00 599.0467
934.10 599.5718
934.20 600.2338
934.30 600.8958
934.40 601.5578
934.50 602.2198
934.60 602.8818
934.70 603.5438
934.80 604.2315
934.90 604.9767
935.00 605.7219
935.10 606.4671
935.20 607.2123
935.30 607.9575
935.40 608.7027
935.50 609.4479
935.60 610.1931
935.70 610.9383
935.80 611.6835
935.90 612.4286
936.00 613.1738
936.10 613.919
936.20 614.6642
936.30 615.4094
936.40 616.1546
936.50 616.8998
936.60 617.645
936.70 618.3902
936.80 619.1354
936.90 619.8805
937.00 620.6257
937.10 621.3709
937.20 622.1161
937.30 622.8613
937.40 623.6065
937.50 624.3517
937.60 625.0969
937.70 625.7869
937.80 626.4402
937.90 627.0935
938.00 627.7468
938.10 628.4001
938.20 629.0534
938.30 629.7067
938.40 630.4214
938.50 631.2176
938.60 632.0138
938.70 632.81
938.80 633.6062
938.90 634.4023
939.00 635.1985
939.10 635.9947
939.20 636.7909
939.30 637.587
939.40 638.3832
939.50 639.1794
939.60 639.9756
939.70 640.7718
939.80 641.5679
939.90 642.3641
940.00 643.1603
940.10 643.9565
940.20 644.7527
940.30 645.5488
940.40 646.345
940.50 647.1412
940.60 647.9374
940.70 648.7335
940.80 649.5297
940.90 650.3259
941.00 651.1221
941.10 651.9183
941.20 652.7144
941.30 653.6254
941.40 654.616
941.50 655.6067
941.60 656.5973
941.70 657.588
941.80 658.5786
941.90 659.5693
942.00 660.5263
942.10 661.4306
942.20 662.3349
942.30 663.2392
942.40 664.1435
942.50 665.0478
942.60 665.9521
942.70 666.8564
942.80 667.7607
942.90 668.6651
943.00 669.5694
943.10 670.4737
943.20 671.378
943.30 672.2823
943.40 673.1866
943.50 674.0909
943.60 674.9952
943.70 675.8996
943.80 676.8039
943.90 677.7082
944.00 678.6125
944.10 679.5168
944.20 680.4211
944.30 681.3254
944.40 682.2297
944.50 683.134
944.60 684.0384
944.70 684.9427
944.80 685.847
944.90 686.7081
945.00 687.5071
945.10 688.3062
945.20 689.1052
945.30 689.9042
945.40 690.7032
945.50 691.5023
945.60 692.189
945.70 692.3644
945.80 692.5398
945.90 692.7152
946.00 692.8906
946.10 693.0661
946.20 693.2415
946.30 693.4169
946.40 693.5923
946.50 693.7677
946.60 693.9431
946.70 694.1185
946.80 694.2939
946.90 694.4693
947.00 694.6447
947.10 694.8201
947.20 694.9955
947.30 695.1709
947.40 695.3463
947.50 695.5217
947.60 695.6971
947.70 695.8725
947.80 696.048
947.90 696.2234
948.00 696.3988
948.10 696.5742
948.20 696.7496
948.30 696.925
948.40 697.1004
948.50 697.2508
948.60 697.0693
948.70 696.8878
948.80 696.7063
948.90 696.5248
949.00 696.3433
949.10 696.1618
949.20 695.9802
949.30 695.9253
949.40 695.9001
949.50 695.8749
949.60 695.8497
949.70 695.8244
949.80 695.7992
949.90 695.774
950.00 695.7488
950.10 695.7235
950.20 695.6983
950.30 695.6731
950.40 695.6479
950.50 695.6226
950.60 695.5974
950.70 695.5722
950.80 695.547
950.90 695.5217
951.00 695.4965
951.10 695.4713
951.20 695.4461
951.30 695.4208
951.40 695.3956
951.50 695.3704
951.60 695.3452
951.70 695.3199
951.80 695.2947
951.90 695.2695
952.00 695.2443
952.10 695.2191
952.20 695.3469
952.30 695.5951
952.40 695.8433
952.50 696.0914
952.60 696.3396
952.70 696.5878
952.80 696.8359
952.90 697.1199
953.00 697.5005
953.10 697.8812
953.20 698.2619
953.30 698.6425
953.40 699.0232
953.50 699.4038
953.60 699.7845
953.70 700.1652
953.80 700.5458
953.90 700.9265
954.00 701.3072
954.10 701.6878
954.20 702.0685
954.30 702.4492
954.40 702.8298
954.50 703.2105
954.60 703.5912
954.70 703.9718
954.80 704.3525
954.90 704.7332
955.00 705.1138
955.10 705.4945
955.20 705.8751
955.30 706.2558
955.40 706.6365
955.50 707.0171
955.60 707.3978
955.70 707.7785
955.80 708.1591
955.90 708.3783
956.00 708.5796
956.10 708.7809
956.20 708.9821
956.30 709.1834
956.40 709.3846
956.50 709.5859
956.60 709.852
956.70 710.1671
956.80 710.4823
956.90 710.7974
957.00 711.1125
957.10 711.4276
957.20 711.7427
957.30 712.0578
957.40 712.3729
957.50 712.6881
957.60 713.0032
957.70 713.3183
957.80 713.6334
957.90 713.9485
958.00 714.2636
958.10 714.5787
958.20 714.8938
958.30 715.209
958.40 715.5241
958.50 715.8392
958.60 716.1543
958.70 716.4694
958.80 716.7845
958.90 717.0996
959.00 717.4148
959.10 717.7299
959.20 718.045
959.30 718.3601
959.40 718.6752
959.50 718.9885
959.60 719.2777
959.70 719.5669
959.80 719.8562
959.90 720.1454
960.00 720.4346
960.10 720.7238
960.20 721.013
960.30 721.5831
960.40 722.2679
960.50 722.9526
960.60 723.6374
960.70 724.3222
960.80 725.007
960.90 725.6917
961.00 726.3765
961.10 727.0613
961.20 727.746
961.30 728.4308
961.40 729.1156
961.50 729.8004
961.60 730.4851
961.70 731.1699
961.80 731.8547
961.90 732.5394
962.00 733.2242
962.10 733.909
962.20 734.5937
962.30 735.2785
962.40 735.9633
962.50 736.6481
962.60 737.3328
962.70 738.0176
962.80 738.7024
962.90 739.3871
963.00 740.0719
963.10 740.7567
963.20 741.4679
963.30 742.4467
963.40 743.4255
963.50 744.4043
963.60 745.3831
963.70 746.3619
963.80 747.3407
963.90 748.3195
964.00 749.0079
964.10 749.5719
964.20 750.1359
964.30 750.6998
964.40 751.2638
964.50 751.8278
964.60 752.3917
964.70 752.9557
964.80 753.5197
964.90 754.0836
965.00 754.6476
965.10 755.2116
965.20 755.7755
965.30 756.3395
965.40 756.9035
965.50 757.4675
965.60 758.0314
965.70 758.5954
965.80 759.1594
965.90 759.7233
966.00 760.2873
966.10 760.8513
966.20 761.4152
966.30 761.9792
966.40 762.5432
966.50 763.1071
966.60 763.6711
966.70 764.2351
966.80 764.799
966.90 765.363
967.00 765.88
967.10 766.3945
967.20 766.909
967.30 767.4236
967.40 767.9381
967.50 768.4526
967.60 768.9671
967.70 769.6021
967.80 770.3438
967.90 771.0855
968.00 771.8273
968.10 772.569
968.20 773.3108
968.30 774.0525
968.40 774.7942
968.50 775.536
968.60 776.2777
968.70 777.0194
968.80 777.7612
968.90 778.5029
969.00 779.2446
969.10 779.9864
969.20 780.7281
969.30 781.4699
969.40 782.2116
969.50 782.9533
969.60 783.6951
969.70 784.4368
969.80 785.1785
969.90 785.9203
970.00 786.662
970.10 787.4038
970.20 788.1455
970.30 788.8872
970.40 789.629
970.50 790.3707
970.60 791.1124
970.70 792.1674
970.80 793.3911
970.90 794.6147
971.00 795.8383
971.10 797.062
971.20 798.2856
971.30 799.5093
971.40 800.6939
971.50 801.7227
971.60 802.7515
971.70 803.7803
971.80 804.809
971.90 805.8378
972.00 806.8666
972.10 807.8954
972.20 808.9241
972.30 809.9529
972.40 810.9817
972.50 812.0105
972.60 813.0392
972.70 814.068
972.80 815.0968
972.90 816.1256
973.00 817.1544
973.10 818.1831
973.20 819.2119
973.30 820.2407
973.40 821.2695
973.50 822.2982
973.60 823.327
973.70 824.3558
973.80 825.3846
973.90 826.4133
974.00 827.4421
974.10 828.4709
974.20 829.4997
974.30 830.5284
974.40 831.3685
974.50 831.4989
974.60 831.6293
974.70 831.7596
974.80 831.89
974.90 832.0203
975.00 832.1507
975.10 832.2811
975.20 832.2518
975.30 832.1605
975.40 832.0691
975.50 831.9778
975.60 831.8864
975.70 831.7951
975.80 831.7038
975.90 831.6124
976.00 831.5211
976.10 831.4298
976.20 831.3384
976.30 831.2471
976.40 831.1557
976.50 831.0644
976.60 830.9731
976.70 830.8817
976.80 830.7904
976.90 830.6991
977.00 830.6077
977.10 830.5164
977.20 830.425
977.30 830.3337
977.40 830.2424
977.50 830.151
977.60 830.0597
977.70 829.9684
977.80 829.877
977.90 829.7857
978.00 829.6943
978.10 829.603
978.20 829.536
978.30 829.4845
978.40 829.4331
978.50 829.3817
978.60 829.3302
978.70 829.2788
978.80 829.2273
978.90 829.1374
979.00 828.7011
979.10 828.2648
979.20 827.8286
979.30 827.3923
979.40 826.956
979.50 826.5197
979.60 826.0835
979.70 825.6472
979.80 825.2109
979.90 824.7746
980.00 824.3384
980.10 823.9021
980.20 823.4658
980.30 823.0295
980.40 822.5933
980.50 822.157
980.60 821.7207
980.70 821.2844
980.80 820.8482
980.90 820.4119
981.00 819.9756
981.10 819.5394
981.20 819.1031
981.30 818.6668
981.40 818.2305
981.50 817.7943
981.60 817.358
981.70 816.9217
981.80 816.4854
981.90 816.0492
982.00 815.4571
982.10 814.8398
982.20 814.2224
982.30 813.6051
982.40 812.9877
982.50 812.3703
982.60 811.753
982.70 810.9973
982.80 809.9479
982.90 808.8985
983.00 807.849
983.10 806.7996
983.20 805.7501
983.30 804.7007
983.40 803.6513
983.50 802.6018
983.60 801.5524
983.70 800.503
983.80 799.4535
983.90 798.4041
984.00 797.3546
984.10 796.3052
984.20 795.2558
984.30 794.2063
984.40 793.1569
984.50 792.1074
984.60 791.058
984.70 790.0086
984.80 788.9591
984.90 787.9097
985.00 786.8602
985.10 785.8108
985.20 784.7614
985.30 783.7119
985.40 782.6625
985.50 781.6131
985.60 780.5636
985.70 779.5142
985.80 777.9017
985.90 776.2719
986.00 774.642
986.10 773.0122
986.20 771.3823
986.30 769.7525
986.40 768.1226
986.50 766.6195
986.60 765.3063
986.70 763.9932
986.80 762.6801
986.90 761.367
987.00 760.0538
987.10 758.7407
987.20 757.4276
987.30 756.1145
987.40 754.8014
987.50 753.4882
987.60 752.1751
987.70 750.862
987.80 749.5489
987.90 748.2357
988.00 746.9226
988.10 745.6095
988.20 744.2964
988.30 742.9832
988.40 741.6701
988.50 740.357
988.60 739.0439
988.70 737.7307
988.80 736.4176
988.90 735.1045
989.00 733.7914
989.10 732.4782
989.20 731.1651
989.30 729.852
989.40 728.5389
989.50 727.2258
989.60 726.0671
989.70 724.9201
989.80 723.7731
989.90 722.626
990.00 721.479
990.10 720.332
990.20 719.185
990.30 717.9351
990.40 716.4764
990.50 715.0178
990.60 713.5591
990.70 712.1004
990.80 710.6418
990.90 709.1831
991.00 707.7244
991.10 706.2658
991.20 704.8071
991.30 703.3484
991.40 701.8898
991.50 700.4311
991.60 698.9724
991.70 697.5138
991.80 696.0551
991.90 694.5964
992.00 693.1378
992.10 691.6791
992.20 690.2204
992.30 688.7618
992.40 687.3031
992.50 685.8444
992.60 684.3858
992.70 682.9271
992.80 681.4684
992.90 680.0098
993.00 678.5511
993.10 677.0924
993.20 675.6338
993.30 674.1751
993.40 672.8568
993.50 671.5854
993.60 670.3139
993.70 669.0424
993.80 667.771
993.90 666.4995
994.00 665.228
994.10 664.0237
994.20 663.3119
994.30 662.6001
994.40 661.8884
994.50 661.1766
994.60 660.4648
994.70 659.753
994.80 659.0412
994.90 658.3294
995.00 657.6176
995.10 656.9058
995.20 656.194
995.30 655.4822
995.40 654.7704
995.50 654.0586
995.60 653.3468
995.70 652.635
995.80 651.9232
995.90 651.2114
996.00 650.4996
996.10 649.7878
996.20 649.076
996.30 648.3642
996.40 647.6524
996.50 646.9407
996.60 646.2289
996.70 645.5171
996.80 644.8053
996.90 644.0935
997.00 643.3817
997.10 642.6699
997.20 642.3289
997.30 642.5
997.40 642.671
997.50 642.8421
997.60 643.0132
997.70 643.1842
997.80 643.3553
997.90 643.5264
998.00 643.7626
998.10 644.0182
998.20 644.2739
998.30 644.5295
998.40 644.7852
998.50 645.0408
998.60 645.2965
998.70 645.5521
998.80 645.8078
998.90 646.0634
999.00 646.3191
999.10 646.5747
999.20 646.8304
999.30 647.086
999.40 647.3416
999.50 647.5973
999.60 647.8529
999.70 648.1086
999.80 648.3642
999.90 648.6199
1000.00 648.8755
1000.10 649.1312
1000.20 649.3868
1000.30 649.6425
1000.40 649.8981
1000.50 650.1538
1000.60 650.4094
1000.70 650.6651
1000.80 650.9207
1000.90 651.1764
1001.00 651.432
1001.10 651.6027
1001.20 651.7734
1001.30 651.9441
1001.40 652.1147
1001.50 652.2854
1001.60 652.4561
1001.70 652.6268
1001.80 653.0106
1001.90 653.8918
1002.00 654.773
1002.10 655.6542
1002.20 656.5353
1002.30 657.4165
1002.40 658.2977
1002.50 659.1789
1002.60 660.0601
1002.70 660.9413
1002.80 661.8224
1002.90 662.7036
1003.00 663.5848
1003.10 664.466
1003.20 665.3472
1003.30 666.2284
1003.40 667.1096
1003.50 667.9907
1003.60 668.8719
1003.70 669.7531
1003.80 670.6343
1003.90 671.5155
1004.00 672.3967
1004.10 673.2778
1004.20 674.159
1004.30 675.0402
1004.40 675.9214
1004.50 676.8026
1004.60 677.6838
1004.70 678.565
1004.80 679.4461
1004.90 680.3794
1005.00 681.3906
1005.10 682.4019
1005.20 683.4132
1005.30 684.4245
1005.40 685.4358
1005.50 686.4471
1005.60 687.4583
1005.70 688.3626
1005.80 689.2211
1005.90 690.0795
1006.00 690.9379
1006.10 691.7964
1006.20 692.6548
1006.30 693.5132
1006.40 694.3717
1006.50 695.2301
1006.60 696.0885
1006.70 696.947
1006.80 697.8054
1006.90 698.6638
1007.00 699.5223
1007.10 700.3807
1007.20 701.2391
1007.30 702.0976
1007.40 702.956
1007.50 703.8145
1007.60 704.6729
1007.70 705.5313
1007.80 706.3898
1007.90 707.2482
1008.00 708.1066
1008.10 708.9651
1008.20 709.8235
1008.30 710.6819
1008.40 711.5404
1008.50 712.3988
1008.60 713.2572
1008.70 714.1157
1008.80 714.9487
1008.90 715.7648
1009.00 716.5809
1009.10 717.3969
1009.20 718.213
1009.30 719.0291
1009.40 719.8452
1009.50 720.6613
1009.60 721.4257
1009.70 722.1844
1009.80 722.9431
1009.90 723.7018
1010.00 724.4605
1010.10 725.2192
1010.20 725.9779
1010.30 726.7366
1010.40 727.4953
1010.50 728.254
1010.60 729.0127
1010.70 729.7714
1010.80 730.5301
1010.90 731.2888
1011.00 732.0475
1011.10 732.8062
1011.20 733.5649
1011.30 734.3236
1011.40 735.0823
1011.50 735.841
1011.60 736.5997
1011.70 737.3584
1011.80 738.1171
1011.90 738.8758
1012.00 739.6345
1012.10 740.3932
1012.20 741.1519
1012.30 741.9106
1012.40 742.6693
1012.50 743.428
1012.60 744.1867
1012.70 744.7962
1012.80 745.3683
1012.90 745.9404
1013.00 746.5126
1013.10 747.0847
1013.20 747.6569
1013.30 748.229
1013.40 748.8011
1013.50 748.8909
1013.60 748.9807
1013.70 749.0705
1013.80 749.1603
1013.90 749.2501
1014.00 749.3399
1014.10 749.4297
1014.20 749.5195
1014.30 749.6093
1014.40 749.6991
1014.50 749.7889
1014.60 749.8787
1014.70 749.9685
1014.80 750.0583
1014.90 750.1481
1015.00 750.2379
1015.10 750.3276
1015.20 750.4174
1015.30 750.5072
1015.40 750.597
1015.50 750.6868
1015.60 750.7766
1015.70 750.8664
1015.80 750.9562
1015.90 751.046
1016.00 751.1358
1016.10 751.2256
1016.20 751.3154
1016.30 751.4052
1016.40 751.495
1016.50 751.5848
1016.60 751.424
1016.70 751.2006
1016.80 750.9772
1016.90 750.7537
1017.00 750.5303
1017.10 750.3069
1017.20 750.0835
1017.30 749.8601
1017.40 750.2781
1017.50 750.6962
1017.60 751.1143
1017.70 751.5324
1017.80 751.9504
1017.90 752.3685
1018.00 752.7866
1018.10 753.2046
1018.20 753.6227
1018.30 754.0408
1018.40 754.4588
1018.50 754.8769
1018.60 755.295
1018.70 755.7131
1018.80 756.1311
1018.90 756.5492
1019.00 756.9673
1019.10 757.3853
1019.20 757.8034
1019.30 758.2215
1019.40 758.6396
1019.50 759.0576
1019.60 759.4757
1019.70 759.8938
1019.80 760.3118
1019.90 760.7299
1020.00 761.148
1020.10 761.5661
1020.20 761.9841
1020.30 762.4022
1020.40 762.8203
1020.50 763.6062
1020.60 764.6375
1020.70 765.6687
1020.80 766.6999
1020.90 767.7311
1021.00 768.7624
1021.10 769.7936
1021.20 770.8248
1021.30 771.782
1021.40 772.7206
1021.50 773.6592
1021.60 774.5979
1021.70 775.5365
1021.80 776.4751
1021.90 777.4137
1022.00 778.3524
1022.10 779.291
1022.20 780.2296
1022.30 781.1682
1022.40 782.1069
1022.50 783.0455
1022.60 783.9841
1022.70 784.9227
1022.80 785.8614
1022.90 786.8
1023.00 787.7386
1023.10 788.6772
1023.20 789.6159
1023.30 790.5545
1023.40 791.4931
1023.50 792.4317
1023.60 793.3704
1023.70 794.309
1023.80 795.2476
1023.90 796.1862
1024.00 797.1249
1024.10 798.0635
1024.20 799.0021
1024.30 799.9408
1024.40 800.6933
1024.50 801.1668
1024.60 801.6403
1024.70 802.1138
1024.80 802.5873
1024.90 803.0608
1025.00 803.5343
1025.10 804.0077
1025.20 804.4792
1025.30 804.9486
1025.40 805.418
1025.50 805.8874
1025.60 806.3568
1025.70 806.8263
1025.80 807.2957
1025.90 807.7651
1026.00 808.2345
1026.10 808.7039
1026.20 809.1733
1026.30 809.6427
1026.40 810.1122
1026.50 810.5816
1026.60 811.051
1026.70 811.5204
1026.80 811.9898
1026.90 812.4592
1027.00 812.9286
1027.10 813.398
1027.20 813.8675
1027.30 814.3369
1027.40 814.8063
1027.50 815.2757
1027.60 815.7451
1027.70 816.2145
1027.80 816.6839
1027.90 817.1534
1028.00 817.6228
1028.10 818.0922
1028.20 818.5616
1028.30 819.031
1028.40 819.9801
1028.50 820.9291
1028.60 821.8782
1028.70 822.8272
1028.80 823.7763
1028.90 824.7253
1029.00 825.6744
1029.10 826.5656
1029.20 826.937
1029.30 827.3083
1029.40 827.6796
1029.50 828.0509
1029.60 828.4222
1029.70 828.7936
1029.80 829.1649
1029.90 829.5362
1030.00 829.9075
1030.10 830.2789
1030.20 830.6502
1030.30 831.0215
1030.40 831.3928
1030.50 831.7642
1030.60 832.1355
1030.70 832.5068
1030.80 832.8781
1030.90 833.2495
1031.00 833.6208
1031.10 833.9921
1031.20 834.3634
1031.30 834.7347
1031.40 835.1061
1031.50 835.4774
1031.60 835.8487
1031.70 836.22
1031.80 836.5914
1031.90 836.9627
1032.00 837.334
1032.10 837.7053
1032.20 838.0767
1032.30 838.3023
1032.40 838.3823
1032.50 838.4622
1032.60 838.5422
1032.70 838.6221
1032.80 838.7021
1032.90 838.7821
1033.00 838.862
1033.10 839.6288
1033.20 840.8535
1033.30 842.0782
1033.40 843.3028
1033.50 844.5275
1033.60 845.7522
1033.70 846.9769
1033.80 848.2015
1033.90 849.4262
1034.00 850.6509
1034.10 851.8755
1034.20 853.1002
1034.30 854.3249
1034.40 855.5496
1034.50 856.7742
1034.60 857.9989
1034.70 859.2236
1034.80 860.4483
1034.90 861.6729
1035.00 862.8976
1035.10 864.1223
1035.20 865.347
1035.30 866.5716
1035.40 867.7963
1035.50 869.021
1035.60 870.2456
1035.70 871.4703
1035.80 872.695
1035.90 873.9197
1036.00 875.1443
1036.10 876.369
1036.20 877.5937
1036.30 879.0084
1036.40 880.4707
1036.50 881.933
1036.60 883.3953
1036.70 884.8575
1036.80 886.3198
1036.90 887.7821
1037.00 889.2443
1037.10 890.1705
1037.20 891.037
1037.30 891.9036
1037.40 892.7702
1037.50 893.6367
1037.60 894.5033
1037.70 895.3698
1037.80 896.2364
1037.90 897.103
1038.00 897.9695
1038.10 898.8361
1038.20 899.7026
1038.30 900.5692
1038.40 901.4358
1038.50 902.3023
1038.60 903.1689
1038.70 904.0354
1038.80 904.902
1038.90 905.7685
1039.00 906.6351
1039.10 907.5017
1039.20 908.3682
1039.30 909.2348
1039.40 910.1013
1039.50 910.9679
1039.60 911.8345
1039.70 912.701
1039.80 913.5676
1039.90 914.4341
1040.00 915.3007
1040.10 916.1673
1040.20 917.043
1040.30 918.0009
1040.40 918.9587
1040.50 919.9166
1040.60 920.8745
1040.70 921.8324
1040.80 922.7903
1040.90 923.7482
1041.00 924.6255
1041.10 925.1805
1041.20 925.7356
1041.30 926.2906
1041.40 926.8456
1041.50 927.4006
1041.60 927.9556
1041.70 928.5106
1041.80 929.0656
1041.90 929.6206
1042.00 930.1756
1042.10 930.7306
1042.20 931.2856
1042.30 931.8406
1042.40 932.3957
1042.50 932.9507
1042.60 933.5057
1042.70 934.0607
1042.80 934.6157
1042.90 935.1707
1043.00 935.7257
1043.10 936.2807
1043.20 936.8357
1043.30 937.3907
1043.40 937.9457
1043.50 938.5008
1043.60 939.0558
1043.70 939.6108
1043.80 940.1658
1043.90 940.7208
1044.00 941.2758
1044.10 941.8308
1044.20 942.2905
1044.30 942.3687
1044.40 942.4469
1044.50 942.5252
1044.60 942.6034
1044.70 942.6816
1044.80 942.7599
1044.90 942.8381
1045.00 943.0933
1045.10 943.7614
1045.20 944.4295
1045.30 945.0976
1045.40 945.7658
1045.50 946.4339
1045.60 947.102
1045.70 947.7701
1045.80 948.4382
1045.90 949.1063
1046.00 949.7744
1046.10 950.4425
1046.20 951.1106
1046.30 951.7787
1046.40 952.4468
1046.50 953.1149
1046.60 953.7831
1046.70 954.4512
1046.80 955.1193
1046.90 955.7874
1047.00 956.4555
1047.10 957.1236
1047.20 957.7917
1047.30 958.4598
1047.40 959.1279
1047.50 959.796
1047.60 960.4641
1047.70 961.1322
1047.80 961.8003
1047.90 962.4685
1048.00 963.1366
1048.10 963.8047
1048.20 964.4139
1048.30 964.8857
1048.40 965.3575
1048.50 965.8294
1048.60 966.3012
1048.70 966.773
1048.80 967.2448
1048.90 967.7167
1049.00 968.0598
1049.10 968.1027
1049.20 968.1456
1049.30 968.1884
1049.40 968.2313
1049.50 968.2742
1049.60 968.3171
1049.70 968.3599
1049.80 968.4028
1049.90 968.4457
1050.00 968.4886
1050.10 968.5314
1050.20 968.5743
1050.30 968.6172
1050.40 968.6601
1050.50 968.703
1050.60 968.7458
1050.70 968.7887
1050.80 968.8316
1050.90 968.8745
1051.00 968.9173
1051.10 968.9602
1051.20 969.0031
1051.30 969.046
1051.40 969.0888
1051.50 969.1317
1051.60 969.1746
1051.70 969.2175
1051.80 969.2604
1051.90 969.3032
1052.00 969.3461
1052.10 969.389
1052.20 969.5874
1052.30 970.408
1052.40 971.2286
1052.50 972.0492
1052.60 972.8698
1052.70 973.6904
1052.80 974.511
1052.90 975.3316
1053.00 976.1986
1053.10 977.2511
1053.20 978.3037
1053.30 979.3563
1053.40 980.4088
1053.50 981.4614
1053.60 982.5139
1053.70 983.5665
1053.80 984.619
1053.90 985.6716
1054.00 986.7241
1054.10 987.7767
1054.20 988.8293
1054.30 989.8818
1054.40 990.9344
1054.50 991.9869
1054.60 993.0395
1054.70 994.092
1054.80 995.1446
1054.90 996.1972
1055.00 997.2497
1055.10 998.3023
1055.20 999.3548
1055.30 1000.407
1055.40 1001.46
1055.50 1002.512
1055.60 1003.565
1055.70 1004.618
1055.80 1005.67
1055.90 1006.723
1056.00 1007.775
1056.10 1008.828
1056.20 1009.88
1056.30 1010.247
1056.40 1010.613
1056.50 1010.98
1056.60 1011.346
1056.70 1011.712
1056.80 1012.079
1056.90 1012.445
1057.00 1012.811
1057.10 1012.613
1057.20 1012.352
1057.30 1012.091
1057.40 1011.83
1057.50 1011.569
1057.60 1011.308
1057.70 1011.046
1057.80 1010.785
1057.90 1010.524
1058.00 1010.263
1058.10 1010.002
1058.20 1009.741
1058.30 1009.48
1058.40 1009.219
1058.50 1008.958
1058.60 1008.696
1058.70 1008.435
1058.80 1008.174
1058.90 1007.913
1059.00 1007.652
1059.10 1007.391
1059.20 1007.13
1059.30 1006.869
1059.40 1006.607
1059.50 1006.346
1059.60 1006.085
1059.70 1005.824
1059.80 1005.563
1059.90 1005.302
1060.00 1005.041
1060.10 1004.78
1060.20 1004.519
1060.30 1004.456
1060.40 1004.527
1060.50 1004.597
1060.60 1004.668
1060.70 1004.738
1060.80 1004.809
1060.90 1004.879
1061.00 1004.95
1061.10 1005.472
1061.20 1006.295
1061.30 1007.117
1061.40 1007.94
1061.50 1008.763
1061.60 1009.586
1061.70 1010.409
1061.80 1011.232
1061.90 1012.055
1062.00 1012.878
1062.10 1013.701
1062.20 1014.524
1062.30 1015.347
1062.40 1016.169
1062.50 1016.992
1062.60 1017.815
1062.70 1018.638
1062.80 1019.461
1062.90 1020.284
1063.00 1021.107
1063.10 1021.93
1063.20 1022.753
1063.30 1023.576
1063.40 1024.399
1063.50 1025.221
1063.60 1026.044
1063.70 1026.867
1063.80 1027.69
1063.90 1028.513
1064.00 1029.336
1064.10 1030.159
1064.20 1030.982
1064.30 1031.789
1064.40 1032.536
1064.50 1033.282
1064.60 1034.028
1064.70 1034.774
1064.80 1035.521
1064.90 1036.267
1065.00 1037.013
1065.10 1037.704
1065.20 1038.176
1065.30 1038.648
1065.40 1039.119
1065.50 1039.591
1065.60 1040.062
1065.70 1040.534
1065.80 1041.006
1065.90 1041.477
1066.00 1041.949
1066.10 1042.42
1066.20 1042.892
1066.30 1043.364
1066.40 1043.835
1066.50 1044.307
1066.60 1044.778
1066.70 1045.25
1066.80 1045.722
1066.90 1046.193
1067.00 1046.665
1067.10 1047.136
1067.20 1047.608
1067.30 1048.08
1067.40 1048.551
1067.50 1049.023
1067.60 1049.494
1067.70 1049.966
1067.80 1050.438
1067.90 1050.909
1068.00 1051.381
1068.10 1051.852
1068.20 1052.324
1068.30 1052.796
1068.40 1053.448
1068.50 1054.178
1068.60 1054.909
1068.70 1055.639
1068.80 1056.369
1068.90 1057.1
1069.00 1057.83
1069.10 1058.56
1069.20 1059.341
1069.30 1060.155
1069.40 1060.969
1069.50 1061.783
1069.60 1062.597
1069.70 1063.412
1069.80 1064.226
1069.90 1065.04
1070.00 1065.854
1070.10 1066.668
1070.20 1067.482
1070.30 1068.297
1070.40 1069.111
1070.50 1069.925
1070.60 1070.739
1070.70 1071.553
1070.80 1072.367
1070.90 1073.182
1071.00 1073.996
1071.10 1074.81
1071.20 1075.624
1071.30 1076.438
1071.40 1077.253
1071.50 1078.067
1071.60 1078.881
1071.70 1079.695
1071.80 1080.509
1071.90 1081.323
1072.00 1082.138
1072.10 1082.952
1072.20 1083.766
1072.30 1084.58
1072.40 1085.355
1072.50 1085.776
1072.60 1086.197
1072.70 1086.618
1072.80 1087.039
1072.90 1087.46
1073.00 1087.881
1073.10 1088.302
1073.20 1088.723
1073.30 1089.379
1073.40 1090.035
1073.50 1090.692
1073.60 1091.348
1073.70 1092.004
1073.80 1092.66
1073.90 1093.316
1074.00 1093.972
1074.10 1094.629
1074.20 1095.285
1074.30 1095.941
1074.40 1096.597
1074.50 1097.253
1074.60 1097.909
1074.70 1098.566
1074.80 1099.222
1074.90 1099.878
1075.00 1100.534
1075.10 1101.19
1075.20 1101.846
1075.30 1102.503
1075.40 1103.159
1075.50 1103.815
1075.60 1104.471
1075.70 1105.127
1075.80 1105.783
1075.90 1106.44
1076.00 1107.096
1076.10 1107.752
1076.20 1108.408
1076.30 1109.064
1076.40 1109.72
1076.50 1110.536
1076.60 1111.59
1076.70 1112.645
1076.80 1113.7
1076.90 1114.754
1077.00 1115.809
1077.10 1116.863
1077.20 1117.918
1077.30 1118.935
1077.40 1119.803
1077.50 1120.671
1077.60 1121.539
1077.70 1122.407
1077.80 1123.275
1077.90 1124.144
1078.00 1125.012
1078.10 1125.88
1078.20 1126.748
1078.30 1127.616
1078.40 1128.484
1078.50 1129.352
1078.60 1130.22
1078.70 1131.088
1078.80 1131.956
1078.90 1132.824
1079.00 1133.692
1079.10 1134.561
1079.20 1135.429
1079.30 1136.297
1079.40 1137.165
1079.50 1138.033
1079.60 1138.901
1079.70 1139.769
1079.80 1140.637
1079.90 1141.505
1080.00 1142.373
1080.10 1143.241
1080.20 1144.109
1080.30 1144.978
1080.40 1145.846
1080.50 1146.714
1080.60 1147.429
1080.70 1147.99
1080.80 1148.552
1080.90 1149.114
1081.00 1149.676
1081.10 1150.238
1081.20 1150.8
1081.30 1151.361
1081.40 1151.636
1081.50 1151.48
1081.60 1151.324
1081.70 1151.168
1081.80 1151.012
1081.90 1150.856
1082.00 1150.699
1082.10 1150.543
1082.20 1150.387
1082.30 1150.231
1082.40 1150.075
1082.50 1149.919
1082.60 1149.763
1082.70 1149.607
1082.80 1149.451
1082.90 1149.294
1083.00 1149.138
1083.10 1148.982
1083.20 1148.826
1083.30 1148.67
1083.40 1148.514
1083.50 1148.358
1083.60 1148.202
1083.70 1148.046
1083.80 1147.889
1083.90 1147.733
1084.00 1147.577
1084.10 1147.421
1084.20 1147.265
1084.30 1147.109
1084.40 1146.953
1084.50 1146.797
1084.60 1146.641
1084.70 1146.611
1084.80 1146.665
1084.90 1146.719
1085.00 1146.773
1085.10 1146.828
1085.20 1146.882
1085.30 1146.936
1085.40 1146.99
1085.50 1147.342
1085.60 1148.141
1085.70 1148.94
1085.80 1149.739
1085.90 1150.537
1086.00 1151.336
1086.10 1152.135
1086.20 1152.934
1086.30 1153.733
1086.40 1154.531
1086.50 1155.33
1086.60 1156.129
1086.70 1156.928
1086.80 1157.727
1086.90 1158.526
1087.00 1159.324
1087.10 1160.123
1087.20 1160.922
1087.30 1161.721
1087.40 1162.52
1087.50 1163.318
1087.60 1164.117
1087.70 1164.916
1087.80 1165.715
1087.90 1166.514
1088.00 1167.312
1088.10 1168.111
1088.20 1168.91
1088.30 1169.709
1088.40 1170.508
1088.50 1171.306
1088.60 1172.105
1088.70 1172.904
1088.80 1173.642
1088.90 1174.339
1089.00 1175.036
1089.10 1175.733
1089.20 1176.43
1089.30 1177.128
1089.40 1177.825
1089.50 1178.522
1089.60 1178.984
1089.70 1179.095
1089.80 1179.206
1089.90 1179.316
1090.00 1179.427
1090.10 1179.538
1090.20 1179.648
1090.30 1179.759
1090.40 1179.87
1090.50 1179.98
1090.60 1180.091
1090.70 1180.202
1090.80 1180.312
1090.90 1180.423
1091.00 1180.533
1091.10 1180.644
1091.20 1180.755
1091.30 1180.865
1091.40 1180.976
1091.50 1181.087
1091.60 1181.197
1091.70 1181.308
1091.80 1181.419
1091.90 1181.529
1092.00 1181.64
1092.10 1181.751
1092.20 1181.861
1092.30 1181.972
1092.40 1182.083
1092.50 1182.193
1092.60 1182.304
1092.70 1182.414
1092.80 1182.525
1092.90 1182.651
1093.00 1182.792
1093.10 1182.933
1093.20 1183.074
1093.30 1183.215
1093.40 1183.357
1093.50 1183.498
1093.60 1183.639
1093.70 1183.783
1093.80 1183.935
1093.90 1184.086
1094.00 1184.237
1094.10 1184.389
1094.20 1184.54
1094.30 1184.692
1094.40 1184.843
1094.50 1184.995
1094.60 1185.146
1094.70 1185.298
1094.80 1185.449
1094.90 1185.6
1095.00 1185.752
1095.10 1185.903
1095.20 1186.055
1095.30 1186.206
1095.40 1186.358
1095.50 1186.509
1095.60 1186.661
1095.70 1186.812
1095.80 1186.964
1095.90 1187.115
1096.00 1187.266
1096.10 1187.418
1096.20 1187.569
1096.30 1187.721
1096.40 1187.872
1096.50 1188.024
1096.60 1188.175
1096.70 1188.327
1096.80 1188.478
1096.90 1188.63
1097.00 1188.662
1097.10 1188.418
1097.20 1188.174
1097.30 1187.93
1097.40 1187.686
1097.50 1187.442
1097.60 1187.198
1097.70 1186.954
1097.80 1186.726
1097.90 1186.638
1098.00 1186.551
1098.10 1186.463
1098.20 1186.375
1098.30 1186.287
1098.40 1186.2
1098.50 1186.112
1098.60 1186.024
1098.70 1185.936
1098.80 1185.849
1098.90 1185.761
1099.00 1185.673
1099.10 1185.586
1099.20 1185.498
1099.30 1185.41
1099.40 1185.322
1099.50 1185.235
1099.60 1185.147
1099.70 1185.059
1099.80 1184.971
1099.90 1184.884
1100.00 1184.796
1100.10 1184.708
1100.20 1184.621
1100.30 1184.533
1100.40 1184.445
1100.50 1184.357
1100.60 1184.27
1100.70 1184.182
1100.80 1184.094
1100.90 1184.006
1101.00 1183.919
1101.10 1183.831
1101.20 1183.835
1101.30 1183.839
1101.40 1183.844
1101.50 1183.848
1101.60 1183.852
1101.70 1183.856
1101.80 1183.861
1101.90 1183.865
1102.00 1183.829
1102.10 1183.782
1102.20 1183.735
1102.30 1183.689
1102.40 1183.642
1102.50 1183.595
1102.60 1183.549
1102.70 1183.502
1102.80 1183.456
1102.90 1183.409
1103.00 1183.362
1103.10 1183.316
1103.20 1183.269
1103.30 1183.223
1103.40 1183.176
1103.50 1183.129
1103.60 1183.083
1103.70 1183.036
1103.80 1182.99
1103.90 1182.943
1104.00 1182.896
1104.10 1182.85
1104.20 1182.803
1104.30 1182.757
1104.40 1182.71
1104.50 1182.663
1104.60 1182.617
1104.70 1182.57
1104.80 1182.524
1104.90 1182.477
1105.00 1182.43
1105.10 1182.384
1105.20 1182.337
1105.30 1182.241
1105.40 1182.111
1105.50 1181.982
1105.60 1181.852
1105.70 1181.722
1105.80 1181.593
1105.90 1181.463
1106.00 1181.333
1106.10 1181.003
1106.20 1180.373
1106.30 1179.743
1106.40 1179.112
1106.50 1178.482
1106.60 1177.852
1106.70 1177.221
1106.80 1176.591
1106.90 1175.961
1107.00 1175.33
1107.10 1174.7
1107.20 1174.069
1107.30 1173.439
1107.40 1172.809
1107.50 1172.178
1107.60 1171.548
1107.70 1170.918
1107.80 1170.287
1107.90 1169.657
1108.00 1169.026
1108.10 1168.396
1108.20 1167.766
1108.30 1167.135
1108.40 1166.505
1108.50 1165.875
1108.60 1165.244
1108.70 1164.614
1108.80 1163.984
1108.90 1163.353
1109.00 1162.723
1109.10 1162.092
1109.20 1161.462
1109.30 1160.832
1109.40 1160.243
1109.50 1159.819
1109.60 1159.395
1109.70 1158.971
1109.80 1158.547
1109.90 1158.124
1110.00 1157.7
1110.10 1157.276
1110.20 1156.852
1110.30 1156.74
1110.40 1156.662
1110.50 1156.584
1110.60 1156.506
1110.70 1156.428
1110.80 1156.35
1110.90 1156.272
1111.00 1156.194
1111.10 1156.116
1111.20 1156.038
1111.30 1155.96
1111.40 1155.882
1111.50 1155.804
1111.60 1155.726
1111.70 1155.648
1111.80 1155.57
1111.90 1155.492
1112.00 1155.414
1112.10 1155.336
1112.20 1155.258
1112.30 1155.18
1112.40 1155.102
1112.50 1155.024
1112.60 1154.946
1112.70 1154.869
1112.80 1154.791
1112.90 1154.713
1113.00 1154.635
1113.10 1154.557
1113.20 1154.479
1113.30 1154.401
1113.40 1154.323
1113.50 1154.245
1113.60 1154.214
1113.70 1154.214
1113.80 1154.214
1113.90 1154.214
1114.00 1154.215
1114.10 1154.215
1114.20 1154.215
1114.30 1154.215
1114.40 1154.302
1114.50 1154.592
1114.60 1154.881
1114.70 1155.171
1114.80 1155.46
1114.90 1155.75
1115.00 1156.04
1115.10 1156.329
1115.20 1156.619
1115.30 1156.908
1115.40 1157.198
1115.50 1157.487
1115.60 1157.777
1115.70 1158.066
1115.80 1158.356
1115.90 1158.645
1116.00 1158.935
1116.10 1159.224
1116.20 1159.514
1116.30 1159.804
1116.40 1160.093
1116.50 1160.383
1116.60 1160.672
1116.70 1160.962
1116.80 1161.251
1116.90 1161.541
1117.00 1161.83
1117.10 1162.12
1117.20 1162.409
1117.30 1162.699
1117.40 1162.988
1117.50 1163.278
1117.60 1163.568
1117.70 1163.857
1117.80 1164.104
1117.90 1164.351
1118.00 1164.598
1118.10 1164.844
1118.20 1165.091
1118.30 1165.338
1118.40 1165.585
1118.50 1165.832
1118.60 1166.209
1118.70 1166.642
1118.80 1167.075
1118.90 1167.508
1119.00 1167.941
1119.10 1168.374
1119.20 1168.807
1119.30 1169.24
1119.40 1169.673
1119.50 1170.106
1119.60 1170.539
1119.70 1170.972
1119.80 1171.405
1119.90 1171.838
1120.00 1172.271
1120.10 1172.704
1120.20 1173.137
1120.30 1173.57
1120.40 1174.003
1120.50 1174.436
1120.60 1174.87
1120.70 1175.303
1120.80 1175.736
1120.90 1176.169
1121.00 1176.602
1121.10 1177.035
1121.20 1177.468
1121.30 1177.901
1121.40 1178.334
1121.50 1178.767
1121.60 1179.2
1121.70 1179.633
1121.80 1180.066
1121.90 1180.4
1122.00 1180.504
1122.10 1180.609
1122.20 1180.713
1122.30 1180.817
1122.40 1180.921
1122.50 1181.025
1122.60 1181.129
1122.70 1181.233
1122.80 1180.554
1122.90 1179.876
1123.00 1179.197
1123.10 1178.518
1123.20 1177.839
1123.30 1177.16
1123.40 1176.481
1123.50 1175.802
1123.60 1175.123
1123.70 1174.444
1123.80 1173.765
1123.90 1173.086
1124.00 1172.408
1124.10 1171.729
1124.20 1171.05
1124.30 1170.371
1124.40 1169.692
1124.50 1169.013
1124.60 1168.334
1124.70 1167.655
1124.80 1166.976
1124.90 1166.297
1125.00 1165.618
1125.10 1164.94
1125.20 1164.261
1125.30 1163.582
1125.40 1162.903
1125.50 1162.224
1125.60 1161.545
1125.70 1160.866
1125.80 1160.187
1125.90 1159.508
1126.00 1158.829
1126.10 1158.107
1126.20 1157.342
1126.30 1156.577
1126.40 1155.812
1126.50 1155.046
1126.60 1154.281
1126.70 1153.516
1126.80 1152.751
1126.90 1152.115
1127.00 1152
1127.10 1151.885
1127.20 1151.769
1127.30 1151.654
1127.40 1151.539
1127.50 1151.423
1127.60 1151.308
1127.70 1151.193
1127.80 1151.077
1127.90 1150.962
1128.00 1150.847
1128.10 1150.732
1128.20 1150.616
1128.30 1150.501
1128.40 1150.386
1128.50 1150.27
1128.60 1150.155
1128.70 1150.04
1128.80 1149.924
1128.90 1149.809
1129.00 1149.694
1129.10 1149.578
1129.20 1149.463
1129.30 1149.348
1129.40 1149.232
1129.50 1149.117
1129.60 1149.002
1129.70 1148.886
1129.80 1148.771
1129.90 1148.656
1130.00 1148.541
1130.10 1148.425
1130.20 1148.31
1130.30 1148.047
1130.40 1147.72
1130.50 1147.393
1130.60 1147.067
1130.70 1146.74
1130.80 1146.414
1130.90 1146.087
1131.00 1145.76
1131.10 1145.337
1131.20 1144.77
1131.30 1144.202
1131.40 1143.635
1131.50 1143.067
1131.60 1142.5
1131.70 1141.932
1131.80 1141.365
1131.90 1140.797
1132.00 1140.23
1132.10 1139.662
1132.20 1139.095
1132.30 1138.527
1132.40 1137.96
1132.50 1137.392
1132.60 1136.825
1132.70 1136.257
1132.80 1135.69
1132.90 1135.122
1133.00 1134.555
1133.10 1133.987
1133.20 1133.42
1133.30 1132.852
1133.40 1132.285
1133.50 1131.717
1133.60 1131.15
1133.70 1130.582
1133.80 1130.015
1133.90 1129.447
1134.00 1128.88
1134.10 1128.312
1134.20 1127.745
1134.30 1127.177
1134.40 1126.609
1134.50 1126.347
1134.60 1126.162
1134.70 1125.976
1134.80 1125.79
1134.90 1125.605
1135.00 1125.419
1135.10 1125.233
1135.20 1125.047
1135.30 1125.043
1135.40 1125.311
1135.50 1125.578
1135.60 1125.846
1135.70 1126.114
1135.80 1126.381
1135.90 1126.649
1136.00 1126.917
1136.10 1127.184
1136.20 1127.452
1136.30 1127.72
1136.40 1127.987
1136.50 1128.255
1136.60 1128.523
1136.70 1128.79
1136.80 1129.058
1136.90 1129.326
1137.00 1129.593
1137.10 1129.861
1137.20 1130.129
1137.30 1130.396
1137.40 1130.664
1137.50 1130.931
1137.60 1131.199
1137.70 1131.467
1137.80 1131.734
1137.90 1132.002
1138.00 1132.27
1138.10 1132.537
1138.20 1132.805
1138.30 1133.073
1138.40 1133.34
1138.50 1133.608
1138.60 1133.876
1138.70 1134.531
1138.80 1135.283
1138.90 1136.035
1139.00 1136.787
1139.10 1137.539
1139.20 1138.291
1139.30 1139.043
1139.40 1139.795
1139.50 1140.541
1139.60 1141.278
1139.70 1142.014
1139.80 1142.751
1139.90 1143.488
1140.00 1144.224
1140.10 1144.961
1140.20 1145.698
1140.30 1146.434
1140.40 1147.171
1140.50 1147.908
1140.60 1148.644
1140.70 1149.381
1140.80 1150.118
1140.90 1150.854
1141.00 1151.591
1141.10 1152.328
1141.20 1153.064
1141.30 1153.801
1141.40 1154.538
1141.50 1155.274
1141.60 1156.011
1141.70 1156.748
1141.80 1157.484
1141.90 1158.221
1142.00 1158.958
1142.10 1159.694
1142.20 1160.431
1142.30 1161.168
1142.40 1161.904
1142.50 1162.641
1142.60 1163.378
1142.70 1164.114
1142.80 1164.851
1142.90 1166.157
1143.00 1167.604
1143.10 1169.052
1143.20 1170.5
1143.30 1171.948
1143.40 1173.396
1143.50 1174.844
1143.60 1176.291
1143.70 1177.791
1143.80 1179.367
1143.90 1180.944
1144.00 1182.52
1144.10 1184.097
1144.20 1185.674
1144.30 1187.25
1144.40 1188.827
1144.50 1190.403
1144.60 1191.98
1144.70 1193.556
1144.80 1195.133
1144.90 1196.71
1145.00 1198.286
1145.10 1199.863
1145.20 1201.439
1145.30 1203.016
1145.40 1204.593
1145.50 1206.169
1145.60 1207.746
1145.70 1209.322
1145.80 1210.899
1145.90 1212.475
1146.00 1214.052
1146.10 1215.629
1146.20 1217.205
1146.30 1218.782
1146.40 1220.358
1146.50 1221.935
1146.60 1223.512
1146.70 1225.088
1146.80 1226.665
1146.90 1228.241
1147.00 1229.818
1147.10 1230.844
1147.20 1231.504
1147.30 1232.163
1147.40 1232.822
1147.50 1233.482
1147.60 1234.141
1147.70 1234.801
1147.80 1235.46
1147.90 1236.055
1148.00 1236.394
1148.10 1236.733
1148.20 1237.072
1148.30 1237.411
1148.40 1237.749
1148.50 1238.088
1148.60 1238.427
1148.70 1238.766
1148.80 1239.105
1148.90 1239.443
1149.00 1239.782
1149.10 1240.121
1149.20 1240.46
1149.30 1240.798
1149.40 1241.137
1149.50 1241.476
1149.60 1241.815
1149.70 1242.154
1149.80 1242.492
1149.90 1242.831
1150.00 1243.17
1150.10 1243.509
1150.20 1243.848
1150.30 1244.186
1150.40 1244.525
1150.50 1244.864
1150.60 1245.203
1150.70 1245.542
1150.80 1245.88
1150.90 1246.219
1151.00 1246.558
1151.10 1246.897
1151.20 1247.235
1151.30 1247.625
1151.40 1248.065
1151.50 1248.505
1151.60 1248.944
1151.70 1249.384
1151.80 1249.824
1151.90 1250.264
1152.00 1250.704
1152.10 1251.116
1152.20 1251.28
1152.30 1251.444
1152.40 1251.608
1152.50 1251.773
1152.60 1251.937
1152.70 1252.101
1152.80 1252.265
1152.90 1252.429
1153.00 1252.593
1153.10 1252.757
1153.20 1252.921
1153.30 1253.086
1153.40 1253.25
1153.50 1253.414
1153.60 1253.578
1153.70 1253.742
1153.80 1253.906
1153.90 1254.07
1154.00 1254.235
1154.10 1254.399
1154.20 1254.563
1154.30 1254.727
1154.40 1254.891
1154.50 1255.055
1154.60 1255.219
1154.70 1255.383
1154.80 1255.548
1154.90 1255.712
1155.00 1255.876
1155.10 1256.04
1155.20 1256.204
1155.30 1256.368
1155.40 1256.532
1155.50 1256.591
1155.60 1256.23
1155.70 1255.869
1155.80 1255.507
1155.90 1255.146
1156.00 1254.785
1156.10 1254.424
1156.20 1254.062
1156.30 1253.701
1156.40 1253.318
1156.50 1252.929
1156.60 1252.541
1156.70 1252.152
1156.80 1251.763
1156.90 1251.375
1157.00 1250.986
1157.10 1250.597
1157.20 1250.209
1157.30 1249.82
1157.40 1249.432
1157.50 1249.043
1157.60 1248.654
1157.70 1248.266
1157.80 1247.877
1157.90 1247.489
1158.00 1247.1
1158.10 1246.711
1158.20 1246.323
1158.30 1245.934
1158.40 1245.545
1158.50 1245.157
1158.60 1244.768
1158.70 1244.38
1158.80 1243.991
1158.90 1243.602
1159.00 1243.214
1159.10 1242.825
1159.20 1242.437
1159.30 1242.048
1159.40 1241.659
1159.50 1241.271
1159.60 1240.882
1159.70 1240.494
1159.80 1240.019
1159.90 1239.535
1160.00 1239.05
1160.10 1238.566
1160.20 1238.082
1160.30 1237.597
1160.40 1237.113
1160.50 1236.629
1160.60 1235.902
1160.70 1234.933
1160.80 1233.963
1160.90 1232.994
1161.00 1232.024
1161.10 1231.055
1161.20 1230.085
1161.30 1229.116
1161.40 1228.146
1161.50 1227.177
1161.60 1226.207
1161.70 1225.238
1161.80 1224.268
1161.90 1223.299
1162.00 1222.329
1162.10 1221.36
1162.20 1220.39
1162.30 1219.421
1162.40 1218.451
1162.50 1217.482
1162.60 1216.512
1162.70 1215.543
1162.80 1214.573
1162.90 1213.604
1163.00 1212.634
1163.10 1211.665
1163.20 1210.695
1163.30 1209.726
1163.40 1208.756
1163.50 1207.787
1163.60 1206.818
1163.70 1205.848
1163.80 1204.879
1163.90 1203.909
1164.00 1202.887
1164.10 1201.83
1164.20 1200.772
1164.30 1199.715
1164.40 1198.658
1164.50 1197.601
1164.60 1196.543
1164.70 1195.486
1164.80 1194.477
1164.90 1193.905
1165.00 1193.332
1165.10 1192.76
1165.20 1192.187
1165.30 1191.615
1165.40 1191.043
1165.50 1190.47
1165.60 1189.898
1165.70 1189.325
1165.80 1188.753
1165.90 1188.18
1166.00 1187.608
1166.10 1187.035
1166.20 1186.463
1166.30 1185.891
1166.40 1185.318
1166.50 1184.746
1166.60 1184.173
1166.70 1183.601
1166.80 1183.028
1166.90 1182.456
1167.00 1181.883
1167.10 1181.311
1167.20 1180.739
1167.30 1180.166
1167.40 1179.594
1167.50 1179.021
1167.60 1178.449
1167.70 1177.876
1167.80 1177.304
1167.90 1176.731
1168.00 1176.159
1168.10 1175.587
1168.20 1174.992
1168.30 1174.311
1168.40 1173.63
1168.50 1172.949
1168.60 1172.268
1168.70 1171.587
1168.80 1170.906
1168.90 1170.225
1169.00 1169.544
1169.10 1169.129
1169.20 1168.829
1169.30 1168.529
1169.40 1168.229
1169.50 1167.929
1169.60 1167.629
1169.70 1167.33
1169.80 1167.03
1169.90 1166.73
1170.00 1166.43
1170.10 1166.13
1170.20 1165.83
1170.30 1165.53
1170.40 1165.23
1170.50 1164.93
1170.60 1164.63
1170.70 1164.33
1170.80 1164.03
1170.90 1163.73
1171.00 1163.43
1171.10 1163.13
1171.20 1162.83
1171.30 1162.53
1171.40 1162.23
1171.50 1161.93
1171.60 1161.63
1171.70 1161.33
1171.80 1161.03
1171.90 1160.73
1172.00 1160.43
1172.10 1160.13
1172.20 1159.83
1172.30 1159.53
1172.40 1159.23
1172.50 1159.387
1172.60 1159.739
1172.70 1160.09
1172.80 1160.442
1172.90 1160.794
1173.00 1161.146
1173.10 1161.498
1173.20 1161.85
1173.30 1162.186
1173.40 1162.463
1173.50 1162.739
1173.60 1163.016
1173.70 1163.292
1173.80 1163.569
1173.90 1163.845
1174.00 1164.122
1174.10 1164.398
1174.20 1164.675
1174.30 1164.951
1174.40 1165.228
1174.50 1165.504
1174.60 1165.781
1174.70 1166.057
1174.80 1166.334
1174.90 1166.61
1175.00 1166.887
1175.10 1167.163
1175.20 1167.44
1175.30 1167.716
1175.40 1167.993
1175.50 1168.269
1175.60 1168.546
1175.70 1168.822
1175.80 1169.099
1175.90 1169.375
1176.00 1169.652
1176.10 1169.928
1176.20 1170.205
1176.30 1170.481
1176.40 1170.758
1176.50 1171.034
1176.60 1171.311
1176.70 1171.601
1176.80 1171.944
1176.90 1172.287
1177.00 1172.63
1177.10 1172.973
1177.20 1173.316
1177.30 1173.66
1177.40 1174.003
1177.50 1174.346
1177.60 1175.025
1177.70 1175.848
1177.80 1176.671
1177.90 1177.494
1178.00 1178.317
1178.10 1179.14
1178.20 1179.963
1178.30 1180.787
1178.40 1181.61
1178.50 1182.433
1178.60 1183.256
1178.70 1184.079
1178.80 1184.902
1178.90 1185.725
1179.00 1186.548
1179.10 1187.371
1179.20 1188.194
1179.30 1189.017
1179.40 1189.84
1179.50 1190.663
1179.60 1191.486
1179.70 1192.309
1179.80 1193.132
1179.90 1193.955
1180.00 1194.778
1180.10 1195.601
1180.20 1196.424
1180.30 1197.248
1180.40 1198.071
1180.50 1198.894
1180.60 1199.717
1180.70 1200.54
1180.80 1201.363
1180.90 1202.186
1181.00 1203.258
1181.10 1204.495
1181.20 1205.733
1181.30 1206.97
1181.40 1208.208
1181.50 1209.446
1181.60 1210.683
1181.70 1211.921
1181.80 1213.139
1181.90 1214.186
1182.00 1215.232
1182.10 1216.279
1182.20 1217.325
1182.30 1218.372
1182.40 1219.418
1182.50 1220.465
1182.60 1221.511
1182.70 1222.558
1182.80 1223.604
1182.90 1224.651
1183.00 1225.697
1183.10 1226.743
1183.20 1227.79
1183.30 1228.836
1183.40 1229.883
1183.50 1230.929
1183.60 1231.976
1183.70 1233.022
1183.80 1234.069
1183.90 1235.115
1184.00 1236.162
1184.10 1237.208
1184.20 1238.255
1184.30 1239.301
1184.40 1240.348
1184.50 1241.394
1184.60 1242.44
1184.70 1243.487
1184.80 1244.533
1184.90 1245.58
1185.00 1246.626
1185.10 1247.673
1185.20 1248.719
1185.30 1249.489
1185.40 1250.258
1185.50 1251.027
1185.60 1251.796
1185.70 1252.566
1185.80 1253.335
1185.90 1254.104
1186.00 1254.874
1186.10 1255.542
1186.20 1256.111
1186.30 1256.679
1186.40 1257.247
1186.50 1257.816
1186.60 1258.384
1186.70 1258.953
1186.80 1259.521
1186.90 1260.089
1187.00 1260.658
1187.10 1261.226
1187.20 1261.794
1187.30 1262.363
1187.40 1262.931
1187.50 1263.499
1187.60 1264.068
1187.70 1264.636
1187.80 1265.204
1187.90 1265.773
1188.00 1266.341
1188.10 1266.909
1188.20 1267.478
1188.30 1268.046
1188.40 1268.615
1188.50 1269.183
1188.60 1269.751
1188.70 1270.32
1188.80 1270.888
1188.90 1271.456
1189.00 1272.025
1189.10 1272.593
1189.20 1273.161
1189.30 1273.73
1189.40 1274.298
1189.50 1274.512
1189.60 1274.194
1189.70 1273.876
1189.80 1273.558
1189.90 1273.24
1190.00 1272.923
1190.10 1272.605
1190.20 1272.287
1190.30 1271.969
1190.40 1271.451
1190.50 1270.912
1190.60 1270.372
1190.70 1269.832
1190.80 1269.292
1190.90 1268.753
1191.00 1268.213
1191.10 1267.673
1191.20 1267.134
1191.30 1266.594
1191.40 1266.054
1191.50 1265.514
1191.60 1264.975
1191.70 1264.435
1191.80 1263.895
1191.90 1263.355
1192.00 1262.816
1192.10 1262.276
1192.20 1261.736
1192.30 1261.197
1192.40 1260.657
1192.50 1260.117
1192.60 1259.577
1192.70 1259.038
1192.80 1258.498
1192.90 1257.958
1193.00 1257.418
1193.10 1256.879
1193.20 1256.339
1193.30 1255.799
1193.40 1255.26
1193.50 1254.72
1193.60 1254.18
1193.70 1253.64
1193.80 1253.195
1193.90 1252.79
1194.00 1252.384
1194.10 1251.979
1194.20 1251.574
1194.30 1251.169
1194.40 1250.763
1194.50 1250.358
1194.60 1249.966
1194.70 1249.698
1194.80 1249.43
1194.90 1249.162
1195.00 1248.894
1195.10 1248.626
1195.20 1248.358
1195.30 1248.09
1195.40 1247.821
1195.50 1247.553
1195.60 1247.285
1195.70 1247.017
1195.80 1246.749
1195.90 1246.481
1196.00 1246.213
1196.10 1245.945
1196.20 1245.676
1196.30 1245.408
1196.40 1245.14
1196.50 1244.872
1196.60 1244.604
1196.70 1244.336
1196.80 1244.068
1196.90 1243.8
1197.00 1243.532
1197.10 1243.263
1197.20 1242.995
1197.30 1242.727
1197.40 1242.459
1197.50 1242.191
1197.60 1241.923
1197.70 1241.655
1197.80 1241.387
1197.90 1241.118
1198.00 1240.85
1198.10 1241.124
1198.20 1241.459
1198.30 1241.793
1198.40 1242.127
1198.50 1242.461
1198.60 1242.796
1198.70 1243.13
1198.80 1243.464
1198.90 1243.682
1199.00 1243.724
1199.10 1243.766
1199.20 1243.809
1199.30 1243.851
1199.40 1243.893
1199.50 1243.936
1199.60 1243.978
1199.70 1244.02
1199.80 1244.063
1199.90 1244.105
1200.00 1244.147
1200.10 1244.19
1200.20 1244.232
1200.30 1244.274
1200.40 1244.317
1200.50 1244.359
1200.60 1244.401
1200.70 1244.444
1200.80 1244.486
1200.90 1244.528
1201.00 1244.571
1201.10 1244.613
1201.20 1244.655
1201.30 1244.698
1201.40 1244.74
1201.50 1244.782
1201.60 1244.824
1201.70 1244.867
1201.80 1244.909
1201.90 1244.951
1202.00 1244.994
1202.10 1245.036
1202.20 1245.078
1202.30 1245.148
1202.40 1245.467
1202.50 1245.786
1202.60 1246.105
1202.70 1246.424
1202.80 1246.743
1202.90 1247.062
1203.00 1247.381
1203.10 1247.7
1203.20 1248.581
1203.30 1249.838
1203.40 1251.094
1203.50 1252.35
1203.60 1253.607
1203.70 1254.863
1203.80 1256.119
1203.90 1257.376
1204.00 1258.632
1204.10 1259.888
1204.20 1261.145
1204.30 1262.401
1204.40 1263.657
1204.50 1264.914
1204.60 1266.17
1204.70 1267.426
1204.80 1268.683
1204.90 1269.939
1205.00 1271.195
1205.10 1272.452
1205.20 1273.708
1205.30 1274.964
1205.40 1276.221
1205.50 1277.477
1205.60 1278.733
1205.70 1279.99
1205.80 1281.246
1205.90 1282.502
1206.00 1283.759
1206.10 1285.015
1206.20 1286.271
1206.30 1287.528
1206.40 1288.784
1206.50 1290.04
1206.60 1291.338
1206.70 1292.732
1206.80 1294.126
1206.90 1295.521
1207.00 1296.915
1207.10 1298.309
1207.20 1299.704
1207.30 1301.098
1207.40 1302.492
1207.50 1303.556
1207.60 1304.536
1207.70 1305.517
1207.80 1306.498
1207.90 1307.478
1208.00 1308.459
1208.10 1309.44
1208.20 1310.42
1208.30 1311.401
1208.40 1312.382
1208.50 1313.362
1208.60 1314.343
1208.70 1315.324
1208.80 1316.304
1208.90 1317.285
1209.00 1318.266
1209.10 1319.246
1209.20 1320.227
1209.30 1321.208
1209.40 1322.188
1209.50 1323.169
1209.60 1324.15
1209.70 1325.13
1209.80 1326.111
1209.90 1327.092
1210.00 1328.072
1210.10 1329.053
1210.20 1330.034
1210.30 1331.014
1210.40 1331.995
1210.50 1332.976
1210.60 1333.956
1210.70 1334.937
1210.80 1335.918
1210.90 1336.798
1211.00 1337.579
1211.10 1338.359
1211.20 1339.14
1211.30 1339.92
1211.40 1340.701
1211.50 1341.481
1211.60 1342.262
1211.70 1343.042
1211.80 1344.102
1211.90 1345.192
1212.00 1346.283
1212.10 1347.374
1212.20 1348.464
1212.30 1349.555
1212.40 1350.645
1212.50 1351.736
1212.60 1352.826
1212.70 1353.917
1212.80 1355.007
1212.90 1356.098
1213.00 1357.189
1213.10 1358.279
1213.20 1359.37
1213.30 1360.46
1213.40 1361.551
1213.50 1362.641
1213.60 1363.732
1213.70 1364.822
1213.80 1365.913
1213.90 1367.003
1214.00 1368.094
1214.10 1369.185
1214.20 1370.275
1214.30 1371.366
1214.40 1372.456
1214.50 1373.547
1214.60 1374.637
1214.70 1375.728
1214.80 1376.818
1214.90 1377.909
1215.00 1378.999
1215.10 1380.09
1215.20 1381.266
1215.30 1382.5
1215.40 1383.733
1215.50 1384.967
1215.60 1386.2
1215.70 1387.434
1215.80 1388.667
1215.90 1389.901
1216.00 1391.134
1216.10 1391.557
1216.20 1391.979
1216.30 1392.401
1216.40 1392.823
1216.50 1393.245
1216.60 1393.668
1216.70 1394.09
1216.80 1394.512
1216.90 1394.934
1217.00 1395.357
1217.10 1395.779
1217.20 1396.201
1217.30 1396.623
1217.40 1397.046
1217.50 1397.468
1217.60 1397.89
1217.70 1398.312
1217.80 1398.735
1217.90 1399.157
1218.00 1399.579
1218.10 1400.001
1218.20 1400.424
1218.30 1400.846
1218.40 1401.268
1218.50 1401.69
1218.60 1402.113
1218.70 1402.535
1218.80 1402.957
1218.90 1403.379
1219.00 1403.802
1219.10 1404.224
1219.20 1404.646
1219.30 1405.068
1219.40 1405.491
1219.50 1405.82
1219.60 1406.109
1219.70 1406.399
1219.80 1406.688
1219.90 1406.978
1220.00 1407.267
1220.10 1407.557
1220.20 1407.846
1220.30 1408.187
1220.40 1408.997
1220.50 1409.807
1220.60 1410.617
1220.70 1411.426
1220.80 1412.236
1220.90 1413.046
1221.00 1413.856
1221.10 1414.665
1221.20 1415.475
1221.30 1416.285
1221.40 1417.094
1221.50 1417.904
1221.60 1418.714
1221.70 1419.524
1221.80 1420.333
1221.90 1421.143
1222.00 1421.953
1222.10 1422.763
1222.20 1423.572
1222.30 1424.382
1222.40 1425.192
1222.50 1426.002
1222.60 1426.811
1222.70 1427.621
1222.80 1428.431
1222.90 1429.24
1223.00 1430.05
1223.10 1430.86
1223.20 1431.67
1223.30 1432.479
1223.40 1433.289
1223.50 1434.099
1223.60 1434.909
1223.70 1435.718
1223.80 1436.263
1223.90 1436.694
1224.00 1437.124
1224.10 1437.555
1224.20 1437.986
1224.30 1438.417
1224.40 1438.848
1224.50 1439.278
1224.60 1439.63
1224.70 1439.665
1224.80 1439.7
1224.90 1439.735
1225.00 1439.77
1225.10 1439.804
1225.20 1439.839
1225.30 1439.874
1225.40 1439.909
1225.50 1439.944
1225.60 1439.979
1225.70 1440.014
1225.80 1440.049
1225.90 1440.083
1226.00 1440.118
1226.10 1440.153
1226.20 1440.188
1226.30 1440.223
1226.40 1440.258
1226.50 1440.293
1226.60 1440.328
1226.70 1440.363
1226.80 1440.397
1226.90 1440.432
1227.00 1440.467
1227.10 1440.502
1227.20 1440.537
1227.30 1440.572
1227.40 1440.607
1227.50 1440.642
1227.60 1440.676
1227.70 1440.711
1227.80 1440.746
1227.90 1440.781
1228.00 1440.816
1228.10 1440.792
1228.20 1440.752
1228.30 1440.713
1228.40 1440.674
1228.50 1440.634
1228.60 1440.595
1228.70 1440.556
1228.80 1440.516
1228.90 1440.444
1229.00 1440.238
1229.10 1440.032
1229.20 1439.826
1229.30 1439.62
1229.40 1439.414
1229.50 1439.208
1229.60 1439.002
1229.70 1438.796
1229.80 1438.59
1229.90 1438.384
1230.00 1438.178
1230.10 1437.972
1230.20 1437.766
1230.30 1437.56
1230.40 1437.354
1230.50 1437.148
1230.60 1436.942
1230.70 1436.736
1230.80 1436.53
1230.90 1436.324
1231.00 1436.118
1231.10 1435.912
1231.20 1435.706
1231.30 1435.5
1231.40 1435.294
1231.50 1435.088
1231.60 1434.882
1231.70 1434.676
1231.80 1434.47
1231.90 1434.264
1232.00 1434.058
1232.10 1433.852
1232.20 1433.646
1232.30 1433.44
1232.40 1432.672
1232.50 1431.763
1232.60 1430.855
1232.70 1429.946
1232.80 1429.038
1232.90 1428.129
1233.00 1427.22
1233.10 1426.312
1233.20 1425.378
1233.30 1424.341
1233.40 1423.304
1233.50 1422.268
1233.60 1421.231
1233.70 1420.195
1233.80 1419.158
1233.90 1418.121
1234.00 1417.085
1234.10 1416.048
1234.20 1415.012
1234.30 1413.975
1234.40 1412.938
1234.50 1411.902
1234.60 1410.865
1234.70 1409.829
1234.80 1408.792
1234.90 1407.756
1235.00 1406.719
1235.10 1405.682
1235.20 1404.646
1235.30 1403.609
1235.40 1402.573
1235.50 1401.536
1235.60 1400.499
1235.70 1399.463
1235.80 1398.426
1235.90 1397.39
1236.00 1396.353
1236.10 1395.317
1236.20 1394.28
1236.30 1393.243
1236.40 1392.207
1236.50 1391.17
1236.60 1390.134
1236.70 1389.427
1236.80 1388.862
1236.90 1388.297
1237.00 1387.732
1237.10 1387.167
1237.20 1386.602
1237.30 1386.037
1237.40 1385.472
1237.50 1384.913
1237.60 1384.373
1237.70 1383.834
1237.80 1383.295
1237.90 1382.756
1238.00 1382.216
1238.10 1381.677
1238.20 1381.138
1238.30 1380.599
1238.40 1380.059
1238.50 1379.52
1238.60 1378.981
1238.70 1378.442
1238.80 1377.902
1238.90 1377.363
1239.00 1376.824
1239.10 1376.284
1239.20 1375.745
1239.30 1375.206
1239.40 1374.667
1239.50 1374.127
1239.60 1373.588
1239.70 1373.049
1239.80 1372.51
1239.90 1371.97
1240.00 1371.431
1240.10 1370.892
1240.20 1370.353
1240.30 1369.813
1240.40 1369.274
1240.50 1368.735
1240.60 1368.196
1240.70 1367.656
1240.80 1367.117
1240.90 1366.578
1241.00 1366.018
1241.10 1365.45
1241.20 1364.882
1241.30 1364.313
1241.40 1363.745
1241.50 1363.177
1241.60 1362.608
1241.70 1362.04
1241.80 1361.511
1241.90 1361.335
1242.00 1361.158
1242.10 1360.982
1242.20 1360.806
1242.30 1360.629
1242.40 1360.453
1242.50 1360.276
1242.60 1360.1
1242.70 1359.924
1242.80 1359.747
1242.90 1359.571
1243.00 1359.395
1243.10 1359.218
1243.20 1359.042
1243.30 1358.866
1243.40 1358.689
1243.50 1358.513
1243.60 1358.336
1243.70 1358.16
1243.80 1357.984
1243.90 1357.807
1244.00 1357.631
1244.10 1357.455
1244.20 1357.278
1244.30 1357.102
1244.40 1356.925
1244.50 1356.749
1244.60 1356.573
1244.70 1356.396
1244.80 1356.22
1244.90 1356.044
1245.00 1355.867
1245.10 1355.691
1245.20 1355.515
1245.30 1355.88
1245.40 1356.605
1245.50 1357.331
1245.60 1358.057
1245.70 1358.783
1245.80 1359.509
1245.90 1360.235
1246.00 1360.961
1246.10 1361.687
1246.20 1363.019
1246.30 1364.352
1246.40 1365.685
1246.50 1367.017
1246.60 1368.35
1246.70 1369.683
1246.80 1371.015
1246.90 1372.348
1247.00 1373.681
1247.10 1375.013
1247.20 1376.346
1247.30 1377.678
1247.40 1379.011
1247.50 1380.344
1247.60 1381.676
1247.70 1383.009
1247.80 1384.342
1247.90 1385.674
1248.00 1387.007
1248.10 1388.339
1248.20 1389.672
1248.30 1391.005
1248.40 1392.337
1248.50 1393.67
1248.60 1395.003
1248.70 1396.335
1248.80 1397.668
1248.90 1399.001
1249.00 1400.333
1249.10 1401.666
1249.20 1402.998
1249.30 1404.331
1249.40 1405.664
1249.50 1406.996
1249.60 1408.293
1249.70 1409.553
1249.80 1410.813
1249.90 1412.073
1250.00 1413.333
1250.10 1414.594
1250.20 1415.854
1250.30 1417.114
1250.40 1418.374
1250.50 1419.447
1250.60 1420.52
1250.70 1421.593
1250.80 1422.666
1250.90 1423.739
1251.00 1424.811
1251.10 1425.884
1251.20 1426.957
1251.30 1428.03
1251.40 1429.103
1251.50 1430.176
1251.60 1431.249
1251.70 1432.322
1251.80 1433.395
1251.90 1434.468
1252.00 1435.54
1252.10 1436.613
1252.20 1437.686
1252.30 1438.759
1252.40 1439.832
1252.50 1440.905
1252.60 1441.978
1252.70 1443.051
1252.80 1444.124
1252.90 1445.196
1253.00 1446.269
1253.10 1447.342
1253.20 1448.415
1253.30 1449.488
1253.40 1450.561
1253.50 1451.634
1253.60 1452.707
1253.70 1453.78
1253.80 1454.852
1253.90 1456.061
1254.00 1457.475
1254.10 1458.888
1254.20 1460.301
1254.30 1461.714
1254.40 1463.127
1254.50 1464.54
1254.60 1465.953
1254.70 1467.366
1254.80 1468.49
1254.90 1469.581
1255.00 1470.672
1255.10 1471.763
1255.20 1472.854
1255.30 1473.945
1255.40 1475.036
1255.50 1476.127
1255.60 1477.219
1255.70 1478.31
1255.80 1479.401
1255.90 1480.492
1256.00 1481.583
1256.10 1482.674
1256.20 1483.765
1256.30 1484.856
1256.40 1485.948
1256.50 1487.039
1256.60 1488.13
1256.70 1489.221
1256.80 1490.312
1256.90 1491.403
1257.00 1492.494
1257.10 1493.585
1257.20 1494.677
1257.30 1495.768
1257.40 1496.859
1257.50 1497.95
1257.60 1499.041
1257.70 1500.132
1257.80 1501.223
1257.90 1502.314
1258.00 1503.406
1258.10 1504.497
1258.20 1505.365
1258.30 1505.713
1258.40 1506.062
1258.50 1506.41
1258.60 1506.759
1258.70 1507.107
1258.80 1507.455
1258.90 1507.804
1259.00 1508.152
1259.10 1509.194
1259.20 1510.534
1259.30 1511.874
1259.40 1513.214
1259.50 1514.553
1259.60 1515.893
1259.70 1517.233
1259.80 1518.573
1259.90 1519.912
1260.00 1521.252
1260.10 1522.592
1260.20 1523.932
1260.30 1525.271
1260.40 1526.611
1260.50 1527.951
1260.60 1529.291
1260.70 1530.63
1260.80 1531.97
1260.90 1533.31
1261.00 1534.65
1261.10 1535.989
1261.20 1537.329
1261.30 1538.669
1261.40 1540.009
1261.50 1541.348
1261.60 1542.688
1261.70 1544.028
1261.80 1545.368
1261.90 1546.707
1262.00 1548.047
1262.10 1549.387
1262.20 1550.727
1262.30 1552.066
1262.40 1553.406
1262.50 1554.883
1262.60 1556.91
1262.70 1558.937
1262.80 1560.964
1262.90 1562.99
1263.00 1565.017
1263.10 1567.044
1263.20 1569.071
1263.30 1571.098
1263.40 1572.498
1263.50 1573.482
1263.60 1574.465
1263.70 1575.448
1263.80 1576.432
1263.90 1577.415
1264.00 1578.399
1264.10 1579.382
1264.20 1580.365
1264.30 1581.349
1264.40 1582.332
1264.50 1583.315
1264.60 1584.299
1264.70 1585.282
1264.80 1586.265
1264.90 1587.249
1265.00 1588.232
1265.10 1589.216
1265.20 1590.199
1265.30 1591.182
1265.40 1592.166
1265.50 1593.149
1265.60 1594.132
1265.70 1595.116
1265.80 1596.099
1265.90 1597.083
1266.00 1598.066
1266.10 1599.049
1266.20 1600.033
1266.30 1601.016
1266.40 1601.999
1266.50 1602.983
1266.60 1603.966
1266.70 1604.95
1266.80 1605.933
1266.90 1605.62
1267.00 1605.306
1267.10 1604.993
1267.20 1604.68
1267.30 1604.367
1267.40 1604.053
1267.50 1603.74
1267.60 1603.427
1267.70 1603.242
1267.80 1603.249
1267.90 1603.256
1268.00 1603.264
1268.10 1603.271
1268.20 1603.278
1268.30 1603.286
1268.40 1603.293
1268.50 1603.3
1268.60 1603.307
1268.70 1603.315
1268.80 1603.322
1268.90 1603.329
1269.00 1603.336
1269.10 1603.344
1269.20 1603.351
1269.30 1603.358
1269.40 1603.365
1269.50 1603.373
1269.60 1603.38
1269.70 1603.387
1269.80 1603.394
1269.90 1603.402
1270.00 1603.409
1270.10 1603.416
1270.20 1603.423
1270.30 1603.431
1270.40 1603.438
1270.50 1603.445
1270.60 1603.453
1270.70 1603.46
1270.80 1603.467
1270.90 1603.474
1271.00 1603.482
1271.10 1603.489
1271.20 1604.424
1271.30 1605.463
1271.40 1606.501
1271.50 1607.539
1271.60 1608.578
1271.70 1609.616
1271.80 1610.655
1271.90 1611.693
1272.00 1612.331
1272.10 1612.034
1272.20 1611.737
1272.30 1611.44
1272.40 1611.142
1272.50 1610.845
1272.60 1610.548
1272.70 1610.251
1272.80 1609.954
1272.90 1609.657
1273.00 1609.359
1273.10 1609.062
1273.20 1608.765
1273.30 1608.468
1273.40 1608.171
1273.50 1607.874
1273.60 1607.577
1273.70 1607.279
1273.80 1606.982
1273.90 1606.685
1274.00 1606.388
1274.10 1606.091
1274.20 1605.794
1274.30 1605.496
1274.40 1605.199
1274.50 1604.902
1274.60 1604.605
1274.70 1604.308
1274.80 1604.011
1274.90 1603.714
1275.00 1603.416
1275.10 1603.119
1275.20 1602.822
1275.30 1602.525
1275.40 1602.228
1275.50 1601.56
1275.60 1600.734
1275.70 1599.908
1275.80 1599.082
1275.90 1598.256
1276.00 1597.43
1276.10 1596.603
1276.20 1595.777
1276.30 1595.076
1276.40 1595.498
1276.50 1595.919
1276.60 1596.341
1276.70 1596.762
1276.80 1597.184
1276.90 1597.605
1277.00 1598.027
1277.10 1598.448
1277.20 1598.87
1277.30 1599.291
1277.40 1599.713
1277.50 1600.134
1277.60 1600.556
1277.70 1600.978
1277.80 1601.399
1277.90 1601.821
1278.00 1602.242
1278.10 1602.664
1278.20 1603.085
1278.30 1603.507
1278.40 1603.928
1278.50 1604.35
1278.60 1604.771
1278.70 1605.193
1278.80 1605.614
1278.90 1606.036
1279.00 1606.457
1279.10 1606.879
1279.20 1607.301
1279.30 1607.722
1279.40 1608.144
1279.50 1608.565
1279.60 1608.987
1279.70 1609.408
1279.80 1609.855
1279.90 1610.319
1280.00 1610.784
1280.10 1611.248
1280.20 1611.712
1280.30 1612.176
1280.40 1612.64
1280.50 1613.104
1280.60 1613.568
1280.70 1613.552
1280.80 1613.537
1280.90 1613.521
1281.00 1613.505
1281.10 1613.489
1281.20 1613.474
1281.30 1613.458
1281.40 1613.442
1281.50 1613.426
1281.60 1613.411
1281.70 1613.395
1281.80 1613.379
1281.90 1613.363
1282.00 1613.348
1282.10 1613.332
1282.20 1613.316
1282.30 1613.301
1282.40 1613.285
1282.50 1613.269
1282.60 1613.253
1282.70 1613.238
1282.80 1613.222
1282.90 1613.206
1283.00 1613.19
1283.10 1613.175
1283.20 1613.159
1283.30 1613.143
1283.40 1613.127
1283.50 1613.112
1283.60 1613.096
1283.70 1613.08
1283.80 1613.064
1283.90 1613.049
1284.00 1613.033
1284.10 1613.138
1284.20 1613.425
1284.30 1613.711
1284.40 1613.998
1284.50 1614.284
1284.60 1614.571
1284.70 1614.857
1284.80 1615.144
1284.90 1615.43
1285.00 1615.914
1285.10 1616.447
1285.20 1616.98
1285.30 1617.513
1285.40 1618.046
1285.50 1618.579
1285.60 1619.112
1285.70 1619.645
1285.80 1620.178
1285.90 1620.711
1286.00 1621.244
1286.10 1621.777
1286.20 1622.31
1286.30 1622.843
1286.40 1623.376
1286.50 1623.91
1286.60 1624.443
1286.70 1624.976
1286.80 1625.509
1286.90 1626.042
1287.00 1626.575
1287.10 1627.108
1287.20 1627.641
1287.30 1628.174
1287.40 1628.707
1287.50 1629.24
1287.60 1629.773
1287.70 1630.306
1287.80 1630.839
1287.90 1631.372
1288.00 1631.905
1288.10 1632.438
1288.20 1632.971
1288.30 1633.504
1288.40 1634.002
1288.50 1634.357
1288.60 1634.712
1288.70 1635.067
1288.80 1635.423
1288.90 1635.778
1289.00 1636.133
1289.10 1636.488
1289.20 1636.844
1289.30 1637.02
1289.40 1637.077
1289.50 1637.133
1289.60 1637.19
1289.70 1637.247
1289.80 1637.303
1289.90 1637.36
1290.00 1637.417
1290.10 1637.474
1290.20 1637.53
1290.30 1637.587
1290.40 1637.644
1290.50 1637.701
1290.60 1637.757
1290.70 1637.814
1290.80 1637.871
1290.90 1637.927
1291.00 1637.984
1291.10 1638.041
1291.20 1638.098
1291.30 1638.154
1291.40 1638.211
1291.50 1638.268
1291.60 1638.324
1291.70 1638.381
1291.80 1638.438
1291.90 1638.495
1292.00 1638.551
1292.10 1638.608
1292.20 1638.665
1292.30 1638.722
1292.40 1638.778
1292.50 1638.835
1292.60 1638.892
1292.70 1638.948
1292.80 1638.921
1292.90 1638.894
1293.00 1638.866
1293.10 1638.839
1293.20 1638.812
1293.30 1638.784
1293.40 1638.757
1293.50 1638.73
1293.60 1638.711
1293.70 1638.705
1293.80 1638.698
1293.90 1638.692
1294.00 1638.686
1294.10 1638.679
1294.20 1638.673
1294.30 1638.666
1294.40 1638.66
1294.50 1638.654
1294.60 1638.647
1294.70 1638.641
1294.80 1638.635
1294.90 1638.628
1295.00 1638.622
1295.10 1638.616
1295.20 1638.609
1295.30 1638.603
1295.40 1638.597
1295.50 1638.59
1295.60 1638.584
1295.70 1638.578
1295.80 1638.571
1295.90 1638.565
1296.00 1638.559
1296.10 1638.552
1296.20 1638.546
1296.30 1638.539
1296.40 1638.533
1296.50 1638.527
1296.60 1638.52
1296.70 1638.514
1296.80 1638.508
1296.90 1638.501
1297.00 1638.495
1297.10 1638.262
1297.20 1637.973
1297.30 1637.684
1297.40 1637.395
1297.50 1637.106
1297.60 1636.817
1297.70 1636.528
1297.80 1636.239
1297.90 1635.929
1298.00 1635.541
1298.10 1635.152
1298.20 1634.763
1298.30 1634.375
1298.40 1633.986
1298.50 1633.597
1298.60 1633.208
1298.70 1632.82
1298.80 1632.431
1298.90 1632.042
1299.00 1631.653
1299.10 1631.265
1299.20 1630.876
1299.30 1630.487
1299.40 1630.098
1299.50 1629.71
1299.60 1629.321
1299.70 1628.932
1299.80 1628.544
1299.90 1628.155
