# Version 2.1 - nm, norm@500 to 1, cut digits
# Wavelength(nm)  Flambda(ergs/cm^s/s/nm)
300.00 4.057883e-95
300.10 4.057883e-95
300.20 4.057883e-95
300.30 4.057883e-95
300.40 4.057883e-95
300.50 4.057883e-95
300.60 4.057883e-95
300.70 4.057883e-95
300.80 4.057883e-95
300.90 4.057883e-95
301.00 4.057883e-95
301.10 4.057883e-95
301.20 4.057883e-95
301.30 4.057883e-95
301.40 4.057883e-95
301.50 4.057883e-95
301.60 4.057883e-95
301.70 4.057883e-95
301.80 4.057883e-95
301.90 4.057883e-95
302.00 4.057883e-95
302.10 4.057883e-95
302.20 4.057883e-95
302.30 4.057883e-95
302.40 4.057883e-95
302.50 4.057883e-95
302.60 4.057883e-95
302.70 4.057883e-95
302.80 4.057883e-95
302.90 4.057883e-95
303.00 4.057883e-95
303.10 4.057883e-95
303.20 4.057883e-95
303.30 4.057883e-95
303.40 4.057883e-95
303.50 4.057883e-95
303.60 4.057883e-95
303.70 4.057883e-95
303.80 4.057883e-95
303.90 4.057883e-95
304.00 4.057883e-95
304.10 4.057883e-95
304.20 4.057883e-95
304.30 4.057883e-95
304.40 4.057883e-95
304.50 4.057883e-95
304.60 4.057883e-95
304.70 4.057883e-95
304.80 4.057883e-95
304.90 4.057883e-95
305.00 4.057883e-95
305.10 4.057883e-95
305.20 4.057883e-95
305.30 4.057883e-95
305.40 4.057883e-95
305.50 4.057883e-95
305.60 4.057883e-95
305.70 4.057883e-95
305.80 4.057883e-95
305.90 4.057883e-95
306.00 4.057883e-95
306.10 4.057883e-95
306.20 4.057883e-95
306.30 4.057883e-95
306.40 4.057883e-95
306.50 4.057883e-95
306.60 4.057883e-95
306.70 4.057883e-95
306.80 4.057883e-95
306.90 4.057883e-95
307.00 4.057883e-95
307.10 4.057883e-95
307.20 4.057883e-95
307.30 4.057883e-95
307.40 4.057883e-95
307.50 4.057883e-95
307.60 4.057883e-95
307.70 4.057883e-95
307.80 4.057883e-95
307.90 4.057883e-95
308.00 4.057883e-95
308.10 4.057883e-95
308.20 4.057883e-95
308.30 4.057883e-95
308.40 4.057883e-95
308.50 4.057883e-95
308.60 4.057883e-95
308.70 4.057883e-95
308.80 4.057883e-95
308.90 4.057883e-95
309.00 4.057883e-95
309.10 4.057883e-95
309.20 4.057883e-95
309.30 4.057883e-95
309.40 4.057883e-95
309.50 4.057883e-95
309.60 4.057883e-95
309.70 4.057883e-95
309.80 4.057883e-95
309.90 4.057883e-95
310.00 4.057883e-95
310.10 4.057883e-95
310.20 4.057883e-95
310.30 4.057883e-95
310.40 4.057883e-95
310.50 4.057883e-95
310.60 4.057883e-95
310.70 4.057883e-95
310.80 4.057883e-95
310.90 4.057883e-95
311.00 4.057883e-95
311.10 4.057883e-95
311.20 4.057883e-95
311.30 4.057883e-95
311.40 4.057883e-95
311.50 4.057883e-95
311.60 4.057883e-95
311.70 4.057883e-95
311.80 4.057883e-95
311.90 4.057883e-95
312.00 4.057883e-95
312.10 4.057883e-95
312.20 4.057883e-95
312.30 4.057883e-95
312.40 4.057883e-95
312.50 4.057883e-95
312.60 4.057883e-95
312.70 4.057883e-95
312.80 4.057883e-95
312.90 4.057883e-95
313.00 4.057883e-95
313.10 4.057883e-95
313.20 4.057883e-95
313.30 4.057883e-95
313.40 4.057883e-95
313.50 4.057883e-95
313.60 4.057883e-95
313.70 4.057883e-95
313.80 4.057883e-95
313.90 4.057883e-95
314.00 4.057883e-95
314.10 4.057883e-95
314.20 4.057883e-95
314.30 4.057883e-95
314.40 4.057883e-95
314.50 4.057883e-95
314.60 4.057883e-95
314.70 4.057883e-95
314.80 4.057883e-95
314.90 4.057883e-95
315.00 4.057883e-95
315.10 4.057883e-95
315.20 4.057883e-95
315.30 4.057883e-95
315.40 4.057883e-95
315.50 4.057883e-95
315.60 4.057883e-95
315.70 4.057883e-95
315.80 4.057883e-95
315.90 4.057883e-95
316.00 4.057883e-95
316.10 4.057883e-95
316.20 4.057883e-95
316.30 4.057883e-95
316.40 4.057883e-95
316.50 4.057883e-95
316.60 4.057883e-95
316.70 4.057883e-95
316.80 4.057883e-95
316.90 4.057883e-95
317.00 4.057883e-95
317.10 4.057883e-95
317.20 4.057883e-95
317.30 4.057883e-95
317.40 4.057883e-95
317.50 4.057883e-95
317.60 4.057883e-95
317.70 4.057883e-95
317.80 4.057883e-95
317.90 4.057883e-95
318.00 4.057883e-95
318.10 4.057883e-95
318.20 4.057883e-95
318.30 4.057883e-95
318.40 4.057883e-95
318.50 4.057883e-95
318.60 4.057883e-95
318.70 4.057883e-95
318.80 4.057883e-95
318.90 4.057883e-95
319.00 4.057883e-95
319.10 4.057883e-95
319.20 4.057883e-95
319.30 4.057883e-95
319.40 4.057883e-95
319.50 4.057883e-95
319.60 4.057883e-95
319.70 4.057883e-95
319.80 4.057883e-95
319.90 4.057883e-95
320.00 4.057883e-95
320.10 4.057883e-95
320.20 4.057883e-95
320.30 4.057883e-95
320.40 4.057883e-95
320.50 4.057883e-95
320.60 4.057883e-95
320.70 4.057883e-95
320.80 4.057883e-95
320.90 4.057883e-95
321.00 4.057883e-95
321.10 4.057883e-95
321.20 4.057883e-95
321.30 4.057883e-95
321.40 4.057883e-95
321.50 4.057883e-95
321.60 4.057883e-95
321.70 4.057883e-95
321.80 4.057883e-95
321.90 4.057883e-95
322.00 4.057883e-95
322.10 4.057883e-95
322.20 4.057883e-95
322.30 4.057883e-95
322.40 4.057883e-95
322.50 4.057883e-95
322.60 4.057883e-95
322.70 4.057883e-95
322.80 4.057883e-95
322.90 4.057883e-95
323.00 4.057883e-95
323.10 4.057883e-95
323.20 4.057883e-95
323.30 4.057883e-95
323.40 4.057883e-95
323.50 4.057883e-95
323.60 4.057883e-95
323.70 4.057883e-95
323.80 4.057883e-95
323.90 4.057883e-95
324.00 4.057883e-95
324.10 4.057883e-95
324.20 4.057883e-95
324.30 4.057883e-95
324.40 4.057883e-95
324.50 4.057883e-95
324.60 4.057883e-95
324.70 4.057883e-95
324.80 4.057883e-95
324.90 4.057883e-95
325.00 4.057883e-95
325.10 4.057883e-95
325.20 4.057883e-95
325.30 4.057883e-95
325.40 4.057883e-95
325.50 4.057883e-95
325.60 4.057883e-95
325.70 4.057883e-95
325.80 4.057883e-95
325.90 4.057883e-95
326.00 4.057883e-95
326.10 4.057883e-95
326.20 4.057883e-95
326.30 4.057883e-95
326.40 4.057883e-95
326.50 4.057883e-95
326.60 4.057883e-95
326.70 4.057883e-95
326.80 4.057883e-95
326.90 4.057883e-95
327.00 4.057883e-95
327.10 4.057883e-95
327.20 4.057883e-95
327.30 4.057883e-95
327.40 4.057883e-95
327.50 4.057883e-95
327.60 4.057883e-95
327.70 4.057883e-95
327.80 4.057883e-95
327.90 4.057883e-95
328.00 4.057883e-95
328.10 4.057883e-95
328.20 4.057883e-95
328.30 4.057883e-95
328.40 4.057883e-95
328.50 4.057883e-95
328.60 4.057883e-95
328.70 4.057883e-95
328.80 4.057883e-95
328.90 4.057883e-95
329.00 4.057883e-95
329.10 4.057883e-95
329.20 4.057883e-95
329.30 4.057883e-95
329.40 4.057883e-95
329.50 4.057883e-95
329.60 4.057883e-95
329.70 4.057883e-95
329.80 4.057883e-95
329.90 4.057883e-95
330.00 4.057883e-95
330.10 4.057883e-95
330.20 4.057883e-95
330.30 4.057883e-95
330.40 4.057883e-95
330.50 4.057883e-95
330.60 4.057883e-95
330.70 4.057883e-95
330.80 4.057883e-95
330.90 4.057883e-95
331.00 4.057883e-95
331.10 4.057883e-95
331.20 4.057883e-95
331.30 4.057883e-95
331.40 4.057883e-95
331.50 4.057883e-95
331.60 4.057883e-95
331.70 4.057883e-95
331.80 4.057883e-95
331.90 4.057883e-95
332.00 4.057883e-95
332.10 4.057883e-95
332.20 4.057883e-95
332.30 4.057883e-95
332.40 4.057883e-95
332.50 4.057883e-95
332.60 4.057883e-95
332.70 4.057883e-95
332.80 4.057883e-95
332.90 4.057883e-95
333.00 4.057883e-95
333.10 4.057883e-95
333.20 4.057883e-95
333.30 4.057883e-95
333.40 4.057883e-95
333.50 4.057883e-95
333.60 4.057883e-95
333.70 4.057883e-95
333.80 4.057883e-95
333.90 4.057883e-95
334.00 4.057883e-95
334.10 4.057883e-95
334.20 4.057883e-95
334.30 4.057883e-95
334.40 4.057883e-95
334.50 4.057883e-95
334.60 4.057883e-95
334.70 4.057883e-95
334.80 4.057883e-95
334.90 4.057883e-95
335.00 4.057883e-95
335.10 4.057883e-95
335.20 4.057883e-95
335.30 4.057883e-95
335.40 4.057883e-95
335.50 4.057883e-95
335.60 4.057883e-95
335.70 4.057883e-95
335.80 4.057883e-95
335.90 4.057883e-95
336.00 4.057883e-95
336.10 4.057883e-95
336.20 4.057883e-95
336.30 4.057883e-95
336.40 4.057883e-95
336.50 4.057883e-95
336.60 4.057883e-95
336.70 4.057883e-95
336.80 4.057883e-95
336.90 4.057883e-95
337.00 4.057883e-95
337.10 4.057883e-95
337.20 4.057883e-95
337.30 4.057883e-95
337.40 4.057883e-95
337.50 4.057883e-95
337.60 4.057883e-95
337.70 4.057883e-95
337.80 4.057883e-95
337.90 4.057883e-95
338.00 4.057883e-95
338.10 4.057883e-95
338.20 4.057883e-95
338.30 4.057883e-95
338.40 4.057883e-95
338.50 4.057883e-95
338.60 4.057883e-95
338.70 4.057883e-95
338.80 4.057883e-95
338.90 4.057883e-95
339.00 4.057883e-95
339.10 4.057883e-95
339.20 4.057883e-95
339.30 4.057883e-95
339.40 4.057883e-95
339.50 4.057883e-95
339.60 4.057883e-95
339.70 4.057883e-95
339.80 4.057883e-95
339.90 4.057883e-95
340.00 4.057883e-95
340.10 4.057883e-95
340.20 4.057883e-95
340.30 4.057883e-95
340.40 4.057883e-95
340.50 4.057883e-95
340.60 4.057883e-95
340.70 4.057883e-95
340.80 4.057883e-95
340.90 4.057883e-95
341.00 4.057883e-95
341.10 4.057883e-95
341.20 4.057883e-95
341.30 4.057883e-95
341.40 4.057883e-95
341.50 4.057883e-95
341.60 4.057883e-95
341.70 4.057883e-95
341.80 4.057883e-95
341.90 4.057883e-95
342.00 4.057883e-95
342.10 4.057883e-95
342.20 4.057883e-95
342.30 4.057883e-95
342.40 4.057883e-95
342.50 4.057883e-95
342.60 4.057883e-95
342.70 4.057883e-95
342.80 4.057883e-95
342.90 4.057883e-95
343.00 4.057883e-95
343.10 4.057883e-95
343.20 4.057883e-95
343.30 4.057883e-95
343.40 4.057883e-95
343.50 4.057883e-95
343.60 4.057883e-95
343.70 4.057883e-95
343.80 4.057883e-95
343.90 4.057883e-95
344.00 4.057883e-95
344.10 4.057883e-95
344.20 4.057883e-95
344.30 4.057883e-95
344.40 4.057883e-95
344.50 4.057883e-95
344.60 4.057883e-95
344.70 4.057883e-95
344.80 4.057883e-95
344.90 4.057883e-95
345.00 4.057883e-95
345.10 4.057883e-95
345.20 4.057883e-95
345.30 4.057883e-95
345.40 4.057883e-95
345.50 4.057883e-95
345.60 4.057883e-95
345.70 4.057883e-95
345.80 4.057883e-95
345.90 4.057883e-95
346.00 4.057883e-95
346.10 4.057883e-95
346.20 4.057883e-95
346.30 4.057883e-95
346.40 4.057883e-95
346.50 4.057883e-95
346.60 4.057883e-95
346.70 4.057883e-95
346.80 4.057883e-95
346.90 4.057883e-95
347.00 4.057883e-95
347.10 4.057883e-95
347.20 4.057883e-95
347.30 4.057883e-95
347.40 4.057883e-95
347.50 4.057883e-95
347.60 4.057883e-95
347.70 4.057883e-95
347.80 4.057883e-95
347.90 4.057883e-95
348.00 4.057883e-95
348.10 4.057883e-95
348.20 4.057883e-95
348.30 4.057883e-95
348.40 4.057883e-95
348.50 4.057883e-95
348.60 4.057883e-95
348.70 4.057883e-95
348.80 4.057883e-95
348.90 4.057883e-95
349.00 4.057883e-95
349.10 4.057883e-95
349.20 4.057883e-95
349.30 4.057883e-95
349.40 4.057883e-95
349.50 4.057883e-95
349.60 4.057883e-95
349.70 4.057883e-95
349.80 4.057883e-95
349.90 4.057883e-95
350.00 4.057883e-95
350.10 4.057883e-95
350.20 4.057883e-95
350.30 4.057883e-95
350.40 4.057883e-95
350.50 4.057883e-95
350.60 4.057883e-95
350.70 4.057883e-95
350.80 4.057883e-95
350.90 4.057883e-95
351.00 4.057883e-95
351.10 4.057883e-95
351.20 4.057883e-95
351.30 4.057883e-95
351.40 4.057883e-95
351.50 4.057883e-95
351.60 4.057883e-95
351.70 4.057883e-95
351.80 4.057883e-95
351.90 4.057883e-95
352.00 4.057883e-95
352.10 4.057883e-95
352.20 4.057883e-95
352.30 4.057883e-95
352.40 4.057883e-95
352.50 4.057883e-95
352.60 4.057883e-95
352.70 4.057883e-95
352.80 4.057883e-95
352.90 4.057883e-95
353.00 4.057883e-95
353.10 4.057883e-95
353.20 4.057883e-95
353.30 4.057883e-95
353.40 4.057883e-95
353.50 4.057883e-95
353.60 4.057883e-95
353.70 4.057883e-95
353.80 4.057883e-95
353.90 4.057883e-95
354.00 4.057883e-95
354.10 4.057883e-95
354.20 4.057883e-95
354.30 4.057883e-95
354.40 4.057883e-95
354.50 4.057883e-95
354.60 4.057883e-95
354.70 4.057883e-95
354.80 4.057883e-95
354.90 4.057883e-95
355.00 4.057883e-95
355.10 4.057883e-95
355.20 4.057883e-95
355.30 4.057883e-95
355.40 4.057883e-95
355.50 4.057883e-95
355.60 4.057883e-95
355.70 4.057883e-95
355.80 4.057883e-95
355.90 4.057883e-95
356.00 4.057883e-95
356.10 4.057883e-95
356.20 4.057883e-95
356.30 4.057883e-95
356.40 4.057883e-95
356.50 4.057883e-95
356.60 4.057883e-95
356.70 4.057883e-95
356.80 4.057883e-95
356.90 4.057883e-95
357.00 4.057883e-95
357.10 4.057883e-95
357.20 4.057883e-95
357.30 4.057883e-95
357.40 4.057883e-95
357.50 4.057883e-95
357.60 4.057883e-95
357.70 4.057883e-95
357.80 4.057883e-95
357.90 4.057883e-95
358.00 4.057883e-95
358.10 4.057883e-95
358.20 4.057883e-95
358.30 4.057883e-95
358.40 4.057883e-95
358.50 4.057883e-95
358.60 4.057883e-95
358.70 4.057883e-95
358.80 4.057883e-95
358.90 4.057883e-95
359.00 4.057883e-95
359.10 4.057883e-95
359.20 4.057883e-95
359.30 4.057883e-95
359.40 4.057883e-95
359.50 4.057883e-95
359.60 4.057883e-95
359.70 4.057883e-95
359.80 4.057883e-95
359.90 4.057883e-95
360.00 4.057883e-95
360.10 4.057883e-95
360.20 4.057883e-95
360.30 4.057883e-95
360.40 4.057883e-95
360.50 4.057883e-95
360.60 4.057883e-95
360.70 4.057883e-95
360.80 4.057883e-95
360.90 4.057883e-95
361.00 4.057883e-95
361.10 4.057883e-95
361.20 4.057883e-95
361.30 4.057883e-95
361.40 4.057883e-95
361.50 4.057883e-95
361.60 4.057883e-95
361.70 4.057883e-95
361.80 4.057883e-95
361.90 4.057883e-95
362.00 4.057883e-95
362.10 4.057883e-95
362.20 4.057883e-95
362.30 4.057883e-95
362.40 4.057883e-95
362.50 4.057883e-95
362.60 4.057883e-95
362.70 4.057883e-95
362.80 4.057883e-95
362.90 4.057883e-95
363.00 4.057883e-95
363.10 4.057883e-95
363.20 4.057883e-95
363.30 4.057883e-95
363.40 4.057883e-95
363.50 4.057883e-95
363.60 4.057883e-95
363.70 4.057883e-95
363.80 4.057883e-95
363.90 4.057883e-95
364.00 4.057883e-95
364.10 4.057883e-95
364.20 4.057883e-95
364.30 4.057883e-95
364.40 4.057883e-95
364.50 4.057883e-95
364.60 4.057883e-95
364.70 4.057883e-95
364.80 4.057883e-95
364.90 4.057883e-95
365.00 4.057883e-95
365.10 4.057883e-95
365.20 4.057883e-95
365.30 4.057883e-95
365.40 4.057883e-95
365.50 4.057883e-95
365.60 4.057883e-95
365.70 4.057883e-95
365.80 4.057883e-95
365.90 4.057883e-95
366.00 4.057883e-95
366.10 4.057883e-95
366.20 4.057883e-95
366.30 4.057883e-95
366.40 4.057883e-95
366.50 4.057883e-95
366.60 4.057883e-95
366.70 4.057883e-95
366.80 4.057883e-95
366.90 4.057883e-95
367.00 4.057883e-95
367.10 4.057883e-95
367.20 4.057883e-95
367.30 4.057883e-95
367.40 4.057883e-95
367.50 4.057883e-95
367.60 4.057883e-95
367.70 4.057883e-95
367.80 4.057883e-95
367.90 4.057883e-95
368.00 4.057883e-95
368.10 4.057883e-95
368.20 4.057883e-95
368.30 4.057883e-95
368.40 4.057883e-95
368.50 4.057883e-95
368.60 4.057883e-95
368.70 4.057883e-95
368.80 4.057883e-95
368.90 4.057883e-95
369.00 4.057883e-95
369.10 4.057883e-95
369.20 4.057883e-95
369.30 4.057883e-95
369.40 4.057883e-95
369.50 4.057883e-95
369.60 4.057883e-95
369.70 4.057883e-95
369.80 4.057883e-95
369.90 4.057883e-95
370.00 4.057883e-95
370.10 4.057883e-95
370.20 4.057883e-95
370.30 4.057883e-95
370.40 4.057883e-95
370.50 4.057883e-95
370.60 4.057883e-95
370.70 4.057883e-95
370.80 4.057883e-95
370.90 4.057883e-95
371.00 4.057883e-95
371.10 4.057883e-95
371.20 4.057883e-95
371.30 4.057883e-95
371.40 4.057883e-95
371.50 4.057883e-95
371.60 4.057883e-95
371.70 4.057883e-95
371.80 4.057883e-95
371.90 4.057883e-95
372.00 4.057883e-95
372.10 4.057883e-95
372.20 4.057883e-95
372.30 4.057883e-95
372.40 4.057883e-95
372.50 4.057883e-95
372.60 4.057883e-95
372.70 4.057883e-95
372.80 4.057883e-95
372.90 4.057883e-95
373.00 4.057883e-95
373.10 4.057883e-95
373.20 4.057883e-95
373.30 4.057883e-95
373.40 4.057883e-95
373.50 4.057883e-95
373.60 4.057883e-95
373.70 4.057883e-95
373.80 4.057883e-95
373.90 4.057883e-95
374.00 4.057883e-95
374.10 4.057883e-95
374.20 4.057883e-95
374.30 4.057883e-95
374.40 4.057883e-95
374.50 4.057883e-95
374.60 4.057883e-95
374.70 4.057883e-95
374.80 4.057883e-95
374.90 4.057883e-95
375.00 4.057883e-95
375.10 4.057883e-95
375.20 4.057883e-95
375.30 4.057883e-95
375.40 4.057883e-95
375.50 4.057883e-95
375.60 4.057883e-95
375.70 4.057883e-95
375.80 4.057883e-95
375.90 4.057883e-95
376.00 4.057883e-95
376.10 4.057883e-95
376.20 4.057883e-95
376.30 4.057883e-95
376.40 4.057883e-95
376.50 4.057883e-95
376.60 4.057883e-95
376.70 4.057883e-95
376.80 4.057883e-95
376.90 4.057883e-95
377.00 4.057883e-95
377.10 4.057883e-95
377.20 4.057883e-95
377.30 4.057883e-95
377.40 4.057883e-95
377.50 4.057883e-95
377.60 4.057883e-95
377.70 4.057883e-95
377.80 4.057883e-95
377.90 4.057883e-95
378.00 4.057883e-95
378.10 4.057883e-95
378.20 4.057883e-95
378.30 4.057883e-95
378.40 4.057883e-95
378.50 4.057883e-95
378.60 4.057883e-95
378.70 4.057883e-95
378.80 4.057883e-95
378.90 4.057883e-95
379.00 4.057883e-95
379.10 4.057883e-95
379.20 4.057883e-95
379.30 4.057883e-95
379.40 4.057883e-95
379.50 4.057883e-95
379.60 4.057883e-95
379.70 4.057883e-95
379.80 4.057883e-95
379.90 4.057883e-95
380.00 4.057883e-95
380.10 4.057883e-95
380.20 4.057883e-95
380.30 4.057883e-95
380.40 4.057883e-95
380.50 4.057883e-95
380.60 4.057883e-95
380.70 4.057883e-95
380.80 4.057883e-95
380.90 4.057883e-95
381.00 4.057883e-95
381.10 4.057883e-95
381.20 4.057883e-95
381.30 4.057883e-95
381.40 4.057883e-95
381.50 4.057883e-95
381.60 4.057883e-95
381.70 4.057883e-95
381.80 4.057883e-95
381.90 4.057883e-95
382.00 4.057883e-95
382.10 4.057883e-95
382.20 4.057883e-95
382.30 4.057883e-95
382.40 4.057883e-95
382.50 4.057883e-95
382.60 4.057883e-95
382.70 4.057883e-95
382.80 4.057883e-95
382.90 4.057883e-95
383.00 4.057883e-95
383.10 4.057883e-95
383.20 4.057883e-95
383.30 4.057883e-95
383.40 4.057883e-95
383.50 4.057883e-95
383.60 4.057883e-95
383.70 4.057883e-95
383.80 4.057883e-95
383.90 4.057883e-95
384.00 4.057883e-95
384.10 4.057883e-95
384.20 4.057883e-95
384.30 4.057883e-95
384.40 4.057883e-95
384.50 4.057883e-95
384.60 4.057883e-95
384.70 4.057883e-95
384.80 4.057883e-95
384.90 4.057883e-95
385.00 4.057883e-95
385.10 4.057883e-95
385.20 4.057883e-95
385.30 4.057883e-95
385.40 4.057883e-95
385.50 4.057883e-95
385.60 4.057883e-95
385.70 4.057883e-95
385.80 4.057883e-95
385.90 4.057883e-95
386.00 4.057883e-95
386.10 4.057883e-95
386.20 4.057883e-95
386.30 4.057883e-95
386.40 4.057883e-95
386.50 4.057883e-95
386.60 4.057883e-95
386.70 4.057883e-95
386.80 4.057883e-95
386.90 4.057883e-95
387.00 4.057883e-95
387.10 4.057883e-95
387.20 4.057883e-95
387.30 4.057883e-95
387.40 4.057883e-95
387.50 4.057883e-95
387.60 4.057883e-95
387.70 4.057883e-95
387.80 4.057883e-95
387.90 4.057883e-95
388.00 4.057883e-95
388.10 4.057883e-95
388.20 4.057883e-95
388.30 4.057883e-95
388.40 4.057883e-95
388.50 4.057883e-95
388.60 4.057883e-95
388.70 4.057883e-95
388.80 4.057883e-95
388.90 4.057883e-95
389.00 4.057883e-95
389.10 4.057883e-95
389.20 4.057883e-95
389.30 4.057883e-95
389.40 4.057883e-95
389.50 4.057883e-95
389.60 4.057883e-95
389.70 4.057883e-95
389.80 4.057883e-95
389.90 4.057883e-95
390.00 4.057883e-95
390.10 4.057883e-95
390.20 4.057883e-95
390.30 4.057883e-95
390.40 4.057883e-95
390.50 4.057883e-95
390.60 4.057883e-95
390.70 4.057883e-95
390.80 4.057883e-95
390.90 4.057883e-95
391.00 4.057883e-95
391.10 4.057883e-95
391.20 4.057883e-95
391.30 4.057883e-95
391.40 4.057883e-95
391.50 4.057883e-95
391.60 4.057883e-95
391.70 4.057883e-95
391.80 4.057883e-95
391.90 4.057883e-95
392.00 4.057883e-95
392.10 4.057883e-95
392.20 4.057883e-95
392.30 4.057883e-95
392.40 4.057883e-95
392.50 4.057883e-95
392.60 4.057883e-95
392.70 4.057883e-95
392.80 4.057883e-95
392.90 4.057883e-95
393.00 4.057883e-95
393.10 4.057883e-95
393.20 4.057883e-95
393.30 4.057883e-95
393.40 4.057883e-95
393.50 4.057883e-95
393.60 4.057883e-95
393.70 4.057883e-95
393.80 4.057883e-95
393.90 4.057883e-95
394.00 4.057883e-95
394.10 4.057883e-95
394.20 4.057883e-95
394.30 4.057883e-95
394.40 4.057883e-95
394.50 4.057883e-95
394.60 4.057883e-95
394.70 4.057883e-95
394.80 4.057883e-95
394.90 4.057883e-95
395.00 0.007401353
395.10 0.007401353
395.20 0.007401353
395.30 0.007401353
395.40 0.007401353
395.50 0.007401353
395.60 0.007401353
395.70 0.007401353
395.80 0.007401353
395.90 0.007401353
396.00 0.007401353
396.10 0.04308338
396.20 0.1081411
396.30 0.184383
396.40 0.2542754
396.50 0.3083341
396.60 0.3436859
396.70 0.3618807
396.80 0.3645485
396.90 0.3645485
397.00 0.3645485
397.10 0.3645485
397.20 0.3645485
397.30 0.3645485
397.40 0.3645485
397.50 0.3645485
397.60 0.3645485
397.70 0.3839928
397.80 0.4614196
397.90 0.607646
398.00 0.8200877
398.10 1.082546
398.20 1.37263
398.30 1.666257
398.40 1.938216
398.50 2.167676
398.60 2.342742
398.70 2.467299
398.80 2.55926
398.90 2.638385
399.00 2.722357
399.10 2.822114
399.20 2.93572
399.30 3.053074
399.40 3.165496
399.50 3.273558
399.60 3.383417
399.70 3.499781
399.80 3.624826
399.90 3.762019
400.00 3.916775
400.10 4.086922
400.20 4.262013
400.30 4.429729
400.40 4.57895
400.50 4.703233
400.60 4.802043
400.70 4.881276
400.80 4.947621
400.90 4.996946
401.00 5.019677
401.10 5.019677
401.20 5.019677
401.30 5.019677
401.40 5.019677
401.50 5.019677
401.60 5.019677
401.70 5.019677
401.80 5.019677
401.90 5.019677
402.00 5.019677
402.10 5.019677
402.20 5.019677
402.30 5.019677
402.40 5.019677
402.50 5.019677
402.60 5.022778
402.70 5.091247
402.80 5.22274
402.90 5.403012
403.00 5.604376
403.10 5.792661
403.20 5.94102
403.30 6.032793
403.40 6.061582
403.50 6.061582
403.60 6.061582
403.70 6.061582
403.80 6.061582
403.90 6.061582
404.00 6.061582
404.10 6.061582
404.20 6.061582
404.30 6.061582
404.40 6.061582
404.50 6.061582
404.60 6.061582
404.70 6.061582
404.80 6.061582
404.90 6.061582
405.00 6.05418
405.10 6.05418
405.20 6.05418
405.30 6.05418
405.40 6.05418
405.50 6.05418
405.60 6.05418
405.70 6.05418
405.80 6.05418
405.90 6.05418
406.00 6.061646
406.10 6.053676
406.20 6.038789
406.30 6.034082
406.40 6.052524
406.50 6.095678
406.60 6.156568
406.70 6.224185
406.80 6.29233
406.90 6.350919
407.00 6.404257
407.10 6.460328
407.20 6.526615
407.30 6.604221
407.40 6.687512
407.50 6.769512
407.60 6.843306
407.70 6.883793
407.80 6.849495
407.90 6.730589
408.00 6.5334
408.10 6.279356
408.20 5.994476
408.30 5.702106
408.40 5.430146
408.50 5.200686
408.60 5.025621
408.70 4.901064
408.80 4.814894
408.90 4.748609
409.00 4.683838
409.10 4.608254
409.20 4.522094
409.30 4.427311
409.40 4.319766
409.50 4.211704
409.60 4.101845
409.70 3.985481
409.80 3.860436
409.90 3.723243
410.00 3.568487
410.10 3.39834
410.20 3.246366
410.30 3.136641
410.40 3.076392
410.50 3.061617
410.60 3.078051
410.70 3.10923
410.80 3.144933
410.90 3.185162
411.00 3.234261
411.10 3.286165
411.20 3.319992
411.30 3.33804
411.40 3.342847
411.50 3.342847
411.60 3.342847
411.70 3.342847
411.80 3.342847
411.90 3.342847
412.00 3.342847
412.10 3.342847
412.20 3.342847
412.30 3.342847
412.40 3.342847
412.50 3.342847
412.60 3.339746
412.70 3.271276
412.80 3.139784
412.90 2.959511
413.00 2.758148
413.10 2.575224
413.20 2.439151
413.30 2.367552
413.40 2.366097
413.50 2.399132
413.60 2.435591
413.70 2.472434
413.80 2.506331
413.90 2.534677
414.00 2.556344
414.10 2.571319
414.20 2.580731
414.30 2.58792
414.40 2.597439
414.50 2.612531
414.60 2.633054
414.70 2.656469
414.80 2.680417
414.90 2.703171
415.00 2.723204
415.10 2.739306
415.20 2.751181
415.30 2.758947
415.40 2.76577
415.50 2.777637
415.60 2.799124
415.70 2.831855
415.80 2.874977
415.90 2.925927
416.00 2.972287
416.10 2.995313
416.20 2.98723
416.30 2.944563
416.40 2.872783
416.50 2.785865
416.60 2.700572
416.70 2.633153
416.80 2.590551
416.90 2.567627
417.00 2.554313
417.10 2.538536
417.20 2.509308
417.30 2.464173
417.40 2.409435
417.50 2.353935
417.60 2.30323
417.70 2.25897
417.80 2.218866
417.90 2.191546
418.00 2.176294
418.10 2.167879
418.20 2.162675
418.30 2.161418
418.40 2.161418
418.50 2.161418
418.60 2.182009
418.70 2.23126
418.80 2.294857
418.90 2.35959
419.00 2.416518
419.10 2.461314
419.20 2.491799
419.30 2.514918
419.40 2.548502
419.50 2.58964
419.60 2.638824
419.70 2.69342
419.80 2.747724
419.90 2.796528
420.00 2.832207
420.10 2.844155
420.20 2.821038
420.30 2.763047
420.40 2.674076
420.50 2.564568
420.60 2.449323
420.70 2.338912
420.80 2.236864
420.90 2.147309
421.00 2.075479
421.10 2.023576
421.20 1.989749
421.30 1.9717
421.40 1.966894
421.50 1.966894
421.60 1.966894
421.70 1.966894
421.80 1.970028
421.90 1.988918
422.00 2.024559
422.10 2.074633
422.20 2.134403
422.30 2.197516
422.40 2.25669
422.50 2.305462
422.60 2.341826
422.70 2.369267
422.80 2.393842
422.90 2.421623
423.00 2.457176
423.10 2.49551
423.20 2.531796
423.30 2.561045
423.40 2.579911
423.50 2.586724
423.60 2.582137
423.70 2.569774
423.80 2.556149
423.90 2.548492
424.00 2.550373
424.10 2.561127
424.20 2.578332
424.30 2.597867
424.40 2.614685
424.50 2.624845
424.60 2.627374
424.70 2.62354
424.80 2.614878
424.90 2.603019
425.00 2.59231
425.10 2.588501
425.20 2.591973
425.30 2.598116
425.40 2.598981
425.50 2.587114
425.60 2.565627
425.70 2.532896
425.80 2.489774
425.90 2.438824
426.00 2.384998
426.10 2.345543
426.20 2.344219
426.30 2.384846
426.40 2.458161
426.50 2.543523
426.60 2.621328
426.70 2.675518
426.80 2.696839
426.90 2.685492
427.00 2.647206
427.10 2.606911
427.20 2.569853
427.30 2.537382
427.40 2.508829
427.50 2.482329
427.60 2.459239
427.70 2.443568
427.80 2.440543
427.90 2.444886
428.00 2.460157
428.10 2.488563
428.20 2.532186
428.30 2.590275
428.40 2.659766
428.50 2.736051
428.60 2.792658
428.70 2.816071
428.80 2.810954
428.90 2.786087
429.00 2.749679
429.10 2.709114
429.20 2.672519
429.30 2.643857
429.40 2.618709
429.50 2.587354
429.60 2.543952
429.70 2.491193
429.80 2.43689
429.90 2.388085
430.00 2.352406
430.10 2.340458
430.20 2.340458
430.30 2.340458
430.40 2.340458
430.50 2.340458
430.60 2.340458
430.70 2.340458
430.80 2.340458
430.90 2.340458
431.00 2.340458
431.10 2.340458
431.20 2.340458
431.30 2.340458
431.40 2.340458
431.50 2.340458
431.60 2.340458
431.70 2.342646
431.80 2.343625
431.90 2.333498
432.00 2.313876
432.10 2.287126
432.20 2.255961
432.30 2.223482
432.40 2.192961
432.50 2.168531
432.60 2.152321
432.70 2.142022
432.80 2.1332
432.90 2.121725
433.00 2.105025
433.10 2.084113
433.20 2.065734
433.30 2.058167
433.40 2.067053
433.50 2.094673
433.60 2.139252
433.70 2.194997
433.80 2.252249
433.90 2.300643
434.00 2.337637
434.10 2.368749
434.20 2.399512
434.30 2.433679
434.40 2.474274
434.50 2.522511
434.60 2.574419
434.70 2.622478
434.80 2.660475
434.90 2.685376
435.00 2.695556
435.10 2.691585
435.20 2.681206
435.30 2.675629
435.40 2.680144
435.50 2.691213
435.60 2.696196
435.70 2.696196
435.80 2.696196
435.90 2.696196
436.00 2.696196
436.10 2.684915
436.20 2.644151
436.30 2.574656
436.40 2.484786
436.50 2.38913
436.60 2.301799
436.70 2.234136
436.80 2.189348
436.90 2.167316
437.00 2.165579
437.10 2.165579
437.20 2.165579
437.30 2.165579
437.40 2.165579
437.50 2.165579
437.60 2.165579
437.70 2.165579
437.80 2.172083
437.90 2.185159
438.00 2.198255
438.10 2.207134
438.20 2.202986
438.30 2.176161
438.40 2.118479
438.50 2.042195
438.60 1.964997
438.70 1.892332
438.80 1.828062
438.90 1.775355
439.00 1.735635
439.10 1.70723
439.20 1.685895
439.30 1.67502
439.40 1.695539
439.50 1.724725
439.60 1.740904
439.70 1.739066
439.80 1.739066
439.90 1.739066
440.00 1.739066
440.10 1.739066
440.20 1.739066
440.30 1.739066
440.40 1.739066
440.50 1.739066
440.60 1.739066
440.70 1.739066
440.80 1.739066
440.90 1.739066
441.00 1.739066
441.10 1.739066
441.20 1.739066
441.30 1.739066
441.40 1.739066
441.50 1.739066
441.60 1.739066
441.70 1.736879
441.80 1.732766
441.90 1.724002
442.00 1.707983
442.10 1.684659
442.20 1.656055
442.30 1.62542
442.40 1.596767
442.50 1.572425
442.60 1.552272
442.70 1.535129
442.80 1.519377
442.90 1.503995
443.00 1.490687
443.10 1.474404
443.20 1.445157
443.30 1.403301
443.40 1.348215
443.50 1.280746
443.60 1.204296
443.70 1.124071
443.80 1.046547
443.90 0.9774641
444.00 0.9169218
444.10 0.8600814
444.20 0.8027004
444.30 0.7418096
444.40 0.6748778
444.50 0.6013885
444.60 0.526428
444.70 0.4587877
444.80 0.4055058
444.90 0.3697099
445.00 0.3502061
445.10 0.3517846
445.20 0.3625908
445.30 0.3658832
445.40 0.3590707
445.50 0.3493819
445.60 0.3443988
445.70 0.3443988
445.80 0.3443988
445.90 0.3443988
446.00 0.3443988
446.10 0.3446319
446.20 0.3456168
446.30 0.3472764
446.40 0.3497308
446.50 0.3550168
446.60 0.3650158
446.70 0.3798261
446.80 0.4035036
446.90 0.4366976
447.00 0.478602
447.10 0.5276317
447.20 0.5830977
447.30 0.6432736
447.40 0.7076135
447.50 0.7770508
447.60 0.8519188
447.70 0.9316541
447.80 1.008282
447.90 1.073661
448.00 1.122457
448.10 1.152312
448.20 1.167566
448.30 1.178637
448.40 1.196585
448.50 1.213822
448.60 1.221477
448.70 1.224516
448.80 1.227056
448.90 1.22798
449.00 1.22798
449.10 1.22798
449.20 1.22798
449.30 1.221826
449.40 1.187994
449.50 1.149025
449.60 1.127064
449.70 1.127064
449.80 1.127064
449.90 1.127064
450.00 1.127064
450.10 1.138558
450.20 1.182768
450.30 1.257213
450.40 1.365905
450.50 1.506825
450.60 1.67079
450.70 1.846101
450.80 2.018728
450.90 2.175698
451.00 2.304654
451.10 2.3961
451.20 2.448496
451.30 2.46798
451.40 2.46798
451.50 2.46798
451.60 2.46798
451.70 2.46798
451.80 2.46798
451.90 2.46798
452.00 2.46798
452.10 2.46798
452.20 2.46798
452.30 2.46798
452.40 2.46798
452.50 2.46798
452.60 2.471232
452.70 2.495935
452.80 2.533949
452.90 2.575249
453.00 2.607797
453.10 2.630363
453.20 2.648641
453.30 2.658935
453.40 2.662734
453.50 2.663004
453.60 2.663004
453.70 2.663004
453.80 2.663004
453.90 2.663004
454.00 2.663004
454.10 2.663004
454.20 2.663004
454.30 2.665343
454.40 2.688388
454.50 2.731148
454.60 2.789393
454.70 2.856532
454.80 2.924394
454.90 2.985125
455.00 3.033774
455.10 3.058088
455.20 3.061376
455.30 3.056746
455.40 3.052915
455.50 3.051567
455.60 3.051567
455.70 3.051567
455.80 3.051567
455.90 3.051567
456.00 3.051567
456.10 3.051334
456.20 3.050349
456.30 3.048689
456.40 3.046235
456.50 3.040949
456.60 3.029527
456.70 3.009797
456.80 2.981375
456.90 2.945895
457.00 2.903991
457.10 2.854961
457.20 2.799495
457.30 2.739319
457.40 2.674979
457.50 2.605542
457.60 2.530674
457.70 2.450938
457.80 2.367806
457.90 2.285007
458.00 2.207846
458.10 2.140704
458.20 2.085975
458.30 2.043642
458.40 2.013884
458.50 1.996647
458.60 1.988992
458.70 1.985953
458.80 1.983412
458.90 1.982489
459.00 1.982489
459.10 1.982489
459.20 1.982489
459.30 1.982489
459.40 1.982489
459.50 1.982489
459.60 1.982489
459.70 1.982489
459.80 1.982489
459.90 1.982489
460.00 1.982489
460.10 1.970995
460.20 1.926785
460.30 1.85234
460.40 1.743648
460.50 1.610456
460.60 1.478025
460.70 1.34834
460.80 1.223454
460.90 1.104092
461.00 0.991654
461.10 0.9002083
461.20 0.8478119
461.30 0.8283282
461.40 0.8283282
461.50 0.8283282
461.60 0.8283282
461.70 0.8283282
461.80 0.8283282
461.90 0.8283282
462.00 0.8283282
462.10 0.8283282
462.20 0.8283282
462.30 0.8283282
462.40 0.8283282
462.50 0.8283282
462.60 0.8250761
462.70 0.8003727
462.80 0.762359
462.90 0.7201347
463.00 0.7064756
463.10 0.7435092
463.20 0.8322157
463.30 0.9638137
463.40 1.120881
463.50 1.280945
463.60 1.422819
463.70 1.533668
463.80 1.606601
463.90 1.642354
464.00 1.650315
464.10 1.650315
464.20 1.650315
464.30 1.657271
464.40 1.658233
464.50 1.655839
464.60 1.653051
464.70 1.652621
464.80 1.656676
464.90 1.666523
465.00 1.681197
465.10 1.69873
465.20 1.718589
465.30 1.73917
465.40 1.756277
465.50 1.768116
465.60 1.771867
465.70 1.771867
465.80 1.771867
465.90 1.771867
466.00 1.771867
466.10 1.771867
466.20 1.771867
466.30 1.771867
466.40 1.771867
466.50 1.771867
466.60 1.771867
466.70 1.776831
466.80 1.797466
466.90 1.823554
467.00 1.845296
467.10 1.858048
467.20 1.859229
467.30 1.859229
467.40 1.859229
467.50 1.859229
467.60 1.859229
467.70 1.859229
467.80 1.859229
467.90 1.859229
468.00 1.859229
468.10 1.859229
468.20 1.859229
468.30 1.859229
468.40 1.859229
468.50 1.859229
468.60 1.859229
468.70 1.859229
468.80 1.859229
468.90 1.859229
469.00 1.859229
469.10 1.859229
469.20 1.859229
469.30 1.859229
469.40 1.859229
469.50 1.859229
469.60 1.859229
469.70 1.859229
469.80 1.859229
469.90 1.859229
470.00 1.859229
470.10 1.859229
470.20 1.859229
470.30 1.859229
470.40 1.861312
470.50 1.857539
470.60 1.828015
470.70 1.782389
470.80 1.734649
470.90 1.697041
471.00 1.680522
471.10 1.680522
471.20 1.680522
471.30 1.680522
471.40 1.680522
471.50 1.680522
471.60 1.680522
471.70 1.680522
471.80 1.680522
471.90 1.680522
472.00 1.680522
472.10 1.680522
472.20 1.680522
472.30 1.680522
472.40 1.680522
472.50 1.680522
472.60 1.680522
472.70 1.683546
472.80 1.699171
472.90 1.725719
473.00 1.734987
473.10 1.705777
473.20 1.633472
473.30 1.521423
473.40 1.384661
473.50 1.248416
473.60 1.135924
473.70 1.061863
473.80 1.032848
473.90 1.044993
474.00 1.083774
474.10 1.120703
474.20 1.136916
474.30 1.12762
474.40 1.103614
474.50 1.063248
474.60 1.007791
474.70 0.9410819
474.80 0.8691643
474.90 0.7985863
475.00 0.7352635
475.10 0.6835158
475.20 0.6445945
475.30 0.6170191
475.40 0.5983519
475.50 0.5864805
475.60 0.5865609
475.70 0.5988083
475.80 0.6170051
475.90 0.6372697
476.00 0.6557788
476.10 0.6696111
476.20 0.6758653
476.30 0.6758653
476.40 0.6758653
476.50 0.6758653
476.60 0.6758653
476.70 0.6709015
476.80 0.6502671
476.90 0.624179
477.00 0.6024364
477.10 0.5896848
477.20 0.5885032
477.30 0.5885032
477.40 0.5885032
477.50 0.5885032
477.60 0.5885032
477.70 0.5954516
477.80 0.6058756
477.90 0.6165542
478.00 0.6255264
478.10 0.6302322
478.20 0.6302322
478.30 0.6302322
478.40 0.6302322
478.50 0.6302322
478.60 0.6302322
478.70 0.6302322
478.80 0.6302322
478.90 0.6302322
479.00 0.6330296
479.10 0.6386192
479.20 0.6449846
479.30 0.6500167
479.40 0.653214
479.50 0.6563696
479.60 0.6623136
479.70 0.6734801
479.80 0.6910455
479.90 0.7153326
480.00 0.7455835
480.10 0.7787639
480.20 0.8099746
480.30 0.8335364
480.40 0.8430019
480.50 0.8390475
480.60 0.8370371
480.70 0.8370371
480.80 0.8370371
480.90 0.8370371
481.00 0.8660105
481.10 0.9309448
481.20 1.031879
481.30 1.161625
481.40 1.307202
481.50 1.453369
481.60 1.585582
481.70 1.69271
481.80 1.765655
481.90 1.798126
482.00 1.798126
482.10 1.798126
482.20 1.798126
482.30 1.798126
482.40 1.798126
482.50 1.798126
482.60 1.798126
482.70 1.795102
482.80 1.779477
482.90 1.752929
483.00 1.72644
483.10 1.698662
483.20 1.670432
483.30 1.646609
483.40 1.627827
483.50 1.611425
483.60 1.596943
483.70 1.585762
483.80 1.577853
483.90 1.570799
484.00 1.56189
484.10 1.552309
484.20 1.547361
484.30 1.547361
484.40 1.547361
484.50 1.547361
484.60 1.547361
484.70 1.547361
484.80 1.547361
484.90 1.547361
485.00 1.547361
485.10 1.547361
485.20 1.547361
485.30 1.547361
485.40 1.547361
485.50 1.547361
485.60 1.54353
485.70 1.531282
485.80 1.513086
485.90 1.492821
486.00 1.474312
486.10 1.46048
486.20 1.454225
486.30 1.463906
486.40 1.486436
486.50 1.520274
486.60 1.56094
486.70 1.603447
486.80 1.643532
486.90 1.678
487.00 1.705103
487.10 1.723897
487.20 1.734252
487.30 1.736771
487.40 1.736771
487.50 1.736771
487.60 1.736771
487.70 1.729823
487.80 1.719399
487.90 1.708721
488.00 1.699748
488.10 1.695043
488.20 1.695043
488.30 1.695043
488.40 1.695858
488.50 1.699589
488.60 1.704787
488.70 1.710384
488.80 1.712956
488.90 1.712956
489.00 1.710159
489.10 1.704569
489.20 1.698204
489.30 1.693172
489.40 1.689975
489.50 1.686819
489.60 1.680875
489.70 1.669709
489.80 1.661966
489.90 1.660299
490.00 1.660119
490.10 1.657987
490.20 1.654664
490.30 1.654038
490.40 1.659127
490.50 1.669363
490.60 1.673723
490.70 1.673723
490.80 1.673723
490.90 1.673723
491.00 1.644749
491.10 1.579815
491.20 1.489302
491.30 1.39035
491.40 1.299372
491.50 1.228354
491.60 1.183065
491.70 1.164483
491.80 1.171662
491.90 1.20267
492.00 1.245393
492.10 1.267934
492.20 1.275239
492.30 1.275728
492.40 1.279175
492.50 1.290467
492.60 1.308779
492.70 1.331439
492.80 1.354606
492.90 1.376154
493.00 1.388454
493.10 1.394881
493.20 1.396695
493.30 1.392368
493.40 1.387046
493.50 1.379358
493.60 1.364459
493.70 1.338851
493.80 1.302842
493.90 1.261998
494.00 1.224166
494.10 1.196818
494.20 1.185552
494.30 1.185552
494.40 1.185552
494.50 1.185552
494.60 1.185552
494.70 1.185552
494.80 1.185552
494.90 1.185552
495.00 1.187598
495.10 1.191943
495.20 1.197254
495.30 1.204192
495.40 1.213189
495.50 1.224542
495.60 1.238089
495.70 1.253342
495.80 1.269779
495.90 1.286615
496.00 1.303203
496.10 1.319536
496.20 1.335604
496.30 1.340666
496.40 1.32849
496.50 1.296925
496.60 1.256259
496.70 1.213753
496.80 1.173667
496.90 1.139199
497.00 1.112096
497.10 1.093302
497.20 1.082948
497.30 1.080428
497.40 1.080428
497.50 1.080428
497.60 1.080428
497.70 1.080428
497.80 1.080428
497.90 1.080428
498.00 1.080428
498.10 1.080428
498.20 1.080428
498.30 1.080428
498.40 1.079612
498.50 1.075881
498.60 1.070684
498.70 1.065086
498.80 1.062514
498.90 1.062514
499.00 1.062514
499.10 1.062514
499.20 1.062514
499.30 1.062514
499.40 1.062514
499.50 1.062514
499.60 1.062514
499.70 1.062514
499.80 1.052691
499.90 1.030071
500.00 1
500.10 0.9689518
500.20 0.9410643
500.30 0.918128
500.40 0.9014911
500.50 0.891255
500.60 0.8868949
500.70 0.8868949
500.80 0.8868949
500.90 0.8868949
501.00 0.8868949
501.10 0.8883242
501.20 0.8813419
501.30 0.855586
501.40 0.8072743
501.50 0.738966
501.60 0.6587247
501.70 0.5770604
501.80 0.5054819
501.90 0.4536335
502.00 0.4250927
502.10 0.4173651
502.20 0.4242399
502.30 0.4368015
502.40 0.4453818
502.50 0.4457011
502.60 0.4393176
502.70 0.4296464
502.80 0.4210469
502.90 0.4164929
503.00 0.4182095
503.10 0.4288035
503.20 0.4492429
503.30 0.4785604
503.40 0.5110571
503.50 0.5473284
503.60 0.587989
503.70 0.6311261
503.80 0.6734453
503.90 0.7116684
504.00 0.7432041
504.10 0.7674501
504.20 0.7843239
504.30 0.7930622
504.40 0.7930622
504.50 0.7930622
504.60 0.7930622
504.70 0.7930622
504.80 0.7930622
504.90 0.7930622
505.00 0.7910166
505.10 0.7866717
505.20 0.7855469
505.30 0.7882724
505.40 0.7914737
505.50 0.7892077
505.60 0.7769118
505.70 0.7616581
505.80 0.7452215
505.90 0.7283855
506.00 0.7117973
506.10 0.7128492
506.20 0.7375579
506.30 0.7873473
506.40 0.8605566
506.50 0.9524506
506.60 1.046809
506.70 1.13109
506.80 1.198052
506.90 1.245166
507.00 1.27407
507.10 1.28982
507.20 1.298323
507.30 1.302815
507.40 1.304621
507.50 1.305427
507.60 1.306486
507.70 1.308119
507.80 1.309927
507.90 1.309927
508.00 1.309927
508.10 1.309927
508.20 1.309927
508.30 1.309927
508.40 1.309927
508.50 1.309927
508.60 1.309927
508.70 1.309927
508.80 1.309927
508.90 1.309927
509.00 1.309927
509.10 1.309927
509.20 1.309927
509.30 1.309927
509.40 1.309927
509.50 1.309927
509.60 1.309927
509.70 1.309927
509.80 1.309927
509.90 1.309927
510.00 1.309927
510.10 1.309927
510.20 1.309927
510.30 1.309927
510.40 1.309927
510.50 1.309927
510.60 1.309927
510.70 1.309927
510.80 1.309927
510.90 1.309927
511.00 1.309927
511.10 1.308498
511.20 1.305059
511.30 1.300021
511.40 1.293734
511.50 1.286894
511.60 1.280211
511.70 1.273329
511.80 1.264783
511.90 1.253153
512.00 1.23897
512.10 1.224157
512.20 1.209977
512.30 1.196927
512.40 1.184899
512.50 1.173756
512.60 1.162333
512.70 1.149344
512.80 1.134777
512.90 1.117782
513.00 1.096553
513.10 1.070419
513.20 1.040771
513.30 1.009762
513.40 0.9772649
513.50 0.9409936
513.60 0.9083111
513.70 0.8891752
513.80 0.8899504
513.90 0.9133323
514.00 0.9579145
514.10 1.017374
514.20 1.083572
514.30 1.149175
514.40 1.208726
514.50 1.250906
514.60 1.279425
514.70 1.304697
514.80 1.338043
514.90 1.385542
515.00 1.446859
515.10 1.517461
515.20 1.586386
515.30 1.645069
515.40 1.689686
515.50 1.72126
515.60 1.743199
515.70 1.751022
515.80 1.751022
515.90 1.751022
516.00 1.751022
516.10 1.735385
516.20 1.701135
516.30 1.646827
516.40 1.576155
516.50 1.496726
516.60 1.417807
516.70 1.348686
516.80 1.296208
516.90 1.262664
517.00 1.246302
517.10 1.242691
517.20 1.247156
517.30 1.256883
517.40 1.268372
517.50 1.276431
517.60 1.276487
517.70 1.274854
517.80 1.273046
517.90 1.273046
518.00 1.273046
518.10 1.273046
518.20 1.273046
518.30 1.273046
518.40 1.273046
518.50 1.273046
518.60 1.273046
518.70 1.273046
518.80 1.273046
518.90 1.273046
519.00 1.273046
519.10 1.273468
519.20 1.283365
519.30 1.294373
519.40 1.302129
519.50 1.307278
519.60 1.310162
519.70 1.310689
519.80 1.310689
519.90 1.310689
520.00 1.310689
520.10 1.311928
520.20 1.316167
520.30 1.323468
520.40 1.332958
520.50 1.343274
520.60 1.353299
520.70 1.362379
520.80 1.370024
520.90 1.375686
521.00 1.379798
521.10 1.383866
521.20 1.388998
521.30 1.395574
521.40 1.402956
521.50 1.409633
521.60 1.412915
521.70 1.412915
521.80 1.412915
521.90 1.412915
522.00 1.412915
522.10 1.412915
522.20 1.412915
522.30 1.412915
522.40 1.412915
522.50 1.412447
522.60 1.411942
522.70 1.411942
522.80 1.411942
522.90 1.411942
523.00 1.411942
523.10 1.411942
523.20 1.411942
523.30 1.411942
523.40 1.411942
523.50 1.416863
523.60 1.424111
523.70 1.425302
523.80 1.417146
523.90 1.399161
524.00 1.36985
524.10 1.324688
524.20 1.25937
524.30 1.185029
524.40 1.125478
524.50 1.083298
524.60 1.054778
524.70 1.029506
524.80 0.99616
524.90 0.9486615
525.00 0.8873449
525.10 0.8167429
525.20 0.7436311
525.30 0.6769636
525.40 0.620149
525.50 0.5794882
525.60 0.5562982
525.70 0.5484748
525.80 0.5484748
525.90 0.5484748
526.00 0.5484748
526.10 0.546728
526.20 0.5401998
526.30 0.5299773
526.40 0.5170852
526.50 0.5023469
526.60 0.4869077
526.70 0.4717479
526.80 0.462562
526.90 0.4670047
527.00 0.4844513
527.10 0.5072645
527.20 0.5218558
527.30 0.5175698
527.40 0.504275
527.50 0.4954098
527.60 0.4942944
527.70 0.4942944
527.80 0.4942944
527.90 0.4942944
528.00 0.4942944
528.10 0.4942944
528.20 0.4942944
528.30 0.4942944
528.40 0.4942944
528.50 0.4942944
528.60 0.4942944
528.70 0.4942944
528.80 0.4942944
528.90 0.4942944
529.00 0.4949561
529.10 0.4987809
529.20 0.4971074
529.30 0.4978412
529.40 0.5044525
529.50 0.515287
529.60 0.5287611
529.70 0.5434807
529.80 0.5561859
529.90 0.5654265
530.00 0.5718114
530.10 0.5760437
530.20 0.5781487
530.30 0.5765109
530.40 0.5681924
530.50 0.5578762
530.60 0.5478517
530.70 0.5387711
530.80 0.5311269
530.90 0.5254648
531.00 0.5213525
531.10 0.5172841
531.20 0.5121522
531.30 0.5055762
531.40 0.4997671
531.50 0.4949489
531.60 0.4916669
531.70 0.4916669
531.80 0.4916669
531.90 0.4931795
532.00 0.4974392
532.10 0.5040089
532.20 0.5105873
532.30 0.5134384
532.40 0.5134384
532.50 0.5134384
532.60 0.5134384
532.70 0.5134384
532.80 0.5134384
532.90 0.5134384
533.00 0.5134384
533.10 0.51619
533.20 0.5232021
533.30 0.5295341
533.40 0.5306049
533.50 0.5256845
533.60 0.5104574
533.70 0.4852661
533.80 0.4503275
533.90 0.406707
534.00 0.3599006
534.10 0.3213569
534.20 0.3036034
534.30 0.3036034
534.40 0.3036034
534.50 0.3036034
534.60 0.3036034
534.70 0.3036034
534.80 0.3036034
534.90 0.3036034
535.00 0.3036034
535.10 0.3036034
535.20 0.3036034
535.30 0.3019239
535.40 0.3019239
535.50 0.3019239
535.60 0.3019239
535.70 0.3019239
535.80 0.3019239
535.90 0.3019239
536.00 0.3019239
536.10 0.3019239
536.20 0.3019239
536.30 0.3019239
536.40 0.3019239
536.50 0.3019239
536.60 0.3019239
536.70 0.3019239
536.80 0.2966257
536.90 0.278613
537.00 0.2486242
537.10 0.2136717
537.20 0.1872645
537.30 0.179584
537.40 0.179584
537.50 0.179584
537.60 0.179584
537.70 0.179584
537.80 0.179584
537.90 0.179584
538.00 0.179584
538.10 0.179584
538.20 0.179584
538.30 0.179584
538.40 0.184458
538.50 0.1980581
538.60 0.2154688
538.70 0.2318371
538.80 0.2439534
538.90 0.2512124
539.00 0.2532194
539.10 0.2489726
539.20 0.2407488
539.30 0.2290075
539.40 0.2146398
539.50 0.1986564
539.60 0.1822988
539.70 0.1670516
539.80 0.1543464
539.90 0.1451058
540.00 0.1387209
540.10 0.13325
540.20 0.1269058
540.30 0.1229491
540.40 0.1281142
540.50 0.137517
540.60 0.1477174
540.70 0.1555432
540.80 0.157598
540.90 0.157598
541.00 0.157598
541.10 0.157598
541.20 0.157598
541.30 0.157598
541.40 0.1560257
541.50 0.1541665
541.60 0.1541665
541.70 0.1541665
541.80 0.1541665
541.90 0.152654
542.00 0.1483942
542.10 0.142341
542.20 0.1357626
542.30 0.1329114
542.40 0.1329114
542.50 0.1329114
542.60 0.1329114
542.70 0.1329114
542.80 0.1329114
542.90 0.1329114
543.00 0.1329114
543.10 0.1301599
543.20 0.1231478
543.30 0.1168158
543.40 0.115745
543.50 0.115745
543.60 0.115745
543.70 0.115745
543.80 0.115745
543.90 0.115745
544.00 0.115745
544.10 0.115745
544.20 0.115745
544.30 0.115745
544.40 0.1157892
544.50 0.1245547
544.60 0.14554
544.70 0.1799331
544.80 0.2264388
544.90 0.2812775
545.00 0.3384299
545.10 0.3906558
545.20 0.4312424
545.30 0.4559802
545.40 0.4645284
545.50 0.4645284
545.60 0.4645284
545.70 0.4645284
545.80 0.4645284
545.90 0.4645284
546.00 0.4645284
546.10 0.4645284
546.20 0.4645284
546.30 0.4645284
546.40 0.4645284
546.50 0.4645284
546.60 0.4645284
546.70 0.4645284
546.80 0.4645284
546.90 0.4645284
547.00 0.4645284
547.10 0.4645284
547.20 0.4712256
547.30 0.4782627
547.40 0.4800492
547.50 0.4800492
547.60 0.4800492
547.70 0.4800492
547.80 0.4800492
547.90 0.4800492
548.00 0.4800492
548.10 0.4800492
548.20 0.4800492
548.30 0.4800492
548.40 0.4751752
548.50 0.4615751
548.60 0.4441643
548.70 0.427796
548.80 0.4156797
548.90 0.4084208
549.00 0.4057521
549.10 0.4057521
549.20 0.4057521
549.30 0.4057521
549.40 0.4057521
549.50 0.4057521
549.60 0.4057521
549.70 0.4057521
549.80 0.4057521
549.90 0.4057521
550.00 0.8719585
550.10 0.8719585
550.20 0.8915816
550.30 0.9148051
550.40 0.9192712
550.50 0.9192712
550.60 0.9192712
550.70 0.9192712
550.80 0.9192712
550.90 0.9192712
551.00 0.9192712
551.10 0.9192712
551.20 0.9192712
551.30 0.9192712
551.40 0.9191606
551.50 0.8972469
551.60 0.8447837
551.70 0.7588008
551.80 0.6425366
551.90 0.5054399
552.00 0.3625589
552.10 0.2319942
552.20 0.1305277
552.30 0.06868315
552.40 0.04731275
552.50 0.04731275
552.60 0.04731275
552.70 0.04731275
552.80 0.04731275
552.90 0.04731275
553.00 0.04731275
553.10 0.04731275
553.20 0.04731275
553.30 0.04731275
553.40 0.04731275
553.50 0.04731275
553.60 0.04731275
553.70 0.04731275
553.80 0.04731275
553.90 0.04731275
554.00 0.04731275
554.10 0.04951582
554.20 0.03601366
554.30 0.01676535
554.40 0.01229924
554.50 0.01229924
554.60 0.01229924
554.70 0.01229924
554.80 0.01229924
554.90 0.01229924
555.00 0.02878177
555.10 0.06356151
555.20 0.1135719
555.30 0.1415768
555.40 0.1415768
555.50 0.1415768
555.60 0.1415768
555.70 0.1415768
555.80 0.1415768
555.90 0.1415768
556.00 0.1415768
556.10 0.1415768
556.20 0.1415768
556.30 0.1415768
556.40 0.1415768
556.50 0.1704264
556.60 0.2457482
556.70 0.3261537
556.80 0.4076814
556.90 0.4915804
557.00 0.5767342
557.10 0.6613027
557.20 0.7425561
557.30 0.8186915
557.40 0.889107
557.50 0.9536892
557.60 1.01227
557.70 1.067544
557.80 1.1265
557.90 1.196335
558.00 1.281907
558.10 1.382544
558.20 1.493122
558.30 1.612119
558.40 1.732588
558.50 1.841854
558.60 1.931382
558.70 1.993653
558.80 2.02583
558.90 2.031213
559.00 2.01473
559.10 1.97995
559.20 1.92994
559.30 1.901935
559.40 1.901935
559.50 1.901935
559.60 1.901935
559.70 1.901935
559.80 1.901935
559.90 1.901935
560.00 1.905854
560.10 1.95831
560.20 2.063873
560.30 2.215832
560.40 2.402044
560.50 2.579418
560.60 2.712866
560.70 2.823437
560.80 2.895663
560.90 2.915037
561.00 2.878906
561.10 2.796863
561.20 2.71561
561.30 2.639474
561.40 2.569059
561.50 2.504477
561.60 2.445896
561.70 2.390622
561.80 2.331666
561.90 2.261831
562.00 2.176259
562.10 2.085327
562.20 2.054557
562.30 2.093527
562.40 2.197596
562.50 2.346504
562.60 2.510722
562.70 2.661963
562.80 2.777639
562.90 2.845526
563.00 2.852956
563.10 2.852956
563.20 2.852956
563.30 2.852956
563.40 2.852956
563.50 2.863826
563.60 2.890755
563.70 2.928816
563.80 2.97224
563.90 3.020872
564.00 3.076072
564.10 3.097787
564.20 3.082379
564.30 3.032304
564.40 2.95171
564.50 2.844852
564.60 2.717247
564.70 2.570967
564.80 2.417213
564.90 2.31394
565.00 2.264917
565.10 2.262391
565.20 2.262391
565.30 2.262391
565.40 2.262391
565.50 2.262391
565.60 2.262391
565.70 2.262391
565.80 2.262391
565.90 2.262391
566.00 2.277109
566.10 2.295054
566.20 2.247609
566.30 2.121365
566.40 1.916451
566.50 1.658276
566.60 1.40453
566.70 1.191019
566.80 1.043165
566.90 0.9698953
567.00 0.9624655
567.10 0.9726589
567.20 1.013876
567.30 1.080432
567.40 1.160515
567.50 1.227506
567.60 1.261966
567.70 1.262233
567.80 1.235605
567.90 1.186973
568.00 1.127854
568.10 1.053682
568.20 0.9635287
568.30 0.8616441
568.40 0.7560254
568.50 0.6566604
568.60 0.575496
568.70 0.5307994
568.80 0.5307994
568.90 0.5365082
569.00 0.5504344
569.10 0.5699484
569.20 0.5861451
569.30 0.5861451
569.40 0.5861451
569.50 0.5861451
569.60 0.5861451
569.70 0.5861451
569.80 0.5861451
569.90 0.5861451
570.00 0.5714279
570.10 0.5415747
570.20 0.5030898
570.30 0.474215
570.40 0.4597845
570.50 0.4597845
570.60 0.4597845
570.70 0.4597845
570.80 0.4597845
570.90 0.4597845
571.00 0.4597845
571.10 0.4580403
571.20 0.4367282
571.30 0.3988035
571.40 0.3522192
571.50 0.3097738
571.60 0.2832857
571.70 0.2759141
571.80 0.2828331
571.90 0.2943424
572.00 0.2943424
572.10 0.2943424
572.20 0.2943424
572.30 0.2943424
572.40 0.2943424
572.50 0.2943424
572.60 0.2943424
572.70 0.2943424
572.80 0.2943424
572.90 0.2886336
573.00 0.2747074
573.10 0.2551934
573.20 0.2389967
573.30 0.2389967
573.40 0.2389967
573.50 0.2389967
573.60 0.2389967
573.70 0.2389967
573.80 0.2389967
573.90 0.2389967
574.00 0.2610118
574.10 0.2961685
574.20 0.3343416
574.30 0.3672778
574.40 0.4040125
574.50 0.446856
574.60 0.4882705
574.70 0.525028
574.80 0.5526734
574.90 0.5662217
575.00 0.5662217
575.10 0.5577725
575.20 0.5378674
575.30 0.5092358
575.40 0.4757378
575.50 0.4403229
575.60 0.4054213
575.70 0.3961666
575.80 0.4243243
575.90 0.4906405
576.00 0.5856445
576.10 0.6856816
576.20 0.7777443
576.30 0.8517639
576.40 0.9021626
576.50 0.9257038
576.60 0.9257038
576.70 0.9257038
576.80 0.9257038
576.90 0.9257038
577.00 0.9257038
577.10 0.9257038
577.20 0.9257038
577.30 0.9257038
577.40 0.9257038
577.50 0.9257038
577.60 0.9293646
577.70 0.9531078
577.80 0.989835
577.90 1.034269
578.00 1.060655
578.10 1.072992
578.20 1.078005
578.30 1.077052
578.40 1.071359
578.50 1.06393
578.60 1.058007
578.70 1.05357
578.80 1.041296
578.90 1.027748
579.00 1.027748
579.10 1.027748
579.20 1.027748
579.30 1.027748
579.40 1.027748
579.50 1.027748
579.60 1.027748
579.70 1.006047
579.80 0.9541739
579.90 0.8763484
580.00 0.7813444
580.10 0.6813073
580.20 0.5892446
580.30 0.5152251
580.40 0.4648263
580.50 0.4412851
580.60 0.4412851
580.70 0.4412851
580.80 0.4412851
580.90 0.4412851
581.00 0.4412851
581.10 0.4412851
581.20 0.4513403
581.30 0.4650722
581.40 0.4736824
581.50 0.4736824
581.60 0.4700217
581.70 0.4462785
581.80 0.4095512
581.90 0.3651171
582.00 0.3167161
582.10 0.2692222
582.20 0.2260364
582.30 0.2037174
582.40 0.2030409
582.50 0.2098486
582.60 0.2093406
582.70 0.1878541
582.80 0.1724827
582.90 0.1724827
583.00 0.1724827
583.10 0.1724827
583.20 0.1724827
583.30 0.1724827
583.40 0.1724827
583.50 0.1724827
583.60 0.1724827
583.70 0.1724827
583.80 0.1724827
583.90 0.1724827
584.00 0.1806252
584.10 0.2180018
584.20 0.2790464
584.30 0.3615572
584.40 0.4631555
584.50 0.5841791
584.60 0.7241701
584.70 0.8744886
584.80 1.020901
584.90 1.149771
585.00 1.249843
585.10 1.313962
585.20 1.332383
585.30 1.318651
585.40 1.310041
585.50 1.310041
585.60 1.310041
585.70 1.310041
585.80 1.310041
585.90 1.325704
586.00 1.39574
586.10 1.534168
586.20 1.744345
586.30 1.99612
586.40 2.255162
586.50 2.491164
586.60 2.676515
586.70 2.79563
586.80 2.81703
586.90 2.81703
587.00 2.81703
587.10 2.81703
587.20 2.81703
587.30 2.81703
587.40 2.81703
587.50 2.81703
587.60 2.81703
587.70 2.81703
587.80 2.81703
587.90 2.81703
588.00 2.808887
588.10 2.771511
588.20 2.710466
588.30 2.682596
588.40 2.756543
588.50 2.884474
588.60 3.024293
588.70 3.135724
588.80 3.170203
588.90 3.082875
589.00 2.982802
589.10 2.918684
589.20 2.890207
589.30 2.890207
589.40 2.890207
589.50 2.890207
589.60 2.890207
589.70 2.890207
589.80 2.890207
589.90 2.874545
590.00 2.804509
590.10 2.666081
590.20 2.464606
590.30 2.223646
590.40 1.979934
590.50 1.767345
590.60 1.607474
590.70 1.516679
590.80 1.498479
590.90 1.498479
591.00 1.498479
591.10 1.498479
591.20 1.498479
591.30 1.498479
591.40 1.498479
591.50 1.498479
591.60 1.498479
591.70 1.498479
591.80 1.498479
591.90 1.557978
592.00 1.679723
592.10 1.810803
592.20 1.90181
592.30 1.867226
592.40 1.691681
592.50 1.442726
592.60 1.162917
592.70 0.9011663
592.80 0.7202759
592.90 0.6787336
593.00 0.6787336
593.10 0.6787336
593.20 0.6787336
593.30 0.6787336
593.40 0.6787336
593.50 0.6787336
593.60 0.6787336
593.70 0.6787336
593.80 0.6787336
593.90 0.6931387
594.00 0.7283193
594.10 0.7653247
594.20 0.7689162
594.30 0.7416127
594.40 0.6907249
594.50 0.6250897
594.60 0.5646264
594.70 0.5254717
594.80 0.5222725
594.90 0.5222725
595.00 0.5222725
595.10 0.5222725
595.20 0.5222725
595.30 0.5222725
595.40 0.5222725
595.50 0.5222725
595.60 0.5222725
595.70 0.5222725
595.80 0.5476772
595.90 0.5138019
596.00 0.392057
596.10 0.2609768
596.20 0.1699696
596.30 0.1499126
596.40 0.1499126
596.50 0.1499126
596.60 0.1499126
596.70 0.1499126
596.80 0.1499126
596.90 0.1499126
597.00 0.1499126
597.10 0.1499126
597.20 0.1499126
597.30 0.1499126
597.40 0.1499126
597.50 0.1499126
597.60 0.1499126
597.70 0.1499126
597.80 0.1499126
597.90 0.1355075
598.00 0.1003269
598.10 0.06332146
598.20 0.05102793
598.30 0.05102793
598.40 0.05102793
598.50 0.05102793
598.60 0.05102793
598.70 0.05102793
598.80 0.06641754
598.90 0.09257815
599.00 0.1088319
599.10 0.1088319
599.20 0.1088319
599.30 0.1088319
599.40 0.1088319
599.50 0.1088319
599.60 0.1088319
599.70 0.1088319
599.80 0.09922758
599.90 0.1372316
600.00 0
600.10 0
600.20 0
600.30 0
600.40 0
600.50 0
600.60 0
600.70 0
600.80 0.6155846
600.90 1.046424
601.00 0.6501505
601.10 0
601.20 0
601.30 0
601.40 0
601.50 0
601.60 0
601.70 0
601.80 0.6320148
601.90 2.545091
602.00 3.765461
602.10 3.697134
602.20 1.756083
602.30 0
602.40 0
602.50 0
602.60 0
602.70 0
602.80 0
602.90 0
603.00 0
603.10 0
603.20 0
603.30 0
603.40 0
603.50 0
603.60 0
603.70 0
603.80 0
603.90 0.2146864
604.00 1.022243
604.10 1.744056
604.20 2.164297
604.30 1.992849
604.40 1.191624
604.50 0
604.60 0
604.70 0
604.80 0
604.90 0
605.00 0
605.10 0
605.20 0
605.30 0
605.40 0
605.50 0
605.60 0
605.70 0
605.80 0
605.90 0
606.00 0.1490765
606.10 3.465088
606.20 5.784545
606.30 7.270984
606.40 7.91331
606.50 7.616701
606.60 6.820897
606.70 6.225833
606.80 6.10164
606.90 6.355545
607.00 6.835909
607.10 7.38804
607.20 7.768577
607.30 7.773149
607.40 7.395125
607.50 6.427062
607.60 4.566844
607.70 1.894562
607.80 0
607.90 0
608.00 0
608.10 0
608.20 0
608.30 0
608.40 0
608.50 0
608.60 0
608.70 0
608.80 0
608.90 0
609.00 0
609.10 0
609.20 0
609.30 0
609.40 0
609.50 0
609.60 0
609.70 0
609.80 0
609.90 0
610.00 0
610.10 0
610.20 0
610.30 0
610.40 0
610.50 0
610.60 0
610.70 0
610.80 0
610.90 0
611.00 0
611.10 0
611.20 0
611.30 0
611.40 0
611.50 0
611.60 0
611.70 0
611.80 0
611.90 0
612.00 0
612.10 0.1501478
612.20 1.117333
612.30 1.49041
612.40 1.357723
612.50 0.7402494
612.60 0
612.70 0
612.80 0
612.90 0
613.00 0
613.10 0
613.20 0
613.30 0
613.40 0.2684848
613.50 2.416235
613.60 4.228418
613.70 5.400293
613.80 5.872657
613.90 5.784957
614.00 5.320038
614.10 4.620944
614.20 3.8749
614.30 3.281768
614.40 2.816038
614.50 2.198922
614.60 1.110522
614.70 0
614.80 0
614.90 0
615.00 0
615.10 0
615.20 0
615.30 0
615.40 0
615.50 0
615.60 0.8997462
615.70 2.243073
615.80 2.447279
615.90 1.662404
616.00 0.4909017
616.10 0
616.20 0
616.30 0
616.40 0.5808519
616.50 1.211543
616.60 1.426533
616.70 1.543867
616.80 1.775135
616.90 1.88975
617.00 1.713989
617.10 1.250824
617.20 0.6195822
617.30 0
617.40 0
617.50 0
617.60 0
617.70 0
617.80 0.3185935
617.90 1.158546
618.00 1.835531
618.10 2.336563
618.20 2.940013
618.30 3.722561
618.40 4.436128
618.50 4.889277
618.60 5.104684
618.70 5.063637
618.80 4.63136
618.90 3.745435
619.00 2.526857
619.10 1.222922
619.20 0.1444725
619.30 0
619.40 0
619.50 0
619.60 0.1212686
619.70 0.2719073
619.80 0.1933494
619.90 0
620.00 0
620.10 0
620.20 0
620.30 0
620.40 0
620.50 0
620.60 0
620.70 0
620.80 0
620.90 0.9289063
621.00 3.751634
621.10 4.769239
621.20 3.909711
621.30 1.732481
621.40 0
621.50 0
621.60 0
621.70 0
621.80 0
621.90 0
622.00 0
622.10 0
622.20 0
622.30 0
622.40 0
622.50 0
622.60 0
622.70 1.550888
622.80 2.778917
622.90 3.336409
623.00 3.505079
623.10 3.677667
623.20 3.97015
623.30 4.33239
623.40 4.993083
623.50 6.17081
623.60 7.62747
623.70 8.984864
623.80 9.89022
623.90 10.06926
624.00 9.415246
624.10 8.186572
624.20 6.800834
624.30 5.565244
624.40 4.615001
624.50 4.161074
624.60 4.391015
624.70 5.238758
624.80 6.146473
624.90 6.44375
625.00 6.014011
625.10 5.005032
625.20 3.664152
625.30 2.243992
625.40 0.8488174
625.50 0
625.60 0
625.70 0
625.80 0
625.90 0
626.00 0
626.10 0
626.20 0.5224816
626.30 2.358503
626.40 4.259431
626.50 5.885254
626.60 6.907679
626.70 7.130834
626.80 6.711449
626.90 5.843432
627.00 4.450113
627.10 2.41288
627.20 0
627.30 0
627.40 0
627.50 0
627.60 0
627.70 0
627.80 0
627.90 0
628.00 0.2086191
628.10 2.427933
628.20 3.293455
628.30 2.602272
628.40 0.6167507
628.50 0
628.60 0
628.70 0
628.80 0
628.90 0
629.00 0
629.10 0
629.20 0
629.30 0.3523629
629.40 3.375395
629.50 4.904767
629.60 3.394174
629.70 0
629.80 0
629.90 0
630.00 0
630.10 0
630.20 0
630.30 0
630.40 0
630.50 0
630.60 0
630.70 6.815962
630.80 11.55749
630.90 12.42278
631.00 10.70739
631.10 8.197889
631.20 6.164512
631.30 5.025849
631.40 4.54128
631.50 4.347491
631.60 4.339425
631.70 4.34485
631.80 4.2287
631.90 4.080284
632.00 4.104644
632.10 4.396776
632.20 4.889873
632.30 5.559465
632.40 6.439533
632.50 7.248123
632.60 7.211479
632.70 5.876814
632.80 3.558604
632.90 0.7714221
633.00 0
633.10 0
633.20 0
633.30 0
633.40 0
633.50 0
633.60 0
633.70 1.943019
633.80 3.857122
633.90 5.448974
634.00 6.671222
634.10 7.382131
634.20 7.557409
634.30 7.18978
634.40 6.400314
634.50 5.4416
634.60 4.549604
634.70 4.123435
634.80 4.674267
634.90 6.235789
635.00 8.303972
635.10 10.16642
635.20 11.27186
635.30 11.42885
635.40 10.79545
635.50 9.621878
635.60 8.216802
635.70 7.045997
635.80 6.358865
635.90 6.176004
636.00 6.201059
636.10 5.724631
636.20 4.331828
636.30 2.263436
636.40 0.02507176
636.50 0
636.60 0
636.70 0
636.80 0
636.90 0
637.00 0
637.10 0
637.20 0
637.30 0
637.40 0
637.50 0
637.60 0
637.70 0
637.80 0
637.90 0.01799999
638.00 1.457756
638.10 2.982398
638.20 4.533816
638.30 5.949136
638.40 6.721488
638.50 6.55987
638.60 5.543103
638.70 4.031926
638.80 2.4559
638.90 1.396551
639.00 1.239962
639.10 1.963219
639.20 3.204896
639.30 4.487111
639.40 5.708718
639.50 6.927359
639.60 8.184942
639.70 9.531347
639.80 10.90182
639.90 12.10695
640.00 12.95839
640.10 13.32762
640.20 13.1673
640.30 12.52318
640.40 11.51029
640.50 10.31603
640.60 9.172095
640.70 8.231071
640.80 7.455129
640.90 6.626923
641.00 5.502414
641.10 4.15419
641.20 2.977996
641.30 2.371026
641.40 2.640767
641.50 3.803911
641.60 5.614133
641.70 7.770764
641.80 9.990091
641.90 11.76698
642.00 12.60379
642.10 12.57291
642.20 11.99192
642.30 11.22978
642.40 10.64011
642.50 10.42377
642.60 10.71312
642.70 11.47845
642.80 12.43382
642.90 13.33361
643.00 14.02857
643.10 14.3225
643.20 14.1036
643.30 13.57479
643.40 12.97817
643.50 12.25582
643.60 11.31778
643.70 10.24956
643.80 9.237425
643.90 8.394137
644.00 7.734144
644.10 7.288711
644.20 7.170956
644.30 7.454128
644.40 8.128459
644.50 9.044544
644.60 9.932008
644.70 10.5989
644.80 11.07138
644.90 11.20294
645.00 10.81233
645.10 10.06524
645.20 9.193846
645.30 8.392977
645.40 7.862136
645.50 7.81483
645.60 8.315263
645.70 9.229693
645.80 10.3294
645.90 11.62592
646.00 13.24018
646.10 14.67694
646.20 15.05903
646.30 14.14992
646.40 12.43711
646.50 10.57387
646.60 9.174197
646.70 8.644261
646.80 9.05323
646.90 10.01787
647.00 10.82071
647.10 11.03734
647.20 10.64316
647.30 9.430093
647.40 7.290526
647.50 4.887303
647.60 3.191841
647.70 2.801365
647.80 3.73061
647.90 5.492588
648.00 7.451569
648.10 9.112523
648.20 10.22071
648.30 10.75282
648.40 11.01075
648.50 11.21314
648.60 11.50133
648.70 12.17416
648.80 13.25096
648.90 14.52648
649.00 15.79129
649.10 16.84006
649.20 17.52138
649.30 17.78328
649.40 17.57453
649.50 16.97467
649.60 16.25847
649.70 15.72616
649.80 15.54484
649.90 15.742
650.00 16.04919
650.10 16.19344
650.20 16.1751
650.30 15.98864
650.40 15.63174
650.50 15.18213
650.60 14.80953
650.70 14.59655
650.80 14.60871
650.90 14.83071
651.00 14.98098
651.10 14.811
651.20 14.34774
651.30 13.73235
651.40 13.1982
651.50 12.96338
651.60 13.14214
651.70 13.8082
651.80 14.83945
651.90 15.99808
652.00 17.02899
652.10 17.71755
652.20 17.95831
652.30 17.71396
652.40 17.1474
652.50 16.47493
652.60 15.80738
652.70 15.13552
652.80 14.34445
652.90 13.20619
653.00 11.48548
653.10 9.104878
653.20 6.417093
653.30 4.050966
653.40 2.462621
653.50 1.904008
653.60 2.416713
653.70 3.868348
653.80 5.865
653.90 7.88381
654.00 9.319336
654.10 9.881984
654.20 9.720541
654.30 9.125465
654.40 8.498572
654.50 8.422508
654.60 9.24875
654.70 10.85298
654.80 13.0218
654.90 15.50494
655.00 17.80746
655.10 19.26472
655.20 19.50349
655.30 18.60137
655.40 16.99025
655.50 15.01202
655.60 12.94079
655.70 11.30824
655.80 10.63528
655.90 10.99023
656.00 12.16112
656.10 13.88288
656.20 15.66342
656.30 17.20483
656.40 18.52938
656.50 19.65802
656.60 20.51365
656.70 20.91379
656.80 20.71211
656.90 19.81815
657.00 18.29525
657.10 16.36294
657.20 14.32236
657.30 12.61105
657.40 11.50949
657.50 11.16787
657.60 11.86622
657.70 13.53948
657.80 15.78168
657.90 18.22195
658.00 20.61468
658.10 22.73364
658.20 24.31179
658.30 25.33073
658.40 25.8353
658.50 25.80012
658.60 25.33014
658.70 24.38915
658.80 22.95252
658.90 21.29079
659.00 19.66711
659.10 18.24952
659.20 17.17442
659.30 16.57642
659.40 16.47668
659.50 16.8333
659.60 17.61984
659.70 18.73752
659.80 20.00844
659.90 21.08717
660.00 21.62149
660.10 21.82156
660.20 22.14611
660.30 22.67437
660.40 23.21499
660.50 23.56008
660.60 23.69827
660.70 23.70734
660.80 23.59497
660.90 23.31153
661.00 22.86126
661.10 22.39411
661.20 22.05104
661.30 21.89669
661.40 21.92893
661.50 21.96326
661.60 21.86461
661.70 21.67218
661.80 21.50576
661.90 21.47448
662.00 21.58738
662.10 21.94404
662.20 22.72112
662.30 24.11682
662.40 26.20238
662.50 28.63451
662.60 30.84458
662.70 32.43908
662.80 33.11997
662.90 32.62813
663.00 30.87864
663.10 28.09419
663.20 24.83473
663.30 21.77372
663.40 19.54043
663.50 18.46569
663.60 18.41418
663.70 18.90785
663.80 19.48253
663.90 19.96516
664.00 20.32122
664.10 20.50763
664.20 20.61972
664.30 20.84071
664.40 21.34004
664.50 22.13124
664.60 23.05859
664.70 23.9668
664.80 24.53525
664.90 24.23666
665.00 22.84961
665.10 20.77661
665.20 18.62112
665.30 16.8388
665.40 15.70438
665.50 15.36347
665.60 15.75824
665.70 16.54837
665.80 17.34523
665.90 17.96657
666.00 18.4038
666.10 18.66207
666.20 18.89607
666.30 19.51479
666.40 20.86237
666.50 22.76538
666.60 24.70634
666.70 26.22944
666.80 27.12676
666.90 27.40167
667.00 27.20164
667.10 26.8499
667.20 26.666
667.30 26.67979
667.40 26.8271
667.50 27.25557
667.60 28.01348
667.70 28.86931
667.80 29.50937
667.90 29.8453
668.00 29.93646
668.10 29.88377
668.20 29.82787
668.30 29.78694
668.40 29.62393
668.50 29.2262
668.60 28.58867
668.70 27.91518
668.80 27.17185
668.90 26.01097
669.00 24.48227
669.10 23.05236
669.20 22.19061
669.30 21.91752
669.40 22.01243
669.50 22.32293
669.60 22.69527
669.70 23.03694
669.80 23.36946
669.90 23.72883
670.00 24.15045
670.10 24.60978
670.20 25.21554
670.30 26.01769
670.40 26.74082
670.50 27.05442
670.60 26.78894
670.70 26.10435
670.80 25.21265
670.90 24.26249
671.00 23.56382
671.10 23.44991
671.20 24.06875
671.30 25.36803
671.40 27.1471
671.50 29.13263
671.60 30.97711
671.70 32.4312
671.80 33.34976
671.90 33.6526
672.00 33.36108
672.10 32.62004
672.20 31.76117
672.30 31.07151
672.40 30.62324
672.50 30.42079
672.60 30.47038
672.70 30.74637
672.80 31.15873
672.90 31.57331
673.00 31.86861
673.10 31.98607
673.20 31.95452
673.30 31.72561
673.40 31.19795
673.50 30.41021
673.60 29.54551
673.70 28.78289
673.80 28.11293
673.90 27.52022
674.00 27.20341
674.10 27.4215
674.20 28.37082
674.30 30.0237
674.40 31.8866
674.50 33.34679
674.60 34.07828
674.70 34.04486
674.80 33.42427
674.90 32.42598
675.00 31.26561
675.10 30.28332
675.20 29.98784
675.30 30.66186
675.40 32.12566
675.50 33.9624
675.60 35.65384
675.70 36.76742
675.80 37.28952
675.90 37.41223
676.00 37.20683
676.10 36.74817
676.20 36.24375
676.30 36.03822
676.40 36.32204
676.50 36.94576
676.60 37.55566
676.70 37.90208
676.80 37.96953
676.90 37.78634
677.00 37.36408
677.10 36.7748
677.20 36.18574
677.30 35.88324
677.40 36.11575
677.50 36.91868
677.60 38.06877
677.70 38.97675
677.80 39.15717
677.90 38.60403
678.00 37.55744
678.10 36.30665
678.20 35.06616
678.30 34.0522
678.40 33.4816
678.50 33.47166
678.60 33.86712
678.70 34.28751
678.80 34.39991
678.90 34.05713
679.00 33.32323
679.10 32.54845
679.20 32.07755
679.30 31.90569
679.40 31.89424
679.50 31.9146
679.60 31.87561
679.70 31.69005
679.80 31.29721
679.90 30.73053
680.00 30.21595
680.10 29.93292
680.20 29.9075
680.30 30.18218
680.40 30.67467
680.50 31.20478
680.60 31.65287
680.70 32.11076
680.80 32.79271
680.90 33.91575
681.00 35.64321
681.10 37.85743
681.20 40.16596
681.30 42.07662
681.40 43.17476
681.50 43.31816
681.60 42.69119
681.70 41.53996
681.80 40.08771
681.90 38.68597
682.00 37.66669
682.10 37.18925
682.20 37.24844
682.30 37.55735
682.40 37.64217
682.50 37.24875
682.60 36.44038
682.70 35.56852
682.80 34.9492
682.90 34.55647
683.00 34.1415
683.10 33.58778
683.20 33.04655
683.30 32.59042
683.40 32.16962
683.50 31.78005
683.60 31.41087
683.70 31.01811
683.80 30.52412
683.90 29.97829
684.00 29.54074
684.10 29.21534
684.20 28.96483
684.30 28.86298
684.40 29.02257
684.50 29.44933
684.60 30.09845
684.70 30.89562
684.80 31.6813
684.90 32.23765
685.00 32.30066
685.10 31.85204
685.20 31.15678
685.30 30.41954
685.40 29.70325
685.50 29.02219
685.60 28.46071
685.70 28.1916
685.80 28.27011
685.90 28.48577
686.00 28.18807
686.10 26.7081
686.20 24.04919
686.30 20.76739
686.40 17.64515
686.50 15.34612
686.60 14.31427
686.70 14.7701
686.80 16.63851
686.90 19.56878
687.00 22.96223
687.10 26.1311
687.20 28.46021
687.30 29.60501
687.40 29.75251
687.50 29.30362
687.60 28.46824
687.70 27.25192
687.80 25.7179
687.90 24.18713
688.00 22.95788
688.10 22.25279
688.20 22.14249
688.30 22.60504
688.40 23.56629
688.50 24.70785
688.60 25.65685
688.70 26.21514
688.80 26.54261
688.90 27.16119
689.00 28.36783
689.10 30.15896
689.20 32.32414
689.30 34.29264
689.40 35.56047
689.50 35.96515
689.60 35.59906
689.70 34.67881
689.80 33.60087
689.90 32.96575
690.00 33.22043
690.10 34.39468
690.20 35.99679
690.30 37.2089
690.40 37.45922
690.50 36.54757
690.60 34.49723
690.70 31.75888
690.80 28.98713
690.90 26.57475
691.00 24.79808
691.10 23.85149
691.20 23.70506
691.30 24.15635
691.40 24.87108
691.50 25.62927
691.60 26.52155
691.70 27.86213
691.80 29.71253
691.90 31.68937
692.00 33.41716
692.10 34.58806
692.20 34.948
692.30 34.47873
692.40 33.34917
692.50 31.79289
692.60 30.0661
692.70 28.46488
692.80 27.41212
692.90 27.29216
693.00 28.12674
693.10 29.42851
693.20 30.5802
693.30 31.32981
693.40 31.61761
693.50 31.3546
693.60 30.40145
693.70 28.81025
693.80 27.08873
693.90 25.86411
694.00 25.51637
694.10 26.19548
694.20 27.78621
694.30 29.84871
694.40 31.73444
694.50 32.83705
694.60 32.81456
694.70 31.65621
694.80 29.79906
694.90 27.99765
695.00 26.96842
695.10 27.06526
695.20 28.11396
695.30 29.75017
695.40 31.69385
695.50 33.58897
695.60 35.04947
695.70 35.84271
695.80 35.89688
695.90 35.37421
696.00 34.67059
696.10 34.21678
696.20 34.21108
696.30 34.52614
696.40 35.00659
696.50 35.54743
696.60 36.01335
696.70 36.28638
696.80 36.2015
696.90 35.67768
697.00 34.72445
697.10 33.29886
697.20 31.40076
697.30 29.14449
697.40 26.73064
697.50 24.45372
697.60 22.54756
697.70 21.22471
697.80 20.71479
697.90 21.14728
698.00 22.47447
698.10 24.39532
698.20 26.50233
698.30 28.38893
698.40 29.85752
698.50 30.93627
698.60 31.72349
698.70 32.36318
698.80 32.99176
698.90 33.57594
699.00 33.99444
699.10 34.17847
699.20 34.08729
699.30 33.75473
699.40 33.27048
699.50 32.8005
699.60 32.7234
699.70 33.43803
699.80 34.97309
699.90 37.06017
700.00 39.30552
700.10 41.22324
700.20 42.35096
700.30 42.4085
700.40 41.38603
700.50 39.51151
700.60 37.18745
700.70 34.9237
700.80 33.11383
700.90 31.95793
701.00 31.36913
701.10 31.10629
701.20 31.04468
701.30 31.1412
701.40 31.40764
701.50 31.85766
701.60 32.49264
701.70 33.42742
701.80 34.6901
701.90 36.06037
702.00 37.22326
702.10 37.83926
702.20 37.78105
702.30 37.2626
702.40 36.61095
702.50 36.06286
702.60 35.78522
702.70 35.90899
702.80 36.49361
702.90 37.60246
703.00 39.22416
703.10 40.99489
703.20 42.47797
703.30 43.46028
703.40 43.91711
703.50 43.96153
703.60 43.65328
703.70 42.91081
703.80 41.74056
703.90 40.36832
704.00 39.06214
704.10 37.94002
704.20 37.09829
704.30 36.67515
704.40 36.72108
704.50 37.18458
704.60 37.88863
704.70 38.60058
704.80 39.1015
704.90 39.22566
705.00 38.99044
705.10 38.58793
705.20 38.24824
705.30 38.13349
705.40 38.32406
705.50 38.68084
705.60 38.72879
705.70 38.15309
705.80 37.05448
705.90 35.71112
706.00 34.4932
706.10 33.78915
706.20 33.807
706.30 34.56603
706.40 35.98391
706.50 37.94383
706.60 40.14698
706.70 42.11104
706.80 43.42028
706.90 44.05716
707.00 44.42901
707.10 44.70342
707.20 44.70757
707.30 44.36945
707.40 43.77937
707.50 43.07157
707.60 42.38846
707.70 41.83964
707.80 41.52808
707.90 41.47784
708.00 41.66663
708.10 42.11556
708.20 42.69521
708.30 43.22895
708.40 43.61877
708.50 43.7871
708.60 43.74755
708.70 43.5578
708.80 43.27309
708.90 43.00518
709.00 42.90268
709.10 43.08872
709.20 43.60458
709.30 44.31514
709.40 45.00817
709.50 45.51471
709.60 45.80839
709.70 45.90341
709.80 45.7636
709.90 45.43753
710.00 45.03358
710.10 44.67872
710.20 44.46928
710.30 44.5386
710.40 45.07718
710.50 46.18551
710.60 47.7323
710.70 49.44521
710.80 51.04177
710.90 52.23614
711.00 52.79303
711.10 52.59504
711.20 51.65939
711.30 50.14189
711.40 48.35365
711.50 46.65914
711.60 45.40348
711.70 44.8216
711.80 45.10874
711.90 46.32664
712.00 48.28755
712.10 50.60187
712.20 52.7346
712.30 54.2142
712.40 54.85898
712.50 54.67703
712.60 53.65333
712.70 51.94151
712.80 49.8977
712.90 47.92953
713.00 46.41148
713.10 45.39078
713.20 44.64043
713.30 43.97688
713.40 43.31729
713.50 42.75854
713.60 42.48614
713.70 42.69859
713.80 43.36276
713.90 44.26822
714.00 45.24989
714.10 46.02758
714.20 46.36782
714.30 46.21298
714.40 45.63752
714.50 44.94102
714.60 44.39765
714.70 44.09659
714.80 44.08241
714.90 44.35178
715.00 44.85112
715.10 45.37954
715.20 46.01084
715.30 47.03846
715.40 48.51135
715.50 50.33029
715.60 52.16891
715.70 53.64883
715.80 54.49804
715.90 54.54339
716.00 53.80944
716.10 52.54593
716.20 51.18968
716.30 50.17604
716.40 49.82312
716.50 50.31683
716.60 51.36944
716.70 52.3921
716.80 53.08089
716.90 53.3708
717.00 53.31059
717.10 52.94684
717.20 52.44022
717.30 52.05866
717.40 51.93851
717.50 52.12652
717.60 52.60878
717.70 53.26138
717.80 53.93828
717.90 54.40711
718.00 54.20675
718.10 53.06103
718.20 51.14286
718.30 48.84958
718.40 46.64151
718.50 44.97291
718.60 43.98737
718.70 43.45803
718.80 43.1883
718.90 43.12889
719.00 43.385
719.10 44.02362
719.20 44.87902
719.30 45.84137
719.40 47.03202
719.50 48.46389
719.60 49.80864
719.70 50.60316
719.80 50.45498
719.90 49.19138
720.00 46.99337
720.10 44.52816
720.20 42.61796
720.30 41.9626
720.40 42.81069
720.50 44.88893
720.60 47.76481
720.70 50.87682
720.80 53.68585
720.90 55.75191
721.00 56.78152
721.10 56.74511
721.20 55.86751
721.30 54.53844
721.40 53.20507
721.50 52.25055
721.60 51.86869
721.70 51.92382
721.80 52.15161
721.90 52.43915
722.00 52.76079
722.10 53.18187
722.20 53.92537
722.30 55.09567
722.40 56.53169
722.50 58.10115
722.60 59.77609
722.70 61.49281
722.80 63.04099
722.90 64.08103
723.00 64.37945
723.10 63.93027
723.20 62.97136
723.30 61.88095
723.40 61.08063
723.50 60.66366
723.60 60.09506
723.70 58.82504
723.80 56.93371
723.90 54.59926
724.00 51.56638
724.10 47.46465
724.20 42.40462
724.30 37.24457
724.40 33.08654
724.50 30.77765
724.60 30.67939
724.70 32.73389
724.80 36.29316
724.90 40.53781
725.00 44.99354
725.10 49.38499
725.20 53.19108
725.30 55.76555
725.40 57.08593
725.50 57.86928
725.60 58.77289
725.70 59.6211
725.80 59.9062
725.90 59.30716
726.00 57.83421
726.10 55.85586
726.20 54.14691
726.30 53.42546
726.40 53.88616
726.50 55.34557
726.60 57.39404
726.70 59.56897
726.80 61.39142
726.90 62.28439
727.00 61.77968
727.10 59.7271
727.20 56.33563
727.30 52.01024
727.40 47.34197
727.50 43.23978
727.60 40.5289
727.70 39.70237
727.80 40.92782
727.90 43.89307
728.00 47.59606
728.10 50.64158
728.20 52.05722
728.30 51.56956
728.40 49.49577
728.50 46.64281
728.60 43.86638
728.70 42.10771
728.80 42.09302
728.90 43.77727
729.00 46.56111
729.10 49.69392
729.20 52.54629
729.30 54.50681
729.40 55.44278
729.50 55.84064
729.60 56.01499
729.70 55.95074
729.80 55.60232
729.90 55.287
730.00 55.49323
730.10 56.36277
730.20 57.61053
730.30 58.76364
730.40 59.50442
730.50 59.62134
730.60 58.98187
730.70 57.74831
730.80 56.3867
730.90 55.35469
731.00 54.75275
731.10 54.21415
731.20 52.99433
731.30 50.46325
731.40 46.73405
731.50 42.55184
731.60 38.91517
731.70 36.72048
731.80 36.38247
731.90 37.90493
732.00 41.06942
732.10 45.45084
732.20 50.17456
732.30 53.96648
732.40 55.69675
732.50 55.00964
732.60 52.59594
732.70 49.51598
732.80 46.54632
732.90 44.18159
733.00 42.80752
733.10 42.70327
733.20 43.91091
733.30 46.07793
733.40 48.57248
733.50 50.69308
733.60 51.80068
733.70 51.74692
733.80 51.00335
733.90 50.22992
734.00 49.86999
734.10 49.81672
734.20 49.83218
734.30 49.94962
734.40 50.17772
734.50 50.49058
734.60 50.94713
734.70 51.75413
734.80 52.96782
734.90 54.36217
735.00 55.72939
735.10 56.98781
735.20 58.20307
735.30 59.38976
735.40 60.2557
735.50 60.51227
735.60 59.87003
735.70 58.13349
735.80 55.56167
735.90 52.60603
736.00 49.72571
736.10 47.45549
736.20 46.32568
736.30 46.71937
736.40 48.63504
736.50 51.10088
736.60 52.13778
736.70 50.37351
736.80 46.39454
736.90 41.94282
737.00 38.64992
737.10 37.4835
737.20 38.61894
737.30 41.6097
737.40 45.54364
737.50 49.19144
737.60 51.38762
737.70 51.39329
737.80 49.05772
737.90 45.26637
738.00 41.74178
738.10 39.71996
738.20 39.24415
738.30 39.90256
738.40 41.49614
738.50 43.8365
738.60 46.71193
738.70 49.85239
738.80 52.89596
738.90 55.42546
739.00 57.0316
739.10 57.4241
739.20 56.58642
739.30 54.53039
739.40 51.48163
739.50 48.16873
739.60 45.27335
739.70 43.01551
739.80 41.36116
739.90 40.38523
740.00 40.12109
740.10 40.50934
740.20 41.43748
740.30 42.65263
740.40 43.83217
740.50 44.70902
740.60 45.04792
740.70 45.04045
740.80 45.1193
740.90 45.33342
741.00 45.55603
741.10 45.84658
741.20 46.42742
741.30 47.41735
741.40 48.64139
741.50 49.786
741.60 50.68245
741.70 51.40448
741.80 52.00174
741.90 52.31129
742.00 52.14678
742.10 51.36467
742.20 49.99819
742.30 48.28122
742.40 46.61812
742.50 45.439
742.60 44.85004
742.70 44.71847
742.80 44.92783
742.90 45.41754
743.00 46.12217
743.10 46.81529
743.20 47.29066
743.30 47.55643
743.40 47.72504
743.50 47.86582
743.60 47.91293
743.70 47.83156
743.80 47.57244
743.90 47.00772
744.00 45.93073
744.10 44.03174
744.20 41.30413
744.30 38.14843
744.40 34.96014
744.50 32.07782
744.60 29.84045
744.70 28.52335
744.80 28.30895
744.90 29.22517
745.00 31.15071
745.10 33.79569
745.20 36.73413
745.30 39.49431
745.40 41.82992
745.50 43.80359
745.60 45.41186
745.70 46.41414
745.80 46.7923
745.90 46.85338
746.00 46.75317
746.10 46.36123
746.20 45.40851
746.30 43.65581
746.40 41.00239
746.50 37.55955
746.60 33.68604
746.70 29.75926
746.80 26.37074
746.90 24.67793
747.00 25.38096
747.10 28.32297
747.20 32.93125
747.30 38.21095
747.40 43.06561
747.50 46.46778
747.60 47.48447
747.70 45.82074
747.80 42.08969
747.90 37.32941
748.00 32.56182
748.10 28.9656
748.20 27.39225
748.30 27.58176
748.40 29.07409
748.50 31.44773
748.60 33.84935
748.70 35.48837
748.80 35.83037
748.90 34.8372
749.00 33.15473
749.10 31.46841
749.20 30.13348
749.30 29.37574
749.40 29.39587
749.50 30.20791
749.60 31.56719
749.70 33.02876
749.80 34.09386
749.90 34.50302
750.00 34.22129
750.10 33.38922
750.20 32.36045
750.30 31.46482
750.40 30.82573
750.50 30.59334
750.60 31.00394
750.70 32.21588
750.80 34.15527
750.90 36.51268
751.00 38.9123
751.10 41.03522
751.20 42.57404
751.30 43.20399
751.40 42.80458
751.50 41.44172
751.60 39.2846
751.70 36.63684
751.80 33.85947
751.90 30.99344
752.00 27.72687
752.10 23.76333
752.20 19.33056
752.30 15.12523
752.40 11.78217
752.50 9.781969
752.60 9.141465
752.70 9.781198
752.80 11.64614
752.90 14.1965
753.00 16.73099
753.10 18.74681
753.20 19.99196
753.30 20.54623
753.40 20.8304
753.50 21.38113
753.60 22.36389
753.70 23.55474
753.80 24.69239
753.90 25.54875
754.00 26.23594
754.10 26.92728
754.20 27.59098
754.30 28.35899
754.40 29.37489
754.50 30.63183
754.60 32.0116
754.70 33.35019
754.80 34.4188
754.90 34.96228
755.00 34.81436
755.10 33.92843
755.20 32.41003
755.30 30.28329
755.40 27.5598
755.50 24.50296
755.60 21.51757
755.70 19.02979
755.80 17.64808
755.90 17.73772
756.00 19.0439
756.10 21.02106
756.20 23.13442
756.30 24.97831
756.40 26.28685
756.50 26.90119
756.60 26.68707
756.70 25.56966
756.80 23.39422
756.90 20.25146
757.00 16.62864
757.10 13.4055
757.20 11.26391
757.30 10.40842
757.40 10.97668
757.50 12.81547
757.60 15.45875
757.70 18.21035
757.80 20.35542
757.90 21.31916
758.00 20.69833
758.10 18.54531
758.20 15.54093
758.30 12.48692
758.40 10.01811
758.50 8.445664
758.60 7.928989
758.70 8.550657
758.80 10.19056
758.90 12.79267
759.00 16.11576
759.10 19.57135
759.20 22.32825
759.30 23.35724
759.40 21.8511
759.50 17.83175
759.60 12.24407
759.70 6.298824
759.80 0.8317395
759.90 0
760.00 0
760.10 0
760.20 0
760.30 0
760.40 4.343081
760.50 9.247925
760.60 13.61979
760.70 17.04618
760.80 19.57364
760.90 21.07202
761.00 20.96942
761.10 19.02443
761.20 15.97999
761.30 12.55284
761.40 9.1587
761.50 6.543852
761.60 5.252471
761.70 5.218846
761.80 5.951111
761.90 6.813797
762.00 7.141303
762.10 6.566829
762.20 5.095964
762.30 3.000752
762.40 0.6969526
762.50 0
762.60 0
762.70 0
762.80 0
762.90 0
763.00 0
763.10 0
763.20 0
763.30 0
763.40 0.9163798
763.50 3.461021
763.60 4.897153
763.70 5.12402
763.80 4.47467
763.90 3.794297
764.00 3.921126
764.10 4.99834
764.20 6.472253
764.30 7.665086
764.40 8.082688
764.50 7.459463
764.60 5.888674
764.70 3.781378
764.80 1.791409
764.90 0.4014235
765.00 0
765.10 0
765.20 0.3855141
765.30 1.171568
765.40 1.607076
765.50 1.161878
765.60 0
765.70 0
765.80 0
765.90 0
766.00 0
766.10 0
766.20 0
766.30 0
766.40 0
766.50 0
766.60 0
766.70 0.06468376
766.80 2.519747
766.90 4.122621
767.00 4.869352
767.10 4.78606
767.20 3.854438
767.30 2.187597
767.40 0
767.50 0
767.60 0
767.70 0
767.80 0
767.90 0
768.00 0
768.10 0
768.20 0
768.30 0
768.40 0
768.50 0.3389564
768.60 1.126504
768.70 0.8484515
768.80 0
768.90 0
769.00 0
769.10 0
769.20 0
769.30 0
769.40 0.2620476
769.50 0.981791
769.60 1.177717
769.70 1.028958
769.80 0.7395478
769.90 0.5414976
770.00 0.6149022
770.10 1.007998
770.20 1.631063
770.30 2.32419
770.40 2.977738
770.50 3.639285
770.60 4.239568
770.70 4.5685
770.80 4.428096
770.90 3.347136
771.00 0.7435281
771.10 0
771.20 0
771.30 0
771.40 0
771.50 0
771.60 0
771.70 0
771.80 0
771.90 0
772.00 0
772.10 0
772.20 0
772.30 0.008333261
772.40 1.728842
772.50 1.456428
772.60 0.2555105
772.70 0
772.80 0
772.90 0
773.00 0
773.10 1.711884
773.20 3.643675
773.30 5.563439
773.40 7.419393
773.50 9.511041
773.60 12.09205
773.70 14.82752
773.80 17.19398
773.90 18.80284
774.00 19.34902
774.10 18.62546
774.20 16.79837
774.30 14.47652
774.40 12.40536
774.50 10.61126
774.60 7.65318
774.70 1.758079
774.80 0
774.90 0
775.00 0
775.10 0
775.20 0
775.30 0
775.40 0
775.50 0
775.60 0
775.70 3.122093
775.80 12.38425
775.90 16.94399
776.00 17.75295
776.10 16.9739
776.20 16.25168
776.30 16.03992
776.40 16.01816
776.50 15.97295
776.60 15.86923
776.70 15.95811
776.80 16.52206
776.90 17.42489
777.00 18.14088
777.10 18.20218
777.20 17.62034
777.30 16.64005
777.40 15.50152
777.50 14.4421
777.60 13.724
777.70 13.57044
777.80 14.04186
777.90 15.10789
778.00 16.67779
778.10 18.31244
778.20 19.51015
778.30 20.14943
778.40 20.51154
778.50 20.92444
778.60 21.38535
778.70 21.90909
778.80 22.4706
778.90 22.56021
779.00 20.99088
779.10 16.56495
779.20 9.366853
779.30 0.6095443
779.40 0
779.50 0
779.60 0
779.70 0
779.80 0
779.90 0
780.00 0
780.10 7.556668
780.20 14.41825
780.30 18.53065
780.40 19.94341
780.50 19.21804
780.60 16.97763
780.70 14.10236
780.80 11.72818
780.90 10.96352
781.00 12.25854
781.10 15.52283
781.20 20.51304
781.30 26.77296
781.40 33.72206
781.50 40.00157
781.60 43.52238
781.70 42.56798
781.80 36.73465
781.90 27.3236
782.00 16.62265
782.10 7.193752
782.20 1.189641
782.30 0
782.40 2.835581
782.50 9.794538
782.60 18.97118
782.70 28.10746
782.80 34.95042
782.90 38.20173
783.00 38.15631
783.10 36.08528
783.20 33.46203
783.30 31.55628
783.40 30.94189
783.50 31.3682
783.60 32.34558
783.70 33.18837
783.80 33.0433
783.90 31.6714
784.00 29.4449
784.10 27.16403
784.20 25.58265
784.30 25.06271
784.40 25.68859
784.50 27.53753
784.60 30.9313
784.70 35.70243
784.80 40.81688
784.90 44.54037
785.00 44.56307
785.10 40.18067
785.20 33.14394
785.30 25.60157
785.40 19.27726
785.50 15.4238
785.60 14.67653
785.70 16.84399
785.80 21.08703
785.90 26.41909
786.00 31.53118
786.10 35.22598
786.20 37.08012
786.30 37.61036
786.40 38.39435
786.50 40.43416
786.60 42.71012
786.70 43.70689
786.80 42.93858
786.90 40.79169
787.00 38.2145
787.10 36.54853
787.20 36.79759
787.30 39.09633
787.40 42.99818
787.50 47.78097
787.60 52.57419
787.70 56.54146
787.80 59.07125
787.90 59.93981
788.00 59.77039
788.10 59.70521
788.20 60.52387
788.30 62.40614
788.40 64.90925
788.50 67.31502
788.60 68.89631
788.70 69.00718
788.80 67.38869
788.90 64.33386
789.00 60.514
789.10 56.72139
789.20 53.62877
789.30 51.77624
789.40 51.57243
789.50 53.0184
789.60 55.56919
789.70 58.26089
789.80 60.23009
789.90 61.17549
790.00 61.1934
790.10 60.47614
790.20 59.29728
790.30 57.93892
790.40 56.63469
790.50 55.68272
790.60 55.62905
790.70 56.57284
790.80 57.33901
790.90 55.89316
791.00 50.22551
791.10 40.4259
791.20 28.98737
791.30 18.59234
791.40 11.56722
791.50 9.606378
791.60 13.09462
791.70 21.11497
791.80 31.86965
791.90 43.0275
792.00 52.09838
792.10 57.38672
792.20 58.90671
792.30 58.29999
792.40 58.04646
792.50 59.41386
792.60 61.91091
792.70 64.89668
792.80 67.67351
792.90 69.51352
793.00 70.08359
793.10 69.51189
793.20 68.27554
793.30 66.99606
793.40 66.14762
793.50 65.96213
793.60 66.48735
793.70 67.68575
793.80 69.38315
793.90 71.103
794.00 72.18752
794.10 72.04528
794.20 70.37376
794.30 67.06253
794.40 62.22313
794.50 56.30427
794.60 50.01063
794.70 44.17947
794.80 39.62198
794.90 37.02989
795.00 36.81091
795.10 38.82104
795.20 42.55821
795.30 47.5004
795.40 53.10578
795.50 58.71958
795.60 63.75722
795.70 67.77394
795.80 70.47264
795.90 71.84997
796.00 71.90899
796.10 70.32137
796.20 67.28616
796.30 63.78379
796.40 60.85555
796.50 59.57548
796.60 60.53817
796.70 63.62004
796.80 68.39069
796.90 74.14761
797.00 79.98217
797.10 85.10598
797.20 88.94883
797.30 91.1422
797.40 91.78828
797.50 91.68703
797.60 91.4387
797.70 91.15973
797.80 91.10041
797.90 91.27016
798.00 91.79195
798.10 92.94225
798.20 94.54746
798.30 96.25755
798.40 97.8146
798.50 99.08269
798.60 99.67066
798.70 99.12858
798.80 97.32509
798.90 94.43979
799.00 90.70369
799.10 86.42217
799.20 82.13056
799.30 78.61439
799.40 76.49679
799.50 76.05167
799.60 77.44772
799.70 80.36882
799.80 83.97985
799.90 87.41007
800.00 90.26645
800.10 92.4047
800.20 93.72762
800.30 94.07548
800.40 93.57588
800.50 92.83742
800.60 92.57403
800.70 93.13854
800.80 94.53139
800.90 96.65206
801.00 99.06005
801.10 101.1743
801.20 102.5476
801.30 103.0632
801.40 102.8875
801.50 102.2289
801.60 101.3485
801.70 100.7882
801.80 101.1624
801.90 102.5897
802.00 104.6261
802.10 106.6063
802.20 107.2764
802.30 105.1121
802.40 99.74689
802.50 92.27971
802.60 84.6875
802.70 78.73849
802.80 75.42011
802.90 75.01491
803.00 77.29917
803.10 81.85883
803.20 88.12132
803.30 95.16602
803.40 101.7578
803.50 106.7897
803.60 110.0157
803.70 111.9869
803.80 113.1823
803.90 113.7196
804.00 113.4205
804.10 112.2791
804.20 110.8214
804.30 109.8994
804.40 110.1611
804.50 111.7594
804.60 114.4066
804.70 117.613
804.80 120.874
804.90 123.8184
805.00 126.345
805.10 128.4162
805.20 129.8888
805.30 130.5748
805.40 130.3931
805.50 129.3673
805.60 127.7118
805.70 125.6029
805.80 123.0101
805.90 119.92
806.00 116.4626
806.10 113.1865
806.20 110.9578
806.30 110.4588
806.40 111.955
806.50 115.3099
806.60 119.9291
806.70 124.8995
806.80 129.3047
806.90 132.3268
807.00 133.2145
807.10 131.9433
807.20 129.4526
807.30 127.0343
807.40 125.9176
807.50 126.6968
807.60 129.0981
807.70 132.2575
807.80 135.0149
807.90 136.2061
808.00 135.1549
808.10 131.9884
808.20 127.4994
808.30 122.8872
808.40 119.4698
808.50 118.1592
808.60 119.052
808.70 121.5545
808.80 124.8202
808.90 127.9984
809.00 130.5117
809.10 132.0394
809.20 132.3546
809.30 131.534
809.40 130.0543
809.50 128.345
809.60 126.6347
809.70 125.0978
809.80 123.6832
809.90 122.3404
810.00 121.251
810.10 120.5608
810.20 120.0717
810.30 119.5439
810.40 118.9605
810.50 118.6084
810.60 119.1026
810.70 120.7796
810.80 123.3842
810.90 126.6568
811.00 130.4035
811.10 134.3345
811.20 138.2493
811.30 142.1035
811.40 145.8932
811.50 149.537
811.60 153.0216
811.70 156.3071
811.80 159.0793
811.90 160.8439
812.00 161.1919
812.10 160.2176
812.20 158.5174
812.30 156.6373
812.40 155.0525
812.50 154.2677
812.60 154.4518
812.70 155.2426
812.80 156.2366
812.90 157.033
813.00 157.0685
813.10 156.0276
813.20 153.9107
813.30 151.2123
813.40 148.8777
813.50 147.5929
813.60 147.6163
813.70 148.8638
813.80 150.7677
813.90 152.4158
814.00 153.1723
814.10 152.8698
814.20 151.6021
814.30 150.1924
814.40 149.6492
814.50 150.381
814.60 152.5733
814.70 155.9961
814.80 159.9453
814.90 163.7787
815.00 166.9
815.10 168.8877
815.20 169.779
815.30 169.9591
815.40 169.8648
815.50 169.8436
815.60 170.1115
815.70 170.4164
815.80 170.4952
815.90 170.4357
816.00 170.3713
816.10 170.4158
816.20 170.6423
816.30 171.1025
816.40 171.8273
816.50 172.9081
816.60 174.482
816.70 176.4612
816.80 178.5736
816.90 180.53
817.00 182.017
817.10 182.8049
817.20 182.7455
817.30 181.6897
817.40 179.6754
817.50 177.0461
817.60 174.1456
817.70 171.187
817.80 168.3156
817.90 165.5212
818.00 162.7063
818.10 159.9885
818.20 157.7105
818.30 156.095
818.40 154.8455
818.50 153.2785
818.60 150.8089
818.70 147.3218
818.80 143.2548
818.90 139.0061
819.00 134.5523
819.10 130.0692
819.20 126.2117
819.30 123.8242
819.40 123.7917
819.50 126.2881
819.60 130.4571
819.70 135.1795
819.80 139.9637
819.90 144.8626
820.00 149.7667
820.10 154.399
820.20 158.4382
820.30 161.9148
820.40 165.564
820.50 169.9384
820.60 174.9018
820.70 179.8436
820.80 183.9529
820.90 187.032
821.00 189.3521
821.10 190.9437
821.20 191.6569
821.30 191.546
821.40 191.0689
821.50 190.6838
821.60 190.5176
821.70 190.3414
821.80 189.8971
821.90 189.2331
822.00 188.5079
822.10 187.946
822.20 187.7808
822.30 188.0607
822.40 188.9576
822.50 190.8755
822.60 193.9117
822.70 197.7174
822.80 201.9805
822.90 206.3195
823.00 210.0551
823.10 212.5889
823.20 213.4729
823.30 212.4717
823.40 209.8753
823.50 206.3973
823.60 202.8096
823.70 199.8473
823.80 198.023
823.90 197.3089
824.00 197.3815
824.10 197.6676
824.20 197.3506
824.30 196.1009
824.40 194.2193
824.50 192.3003
824.60 191.1125
824.70 191.3715
824.80 193.4362
824.90 197.0207
825.00 201.2587
825.10 205.0096
825.20 207.15
825.30 207.0186
825.40 204.5239
825.50 200.3917
825.60 196.072
825.70 192.9511
825.80 192.0582
825.90 193.9219
826.00 198.0475
826.10 203.342
826.20 208.8682
826.30 213.9272
826.40 218.0308
826.50 220.7263
826.60 221.7188
826.70 221.1265
826.80 219.4387
826.90 217.2277
827.00 215.06
827.10 213.3935
827.20 212.3767
827.30 212.0228
827.40 212.4407
827.50 213.3653
827.60 213.5453
827.70 211.0751
827.80 204.8044
827.90 195.4224
828.00 184.8233
828.10 175.2912
828.20 168.8482
828.30 166.2619
828.40 166.2816
828.50 166.5272
828.60 165.3733
828.70 162.1344
828.80 157.0958
828.90 151.5601
829.00 147.3386
829.10 146.6714
829.20 150.945
829.30 159.3181
829.40 169.1541
829.50 177.0299
829.60 180.2521
829.70 177.9554
829.80 172.0959
829.90 166.4712
830.00 163.9567
830.10 165.9878
830.20 172.823
830.30 183.4629
830.40 196.072
830.50 208.0202
830.60 216.3388
830.70 219.2165
830.80 217.0386
830.90 211.9032
831.00 206.323
831.10 202.2532
831.20 200.265
831.30 199.9196
831.40 200.6873
831.50 202.3059
831.60 204.5703
831.70 206.9515
831.80 208.9811
831.90 210.7827
832.00 212.942
832.10 215.9024
832.20 219.4623
832.30 222.9251
832.40 225.5736
832.50 227.3753
832.60 228.974
832.70 231.0317
832.80 234.0655
832.90 238.1318
833.00 242.679
833.10 247.0265
833.20 250.6441
833.30 253.2818
833.40 254.9333
833.50 255.6481
833.60 255.4151
833.70 254.4916
833.80 253.3968
833.90 252.0182
834.00 248.6452
834.10 240.7714
834.20 227.6121
834.30 211.1115
834.40 194.712
834.50 181.9787
834.60 175.6722
834.70 176.7601
834.80 184.323
834.90 196.2286
835.00 210.0462
835.10 222.9998
835.20 232.068
835.30 235.6896
835.40 235.3974
835.50 234.6948
835.60 236.1346
835.70 239.8757
835.80 244.4415
835.90 248.2885
836.00 250.587
836.10 251.2343
836.20 250.7511
836.30 249.9762
836.40 249.5021
836.50 249.93
836.60 251.9257
836.70 255.4784
836.80 259.6437
836.90 263.2515
837.00 265.4318
837.10 265.9023
837.20 265.185
837.30 263.9054
837.40 262.171
837.50 259.9587
837.60 257.3557
837.70 254.1064
837.80 249.904
837.90 244.7378
838.00 238.922
838.10 233.2551
838.20 228.7336
838.30 226.2004
838.40 226.069
838.50 228.2383
838.60 232.2784
838.70 237.5767
838.80 243.4284
838.90 249.286
839.00 254.6805
839.10 259.287
839.20 263.158
839.30 266.5433
839.40 268.6892
839.50 267.6569
839.60 261.6475
839.70 250.0385
839.80 234.3086
839.90 217.5613
840.00 203.1543
840.10 193.7292
840.20 190.5422
840.30 193.3758
840.40 200.9997
840.50 211.6107
840.60 222.9247
840.70 232.5566
840.80 239.5198
840.90 244.5384
841.00 249.1657
841.10 254.8902
841.20 261.6959
841.30 268.4395
841.40 274.1956
841.50 278.4743
841.60 281.1837
841.70 282.5706
841.80 283.1399
841.90 283.3092
842.00 283.2094
842.10 282.9552
842.20 282.6451
842.30 282.0614
842.40 280.5309
842.50 276.9844
842.60 271.2301
842.70 264.4074
842.80 257.7137
842.90 252.2088
843.00 248.9972
843.10 248.6647
843.20 251.018
843.30 255.4637
843.40 261.1978
843.50 266.8864
843.60 270.8738
843.70 272.0263
843.80 270.2307
843.90 266.6529
844.00 262.8008
844.10 259.4325
844.20 256.8516
844.30 254.9406
844.40 253.3777
844.50 252.1456
844.60 251.5485
844.70 252.0523
844.80 253.4165
844.90 254.4295
845.00 254.2802
845.10 253.0677
845.20 251.1674
845.30 249.0495
845.40 247.2723
845.50 246.3336
845.60 246.5344
845.70 248.1765
845.80 251.276
845.90 255.2914
846.00 259.2899
846.10 262.0906
846.20 262.1919
846.30 258.8428
846.40 252.8395
846.50 245.716
846.60 239.1414
846.70 234.4561
846.80 232.5425
846.90 233.7799
847.00 237.7249
847.10 243.2845
847.20 249.1806
847.30 254.2216
847.40 257.4326
847.50 258.1464
847.60 256.963
847.70 255.4542
847.80 254.5372
847.90 254.3085
848.00 254.6779
848.10 255.5701
848.20 256.8361
848.30 258.3173
848.40 260.0335
848.50 262.0041
848.60 264.187
848.70 266.1929
848.80 267.2593
848.90 266.7847
849.00 264.5751
849.10 260.6757
849.20 255.3761
849.30 249.5795
849.40 244.5807
849.50 241.3237
849.60 240.0586
849.70 240.6831
849.80 242.9203
849.90 246.2221
850.00 249.8789
850.10 253.42
850.20 256.5319
850.30 258.8659
850.40 260.4663
850.50 261.4432
850.60 261.2823
850.70 259.0577
850.80 254.0948
850.90 246.8653
851.00 238.8918
851.10 231.6884
851.20 226.3137
851.30 223.38
851.40 222.5846
851.50 222.3269
851.60 220.5147
851.70 215.4486
851.80 206.1519
851.90 193.1152
852.00 178.4093
852.10 164.8118
852.20 155.0627
852.30 151.0941
852.40 153.5028
852.50 161.5678
852.60 173.6236
852.70 187.4491
852.80 201.014
852.90 213.3619
853.00 224.4647
853.10 234.7007
853.20 244.3026
853.30 253.2169
853.40 261.4559
853.50 269.1186
853.60 275.972
853.70 281.4632
853.80 285.1114
853.90 286.8192
854.00 287.2227
854.10 287.4084
854.20 288.2239
854.30 289.9045
854.40 292.271
854.50 294.6485
854.60 296.2143
854.70 296.341
854.80 294.6378
854.90 291.1358
855.00 286.69
855.10 282.6899
855.20 280.2538
855.30 280.1042
855.40 282.2899
855.50 286.1674
855.60 290.6608
855.70 294.6337
855.80 297.2491
855.90 298.4675
856.00 298.8787
856.10 299.0374
856.20 299.4175
856.30 300.3746
856.40 301.5857
856.50 302.1825
856.60 301.7952
856.70 300.7495
856.80 299.5656
856.90 298.7494
857.00 298.8582
857.10 300.1655
857.20 302.3803
857.30 304.949
857.40 307.2427
857.50 308.8158
857.60 309.4033
857.70 308.7866
857.80 307.1546
857.90 305.2123
858.00 303.843
858.10 303.6128
858.20 304.5657
858.30 306.5498
858.40 309.3985
858.50 313.0095
858.60 316.9935
858.70 320.5365
858.80 323.1541
858.90 324.7979
859.00 325.3282
859.10 324.7729
859.20 323.617
859.30 322.3311
859.40 320.8286
859.50 318.9922
859.60 317.2447
859.70 316.0438
859.80 315.6053
859.90 316.0129
860.00 317.4307
860.10 320.148
860.20 324.0504
860.30 328.2666
860.40 331.6224
860.50 332.9288
860.60 331.0881
860.70 325.5824
860.80 316.8771
860.90 305.8905
861.00 293.4996
861.10 280.528
861.20 267.6117
861.30 254.899
861.40 242.1055
861.50 229.0346
861.60 215.7617
861.70 202.6611
861.80 190.4178
861.90 179.7504
862.00 171.2281
862.10 165.3126
862.20 162.2365
862.30 161.8555
862.40 163.656
862.50 166.7218
862.60 169.8351
862.70 172.1304
862.80 173.1327
862.90 172.3773
863.00 169.4438
863.10 164.5776
863.20 158.9398
863.30 153.9547
863.40 150.7761
863.50 150.0917
863.60 152.0375
863.70 156.1203
863.80 161.3327
863.90 166.2936
864.00 169.6396
864.10 170.7505
864.20 170.0323
864.30 168.5081
864.40 167.4594
864.50 167.7651
864.60 169.3514
864.70 171.3736
864.80 172.6746
864.90 172.5015
865.00 170.9968
865.10 168.7192
865.20 166.2199
865.30 164.6651
865.40 165.7525
865.50 170.446
865.60 178.6633
865.70 188.966
865.80 198.9187
865.90 206.5381
866.00 211.1046
866.10 213.318
866.20 214.5696
866.30 215.723
866.40 216.6823
866.50 217.4555
866.60 218.4263
866.70 219.4088
866.80 219.6201
866.90 218.5192
867.00 216.2686
867.10 213.9232
867.20 212.8804
867.30 213.9653
867.40 216.9796
867.50 220.9269
867.60 224.4862
867.70 226.343
867.80 225.7351
867.90 222.5979
868.00 217.462
868.10 211.41
868.20 206.0379
868.30 202.9332
868.40 202.8992
868.50 205.8679
868.60 211.1732
868.70 217.78
868.80 224.3099
868.90 229.0162
869.00 230.2898
869.10 227.5565
869.20 221.3116
869.30 212.4819
869.40 202.3303
869.50 192.6044
869.60 184.9249
869.70 180.2713
869.80 179.0761
869.90 181.1428
870.00 185.6508
870.10 191.0905
870.20 195.7035
870.30 198.3952
870.40 199.1946
870.50 198.6343
870.60 197.1856
870.70 195.2358
870.80 193.0734
870.90 190.8658
871.00 188.6053
871.10 186.256
871.20 183.7691
871.30 181.2068
871.40 178.7443
871.50 176.6576
871.60 175.3252
871.70 175.0099
871.80 175.6338
871.90 176.9175
872.00 178.4693
872.10 180.0211
872.20 181.5934
872.30 183.416
872.40 185.9401
872.50 189.2585
872.60 192.6547
872.70 195.3302
872.80 196.8852
872.90 197.1748
873.00 196.3436
873.10 194.7384
873.20 192.8352
873.30 191.1923
873.40 190.4626
873.50 191.1089
873.60 193.1535
873.70 196.2739
873.80 199.9867
873.90 203.9865
874.00 208.4238
874.10 213.3066
874.20 218.2097
874.30 222.4723
874.40 225.3943
874.50 226.6145
874.60 226.1885
874.70 224.3071
874.80 221.3429
874.90 217.9057
875.00 214.3206
875.10 211.0358
875.20 208.782
875.30 208.0435
875.40 209.0428
875.50 211.298
875.60 213.1173
875.70 212.8503
875.80 209.9627
875.90 204.3762
876.00 196.8377
876.10 189.4022
876.20 184.1311
876.30 181.9816
876.40 181.4396
876.50 179.8329
876.60 176.2609
876.70 171.3762
876.80 166.8874
876.90 165.2346
877.00 169.1491
877.10 180.3484
877.20 198.3075
877.30 220.8692
877.40 244.1042
877.50 262.9318
877.60 272.7619
877.70 271.6186
877.80 262.6459
877.90 251.2069
878.00 240.6526
878.10 232.554
878.20 227.029
878.30 223.4906
878.40 221.5053
878.50 220.6656
878.60 220.7141
878.70 221.6125
878.80 222.5694
878.90 222.1569
879.00 220.5779
879.10 218.9669
879.20 218.3979
879.30 219.8473
879.40 223.7224
879.50 229.9063
879.60 237.501
879.70 244.9758
879.80 250.6329
879.90 253.0577
880.00 251.3774
880.10 245.4208
880.20 236.8952
880.30 228.8737
880.40 223.0526
880.50 219.6358
880.60 218.1298
880.70 217.9204
880.80 218.8274
880.90 220.8306
881.00 224.3358
881.10 230.0926
881.20 238.5907
881.30 249.6713
881.40 262.4613
881.50 275.6273
881.60 287.6131
881.70 296.83
881.80 302.2288
881.90 303.4461
882.00 300.7377
882.10 295.0902
882.20 286.4749
882.30 272.7277
882.40 251.317
882.50 222.6606
882.60 189.9221
882.70 157.1937
882.80 129.6345
882.90 112.0318
883.00 107.2824
883.10 116.1498
883.20 136.3861
883.30 163.1466
883.40 190.6632
883.50 213.1305
883.60 227.6017
883.70 235.7291
883.80 241.4853
883.90 247.1453
884.00 253.1709
884.10 259.7298
884.20 266.1186
884.30 271.3348
884.40 274.2451
884.50 273.095
884.60 267.2187
884.70 258.5831
884.80 249.9158
884.90 243.215
885.00 239.7067
885.10 239.8594
885.20 243.4479
885.30 249.8565
885.40 258.1182
885.50 266.7942
885.60 274.3102
885.70 279.3572
885.80 281.6716
885.90 282.5893
886.00 283.7567
886.10 285.5335
886.20 287.5069
886.30 289.3595
886.40 290.7706
886.50 291.1074
886.60 289.7519
886.70 286.3289
886.80 280.8991
886.90 273.998
887.00 266.1093
887.10 258.2301
887.20 252.1149
887.30 249.4419
887.40 251.7139
887.50 259.9519
887.60 274.0001
887.70 292.3695
887.80 312.8896
887.90 332.8599
888.00 349.7411
888.10 361.7241
888.20 367.3528
888.30 366.6107
888.40 361.5414
888.50 354.824
888.60 348.507
888.70 344.1063
888.80 342.214
888.90 342.252
889.00 343.2578
889.10 344.0409
889.20 342.4604
889.30 337.0214
889.40 327.6996
889.50 315.5851
889.60 303.1409
889.70 293.237
889.80 287.5944
889.90 286.2548
890.00 288.1543
890.10 291.5352
890.20 295.0713
890.30 297.9589
890.40 299.2202
890.50 298.2816
890.60 295.7447
890.70 292.8451
890.80 290.8669
890.90 290.8586
891.00 293.2101
891.10 297.6015
891.20 303.3964
891.30 310.0229
891.40 317.2951
891.50 325.2992
891.60 333.1893
891.70 337.6925
891.80 336.3831
891.90 330.2745
892.00 321.3452
892.10 311.1657
892.20 300.9859
892.30 292.1665
892.40 285.9948
892.50 283.226
892.60 284.0145
892.70 288.1761
892.80 294.8102
892.90 302.3413
893.00 309.5253
893.10 317.2173
893.20 325.7696
893.30 332.698
893.40 335.5044
893.50 333.4064
893.60 326.6305
893.70 315.2008
893.80 299.2449
893.90 279.5869
894.00 257.9051
894.10 236.3245
894.20 217.0897
894.30 202.0402
894.40 192.2939
894.50 188.5768
894.60 191.1981
894.70 199.9898
894.80 213.9522
894.90 231.0322
895.00 248.6096
895.10 264.6602
895.20 278.785
895.30 291.6758
895.40 302.8003
895.50 311.1379
895.60 316.8842
895.70 320.8315
895.80 323.9916
895.90 326.813
896.00 329.1111
896.10 330.4593
896.20 330.4804
896.30 329.0466
896.40 326.3019
896.50 322.5079
896.60 317.8159
896.70 312.3665
896.80 307.5962
896.90 305.3789
897.00 306.4422
897.10 310.5291
897.20 316.3583
897.30 322.4636
897.40 327.8591
897.50 331.8866
897.60 334.327
897.70 335.3585
897.80 335.2051
897.90 334.425
898.00 333.8144
898.10 334.2278
898.20 336.7724
898.30 342.1925
898.40 350.2888
898.50 360.1291
898.60 370.4864
898.70 379.3581
898.80 384.7461
898.90 386.0183
899.00 383.3441
899.10 377.3099
899.20 369.2709
899.30 360.5124
899.40 351.8899
899.50 344.5147
899.60 339.4711
899.70 337.2344
899.80 337.5694
899.90 340.4579
900.00 341.8398
900.10 343.2218
900.20 344.6038
900.30 345.9857
900.40 347.3677
900.50 348.7497
900.60 350.1316
900.70 351.5136
900.80 352.8956
900.90 354.2775
901.00 355.6595
901.10 357.0414
901.20 358.4234
901.30 359.8054
901.40 361.1873
901.50 362.5693
901.60 363.9513
901.70 365.3332
901.80 366.7152
901.90 368.0972
902.00 369.4791
902.10 370.8611
902.20 372.243
902.30 373.625
902.40 375.007
902.50 376.3889
902.60 377.8339
902.70 379.516
902.80 381.1982
902.90 382.8803
903.00 384.5624
903.10 386.2445
903.20 387.9266
903.30 389.47
903.40 390.8055
903.50 392.1409
903.60 393.4763
903.70 394.8118
903.80 396.1472
903.90 397.4826
904.00 398.8181
904.10 400.1535
904.20 401.4889
904.30 402.8244
904.40 404.1598
904.50 405.4952
904.60 406.8307
904.70 408.1661
904.80 409.5015
904.90 410.837
905.00 412.1724
905.10 413.5078
905.20 414.8433
905.30 416.1787
905.40 417.5141
905.50 418.8496
905.60 420.185
905.70 421.5204
905.80 422.8559
905.90 424.1913
906.00 425.5267
906.10 426.7643
906.20 427.9967
906.30 429.229
906.40 430.4614
906.50 431.6938
906.60 432.9262
906.70 434.0162
906.80 433.8252
906.90 433.6341
907.00 433.4431
907.10 433.252
907.20 433.061
907.30 432.8699
907.40 432.6789
907.50 432.4878
907.60 432.2968
907.70 432.1057
907.80 431.9146
907.90 431.7236
908.00 431.5325
908.10 431.3415
908.20 431.1504
908.30 430.9594
908.40 430.7683
908.50 430.5773
908.60 430.3862
908.70 430.1951
908.80 430.0041
908.90 429.813
909.00 429.622
909.10 429.4309
909.20 429.2399
909.30 429.0488
909.40 428.8578
909.50 428.6545
909.60 428.4394
909.70 428.2244
909.80 428.0094
909.90 427.7943
910.00 427.5793
910.10 427.3642
910.20 427.8756
910.30 428.8322
910.40 429.7888
910.50 430.7454
910.60 431.702
910.70 432.6585
910.80 433.6151
910.90 434.5717
911.00 435.5283
911.10 436.4849
911.20 437.4415
911.30 438.3981
911.40 439.3547
911.50 440.3112
911.60 441.2678
911.70 442.2244
911.80 443.181
911.90 444.1376
912.00 445.0942
912.10 446.0508
912.20 447.0074
912.30 447.9639
912.40 448.9205
912.50 449.8771
912.60 450.8337
912.70 451.7903
912.80 452.7469
912.90 453.7035
913.00 454.5701
913.10 455.4244
913.20 456.2787
913.30 457.133
913.40 457.9874
913.50 458.8417
913.60 459.696
913.70 460.4524
913.80 461.2047
913.90 461.9571
914.00 462.7094
914.10 463.4617
914.20 464.214
914.30 464.9663
914.40 465.7186
914.50 466.471
914.60 467.2233
914.70 467.9756
914.80 468.7279
914.90 469.4802
915.00 470.2325
915.10 470.9849
915.20 471.7372
915.30 472.4895
915.40 473.2418
915.50 473.9941
915.60 474.7464
915.70 475.4987
915.80 476.2511
915.90 477.0034
916.00 477.7557
916.10 478.508
916.20 479.2603
916.30 480.0126
916.40 480.7693
916.50 481.5756
916.60 482.382
916.70 483.1884
916.80 483.9947
916.90 484.8011
917.00 485.6075
917.10 486.33
917.20 486.4377
917.30 486.5454
917.40 486.6531
917.50 486.7608
917.60 486.8685
917.70 486.9762
917.80 487.084
917.90 487.1917
918.00 487.2994
918.10 487.4071
918.20 487.5148
918.30 487.6225
918.40 487.7302
918.50 487.8379
918.60 487.9456
918.70 488.0534
918.80 488.1611
918.90 488.2688
919.00 488.3765
919.10 488.4842
919.20 488.5919
919.30 488.6996
919.40 488.8073
919.50 488.915
919.60 489.0228
919.70 489.1305
919.80 489.2382
919.90 489.3371
920.00 489.3568
920.10 489.3766
920.20 489.3963
920.30 489.4161
920.40 489.4358
920.50 489.4556
920.60 489.4998
920.70 489.7427
920.80 489.9856
920.90 490.2285
921.00 490.4714
921.10 490.7142
921.20 490.9571
921.30 491.2
921.40 491.4429
921.50 491.6857
921.60 491.9286
921.70 492.1715
921.80 492.4144
921.90 492.6573
922.00 492.9001
922.10 493.143
922.20 493.3859
922.30 493.6288
922.40 493.8716
922.50 494.1145
922.60 494.3574
922.70 494.6003
922.80 494.8432
922.90 495.086
923.00 495.3289
923.10 495.5718
923.20 495.8147
923.30 496.0575
923.40 496.3004
923.50 496.7225
923.60 497.1561
923.70 497.5896
923.80 498.0231
923.90 498.4567
924.00 498.8902
924.10 499.3238
924.20 499.5303
924.30 499.7171
924.40 499.9038
924.50 500.0906
924.60 500.2774
924.70 500.4642
924.80 500.651
924.90 500.8377
925.00 501.0245
925.10 501.2113
925.20 501.3981
925.30 501.5849
925.40 501.7716
925.50 501.9584
925.60 502.1452
925.70 502.332
925.80 502.5188
925.90 502.7055
926.00 502.8923
926.10 503.0791
926.20 503.2659
926.30 503.4527
926.40 503.6394
926.50 503.8262
926.60 504.013
926.70 504.1998
926.80 504.3865
926.90 504.5733
927.00 504.6777
927.10 504.7293
927.20 504.781
927.30 504.8326
927.40 504.8843
927.50 504.936
927.60 504.9876
927.70 505.5955
927.80 506.6585
927.90 507.7215
928.00 508.7845
928.10 509.8474
928.20 510.9104
928.30 511.9734
928.40 513.0364
928.50 514.0994
928.60 515.1624
928.70 516.2254
928.80 517.2883
928.90 518.3513
929.00 519.4143
929.10 520.4773
929.20 521.5403
929.30 522.6033
929.40 523.6663
929.50 524.7292
929.60 525.7922
929.70 526.8552
929.80 527.9182
929.90 528.9812
930.00 530.0442
930.10 531.1071
930.20 532.1701
930.30 533.2331
930.40 534.2961
930.50 535.3547
930.60 536.3776
930.70 537.4005
930.80 538.4234
930.90 539.4464
931.00 540.4693
931.10 541.4922
931.20 542.5036
931.30 542.9509
931.40 543.3982
931.50 543.8455
931.60 544.2928
931.70 544.74
931.80 545.1873
931.90 545.6346
932.00 546.0819
932.10 546.5292
932.20 546.9765
932.30 547.4238
932.40 547.871
932.50 548.3183
932.60 548.7656
932.70 549.2129
932.80 549.6602
932.90 550.1075
933.00 550.5548
933.10 551.002
933.20 551.4493
933.30 551.8966
933.40 552.3439
933.50 552.7912
933.60 553.2385
933.70 553.6858
933.80 554.133
933.90 554.5803
934.00 555.0276
934.10 555.523
934.20 556.0796
934.30 556.6362
934.40 557.1928
934.50 557.7494
934.60 558.3061
934.70 558.8627
934.80 559.45
934.90 560.1059
935.00 560.7617
935.10 561.4175
935.20 562.0734
935.30 562.7292
935.40 563.3851
935.50 564.0409
935.60 564.6967
935.70 565.3526
935.80 566.0084
935.90 566.6642
936.00 567.3201
936.10 567.9759
936.20 568.6317
936.30 569.2876
936.40 569.9434
936.50 570.5992
936.60 571.2551
936.70 571.9109
936.80 572.5668
936.90 573.2226
937.00 573.8784
937.10 574.5343
937.20 575.1901
937.30 575.8459
937.40 576.5018
937.50 577.1576
937.60 577.8134
937.70 578.4446
937.80 579.0593
937.90 579.6741
938.00 580.2888
938.10 580.9036
938.20 581.5183
938.30 582.133
938.40 582.821
938.50 583.6062
938.60 584.3913
938.70 585.1765
938.80 585.9616
938.90 586.7468
939.00 587.5319
939.10 588.3171
939.20 589.1022
939.30 589.8873
939.40 590.6725
939.50 591.4576
939.60 592.2428
939.70 593.0279
939.80 593.8131
939.90 594.5982
940.00 595.3833
940.10 596.1685
940.20 596.9536
940.30 597.7388
940.40 598.5239
940.50 599.3091
940.60 600.0942
940.70 600.8794
940.80 601.6645
940.90 602.4496
941.00 603.2348
941.10 604.0199
941.20 604.8051
941.30 605.6415
941.40 606.5137
941.50 607.3858
941.60 608.2579
941.70 609.13
941.80 610.0021
941.90 610.8743
942.00 611.7062
942.10 612.4754
942.20 613.2445
942.30 614.0137
942.40 614.7828
942.50 615.5519
942.60 616.3211
942.70 617.0902
942.80 617.8594
942.90 618.6285
943.00 619.3977
943.10 620.1668
943.20 620.936
943.30 621.7051
943.40 622.4743
943.50 623.2434
943.60 624.0126
943.70 624.7817
943.80 625.5508
943.90 626.32
944.00 627.0891
944.10 627.8583
944.20 628.6274
944.30 629.3966
944.40 630.1657
944.50 630.9349
944.60 631.704
944.70 632.4732
944.80 633.2423
944.90 633.9921
945.00 634.7142
945.10 635.4363
945.20 636.1583
945.30 636.8804
945.40 637.6024
945.50 638.3245
945.60 638.9127
945.70 638.891
945.80 638.8693
945.90 638.8476
946.00 638.8259
946.10 638.8042
946.20 638.7825
946.30 638.7608
946.40 638.7391
946.50 638.7175
946.60 638.6958
946.70 638.6741
946.80 638.6524
946.90 638.6307
947.00 638.609
947.10 638.5873
947.20 638.5656
947.30 638.5439
947.40 638.5223
947.50 638.5006
947.60 638.4789
947.70 638.4572
947.80 638.4355
947.90 638.4138
948.00 638.3921
948.10 638.3704
948.20 638.3487
948.30 638.327
948.40 638.3054
948.50 638.2725
948.60 638.0912
948.70 637.9099
948.80 637.7286
948.90 637.5472
949.00 637.3659
949.10 637.1846
949.20 637.0033
949.30 636.973
949.40 636.978
949.50 636.9831
949.60 636.9882
949.70 636.9933
949.80 636.9983
949.90 637.0034
950.00 637.0085
950.10 637.0136
950.20 637.0186
950.30 637.0237
950.40 637.0288
950.50 637.0339
950.60 637.0389
950.70 637.044
950.80 637.0491
950.90 637.0542
951.00 637.0592
951.10 637.0643
951.20 637.0694
951.30 637.0745
951.40 637.0795
951.50 637.0846
951.60 637.0897
951.70 637.0948
951.80 637.0998
951.90 637.1049
952.00 637.11
952.10 637.1151
952.20 637.1886
952.30 637.3159
952.40 637.4433
952.50 637.5706
952.60 637.698
952.70 637.8253
952.80 637.9527
952.90 638.1227
953.00 638.4081
953.10 638.6934
953.20 638.9788
953.30 639.2642
953.40 639.5495
953.50 639.8349
953.60 640.1203
953.70 640.4056
953.80 640.691
953.90 640.9764
954.00 641.2617
954.10 641.5471
954.20 641.8325
954.30 642.1178
954.40 642.4032
954.50 642.6886
954.60 642.9739
954.70 643.2593
954.80 643.5447
954.90 643.8301
955.00 644.1154
955.10 644.4008
955.20 644.6862
955.30 644.9715
955.40 645.2569
955.50 645.5423
955.60 645.8276
955.70 646.113
955.80 646.3984
955.90 646.6115
956.00 646.8167
956.10 647.0218
956.20 647.2269
956.30 647.4321
956.40 647.6372
956.50 647.8423
956.60 648.1248
956.70 648.4658
956.80 648.8067
956.90 649.1476
957.00 649.4885
957.10 649.8294
957.20 650.1704
957.30 650.5113
957.40 650.8522
957.50 651.1931
957.60 651.534
957.70 651.875
957.80 652.2159
957.90 652.5568
958.00 652.8977
958.10 653.2386
958.20 653.5795
958.30 653.9205
958.40 654.2614
958.50 654.6023
958.60 654.9432
958.70 655.2841
958.80 655.6251
958.90 655.966
959.00 656.3069
959.10 656.6478
959.20 656.9887
959.30 657.3297
959.40 657.6706
959.50 658.0107
959.60 658.34
959.70 658.6694
959.80 658.9987
959.90 659.328
960.00 659.6574
960.10 659.9867
960.20 660.3161
960.30 660.9803
960.40 661.7814
960.50 662.5825
960.60 663.3836
960.70 664.1847
960.80 664.9858
960.90 665.7869
961.00 666.5879
961.10 667.389
961.20 668.1901
961.30 668.9912
961.40 669.7923
961.50 670.5934
961.60 671.3945
961.70 672.1955
961.80 672.9966
961.90 673.7977
962.00 674.5988
962.10 675.3999
962.20 676.201
962.30 677.0021
962.40 677.8031
962.50 678.6042
962.60 679.4053
962.70 680.2064
962.80 681.0075
962.90 681.8086
963.00 682.6097
963.10 683.4107
963.20 684.2237
963.30 685.1563
963.40 686.0888
963.50 687.0214
963.60 687.954
963.70 688.8866
963.80 689.8192
963.90 690.7518
964.00 691.338
964.10 691.7759
964.20 692.2137
964.30 692.6516
964.40 693.0894
964.50 693.5273
964.60 693.9651
964.70 694.4029
964.80 694.8408
964.90 695.2786
965.00 695.7165
965.10 696.1543
965.20 696.5922
965.30 697.03
965.40 697.4678
965.50 697.9057
965.60 698.3435
965.70 698.7814
965.80 699.2192
965.90 699.6571
966.00 700.0949
966.10 700.5327
966.20 700.9706
966.30 701.4084
966.40 701.8463
966.50 702.2841
966.60 702.722
966.70 703.1598
966.80 703.5977
966.90 704.0355
967.00 704.4523
967.10 704.8681
967.20 705.2838
967.30 705.6995
967.40 706.1152
967.50 706.531
967.60 706.9467
967.70 707.5061
967.80 708.1928
967.90 708.8795
968.00 709.5662
968.10 710.2529
968.20 710.9396
968.30 711.6263
968.40 712.3131
968.50 712.9998
968.60 713.6865
968.70 714.3732
968.80 715.0599
968.90 715.7466
969.00 716.4333
969.10 717.1201
969.20 717.8068
969.30 718.4935
969.40 719.1802
969.50 719.8669
969.60 720.5536
969.70 721.2403
969.80 721.9271
969.90 722.6138
970.00 723.3005
970.10 723.9872
970.20 724.6739
970.30 725.3606
970.40 726.0473
970.50 726.7341
970.60 727.4208
970.70 728.2476
970.80 729.1498
970.90 730.0521
971.00 730.9543
971.10 731.8565
971.20 732.7588
971.30 733.661
971.40 734.5168
971.50 735.1866
971.60 735.8565
971.70 736.5263
971.80 737.1961
971.90 737.866
972.00 738.5358
972.10 739.2056
972.20 739.8755
972.30 740.5453
972.40 741.2151
972.50 741.885
972.60 742.5548
972.70 743.2247
972.80 743.8945
972.90 744.5643
973.00 745.2342
973.10 745.904
973.20 746.5738
973.30 747.2437
973.40 747.9135
973.50 748.5833
973.60 749.2532
973.70 749.923
973.80 750.5928
973.90 751.2627
974.00 751.9325
974.10 752.6024
974.20 753.2722
974.30 753.942
974.40 754.5275
974.50 754.7955
974.60 755.0635
974.70 755.3316
974.80 755.5996
974.90 755.8676
975.00 756.1357
975.10 756.4037
975.20 756.4814
975.30 756.485
975.40 756.4886
975.50 756.4922
975.60 756.4959
975.70 756.4995
975.80 756.5031
975.90 756.5067
976.00 756.5104
976.10 756.514
976.20 756.5176
976.30 756.5212
976.40 756.5249
976.50 756.5285
976.60 756.5321
976.70 756.5357
976.80 756.5394
976.90 756.543
977.00 756.5466
977.10 756.5502
977.20 756.5539
977.30 756.5575
977.40 756.5611
977.50 756.5647
977.60 756.5684
977.70 756.572
977.80 756.5756
977.90 756.5792
978.00 756.5829
978.10 756.5865
978.20 756.601
978.30 756.6225
978.40 756.6439
978.50 756.6654
978.60 756.6869
978.70 756.7083
978.80 756.7298
978.90 756.7054
979.00 756.2679
979.10 755.8304
979.20 755.3929
979.30 754.9554
979.40 754.5179
979.50 754.0804
979.60 753.6429
979.70 753.2054
979.80 752.768
979.90 752.3305
980.00 751.893
980.10 751.4555
980.20 751.018
980.30 750.5805
980.40 750.143
980.50 749.7055
980.60 749.268
980.70 748.8305
980.80 748.393
980.90 747.9556
981.00 747.5181
981.10 747.0806
981.20 746.6431
981.30 746.2056
981.40 745.7681
981.50 745.3306
981.60 744.8931
981.70 744.4556
981.80 744.0181
981.90 743.5806
982.00 743.0735
982.10 742.555
982.20 742.0365
982.30 741.5181
982.40 740.9996
982.50 740.4811
982.60 739.9626
982.70 739.2792
982.80 738.2454
982.90 737.2117
983.00 736.1779
983.10 735.1441
983.20 734.1103
983.30 733.0765
983.40 732.0427
983.50 731.0089
983.60 729.9751
983.70 728.9413
983.80 727.9076
983.90 726.8738
984.00 725.84
984.10 724.8062
984.20 723.7724
984.30 722.7386
984.40 721.7048
984.50 720.671
984.60 719.6373
984.70 718.6035
984.80 717.5697
984.90 716.5359
985.00 715.5021
985.10 714.4683
985.20 713.4345
985.30 712.4007
985.40 711.3669
985.50 710.3332
985.60 709.2994
985.70 708.2656
985.80 706.98
985.90 705.6866
986.00 704.3933
986.10 703.0999
986.20 701.8065
986.30 700.5131
986.40 699.2198
986.50 698.0775
986.60 697.1619
986.70 696.2462
986.80 695.3306
986.90 694.415
987.00 693.4993
987.10 692.5837
987.20 691.6681
987.30 690.7524
987.40 689.8368
987.50 688.9212
987.60 688.0056
987.70 687.0899
987.80 686.1743
987.90 685.2587
988.00 684.343
988.10 683.4274
988.20 682.5118
988.30 681.5961
988.40 680.6805
988.50 679.7649
988.60 678.8493
988.70 677.9336
988.80 677.018
988.90 676.1024
989.00 675.1867
989.10 674.2711
989.20 673.3555
989.30 672.4398
989.40 671.5242
989.50 670.6086
989.60 669.762
989.70 668.9207
989.80 668.0793
989.90 667.238
990.00 666.3967
990.10 665.5553
990.20 664.714
990.30 663.75
990.40 662.537
990.50 661.3239
990.60 660.1109
990.70 658.8979
990.80 657.6849
990.90 656.4718
991.00 655.2588
991.10 654.0458
991.20 652.8328
991.30 651.6198
991.40 650.4067
991.50 649.1937
991.60 647.9807
991.70 646.7677
991.80 645.5546
991.90 644.3416
992.00 643.1286
992.10 641.9156
992.20 640.7026
992.30 639.4895
992.40 638.2765
992.50 637.0635
992.60 635.8505
992.70 634.6375
992.80 633.4244
992.90 632.2114
993.00 630.9984
993.10 629.7854
993.20 628.5723
993.30 627.3593
993.40 626.2091
993.50 625.0798
993.60 623.9505
993.70 622.8212
993.80 621.6919
993.90 620.5626
994.00 619.4333
994.10 618.3841
994.20 617.9223
994.30 617.4605
994.40 616.9986
994.50 616.5368
994.60 616.075
994.70 615.6132
994.80 615.1514
994.90 614.6896
995.00 614.2278
995.10 613.7659
995.20 613.3041
995.30 612.8423
995.40 612.3805
995.50 611.9187
995.60 611.4569
995.70 610.995
995.80 610.5332
995.90 610.0714
996.00 609.6096
996.10 609.1478
996.20 608.686
996.30 608.2241
996.40 607.7623
996.50 607.3005
996.60 606.8387
996.70 606.3769
996.80 605.9151
996.90 605.4533
997.00 604.9914
997.10 604.5296
997.20 604.2336
997.30 604.1667
997.40 604.0997
997.50 604.0327
997.60 603.9658
997.70 603.8988
997.80 603.8318
997.90 603.7649
998.00 603.7756
998.10 603.8095
998.20 603.8434
998.30 603.8773
998.40 603.9112
998.50 603.9451
998.60 603.979
998.70 604.0129
998.80 604.0468
998.90 604.0808
999.00 604.1147
999.10 604.1486
999.20 604.1825
999.30 604.2164
999.40 604.2503
999.50 604.2842
999.60 604.3181
999.70 604.352
999.80 604.3859
999.90 604.4198
1000.00 604.4537
1000.10 604.4876
1000.20 604.5215
1000.30 604.5555
1000.40 604.5894
1000.50 604.6233
1000.60 604.6572
1000.70 604.6911
1000.80 604.725
1000.90 604.7589
1001.00 604.7928
1001.10 604.7887
1001.20 604.7846
1001.30 604.7805
1001.40 604.7764
1001.50 604.7723
1001.60 604.7682
1001.70 604.7641
1001.80 605.0143
1001.90 605.8575
1002.00 606.7008
1002.10 607.5441
1002.20 608.3874
1002.30 609.2306
1002.40 610.0739
1002.50 610.9172
1002.60 611.7605
1002.70 612.6038
1002.80 613.447
1002.90 614.2903
1003.00 615.1336
1003.10 615.9769
1003.20 616.8202
1003.30 617.6634
1003.40 618.5067
1003.50 619.35
1003.60 620.1933
1003.70 621.0366
1003.80 621.8798
1003.90 622.7231
1004.00 623.5664
1004.10 624.4097
1004.20 625.253
1004.30 626.0962
1004.40 626.9395
1004.50 627.7828
1004.60 628.6261
1004.70 629.4694
1004.80 630.3126
1004.90 631.1792
1005.00 632.0807
1005.10 632.9821
1005.20 633.8836
1005.30 634.7851
1005.40 635.6865
1005.50 636.588
1005.60 637.4894
1005.70 638.2633
1005.80 638.9825
1005.90 639.7017
1006.00 640.4208
1006.10 641.14
1006.20 641.8592
1006.30 642.5783
1006.40 643.2975
1006.50 644.0167
1006.60 644.7359
1006.70 645.455
1006.80 646.1742
1006.90 646.8934
1007.00 647.6126
1007.10 648.3317
1007.20 649.0509
1007.30 649.7701
1007.40 650.4892
1007.50 651.2084
1007.60 651.9276
1007.70 652.6468
1007.80 653.3659
1007.90 654.0851
1008.00 654.8043
1008.10 655.5235
1008.20 656.2426
1008.30 656.9618
1008.40 657.681
1008.50 658.4001
1008.60 659.1193
1008.70 659.8385
1008.80 660.5463
1008.90 661.2465
1009.00 661.9468
1009.10 662.647
1009.20 663.3472
1009.30 664.0475
1009.40 664.7477
1009.50 665.4479
1009.60 666.0866
1009.70 666.7184
1009.80 667.3501
1009.90 667.9819
1010.00 668.6137
1010.10 669.2455
1010.20 669.8773
1010.30 670.5091
1010.40 671.1409
1010.50 671.7727
1010.60 672.4045
1010.70 673.0363
1010.80 673.6681
1010.90 674.2999
1011.00 674.9317
1011.10 675.5634
1011.20 676.1952
1011.30 676.827
1011.40 677.4588
1011.50 678.0906
1011.60 678.7224
1011.70 679.3542
1011.80 679.986
1011.90 680.6178
1012.00 681.2496
1012.10 681.8814
1012.20 682.5132
1012.30 683.145
1012.40 683.7767
1012.50 684.4085
1012.60 685.0403
1012.70 685.6054
1012.80 686.1537
1012.90 686.7021
1013.00 687.2504
1013.10 687.7988
1013.20 688.3472
1013.30 688.8955
1013.40 689.4439
1013.50 689.417
1013.60 689.3901
1013.70 689.3631
1013.80 689.3362
1013.90 689.3093
1014.00 689.2824
1014.10 689.2555
1014.20 689.2286
1014.30 689.2017
1014.40 689.1748
1014.50 689.1479
1014.60 689.121
1014.70 689.0941
1014.80 689.0672
1014.90 689.0403
1015.00 689.0134
1015.10 688.9865
1015.20 688.9596
1015.30 688.9327
1015.40 688.9057
1015.50 688.8788
1015.60 688.8519
1015.70 688.825
1015.80 688.7981
1015.90 688.7712
1016.00 688.7443
1016.10 688.7174
1016.20 688.6905
1016.30 688.6636
1016.40 688.6367
1016.50 688.6098
1016.60 688.4708
1016.70 688.3038
1016.80 688.1368
1016.90 687.9699
1017.00 687.8029
1017.10 687.6359
1017.20 687.4689
1017.30 687.3019
1017.40 687.9
1017.50 688.4981
1017.60 689.0961
1017.70 689.6942
1017.80 690.2923
1017.90 690.8904
1018.00 691.4884
1018.10 692.0865
1018.20 692.6846
1018.30 693.2827
1018.40 693.8807
1018.50 694.4788
1018.60 695.0769
1018.70 695.675
1018.80 696.273
1018.90 696.8711
1019.00 697.4692
1019.10 698.0673
1019.20 698.6653
1019.30 699.2634
1019.40 699.8615
1019.50 700.4596
1019.60 701.0576
1019.70 701.6557
1019.80 702.2538
1019.90 702.8519
1020.00 703.4499
1020.10 704.048
1020.20 704.6461
1020.30 705.2442
1020.40 705.8422
1020.50 706.6048
1020.60 707.4771
1020.70 708.3495
1020.80 709.2218
1020.90 710.0941
1021.00 710.9664
1021.10 711.8387
1021.20 712.711
1021.30 713.4949
1021.40 714.2568
1021.50 715.0186
1021.60 715.7805
1021.70 716.5424
1021.80 717.3042
1021.90 718.0661
1022.00 718.8279
1022.10 719.5898
1022.20 720.3517
1022.30 721.1135
1022.40 721.8754
1022.50 722.6372
1022.60 723.3991
1022.70 724.161
1022.80 724.9228
1022.90 725.6847
1023.00 726.4466
1023.10 727.2084
1023.20 727.9703
1023.30 728.7321
1023.40 729.494
1023.50 730.2559
1023.60 731.0177
1023.70 731.7796
1023.80 732.5414
1023.90 733.3033
1024.00 734.0652
1024.10 734.827
1024.20 735.5889
1024.30 736.3507
1024.40 737.0294
1024.50 737.5832
1024.60 738.1371
1024.70 738.6909
1024.80 739.2447
1024.90 739.7986
1025.00 740.3524
1025.10 740.9062
1025.20 741.4576
1025.30 742.0066
1025.40 742.5556
1025.50 743.1046
1025.60 743.6535
1025.70 744.2025
1025.80 744.7515
1025.90 745.3005
1026.00 745.8494
1026.10 746.3984
1026.20 746.9474
1026.30 747.4964
1026.40 748.0453
1026.50 748.5943
1026.60 749.1433
1026.70 749.6922
1026.80 750.2412
1026.90 750.7902
1027.00 751.3392
1027.10 751.8881
1027.20 752.4371
1027.30 752.9861
1027.40 753.5351
1027.50 754.084
1027.60 754.633
1027.70 755.182
1027.80 755.731
1027.90 756.2799
1028.00 756.8289
1028.10 757.3779
1028.20 757.9269
1028.30 758.4758
1028.40 759.2393
1028.50 760.0028
1028.60 760.7663
1028.70 761.5298
1028.80 762.2933
1028.90 763.0567
1029.00 763.8202
1029.10 764.5148
1029.20 764.5893
1029.30 764.6638
1029.40 764.7382
1029.50 764.8127
1029.60 764.8872
1029.70 764.9616
1029.80 765.0361
1029.90 765.1106
1030.00 765.185
1030.10 765.2595
1030.20 765.334
1030.30 765.4085
1030.40 765.4829
1030.50 765.5574
1030.60 765.6319
1030.70 765.7063
1030.80 765.7808
1030.90 765.8553
1031.00 765.9298
1031.10 766.0042
1031.20 766.0787
1031.30 766.1532
1031.40 766.2276
1031.50 766.3021
1031.60 766.3766
1031.70 766.451
1031.80 766.5255
1031.90 766.6
1032.00 766.6745
1032.10 766.7489
1032.20 766.8234
1032.30 766.8327
1032.40 766.7769
1032.50 766.721
1032.60 766.6652
1032.70 766.6094
1032.80 766.5535
1032.90 766.4977
1033.00 766.4418
1033.10 767.2051
1033.20 768.5145
1033.30 769.8239
1033.40 771.1333
1033.50 772.4427
1033.60 773.7521
1033.70 775.0615
1033.80 776.3708
1033.90 777.6802
1034.00 778.9896
1034.10 780.299
1034.20 781.6084
1034.30 782.9178
1034.40 784.2272
1034.50 785.5365
1034.60 786.8459
1034.70 788.1553
1034.80 789.4647
1034.90 790.7741
1035.00 792.0835
1035.10 793.3928
1035.20 794.7022
1035.30 796.0116
1035.40 797.321
1035.50 798.6304
1035.60 799.9398
1035.70 801.2492
1035.80 802.5585
1035.90 803.8679
1036.00 805.1773
1036.10 806.4867
1036.20 807.7961
1036.30 809.1905
1036.40 810.6061
1036.50 812.0218
1036.60 813.4374
1036.70 814.8531
1036.80 816.2687
1036.90 817.6844
1037.00 819.1
1037.10 819.8763
1037.20 820.5814
1037.30 821.2866
1037.40 821.9918
1037.50 822.697
1037.60 823.4022
1037.70 824.1073
1037.80 824.8125
1037.90 825.5177
1038.00 826.2229
1038.10 826.9281
1038.20 827.6333
1038.30 828.3384
1038.40 829.0436
1038.50 829.7488
1038.60 830.454
1038.70 831.1592
1038.80 831.8643
1038.90 832.5695
1039.00 833.2747
1039.10 833.9799
1039.20 834.6851
1039.30 835.3903
1039.40 836.0954
1039.50 836.8006
1039.60 837.5058
1039.70 838.211
1039.80 838.9162
1039.90 839.6213
1040.00 840.3265
1040.10 841.0317
1040.20 841.741
1040.30 842.487
1040.40 843.233
1040.50 843.9791
1040.60 844.7251
1040.70 845.4711
1040.80 846.2172
1040.90 846.9632
1041.00 847.6131
1041.10 847.8787
1041.20 848.1442
1041.30 848.4097
1041.40 848.6753
1041.50 848.9408
1041.60 849.2063
1041.70 849.4719
1041.80 849.7374
1041.90 850.0029
1042.00 850.2685
1042.10 850.534
1042.20 850.7995
1042.30 851.0651
1042.40 851.3306
1042.50 851.5961
1042.60 851.8617
1042.70 852.1272
1042.80 852.3928
1042.90 852.6583
1043.00 852.9238
1043.10 853.1894
1043.20 853.4549
1043.30 853.7204
1043.40 853.986
1043.50 854.2515
1043.60 854.517
1043.70 854.7826
1043.80 855.0481
1043.90 855.3136
1044.00 855.5792
1044.10 855.8447
1044.20 856.0676
1044.30 856.1199
1044.40 856.1722
1044.50 856.2245
1044.60 856.2768
1044.70 856.3291
1044.80 856.3814
1044.90 856.4337
1045.00 856.6971
1045.10 857.4529
1045.20 858.2087
1045.30 858.9645
1045.40 859.7203
1045.50 860.4761
1045.60 861.2319
1045.70 861.9877
1045.80 862.7435
1045.90 863.4993
1046.00 864.2551
1046.10 865.0109
1046.20 865.7667
1046.30 866.5225
1046.40 867.2784
1046.50 868.0342
1046.60 868.79
1046.70 869.5458
1046.80 870.3016
1046.90 871.0574
1047.00 871.8132
1047.10 872.569
1047.20 873.3248
1047.30 874.0806
1047.40 874.8364
1047.50 875.5922
1047.60 876.348
1047.70 877.1038
1047.80 877.8596
1047.90 878.6154
1048.00 879.3712
1048.10 880.127
1048.20 880.8565
1048.30 881.5245
1048.40 882.1925
1048.50 882.8606
1048.60 883.5286
1048.70 884.1966
1048.80 884.8646
1048.90 885.5326
1049.00 886.0472
1049.10 886.2036
1049.20 886.3601
1049.30 886.5165
1049.40 886.6729
1049.50 886.8294
1049.60 886.9858
1049.70 887.1423
1049.80 887.2987
1049.90 887.4551
1050.00 887.6116
1050.10 887.768
1050.20 887.9245
1050.30 888.0809
1050.40 888.2374
1050.50 888.3938
1050.60 888.5502
1050.70 888.7067
1050.80 888.8631
1050.90 889.0196
1051.00 889.176
1051.10 889.3324
1051.20 889.4889
1051.30 889.6453
1051.40 889.8018
1051.50 889.9582
1051.60 890.1146
1051.70 890.2711
1051.80 890.4275
1051.90 890.584
1052.00 890.7404
1052.10 890.8969
1052.20 891.1229
1052.30 891.6271
1052.40 892.1314
1052.50 892.6357
1052.60 893.1399
1052.70 893.6442
1052.80 894.1485
1052.90 894.6527
1053.00 895.2123
1053.10 895.9932
1053.20 896.7741
1053.30 897.5551
1053.40 898.336
1053.50 899.1169
1053.60 899.8978
1053.70 900.6787
1053.80 901.4596
1053.90 902.2405
1054.00 903.0214
1054.10 903.8023
1054.20 904.5832
1054.30 905.3641
1054.40 906.145
1054.50 906.926
1054.60 907.7069
1054.70 908.4878
1054.80 909.2687
1054.90 910.0496
1055.00 910.8305
1055.10 911.6114
1055.20 912.3923
1055.30 913.1732
1055.40 913.9541
1055.50 914.735
1055.60 915.5159
1055.70 916.2969
1055.80 917.0778
1055.90 917.8587
1056.00 918.6396
1056.10 919.4205
1056.20 920.2014
1056.30 920.6754
1056.40 921.1494
1056.50 921.6235
1056.60 922.0975
1056.70 922.5715
1056.80 923.0456
1056.90 923.5196
1057.00 923.9936
1057.10 923.7941
1057.20 923.5197
1057.30 923.2454
1057.40 922.971
1057.50 922.6967
1057.60 922.4223
1057.70 922.148
1057.80 921.8737
1057.90 921.5993
1058.00 921.325
1058.10 921.0506
1058.20 920.7763
1058.30 920.5019
1058.40 920.2276
1058.50 919.9532
1058.60 919.6789
1058.70 919.4045
1058.80 919.1302
1058.90 918.8558
1059.00 918.5815
1059.10 918.3071
1059.20 918.0328
1059.30 917.7584
1059.40 917.4841
1059.50 917.2097
1059.60 916.9354
1059.70 916.661
1059.80 916.3867
1059.90 916.1123
1060.00 915.838
1060.10 915.5636
1060.20 915.2893
1060.30 915.1039
1060.40 914.9779
1060.50 914.8518
1060.60 914.7258
1060.70 914.5997
1060.80 914.4737
1060.90 914.3476
1061.00 914.2216
1061.10 914.6339
1061.20 915.4053
1061.30 916.1766
1061.40 916.9479
1061.50 917.7192
1061.60 918.4906
1061.70 919.2619
1061.80 920.0332
1061.90 920.8046
1062.00 921.5759
1062.10 922.3472
1062.20 923.1185
1062.30 923.8899
1062.40 924.6612
1062.50 925.4325
1062.60 926.2038
1062.70 926.9752
1062.80 927.7465
1062.90 928.5178
1063.00 929.2892
1063.10 930.0605
1063.20 930.8318
1063.30 931.6031
1063.40 932.3745
1063.50 933.1458
1063.60 933.9171
1063.70 934.6884
1063.80 935.4598
1063.90 936.2311
1064.00 937.0024
1064.10 937.7737
1064.20 938.5451
1064.30 939.3095
1064.40 940.0466
1064.50 940.7836
1064.60 941.5207
1064.70 942.2577
1064.80 942.9948
1064.90 943.7318
1065.00 944.4689
1065.10 945.1404
1065.20 945.5499
1065.30 945.9593
1065.40 946.3688
1065.50 946.7783
1065.60 947.1878
1065.70 947.5973
1065.80 948.0067
1065.90 948.4162
1066.00 948.8257
1066.10 949.2352
1066.20 949.6447
1066.30 950.0541
1066.40 950.4636
1066.50 950.8731
1066.60 951.2826
1066.70 951.6921
1066.80 952.1015
1066.90 952.511
1067.00 952.9205
1067.10 953.33
1067.20 953.7395
1067.30 954.1489
1067.40 954.5584
1067.50 954.9679
1067.60 955.3774
1067.70 955.7869
1067.80 956.1963
1067.90 956.6058
1068.00 957.0153
1068.10 957.4248
1068.20 957.8343
1068.30 958.2437
1068.40 958.7342
1068.50 959.2594
1068.60 959.7846
1068.70 960.3097
1068.80 960.8349
1068.90 961.3601
1069.00 961.8853
1069.10 962.4104
1069.20 962.9956
1069.30 963.6209
1069.40 964.2461
1069.50 964.8713
1069.60 965.4965
1069.70 966.1217
1069.80 966.7469
1069.90 967.3722
1070.00 967.9974
1070.10 968.6226
1070.20 969.2478
1070.30 969.873
1070.40 970.4982
1070.50 971.1234
1070.60 971.7487
1070.70 972.3739
1070.80 972.9991
1070.90 973.6243
1071.00 974.2495
1071.10 974.8747
1071.20 975.4999
1071.30 976.1252
1071.40 976.7504
1071.50 977.3756
1071.60 978.0008
1071.70 978.626
1071.80 979.2512
1071.90 979.8764
1072.00 980.5017
1072.10 981.1269
1072.20 981.7521
1072.30 982.3773
1072.40 982.9849
1072.50 983.4343
1072.60 983.8837
1072.70 984.3331
1072.80 984.7825
1072.90 985.2319
1073.00 985.6813
1073.10 986.1306
1073.20 986.58
1073.30 987.3099
1073.40 988.0397
1073.50 988.7695
1073.60 989.4993
1073.70 990.2292
1073.80 990.959
1073.90 991.6888
1074.00 992.4186
1074.10 993.1485
1074.20 993.8783
1074.30 994.6081
1074.40 995.3379
1074.50 996.0678
1074.60 996.7976
1074.70 997.5274
1074.80 998.2572
1074.90 998.9871
1075.00 999.7169
1075.10 1000.447
1075.20 1001.177
1075.30 1001.906
1075.40 1002.636
1075.50 1003.366
1075.60 1004.096
1075.70 1004.826
1075.80 1005.555
1075.90 1006.285
1076.00 1007.015
1076.10 1007.745
1076.20 1008.475
1076.30 1009.205
1076.40 1009.934
1076.50 1010.736
1076.60 1011.644
1076.70 1012.552
1076.80 1013.46
1076.90 1014.368
1077.00 1015.276
1077.10 1016.184
1077.20 1017.092
1077.30 1017.955
1077.40 1018.641
1077.50 1019.326
1077.60 1020.012
1077.70 1020.697
1077.80 1021.383
1077.90 1022.069
1078.00 1022.754
1078.10 1023.44
1078.20 1024.126
1078.30 1024.811
1078.40 1025.497
1078.50 1026.182
1078.60 1026.868
1078.70 1027.554
1078.80 1028.239
1078.90 1028.925
1079.00 1029.61
1079.10 1030.296
1079.20 1030.982
1079.30 1031.667
1079.40 1032.353
1079.50 1033.038
1079.60 1033.724
1079.70 1034.41
1079.80 1035.095
1079.90 1035.781
1080.00 1036.466
1080.10 1037.152
1080.20 1037.838
1080.30 1038.523
1080.40 1039.209
1080.50 1039.894
1080.60 1040.512
1080.70 1041.06
1080.80 1041.609
1080.90 1042.157
1081.00 1042.706
1081.10 1043.255
1081.20 1043.803
1081.30 1044.352
1081.40 1044.558
1081.50 1044.251
1081.60 1043.943
1081.70 1043.635
1081.80 1043.328
1081.90 1043.02
1082.00 1042.713
1082.10 1042.405
1082.20 1042.097
1082.30 1041.79
1082.40 1041.482
1082.50 1041.175
1082.60 1040.867
1082.70 1040.559
1082.80 1040.252
1082.90 1039.944
1083.00 1039.637
1083.10 1039.329
1083.20 1039.021
1083.30 1038.714
1083.40 1038.406
1083.50 1038.099
1083.60 1037.791
1083.70 1037.483
1083.80 1037.176
1083.90 1036.868
1084.00 1036.561
1084.10 1036.253
1084.20 1035.945
1084.30 1035.638
1084.40 1035.33
1084.50 1035.023
1084.60 1034.715
1084.70 1034.464
1084.80 1034.25
1084.90 1034.037
1085.00 1033.823
1085.10 1033.61
1085.20 1033.396
1085.30 1033.183
1085.40 1032.969
1085.50 1033.111
1085.60 1033.785
1085.70 1034.46
1085.80 1035.134
1085.90 1035.809
1086.00 1036.483
1086.10 1037.158
1086.20 1037.832
1086.30 1038.507
1086.40 1039.181
1086.50 1039.856
1086.60 1040.53
1086.70 1041.205
1086.80 1041.879
1086.90 1042.554
1087.00 1043.228
1087.10 1043.903
1087.20 1044.577
1087.30 1045.252
1087.40 1045.926
1087.50 1046.601
1087.60 1047.275
1087.70 1047.95
1087.80 1048.624
1087.90 1049.299
1088.00 1049.973
1088.10 1050.648
1088.20 1051.322
1088.30 1051.997
1088.40 1052.671
1088.50 1053.346
1088.60 1054.02
1088.70 1054.695
1088.80 1055.342
1088.90 1055.971
1089.00 1056.6
1089.10 1057.229
1089.20 1057.858
1089.30 1058.487
1089.40 1059.116
1089.50 1059.745
1089.60 1060.094
1089.70 1060.024
1089.80 1059.954
1089.90 1059.883
1090.00 1059.813
1090.10 1059.742
1090.20 1059.672
1090.30 1059.601
1090.40 1059.531
1090.50 1059.461
1090.60 1059.39
1090.70 1059.32
1090.80 1059.249
1090.90 1059.179
1091.00 1059.108
1091.10 1059.038
1091.20 1058.967
1091.30 1058.897
1091.40 1058.827
1091.50 1058.756
1091.60 1058.686
1091.70 1058.615
1091.80 1058.545
1091.90 1058.474
1092.00 1058.404
1092.10 1058.333
1092.20 1058.263
1092.30 1058.193
1092.40 1058.122
1092.50 1058.052
1092.60 1057.981
1092.70 1057.911
1092.80 1057.84
1092.90 1057.777
1093.00 1057.72
1093.10 1057.663
1093.20 1057.606
1093.30 1057.549
1093.40 1057.493
1093.50 1057.436
1093.60 1057.379
1093.70 1057.326
1093.80 1057.281
1093.90 1057.237
1094.00 1057.192
1094.10 1057.148
1094.20 1057.103
1094.30 1057.059
1094.40 1057.014
1094.50 1056.97
1094.60 1056.925
1094.70 1056.881
1094.80 1056.836
1094.90 1056.792
1095.00 1056.747
1095.10 1056.703
1095.20 1056.659
1095.30 1056.614
1095.40 1056.57
1095.50 1056.525
1095.60 1056.481
1095.70 1056.436
1095.80 1056.392
1095.90 1056.347
1096.00 1056.303
1096.10 1056.258
1096.20 1056.214
1096.30 1056.169
1096.40 1056.125
1096.50 1056.08
1096.60 1056.036
1096.70 1055.991
1096.80 1055.947
1096.90 1055.902
1097.00 1055.805
1097.10 1055.583
1097.20 1055.362
1097.30 1055.141
1097.40 1054.919
1097.50 1054.698
1097.60 1054.477
1097.70 1054.255
1097.80 1054.053
1097.90 1054.018
1098.00 1053.983
1098.10 1053.948
1098.20 1053.913
1098.30 1053.878
1098.40 1053.843
1098.50 1053.808
1098.60 1053.773
1098.70 1053.738
1098.80 1053.703
1098.90 1053.668
1099.00 1053.633
1099.10 1053.598
1099.20 1053.563
1099.30 1053.528
1099.40 1053.493
1099.50 1053.458
1099.60 1053.423
1099.70 1053.388
1099.80 1053.353
1099.90 1053.318
1100.00 1053.283
1100.10 1053.248
1100.20 1053.213
1100.30 1053.178
1100.40 1053.143
1100.50 1053.108
1100.60 1053.073
1100.70 1053.038
1100.80 1053.003
1100.90 1052.968
1101.00 1052.933
1101.10 1052.898
1101.20 1052.904
1101.30 1052.911
1101.40 1052.917
1101.50 1052.923
1101.60 1052.929
1101.70 1052.935
1101.80 1052.941
1101.90 1052.948
1102.00 1052.905
1102.10 1052.851
1102.20 1052.796
1102.30 1052.742
1102.40 1052.687
1102.50 1052.633
1102.60 1052.578
1102.70 1052.524
1102.80 1052.469
1102.90 1052.415
1103.00 1052.36
1103.10 1052.306
1103.20 1052.251
1103.30 1052.197
1103.40 1052.142
1103.50 1052.088
1103.60 1052.033
1103.70 1051.979
1103.80 1051.924
1103.90 1051.87
1104.00 1051.815
1104.10 1051.761
1104.20 1051.706
1104.30 1051.652
1104.40 1051.597
1104.50 1051.543
1104.60 1051.489
1104.70 1051.434
1104.80 1051.38
1104.90 1051.325
1105.00 1051.271
1105.10 1051.216
1105.20 1051.162
1105.30 1051.085
1105.40 1050.993
1105.50 1050.902
1105.60 1050.81
1105.70 1050.718
1105.80 1050.627
1105.90 1050.535
1106.00 1050.443
1106.10 1050.113
1106.20 1049.424
1106.30 1048.735
1106.40 1048.047
1106.50 1047.358
1106.60 1046.669
1106.70 1045.98
1106.80 1045.291
1106.90 1044.602
1107.00 1043.914
1107.10 1043.225
1107.20 1042.536
1107.30 1041.847
1107.40 1041.158
1107.50 1040.47
1107.60 1039.781
1107.70 1039.092
1107.80 1038.403
1107.90 1037.714
1108.00 1037.026
1108.10 1036.337
1108.20 1035.648
1108.30 1034.959
1108.40 1034.27
1108.50 1033.582
1108.60 1032.893
1108.70 1032.204
1108.80 1031.515
1108.90 1030.826
1109.00 1030.137
1109.10 1029.449
1109.20 1028.76
1109.30 1028.071
1109.40 1027.401
1109.50 1026.804
1109.60 1026.208
1109.70 1025.611
1109.80 1025.015
1109.90 1024.419
1110.00 1023.822
1110.10 1023.226
1110.20 1022.629
1110.30 1022.404
1110.40 1022.22
1110.50 1022.036
1110.60 1021.852
1110.70 1021.668
1110.80 1021.484
1110.90 1021.3
1111.00 1021.116
1111.10 1020.932
1111.20 1020.748
1111.30 1020.564
1111.40 1020.381
1111.50 1020.197
1111.60 1020.013
1111.70 1019.829
1111.80 1019.645
1111.90 1019.461
1112.00 1019.277
1112.10 1019.093
1112.20 1018.909
1112.30 1018.725
1112.40 1018.541
1112.50 1018.357
1112.60 1018.173
1112.70 1017.989
1112.80 1017.805
1112.90 1017.621
1113.00 1017.437
1113.10 1017.253
1113.20 1017.069
1113.30 1016.885
1113.40 1016.701
1113.50 1016.517
1113.60 1016.354
1113.70 1016.205
1113.80 1016.056
1113.90 1015.907
1114.00 1015.758
1114.10 1015.609
1114.20 1015.46
1114.30 1015.311
1114.40 1015.266
1114.50 1015.462
1114.60 1015.658
1114.70 1015.854
1114.80 1016.05
1114.90 1016.246
1115.00 1016.442
1115.10 1016.638
1115.20 1016.834
1115.30 1017.03
1115.40 1017.227
1115.50 1017.423
1115.60 1017.619
1115.70 1017.815
1115.80 1018.011
1115.90 1018.207
1116.00 1018.403
1116.10 1018.599
1116.20 1018.795
1116.30 1018.991
1116.40 1019.187
1116.50 1019.383
1116.60 1019.579
1116.70 1019.775
1116.80 1019.971
1116.90 1020.167
1117.00 1020.363
1117.10 1020.559
1117.20 1020.756
1117.30 1020.952
1117.40 1021.148
1117.50 1021.344
1117.60 1021.54
1117.70 1021.736
1117.80 1021.913
1117.90 1022.09
1118.00 1022.267
1118.10 1022.444
1118.20 1022.621
1118.30 1022.798
1118.40 1022.974
1118.50 1023.151
1118.60 1023.484
1118.70 1023.883
1118.80 1024.282
1118.90 1024.681
1119.00 1025.08
1119.10 1025.479
1119.20 1025.878
1119.30 1026.277
1119.40 1026.676
1119.50 1027.075
1119.60 1027.474
1119.70 1027.873
1119.80 1028.272
1119.90 1028.671
1120.00 1029.07
1120.10 1029.469
1120.20 1029.868
1120.30 1030.267
1120.40 1030.666
1120.50 1031.065
1120.60 1031.464
1120.70 1031.863
1120.80 1032.262
1120.90 1032.661
1121.00 1033.06
1121.10 1033.459
1121.20 1033.858
1121.30 1034.258
1121.40 1034.657
1121.50 1035.056
1121.60 1035.455
1121.70 1035.854
1121.80 1036.253
1121.90 1036.608
1122.00 1036.859
1122.10 1037.111
1122.20 1037.363
1122.30 1037.615
1122.40 1037.867
1122.50 1038.119
1122.60 1038.371
1122.70 1038.623
1122.80 1037.941
1122.90 1037.259
1123.00 1036.577
1123.10 1035.895
1123.20 1035.213
1123.30 1034.531
1123.40 1033.849
1123.50 1033.167
1123.60 1032.485
1123.70 1031.803
1123.80 1031.122
1123.90 1030.44
1124.00 1029.758
1124.10 1029.076
1124.20 1028.394
1124.30 1027.712
1124.40 1027.03
1124.50 1026.348
1124.60 1025.666
1124.70 1024.984
1124.80 1024.302
1124.90 1023.62
1125.00 1022.938
1125.10 1022.256
1125.20 1021.574
1125.30 1020.892
1125.40 1020.21
1125.50 1019.528
1125.60 1018.846
1125.70 1018.164
1125.80 1017.482
1125.90 1016.8
1126.00 1016.119
1126.10 1015.417
1126.20 1014.697
1126.30 1013.976
1126.40 1013.256
1126.50 1012.535
1126.60 1011.814
1126.70 1011.094
1126.80 1010.373
1126.90 1009.808
1127.00 1009.862
1127.10 1009.917
1127.20 1009.971
1127.30 1010.026
1127.40 1010.081
1127.50 1010.135
1127.60 1010.19
1127.70 1010.244
1127.80 1010.299
1127.90 1010.353
1128.00 1010.408
1128.10 1010.463
1128.20 1010.517
1128.30 1010.572
1128.40 1010.626
1128.50 1010.681
1128.60 1010.735
1128.70 1010.79
1128.80 1010.844
1128.90 1010.899
1129.00 1010.954
1129.10 1011.008
1129.20 1011.063
1129.30 1011.117
1129.40 1011.172
1129.50 1011.226
1129.60 1011.281
1129.70 1011.336
1129.80 1011.39
1129.90 1011.445
1130.00 1011.499
1130.10 1011.554
1130.20 1011.608
1130.30 1011.597
1130.40 1011.557
1130.50 1011.517
1130.60 1011.477
1130.70 1011.437
1130.80 1011.397
1130.90 1011.357
1131.00 1011.317
1131.10 1011.162
1131.20 1010.835
1131.30 1010.508
1131.40 1010.181
1131.50 1009.853
1131.60 1009.526
1131.70 1009.199
1131.80 1008.872
1131.90 1008.544
1132.00 1008.217
1132.10 1007.89
1132.20 1007.563
1132.30 1007.235
1132.40 1006.908
1132.50 1006.581
1132.60 1006.254
1132.70 1005.926
1132.80 1005.599
1132.90 1005.272
1133.00 1004.945
1133.10 1004.617
1133.20 1004.29
1133.30 1003.963
1133.40 1003.636
1133.50 1003.308
1133.60 1002.981
1133.70 1002.654
1133.80 1002.327
1133.90 1001.999
1134.00 1001.672
1134.10 1001.345
1134.20 1001.018
1134.30 1000.69
1134.40 1000.363
1134.50 1000.173
1134.60 1000.016
1134.70 999.8595
1134.80 999.7031
1134.90 999.5466
1135.00 999.3901
1135.10 999.2336
1135.20 999.0771
1135.30 999.1369
1135.40 999.5211
1135.50 999.9053
1135.60 1000.289
1135.70 1000.674
1135.80 1001.058
1135.90 1001.442
1136.00 1001.826
1136.10 1002.21
1136.20 1002.595
1136.30 1002.979
1136.40 1003.363
1136.50 1003.747
1136.60 1004.132
1136.70 1004.516
1136.80 1004.9
1136.90 1005.284
1137.00 1005.668
1137.10 1006.053
1137.20 1006.437
1137.30 1006.821
1137.40 1007.205
1137.50 1007.589
1137.60 1007.974
1137.70 1008.358
1137.80 1008.742
1137.90 1009.126
1138.00 1009.51
1138.10 1009.895
1138.20 1010.279
1138.30 1010.663
1138.40 1011.047
1138.50 1011.431
1138.60 1011.816
1138.70 1012.373
1138.80 1012.974
1138.90 1013.575
1139.00 1014.176
1139.10 1014.776
1139.20 1015.377
1139.30 1015.978
1139.40 1016.579
1139.50 1017.172
1139.60 1017.755
1139.70 1018.337
1139.80 1018.92
1139.90 1019.502
1140.00 1020.085
1140.10 1020.667
1140.20 1021.25
1140.30 1021.833
1140.40 1022.415
1140.50 1022.998
1140.60 1023.58
1140.70 1024.163
1140.80 1024.745
1140.90 1025.328
1141.00 1025.91
1141.10 1026.493
1141.20 1027.075
1141.30 1027.658
1141.40 1028.24
1141.50 1028.823
1141.60 1029.405
1141.70 1029.988
1141.80 1030.57
1141.90 1031.153
1142.00 1031.735
1142.10 1032.318
1142.20 1032.9
1142.30 1033.483
1142.40 1034.065
1142.50 1034.648
1142.60 1035.23
1142.70 1035.813
1142.80 1036.396
1142.90 1037.232
1143.00 1038.133
1143.10 1039.034
1143.20 1039.934
1143.30 1040.835
1143.40 1041.735
1143.50 1042.636
1143.60 1043.536
1143.70 1044.498
1143.80 1045.553
1143.90 1046.607
1144.00 1047.661
1144.10 1048.715
1144.20 1049.769
1144.30 1050.823
1144.40 1051.877
1144.50 1052.932
1144.60 1053.986
1144.70 1055.04
1144.80 1056.094
1144.90 1057.148
1145.00 1058.202
1145.10 1059.256
1145.20 1060.311
1145.30 1061.365
1145.40 1062.419
1145.50 1063.473
1145.60 1064.527
1145.70 1065.581
1145.80 1066.635
1145.90 1067.69
1146.00 1068.744
1146.10 1069.798
1146.20 1070.852
1146.30 1071.906
1146.40 1072.96
1146.50 1074.014
1146.60 1075.068
1146.70 1076.123
1146.80 1077.177
1146.90 1078.231
1147.00 1079.285
1147.10 1080.093
1147.20 1080.737
1147.30 1081.381
1147.40 1082.025
1147.50 1082.669
1147.60 1083.313
1147.70 1083.957
1147.80 1084.601
1147.90 1085.168
1148.00 1085.43
1148.10 1085.691
1148.20 1085.953
1148.30 1086.214
1148.40 1086.476
1148.50 1086.737
1148.60 1086.999
1148.70 1087.261
1148.80 1087.522
1148.90 1087.784
1149.00 1088.045
1149.10 1088.307
1149.20 1088.568
1149.30 1088.83
1149.40 1089.091
1149.50 1089.353
1149.60 1089.614
1149.70 1089.876
1149.80 1090.138
1149.90 1090.399
1150.00 1090.661
1150.10 1090.922
1150.20 1091.184
1150.30 1091.445
1150.40 1091.707
1150.50 1091.968
1150.60 1092.23
1150.70 1092.491
1150.80 1092.753
1150.90 1093.015
1151.00 1093.276
1151.10 1093.538
1151.20 1093.799
1151.30 1094.083
1151.40 1094.39
1151.50 1094.697
1151.60 1095.004
1151.70 1095.31
1151.80 1095.617
1151.90 1095.924
1152.00 1096.231
1152.10 1096.504
1152.20 1096.482
1152.30 1096.46
1152.40 1096.438
1152.50 1096.416
1152.60 1096.394
1152.70 1096.372
1152.80 1096.35
1152.90 1096.328
1153.00 1096.305
1153.10 1096.283
1153.20 1096.261
1153.30 1096.239
1153.40 1096.217
1153.50 1096.195
1153.60 1096.173
1153.70 1096.151
1153.80 1096.129
1153.90 1096.106
1154.00 1096.084
1154.10 1096.062
1154.20 1096.04
1154.30 1096.018
1154.40 1095.996
1154.50 1095.974
1154.60 1095.952
1154.70 1095.93
1154.80 1095.908
1154.90 1095.885
1155.00 1095.863
1155.10 1095.841
1155.20 1095.819
1155.30 1095.797
1155.40 1095.775
1155.50 1095.706
1155.60 1095.449
1155.70 1095.192
1155.80 1094.935
1155.90 1094.677
1156.00 1094.42
1156.10 1094.163
1156.20 1093.906
1156.30 1093.649
1156.40 1093.366
1156.50 1093.076
1156.60 1092.787
1156.70 1092.497
1156.80 1092.207
1156.90 1091.918
1157.00 1091.628
1157.10 1091.338
1157.20 1091.049
1157.30 1090.759
1157.40 1090.469
1157.50 1090.18
1157.60 1089.89
1157.70 1089.6
1157.80 1089.311
1157.90 1089.021
1158.00 1088.731
1158.10 1088.442
1158.20 1088.152
1158.30 1087.862
1158.40 1087.573
1158.50 1087.283
1158.60 1086.993
1158.70 1086.704
1158.80 1086.414
1158.90 1086.124
1159.00 1085.835
1159.10 1085.545
1159.20 1085.255
1159.30 1084.966
1159.40 1084.676
1159.50 1084.386
1159.60 1084.097
1159.70 1083.807
1159.80 1083.479
1159.90 1083.146
1160.00 1082.814
1160.10 1082.481
1160.20 1082.149
1160.30 1081.816
1160.40 1081.484
1160.50 1081.152
1160.60 1080.53
1160.70 1079.619
1160.80 1078.708
1160.90 1077.796
1161.00 1076.885
1161.10 1075.974
1161.20 1075.063
1161.30 1074.152
1161.40 1073.241
1161.50 1072.33
1161.60 1071.419
1161.70 1070.507
1161.80 1069.596
1161.90 1068.685
1162.00 1067.774
1162.10 1066.863
1162.20 1065.952
1162.30 1065.041
1162.40 1064.13
1162.50 1063.218
1162.60 1062.307
1162.70 1061.396
1162.80 1060.485
1162.90 1059.574
1163.00 1058.663
1163.10 1057.752
1163.20 1056.841
1163.30 1055.929
1163.40 1055.018
1163.50 1054.107
1163.60 1053.196
1163.70 1052.285
1163.80 1051.374
1163.90 1050.463
1164.00 1049.528
1164.10 1048.578
1164.20 1047.627
1164.30 1046.677
1164.40 1045.726
1164.50 1044.776
1164.60 1043.826
1164.70 1042.875
1164.80 1041.983
1164.90 1041.611
1165.00 1041.238
1165.10 1040.866
1165.20 1040.494
1165.30 1040.122
1165.40 1039.75
1165.50 1039.378
1165.60 1039.005
1165.70 1038.633
1165.80 1038.261
1165.90 1037.889
1166.00 1037.517
1166.10 1037.145
1166.20 1036.773
1166.30 1036.4
1166.40 1036.028
1166.50 1035.656
1166.60 1035.284
1166.70 1034.912
1166.80 1034.54
1166.90 1034.167
1167.00 1033.795
1167.10 1033.423
1167.20 1033.051
1167.30 1032.679
1167.40 1032.307
1167.50 1031.935
1167.60 1031.562
1167.70 1031.19
1167.80 1030.818
1167.90 1030.446
1168.00 1030.074
1168.10 1029.702
1168.20 1029.32
1168.30 1028.899
1168.40 1028.478
1168.50 1028.057
1168.60 1027.637
1168.70 1027.216
1168.80 1026.795
1168.90 1026.375
1169.00 1025.954
1169.10 1025.851
1169.20 1025.885
1169.30 1025.919
1169.40 1025.953
1169.50 1025.986
1169.60 1026.02
1169.70 1026.054
1169.80 1026.088
1169.90 1026.122
1170.00 1026.155
1170.10 1026.189
1170.20 1026.223
1170.30 1026.257
1170.40 1026.291
1170.50 1026.324
1170.60 1026.358
1170.70 1026.392
1170.80 1026.426
1170.90 1026.46
1171.00 1026.493
1171.10 1026.527
1171.20 1026.561
1171.30 1026.595
1171.40 1026.629
1171.50 1026.662
1171.60 1026.696
1171.70 1026.73
1171.80 1026.764
1171.90 1026.798
1172.00 1026.831
1172.10 1026.865
1172.20 1026.899
1172.30 1026.933
1172.40 1026.967
1172.50 1027.205
1172.60 1027.53
1172.70 1027.855
1172.80 1028.181
1172.90 1028.506
1173.00 1028.831
1173.10 1029.156
1173.20 1029.482
1173.30 1029.789
1173.40 1030.025
1173.50 1030.26
1173.60 1030.495
1173.70 1030.731
1173.80 1030.966
1173.90 1031.202
1174.00 1031.437
1174.10 1031.673
1174.20 1031.908
1174.30 1032.144
1174.40 1032.379
1174.50 1032.615
1174.60 1032.85
1174.70 1033.085
1174.80 1033.321
1174.90 1033.556
1175.00 1033.792
1175.10 1034.027
1175.20 1034.263
1175.30 1034.498
1175.40 1034.734
1175.50 1034.969
1175.60 1035.204
1175.70 1035.44
1175.80 1035.675
1175.90 1035.911
1176.00 1036.146
1176.10 1036.382
1176.20 1036.617
1176.30 1036.853
1176.40 1037.088
1176.50 1037.323
1176.60 1037.559
1176.70 1037.8
1176.80 1038.066
1176.90 1038.331
1177.00 1038.596
1177.10 1038.861
1177.20 1039.127
1177.30 1039.392
1177.40 1039.657
1177.50 1039.923
1177.60 1040.588
1177.70 1041.426
1177.80 1042.264
1177.90 1043.101
1178.00 1043.939
1178.10 1044.776
1178.20 1045.614
1178.30 1046.451
1178.40 1047.289
1178.50 1048.127
1178.60 1048.964
1178.70 1049.802
1178.80 1050.639
1178.90 1051.477
1179.00 1052.314
1179.10 1053.152
1179.20 1053.99
1179.30 1054.827
1179.40 1055.665
1179.50 1056.502
1179.60 1057.34
1179.70 1058.177
1179.80 1059.015
1179.90 1059.853
1180.00 1060.69
1180.10 1061.528
1180.20 1062.365
1180.30 1063.203
1180.40 1064.04
1180.50 1064.878
1180.60 1065.716
1180.70 1066.553
1180.80 1067.391
1180.90 1068.228
1181.00 1069.177
1181.10 1070.2
1181.20 1071.223
1181.30 1072.246
1181.40 1073.269
1181.50 1074.292
1181.60 1075.315
1181.70 1076.338
1181.80 1077.338
1181.90 1078.133
1182.00 1078.928
1182.10 1079.723
1182.20 1080.518
1182.30 1081.313
1182.40 1082.108
1182.50 1082.903
1182.60 1083.698
1182.70 1084.493
1182.80 1085.288
1182.90 1086.083
1183.00 1086.878
1183.10 1087.673
1183.20 1088.468
1183.30 1089.263
1183.40 1090.058
1183.50 1090.853
1183.60 1091.648
1183.70 1092.443
1183.80 1093.238
1183.90 1094.033
1184.00 1094.828
1184.10 1095.623
1184.20 1096.418
1184.30 1097.213
1184.40 1098.008
1184.50 1098.803
1184.60 1099.598
1184.70 1100.393
1184.80 1101.188
1184.90 1101.983
1185.00 1102.778
1185.10 1103.573
1185.20 1104.368
1185.30 1105.039
1185.40 1105.71
1185.50 1106.382
1185.60 1107.053
1185.70 1107.724
1185.80 1108.395
1185.90 1109.066
1186.00 1109.737
1186.10 1110.288
1186.20 1110.719
1186.30 1111.151
1186.40 1111.582
1186.50 1112.014
1186.60 1112.445
1186.70 1112.876
1186.80 1113.308
1186.90 1113.739
1187.00 1114.17
1187.10 1114.602
1187.20 1115.033
1187.30 1115.465
1187.40 1115.896
1187.50 1116.327
1187.60 1116.759
1187.70 1117.19
1187.80 1117.622
1187.90 1118.053
1188.00 1118.484
1188.10 1118.916
1188.20 1119.347
1188.30 1119.779
1188.40 1120.21
1188.50 1120.641
1188.60 1121.073
1188.70 1121.504
1188.80 1121.936
1188.90 1122.367
1189.00 1122.798
1189.10 1123.23
1189.20 1123.661
1189.30 1124.092
1189.40 1124.524
1189.50 1124.797
1189.60 1124.832
1189.70 1124.867
1189.80 1124.902
1189.90 1124.937
1190.00 1124.972
1190.10 1125.007
1190.20 1125.042
1190.30 1125.077
1190.40 1124.874
1190.50 1124.644
1190.60 1124.415
1190.70 1124.185
1190.80 1123.956
1190.90 1123.726
1191.00 1123.497
1191.10 1123.267
1191.20 1123.038
1191.30 1122.808
1191.40 1122.578
1191.50 1122.349
1191.60 1122.119
1191.70 1121.89
1191.80 1121.66
1191.90 1121.431
1192.00 1121.201
1192.10 1120.972
1192.20 1120.742
1192.30 1120.512
1192.40 1120.283
1192.50 1120.053
1192.60 1119.824
1192.70 1119.594
1192.80 1119.365
1192.90 1119.135
1193.00 1118.906
1193.10 1118.676
1193.20 1118.447
1193.30 1118.217
1193.40 1117.987
1193.50 1117.758
1193.60 1117.528
1193.70 1117.299
1193.80 1117.111
1193.90 1116.942
1194.00 1116.773
1194.10 1116.603
1194.20 1116.434
1194.30 1116.264
1194.40 1116.095
1194.50 1115.925
1194.60 1115.772
1194.70 1115.767
1194.80 1115.761
1194.90 1115.755
1195.00 1115.749
1195.10 1115.743
1195.20 1115.737
1195.30 1115.731
1195.40 1115.726
1195.50 1115.72
1195.60 1115.714
1195.70 1115.708
1195.80 1115.702
1195.90 1115.696
1196.00 1115.69
1196.10 1115.685
1196.20 1115.679
1196.30 1115.673
1196.40 1115.667
1196.50 1115.661
1196.60 1115.655
1196.70 1115.649
1196.80 1115.644
1196.90 1115.638
1197.00 1115.632
1197.10 1115.626
1197.20 1115.62
1197.30 1115.614
1197.40 1115.608
1197.50 1115.603
1197.60 1115.597
1197.70 1115.591
1197.80 1115.585
1197.90 1115.579
1198.00 1115.573
1198.10 1115.81
1198.20 1116.073
1198.30 1116.337
1198.40 1116.601
1198.50 1116.864
1198.60 1117.128
1198.70 1117.391
1198.80 1117.655
1198.90 1117.779
1199.00 1117.694
1199.10 1117.61
1199.20 1117.525
1199.30 1117.44
1199.40 1117.356
1199.50 1117.271
1199.60 1117.187
1199.70 1117.102
1199.80 1117.017
1199.90 1116.933
1200.00 1116.848
1200.10 1116.763
1200.20 1116.679
1200.30 1116.594
1200.40 1116.509
1200.50 1116.425
1200.60 1116.34
1200.70 1116.255
1200.80 1116.171
1200.90 1116.086
1201.00 1116.001
1201.10 1115.917
1201.20 1115.832
1201.30 1115.748
1201.40 1115.663
1201.50 1115.578
1201.60 1115.494
1201.70 1115.409
1201.80 1115.324
1201.90 1115.24
1202.00 1115.155
1202.10 1115.07
1202.20 1114.986
1202.30 1114.913
1202.40 1114.952
1202.50 1114.992
1202.60 1115.031
1202.70 1115.07
1202.80 1115.109
1202.90 1115.148
1203.00 1115.187
1203.10 1115.226
1203.20 1115.936
1203.30 1117.093
1203.40 1118.25
1203.50 1119.407
1203.60 1120.564
1203.70 1121.721
1203.80 1122.878
1203.90 1124.035
1204.00 1125.192
1204.10 1126.349
1204.20 1127.506
1204.30 1128.663
1204.40 1129.82
1204.50 1130.977
1204.60 1132.134
1204.70 1133.291
1204.80 1134.448
1204.90 1135.605
1205.00 1136.762
1205.10 1137.919
1205.20 1139.076
1205.30 1140.233
1205.40 1141.39
1205.50 1142.547
1205.60 1143.704
1205.70 1144.861
1205.80 1146.018
1205.90 1147.175
1206.00 1148.332
1206.10 1149.489
1206.20 1150.646
1206.30 1151.803
1206.40 1152.96
1206.50 1154.117
1206.60 1155.293
1206.70 1156.511
1206.80 1157.73
1206.90 1158.949
1207.00 1160.167
1207.10 1161.386
1207.20 1162.605
1207.30 1163.824
1207.40 1165.042
1207.50 1165.866
1207.60 1166.592
1207.70 1167.317
1207.80 1168.043
1207.90 1168.768
1208.00 1169.493
1208.10 1170.219
1208.20 1170.944
1208.30 1171.67
1208.40 1172.395
1208.50 1173.12
1208.60 1173.846
1208.70 1174.571
1208.80 1175.297
1208.90 1176.022
1209.00 1176.747
1209.10 1177.473
1209.20 1178.198
1209.30 1178.924
1209.40 1179.649
1209.50 1180.374
1209.60 1181.1
1209.70 1181.825
1209.80 1182.551
1209.90 1183.276
1210.00 1184.001
1210.10 1184.727
1210.20 1185.452
1210.30 1186.178
1210.40 1186.903
1210.50 1187.628
1210.60 1188.354
1210.70 1189.079
1210.80 1189.805
1210.90 1190.485
1211.00 1191.121
1211.10 1191.757
1211.20 1192.393
1211.30 1193.029
1211.40 1193.665
1211.50 1194.301
1211.60 1194.936
1211.70 1195.572
1211.80 1196.541
1211.90 1197.547
1212.00 1198.552
1212.10 1199.558
1212.20 1200.564
1212.30 1201.569
1212.40 1202.575
1212.50 1203.581
1212.60 1204.586
1212.70 1205.592
1212.80 1206.597
1212.90 1207.603
1213.00 1208.609
1213.10 1209.614
1213.20 1210.62
1213.30 1211.626
1213.40 1212.631
1213.50 1213.637
1213.60 1214.643
1213.70 1215.648
1213.80 1216.654
1213.90 1217.66
1214.00 1218.665
1214.10 1219.671
1214.20 1220.677
1214.30 1221.682
1214.40 1222.688
1214.50 1223.693
1214.60 1224.699
1214.70 1225.705
1214.80 1226.71
1214.90 1227.716
1215.00 1228.722
1215.10 1229.727
1215.20 1230.771
1215.30 1231.841
1215.40 1232.91
1215.50 1233.98
1215.60 1235.05
1215.70 1236.119
1215.80 1237.189
1215.90 1238.258
1216.00 1239.328
1216.10 1239.43
1216.20 1239.532
1216.30 1239.634
1216.40 1239.736
1216.50 1239.838
1216.60 1239.94
1216.70 1240.042
1216.80 1240.144
1216.90 1240.246
1217.00 1240.348
1217.10 1240.451
1217.20 1240.553
1217.30 1240.655
1217.40 1240.757
1217.50 1240.859
1217.60 1240.961
1217.70 1241.063
1217.80 1241.165
1217.90 1241.267
1218.00 1241.369
1218.10 1241.471
1218.20 1241.573
1218.30 1241.675
1218.40 1241.777
1218.50 1241.879
1218.60 1241.981
1218.70 1242.083
1218.80 1242.185
1218.90 1242.287
1219.00 1242.39
1219.10 1242.492
1219.20 1242.594
1219.30 1242.696
1219.40 1242.798
1219.50 1242.858
1219.60 1242.901
1219.70 1242.944
1219.80 1242.986
1219.90 1243.029
1220.00 1243.072
1220.10 1243.114
1220.20 1243.157
1220.30 1243.262
1220.40 1243.925
1220.50 1244.588
1220.60 1245.251
1220.70 1245.914
1220.80 1246.577
1220.90 1247.241
1221.00 1247.904
1221.10 1248.567
1221.20 1249.23
1221.30 1249.893
1221.40 1250.556
1221.50 1251.22
1221.60 1251.883
1221.70 1252.546
1221.80 1253.209
1221.90 1253.872
1222.00 1254.535
1222.10 1255.198
1222.20 1255.862
1222.30 1256.525
1222.40 1257.188
1222.50 1257.851
1222.60 1258.514
1222.70 1259.177
1222.80 1259.841
1222.90 1260.504
1223.00 1261.167
1223.10 1261.83
1223.20 1262.493
1223.30 1263.156
1223.40 1263.82
1223.50 1264.483
1223.60 1265.146
1223.70 1265.809
1223.80 1266.354
1223.90 1266.847
1224.00 1267.341
1224.10 1267.835
1224.20 1268.328
1224.30 1268.822
1224.40 1269.316
1224.50 1269.809
1224.60 1270.209
1224.70 1270.23
1224.80 1270.252
1224.90 1270.273
1225.00 1270.295
1225.10 1270.316
1225.20 1270.338
1225.30 1270.359
1225.40 1270.381
1225.50 1270.402
1225.60 1270.424
1225.70 1270.445
1225.80 1270.467
1225.90 1270.488
1226.00 1270.51
1226.10 1270.531
1226.20 1270.553
1226.30 1270.574
1226.40 1270.596
1226.50 1270.617
1226.60 1270.639
1226.70 1270.66
1226.80 1270.682
1226.90 1270.703
1227.00 1270.725
1227.10 1270.746
1227.20 1270.768
1227.30 1270.789
1227.40 1270.811
1227.50 1270.832
1227.60 1270.854
1227.70 1270.875
1227.80 1270.897
1227.90 1270.918
1228.00 1270.94
1228.10 1270.935
1228.20 1270.923
1228.30 1270.911
1228.40 1270.9
1228.50 1270.888
1228.60 1270.876
1228.70 1270.864
1228.80 1270.853
1228.90 1270.801
1229.00 1270.591
1229.10 1270.38
1229.20 1270.17
1229.30 1269.96
1229.40 1269.749
1229.50 1269.539
1229.60 1269.328
1229.70 1269.118
1229.80 1268.907
1229.90 1268.697
1230.00 1268.486
1230.10 1268.276
1230.20 1268.065
1230.30 1267.855
1230.40 1267.645
1230.50 1267.434
1230.60 1267.224
1230.70 1267.013
1230.80 1266.803
1230.90 1266.592
1231.00 1266.382
1231.10 1266.171
1231.20 1265.961
1231.30 1265.75
1231.40 1265.54
1231.50 1265.33
1231.60 1265.119
1231.70 1264.909
1231.80 1264.698
1231.90 1264.488
1232.00 1264.277
1232.10 1264.067
1232.20 1263.856
1232.30 1263.646
1232.40 1263.184
1232.50 1262.659
1232.60 1262.135
1232.70 1261.61
1232.80 1261.085
1232.90 1260.561
1233.00 1260.036
1233.10 1259.511
1233.20 1258.956
1233.30 1258.279
1233.40 1257.601
1233.50 1256.924
1233.60 1256.247
1233.70 1255.569
1233.80 1254.892
1233.90 1254.215
1234.00 1253.537
1234.10 1252.86
1234.20 1252.183
1234.30 1251.505
1234.40 1250.828
1234.50 1250.151
1234.60 1249.473
1234.70 1248.796
1234.80 1248.119
1234.90 1247.441
1235.00 1246.764
1235.10 1246.087
1235.20 1245.409
1235.30 1244.732
1235.40 1244.055
1235.50 1243.377
1235.60 1242.7
1235.70 1242.023
1235.80 1241.345
1235.90 1240.668
1236.00 1239.991
1236.10 1239.313
1236.20 1238.636
1236.30 1237.959
1236.40 1237.281
1236.50 1236.604
1236.60 1235.927
1236.70 1235.397
1236.80 1234.931
1236.90 1234.464
1237.00 1233.998
1237.10 1233.531
1237.20 1233.065
1237.30 1232.599
1237.40 1232.132
1237.50 1231.672
1237.60 1231.236
1237.70 1230.8
1237.80 1230.365
1237.90 1229.929
1238.00 1229.493
1238.10 1229.057
1238.20 1228.622
1238.30 1228.186
1238.40 1227.75
1238.50 1227.314
1238.60 1226.879
1238.70 1226.443
1238.80 1226.007
1238.90 1225.571
1239.00 1225.136
1239.10 1224.7
1239.20 1224.264
1239.30 1223.828
1239.40 1223.393
1239.50 1222.957
1239.60 1222.521
1239.70 1222.085
1239.80 1221.65
1239.90 1221.214
1240.00 1220.778
1240.10 1220.342
1240.20 1219.907
1240.30 1219.471
1240.40 1219.035
1240.50 1218.599
1240.60 1218.164
1240.70 1217.728
1240.80 1217.292
1240.90 1216.856
1241.00 1216.412
1241.10 1215.963
1241.20 1215.514
1241.30 1215.065
1241.40 1214.617
1241.50 1214.168
1241.60 1213.719
1241.70 1213.27
1241.80 1212.868
1241.90 1212.887
1242.00 1212.906
1242.10 1212.925
1242.20 1212.943
1242.30 1212.962
1242.40 1212.981
1242.50 1212.999
1242.60 1213.018
1242.70 1213.037
1242.80 1213.055
1242.90 1213.074
1243.00 1213.093
1243.10 1213.111
1243.20 1213.13
1243.30 1213.149
1243.40 1213.168
1243.50 1213.186
1243.60 1213.205
1243.70 1213.224
1243.80 1213.242
1243.90 1213.261
1244.00 1213.28
1244.10 1213.298
1244.20 1213.317
1244.30 1213.336
1244.40 1213.354
1244.50 1213.373
1244.60 1213.392
1244.70 1213.411
1244.80 1213.429
1244.90 1213.448
1245.00 1213.467
1245.10 1213.485
1245.20 1213.504
1245.30 1213.765
1245.40 1214.187
1245.50 1214.609
1245.60 1215.031
1245.70 1215.454
1245.80 1215.876
1245.90 1216.298
1246.00 1216.72
1246.10 1217.143
1246.20 1218.288
1246.30 1219.434
1246.40 1220.58
1246.50 1221.726
1246.60 1222.872
1246.70 1224.018
1246.80 1225.163
1246.90 1226.309
1247.00 1227.455
1247.10 1228.601
1247.20 1229.747
1247.30 1230.892
1247.40 1232.038
1247.50 1233.184
1247.60 1234.33
1247.70 1235.476
1247.80 1236.622
1247.90 1237.767
1248.00 1238.913
1248.10 1240.059
1248.20 1241.205
1248.30 1242.351
1248.40 1243.497
1248.50 1244.642
1248.60 1245.788
1248.70 1246.934
1248.80 1248.08
1248.90 1249.226
1249.00 1250.371
1249.10 1251.517
1249.20 1252.663
1249.30 1253.809
1249.40 1254.955
1249.50 1256.101
1249.60 1257.23
1249.70 1258.344
1249.80 1259.457
1249.90 1260.57
1250.00 1261.684
1250.10 1262.797
1250.20 1263.911
1250.30 1265.024
1250.40 1266.137
1250.50 1267.028
1250.60 1267.918
1250.70 1268.808
1250.80 1269.698
1250.90 1270.588
1251.00 1271.478
1251.10 1272.368
1251.20 1273.258
1251.30 1274.148
1251.40 1275.038
1251.50 1275.928
1251.60 1276.818
1251.70 1277.708
1251.80 1278.598
1251.90 1279.488
1252.00 1280.378
1252.10 1281.268
1252.20 1282.158
1252.30 1283.048
1252.40 1283.939
1252.50 1284.829
1252.60 1285.719
1252.70 1286.609
1252.80 1287.499
1252.90 1288.389
1253.00 1289.279
1253.10 1290.169
1253.20 1291.059
1253.30 1291.949
1253.40 1292.839
1253.50 1293.729
1253.60 1294.619
1253.70 1295.509
1253.80 1296.399
1253.90 1297.35
1254.00 1298.392
1254.10 1299.435
1254.20 1300.477
1254.30 1301.519
1254.40 1302.561
1254.50 1303.603
1254.60 1304.646
1254.70 1305.688
1254.80 1306.384
1254.90 1307.043
1255.00 1307.701
1255.10 1308.359
1255.20 1309.017
1255.30 1309.676
1255.40 1310.334
1255.50 1310.992
1255.60 1311.65
1255.70 1312.308
1255.80 1312.967
1255.90 1313.625
1256.00 1314.283
1256.10 1314.941
1256.20 1315.599
1256.30 1316.258
1256.40 1316.916
1256.50 1317.574
1256.60 1318.232
1256.70 1318.89
1256.80 1319.549
1256.90 1320.207
1257.00 1320.865
1257.10 1321.523
1257.20 1322.181
1257.30 1322.84
1257.40 1323.498
1257.50 1324.156
1257.60 1324.814
1257.70 1325.473
1257.80 1326.131
1257.90 1326.789
1258.00 1327.447
1258.10 1328.105
1258.20 1328.664
1258.30 1328.99
1258.40 1329.316
1258.50 1329.642
1258.60 1329.968
1258.70 1330.294
1258.80 1330.62
1258.90 1330.946
1259.00 1331.272
1259.10 1332.426
1259.20 1333.934
1259.30 1335.443
1259.40 1336.951
1259.50 1338.459
1259.60 1339.968
1259.70 1341.476
1259.80 1342.984
1259.90 1344.493
1260.00 1346.001
1260.10 1347.509
1260.20 1349.018
1260.30 1350.526
1260.40 1352.035
1260.50 1353.543
1260.60 1355.051
1260.70 1356.56
1260.80 1358.068
1260.90 1359.576
1261.00 1361.085
1261.10 1362.593
1261.20 1364.101
1261.30 1365.61
1261.40 1367.118
1261.50 1368.626
1261.60 1370.135
1261.70 1371.643
1261.80 1373.152
1261.90 1374.66
1262.00 1376.168
1262.10 1377.677
1262.20 1379.185
1262.30 1380.693
1262.40 1382.202
1262.50 1383.772
1262.60 1385.587
1262.70 1387.403
1262.80 1389.218
1262.90 1391.034
1263.00 1392.85
1263.10 1394.665
1263.20 1396.481
1263.30 1398.297
1263.40 1399.366
1263.50 1399.937
1263.60 1400.508
1263.70 1401.079
1263.80 1401.65
1263.90 1402.222
1264.00 1402.793
1264.10 1403.364
1264.20 1403.935
1264.30 1404.507
1264.40 1405.078
1264.50 1405.649
1264.60 1406.22
1264.70 1406.791
1264.80 1407.363
1264.90 1407.934
1265.00 1408.505
1265.10 1409.076
1265.20 1409.648
1265.30 1410.219
1265.40 1410.79
1265.50 1411.361
1265.60 1411.932
1265.70 1412.504
1265.80 1413.075
1265.90 1413.646
1266.00 1414.217
1266.10 1414.789
1266.20 1415.36
1266.30 1415.931
1266.40 1416.502
1266.50 1417.073
1266.60 1417.645
1266.70 1418.216
1266.80 1418.787
1266.90 1418.778
1267.00 1418.77
1267.10 1418.761
1267.20 1418.752
1267.30 1418.744
1267.40 1418.735
1267.50 1418.726
1267.60 1418.718
1267.70 1418.862
1267.80 1419.236
1267.90 1419.609
1268.00 1419.983
1268.10 1420.356
1268.20 1420.73
1268.30 1421.103
1268.40 1421.477
1268.50 1421.851
1268.60 1422.224
1268.70 1422.598
1268.80 1422.971
1268.90 1423.345
1269.00 1423.718
1269.10 1424.092
1269.20 1424.466
1269.30 1424.839
1269.40 1425.213
1269.50 1425.586
1269.60 1425.96
1269.70 1426.333
1269.80 1426.707
1269.90 1427.081
1270.00 1427.454
1270.10 1427.828
1270.20 1428.201
1270.30 1428.575
1270.40 1428.948
1270.50 1429.322
1270.60 1429.695
1270.70 1430.069
1270.80 1430.443
1270.90 1430.816
1271.00 1431.19
1271.10 1431.563
1271.20 1432.352
1271.30 1433.187
1271.40 1434.021
1271.50 1434.856
1271.60 1435.691
1271.70 1436.526
1271.80 1437.36
1271.90 1438.195
1272.00 1438.552
1272.10 1437.794
1272.20 1437.036
1272.30 1436.278
1272.40 1435.52
1272.50 1434.762
1272.60 1434.003
1272.70 1433.245
1272.80 1432.487
1272.90 1431.729
1273.00 1430.971
1273.10 1430.213
1273.20 1429.455
1273.30 1428.697
1273.40 1427.938
1273.50 1427.18
1273.60 1426.422
1273.70 1425.664
1273.80 1424.906
1273.90 1424.148
1274.00 1423.39
1274.10 1422.632
1274.20 1421.874
1274.30 1421.115
1274.40 1420.357
1274.50 1419.599
1274.60 1418.841
1274.70 1418.083
1274.80 1417.325
1274.90 1416.567
1275.00 1415.809
1275.10 1415.05
1275.20 1414.292
1275.30 1413.534
1275.40 1412.776
1275.50 1411.852
1275.60 1410.858
1275.70 1409.863
1275.80 1408.868
1275.90 1407.874
1276.00 1406.879
1276.10 1405.884
1276.20 1404.889
1276.30 1404.044
1276.40 1404.537
1276.50 1405.03
1276.60 1405.524
1276.70 1406.017
1276.80 1406.51
1276.90 1407.004
1277.00 1407.497
1277.10 1407.99
1277.20 1408.483
1277.30 1408.977
1277.40 1409.47
1277.50 1409.963
1277.60 1410.457
1277.70 1410.95
1277.80 1411.443
1277.90 1411.937
1278.00 1412.43
1278.10 1412.923
1278.20 1413.417
1278.30 1413.91
1278.40 1414.403
1278.50 1414.897
1278.60 1415.39
1278.70 1415.883
1278.80 1416.377
1278.90 1416.87
1279.00 1417.363
1279.10 1417.857
1279.20 1418.35
1279.30 1418.843
1279.40 1419.337
1279.50 1419.83
1279.60 1420.323
1279.70 1420.816
1279.80 1421.321
1279.90 1421.834
1280.00 1422.346
1280.10 1422.858
1280.20 1423.371
1280.30 1423.883
1280.40 1424.395
1280.50 1424.908
1280.60 1425.42
1280.70 1425.36
1280.80 1425.3
1280.90 1425.24
1281.00 1425.18
1281.10 1425.12
1281.20 1425.061
1281.30 1425.001
1281.40 1424.941
1281.50 1424.881
1281.60 1424.821
1281.70 1424.761
1281.80 1424.701
1281.90 1424.641
1282.00 1424.581
1282.10 1424.521
1282.20 1424.461
1282.30 1424.402
1282.40 1424.342
1282.50 1424.282
1282.60 1424.222
1282.70 1424.162
1282.80 1424.102
1282.90 1424.042
1283.00 1423.982
1283.10 1423.922
1283.20 1423.862
1283.30 1423.802
1283.40 1423.742
1283.50 1423.683
1283.60 1423.623
1283.70 1423.563
1283.80 1423.503
1283.90 1423.443
1284.00 1423.383
1284.10 1423.377
1284.20 1423.452
1284.30 1423.528
1284.40 1423.603
1284.50 1423.678
1284.60 1423.753
1284.70 1423.829
1284.80 1423.904
1284.90 1423.979
1285.00 1424.29
1285.10 1424.659
1285.20 1425.028
1285.30 1425.398
1285.40 1425.767
1285.50 1426.136
1285.60 1426.505
1285.70 1426.875
1285.80 1427.244
1285.90 1427.613
1286.00 1427.983
1286.10 1428.352
1286.20 1428.721
1286.30 1429.09
1286.40 1429.46
1286.50 1429.829
1286.60 1430.198
1286.70 1430.568
1286.80 1430.937
1286.90 1431.306
1287.00 1431.675
1287.10 1432.045
1287.20 1432.414
1287.30 1432.783
1287.40 1433.152
1287.50 1433.522
1287.60 1433.891
1287.70 1434.26
1287.80 1434.63
1287.90 1434.999
1288.00 1435.368
1288.10 1435.737
1288.20 1436.107
1288.30 1436.476
1288.40 1436.829
1288.50 1437.119
1288.60 1437.409
1288.70 1437.699
1288.80 1437.988
1288.90 1438.278
1289.00 1438.568
1289.10 1438.858
1289.20 1439.148
1289.30 1439.224
1289.40 1439.157
1289.50 1439.091
1289.60 1439.025
1289.70 1438.959
1289.80 1438.892
1289.90 1438.826
1290.00 1438.76
1290.10 1438.694
1290.20 1438.627
1290.30 1438.561
1290.40 1438.495
1290.50 1438.428
1290.60 1438.362
1290.70 1438.296
1290.80 1438.23
1290.90 1438.163
1291.00 1438.097
1291.10 1438.031
1291.20 1437.965
1291.30 1437.898
1291.40 1437.832
1291.50 1437.766
1291.60 1437.7
1291.70 1437.633
1291.80 1437.567
1291.90 1437.501
1292.00 1437.434
1292.10 1437.368
1292.20 1437.302
1292.30 1437.236
1292.40 1437.169
1292.50 1437.103
1292.60 1437.037
1292.70 1436.971
1292.80 1436.867
1292.90 1436.763
1293.00 1436.659
1293.10 1436.555
1293.20 1436.451
1293.30 1436.347
1293.40 1436.244
1293.50 1436.14
1293.60 1436.046
1293.70 1435.967
1293.80 1435.888
1293.90 1435.809
1294.00 1435.731
1294.10 1435.652
1294.20 1435.573
1294.30 1435.494
1294.40 1435.415
1294.50 1435.336
1294.60 1435.257
1294.70 1435.179
1294.80 1435.1
1294.90 1435.021
1295.00 1434.942
1295.10 1434.863
1295.20 1434.784
1295.30 1434.706
1295.40 1434.627
1295.50 1434.548
1295.60 1434.469
1295.70 1434.39
1295.80 1434.311
1295.90 1434.233
1296.00 1434.154
1296.10 1434.075
1296.20 1433.996
1296.30 1433.917
1296.40 1433.838
1296.50 1433.759
1296.60 1433.681
1296.70 1433.602
1296.80 1433.523
1296.90 1433.444
1297.00 1433.365
1297.10 1433.185
1297.20 1432.98
1297.30 1432.775
1297.40 1432.569
1297.50 1432.364
1297.60 1432.159
1297.70 1431.953
1297.80 1431.748
1297.90 1431.519
1298.00 1431.195
1298.10 1430.871
1298.20 1430.547
1298.30 1430.223
1298.40 1429.899
1298.50 1429.574
1298.60 1429.25
1298.70 1428.926
1298.80 1428.602
1298.90 1428.278
1299.00 1427.954
1299.10 1427.63
1299.20 1427.306
1299.30 1426.982
1299.40 1426.658
1299.50 1426.333
1299.60 1426.009
1299.70 1425.685
1299.80 1425.361
1299.90 1425.037
