# Version 2.1 - nm, norm@500 to 1, cut digits
# Wavelength(nm)  Flambda(ergs/cm^s/s/nm)
300.00 3.713292e-95
300.10 3.713292e-95
300.20 3.713292e-95
300.30 3.713292e-95
300.40 3.713292e-95
300.50 3.713292e-95
300.60 3.713292e-95
300.70 3.713292e-95
300.80 3.713292e-95
300.90 3.713292e-95
301.00 3.713292e-95
301.10 3.713292e-95
301.20 3.713292e-95
301.30 3.713292e-95
301.40 3.713292e-95
301.50 3.713292e-95
301.60 3.713292e-95
301.70 3.713292e-95
301.80 3.713292e-95
301.90 3.713292e-95
302.00 3.713292e-95
302.10 3.713292e-95
302.20 3.713292e-95
302.30 3.713292e-95
302.40 3.713292e-95
302.50 3.713292e-95
302.60 3.713292e-95
302.70 3.713292e-95
302.80 3.713292e-95
302.90 3.713292e-95
303.00 3.713292e-95
303.10 3.713292e-95
303.20 3.713292e-95
303.30 3.713292e-95
303.40 3.713292e-95
303.50 3.713292e-95
303.60 3.713292e-95
303.70 3.713292e-95
303.80 3.713292e-95
303.90 3.713292e-95
304.00 3.713292e-95
304.10 3.713292e-95
304.20 3.713292e-95
304.30 3.713292e-95
304.40 3.713292e-95
304.50 3.713292e-95
304.60 3.713292e-95
304.70 3.713292e-95
304.80 3.713292e-95
304.90 3.713292e-95
305.00 3.713292e-95
305.10 3.713292e-95
305.20 3.713292e-95
305.30 3.713292e-95
305.40 3.713292e-95
305.50 3.713292e-95
305.60 3.713292e-95
305.70 3.713292e-95
305.80 3.713292e-95
305.90 3.713292e-95
306.00 3.713292e-95
306.10 3.713292e-95
306.20 3.713292e-95
306.30 3.713292e-95
306.40 3.713292e-95
306.50 3.713292e-95
306.60 3.713292e-95
306.70 3.713292e-95
306.80 3.713292e-95
306.90 3.713292e-95
307.00 3.713292e-95
307.10 3.713292e-95
307.20 3.713292e-95
307.30 3.713292e-95
307.40 3.713292e-95
307.50 3.713292e-95
307.60 3.713292e-95
307.70 3.713292e-95
307.80 3.713292e-95
307.90 3.713292e-95
308.00 3.713292e-95
308.10 3.713292e-95
308.20 3.713292e-95
308.30 3.713292e-95
308.40 3.713292e-95
308.50 3.713292e-95
308.60 3.713292e-95
308.70 3.713292e-95
308.80 3.713292e-95
308.90 3.713292e-95
309.00 3.713292e-95
309.10 3.713292e-95
309.20 3.713292e-95
309.30 3.713292e-95
309.40 3.713292e-95
309.50 3.713292e-95
309.60 3.713292e-95
309.70 3.713292e-95
309.80 3.713292e-95
309.90 3.713292e-95
310.00 3.713292e-95
310.10 3.713292e-95
310.20 3.713292e-95
310.30 3.713292e-95
310.40 3.713292e-95
310.50 3.713292e-95
310.60 3.713292e-95
310.70 3.713292e-95
310.80 3.713292e-95
310.90 3.713292e-95
311.00 3.713292e-95
311.10 3.713292e-95
311.20 3.713292e-95
311.30 3.713292e-95
311.40 3.713292e-95
311.50 3.713292e-95
311.60 3.713292e-95
311.70 3.713292e-95
311.80 3.713292e-95
311.90 3.713292e-95
312.00 3.713292e-95
312.10 3.713292e-95
312.20 3.713292e-95
312.30 3.713292e-95
312.40 3.713292e-95
312.50 3.713292e-95
312.60 3.713292e-95
312.70 3.713292e-95
312.80 3.713292e-95
312.90 3.713292e-95
313.00 3.713292e-95
313.10 3.713292e-95
313.20 3.713292e-95
313.30 3.713292e-95
313.40 3.713292e-95
313.50 3.713292e-95
313.60 3.713292e-95
313.70 3.713292e-95
313.80 3.713292e-95
313.90 3.713292e-95
314.00 3.713292e-95
314.10 3.713292e-95
314.20 3.713292e-95
314.30 3.713292e-95
314.40 3.713292e-95
314.50 3.713292e-95
314.60 3.713292e-95
314.70 3.713292e-95
314.80 3.713292e-95
314.90 3.713292e-95
315.00 3.713292e-95
315.10 3.713292e-95
315.20 3.713292e-95
315.30 3.713292e-95
315.40 3.713292e-95
315.50 3.713292e-95
315.60 3.713292e-95
315.70 3.713292e-95
315.80 3.713292e-95
315.90 3.713292e-95
316.00 3.713292e-95
316.10 3.713292e-95
316.20 3.713292e-95
316.30 3.713292e-95
316.40 3.713292e-95
316.50 3.713292e-95
316.60 3.713292e-95
316.70 3.713292e-95
316.80 3.713292e-95
316.90 3.713292e-95
317.00 3.713292e-95
317.10 3.713292e-95
317.20 3.713292e-95
317.30 3.713292e-95
317.40 3.713292e-95
317.50 3.713292e-95
317.60 3.713292e-95
317.70 3.713292e-95
317.80 3.713292e-95
317.90 3.713292e-95
318.00 3.713292e-95
318.10 3.713292e-95
318.20 3.713292e-95
318.30 3.713292e-95
318.40 3.713292e-95
318.50 3.713292e-95
318.60 3.713292e-95
318.70 3.713292e-95
318.80 3.713292e-95
318.90 3.713292e-95
319.00 3.713292e-95
319.10 3.713292e-95
319.20 3.713292e-95
319.30 3.713292e-95
319.40 3.713292e-95
319.50 3.713292e-95
319.60 3.713292e-95
319.70 3.713292e-95
319.80 3.713292e-95
319.90 3.713292e-95
320.00 3.713292e-95
320.10 3.713292e-95
320.20 3.713292e-95
320.30 3.713292e-95
320.40 3.713292e-95
320.50 3.713292e-95
320.60 3.713292e-95
320.70 3.713292e-95
320.80 3.713292e-95
320.90 3.713292e-95
321.00 3.713292e-95
321.10 3.713292e-95
321.20 3.713292e-95
321.30 3.713292e-95
321.40 3.713292e-95
321.50 3.713292e-95
321.60 3.713292e-95
321.70 3.713292e-95
321.80 3.713292e-95
321.90 3.713292e-95
322.00 3.713292e-95
322.10 3.713292e-95
322.20 3.713292e-95
322.30 3.713292e-95
322.40 3.713292e-95
322.50 3.713292e-95
322.60 3.713292e-95
322.70 3.713292e-95
322.80 3.713292e-95
322.90 3.713292e-95
323.00 3.713292e-95
323.10 3.713292e-95
323.20 3.713292e-95
323.30 3.713292e-95
323.40 3.713292e-95
323.50 3.713292e-95
323.60 3.713292e-95
323.70 3.713292e-95
323.80 3.713292e-95
323.90 3.713292e-95
324.00 3.713292e-95
324.10 3.713292e-95
324.20 3.713292e-95
324.30 3.713292e-95
324.40 3.713292e-95
324.50 3.713292e-95
324.60 3.713292e-95
324.70 3.713292e-95
324.80 3.713292e-95
324.90 3.713292e-95
325.00 3.713292e-95
325.10 3.713292e-95
325.20 3.713292e-95
325.30 3.713292e-95
325.40 3.713292e-95
325.50 3.713292e-95
325.60 3.713292e-95
325.70 3.713292e-95
325.80 3.713292e-95
325.90 3.713292e-95
326.00 3.713292e-95
326.10 3.713292e-95
326.20 3.713292e-95
326.30 3.713292e-95
326.40 3.713292e-95
326.50 3.713292e-95
326.60 3.713292e-95
326.70 3.713292e-95
326.80 3.713292e-95
326.90 3.713292e-95
327.00 3.713292e-95
327.10 3.713292e-95
327.20 3.713292e-95
327.30 3.713292e-95
327.40 3.713292e-95
327.50 3.713292e-95
327.60 3.713292e-95
327.70 3.713292e-95
327.80 3.713292e-95
327.90 3.713292e-95
328.00 3.713292e-95
328.10 3.713292e-95
328.20 3.713292e-95
328.30 3.713292e-95
328.40 3.713292e-95
328.50 3.713292e-95
328.60 3.713292e-95
328.70 3.713292e-95
328.80 3.713292e-95
328.90 3.713292e-95
329.00 3.713292e-95
329.10 3.713292e-95
329.20 3.713292e-95
329.30 3.713292e-95
329.40 3.713292e-95
329.50 3.713292e-95
329.60 3.713292e-95
329.70 3.713292e-95
329.80 3.713292e-95
329.90 3.713292e-95
330.00 3.713292e-95
330.10 3.713292e-95
330.20 3.713292e-95
330.30 3.713292e-95
330.40 3.713292e-95
330.50 3.713292e-95
330.60 3.713292e-95
330.70 3.713292e-95
330.80 3.713292e-95
330.90 3.713292e-95
331.00 3.713292e-95
331.10 3.713292e-95
331.20 3.713292e-95
331.30 3.713292e-95
331.40 3.713292e-95
331.50 3.713292e-95
331.60 3.713292e-95
331.70 3.713292e-95
331.80 3.713292e-95
331.90 3.713292e-95
332.00 3.713292e-95
332.10 3.713292e-95
332.20 3.713292e-95
332.30 3.713292e-95
332.40 3.713292e-95
332.50 3.713292e-95
332.60 3.713292e-95
332.70 3.713292e-95
332.80 3.713292e-95
332.90 3.713292e-95
333.00 3.713292e-95
333.10 3.713292e-95
333.20 3.713292e-95
333.30 3.713292e-95
333.40 3.713292e-95
333.50 3.713292e-95
333.60 3.713292e-95
333.70 3.713292e-95
333.80 3.713292e-95
333.90 3.713292e-95
334.00 3.713292e-95
334.10 3.713292e-95
334.20 3.713292e-95
334.30 3.713292e-95
334.40 3.713292e-95
334.50 3.713292e-95
334.60 3.713292e-95
334.70 3.713292e-95
334.80 3.713292e-95
334.90 3.713292e-95
335.00 3.713292e-95
335.10 3.713292e-95
335.20 3.713292e-95
335.30 3.713292e-95
335.40 3.713292e-95
335.50 3.713292e-95
335.60 3.713292e-95
335.70 3.713292e-95
335.80 3.713292e-95
335.90 3.713292e-95
336.00 3.713292e-95
336.10 3.713292e-95
336.20 3.713292e-95
336.30 3.713292e-95
336.40 3.713292e-95
336.50 3.713292e-95
336.60 3.713292e-95
336.70 3.713292e-95
336.80 3.713292e-95
336.90 3.713292e-95
337.00 3.713292e-95
337.10 3.713292e-95
337.20 3.713292e-95
337.30 3.713292e-95
337.40 3.713292e-95
337.50 3.713292e-95
337.60 3.713292e-95
337.70 3.713292e-95
337.80 3.713292e-95
337.90 3.713292e-95
338.00 3.713292e-95
338.10 3.713292e-95
338.20 3.713292e-95
338.30 3.713292e-95
338.40 3.713292e-95
338.50 3.713292e-95
338.60 3.713292e-95
338.70 3.713292e-95
338.80 3.713292e-95
338.90 3.713292e-95
339.00 3.713292e-95
339.10 3.713292e-95
339.20 3.713292e-95
339.30 3.713292e-95
339.40 3.713292e-95
339.50 3.713292e-95
339.60 3.713292e-95
339.70 3.713292e-95
339.80 3.713292e-95
339.90 3.713292e-95
340.00 3.713292e-95
340.10 3.713292e-95
340.20 3.713292e-95
340.30 3.713292e-95
340.40 3.713292e-95
340.50 3.713292e-95
340.60 3.713292e-95
340.70 3.713292e-95
340.80 3.713292e-95
340.90 3.713292e-95
341.00 3.713292e-95
341.10 3.713292e-95
341.20 3.713292e-95
341.30 3.713292e-95
341.40 3.713292e-95
341.50 3.713292e-95
341.60 3.713292e-95
341.70 3.713292e-95
341.80 3.713292e-95
341.90 3.713292e-95
342.00 3.713292e-95
342.10 3.713292e-95
342.20 3.713292e-95
342.30 3.713292e-95
342.40 3.713292e-95
342.50 3.713292e-95
342.60 3.713292e-95
342.70 3.713292e-95
342.80 3.713292e-95
342.90 3.713292e-95
343.00 3.713292e-95
343.10 3.713292e-95
343.20 3.713292e-95
343.30 3.713292e-95
343.40 3.713292e-95
343.50 3.713292e-95
343.60 3.713292e-95
343.70 3.713292e-95
343.80 3.713292e-95
343.90 3.713292e-95
344.00 3.713292e-95
344.10 3.713292e-95
344.20 3.713292e-95
344.30 3.713292e-95
344.40 3.713292e-95
344.50 3.713292e-95
344.60 3.713292e-95
344.70 3.713292e-95
344.80 3.713292e-95
344.90 3.713292e-95
345.00 3.713292e-95
345.10 3.713292e-95
345.20 3.713292e-95
345.30 3.713292e-95
345.40 3.713292e-95
345.50 3.713292e-95
345.60 3.713292e-95
345.70 3.713292e-95
345.80 3.713292e-95
345.90 3.713292e-95
346.00 3.713292e-95
346.10 3.713292e-95
346.20 3.713292e-95
346.30 3.713292e-95
346.40 3.713292e-95
346.50 3.713292e-95
346.60 3.713292e-95
346.70 3.713292e-95
346.80 3.713292e-95
346.90 3.713292e-95
347.00 3.713292e-95
347.10 3.713292e-95
347.20 3.713292e-95
347.30 3.713292e-95
347.40 3.713292e-95
347.50 3.713292e-95
347.60 3.713292e-95
347.70 3.713292e-95
347.80 3.713292e-95
347.90 3.713292e-95
348.00 3.713292e-95
348.10 3.713292e-95
348.20 3.713292e-95
348.30 3.713292e-95
348.40 3.713292e-95
348.50 3.713292e-95
348.60 3.713292e-95
348.70 3.713292e-95
348.80 3.713292e-95
348.90 3.713292e-95
349.00 3.713292e-95
349.10 3.713292e-95
349.20 3.713292e-95
349.30 3.713292e-95
349.40 3.713292e-95
349.50 3.713292e-95
349.60 3.713292e-95
349.70 3.713292e-95
349.80 3.713292e-95
349.90 3.713292e-95
350.00 3.713292e-95
350.10 3.713292e-95
350.20 3.713292e-95
350.30 3.713292e-95
350.40 3.713292e-95
350.50 3.713292e-95
350.60 3.713292e-95
350.70 3.713292e-95
350.80 3.713292e-95
350.90 3.713292e-95
351.00 3.713292e-95
351.10 3.713292e-95
351.20 3.713292e-95
351.30 3.713292e-95
351.40 3.713292e-95
351.50 3.713292e-95
351.60 3.713292e-95
351.70 3.713292e-95
351.80 3.713292e-95
351.90 3.713292e-95
352.00 3.713292e-95
352.10 3.713292e-95
352.20 3.713292e-95
352.30 3.713292e-95
352.40 3.713292e-95
352.50 3.713292e-95
352.60 3.713292e-95
352.70 3.713292e-95
352.80 3.713292e-95
352.90 3.713292e-95
353.00 3.713292e-95
353.10 3.713292e-95
353.20 3.713292e-95
353.30 3.713292e-95
353.40 3.713292e-95
353.50 3.713292e-95
353.60 3.713292e-95
353.70 3.713292e-95
353.80 3.713292e-95
353.90 3.713292e-95
354.00 3.713292e-95
354.10 3.713292e-95
354.20 3.713292e-95
354.30 3.713292e-95
354.40 3.713292e-95
354.50 3.713292e-95
354.60 3.713292e-95
354.70 3.713292e-95
354.80 3.713292e-95
354.90 3.713292e-95
355.00 3.713292e-95
355.10 3.713292e-95
355.20 3.713292e-95
355.30 3.713292e-95
355.40 3.713292e-95
355.50 3.713292e-95
355.60 3.713292e-95
355.70 3.713292e-95
355.80 3.713292e-95
355.90 3.713292e-95
356.00 3.713292e-95
356.10 3.713292e-95
356.20 3.713292e-95
356.30 3.713292e-95
356.40 3.713292e-95
356.50 3.713292e-95
356.60 3.713292e-95
356.70 3.713292e-95
356.80 3.713292e-95
356.90 3.713292e-95
357.00 3.713292e-95
357.10 3.713292e-95
357.20 3.713292e-95
357.30 3.713292e-95
357.40 3.713292e-95
357.50 3.713292e-95
357.60 3.713292e-95
357.70 3.713292e-95
357.80 3.713292e-95
357.90 3.713292e-95
358.00 3.713292e-95
358.10 3.713292e-95
358.20 3.713292e-95
358.30 3.713292e-95
358.40 3.713292e-95
358.50 3.713292e-95
358.60 3.713292e-95
358.70 3.713292e-95
358.80 3.713292e-95
358.90 3.713292e-95
359.00 3.713292e-95
359.10 3.713292e-95
359.20 3.713292e-95
359.30 3.713292e-95
359.40 3.713292e-95
359.50 3.713292e-95
359.60 3.713292e-95
359.70 3.713292e-95
359.80 3.713292e-95
359.90 3.713292e-95
360.00 3.713292e-95
360.10 3.713292e-95
360.20 3.713292e-95
360.30 3.713292e-95
360.40 3.713292e-95
360.50 3.713292e-95
360.60 3.713292e-95
360.70 3.713292e-95
360.80 3.713292e-95
360.90 3.713292e-95
361.00 3.713292e-95
361.10 3.713292e-95
361.20 3.713292e-95
361.30 3.713292e-95
361.40 3.713292e-95
361.50 3.713292e-95
361.60 3.713292e-95
361.70 3.713292e-95
361.80 3.713292e-95
361.90 3.713292e-95
362.00 3.713292e-95
362.10 3.713292e-95
362.20 3.713292e-95
362.30 3.713292e-95
362.40 3.713292e-95
362.50 3.713292e-95
362.60 3.713292e-95
362.70 3.713292e-95
362.80 3.713292e-95
362.90 3.713292e-95
363.00 3.713292e-95
363.10 3.713292e-95
363.20 3.713292e-95
363.30 3.713292e-95
363.40 3.713292e-95
363.50 3.713292e-95
363.60 3.713292e-95
363.70 3.713292e-95
363.80 3.713292e-95
363.90 3.713292e-95
364.00 3.713292e-95
364.10 3.713292e-95
364.20 3.713292e-95
364.30 3.713292e-95
364.40 3.713292e-95
364.50 3.713292e-95
364.60 3.713292e-95
364.70 3.713292e-95
364.80 3.713292e-95
364.90 3.713292e-95
365.00 3.713292e-95
365.10 3.713292e-95
365.20 3.713292e-95
365.30 3.713292e-95
365.40 3.713292e-95
365.50 3.713292e-95
365.60 3.713292e-95
365.70 3.713292e-95
365.80 3.713292e-95
365.90 3.713292e-95
366.00 3.713292e-95
366.10 3.713292e-95
366.20 3.713292e-95
366.30 3.713292e-95
366.40 3.713292e-95
366.50 3.713292e-95
366.60 3.713292e-95
366.70 3.713292e-95
366.80 3.713292e-95
366.90 3.713292e-95
367.00 3.713292e-95
367.10 3.713292e-95
367.20 3.713292e-95
367.30 3.713292e-95
367.40 3.713292e-95
367.50 3.713292e-95
367.60 3.713292e-95
367.70 3.713292e-95
367.80 3.713292e-95
367.90 3.713292e-95
368.00 3.713292e-95
368.10 3.713292e-95
368.20 3.713292e-95
368.30 3.713292e-95
368.40 3.713292e-95
368.50 3.713292e-95
368.60 3.713292e-95
368.70 3.713292e-95
368.80 3.713292e-95
368.90 3.713292e-95
369.00 3.713292e-95
369.10 3.713292e-95
369.20 3.713292e-95
369.30 3.713292e-95
369.40 3.713292e-95
369.50 3.713292e-95
369.60 3.713292e-95
369.70 3.713292e-95
369.80 3.713292e-95
369.90 3.713292e-95
370.00 3.713292e-95
370.10 3.713292e-95
370.20 3.713292e-95
370.30 3.713292e-95
370.40 3.713292e-95
370.50 3.713292e-95
370.60 3.713292e-95
370.70 3.713292e-95
370.80 3.713292e-95
370.90 3.713292e-95
371.00 3.713292e-95
371.10 3.713292e-95
371.20 3.713292e-95
371.30 3.713292e-95
371.40 3.713292e-95
371.50 3.713292e-95
371.60 3.713292e-95
371.70 3.713292e-95
371.80 3.713292e-95
371.90 3.713292e-95
372.00 3.713292e-95
372.10 3.713292e-95
372.20 3.713292e-95
372.30 3.713292e-95
372.40 3.713292e-95
372.50 3.713292e-95
372.60 3.713292e-95
372.70 3.713292e-95
372.80 3.713292e-95
372.90 3.713292e-95
373.00 3.713292e-95
373.10 3.713292e-95
373.20 3.713292e-95
373.30 3.713292e-95
373.40 3.713292e-95
373.50 3.713292e-95
373.60 3.713292e-95
373.70 3.713292e-95
373.80 3.713292e-95
373.90 3.713292e-95
374.00 3.713292e-95
374.10 3.713292e-95
374.20 3.713292e-95
374.30 3.713292e-95
374.40 3.713292e-95
374.50 3.713292e-95
374.60 3.713292e-95
374.70 3.713292e-95
374.80 3.713292e-95
374.90 3.713292e-95
375.00 3.713292e-95
375.10 3.713292e-95
375.20 3.713292e-95
375.30 3.713292e-95
375.40 3.713292e-95
375.50 3.713292e-95
375.60 3.713292e-95
375.70 3.713292e-95
375.80 3.713292e-95
375.90 3.713292e-95
376.00 3.713292e-95
376.10 3.713292e-95
376.20 3.713292e-95
376.30 3.713292e-95
376.40 3.713292e-95
376.50 3.713292e-95
376.60 3.713292e-95
376.70 3.713292e-95
376.80 3.713292e-95
376.90 3.713292e-95
377.00 3.713292e-95
377.10 3.713292e-95
377.20 3.713292e-95
377.30 3.713292e-95
377.40 3.713292e-95
377.50 3.713292e-95
377.60 3.713292e-95
377.70 3.713292e-95
377.80 3.713292e-95
377.90 3.713292e-95
378.00 3.713292e-95
378.10 3.713292e-95
378.20 3.713292e-95
378.30 3.713292e-95
378.40 3.713292e-95
378.50 3.713292e-95
378.60 3.713292e-95
378.70 3.713292e-95
378.80 3.713292e-95
378.90 3.713292e-95
379.00 3.713292e-95
379.10 3.713292e-95
379.20 3.713292e-95
379.30 3.713292e-95
379.40 3.713292e-95
379.50 3.713292e-95
379.60 3.713292e-95
379.70 3.713292e-95
379.80 3.713292e-95
379.90 3.713292e-95
380.00 3.713292e-95
380.10 3.713292e-95
380.20 3.713292e-95
380.30 3.713292e-95
380.40 3.713292e-95
380.50 3.713292e-95
380.60 3.713292e-95
380.70 3.713292e-95
380.80 3.713292e-95
380.90 3.713292e-95
381.00 3.713292e-95
381.10 3.713292e-95
381.20 3.713292e-95
381.30 3.713292e-95
381.40 3.713292e-95
381.50 3.713292e-95
381.60 3.713292e-95
381.70 3.713292e-95
381.80 3.713292e-95
381.90 3.713292e-95
382.00 3.713292e-95
382.10 3.713292e-95
382.20 3.713292e-95
382.30 3.713292e-95
382.40 3.713292e-95
382.50 3.713292e-95
382.60 3.713292e-95
382.70 3.713292e-95
382.80 3.713292e-95
382.90 3.713292e-95
383.00 3.713292e-95
383.10 3.713292e-95
383.20 3.713292e-95
383.30 3.713292e-95
383.40 3.713292e-95
383.50 3.713292e-95
383.60 3.713292e-95
383.70 3.713292e-95
383.80 3.713292e-95
383.90 3.713292e-95
384.00 3.713292e-95
384.10 3.713292e-95
384.20 3.713292e-95
384.30 3.713292e-95
384.40 3.713292e-95
384.50 3.713292e-95
384.60 3.713292e-95
384.70 3.713292e-95
384.80 3.713292e-95
384.90 3.713292e-95
385.00 3.713292e-95
385.10 3.713292e-95
385.20 3.713292e-95
385.30 3.713292e-95
385.40 3.713292e-95
385.50 3.713292e-95
385.60 3.713292e-95
385.70 3.713292e-95
385.80 3.713292e-95
385.90 3.713292e-95
386.00 3.713292e-95
386.10 3.713292e-95
386.20 3.713292e-95
386.30 3.713292e-95
386.40 3.713292e-95
386.50 3.713292e-95
386.60 3.713292e-95
386.70 3.713292e-95
386.80 3.713292e-95
386.90 3.713292e-95
387.00 3.713292e-95
387.10 3.713292e-95
387.20 3.713292e-95
387.30 3.713292e-95
387.40 3.713292e-95
387.50 3.713292e-95
387.60 3.713292e-95
387.70 3.713292e-95
387.80 3.713292e-95
387.90 3.713292e-95
388.00 3.713292e-95
388.10 3.713292e-95
388.20 3.713292e-95
388.30 3.713292e-95
388.40 3.713292e-95
388.50 3.713292e-95
388.60 3.713292e-95
388.70 3.713292e-95
388.80 3.713292e-95
388.90 3.713292e-95
389.00 3.713292e-95
389.10 3.713292e-95
389.20 3.713292e-95
389.30 3.713292e-95
389.40 3.713292e-95
389.50 3.713292e-95
389.60 3.713292e-95
389.70 3.713292e-95
389.80 3.713292e-95
389.90 3.713292e-95
390.00 3.713292e-95
390.10 3.713292e-95
390.20 3.713292e-95
390.30 3.713292e-95
390.40 3.713292e-95
390.50 3.713292e-95
390.60 3.713292e-95
390.70 3.713292e-95
390.80 3.713292e-95
390.90 3.713292e-95
391.00 3.713292e-95
391.10 3.713292e-95
391.20 3.713292e-95
391.30 3.713292e-95
391.40 3.713292e-95
391.50 3.713292e-95
391.60 3.713292e-95
391.70 3.713292e-95
391.80 3.713292e-95
391.90 3.713292e-95
392.00 3.713292e-95
392.10 3.713292e-95
392.20 3.713292e-95
392.30 3.713292e-95
392.40 3.713292e-95
392.50 3.713292e-95
392.60 3.713292e-95
392.70 3.713292e-95
392.80 3.713292e-95
392.90 3.713292e-95
393.00 3.713292e-95
393.10 3.713292e-95
393.20 3.713292e-95
393.30 3.713292e-95
393.40 3.713292e-95
393.50 3.713292e-95
393.60 3.713292e-95
393.70 3.713292e-95
393.80 3.713292e-95
393.90 3.713292e-95
394.00 3.713292e-95
394.10 3.713292e-95
394.20 3.713292e-95
394.30 3.713292e-95
394.40 3.713292e-95
394.50 3.713292e-95
394.60 3.713292e-95
394.70 3.713292e-95
394.80 3.713292e-95
394.90 3.713292e-95
395.00 3.676159e-95
395.10 3.639027e-95
395.20 3.601894e-95
395.30 3.564761e-95
395.40 3.527628e-95
395.50 3.490495e-95
395.60 3.453362e-95
395.70 3.416229e-95
395.80 3.379096e-95
395.90 3.341963e-95
396.00 3.30483e-95
396.10 0.02230918
396.20 0.07434371
396.30 0.1379588
396.40 0.1960945
396.50 0.2406316
396.60 0.270427
396.70 0.287464
396.80 0.2921701
396.90 0.2921701
397.00 0.2921701
397.10 0.2921701
397.20 0.2921701
397.30 0.2921701
397.40 0.2921701
397.50 0.2921701
397.60 0.2921701
397.70 0.2933301
397.80 0.3530289
397.90 0.482971
398.00 0.6809755
398.10 0.9310249
398.20 1.210921
398.30 1.496641
398.40 1.762651
398.50 1.987298
398.60 2.157392
398.70 2.275558
398.80 2.359213
398.90 2.428085
399.00 2.500295
399.10 2.588086
399.20 2.690955
399.30 2.800127
399.40 2.908483
399.50 3.017868
399.60 3.135005
399.70 3.26458
399.80 3.408291
399.90 3.568783
400.00 3.749695
400.10 3.946073
400.20 4.144839
400.30 4.332037
400.40 4.495879
400.50 4.62967
400.60 4.73256
400.70 4.810094
400.80 4.869161
400.90 4.90667
401.00 4.914703
401.10 4.914703
401.20 4.914703
401.30 4.914703
401.40 4.914703
401.50 4.914703
401.60 4.914703
401.70 4.914703
401.80 4.914703
401.90 4.914703
402.00 4.914703
402.10 4.914703
402.20 4.914703
402.30 4.914703
402.40 4.914703
402.50 4.914703
402.60 4.915727
402.70 4.984778
402.80 5.118993
402.90 5.303381
403.00 5.509286
403.10 5.701719
403.20 5.853307
403.30 5.94726
403.40 5.977491
403.50 5.977491
403.60 5.977491
403.70 5.977491
403.80 5.977491
403.90 5.977491
404.00 5.977491
404.10 5.977491
404.20 5.977491
404.30 5.977491
404.40 5.977491
404.50 5.977491
404.60 5.977491
404.70 5.977491
404.80 5.977491
404.90 5.977491
405.00 5.977491
405.10 5.977491
405.20 5.977491
405.30 5.977491
405.40 5.977491
405.50 5.977491
405.60 5.977491
405.70 5.977491
405.80 5.977491
405.90 5.977491
406.00 5.989317
406.10 5.997049
406.20 5.99546
406.30 6.001361
406.40 6.026918
406.50 6.072398
406.60 6.129808
406.70 6.188892
406.80 6.246068
406.90 6.298044
407.00 6.348443
407.10 6.405933
407.20 6.477791
407.30 6.56415
407.40 6.657933
407.50 6.75042
407.60 6.833036
407.70 6.897996
407.80 6.884569
407.90 6.781846
408.00 6.595957
408.10 6.348915
408.20 6.069019
408.30 5.783299
408.40 5.517289
408.50 5.292642
408.60 5.122548
408.70 5.004382
408.80 4.926514
408.90 4.87077
409.00 4.817842
409.10 4.753485
409.20 4.675945
409.30 4.58548
409.40 4.477125
409.50 4.367739
409.60 4.250602
409.70 4.121027
409.80 3.977316
409.90 3.816824
410.00 3.635913
410.10 3.439535
410.20 3.260408
410.30 3.12781
410.40 3.048757
410.50 3.018812
410.60 3.023617
410.70 3.047568
410.80 3.081545
410.90 3.125682
411.00 3.18337
411.10 3.2311
411.20 3.262471
411.30 3.279364
411.40 3.283561
411.50 3.283561
411.60 3.283561
411.70 3.283561
411.80 3.283561
411.90 3.283561
412.00 3.283561
412.10 3.283561
412.20 3.283561
412.30 3.283561
412.40 3.283561
412.50 3.283561
412.60 3.282537
412.70 3.213486
412.80 3.079272
412.90 2.894884
413.00 2.688979
413.10 2.498758
413.20 2.355283
413.30 2.277223
413.40 2.270783
413.50 2.301549
413.60 2.337111
413.70 2.3741
413.80 2.408711
413.90 2.437864
414.00 2.459903
414.10 2.474582
414.20 2.483053
414.30 2.488756
414.40 2.496529
414.50 2.510273
414.60 2.530528
414.70 2.554966
414.80 2.580903
414.90 2.605696
415.00 2.626758
415.10 2.642254
415.20 2.651723
415.30 2.655519
415.40 2.657645
415.50 2.665282
415.60 2.684166
415.70 2.716795
415.80 2.762669
415.90 2.819078
416.00 2.86852
416.10 2.897375
416.20 2.896741
416.30 2.862826
416.40 2.801185
416.50 2.725581
416.60 2.652156
416.70 2.596268
416.80 2.563774
416.90 2.548173
417.00 2.538065
417.10 2.520696
417.20 2.4853
417.30 2.430369
417.40 2.363707
417.50 2.296137
417.60 2.234754
417.70 2.18164
417.80 2.135369
417.90 2.10815
418.00 2.096034
418.10 2.093027
418.20 2.093027
418.30 2.093027
418.40 2.093027
418.50 2.093027
418.60 2.101437
418.70 2.138271
418.80 2.189531
418.90 2.241912
419.00 2.287355
419.10 2.322576
419.20 2.346014
419.30 2.364697
419.40 2.395189
419.50 2.428179
419.60 2.469005
419.70 2.515535
419.80 2.562508
419.90 2.604948
420.00 2.635182
420.10 2.642097
420.20 2.622457
420.30 2.567858
420.40 2.483068
420.50 2.379222
420.60 2.271528
420.70 2.170043
420.80 2.076998
420.90 1.995352
421.00 1.929632
421.10 1.881902
421.20 1.85053
421.30 1.833637
421.40 1.82944
421.50 1.82944
421.60 1.82944
421.70 1.82944
421.80 1.837464
421.90 1.859465
422.00 1.896038
422.10 1.945146
422.20 2.002896
422.30 2.063858
422.40 2.121726
422.50 2.170908
422.60 2.209671
422.70 2.240929
422.80 2.269717
422.90 2.301344
423.00 2.340094
423.10 2.383957
423.20 2.425747
423.30 2.459487
423.40 2.481066
423.50 2.48839
423.60 2.482059
423.70 2.465996
423.80 2.446869
423.90 2.431865
424.00 2.4251
424.10 2.426783
424.20 2.435245
424.30 2.446819
424.40 2.456585
424.50 2.460462
424.60 2.45739
424.70 2.448893
424.80 2.436923
424.90 2.423713
425.00 2.414074
425.10 2.413559
425.20 2.421862
425.30 2.433409
425.40 2.438664
425.50 2.431027
425.60 2.412143
425.70 2.379514
425.80 2.33364
425.90 2.277231
426.00 2.215963
426.10 2.169062
426.20 2.16151
426.30 2.196526
426.40 2.264023
426.50 2.342843
426.60 2.41315
426.70 2.458806
426.80 2.47069
426.90 2.449415
427.00 2.409123
427.10 2.369003
427.20 2.332541
427.30 2.301113
427.40 2.273992
427.50 2.249075
427.60 2.227841
427.70 2.214835
427.80 2.214835
427.90 2.215857
428.00 2.228448
428.10 2.254755
428.20 2.296816
428.30 2.353652
428.40 2.421581
428.50 2.495112
428.60 2.559311
428.70 2.588598
428.80 2.587801
428.90 2.566487
429.00 2.533503
429.10 2.496507
429.20 2.463914
429.30 2.439995
429.40 2.420589
429.50 2.396134
429.60 2.360474
429.70 2.315421
429.80 2.268447
429.90 2.226008
430.00 2.195774
430.10 2.188859
430.20 2.188859
430.30 2.188859
430.40 2.188859
430.50 2.188859
430.60 2.188859
430.70 2.188859
430.80 2.188859
430.90 2.188859
431.00 2.188859
431.10 2.188859
431.20 2.188859
431.30 2.188859
431.40 2.188859
431.50 2.188859
431.60 2.188859
431.70 2.194996
431.80 2.19299
431.90 2.17886
432.00 2.154688
432.10 2.123471
432.20 2.08833
432.30 2.052989
432.40 2.021341
432.50 1.997721
432.60 1.984285
432.70 1.97886
432.80 1.976973
432.90 1.973729
433.00 1.965082
433.10 1.950722
433.20 1.937004
433.30 1.932374
433.40 1.942532
433.50 1.969759
433.60 2.0126
433.70 2.06612
433.80 2.12218
433.90 2.172195
434.00 2.214797
434.10 2.255736
434.20 2.300048
434.30 2.350413
434.40 2.40809
434.50 2.471819
434.60 2.534819
434.70 2.587316
434.80 2.622307
434.90 2.637425
435.00 2.632628
435.10 2.617647
435.20 2.599875
435.30 2.584531
435.40 2.577151
435.50 2.578098
435.60 2.578098
435.70 2.578098
435.80 2.578098
435.90 2.578098
436.00 2.578098
436.10 2.566103
436.20 2.523844
436.30 2.453226
436.40 2.363678
436.50 2.270445
436.60 2.191783
436.70 2.135013
436.80 2.103504
436.90 2.096688
437.00 2.102745
437.10 2.106403
437.20 2.106903
437.30 2.106903
437.40 2.106903
437.50 2.106903
437.60 2.106903
437.70 2.106903
437.80 2.106903
437.90 2.111368
438.00 2.115596
438.10 2.116287
438.20 2.105282
438.30 2.07355
438.40 2.01378
438.50 1.94025
438.60 1.867641
438.70 1.80152
438.80 1.745269
438.90 1.701075
439.00 1.669332
439.10 1.647674
439.20 1.6315
439.30 1.631104
439.40 1.660224
439.50 1.696349
439.60 1.717914
439.70 1.716437
439.80 1.716437
439.90 1.716437
440.00 1.716437
440.10 1.716437
440.20 1.716437
440.30 1.716437
440.40 1.716437
440.50 1.716437
440.60 1.716437
440.70 1.716437
440.80 1.716437
440.90 1.716437
441.00 1.716437
441.10 1.716437
441.20 1.716437
441.30 1.716437
441.40 1.716437
441.50 1.716437
441.60 1.716437
441.70 1.7103
441.80 1.704282
441.90 1.696411
442.00 1.68401
442.10 1.666119
442.20 1.64351
442.30 1.617888
442.40 1.591669
442.50 1.566108
442.60 1.54078
442.70 1.514947
442.80 1.488046
442.90 1.459662
443.00 1.42956
443.10 1.397845
443.20 1.36166
443.30 1.316658
443.40 1.261128
443.50 1.195812
443.60 1.12374
443.70 1.049293
443.80 0.9777492
443.90 0.9135856
444.00 0.8557098
444.10 0.7984083
444.20 0.7371633
444.30 0.6695202
444.40 0.5943045
444.50 0.5129545
444.60 0.4327728
444.70 0.3643353
444.80 0.3153758
444.90 0.2886753
445.00 0.2820495
445.10 0.2944636
445.20 0.3131379
445.30 0.3276236
445.40 0.3356352
445.50 0.3384043
445.60 0.3395742
445.70 0.3395742
445.80 0.3395742
445.90 0.3397281
446.00 0.3404122
446.10 0.3415271
446.20 0.343118
446.30 0.3454217
446.40 0.3489817
446.50 0.3560667
446.60 0.3645163
446.70 0.3779646
446.80 0.3995167
446.90 0.4294851
447.00 0.4677939
447.10 0.5150406
447.20 0.5711547
447.30 0.6318971
447.40 0.6967936
447.50 0.7675026
447.60 0.8447815
447.70 0.9279488
447.80 1.014883
447.90 1.095443
448.00 1.1577
448.10 1.198068
448.20 1.220312
448.30 1.234814
448.40 1.253019
448.50 1.266802
448.60 1.271311
448.70 1.271502
448.80 1.271502
448.90 1.271502
449.00 1.271502
449.10 1.271502
449.20 1.271502
449.30 1.258428
449.40 1.218221
449.50 1.173561
449.60 1.14683
449.70 1.14683
449.80 1.14683
449.90 1.14683
450.00 1.14683
450.10 1.160217
450.20 1.207666
450.30 1.286089
450.40 1.399138
450.50 1.54432
450.60 1.712067
450.70 1.890617
450.80 2.066027
450.90 2.225428
451.00 2.356505
451.10 2.449724
451.20 2.503427
451.30 2.523588
451.40 2.523588
451.50 2.523588
451.60 2.523588
451.70 2.523588
451.80 2.523588
451.90 2.523588
452.00 2.523588
452.10 2.523588
452.20 2.523588
452.30 2.523588
452.40 2.523588
452.50 2.523588
452.60 2.523588
452.70 2.54297
452.80 2.575861
452.90 2.613208
453.00 2.646568
453.10 2.670892
453.20 2.685266
453.30 2.690696
453.40 2.690696
453.50 2.690696
453.60 2.690696
453.70 2.690696
453.80 2.690696
453.90 2.690696
454.00 2.690696
454.10 2.690696
454.20 2.690696
454.30 2.690696
454.40 2.70985
454.50 2.749054
454.60 2.805281
454.70 2.873098
454.80 2.944932
454.90 3.012613
455.00 3.070067
455.10 3.101005
455.20 3.109439
455.30 3.107714
455.40 3.103817
455.50 3.100101
455.60 3.098931
455.70 3.098931
455.80 3.098931
455.90 3.098777
456.00 3.098093
456.10 3.096978
456.20 3.095387
456.30 3.093083
456.40 3.089523
456.50 3.082438
456.60 3.068563
456.70 3.045996
456.80 3.01468
456.90 2.976428
457.00 2.932062
457.10 2.881158
457.20 2.824544
457.30 2.763801
457.40 2.698905
457.50 2.628196
457.60 2.550917
457.70 2.467749
457.80 2.380816
457.90 2.294768
458.00 2.215693
458.10 2.148326
458.20 2.095026
458.30 2.05542
458.40 2.029056
458.50 2.015272
458.60 2.010764
458.70 2.010573
458.80 2.010573
458.90 2.010573
459.00 2.010573
459.10 2.010573
459.20 2.010573
459.30 2.010573
459.40 2.010573
459.50 2.010573
459.60 2.010573
459.70 2.010573
459.80 2.010573
459.90 2.010573
460.00 2.010573
460.10 1.997185
460.20 1.949737
460.30 1.871314
460.40 1.758264
460.50 1.621821
460.60 1.486695
460.70 1.354926
460.80 1.228289
460.90 1.107042
461.00 0.9922788
461.10 0.8990596
461.20 0.8453561
461.30 0.8251955
461.40 0.8251955
461.50 0.8251955
461.60 0.8251955
461.70 0.8251955
461.80 0.8251955
461.90 0.8251955
462.00 0.8251955
462.10 0.8251955
462.20 0.8251955
462.30 0.8251955
462.40 0.8251955
462.50 0.8251955
462.60 0.8251955
462.70 0.8058136
462.80 0.7729224
462.90 0.7355755
463.00 0.7216849
463.10 0.7614887
463.20 0.8564272
463.30 0.9971775
463.40 1.164204
463.50 1.331433
463.60 1.479857
463.70 1.595936
463.80 1.672105
463.90 1.708819
464.00 1.715596
464.10 1.715596
464.20 1.715596
464.30 1.722216
464.40 1.725233
464.50 1.725684
464.60 1.72548
464.70 1.726343
464.80 1.729726
464.90 1.736691
465.00 1.746457
465.10 1.757655
465.20 1.77053
465.30 1.784501
465.40 1.796668
465.50 1.805291
465.60 1.805612
465.70 1.805612
465.80 1.805612
465.90 1.805612
466.00 1.805612
466.10 1.805612
466.20 1.805612
466.30 1.805612
466.40 1.805612
466.50 1.805612
466.60 1.805612
466.70 1.806661
466.80 1.824363
466.90 1.849361
467.00 1.872222
467.10 1.888184
467.20 1.89405
467.30 1.89405
467.40 1.89405
467.50 1.89405
467.60 1.89405
467.70 1.89405
467.80 1.89405
467.90 1.89405
468.00 1.89405
468.10 1.89405
468.20 1.89405
468.30 1.89405
468.40 1.89405
468.50 1.89405
468.60 1.89405
468.70 1.895106
468.80 1.897564
468.90 1.897564
469.00 1.897564
469.10 1.897564
469.20 1.897564
469.30 1.897564
469.40 1.897564
469.50 1.897564
469.60 1.897564
469.70 1.897564
469.80 1.897564
469.90 1.897564
470.00 1.897564
470.10 1.897564
470.20 1.897564
470.30 1.897564
470.40 1.897564
470.50 1.890087
470.60 1.857467
470.70 1.810686
470.80 1.761912
470.90 1.723758
471.00 1.707445
471.10 1.707445
471.20 1.707445
471.30 1.707445
471.40 1.707445
471.50 1.707445
471.60 1.707445
471.70 1.707445
471.80 1.707445
471.90 1.707445
472.00 1.707445
472.10 1.707445
472.20 1.707445
472.30 1.707445
472.40 1.707445
472.50 1.707445
472.60 1.707445
472.70 1.707445
472.80 1.717709
472.90 1.737627
473.00 1.744792
473.10 1.710613
473.20 1.630347
473.30 1.507686
473.40 1.358427
473.50 1.208916
473.60 1.083772
473.70 0.9992511
473.80 0.9635026
473.90 0.9736967
474.00 1.015462
474.10 1.05688
474.20 1.079962
474.30 1.073341
474.40 1.05117
474.50 1.011516
474.60 0.9554929
474.70 0.8868125
474.80 0.8115959
474.90 0.7369485
475.00 0.6697298
475.10 0.6151785
475.20 0.575196
475.30 0.5484647
475.40 0.5321825
475.50 0.5235596
475.60 0.5232385
475.70 0.531465
475.80 0.5484098
475.90 0.570164
476.00 0.5926558
476.10 0.6125352
476.20 0.6261711
476.30 0.6301539
476.40 0.6301539
476.50 0.6301539
476.60 0.6301539
476.70 0.6291054
476.80 0.6114032
476.90 0.5864053
477.00 0.5635443
477.10 0.5475819
477.20 0.5417163
477.30 0.5417163
477.40 0.5417163
477.50 0.5417163
477.60 0.5417163
477.70 0.5470317
477.80 0.5549751
477.90 0.5623437
478.00 0.5671961
478.10 0.5671961
478.20 0.5671961
478.30 0.5671961
478.40 0.5671961
478.50 0.5671961
478.60 0.5671961
478.70 0.5661394
478.80 0.563682
478.90 0.563682
479.00 0.563682
479.10 0.5656491
479.20 0.569881
479.30 0.5741356
479.40 0.5776393
479.50 0.5818415
479.60 0.5891554
479.70 0.6017169
479.80 0.6205559
479.90 0.6457626
480.00 0.6762381
480.10 0.7086884
480.20 0.7382895
480.30 0.7598108
480.40 0.7692577
480.50 0.7679962
480.60 0.7679962
480.70 0.7679962
480.80 0.7679962
480.90 0.7679962
481.00 0.7916852
481.10 0.8508047
481.20 0.9454345
481.30 1.068639
481.40 1.207844
481.50 1.34816
481.60 1.475301
481.70 1.578324
481.80 1.648244
481.90 1.678953
482.00 1.678953
482.10 1.678953
482.20 1.678953
482.30 1.678953
482.40 1.678953
482.50 1.678953
482.60 1.678953
482.70 1.678953
482.80 1.668688
482.90 1.64877
483.00 1.627949
483.10 1.605752
483.20 1.58277
483.30 1.563835
483.40 1.5496
483.50 1.537338
483.60 1.526352
483.70 1.517496
483.80 1.509716
483.90 1.499487
484.00 1.483556
484.10 1.463274
484.20 1.444768
484.30 1.444768
484.40 1.444768
484.50 1.444768
484.60 1.444768
484.70 1.444768
484.80 1.444768
484.90 1.444768
485.00 1.444768
485.10 1.444768
485.20 1.444768
485.30 1.444768
485.40 1.444768
485.50 1.444768
485.60 1.444768
485.70 1.436541
485.80 1.419597
485.90 1.397842
486.00 1.375351
486.10 1.355471
486.20 1.341835
486.30 1.345538
486.40 1.366815
486.50 1.400218
486.60 1.441183
486.70 1.484553
486.80 1.525934
486.90 1.561881
487.00 1.590427
487.10 1.610638
487.20 1.62239
487.30 1.626272
487.40 1.626272
487.50 1.626272
487.60 1.626272
487.70 1.620956
487.80 1.613013
487.90 1.605644
488.00 1.600792
488.10 1.600792
488.20 1.600792
488.30 1.600792
488.40 1.600792
488.50 1.603106
488.60 1.607713
488.70 1.613265
488.80 1.615897
488.90 1.615897
489.00 1.615897
489.10 1.613929
489.20 1.609697
489.30 1.605443
489.40 1.601939
489.50 1.597737
489.60 1.590423
489.70 1.577862
489.80 1.562713
489.90 1.55369
490.00 1.547027
490.10 1.539833
490.20 1.533018
490.30 1.530391
490.40 1.534876
490.50 1.543758
490.60 1.547894
490.70 1.547894
490.80 1.547894
490.90 1.547894
491.00 1.524205
491.10 1.465085
491.20 1.382301
491.30 1.291134
491.40 1.207667
491.50 1.143757
491.60 1.104882
491.70 1.091309
491.80 1.101461
491.90 1.133024
492.00 1.173384
492.10 1.192566
492.20 1.195825
492.30 1.195825
492.40 1.195825
492.50 1.204044
492.60 1.220048
492.70 1.240775
492.80 1.261836
492.90 1.280636
493.00 1.29088
493.10 1.294803
493.20 1.293886
493.30 1.289302
493.40 1.285771
493.50 1.280313
493.60 1.268019
493.70 1.245318
493.80 1.212677
493.90 1.175998
494.00 1.143388
494.10 1.122251
494.20 1.117676
494.30 1.117676
494.40 1.117676
494.50 1.117676
494.60 1.117676
494.70 1.117676
494.80 1.117676
494.90 1.117676
495.00 1.122133
495.10 1.129042
495.20 1.136967
495.30 1.146686
495.40 1.158991
495.50 1.174524
495.60 1.193195
495.70 1.214403
495.80 1.237242
495.90 1.260311
496.00 1.282355
496.10 1.302762
496.20 1.321111
496.30 1.328827
496.40 1.31738
496.50 1.284845
496.60 1.24388
496.70 1.200509
496.80 1.159129
496.90 1.123182
497.00 1.094636
497.10 1.074424
497.20 1.062673
497.30 1.058791
497.40 1.058791
497.50 1.058791
497.60 1.058791
497.70 1.058791
497.80 1.058791
497.90 1.058791
498.00 1.058791
498.10 1.058791
498.20 1.058791
498.30 1.058791
498.40 1.058791
498.50 1.056477
498.60 1.05187
498.70 1.046318
498.80 1.043686
498.90 1.043686
499.00 1.043686
499.10 1.043686
499.20 1.043686
499.30 1.043686
499.40 1.043686
499.50 1.043686
499.60 1.043686
499.70 1.043686
499.80 1.039996
499.90 1.023812
500.00 1
500.10 0.9747431
500.20 0.9519577
500.30 0.9330633
500.40 0.9191309
500.50 0.9102491
500.60 0.9061135
500.70 0.9061135
500.80 0.9061135
500.90 0.9061135
501.00 0.9061135
501.10 0.9062878
501.20 0.8962388
501.30 0.867617
501.40 0.8170204
501.50 0.7473372
501.60 0.6672572
501.70 0.5883194
501.80 0.522677
501.90 0.4798232
502.00 0.4626803
502.10 0.4677271
502.20 0.4876688
502.30 0.5086443
502.40 0.5267903
502.50 0.5339806
502.60 0.531263
502.70 0.522751
502.80 0.5140589
502.90 0.5095305
503.00 0.5122501
503.10 0.5251515
503.20 0.5494138
503.30 0.5816195
503.40 0.6165267
503.50 0.6560537
503.60 0.7004182
503.70 0.747536
503.80 0.7942167
503.90 0.8372714
504.00 0.8741748
504.10 0.9044834
504.20 0.9281783
504.30 0.9443112
504.40 0.9519913
504.50 0.9519913
504.60 0.9519913
504.70 0.9519913
504.80 0.9519913
504.90 0.9519913
505.00 0.9475343
505.10 0.9406247
505.20 0.9366754
505.30 0.9349838
505.40 0.9323603
505.50 0.9228715
505.60 0.9042006
505.70 0.8829931
505.80 0.8601542
505.90 0.8370855
506.00 0.8150413
506.10 0.8075026
506.20 0.8251793
506.30 0.8697135
506.40 0.9396001
506.50 1.03009
506.60 1.122636
506.70 1.205911
506.80 1.272404
506.90 1.319452
507.00 1.348755
507.10 1.365414
507.20 1.375288
507.30 1.381399
507.40 1.38471
507.50 1.386619
507.60 1.388223
507.70 1.389728
507.80 1.390703
507.90 1.390703
508.00 1.390703
508.10 1.390703
508.20 1.390703
508.30 1.390703
508.40 1.390703
508.50 1.390703
508.60 1.390703
508.70 1.390703
508.80 1.390703
508.90 1.390703
509.00 1.390703
509.10 1.390703
509.20 1.390703
509.30 1.390703
509.40 1.390703
509.50 1.390703
509.60 1.390703
509.70 1.390703
509.80 1.390703
509.90 1.390703
510.00 1.390703
510.10 1.390703
510.20 1.390703
510.30 1.390703
510.40 1.390703
510.50 1.390703
510.60 1.390703
510.70 1.390703
510.80 1.390703
510.90 1.390703
511.00 1.390703
511.10 1.390528
511.20 1.388732
511.30 1.385317
511.40 1.380175
511.50 1.373452
511.60 1.365266
511.70 1.354753
511.80 1.340325
511.90 1.320906
512.00 1.297689
512.10 1.273461
512.20 1.25026
512.30 1.229284
512.40 1.211976
512.50 1.196869
512.60 1.183582
512.70 1.171368
512.80 1.158999
512.90 1.144727
513.00 1.125951
513.10 1.101374
513.20 1.071964
513.30 1.039758
513.40 1.004851
513.50 0.9653237
513.60 0.9326071
513.70 0.9151028
513.80 0.9181093
513.90 0.9432678
514.00 0.9882628
514.10 1.045794
514.20 1.106884
514.30 1.163999
514.40 1.212258
514.50 1.249225
514.60 1.272198
514.70 1.292943
514.80 1.323753
514.90 1.370935
515.00 1.433901
515.10 1.507768
515.20 1.581214
515.30 1.646043
515.40 1.69715
515.50 1.734803
515.60 1.760032
515.70 1.769099
515.80 1.769099
515.90 1.769099
516.00 1.769099
516.10 1.759076
516.20 1.730658
516.30 1.681958
516.40 1.615825
516.50 1.539127
516.60 1.460902
516.70 1.390712
516.80 1.335906
516.90 1.299295
517.00 1.279679
517.10 1.27322
517.20 1.275675
517.30 1.284504
517.40 1.296351
517.50 1.305873
517.60 1.307817
517.70 1.306313
517.80 1.305338
517.90 1.305338
518.00 1.305338
518.10 1.305338
518.20 1.305338
518.30 1.305338
518.40 1.305338
518.50 1.305338
518.60 1.305338
518.70 1.305338
518.80 1.305338
518.90 1.305338
519.00 1.305338
519.10 1.305338
519.20 1.313289
519.30 1.322498
519.40 1.328562
519.50 1.332018
519.60 1.332812
519.70 1.332812
519.80 1.332812
519.90 1.332812
520.00 1.332812
520.10 1.332812
520.20 1.332812
520.30 1.332812
520.40 1.332812
520.50 1.332812
520.60 1.333778
520.70 1.336383
520.80 1.339847
520.90 1.343084
521.00 1.345852
521.10 1.348925
521.20 1.35287
521.30 1.357879
521.40 1.363522
521.50 1.368845
521.60 1.371484
521.70 1.371484
521.80 1.371484
521.90 1.371484
522.00 1.371484
522.10 1.371484
522.20 1.371484
522.30 1.371484
522.40 1.370646
522.50 1.370344
522.60 1.370344
522.70 1.370344
522.80 1.370344
522.90 1.370344
523.00 1.370344
523.10 1.370344
523.20 1.370344
523.30 1.370344
523.40 1.370344
523.50 1.374832
523.60 1.378229
523.70 1.373549
523.80 1.358389
523.90 1.333384
524.00 1.297942
524.10 1.248063
524.20 1.179714
524.30 1.106466
524.40 1.050527
524.50 1.01356
524.60 0.9905872
524.70 0.9698414
524.80 0.9390323
524.90 0.8918497
525.00 0.8288837
525.10 0.7550172
525.20 0.6775955
525.30 0.6049566
525.40 0.5441682
525.50 0.5004706
525.60 0.4752416
525.70 0.4661746
525.80 0.4661746
525.90 0.4661746
526.00 0.4661746
526.10 0.4633293
526.20 0.4557207
526.30 0.4444856
526.40 0.430902
526.50 0.4162426
526.60 0.4019203
526.70 0.3888366
526.80 0.3771491
526.90 0.377664
527.00 0.3905355
527.10 0.4073099
527.20 0.4140085
527.30 0.40037
527.40 0.385212
527.50 0.3737818
527.60 0.3702327
527.70 0.3702327
527.80 0.3702327
527.90 0.3702327
528.00 0.3702327
528.10 0.3702327
528.20 0.3702327
528.30 0.3702327
528.40 0.3702327
528.50 0.3702327
528.60 0.3702327
528.70 0.3702327
528.80 0.3702327
528.90 0.3702327
529.00 0.3702327
529.10 0.3702327
529.20 0.3672799
529.30 0.3689092
529.40 0.3787624
529.50 0.3951706
529.60 0.416699
529.70 0.4395716
529.80 0.4609319
529.90 0.4791064
530.00 0.4939368
530.10 0.5066673
530.20 0.5186533
530.30 0.5280446
530.40 0.5306981
530.50 0.5306981
530.60 0.5297322
530.70 0.527127
530.80 0.5236622
530.90 0.5204252
531.00 0.5176575
531.10 0.5145842
531.20 0.5106394
531.30 0.5056306
531.40 0.5027156
531.50 0.5019871
531.60 0.5027807
531.70 0.5043648
531.80 0.5055748
531.90 0.5073403
532.00 0.5100359
532.10 0.5135477
532.20 0.51617
532.30 0.51617
532.40 0.51617
532.50 0.51617
532.60 0.51617
532.70 0.51617
532.80 0.51617
532.90 0.51617
533.00 0.51617
533.10 0.51617
533.20 0.5199155
533.30 0.5235839
533.40 0.5235839
533.50 0.5190954
533.60 0.5040506
533.70 0.4791176
533.80 0.4445903
533.90 0.4013822
534.00 0.354926
534.10 0.316964
534.20 0.300529
534.30 0.300529
534.40 0.300529
534.50 0.300529
534.60 0.300529
534.70 0.300529
534.80 0.300529
534.90 0.300529
535.00 0.300529
535.10 0.300529
535.20 0.300529
535.30 0.3003117
535.40 0.3003117
535.50 0.3003117
535.60 0.3003117
535.70 0.3003117
535.80 0.3003117
535.90 0.3003117
536.00 0.3003117
536.10 0.3003117
536.20 0.3003117
536.30 0.3003117
536.40 0.3003117
536.50 0.3003117
536.60 0.3003117
536.70 0.3003117
536.80 0.3003117
536.90 0.2893599
537.00 0.2668012
537.10 0.2398273
537.20 0.2207992
537.30 0.2213226
537.40 0.2213226
537.50 0.2213226
537.60 0.2213226
537.70 0.2213226
537.80 0.2213226
537.90 0.2213226
538.00 0.2213226
538.10 0.2213226
538.20 0.2213226
538.30 0.2213226
538.40 0.2213226
538.50 0.2271337
538.60 0.2367742
538.70 0.2458989
538.80 0.2518398
538.90 0.2542147
539.00 0.2542147
539.10 0.2542147
539.20 0.2492163
539.30 0.2383775
539.40 0.222461
539.50 0.2025962
539.60 0.1802745
539.70 0.1574019
539.80 0.1360416
539.90 0.1178671
540.00 0.1030366
540.10 0.09030617
540.20 0.07832013
540.30 0.07041756
540.40 0.07231642
540.50 0.07768547
540.60 0.08155413
540.70 0.08156904
540.80 0.08156904
540.90 0.08156904
541.00 0.08156904
541.10 0.08156904
541.20 0.08156904
541.30 0.08156904
541.40 0.07884062
541.50 0.07424707
541.60 0.07081371
541.70 0.06922964
541.80 0.06801963
541.90 0.06625415
542.00 0.06355857
542.10 0.06004674
542.20 0.05742444
542.30 0.05742444
542.40 0.05742444
542.50 0.05742444
542.60 0.05742444
542.70 0.05742444
542.80 0.05742444
542.90 0.05742444
543.00 0.05742444
543.10 0.05742444
543.20 0.05367893
543.30 0.05001058
543.40 0.05001058
543.50 0.05001058
543.60 0.05001058
543.70 0.05001058
543.80 0.05001058
543.90 0.05001058
544.00 0.05001058
544.10 0.05001058
544.20 0.05001058
544.30 0.05001058
544.40 0.05370301
544.50 0.06696832
544.60 0.09289213
544.70 0.1320309
544.80 0.1824025
544.90 0.2396408
545.00 0.2973819
545.10 0.3485196
545.20 0.3870054
545.30 0.409387
545.40 0.4157861
545.50 0.4157861
545.60 0.4157861
545.70 0.4157861
545.80 0.4157861
545.90 0.4157861
546.00 0.4157861
546.10 0.4157861
546.20 0.4157861
546.30 0.4157861
546.40 0.4157861
546.50 0.4157861
546.60 0.4157861
546.70 0.4157861
546.80 0.4157861
546.90 0.4157861
547.00 0.4157861
547.10 0.4157861
547.20 0.4157861
547.30 0.4139613
547.40 0.4139613
547.50 0.4139613
547.60 0.4139613
547.70 0.4139613
547.80 0.4139613
547.90 0.4139613
548.00 0.4139613
548.10 0.4139613
548.20 0.4139613
548.30 0.4139613
548.40 0.4139613
548.50 0.4081502
548.60 0.3985096
548.70 0.3893849
548.80 0.383444
548.90 0.3810691
549.00 0.3810691
549.10 0.3810691
549.20 0.3810691
549.30 0.3810691
549.40 0.3810691
549.50 0.3810691
549.60 0.3810691
549.70 0.3810691
549.80 0.3810691
549.90 0.3810691
550.00 0.9144387
550.10 0.9144387
550.20 0.9144387
550.30 0.9144387
550.40 0.9144387
550.50 0.9144387
550.60 0.9144387
550.70 0.9144387
550.80 0.9144387
550.90 0.9144387
551.00 0.9144387
551.10 0.9144387
551.20 0.9144387
551.30 0.9144387
551.40 0.9052077
551.50 0.8720444
551.60 0.8072349
551.70 0.709388
551.80 0.583459
551.90 0.4403631
552.00 0.2960105
552.10 0.1681662
552.20 0.07195176
552.30 0.01599765
552.40 0
552.50 0
552.60 0
552.70 0
552.80 0
552.90 0
553.00 0
553.10 0
553.20 0
553.30 0
553.40 0
553.50 0
553.60 0
553.70 0
553.80 0
553.90 0
554.00 0.003254268
554.10 0.01314306
554.20 0.02199131
554.30 0.02199131
554.40 0.02199131
554.50 0.02199131
554.60 0.02199131
554.70 0.02199131
554.80 0.02199131
554.90 0.02199131
555.00 0.02829773
555.10 0.0571609
555.20 0.1028354
555.30 0.1253741
555.40 0.1253741
555.50 0.1253741
555.60 0.1253741
555.70 0.1253741
555.80 0.1253741
555.90 0.1253741
556.00 0.1253741
556.10 0.1253741
556.20 0.1253741
556.30 0.1253741
556.40 0.1253741
556.50 0.1372362
556.60 0.193285
556.70 0.2567125
556.80 0.3250872
556.90 0.3989994
557.00 0.4766272
557.10 0.5551117
557.20 0.6309958
557.30 0.702168
557.40 0.7681675
557.50 0.8289412
557.60 0.8837699
557.70 0.9343933
557.80 0.9862804
557.90 1.04491
558.00 1.110792
558.10 1.181618
558.20 1.261938
558.30 1.353155
558.40 1.439665
558.50 1.515185
558.60 1.57369
558.70 1.609737
558.80 1.621209
558.90 1.621209
559.00 1.614903
559.10 1.58604
559.20 1.540365
559.30 1.517827
559.40 1.517827
559.50 1.517827
559.60 1.517827
559.70 1.517827
559.80 1.517827
559.90 1.517827
560.00 1.517827
560.10 1.555231
560.20 1.646806
560.30 1.784599
560.40 1.955327
560.50 2.132522
560.60 2.26683
560.70 2.375801
560.80 2.443967
560.90 2.459218
561.00 2.421006
561.10 2.342521
561.20 2.266637
561.30 2.195465
561.40 2.129465
561.50 2.068692
561.60 2.013863
561.70 1.96324
561.80 1.911352
561.90 1.852723
562.00 1.783587
562.10 1.723088
562.20 1.726792
562.30 1.80241
562.40 1.942835
562.50 2.125454
562.60 2.318763
562.70 2.493503
562.80 2.627656
562.90 2.700023
563.00 2.708047
563.10 2.708047
563.20 2.708047
563.30 2.708047
563.40 2.708047
563.50 2.713081
563.60 2.731089
563.70 2.758222
563.80 2.790718
563.90 2.830952
564.00 2.886266
564.10 2.92451
564.20 2.929506
564.30 2.904393
564.40 2.85366
564.50 2.780519
564.60 2.68805
564.70 2.575041
564.80 2.438976
564.90 2.349813
565.00 2.310398
565.10 2.310398
565.20 2.310398
565.30 2.310398
565.40 2.310398
565.50 2.310398
565.60 2.310398
565.70 2.310398
565.80 2.310398
565.90 2.310398
566.00 2.314841
566.10 2.309506
566.20 2.235738
566.30 2.081926
566.40 1.854991
566.50 1.596852
566.60 1.345037
566.70 1.134252
566.80 0.9886257
566.90 0.9162585
567.00 0.9082343
567.10 0.9082343
567.20 0.9082343
567.30 0.9304313
567.40 0.9672937
567.50 1.001278
567.60 1.012831
567.70 1.000916
567.80 0.9712972
567.90 0.9310628
568.00 0.8757489
568.10 0.8001008
568.20 0.7035296
568.30 0.5908497
568.40 0.470855
568.50 0.3549382
568.60 0.2570503
568.70 0.2027085
568.80 0.212663
568.90 0.2276489
569.00 0.2462078
569.10 0.2666938
569.20 0.2816405
569.30 0.2816405
569.40 0.2816405
569.50 0.2816405
569.60 0.2816405
569.70 0.2816405
569.80 0.2816405
569.90 0.2816405
570.00 0.2771977
570.10 0.2623161
570.20 0.2466085
570.30 0.2480957
570.40 0.2613481
570.50 0.2613481
570.60 0.2613481
570.70 0.2613481
570.80 0.2613481
570.90 0.2613481
571.00 0.2613481
571.10 0.2619034
571.20 0.2741135
571.30 0.2726756
571.40 0.2606273
571.50 0.2469214
571.60 0.2406736
571.70 0.2440099
571.80 0.2524905
571.90 0.2524905
572.00 0.2524905
572.10 0.2524905
572.20 0.2524905
572.30 0.2524905
572.40 0.2524905
572.50 0.2524905
572.60 0.2524905
572.70 0.2474428
572.80 0.2370126
572.90 0.2220266
573.00 0.2034677
573.10 0.1829817
573.20 0.1680351
573.30 0.1680351
573.40 0.1680351
573.50 0.1680351
573.60 0.1680351
573.70 0.1680351
573.80 0.1680351
573.90 0.1680351
574.00 0.1795518
574.10 0.2060827
574.20 0.235013
574.30 0.2573783
574.40 0.2856695
574.50 0.3298976
574.60 0.3737959
574.70 0.4137483
574.80 0.4456567
574.90 0.4653842
575.00 0.4703418
575.10 0.4697865
575.20 0.4575764
575.30 0.4368173
575.40 0.4120032
575.50 0.386692
575.60 0.3764325
575.70 0.3991553
575.80 0.4569343
575.90 0.548109
576.00 0.6517345
576.10 0.7559044
576.20 0.8488208
576.30 0.9223849
576.40 0.9730854
576.50 0.999281
576.60 1.002004
576.70 1.002004
576.80 1.002004
576.90 1.002004
577.00 1.002004
577.10 1.002004
577.20 1.002004
577.30 1.002004
577.40 1.002004
577.50 1.002004
577.60 1.002004
577.70 1.002004
577.80 1.002004
577.90 1.010093
578.00 1.013425
578.10 1.004134
578.20 0.9882081
578.30 0.9674315
578.40 0.9441322
578.50 0.922131
578.60 0.9050863
578.70 0.8928115
578.80 0.8749031
578.90 0.8551755
579.00 0.850218
579.10 0.850218
579.20 0.850218
579.30 0.850218
579.40 0.850218
579.50 0.850218
579.60 0.8371632
579.70 0.7958858
579.80 0.7267497
579.90 0.635575
580.00 0.5319495
580.10 0.4277796
580.20 0.3348632
580.30 0.2612992
580.40 0.2105986
580.50 0.184403
580.60 0.1816805
580.70 0.1816805
580.80 0.1816805
580.90 0.1816805
581.00 0.1816805
581.10 0.1816805
581.20 0.1828566
581.30 0.1888904
581.40 0.1915821
581.50 0.1915821
581.60 0.1915821
581.70 0.1915821
581.80 0.1915821
581.90 0.1834925
582.00 0.1686437
582.10 0.1514036
582.20 0.1350028
582.30 0.1378144
582.40 0.1558608
582.50 0.1760201
582.60 0.1849841
582.70 0.1703585
582.80 0.1563585
582.90 0.1563585
583.00 0.1563585
583.10 0.1563585
583.20 0.1563585
583.30 0.1563585
583.40 0.1563585
583.50 0.1563585
583.60 0.1563585
583.70 0.1563585
583.80 0.1563585
583.90 0.1563585
584.00 0.1563585
584.10 0.1852275
584.20 0.2415056
584.30 0.3226137
584.40 0.4253363
584.50 0.5486856
584.60 0.690988
584.70 0.8426535
584.80 0.9882471
584.90 1.11316
585.00 1.206018
585.10 1.260452
585.20 1.277146
585.30 1.271112
585.40 1.26842
585.50 1.26842
585.60 1.26842
585.70 1.26842
585.80 1.26842
585.90 1.303155
586.00 1.396249
586.10 1.560156
586.20 1.796937
586.30 2.072816
586.40 2.356331
586.50 2.615131
586.60 2.820167
586.70 2.955954
586.80 2.995858
586.90 2.995858
587.00 2.995858
587.10 2.995858
587.20 2.995858
587.30 2.995858
587.40 2.995858
587.50 2.995858
587.60 2.995858
587.70 2.995858
587.80 2.995858
587.90 2.995858
588.00 2.995858
588.10 2.966989
588.20 2.910711
588.30 2.882764
588.40 2.955726
588.50 3.083905
588.60 3.226438
588.70 3.343125
588.80 3.385126
588.90 3.306323
589.00 3.213466
589.10 3.159031
589.20 3.141161
589.30 3.141161
589.40 3.141161
589.50 3.141161
589.60 3.141161
589.70 3.141161
589.80 3.141161
589.90 3.106426
590.00 3.013333
590.10 2.862408
590.20 2.65185
590.30 2.401691
590.40 2.147262
590.50 1.920377
590.60 1.740573
590.70 1.622976
590.80 1.583071
590.90 1.583071
591.00 1.583071
591.10 1.583071
591.20 1.583071
591.30 1.583071
591.40 1.583071
591.50 1.583071
591.60 1.583071
591.70 1.583071
591.80 1.583071
591.90 1.657973
592.00 1.794864
592.10 1.938168
592.20 2.035674
592.30 2.001373
592.40 1.825687
592.50 1.57416
592.60 1.289325
592.70 1.020971
592.80 0.8333769
592.90 0.787267
593.00 0.787267
593.10 0.787267
593.20 0.787267
593.30 0.787267
593.40 0.787267
593.50 0.787267
593.60 0.787267
593.70 0.787267
593.80 0.787267
593.90 0.787267
594.00 0.8051865
594.10 0.8102948
594.20 0.7840727
594.30 0.739443
594.40 0.6740664
594.50 0.5997647
594.60 0.5387147
594.70 0.507473
594.80 0.507473
594.90 0.507473
595.00 0.507473
595.10 0.507473
595.20 0.507473
595.30 0.507473
595.40 0.507473
595.50 0.507473
595.60 0.507473
595.70 0.5123627
595.80 0.5507457
595.90 0.5165633
596.00 0.3937422
596.10 0.2504376
596.20 0.1529324
596.30 0.1340729
596.40 0.1340729
596.50 0.1340729
596.60 0.1340729
596.70 0.1340729
596.80 0.1340729
596.90 0.1340729
597.00 0.1340729
597.10 0.1340729
597.20 0.1340729
597.30 0.1340729
597.40 0.1340729
597.50 0.1340729
597.60 0.1340729
597.70 0.1340729
597.80 0.1340729
597.90 0.1340729
598.00 0.1161534
598.10 0.09806165
598.20 0.09806165
598.30 0.09806165
598.40 0.09806165
598.50 0.09806165
598.60 0.09806165
598.70 0.09806165
598.80 0.0989533
598.90 0.1050837
599.00 0.1050837
599.10 0.1050837
599.20 0.1050837
599.30 0.1050837
599.40 0.1050837
599.50 0.1050837
599.60 0.1050837
599.70 0.100194
599.80 0.09263868
599.90 0.128512
600.00 0
600.10 0
600.20 0
600.30 0
600.40 0
600.50 0
600.60 0
600.70 0
600.80 0.0356662
600.90 0.2452155
601.00 0
601.10 0
601.20 0
601.30 0
601.40 0
601.50 0
601.60 0
601.70 0
601.80 1.233107
601.90 3.063717
602.00 4.209313
602.10 4.111178
602.20 2.167985
602.30 0
602.40 0
602.50 0
602.60 0
602.70 0
602.80 0
602.90 0
603.00 0
603.10 0
603.20 0
603.30 0
603.40 0
603.50 0
603.60 0
603.70 0
603.80 0
603.90 0
604.00 0.2969833
604.10 1.162133
604.20 1.685992
604.30 1.542441
604.40 0.7090288
604.50 0
604.60 0
604.70 0
604.80 0
604.90 0
605.00 0
605.10 0
605.20 0
605.30 0
605.40 0
605.50 0
605.60 0
605.70 0
605.80 0
605.90 0
606.00 0.6751071
606.10 3.994058
606.20 6.21937
606.30 7.539448
606.40 7.988545
606.50 7.513319
606.60 6.583203
606.70 5.913074
606.80 5.781109
606.90 6.108172
607.00 6.732223
607.10 7.456728
607.20 7.980759
607.30 8.048783
607.40 7.637389
607.50 6.54494
607.60 4.477141
607.70 1.543381
607.80 0
607.90 0
608.00 0
608.10 0
608.20 0
608.30 0
608.40 0
608.50 0
608.60 0
608.70 0
608.80 0
608.90 0
609.00 0
609.10 0
609.20 0
609.30 0
609.40 0
609.50 0
609.60 0
609.70 0
609.80 0
609.90 0
610.00 0
610.10 0
610.20 0
610.30 0
610.40 0
610.50 0
610.60 0
610.70 0
610.80 0
610.90 0
611.00 0
611.10 0
611.20 0
611.30 0
611.40 0
611.50 0
611.60 0
611.70 0
611.80 0
611.90 0
612.00 0
612.10 0
612.20 0.7247707
612.30 1.076529
612.40 0.9459644
612.50 0.3590793
612.60 0
612.70 0
612.80 0
612.90 0
613.00 0
613.10 0
613.20 0
613.30 0
613.40 0
613.50 1.775526
613.60 3.557816
613.70 4.778578
613.80 5.37691
613.90 5.460361
614.00 5.16289
614.10 4.588174
614.20 3.904374
614.30 3.320448
614.40 2.825958
614.50 2.139193
614.60 0.9343283
614.70 0
614.80 0
614.90 0
615.00 0
615.10 0
615.20 0
615.30 0
615.40 0
615.50 0
615.60 0
615.70 0.8175847
615.80 1.067076
615.90 0.325849
616.00 0
616.10 0
616.20 0
616.30 0
616.40 0
616.50 0.3525768
616.60 0.5972087
616.70 0.726444
616.80 0.9621358
616.90 1.084229
617.00 0.9321592
617.10 0.5177593
617.20 0
617.30 0
617.40 0
617.50 0
617.60 0
617.70 0
617.80 0
617.90 0
618.00 0.3593831
618.10 1.008331
618.20 1.822794
618.30 2.835216
618.40 3.750675
618.50 4.336448
618.60 4.604306
618.70 4.568422
618.80 4.141594
618.90 3.283261
619.00 2.112043
619.10 0.8592111
619.20 0
619.30 0
619.40 0
619.50 0
619.60 0.009469166
619.70 0.2563041
619.80 0.2671249
619.90 0
620.00 0
620.10 0
620.20 0
620.30 0
620.40 0
620.50 0
620.60 0
620.70 0
620.80 0
620.90 0.2214735
621.00 2.973515
621.10 3.885822
621.20 2.917799
621.30 0.6417761
621.40 0
621.50 0
621.60 0
621.70 0
621.80 0
621.90 0
622.00 0
622.10 0
622.20 0
622.30 0
622.40 0
622.50 0
622.60 0
622.70 1.730505
622.80 3.028255
622.90 3.543379
623.00 3.600211
623.10 3.654424
623.20 3.859308
623.30 4.175466
623.40 4.834597
623.50 6.046134
623.60 7.553199
623.70 8.96062
623.80 9.904132
623.90 10.091
624.00 9.392358
624.10 8.065621
624.20 6.54732
624.30 5.169229
624.40 4.096371
624.50 3.574639
624.60 3.824818
624.70 4.782193
624.80 5.842314
624.90 6.278216
625.00 5.946408
625.10 4.972105
625.20 3.577203
625.30 2.023075
625.40 0.4480872
625.50 0
625.60 0
625.70 0
625.80 0
625.90 0
626.00 0
626.10 0
626.20 0
626.30 1.655795
626.40 3.750505
626.50 5.530464
626.60 6.633029
626.70 6.844133
626.80 6.325793
626.90 5.312906
627.00 3.788792
627.10 1.667624
627.20 0
627.30 0
627.40 0
627.50 0
627.60 0
627.70 0
627.80 0
627.90 0
628.00 0
628.10 1.654136
628.20 2.558536
628.30 1.880894
628.40 0
628.50 0
628.60 0
628.70 0
628.80 0
628.90 0
629.00 0
629.10 0
629.20 0
629.30 0.2594223
629.40 3.474287
629.50 5.042731
629.60 3.353847
629.70 0
629.80 0
629.90 0
630.00 0
630.10 0
630.20 0
630.30 0
630.40 0
630.50 0
630.60 0
630.70 6.467239
630.80 11.328
630.90 12.19111
631.00 10.39984
631.10 7.766835
631.20 5.575118
631.30 4.250205
631.40 3.564129
631.50 3.181327
631.60 3.041728
631.70 2.991849
631.80 2.883577
631.90 2.761789
632.00 2.792278
632.10 3.063819
632.20 3.504916
632.30 4.102505
632.40 4.912112
632.50 5.663278
632.60 5.579765
632.70 4.199258
632.80 1.832664
632.90 0
633.00 0
633.10 0
633.20 0
633.30 0
633.40 0
633.50 0
633.60 0
633.70 1.350444
633.80 3.413464
633.90 5.108585
634.00 6.383542
634.10 7.094475
634.20 7.233691
634.30 6.808321
634.40 5.937524
634.50 4.860919
634.60 3.800056
634.70 3.166352
634.80 3.507266
634.90 4.894356
635.00 6.852009
635.10 8.685416
635.20 9.857583
635.30 10.17488
635.40 9.766194
635.50 8.830105
635.60 7.615082
635.70 6.546505
635.80 5.865025
635.90 5.596777
636.00 5.465341
636.10 4.799628
636.20 3.226913
636.30 1.019981
636.40 0
636.50 0
636.60 0
636.70 0
636.80 0
636.90 0
637.00 0
637.10 0
637.20 0
637.30 0
637.40 0
637.50 0
637.60 0
637.70 0
637.80 0
637.90 0
638.00 0
638.10 1.315428
638.20 3.043192
638.30 4.681044
638.40 5.654171
638.50 5.638244
638.60 4.698335
638.70 3.190597
638.80 1.562744
638.90 0.4440266
639.00 0.2525213
639.10 0.9667604
639.20 2.217676
639.30 3.512221
639.40 4.742174
639.50 5.964967
639.60 7.230617
639.70 8.607988
639.80 10.03429
639.90 11.29582
640.00 12.18198
640.10 12.54848
640.20 12.3397
640.30 11.61263
640.40 10.50687
640.50 9.230343
640.60 8.025712
640.70 7.059548
640.80 6.301295
640.90 5.515193
641.00 4.427588
641.10 3.087277
641.20 1.887818
641.30 1.245778
641.40 1.493538
641.50 2.672683
641.60 4.538571
641.70 6.756532
641.80 9.010694
641.90 10.78071
642.00 11.56674
642.10 11.45602
642.20 10.78649
642.30 9.957919
642.40 9.353958
642.50 9.186797
642.60 9.58168
642.70 10.48912
642.80 11.59333
642.90 12.60949
643.00 13.37107
643.10 13.69321
643.20 13.47981
643.30 12.95697
643.40 12.38791
643.50 11.70994
643.60 10.81473
643.70 9.772792
643.80 8.756485
643.90 7.86764
644.00 7.115134
644.10 6.528523
644.20 6.228995
644.30 6.315381
644.40 6.804637
644.50 7.565584
644.60 8.349421
644.70 8.973822
644.80 9.453267
644.90 9.624146
645.00 9.289123
645.10 8.596207
645.20 7.763628
645.30 6.981119
645.40 6.452912
645.50 6.408964
645.60 6.932971
645.70 7.899023
645.80 9.073433
645.90 10.465
646.00 12.18284
646.10 13.70025
646.20 14.10611
646.30 13.1492
646.40 11.34099
646.50 9.377589
646.60 7.90894
646.70 7.363607
646.80 7.814299
646.90 8.860143
647.00 9.748614
647.10 10.02458
647.20 9.656259
647.30 8.443796
647.40 6.284892
647.50 3.853351
647.60 2.144988
647.70 1.777287
647.80 2.754516
647.90 4.55841
648.00 6.534151
648.10 8.179541
648.20 9.235751
648.30 9.686554
648.40 9.855881
648.50 9.98154
648.60 10.21093
648.70 10.83949
648.80 11.87899
648.90 13.11896
649.00 14.34861
649.10 15.36421
649.20 16.00657
649.30 16.20618
649.40 15.90245
649.50 15.18292
649.60 14.34773
649.70 13.7205
649.80 13.48941
649.90 13.70212
650.00 14.09091
650.10 14.37296
650.20 14.53662
650.30 14.55861
650.40 14.40406
650.50 14.10584
650.60 13.81253
650.70 13.61784
650.80 13.6054
650.90 13.7732
651.00 13.84285
651.10 13.56802
651.20 12.97652
651.30 12.21615
651.40 11.54237
651.50 11.1869
651.60 11.26482
651.70 11.84596
651.80 12.80536
651.90 13.92238
652.00 14.95651
652.10 15.68439
652.20 15.98674
652.30 15.81156
652.40 15.31246
652.50 14.70044
652.60 14.07896
652.70 13.43241
652.80 12.65318
652.90 11.51969
653.00 9.787412
653.10 7.36703
653.20 4.614575
653.30 2.166821
653.40 0.4875431
653.50 0
653.60 0.3159764
653.70 1.768773
653.80 3.819957
653.90 5.928813
654.00 7.459769
654.10 8.097136
654.20 7.958609
654.30 7.314598
654.40 6.588023
654.50 6.410464
654.60 7.172774
654.70 8.758576
654.80 10.9465
654.90 13.46591
655.00 15.79008
655.10 17.22924
655.20 17.40433
655.30 16.40879
655.40 14.70398
655.50 12.65293
655.60 10.54652
655.70 8.931279
655.80 8.31817
655.90 8.740734
656.00 9.957552
656.10 11.69924
656.20 13.4842
656.30 15.03132
656.40 16.37742
656.50 17.54246
656.60 18.4373
656.70 18.86931
656.80 18.68463
656.90 17.78669
657.00 16.24707
657.10 14.30847
657.20 12.29272
657.30 10.64981
657.40 9.672112
657.50 9.494979
657.60 10.36034
657.70 12.17693
657.80 14.52244
657.90 17.00936
658.00 19.39188
658.10 21.46042
658.20 22.97348
658.30 23.9469
658.40 24.43067
658.50 24.37305
658.60 23.86508
658.70 22.86202
658.80 21.31279
658.90 19.48641
659.00 17.67601
659.10 16.07891
659.20 14.86217
659.30 14.18912
659.40 14.08651
659.50 14.49782
659.60 15.36945
659.70 16.56808
659.80 17.8923
659.90 18.98972
660.00 19.50745
660.10 19.67726
660.20 19.99541
660.30 20.56224
660.40 21.19626
660.50 21.68128
660.60 21.97471
660.70 22.11338
660.80 22.06192
660.90 21.73809
661.00 21.14474
661.10 20.46448
661.20 19.89324
661.30 19.54535
661.40 19.45321
661.50 19.44998
661.60 19.39857
661.70 19.32035
661.80 19.29433
661.90 19.38593
662.00 19.57748
662.10 19.96924
662.20 20.7627
662.30 22.18977
662.40 24.34104
662.50 26.85567
662.60 29.1281
662.70 30.74234
662.80 31.39482
662.90 30.82585
663.00 28.9601
663.10 26.04313
663.20 22.66071
663.30 19.50903
663.40 17.22088
663.50 16.1078
663.60 16.01999
663.70 16.4659
663.80 16.96419
663.90 17.34565
664.00 17.60341
664.10 17.72461
664.20 17.81478
664.30 18.0575
664.40 18.61831
664.50 19.50452
664.60 20.55918
664.70 21.61151
664.80 22.32182
664.90 22.14345
665.00 20.82235
665.10 18.73984
665.20 16.5075
665.30 14.6054
665.40 13.33127
665.50 12.85114
665.60 13.13239
665.70 13.84748
665.80 14.6024
665.90 15.19523
666.00 15.59655
666.10 15.80779
666.20 15.99878
666.30 16.6007
666.40 17.97159
666.50 19.94123
666.60 21.98252
666.70 23.62191
666.80 24.62606
666.90 24.96921
667.00 24.778
667.10 24.37466
667.20 24.09782
667.30 24.00672
667.40 24.0701
667.50 24.46947
667.60 25.26257
667.70 26.19873
667.80 26.93997
667.90 27.37042
668.00 27.52376
668.10 27.47803
668.20 27.36238
668.30 27.20295
668.40 26.88951
668.50 26.34123
668.60 25.5791
668.70 24.83035
668.80 24.05998
668.90 22.89461
669.00 21.37095
669.10 19.96417
669.20 19.1551
669.30 18.96695
669.40 19.16674
669.50 19.58496
669.60 20.05643
669.70 20.48333
669.80 20.88992
669.90 21.32296
670.00 21.82524
670.10 22.36446
670.20 23.05487
670.30 23.97052
670.40 24.84766
670.50 25.34105
670.60 25.24849
670.70 24.69637
670.80 23.87964
670.90 22.95134
671.00 22.23391
671.10 22.06696
671.20 22.59535
671.30 23.77147
671.40 25.41058
671.50 27.26368
671.60 28.9912
671.70 30.33326
671.80 31.13962
671.90 31.33045
672.00 30.93471
672.10 30.10557
672.20 29.17518
672.30 28.42379
672.40 27.92021
672.50 27.68006
672.60 27.72684
672.70 28.03861
672.80 28.51416
672.90 28.99476
673.00 29.34161
673.10 29.48678
673.20 29.44377
673.30 29.15512
673.40 28.51908
673.50 27.59287
673.60 26.5962
673.70 25.73999
673.80 25.03006
673.90 24.45163
674.00 24.19624
674.10 24.50461
674.20 25.54559
674.30 27.26632
674.40 29.14987
674.50 30.57593
674.60 31.23188
674.70 31.10246
674.80 30.39378
674.90 29.34355
675.00 28.16772
675.10 27.18441
675.20 26.87818
675.30 27.51749
675.40 28.91767
675.50 30.65679
675.60 32.22382
675.70 33.21427
675.80 33.65453
675.90 33.76077
676.00 33.60445
676.10 33.24593
676.20 32.86742
676.30 32.78648
676.40 33.17855
676.50 33.88437
676.60 34.53967
676.70 34.88086
676.80 34.87888
676.90 34.57131
677.00 34.00181
677.10 33.27154
677.20 32.55782
677.30 32.15547
677.40 32.32644
677.50 33.12102
677.60 34.31939
677.70 35.31267
677.80 35.59526
677.90 35.14873
678.00 34.20044
678.10 33.03068
678.20 31.84888
678.30 30.86477
678.40 30.2836
678.50 30.2219
678.60 30.54841
678.70 30.91145
678.80 30.99977
678.90 30.67385
679.00 30.00136
679.10 29.33806
679.20 29.01132
679.30 28.9842
679.40 29.09082
679.50 29.18333
679.60 29.15821
679.70 28.92886
679.80 28.45653
679.90 27.80231
680.00 27.20722
680.10 26.84599
680.20 26.73487
680.30 26.938
680.40 27.40077
680.50 27.94155
680.60 28.43685
680.70 28.98081
680.80 29.78645
680.90 31.05641
681.00 32.93066
681.10 35.26635
681.20 37.64207
681.30 39.54233
681.40 40.54766
681.50 40.5433
681.60 39.75898
681.70 38.46305
681.80 36.88679
681.90 35.40403
682.00 34.36162
682.10 33.91027
682.20 34.01749
682.30 34.37528
682.40 34.49914
682.50 34.13352
682.60 33.35221
682.70 32.52369
682.80 31.98889
682.90 31.73227
683.00 31.49584
683.10 31.13079
683.20 30.73987
683.30 30.36612
683.40 29.94963
683.50 29.48608
683.60 28.98623
683.70 28.43553
683.80 27.78197
683.90 27.09411
684.00 26.5429
684.10 26.13239
684.20 25.80945
684.30 25.63514
684.40 25.71467
684.50 26.07107
684.60 26.69842
684.70 27.53479
684.80 28.41063
684.90 29.09742
685.00 29.31249
685.10 29.01045
685.20 28.43266
685.30 27.77081
685.40 27.09385
685.50 26.43621
685.60 25.90065
685.70 25.67408
685.80 25.81233
685.90 26.08278
686.00 25.80233
686.10 24.28212
686.20 21.53487
686.30 18.1364
686.40 14.88888
686.50 12.47989
686.60 11.36459
686.70 11.76149
686.80 13.57512
686.90 16.42985
687.00 19.72957
687.10 22.80551
687.20 25.07171
687.30 26.21328
687.40 26.43607
687.50 26.14112
687.60 25.51234
687.70 24.51404
687.80 23.16364
687.90 21.74107
688.00 20.53693
688.10 19.79564
688.20 19.61469
688.30 19.99698
688.40 20.88639
688.50 21.97339
688.60 22.88646
688.70 23.43061
688.80 23.77029
688.90 24.42772
689.00 25.68257
689.10 27.51952
689.20 29.73926
689.30 31.77775
689.40 33.12196
689.50 33.59737
689.60 33.29967
689.70 32.46045
689.80 31.48103
689.90 30.95461
690.00 31.31448
690.10 32.56968
690.20 34.20728
690.30 35.3961
690.40 35.56569
690.50 34.52402
690.60 32.30184
690.70 29.37857
690.80 26.45559
690.90 23.96946
691.00 22.22044
691.10 21.3903
691.20 21.42254
691.30 22.08634
691.40 23.00001
691.50 23.89902
691.60 24.85874
691.70 26.20694
691.80 28.03293
691.90 29.97488
692.00 31.68338
692.10 32.86834
692.20 33.26842
692.30 32.83383
692.40 31.69183
692.50 30.06102
692.60 28.19792
692.70 26.41293
692.80 25.17677
692.90 24.92973
693.00 25.72541
693.10 27.06445
693.20 28.29039
693.30 29.11811
693.40 29.4469
693.50 29.14321
693.60 28.04992
693.70 26.24314
693.80 24.29444
693.90 22.89328
694.00 22.44953
694.10 23.10575
694.20 24.7341
694.30 26.89165
694.40 28.9007
694.50 30.11455
694.60 30.16754
694.70 29.04106
694.80 27.18145
694.90 25.36419
695.00 24.32651
695.10 24.43295
695.20 25.50283
695.30 27.15912
695.40 29.12365
695.50 31.05804
695.60 32.57813
695.70 33.42275
695.80 33.49953
695.90 32.96797
696.00 32.23024
696.10 31.73186
696.20 31.69151
696.30 31.99882
696.40 32.50409
696.50 33.10006
696.60 33.63599
696.70 33.96672
696.80 33.90294
696.90 33.34881
697.00 32.30216
697.10 30.72132
697.20 28.61899
697.30 26.12208
697.40 23.44892
697.50 20.92048
697.60 18.80367
697.70 17.33985
697.80 16.7762
697.90 17.24247
698.00 18.67883
698.10 20.77056
698.20 23.08659
698.30 25.19052
698.40 26.85744
698.50 28.08697
698.60 28.95629
698.70 29.62055
698.80 30.25115
698.90 30.83458
699.00 31.24234
699.10 31.40019
699.20 31.27489
699.30 30.90674
699.40 30.39261
699.50 29.91112
699.60 29.85968
699.70 30.64093
699.80 32.26939
699.90 34.46416
700.00 36.82325
700.10 38.84017
700.20 40.01916
700.30 40.06837
700.40 38.99181
700.50 37.03601
700.60 34.61957
700.70 32.2538
700.80 30.32498
700.90 29.02793
701.00 28.26983
701.10 27.81742
701.20 27.56421
701.30 27.48324
701.40 27.603
701.50 27.95507
701.60 28.55721
701.70 29.53241
701.80 30.90353
701.90 32.42574
702.00 33.74485
702.10 34.50939
702.20 34.60257
702.30 34.22703
702.40 33.6785
702.50 33.16077
702.60 32.81895
702.70 32.78088
702.80 33.1316
702.90 33.97798
703.00 35.34798
703.10 36.91163
703.20 38.25445
703.30 39.16769
703.40 39.61968
703.50 39.69588
703.60 39.41155
703.70 38.65908
703.80 37.44087
703.90 35.98885
704.00 34.59713
704.10 33.4257
704.20 32.59727
704.30 32.24544
704.40 32.39288
704.50 32.94217
704.60 33.67227
704.70 34.32892
704.80 34.70279
704.90 34.67504
705.00 34.32426
705.10 33.87797
705.20 33.57936
705.30 33.58602
705.40 33.94547
705.50 34.46789
705.60 34.62805
705.70 34.08681
705.80 32.95735
705.90 31.54933
706.00 30.26795
706.10 29.53393
706.20 29.57853
706.30 30.41193
706.40 31.91146
706.50 33.93342
706.60 36.16387
706.70 38.11239
706.80 39.3798
706.90 39.97605
707.00 40.32606
707.10 40.59969
707.20 40.61425
707.30 40.28268
707.40 39.68201
707.50 38.93878
707.60 38.1828
707.70 37.51011
707.80 37.0327
707.90 36.79908
708.00 36.82084
708.10 37.1526
708.20 37.67234
708.30 38.18781
708.40 38.5867
708.50 38.78623
708.60 38.79995
708.70 38.68363
708.80 38.48803
708.90 38.32055
709.00 38.32002
709.10 38.60483
709.20 39.22278
709.30 40.0329
709.40 40.80083
709.50 41.3416
709.60 41.63035
709.70 41.70013
709.80 41.5386
709.90 41.21474
710.00 40.85086
710.10 40.57579
710.20 40.4777
710.30 40.6813
710.40 41.36781
710.50 42.61447
710.60 44.25424
710.70 45.99826
710.80 47.57447
710.90 48.7183
711.00 49.21902
711.10 48.97293
711.20 48.00282
711.30 46.46581
711.40 44.65606
711.50 42.91533
711.60 41.5783
711.70 40.86966
711.80 40.98341
711.90 42.00635
712.00 43.78897
712.10 45.9743
712.20 48.0458
712.30 49.53687
712.40 50.25885
712.50 50.19682
712.60 49.28757
712.70 47.63601
712.80 45.58212
712.90 43.53894
713.00 41.89243
713.10 40.71291
713.20 39.80796
713.30 39.02706
713.40 38.30532
713.50 37.74165
713.60 37.5177
713.70 37.82099
713.80 38.59295
713.90 39.58982
714.00 40.62739
714.10 41.41626
714.20 41.72262
714.30 41.50504
714.40 40.85207
714.50 40.07548
714.60 39.46111
714.70 39.10781
714.80 39.07013
714.90 39.34775
715.00 39.87715
715.10 40.43971
715.20 41.10411
715.30 42.1789
715.40 43.72524
715.50 45.63761
715.60 47.56489
715.70 49.10525
715.80 49.98041
715.90 50.02023
716.00 49.25751
716.10 47.94698
716.20 46.52859
716.30 45.44853
716.40 45.03763
716.50 45.49693
716.60 46.54703
716.70 47.59232
716.80 48.3233
716.90 48.672
717.00 48.67999
717.10 48.38179
717.20 47.93188
717.30 47.59499
717.40 47.50244
717.50 47.69673
717.60 48.15965
717.70 48.76261
717.80 49.3595
717.90 49.71763
718.00 49.36424
718.10 48.02394
718.20 45.89295
718.30 43.40134
718.40 41.03743
718.50 39.27711
718.60 38.27511
718.70 37.79845
718.80 37.62638
718.90 37.68058
719.00 38.05324
719.10 38.80179
719.20 39.73931
719.30 40.7421
719.40 41.94265
719.50 43.37247
719.60 44.71225
719.70 45.4972
719.80 45.33505
719.90 44.04624
720.00 41.80077
720.10 39.27029
720.20 37.2941
720.30 36.59566
720.40 37.43154
720.50 39.53179
720.60 42.47876
720.70 45.71525
720.80 48.68097
720.90 50.89346
721.00 52.0194
721.10 52.02033
721.20 51.13754
721.30 49.78427
721.40 48.42656
721.50 47.45659
721.60 47.07277
721.70 47.13379
721.80 47.36455
721.90 47.64405
722.00 47.94165
722.10 48.31694
722.20 48.99362
722.30 50.09274
722.40 51.47897
722.50 53.03103
722.60 54.71632
722.70 56.47042
722.80 58.08231
722.90 59.20633
723.00 59.59422
723.10 59.22283
723.20 58.3249
723.30 57.27883
723.40 56.50382
723.50 56.098
723.60 55.54426
723.70 54.30261
723.80 52.44245
723.90 50.12267
724.00 47.0729
724.10 42.91821
724.20 37.78131
724.30 32.52756
724.40 28.24757
724.50 25.79822
724.60 25.559
724.70 27.47447
724.80 30.88725
724.90 34.9685
725.00 39.24464
725.10 43.46163
725.20 47.13227
725.30 49.64024
725.40 50.97834
725.50 51.85201
725.60 52.88619
725.70 53.87414
725.80 54.30001
725.90 53.8228
726.00 52.4198
726.10 50.45586
726.20 48.73965
726.30 48.02959
726.40 48.53498
726.50 50.06246
726.60 52.17748
726.70 54.39583
726.80 56.24534
726.90 57.16457
727.00 56.66049
727.10 54.55161
727.20 51.05344
727.30 46.59459
727.40 41.79277
727.50 37.56138
727.60 34.71007
727.70 33.73681
727.80 34.83141
727.90 37.70212
728.00 41.35164
728.10 44.36016
728.20 45.71282
728.30 45.11366
728.40 42.90753
728.50 39.94324
728.60 37.08412
728.70 35.26882
728.80 35.23121
728.90 36.93985
729.00 39.79027
729.10 42.98575
729.20 45.84835
729.30 47.74183
729.40 48.54552
729.50 48.79739
729.60 48.86561
729.70 48.77514
729.80 48.50648
729.90 48.37901
730.00 48.87309
730.10 50.10017
730.20 51.69745
730.30 53.10052
730.40 53.93931
730.50 53.99946
730.60 53.17882
730.70 51.69227
730.80 50.07752
730.90 48.88433
731.00 48.25802
731.10 47.79711
731.20 46.6833
731.30 44.21279
731.40 40.43589
731.50 36.07429
731.60 32.1655
731.70 29.67696
731.80 29.09783
731.90 30.49282
732.00 33.67928
732.10 38.23297
732.20 43.25574
732.30 47.40319
732.40 49.45769
732.50 48.99207
732.60 46.64763
732.70 43.48721
732.80 40.33397
732.90 37.72727
733.00 36.09946
733.10 35.78661
733.20 36.86801
733.30 38.99918
733.40 41.55334
733.50 43.81503
733.60 45.07219
733.70 45.10632
733.80 44.38409
733.90 43.59565
734.00 43.21058
734.10 43.12215
734.20 43.0848
734.30 43.14744
734.40 43.33529
734.50 43.62703
734.60 44.08854
734.70 44.93618
734.80 46.201
734.90 47.63365
735.00 49.04578
735.10 50.37606
735.20 51.68031
735.30 52.95817
735.40 53.92153
735.50 54.30033
735.60 53.80416
735.70 52.21627
735.80 49.76746
735.90 46.88393
736.00 44.01382
736.10 41.69793
736.20 40.51224
736.30 40.90634
736.40 42.90311
736.50 45.47735
736.60 46.57309
736.70 44.79028
736.80 40.73046
736.90 36.14722
737.00 32.68633
737.10 31.33911
737.20 32.31957
737.30 35.21593
737.40 39.12724
737.50 42.81351
737.60 45.06873
737.70 45.09512
737.80 42.71078
737.90 38.83622
738.00 35.24922
738.10 33.20242
738.20 32.72828
738.30 33.41655
738.40 35.07988
738.50 37.52333
738.60 40.51127
738.70 43.75172
738.80 46.87064
738.90 49.44888
739.00 51.08163
739.10 51.48425
739.20 50.63221
739.30 48.51833
739.40 45.37746
739.50 41.98126
739.60 39.05754
739.70 36.83289
739.80 35.23994
739.90 34.33355
740.00 34.1394
740.10 34.58525
740.20 35.54633
740.30 36.76773
740.40 37.94061
740.50 38.81456
740.60 39.17883
740.70 39.2478
740.80 39.44624
740.90 39.79238
741.00 40.12562
741.10 40.49801
741.20 41.1441
741.30 42.17462
741.40 43.40227
741.50 44.51969
741.60 45.37846
741.70 46.07458
741.80 46.66601
741.90 46.98339
742.00 46.83148
742.10 46.07065
742.20 44.74245
742.30 43.08718
742.40 41.52812
742.50 40.49153
742.60 40.03949
742.70 39.99393
742.80 40.21159
742.90 40.63015
743.00 41.19986
743.10 41.71363
743.20 41.98083
743.30 42.02084
743.40 41.95122
743.50 41.8507
743.60 41.68299
743.70 41.4346
743.80 41.03409
743.90 40.33919
744.00 39.17189
744.10 37.25267
744.20 34.58588
744.30 31.56064
744.40 28.5457
744.50 25.84789
744.60 23.78075
744.70 22.61343
744.80 22.53295
744.90 23.56131
745.00 25.56634
745.10 28.26332
745.20 31.24998
745.30 34.06363
745.40 36.45025
745.50 38.47852
745.60 40.15284
745.70 41.22928
745.80 41.68916
745.90 41.839
746.00 41.82226
746.10 41.48359
746.20 40.52541
746.30 38.70005
746.40 35.91019
746.50 32.26817
746.60 28.1518
746.70 23.9821
746.80 20.40226
746.90 18.60837
747.00 19.30717
747.10 22.31949
747.20 27.03827
747.30 32.43608
747.40 37.39379
747.50 40.86748
747.60 41.92545
747.70 40.28142
747.80 36.55253
747.90 31.78483
748.00 26.99477
748.10 23.36018
748.20 21.74868
748.30 21.91728
748.40 23.42265
748.50 25.84823
748.60 28.31412
748.70 29.99692
748.80 30.3457
748.90 29.32561
749.00 27.60067
749.10 25.87497
749.20 24.52784
749.30 23.8138
749.40 23.956
749.50 24.9538
749.60 26.51697
749.70 28.15162
749.80 29.31807
749.90 29.74259
750.00 29.40926
750.10 28.49289
750.20 27.38317
750.30 26.43362
750.40 25.77173
750.50 25.54848
750.60 25.99426
750.70 27.24768
750.80 29.21744
750.90 31.60118
751.00 34.04223
751.10 36.22516
751.20 37.8466
751.30 38.58076
751.40 38.28382
751.50 36.99081
751.60 34.85882
751.70 32.21332
751.80 29.44101
751.90 26.58835
752.00 23.35335
752.10 19.47169
752.20 15.19249
752.30 11.19755
752.40 8.077233
752.50 6.267436
752.60 5.739384
752.70 6.374892
752.80 8.119412
752.90 10.46547
753.00 12.7442
753.10 14.47149
753.20 15.4278
753.30 15.74924
753.40 15.89165
753.50 16.38202
753.60 17.3693
753.70 18.62618
753.80 19.88476
753.90 20.90012
754.00 21.76794
754.10 22.65392
754.20 23.51546
754.30 24.45319
754.40 25.57776
754.50 26.87587
754.60 28.2408
754.70 29.52247
754.80 30.51487
754.90 30.99686
755.00 30.83694
755.10 30.01
755.20 28.6241
755.30 26.678
755.40 24.12861
755.50 21.18138
755.60 18.20403
755.70 15.62592
755.80 14.0934
755.90 14.00839
756.00 15.15003
756.10 17.01542
756.20 19.11305
756.30 21.05223
756.40 22.5241
756.50 23.31597
756.60 23.26279
756.70 22.27987
756.80 20.21558
756.90 17.15728
757.00 13.58094
757.10 10.36232
757.20 8.190563
757.30 7.283804
757.40 7.808951
757.50 9.639099
757.60 12.30634
757.70 15.09527
757.80 17.28402
757.90 18.28551
758.00 17.68243
758.10 15.51843
758.20 12.4694
758.30 9.359725
758.40 6.859216
758.50 5.301578
758.60 4.853342
758.70 5.591954
758.80 7.36915
758.90 10.09121
759.00 13.48504
759.10 16.96508
759.20 19.75419
759.30 20.84743
759.40 19.38389
759.50 15.31995
759.60 9.568671
759.70 3.360794
759.80 0
759.90 0
760.00 0
760.10 0
760.20 0
760.30 0
760.40 0
760.50 4.892688
760.60 9.620471
760.70 13.35803
760.80 16.1429
760.90 17.87096
761.00 18.00148
761.10 16.28775
761.20 13.46369
761.30 10.28623
761.40 7.172723
761.50 4.809827
761.60 3.684601
761.70 3.694259
761.80 4.346407
761.90 5.049242
762.00 5.198779
762.10 4.481057
762.20 2.919856
762.30 0.7881464
762.40 0
762.50 0
762.60 0
762.70 0
762.80 0
762.90 0
763.00 0
763.10 0
763.20 0
763.30 0
763.40 0
763.50 2.698068
763.60 4.32525
763.70 4.613681
763.80 3.87934
763.90 3.013711
764.00 2.945426
764.10 3.877412
764.20 5.267009
764.30 6.418953
764.40 6.836187
764.50 6.269466
764.60 4.821441
764.70 2.893713
764.80 1.112112
764.90 0
765.00 0
765.10 0
765.20 0
765.30 0.6634034
765.40 1.034196
765.50 0.5866928
765.60 0
765.70 0
765.80 0
765.90 0
766.00 0
766.10 0
766.20 0
766.30 0
766.40 0
766.50 0
766.60 0
766.70 0
766.80 2.073566
766.90 3.690564
767.00 4.424367
767.10 4.282164
767.20 3.246643
767.30 1.450557
767.40 0
767.50 0
767.60 0
767.70 0
767.80 0
767.90 0
768.00 0
768.10 0
768.20 0
768.30 0
768.40 0
768.50 0
768.60 0.5371979
768.70 0.1788661
768.80 0
768.90 0
769.00 0
769.10 0
769.20 0
769.30 0
769.40 0
769.50 0.7360068
769.60 1.028885
769.70 0.94173
769.80 0.6812672
769.90 0.482896
770.00 0.5234691
770.10 0.8476041
770.20 1.377614
770.30 1.974981
770.40 2.543676
770.50 3.147998
770.60 3.744695
770.70 4.150685
770.80 4.18325
770.90 3.358505
771.00 1.113757
771.10 0
771.20 0
771.30 0
771.40 0
771.50 0
771.60 0
771.70 0
771.80 0
771.90 0
772.00 0
772.10 0
772.20 0
772.30 0
772.40 0
772.50 0
772.60 0
772.70 0
772.80 0
772.90 0
773.00 0
773.10 0.4400254
773.20 2.541576
773.30 4.596493
773.40 6.49782
773.50 8.539485
773.60 11.01008
773.70 13.61953
773.80 15.87364
773.90 17.39261
774.00 17.87293
774.10 17.10219
774.20 15.2267
774.30 12.85161
774.40 10.76777
774.50 9.007202
774.60 6.022034
774.70 0
774.80 0
774.90 0
775.00 0
775.10 0
775.20 0
775.30 0
775.40 0
775.50 0
775.60 0
775.70 0
775.80 9.269001
775.90 14.02799
776.00 14.87481
776.10 14.05713
776.20 13.26823
776.30 12.99643
776.40 12.96006
776.50 12.96416
776.60 12.97217
776.70 13.23453
776.80 14.0154
776.90 15.11709
777.00 15.95097
777.10 16.02863
777.20 15.34966
777.30 14.1614
777.40 12.74948
777.50 11.42067
777.60 10.50188
777.70 10.2509
777.80 10.71904
777.90 11.84094
778.00 13.47658
778.10 15.13742
778.20 16.29615
778.30 16.84423
778.40 17.09347
778.50 17.38937
778.60 17.75878
778.70 18.26939
778.80 18.91854
778.90 19.17151
779.00 17.80012
779.10 13.54157
779.20 6.428023
779.30 0
779.40 0
779.50 0
779.60 0
779.70 0
779.80 0
779.90 0
780.00 0
780.10 5.737517
780.20 13.02088
780.30 17.4482
780.40 19.02102
780.50 18.30621
780.60 15.97515
780.70 12.95367
780.80 10.41109
780.90 9.471206
781.00 10.58507
781.10 13.64521
781.20 18.37637
781.30 24.30831
781.40 30.89535
781.50 36.84549
781.60 40.12721
781.70 39.0116
781.80 33.04054
781.90 23.48315
782.00 12.61091
782.10 2.98612
782.20 0
782.30 0
782.40 0
782.50 4.966674
782.60 14.11504
782.70 23.29831
782.80 30.22233
782.90 33.5247
783.00 33.43854
783.10 31.24122
783.20 28.48258
783.30 26.4926
783.40 25.87577
783.50 26.38357
783.60 27.50587
783.70 28.52882
783.80 28.56287
783.90 27.36572
784.00 25.31247
784.10 23.18372
784.20 21.71342
784.30 21.24563
784.40 21.85836
784.50 23.64281
784.60 26.94779
784.70 31.66471
784.80 36.84113
784.90 40.7627
785.00 41.0709
785.10 37.00043
785.20 30.22004
785.30 22.78644
785.40 16.37416
785.50 12.23587
785.60 11.04036
785.70 12.65393
785.80 16.29679
785.90 21.04026
786.00 25.62604
786.10 28.86988
786.20 30.33038
786.30 30.5444
786.40 31.14289
786.50 33.16461
786.60 35.59001
786.70 36.83708
786.80 36.33193
786.90 34.40445
787.00 31.97028
787.10 30.35963
787.20 30.59619
787.30 32.84232
787.40 36.67682
787.50 41.40078
787.60 46.14955
787.70 50.09532
787.80 52.6251
787.90 53.4916
788.00 53.30301
788.10 53.20623
788.20 54.00686
788.30 55.9194
788.40 58.49187
788.50 60.97355
788.60 62.63335
788.70 62.84256
788.80 61.37246
788.90 58.51963
789.00 54.90922
789.10 51.27506
789.20 48.23937
789.30 46.30379
789.40 45.87488
789.50 46.98622
789.60 49.12501
789.70 51.35426
789.80 52.87705
789.90 53.48375
790.00 53.31351
790.10 52.55388
790.20 51.44317
790.30 50.22542
790.40 49.12114
790.50 48.39679
790.60 48.55749
790.70 49.68561
790.80 50.60555
790.90 49.25272
791.00 43.52106
791.10 33.43327
791.20 21.5186
791.30 10.54048
791.40 2.936061
791.50 0.5175808
791.60 3.755881
791.70 11.78003
791.80 22.77124
791.90 34.33514
792.00 43.88162
792.10 49.58946
792.20 51.37572
792.30 50.86534
792.40 50.61791
792.50 51.98513
792.60 54.48888
792.70 57.47057
792.80 60.21091
792.90 61.95849
793.00 62.38633
793.10 61.64205
793.20 60.22901
793.30 58.80837
793.40 57.9028
793.50 57.78247
793.60 58.48368
793.70 59.91507
793.80 61.83709
793.90 63.71634
794.00 64.87527
794.10 64.75752
794.20 63.13038
794.30 59.97122
794.40 55.43377
794.50 49.95906
794.60 44.22035
794.70 38.97546
794.80 34.92224
794.90 32.64714
795.00 32.4876
795.10 34.26603
795.20 37.4985
795.30 41.74193
795.40 46.56206
795.50 51.42083
795.60 55.8357
795.70 59.40624
795.80 61.83326
795.90 63.0738
796.00 63.08551
796.10 61.51252
796.20 58.54962
796.30 55.17235
796.40 52.39356
796.50 51.26798
796.60 52.38327
796.70 55.59894
796.80 60.45562
796.90 66.21913
797.00 71.96011
797.10 76.90515
797.20 80.54791
797.30 82.59777
797.40 83.18234
797.50 83.07579
797.60 82.82608
797.70 82.49893
797.80 82.33229
797.90 82.35691
798.00 82.7217
798.10 83.73852
798.20 85.27844
798.30 87.01222
798.40 88.67603
798.50 90.10677
798.60 90.85855
798.70 90.44772
798.80 88.7473
798.90 85.92847
799.00 82.212
799.10 77.93611
799.20 73.65277
799.30 70.11169
799.40 67.89146
799.50 67.22582
799.60 68.27536
799.70 70.75548
799.80 73.87536
799.90 76.81457
800.00 79.23268
800.10 81.02036
800.20 82.10318
800.30 82.34289
800.40 81.86361
800.50 81.21712
800.60 81.07159
800.70 81.78324
800.80 83.35124
800.90 85.65184
801.00 88.21599
801.10 90.43499
801.20 91.84132
801.30 92.32395
801.40 92.08334
801.50 91.35942
801.60 90.41418
801.70 89.79158
801.80 90.11636
801.90 91.51171
802.00 93.5374
802.10 95.52837
802.20 96.23943
802.30 94.16198
802.40 88.90252
802.50 81.49947
802.60 73.88678
802.70 67.81666
802.80 64.27511
802.90 63.55598
803.00 65.48531
803.10 69.72427
803.20 75.77123
803.30 82.75328
803.40 89.43381
803.50 94.65038
803.60 98.08235
803.70 100.2195
803.80 101.5191
803.90 102.1144
804.00 101.8386
804.10 100.676
804.20 99.14985
804.30 98.12967
804.40 98.26796
804.50 99.71453
804.60 102.1946
804.70 105.2437
804.80 108.3826
804.90 111.2638
805.00 113.7984
805.10 115.9278
805.20 117.4669
805.30 118.1885
805.40 117.9945
805.50 116.9183
805.60 115.1892
805.70 113.0041
805.80 110.3468
805.90 107.1928
806.00 103.6616
806.10 100.3053
806.20 97.98827
806.30 97.3797
806.40 98.73276
806.50 101.9173
806.60 106.3569
806.70 111.1501
806.80 115.3892
806.90 118.2621
807.00 119.0187
807.10 117.6367
807.20 115.0882
807.30 112.716
807.40 111.7706
807.50 112.8164
807.60 115.5258
807.70 118.9704
807.80 121.9364
807.90 123.2334
808.00 122.1771
808.10 118.8985
808.20 114.2062
808.30 109.3289
808.40 105.628
808.50 104.0745
808.60 104.8188
808.70 107.2987
808.80 110.6578
808.90 113.9944
809.00 116.673
809.10 118.3229
809.20 118.6782
809.30 117.7992
809.40 116.177
809.50 114.2845
809.60 112.4087
809.70 110.7882
809.80 109.4175
809.90 108.2494
810.00 107.4323
810.10 107.0462
810.20 106.8034
810.30 106.397
810.40 105.7683
810.50 105.1982
810.60 105.3373
810.70 106.5708
810.80 108.708
810.90 111.572
811.00 115.049
811.10 118.8868
811.20 122.8722
811.30 126.9101
811.40 130.9324
811.50 134.8049
811.60 138.4867
811.70 141.9187
811.80 144.775
811.90 146.5535
812.00 146.8434
812.10 145.7564
812.20 143.9069
812.30 141.853
812.40 140.0918
812.50 139.1575
812.60 139.2233
812.70 139.9195
812.80 140.856
812.90 141.6552
813.00 141.7557
813.10 140.8259
813.20 138.843
813.30 136.2773
813.40 134.0506
813.50 132.8195
813.60 132.8371
813.70 134.0402
813.80 135.8757
813.90 137.4391
814.00 138.1242
814.10 137.7938
814.20 136.5341
814.30 135.1349
814.40 134.5722
814.50 135.2436
814.60 137.3682
814.70 140.7872
814.80 144.8407
814.90 148.8886
815.00 152.3108
815.10 154.6299
815.20 155.8146
815.30 156.1855
815.40 156.1232
815.50 155.9528
815.60 155.9113
815.70 155.8035
815.80 155.4621
815.90 155.0601
816.00 154.7473
816.10 154.5972
816.20 154.6519
816.30 154.9623
816.40 155.5499
816.50 156.4871
816.60 157.9089
816.70 159.748
816.80 161.7621
816.90 163.682
817.00 165.1913
817.10 166.0427
817.20 166.0691
817.30 165.1371
817.40 163.3319
817.50 161.0146
817.60 158.5047
817.70 155.9548
817.80 153.4554
817.90 150.9813
818.00 148.4377
818.10 145.9479
818.20 143.8477
818.30 142.3361
818.40 141.094
818.50 139.4277
818.60 136.7546
818.70 132.9601
818.80 128.5193
818.90 123.9417
819.00 119.3425
819.10 115.0128
819.20 111.6403
819.30 110.0055
819.40 110.8514
819.50 114.1392
819.60 118.8075
819.70 123.6142
819.80 128.0449
819.90 132.2263
820.00 136.1766
820.10 139.7732
820.20 142.834
820.30 145.4776
820.40 148.4846
820.50 152.416
820.60 157.1201
820.70 161.9419
820.80 166.0146
820.90 169.1219
821.00 171.5407
821.10 173.2931
821.20 174.2008
821.30 174.2699
821.40 173.9169
821.50 173.5747
821.60 173.365
821.70 173.0732
821.80 172.4639
821.90 171.6128
822.00 170.691
822.10 169.9283
822.20 169.5734
822.30 169.6908
822.40 170.4774
822.50 172.3431
822.60 175.3573
822.70 179.1471
822.80 183.3938
822.90 187.7153
823.00 191.4412
823.10 194.0007
823.20 194.9617
823.30 194.0761
823.40 191.6139
823.50 188.2794
823.60 184.8274
823.70 181.9566
823.80 180.1267
823.90 179.2938
824.00 179.1749
824.10 179.2333
824.20 178.6773
824.30 177.2085
824.40 175.1539
824.50 173.1092
824.60 171.8379
824.70 172.0593
824.80 174.1323
824.90 177.7444
825.00 181.9943
825.10 185.7295
825.20 187.8492
825.30 187.7237
825.40 185.2762
825.50 181.2455
825.60 177.0772
825.70 174.1201
825.80 173.355
825.90 175.2748
826.00 179.3651
826.10 184.5338
826.20 189.8785
826.30 194.7636
826.40 198.7734
826.50 201.5009
826.60 202.6276
826.70 202.2116
826.80 200.6818
826.90 198.5414
827.00 196.31
827.10 194.4512
827.20 193.1597
827.30 192.4843
827.40 192.5676
827.50 193.2028
827.60 193.1751
827.70 190.5564
827.80 184.1405
827.90 174.6023
828.00 163.8819
828.10 154.322
828.20 147.9907
828.30 145.6595
828.40 145.9847
828.50 146.4209
828.60 145.22
828.70 141.7182
828.80 136.3007
828.90 130.3493
829.00 125.7734
829.10 124.9446
829.20 129.3406
829.30 138.0775
829.40 148.3643
829.50 156.5808
829.60 159.9203
829.70 157.5288
829.80 151.4413
829.90 145.5908
830.00 142.9661
830.10 145.0251
830.20 151.9984
830.30 162.8668
830.40 175.7847
830.50 188.0805
830.60 196.7002
830.70 199.7757
830.80 197.7149
830.90 192.6811
831.00 187.187
831.10 183.1534
831.20 181.1683
831.30 180.8135
831.40 181.5479
831.50 183.0677
831.60 185.1384
831.70 187.2349
831.80 188.8901
831.90 190.2534
832.00 191.9923
832.10 194.6521
832.20 198.089
832.30 201.6125
832.40 204.4803
832.50 206.6028
832.60 208.54
832.70 210.8604
832.80 214.0191
832.90 218.084
833.00 222.5616
833.10 226.8285
833.20 230.4014
833.30 233.0672
833.40 234.8329
833.50 235.7165
833.60 235.6611
833.70 234.8816
833.80 233.8383
833.90 232.3384
834.00 228.5956
834.10 220.1146
834.20 206.2791
834.30 189.2686
834.40 172.652
834.50 159.9956
834.60 154.0001
834.70 155.5299
834.80 163.5485
834.90 175.8324
835.00 189.887
835.10 202.8833
835.20 211.7565
835.30 214.9791
835.40 214.2357
835.50 213.1889
835.60 214.4307
835.70 218.0679
835.80 222.6003
835.90 226.4882
836.00 228.8835
836.10 229.6258
836.20 229.1606
836.30 228.2731
836.40 227.5255
836.50 227.545
836.60 229.103
836.70 232.3067
836.80 236.3119
836.90 240.0194
837.00 242.5468
837.10 243.5393
837.20 243.4282
837.30 242.7181
837.40 241.4063
837.50 239.4603
837.60 236.9977
837.70 233.7365
837.80 229.3339
837.90 223.8309
838.00 217.6369
838.10 211.6158
838.20 206.7941
838.30 204.0353
838.40 203.7934
838.50 205.9844
838.60 210.142
838.70 215.6176
838.80 221.6945
838.90 227.7929
839.00 233.4039
839.10 238.1948
839.20 242.24
839.30 245.7547
839.40 247.8578
839.50 246.4784
839.60 239.7677
839.70 227.1415
839.80 210.2113
839.90 192.2995
840.00 176.9976
840.10 167.1069
840.20 163.91
840.30 167.1031
840.40 175.3082
840.50 186.5751
840.60 198.4656
840.70 208.4437
840.80 215.484
840.90 220.4018
841.00 224.8611
841.10 230.4327
841.20 237.1178
841.30 243.7409
841.40 249.374
841.50 253.5654
841.60 256.2745
841.70 257.7826
841.80 258.6162
841.90 259.1558
842.00 259.4437
842.10 259.5268
842.20 259.4809
842.30 259.1107
842.40 257.7893
842.50 254.4469
842.60 248.8403
842.70 242.0722
842.80 235.3128
842.90 229.6212
843.00 226.1489
843.10 225.5295
843.20 227.6061
843.30 231.8528
843.40 237.5488
843.50 243.4058
843.60 247.7683
843.70 249.4413
843.80 248.1968
843.90 245.1293
844.00 241.7387
844.10 238.7518
844.20 236.4226
844.30 234.5876
844.40 232.8996
844.50 231.373
844.60 230.3826
844.70 230.4669
844.80 231.4483
844.90 232.1514
845.00 231.7954
845.10 230.5261
845.20 228.7385
845.30 226.8815
845.40 225.4744
845.50 224.9752
845.60 225.6246
845.70 227.6439
845.80 230.9991
845.90 235.1238
846.00 239.0986
846.10 241.8279
846.20 241.9261
846.30 238.7458
846.40 233.0699
846.50 226.2788
846.60 219.9008
846.70 215.2116
846.80 213.0936
846.90 213.9769
847.00 217.485
847.10 222.6265
847.20 228.2073
847.30 233.0808
847.40 236.2824
847.50 237.099
847.60 236.0516
847.70 234.6374
847.80 233.7632
847.90 233.5864
848.00 234.0705
848.10 235.1433
848.20 236.6055
848.30 238.2252
848.40 240.0028
848.50 241.971
848.60 244.0996
848.70 246.0138
848.80 246.9578
848.90 246.336
849.00 243.9515
849.10 239.8417
849.20 234.3012
849.30 228.2556
849.40 223.0315
849.50 219.6078
849.60 218.2671
849.70 218.9246
849.80 221.2997
849.90 224.8089
850.00 228.695
850.10 232.4637
850.20 235.8039
850.30 238.3486
850.40 240.1102
850.50 241.1657
850.60 240.9752
850.70 238.6209
850.80 233.4529
850.90 225.9683
851.00 217.7144
851.10 210.2317
851.20 204.6099
851.30 201.5216
851.40 200.7408
851.50 200.7306
851.60 199.4379
851.70 195.1895
851.80 187.0103
851.90 175.346
852.00 162.1451
852.10 149.9619
852.20 141.2891
852.30 137.8642
852.40 140.1951
852.50 147.5905
852.60 158.5047
852.70 170.8851
852.80 182.9043
852.90 193.8189
853.00 203.7622
853.10 213.188
853.20 222.3194
853.30 231.0331
853.40 239.2539
853.50 247.0132
853.60 254.0126
853.70 259.6516
853.80 263.4162
853.90 265.1726
854.00 265.546
854.10 265.6552
854.20 266.3977
854.30 268.0368
854.40 270.3959
854.50 272.7449
854.60 274.1631
854.70 273.9447
854.80 271.6976
854.90 267.5318
855.00 262.4268
855.10 257.8969
855.20 255.1525
855.30 254.9704
855.40 257.405
855.50 261.7553
855.60 266.808
855.70 271.245
855.80 274.0917
855.90 275.2882
856.00 275.5047
856.10 275.3914
856.20 275.4779
856.30 276.1604
856.40 277.1712
856.50 277.686
856.60 277.3491
856.70 276.4765
856.80 275.5586
856.90 275.0437
857.00 275.4377
857.10 276.97
857.20 279.3035
857.30 281.8549
857.40 283.9805
857.50 285.2669
857.60 285.5351
857.70 284.6417
857.80 282.8038
857.90 280.7222
858.00 279.2648
858.10 278.9935
858.20 279.9503
858.30 281.9784
858.40 284.8984
858.50 288.585
858.60 292.623
858.70 296.1697
858.80 298.7402
858.90 300.3053
859.00 300.735
859.10 300.0548
859.20 298.7503
859.30 297.3058
859.40 295.6512
859.50 293.671
859.60 291.7891
859.70 290.4796
859.80 289.9792
859.90 290.4036
860.00 291.9555
860.10 294.9551
860.20 299.2732
860.30 303.9933
860.40 307.8902
860.50 309.7276
860.60 308.3759
860.70 303.3082
860.80 295.0379
860.90 284.5732
861.00 272.8557
861.10 260.7163
861.20 248.7493
861.30 237.0469
861.40 225.2446
861.50 213.0269
861.60 200.3709
861.70 187.6319
861.80 175.5569
861.90 164.9637
862.00 156.5351
862.10 150.82
862.20 148.0622
862.30 148.0566
862.40 150.2061
862.50 153.5173
862.60 156.7368
862.70 158.9987
862.80 159.8629
862.90 158.9837
863.00 156.105
863.10 151.5692
863.20 146.5092
863.30 142.2435
863.40 139.7855
863.50 139.6886
863.60 142.0057
863.70 146.2238
863.80 151.3534
863.90 156.0273
864.00 158.8805
864.10 159.3491
864.20 157.9776
864.30 155.898
864.40 154.4093
864.50 154.3572
864.60 155.6303
864.70 157.3386
864.80 158.2675
864.90 157.6654
865.00 155.7344
865.10 153.0373
865.20 150.0771
865.30 148.0499
865.40 148.7597
865.50 153.2152
865.60 161.2688
865.70 171.3915
865.80 181.1185
865.90 188.4931
866.00 192.8204
866.10 194.8229
866.20 195.922
866.30 196.9609
866.40 197.7922
866.50 198.4548
866.60 199.4222
866.70 200.5371
866.80 200.9731
866.90 200.1566
867.00 198.2406
867.10 196.2344
867.20 195.4438
867.30 196.5992
867.40 199.4709
867.50 203.1203
867.60 206.3267
867.70 207.8643
867.80 207.042
867.90 203.842
868.00 198.8261
868.10 193.0813
868.20 188.1609
868.30 185.5374
868.40 185.8597
868.50 188.9638
868.60 194.1876
868.70 200.586
868.80 206.9335
868.90 211.6216
869.00 213.1306
869.10 210.936
869.20 205.5014
869.30 197.626
869.40 188.3855
869.50 179.3565
869.60 172.0629
869.70 167.478
869.80 166.1147
869.90 167.9017
870.00 172.1429
870.10 177.3992
870.20 181.9071
870.30 184.5531
870.40 185.3705
870.50 184.9097
870.60 183.6458
870.70 181.9631
870.80 180.1544
870.90 178.3642
871.00 176.5263
871.10 174.5338
871.20 172.2648
871.30 169.7416
871.40 167.1504
871.50 164.8336
871.60 163.2765
871.70 162.8187
871.80 163.3955
871.90 164.6985
872.00 166.3015
872.10 167.8936
872.20 169.4396
872.30 171.1489
872.40 173.4875
872.50 176.5603
872.60 179.6616
872.70 182.0143
872.80 183.2439
872.90 183.222
873.00 182.0999
873.10 180.2414
873.20 178.1552
873.30 176.4122
873.40 175.6386
873.50 176.2632
873.60 178.2968
873.70 181.4045
873.80 185.0872
873.90 189.0443
874.00 193.4449
874.10 198.3006
874.20 203.1634
874.30 207.3442
874.40 210.1316
874.50 211.1695
874.60 210.5317
874.70 208.4346
874.80 205.288
874.90 201.7271
875.00 198.0494
875.10 194.6764
875.20 192.349
875.30 191.562
875.40 192.5351
875.50 194.7669
875.60 196.5552
875.70 196.2496
875.80 193.3369
875.90 187.7425
876.00 180.1991
876.10 172.7813
876.20 167.5884
876.30 165.61
876.40 165.3122
876.50 163.9496
876.60 160.5812
876.70 155.8963
876.80 151.6271
876.90 150.1736
877.00 154.1836
877.10 165.2737
877.20 182.8333
877.30 204.7131
877.40 227.0874
877.50 245.0507
877.60 254.2125
877.70 252.7329
877.80 243.811
877.90 232.799
878.00 222.9462
878.10 215.6064
878.20 210.7178
878.30 207.6383
878.40 205.951
878.50 205.3094
878.60 205.5064
878.70 206.4981
878.80 207.4083
878.90 206.6793
879.00 204.4832
879.10 202.051
879.20 200.6168
879.30 201.3067
879.40 204.6162
879.50 210.484
879.60 218.005
879.70 225.5847
879.80 231.4602
879.90 234.1688
880.00 232.8211
880.10 227.2631
880.20 219.2594
880.30 211.9261
880.40 206.8779
880.50 204.1519
880.60 203.1273
880.70 203.1322
880.80 203.9621
880.90 205.5965
881.00 208.4721
881.10 213.4016
881.20 220.959
881.30 231.0657
881.40 242.918
881.50 255.2431
881.60 266.5498
881.70 275.3083
881.80 280.4847
881.90 281.6888
882.00 279.1474
882.10 273.8127
882.20 265.5279
882.30 251.8795
882.40 230.144
882.50 200.7821
882.60 167.159
882.70 133.5337
882.80 105.2225
882.90 87.1685
883.00 82.35159
883.10 91.53404
883.20 112.3554
883.30 139.7868
883.40 167.8607
883.50 190.6197
883.60 205.1035
883.70 213.1032
883.80 218.7643
883.90 224.4142
884.00 230.4853
884.10 237.1998
884.20 243.921
884.30 249.6691
884.40 253.3166
884.50 253.0503
884.60 248.1052
884.70 240.3513
884.80 232.4018
884.90 226.0921
885.00 222.5384
885.10 222.2208
885.20 225.024
885.30 230.532
885.40 238.0147
885.50 246.2057
885.60 253.6045
885.70 258.885
885.80 261.6502
885.90 263.0233
886.00 264.4579
886.10 266.2066
886.20 267.8522
886.30 269.1576
886.40 269.9425
886.50 269.7639
886.60 268.1909
886.70 264.93
886.80 259.9945
886.90 253.823
887.00 246.7516
887.10 239.5987
887.20 233.9871
887.30 231.5335
887.40 233.7331
887.50 241.6179
887.60 255.0643
887.70 272.6681
887.80 292.3732
887.90 311.5809
888.00 327.832
888.10 339.3727
888.20 344.7771
888.30 344.0486
888.40 339.2353
888.50 332.9537
888.60 327.0914
888.70 322.9958
888.80 321.1954
888.90 321.1135
889.00 321.8476
889.10 322.3242
889.20 320.5034
889.30 314.9783
889.40 305.7859
889.50 294.0392
889.60 282.1467
889.70 272.8317
889.80 267.6604
889.90 266.6
890.00 268.6222
890.10 272.0445
890.20 275.5849
890.30 278.4597
890.40 279.6893
890.50 278.6846
890.60 276.0667
890.70 273.1009
890.80 271.0749
890.90 271.0104
891.00 273.2823
891.10 277.5551
891.20 283.1481
891.30 289.4409
891.40 296.2202
891.50 303.5985
891.60 310.7889
891.70 314.5554
891.80 312.5623
891.90 306.0155
892.00 297.0467
892.10 287.2403
892.20 277.7658
892.30 269.8582
892.40 264.643
892.50 262.7204
892.60 264.1163
892.70 268.5303
892.80 274.975
892.90 281.8374
893.00 287.9336
893.10 294.3287
893.20 301.6057
893.30 307.4225
893.40 309.4074
893.50 306.9269
893.60 300.3028
893.70 289.558
893.80 274.7236
893.90 256.437
894.00 236.1617
894.10 215.8765
894.20 197.775
894.30 183.634
894.40 174.4631
894.50 170.9282
894.60 173.3686
894.70 181.7101
894.80 195.0768
894.90 211.5228
895.00 228.4697
895.10 243.9011
895.20 257.4542
895.30 269.8139
895.40 280.3287
895.50 287.8468
895.60 292.565
895.70 295.4029
895.80 297.5376
895.90 299.593
896.00 301.5421
896.10 303.0309
896.20 303.6491
896.30 303.1692
896.40 301.6156
896.50 299.0807
896.60 295.4751
896.70 290.7665
896.80 286.3794
896.90 284.2074
897.00 284.9239
897.10 288.2603
897.20 293.0577
897.30 298.0191
897.40 302.3147
897.50 305.4335
897.60 307.2642
897.70 308.0345
897.80 307.9505
897.90 307.491
898.00 307.3204
898.10 308.1297
898.20 310.8809
898.30 316.205
898.40 323.8491
898.50 332.946
898.60 342.448
898.70 350.6339
898.80 355.7399
898.90 357.1823
899.00 355.0618
899.10 349.827
899.20 342.6527
899.30 334.6485
899.40 326.592
899.50 319.6503
899.60 314.9798
899.70 313.0913
899.80 313.7427
899.90 316.869
900.00 318.3043
900.10 319.7395
900.20 321.1748
900.30 322.6101
900.40 324.0453
900.50 325.4806
900.60 326.9158
900.70 328.3511
900.80 329.7864
900.90 331.2216
901.00 332.6569
901.10 334.0922
901.20 335.5274
901.30 336.9627
901.40 338.398
901.50 339.8332
901.60 341.2685
901.70 342.7038
901.80 344.139
901.90 345.5743
902.00 347.0096
902.10 348.4448
902.20 349.8801
902.30 351.3153
902.40 352.7506
902.50 354.1859
902.60 355.65
902.70 357.2226
902.80 358.7952
902.90 360.3678
903.00 361.9404
903.10 363.513
903.20 365.0855
903.30 366.5154
903.40 367.7311
903.50 368.9468
903.60 370.1625
903.70 371.3782
903.80 372.5939
903.90 373.8096
904.00 375.0253
904.10 376.241
904.20 377.4567
904.30 378.6724
904.40 379.8881
904.50 381.1038
904.60 382.3195
904.70 383.5352
904.80 384.7509
904.90 385.9666
905.00 387.1823
905.10 388.398
905.20 389.6137
905.30 390.8294
905.40 392.0451
905.50 393.2608
905.60 394.4765
905.70 395.6922
905.80 396.9079
905.90 398.1236
906.00 399.3393
906.10 400.5102
906.20 401.6788
906.30 402.8473
906.40 404.0159
906.50 405.1844
906.60 406.353
906.70 407.375
906.80 407.0782
906.90 406.7813
907.00 406.4845
907.10 406.1877
907.20 405.8908
907.30 405.594
907.40 405.2972
907.50 405.0003
907.60 404.7035
907.70 404.4067
907.80 404.1098
907.90 403.813
908.00 403.5162
908.10 403.2193
908.20 402.9225
908.30 402.6257
908.40 402.3288
908.50 402.032
908.60 401.7352
908.70 401.4384
908.80 401.1415
908.90 400.8447
909.00 400.5479
909.10 400.251
909.20 399.9542
909.30 399.6574
909.40 399.3605
909.50 399.0581
909.60 398.7503
909.70 398.4425
909.80 398.1347
909.90 397.8269
910.00 397.5191
910.10 397.2113
910.20 397.6513
910.30 398.5496
910.40 399.448
910.50 400.3463
910.60 401.2446
910.70 402.143
910.80 403.0413
910.90 403.9397
911.00 404.838
911.10 405.7364
911.20 406.6347
911.30 407.533
911.40 408.4314
911.50 409.3297
911.60 410.2281
911.70 411.1264
911.80 412.0248
911.90 412.9231
912.00 413.8215
912.10 414.7198
912.20 415.6181
912.30 416.5165
912.40 417.4148
912.50 418.3132
912.60 419.2115
912.70 420.1099
912.80 421.0082
912.90 421.9065
913.00 422.7637
913.10 423.6153
913.20 424.4668
913.30 425.3184
913.40 426.1699
913.50 427.0215
913.60 427.873
913.70 428.6238
913.80 429.3703
913.90 430.1169
914.00 430.8634
914.10 431.6099
914.20 432.3565
914.30 433.103
914.40 433.8496
914.50 434.5961
914.60 435.3426
914.70 436.0892
914.80 436.8357
914.90 437.5822
915.00 438.3288
915.10 439.0753
915.20 439.8219
915.30 440.5684
915.40 441.3149
915.50 442.0615
915.60 442.808
915.70 443.5545
915.80 444.3011
915.90 445.0476
916.00 445.7942
916.10 446.5407
916.20 447.2872
916.30 448.0338
916.40 448.7823
916.50 449.5536
916.60 450.3248
916.70 451.0961
916.80 451.8674
916.90 452.6386
917.00 453.4099
917.10 454.0948
917.20 454.1469
917.30 454.1989
917.40 454.2509
917.50 454.303
917.60 454.355
917.70 454.407
917.80 454.4591
917.90 454.5111
918.00 454.5631
918.10 454.6151
918.20 454.6672
918.30 454.7192
918.40 454.7712
918.50 454.8233
918.60 454.8753
918.70 454.9273
918.80 454.9793
918.90 455.0314
919.00 455.0834
919.10 455.1354
919.20 455.1875
919.30 455.2395
919.40 455.2915
919.50 455.3436
919.60 455.3956
919.70 455.4476
919.80 455.4996
919.90 455.5476
920.00 455.5594
920.10 455.5712
920.20 455.583
920.30 455.5948
920.40 455.6065
920.50 455.6183
920.60 455.6554
920.70 455.8969
920.80 456.1384
920.90 456.3798
921.00 456.6213
921.10 456.8628
921.20 457.1043
921.30 457.3458
921.40 457.5873
921.50 457.8288
921.60 458.0703
921.70 458.3118
921.80 458.5532
921.90 458.7947
922.00 459.0362
922.10 459.2777
922.20 459.5192
922.30 459.7607
922.40 460.0022
922.50 460.2437
922.60 460.4852
922.70 460.7266
922.80 460.9681
922.90 461.2096
923.00 461.4511
923.10 461.6926
923.20 461.9341
923.30 462.1756
923.40 462.4171
923.50 462.7406
923.60 463.0693
923.70 463.398
923.80 463.7267
923.90 464.0555
924.00 464.3842
924.10 464.7129
924.20 464.8079
924.30 464.8826
924.40 464.9573
924.50 465.032
924.60 465.1067
924.70 465.1814
924.80 465.2561
924.90 465.3308
925.00 465.4055
925.10 465.4802
925.20 465.5548
925.30 465.6295
925.40 465.7042
925.50 465.7789
925.60 465.8536
925.70 465.9283
925.80 466.003
925.90 466.0777
926.00 466.1524
926.10 466.2271
926.20 466.3018
926.30 466.3765
926.40 466.4511
926.50 466.5258
926.60 466.6005
926.70 466.6752
926.80 466.7499
926.90 466.8246
927.00 466.8616
927.10 466.8744
927.20 466.8873
927.30 466.9002
927.40 466.913
927.50 466.9259
927.60 466.9388
927.70 467.5243
927.80 468.5783
927.90 469.6323
928.00 470.6863
928.10 471.7403
928.20 472.7943
928.30 473.8483
928.40 474.9022
928.50 475.9562
928.60 477.0102
928.70 478.0642
928.80 479.1182
928.90 480.1722
929.00 481.2262
929.10 482.2802
929.20 483.3342
929.30 484.3882
929.40 485.4422
929.50 486.4962
929.60 487.5502
929.70 488.6042
929.80 489.6582
929.90 490.7122
930.00 491.7662
930.10 492.8202
930.20 493.8742
930.30 494.9282
930.40 495.9822
930.50 497.0342
930.60 498.0698
930.70 499.1055
930.80 500.1412
930.90 501.1768
931.00 502.2125
931.10 503.2482
931.20 504.272
931.30 504.715
931.40 505.1581
931.50 505.6012
931.60 506.0442
931.70 506.4873
931.80 506.9304
931.90 507.3735
932.00 507.8165
932.10 508.2596
932.20 508.7027
932.30 509.1457
932.40 509.5888
932.50 510.0319
932.60 510.4749
932.70 510.918
932.80 511.3611
932.90 511.8041
933.00 512.2472
933.10 512.6903
933.20 513.1334
933.30 513.5764
933.40 514.0195
933.50 514.4626
933.60 514.9056
933.70 515.3487
933.80 515.7918
933.90 516.2348
934.00 516.6779
934.10 517.143
934.20 517.6361
934.30 518.1292
934.40 518.6223
934.50 519.1153
934.60 519.6084
934.70 520.1015
934.80 520.6263
934.90 521.2215
935.00 521.8168
935.10 522.412
935.20 523.0072
935.30 523.6025
935.40 524.1977
935.50 524.793
935.60 525.3882
935.70 525.9834
935.80 526.5787
935.90 527.1739
936.00 527.7691
936.10 528.3644
936.20 528.9596
936.30 529.5549
936.40 530.1501
936.50 530.7453
936.60 531.3406
936.70 531.9358
936.80 532.5311
936.90 533.1263
937.00 533.7215
937.10 534.3168
937.20 534.912
937.30 535.5072
937.40 536.1025
937.50 536.6977
937.60 537.293
937.70 537.8769
937.80 538.4534
937.90 539.0298
938.00 539.6062
938.10 540.1827
938.20 540.7591
938.30 541.3355
938.40 541.9874
938.50 542.7393
938.60 543.4911
938.70 544.243
938.80 544.9948
938.90 545.7467
939.00 546.4986
939.10 547.2504
939.20 548.0023
939.30 548.7542
939.40 549.506
939.50 550.2579
939.60 551.0097
939.70 551.7616
939.80 552.5135
939.90 553.2653
940.00 554.0172
940.10 554.7691
940.20 555.5209
940.30 556.2728
940.40 557.0246
940.50 557.7765
940.60 558.5284
940.70 559.2802
940.80 560.0321
940.90 560.784
941.00 561.5358
941.10 562.2877
941.20 563.0395
941.30 563.8149
941.40 564.6065
941.50 565.3982
941.60 566.1899
941.70 566.9815
941.80 567.7732
941.90 568.5648
942.00 569.3152
942.10 570.0008
942.20 570.6865
942.30 571.3721
942.40 572.0577
942.50 572.7434
942.60 573.429
942.70 574.1147
942.80 574.8003
942.90 575.486
943.00 576.1716
943.10 576.8573
943.20 577.5429
943.30 578.2286
943.40 578.9142
943.50 579.5999
943.60 580.2855
943.70 580.9712
943.80 581.6568
943.90 582.3425
944.00 583.0281
944.10 583.7138
944.20 584.3994
944.30 585.0851
944.40 585.7707
944.50 586.4564
944.60 587.142
944.70 587.8277
944.80 588.5133
944.90 589.1901
945.00 589.8542
945.10 590.5183
945.20 591.1825
945.30 591.8466
945.40 592.5107
945.50 593.1748
945.60 593.701
945.70 593.5995
945.80 593.4979
945.90 593.3964
946.00 593.2948
946.10 593.1933
946.20 593.0917
946.30 592.9901
946.40 592.8886
946.50 592.787
946.60 592.6855
946.70 592.5839
946.80 592.4824
946.90 592.3808
947.00 592.2792
947.10 592.1777
947.20 592.0761
947.30 591.9746
947.40 591.873
947.50 591.7715
947.60 591.6699
947.70 591.5683
947.80 591.4668
947.90 591.3652
948.00 591.2637
948.10 591.1621
948.20 591.0605
948.30 590.959
948.40 590.8574
948.50 590.7508
948.60 590.5762
948.70 590.4016
948.80 590.227
948.90 590.0524
949.00 589.8778
949.10 589.7032
949.20 589.5286
949.30 589.5094
949.40 589.5267
949.50 589.544
949.60 589.5613
949.70 589.5786
949.80 589.5959
949.90 589.6132
950.00 589.6305
950.10 589.6478
950.20 589.665
950.30 589.6823
950.40 589.6996
950.50 589.7169
950.60 589.7342
950.70 589.7515
950.80 589.7688
950.90 589.7861
951.00 589.8034
951.10 589.8207
951.20 589.8379
951.30 589.8552
951.40 589.8725
951.50 589.8898
951.60 589.9071
951.70 589.9244
951.80 589.9417
951.90 589.959
952.00 589.9763
952.10 589.9935
952.20 590.0422
952.30 590.1154
952.40 590.1886
952.50 590.2619
952.60 590.3351
952.70 590.4083
952.80 590.4816
952.90 590.5987
953.00 590.8346
953.10 591.0705
953.20 591.3065
953.30 591.5424
953.40 591.7783
953.50 592.0142
953.60 592.2501
953.70 592.486
953.80 592.7219
953.90 592.9578
954.00 593.1938
954.10 593.4297
954.20 593.6656
954.30 593.9015
954.40 594.1374
954.50 594.3733
954.60 594.6092
954.70 594.8451
954.80 595.0811
954.90 595.317
955.00 595.5529
955.10 595.7888
955.20 596.0247
955.30 596.2606
955.40 596.4965
955.50 596.7325
955.60 596.9684
955.70 597.2043
955.80 597.4402
955.90 597.6431
956.00 597.8423
956.10 598.0415
956.20 598.2407
956.30 598.4399
956.40 598.6391
956.50 598.8383
956.60 599.1171
956.70 599.4561
956.80 599.7951
956.90 600.1341
957.00 600.4731
957.10 600.8121
957.20 601.1511
957.30 601.4901
957.40 601.8291
957.50 602.1681
957.60 602.507
957.70 602.846
957.80 603.185
957.90 603.524
958.00 603.863
958.10 604.202
958.20 604.541
958.30 604.88
958.40 605.219
958.50 605.558
958.60 605.8969
958.70 606.2359
958.80 606.5749
958.90 606.9139
959.00 607.2529
959.10 607.5919
959.20 607.9309
959.30 608.2699
959.40 608.6089
959.50 608.9475
959.60 609.2812
959.70 609.6149
959.80 609.9486
959.90 610.2823
960.00 610.6159
960.10 610.9496
960.20 611.2833
960.30 611.9618
960.40 612.7812
960.50 613.6005
960.60 614.4199
960.70 615.2392
960.80 616.0585
960.90 616.8779
961.00 617.6972
961.10 618.5165
961.20 619.3359
961.30 620.1552
961.40 620.9746
961.50 621.7939
961.60 622.6132
961.70 623.4326
961.80 624.2519
961.90 625.0713
962.00 625.8906
962.10 626.7099
962.20 627.5293
962.30 628.3486
962.40 629.168
962.50 629.9873
962.60 630.8066
962.70 631.626
962.80 632.4453
962.90 633.2647
963.00 634.084
963.10 634.9033
963.20 635.7281
963.30 636.6076
963.40 637.4871
963.50 638.3666
963.60 639.2461
963.70 640.1256
963.80 641.0051
963.90 641.8846
964.00 642.4076
964.10 642.7778
964.20 643.148
964.30 643.5182
964.40 643.8884
964.50 644.2586
964.60 644.6287
964.70 644.9989
964.80 645.3691
964.90 645.7393
965.00 646.1095
965.10 646.4797
965.20 646.8498
965.30 647.22
965.40 647.5902
965.50 647.9604
965.60 648.3306
965.70 648.7008
965.80 649.071
965.90 649.4411
966.00 649.8113
966.10 650.1815
966.20 650.5517
966.30 650.9219
966.40 651.2921
966.50 651.6622
966.60 652.0324
966.70 652.4026
966.80 652.7728
966.90 653.143
967.00 653.5036
967.10 653.8636
967.20 654.2237
967.30 654.5838
967.40 654.9438
967.50 655.3039
967.60 655.664
967.70 656.1719
967.80 656.8109
967.90 657.4499
968.00 658.089
968.10 658.728
968.20 659.3671
968.30 660.0061
968.40 660.6451
968.50 661.2842
968.60 661.9232
968.70 662.5622
968.80 663.2013
968.90 663.8403
969.00 664.4794
969.10 665.1184
969.20 665.7574
969.30 666.3965
969.40 667.0355
969.50 667.6745
969.60 668.3136
969.70 668.9526
969.80 669.5916
969.90 670.2307
970.00 670.8697
970.10 671.5088
970.20 672.1478
970.30 672.7868
970.40 673.4259
970.50 674.0649
970.60 674.7039
970.70 675.4071
970.80 676.1447
970.90 676.8824
971.00 677.62
971.10 678.3577
971.20 679.0953
971.30 679.833
971.40 680.5228
971.50 681.0212
971.60 681.5196
971.70 682.018
971.80 682.5163
971.90 683.0147
972.00 683.5131
972.10 684.0115
972.20 684.5099
972.30 685.0083
972.40 685.5067
972.50 686.0051
972.60 686.5035
972.70 687.0019
972.80 687.5003
972.90 687.9987
973.00 688.4971
973.10 688.9955
973.20 689.4939
973.30 689.9923
973.40 690.4907
973.50 690.9891
973.60 691.4875
973.70 691.9859
973.80 692.4843
973.90 692.9827
974.00 693.4811
974.10 693.9795
974.20 694.4779
974.30 694.9762
974.40 695.436
974.50 695.7506
974.60 696.0651
974.70 696.3797
974.80 696.6943
974.90 697.0088
975.00 697.3234
975.10 697.6379
975.20 697.7565
975.30 697.7988
975.40 697.8412
975.50 697.8836
975.60 697.9259
975.70 697.9683
975.80 698.0106
975.90 698.053
976.00 698.0953
976.10 698.1377
976.20 698.1801
976.30 698.2224
976.40 698.2648
976.50 698.3071
976.60 698.3495
976.70 698.3918
976.80 698.4342
976.90 698.4766
977.00 698.5189
977.10 698.5613
977.20 698.6036
977.30 698.646
977.40 698.6883
977.50 698.7307
977.60 698.7731
977.70 698.8154
977.80 698.8578
977.90 698.9001
978.00 698.9425
978.10 698.9848
978.20 699.0322
978.30 699.0827
978.40 699.1332
978.50 699.1837
978.60 699.2343
978.70 699.2848
978.80 699.3353
978.90 699.3386
979.00 698.9166
979.10 698.4947
979.20 698.0727
979.30 697.6507
979.40 697.2288
979.50 696.8068
979.60 696.3849
979.70 695.9629
979.80 695.5409
979.90 695.119
980.00 694.697
980.10 694.2751
980.20 693.8531
980.30 693.4311
980.40 693.0092
980.50 692.5872
980.60 692.1652
980.70 691.7433
980.80 691.3213
980.90 690.8994
981.00 690.4774
981.10 690.0554
981.20 689.6335
981.30 689.2115
981.40 688.7896
981.50 688.3676
981.60 687.9456
981.70 687.5237
981.80 687.1017
981.90 686.6798
982.00 686.2259
982.10 685.7669
982.20 685.3079
982.30 684.8489
982.40 684.3899
982.50 683.9308
982.60 683.4718
982.70 682.8431
982.80 681.8535
982.90 680.864
983.00 679.8745
983.10 678.885
983.20 677.8955
983.30 676.906
983.40 675.9165
983.50 674.927
983.60 673.9375
983.70 672.948
983.80 671.9585
983.90 670.9689
984.00 669.9794
984.10 668.9899
984.20 668.0004
984.30 667.0109
984.40 666.0214
984.50 665.0319
984.60 664.0424
984.70 663.0529
984.80 662.0634
984.90 661.0739
985.00 660.0844
985.10 659.0948
985.20 658.1053
985.30 657.1158
985.40 656.1263
985.50 655.1368
985.60 654.1473
985.70 653.1578
985.80 652.0531
985.90 650.9448
986.00 649.8365
986.10 648.7282
986.20 647.62
986.30 646.5117
986.40 645.4034
986.50 644.4507
986.60 643.7313
986.70 643.0119
986.80 642.2925
986.90 641.573
987.00 640.8536
987.10 640.1342
987.20 639.4148
987.30 638.6954
987.40 637.976
987.50 637.2566
987.60 636.5372
987.70 635.8178
987.80 635.0984
987.90 634.379
988.00 633.6596
988.10 632.9402
988.20 632.2208
988.30 631.5013
988.40 630.7819
988.50 630.0625
988.60 629.3431
988.70 628.6237
988.80 627.9043
988.90 627.1849
989.00 626.4655
989.10 625.7461
989.20 625.0267
989.30 624.3073
989.40 623.5879
989.50 622.8685
989.60 622.1807
989.70 621.4953
989.80 620.8098
989.90 620.1244
990.00 619.439
990.10 618.7536
990.20 618.0682
990.30 617.2565
990.40 616.1884
990.50 615.1204
990.60 614.0523
990.70 612.9843
990.80 611.9162
990.90 610.8482
991.00 609.7801
991.10 608.7121
991.20 607.644
991.30 606.576
991.40 605.5079
991.50 604.4399
991.60 603.3718
991.70 602.3038
991.80 601.2358
991.90 600.1677
992.00 599.0997
992.10 598.0316
992.20 596.9636
992.30 595.8955
992.40 594.8275
992.50 593.7594
992.60 592.6914
992.70 591.6233
992.80 590.5553
992.90 589.4872
993.00 588.4192
993.10 587.3511
993.20 586.2831
993.30 585.215
993.40 584.1757
993.50 583.146
993.60 582.1162
993.70 581.0865
993.80 580.0567
993.90 579.027
994.00 577.9973
994.10 577.05
994.20 576.7074
994.30 576.3648
994.40 576.0222
994.50 575.6796
994.60 575.337
994.70 574.9944
994.80 574.6518
994.90 574.3093
995.00 573.9667
995.10 573.6241
995.20 573.2815
995.30 572.9389
995.40 572.5963
995.50 572.2537
995.60 571.9111
995.70 571.5685
995.80 571.2259
995.90 570.8834
996.00 570.5408
996.10 570.1982
996.20 569.8556
996.30 569.513
996.40 569.1704
996.50 568.8278
996.60 568.4852
996.70 568.1426
996.80 567.8
996.90 567.4575
997.00 567.1149
997.10 566.7723
997.20 566.5056
997.30 566.3436
997.40 566.1817
997.50 566.0198
997.60 565.8578
997.70 565.6959
997.80 565.534
997.90 565.3721
998.00 565.2901
998.10 565.232
998.20 565.1739
998.30 565.1158
998.40 565.0577
998.50 564.9997
998.60 564.9416
998.70 564.8835
998.80 564.8254
998.90 564.7673
999.00 564.7092
999.10 564.6511
999.20 564.5931
999.30 564.535
999.40 564.4769
999.50 564.4188
999.60 564.3607
999.70 564.3026
999.80 564.2446
999.90 564.1865
1000.00 564.1284
1000.10 564.0703
1000.20 564.0122
1000.30 563.9541
1000.40 563.896
1000.50 563.838
1000.60 563.7799
1000.70 563.7218
1000.80 563.6637
1000.90 563.6056
1001.00 563.5475
1001.10 563.4721
1001.20 563.3966
1001.30 563.3211
1001.40 563.2456
1001.50 563.1702
1001.60 563.0947
1001.70 563.0192
1001.80 563.2055
1001.90 564.0023
1002.00 564.7992
1002.10 565.5961
1002.20 566.3929
1002.30 567.1898
1002.40 567.9867
1002.50 568.7836
1002.60 569.5804
1002.70 570.3773
1002.80 571.1742
1002.90 571.9711
1003.00 572.7679
1003.10 573.5648
1003.20 574.3617
1003.30 575.1585
1003.40 575.9554
1003.50 576.7523
1003.60 577.5492
1003.70 578.346
1003.80 579.1429
1003.90 579.9398
1004.00 580.7366
1004.10 581.5335
1004.20 582.3304
1004.30 583.1273
1004.40 583.9241
1004.50 584.721
1004.60 585.5179
1004.70 586.3147
1004.80 587.1116
1004.90 587.9191
1005.00 588.7426
1005.10 589.5661
1005.20 590.3896
1005.30 591.2131
1005.40 592.0366
1005.50 592.8601
1005.60 593.6836
1005.70 594.3757
1005.80 595.0115
1005.90 595.6474
1006.00 596.2832
1006.10 596.919
1006.20 597.5549
1006.30 598.1907
1006.40 598.8265
1006.50 599.4624
1006.60 600.0982
1006.70 600.734
1006.80 601.3698
1006.90 602.0057
1007.00 602.6415
1007.10 603.2773
1007.20 603.9132
1007.30 604.549
1007.40 605.1848
1007.50 605.8207
1007.60 606.4565
1007.70 607.0923
1007.80 607.7281
1007.90 608.364
1008.00 608.9998
1008.10 609.6356
1008.20 610.2715
1008.30 610.9073
1008.40 611.5431
1008.50 612.179
1008.60 612.8148
1008.70 613.4506
1008.80 614.0813
1008.90 614.7084
1009.00 615.3356
1009.10 615.9627
1009.20 616.5899
1009.30 617.2171
1009.40 617.8442
1009.50 618.4714
1009.60 619.0352
1009.70 619.5919
1009.80 620.1486
1009.90 620.7053
1010.00 621.262
1010.10 621.8187
1010.20 622.3754
1010.30 622.9321
1010.40 623.4888
1010.50 624.0455
1010.60 624.6022
1010.70 625.1589
1010.80 625.7156
1010.90 626.2724
1011.00 626.8291
1011.10 627.3858
1011.20 627.9425
1011.30 628.4992
1011.40 629.0559
1011.50 629.6126
1011.60 630.1693
1011.70 630.726
1011.80 631.2827
1011.90 631.8394
1012.00 632.3961
1012.10 632.9528
1012.20 633.5096
1012.30 634.0663
1012.40 634.623
1012.50 635.1797
1012.60 635.7364
1012.70 636.2625
1012.80 636.7811
1012.90 637.2996
1013.00 637.8181
1013.10 638.3367
1013.20 638.8552
1013.30 639.3737
1013.40 639.8923
1013.50 639.8186
1013.60 639.7449
1013.70 639.6712
1013.80 639.5976
1013.90 639.5239
1014.00 639.4502
1014.10 639.3765
1014.20 639.3028
1014.30 639.2291
1014.40 639.1555
1014.50 639.0818
1014.60 639.0081
1014.70 638.9344
1014.80 638.8607
1014.90 638.7871
1015.00 638.7134
1015.10 638.6397
1015.20 638.566
1015.30 638.4923
1015.40 638.4187
1015.50 638.345
1015.60 638.2713
1015.70 638.1976
1015.80 638.1239
1015.90 638.0503
1016.00 637.9766
1016.10 637.9029
1016.20 637.8292
1016.30 637.7555
1016.40 637.6819
1016.50 637.6082
1016.60 637.4832
1016.70 637.3454
1016.80 637.2077
1016.90 637.0699
1017.00 636.9321
1017.10 636.7944
1017.20 636.6566
1017.30 636.5188
1017.40 637.1686
1017.50 637.8185
1017.60 638.4683
1017.70 639.1181
1017.80 639.768
1017.90 640.4178
1018.00 641.0676
1018.10 641.7175
1018.20 642.3673
1018.30 643.0171
1018.40 643.667
1018.50 644.3168
1018.60 644.9666
1018.70 645.6165
1018.80 646.2663
1018.90 646.9161
1019.00 647.5659
1019.10 648.2158
1019.20 648.8656
1019.30 649.5154
1019.40 650.1653
1019.50 650.8151
1019.60 651.4649
1019.70 652.1148
1019.80 652.7646
1019.90 653.4144
1020.00 654.0643
1020.10 654.7141
1020.20 655.3639
1020.30 656.0138
1020.40 656.6636
1020.50 657.3887
1020.60 658.164
1020.70 658.9393
1020.80 659.7146
1020.90 660.4899
1021.00 661.2652
1021.10 662.0405
1021.20 662.8158
1021.30 663.5002
1021.40 664.1618
1021.50 664.8234
1021.60 665.485
1021.70 666.1466
1021.80 666.8082
1021.90 667.4698
1022.00 668.1314
1022.10 668.793
1022.20 669.4546
1022.30 670.1162
1022.40 670.7778
1022.50 671.4394
1022.60 672.101
1022.70 672.7626
1022.80 673.4243
1022.90 674.0859
1023.00 674.7475
1023.10 675.4091
1023.20 676.0707
1023.30 676.7323
1023.40 677.3939
1023.50 678.0555
1023.60 678.7171
1023.70 679.3787
1023.80 680.0403
1023.90 680.7019
1024.00 681.3635
1024.10 682.0251
1024.20 682.6867
1024.30 683.3483
1024.40 683.9719
1024.50 684.5383
1024.60 685.1047
1024.70 685.6712
1024.80 686.2376
1024.90 686.804
1025.00 687.3704
1025.10 687.9369
1025.20 688.5008
1025.30 689.0622
1025.40 689.6236
1025.50 690.1851
1025.60 690.7465
1025.70 691.3079
1025.80 691.8693
1025.90 692.4307
1026.00 692.9922
1026.10 693.5536
1026.20 694.115
1026.30 694.6764
1026.40 695.2379
1026.50 695.7993
1026.60 696.3607
1026.70 696.9221
1026.80 697.4835
1026.90 698.045
1027.00 698.6064
1027.10 699.1678
1027.20 699.7292
1027.30 700.2907
1027.40 700.8521
1027.50 701.4135
1027.60 701.9749
1027.70 702.5363
1027.80 703.0978
1027.90 703.6592
1028.00 704.2206
1028.10 704.782
1028.20 705.3434
1028.30 705.9049
1028.40 706.5644
1028.50 707.224
1028.60 707.8836
1028.70 708.5431
1028.80 709.2027
1028.90 709.8623
1029.00 710.5219
1029.10 711.1105
1029.20 711.0607
1029.30 711.011
1029.40 710.9613
1029.50 710.9115
1029.60 710.8618
1029.70 710.812
1029.80 710.7623
1029.90 710.7125
1030.00 710.6628
1030.10 710.613
1030.20 710.5633
1030.30 710.5135
1030.40 710.4638
1030.50 710.414
1030.60 710.3643
1030.70 710.3145
1030.80 710.2648
1030.90 710.215
1031.00 710.1653
1031.10 710.1155
1031.20 710.0658
1031.30 710.016
1031.40 709.9663
1031.50 709.9166
1031.60 709.8668
1031.70 709.8171
1031.80 709.7673
1031.90 709.7176
1032.00 709.6678
1032.10 709.6181
1032.20 709.5683
1032.30 709.4888
1032.40 709.3794
1032.50 709.27
1032.60 709.1607
1032.70 709.0513
1032.80 708.9419
1032.90 708.8325
1033.00 708.7232
1033.10 709.4571
1033.20 710.7532
1033.30 712.0492
1033.40 713.3453
1033.50 714.6414
1033.60 715.9375
1033.70 717.2336
1033.80 718.5297
1033.90 719.8257
1034.00 721.1218
1034.10 722.4179
1034.20 723.714
1034.30 725.0101
1034.40 726.3062
1034.50 727.6022
1034.60 728.8983
1034.70 730.1944
1034.80 731.4905
1034.90 732.7866
1035.00 734.0827
1035.10 735.3787
1035.20 736.6748
1035.30 737.9709
1035.40 739.267
1035.50 740.5631
1035.60 741.8591
1035.70 743.1552
1035.80 744.4513
1035.90 745.7474
1036.00 747.0435
1036.10 748.3396
1036.20 749.6356
1036.30 750.9706
1036.40 752.3153
1036.50 753.66
1036.60 755.0047
1036.70 756.3494
1036.80 757.6941
1036.90 759.0388
1037.00 760.3835
1037.10 761.07
1037.20 761.6833
1037.30 762.2966
1037.40 762.9099
1037.50 763.5232
1037.60 764.1365
1037.70 764.7498
1037.80 765.3631
1037.90 765.9764
1038.00 766.5897
1038.10 767.203
1038.20 767.8163
1038.30 768.4296
1038.40 769.0429
1038.50 769.6562
1038.60 770.2695
1038.70 770.8828
1038.80 771.4961
1038.90 772.1094
1039.00 772.7227
1039.10 773.336
1039.20 773.9493
1039.30 774.5626
1039.40 775.1759
1039.50 775.7892
1039.60 776.4025
1039.70 777.0158
1039.80 777.6291
1039.90 778.2424
1040.00 778.8557
1040.10 779.469
1040.20 780.0842
1040.30 780.7162
1040.40 781.3482
1040.50 781.9801
1040.60 782.6121
1040.70 783.2441
1040.80 783.8761
1040.90 784.5081
1041.00 785.0412
1041.10 785.1785
1041.20 785.3158
1041.30 785.4532
1041.40 785.5905
1041.50 785.7279
1041.60 785.8652
1041.70 786.0025
1041.80 786.1399
1041.90 786.2772
1042.00 786.4145
1042.10 786.5519
1042.20 786.6892
1042.30 786.8266
1042.40 786.9639
1042.50 787.1012
1042.60 787.2386
1042.70 787.3759
1042.80 787.5132
1042.90 787.6506
1043.00 787.7879
1043.10 787.9253
1043.20 788.0626
1043.30 788.1999
1043.40 788.3373
1043.50 788.4746
1043.60 788.6119
1043.70 788.7493
1043.80 788.8866
1043.90 789.0239
1044.00 789.1613
1044.10 789.2986
1044.20 789.4164
1044.30 789.4562
1044.40 789.496
1044.50 789.5358
1044.60 789.5756
1044.70 789.6153
1044.80 789.6551
1044.90 789.6949
1045.00 789.9519
1045.10 790.7159
1045.20 791.4799
1045.30 792.2439
1045.40 793.0079
1045.50 793.7719
1045.60 794.536
1045.70 795.3
1045.80 796.064
1045.90 796.828
1046.00 797.592
1046.10 798.356
1046.20 799.12
1046.30 799.884
1046.40 800.648
1046.50 801.412
1046.60 802.176
1046.70 802.94
1046.80 803.704
1046.90 804.468
1047.00 805.232
1047.10 805.996
1047.20 806.76
1047.30 807.524
1047.40 808.288
1047.50 809.052
1047.60 809.816
1047.70 810.58
1047.80 811.3441
1047.90 812.1081
1048.00 812.8721
1048.10 813.6361
1048.20 814.388
1048.30 815.1119
1048.40 815.8357
1048.50 816.5595
1048.60 817.2834
1048.70 818.0072
1048.80 818.7311
1048.90 819.4549
1049.00 820.0207
1049.10 820.2179
1049.20 820.4151
1049.30 820.6123
1049.40 820.8095
1049.50 821.0067
1049.60 821.2039
1049.70 821.4011
1049.80 821.5982
1049.90 821.7954
1050.00 821.9926
1050.10 822.1898
1050.20 822.387
1050.30 822.5842
1050.40 822.7814
1050.50 822.9785
1050.60 823.1757
1050.70 823.3729
1050.80 823.5701
1050.90 823.7673
1051.00 823.9645
1051.10 824.1617
1051.20 824.3589
1051.30 824.556
1051.40 824.7532
1051.50 824.9504
1051.60 825.1476
1051.70 825.3448
1051.80 825.542
1051.90 825.7392
1052.00 825.9364
1052.10 826.1335
1052.20 826.3626
1052.30 826.7189
1052.40 827.0752
1052.50 827.4316
1052.60 827.7879
1052.70 828.1442
1052.80 828.5005
1052.90 828.8569
1053.00 829.2702
1053.10 829.9113
1053.20 830.5524
1053.30 831.1935
1053.40 831.8347
1053.50 832.4758
1053.60 833.1169
1053.70 833.758
1053.80 834.3992
1053.90 835.0403
1054.00 835.6814
1054.10 836.3225
1054.20 836.9637
1054.30 837.6048
1054.40 838.2459
1054.50 838.887
1054.60 839.5281
1054.70 840.1693
1054.80 840.8104
1054.90 841.4515
1055.00 842.0926
1055.10 842.7338
1055.20 843.3749
1055.30 844.016
1055.40 844.6571
1055.50 845.2983
1055.60 845.9394
1055.70 846.5805
1055.80 847.2216
1055.90 847.8628
1056.00 848.5039
1056.10 849.145
1056.20 849.7861
1056.30 850.2868
1056.40 850.7876
1056.50 851.2883
1056.60 851.789
1056.70 852.2897
1056.80 852.7904
1056.90 853.2911
1057.00 853.7918
1057.10 853.5992
1057.20 853.3294
1057.30 853.0597
1057.40 852.79
1057.50 852.5203
1057.60 852.2506
1057.70 851.9809
1057.80 851.7112
1057.90 851.4414
1058.00 851.1717
1058.10 850.902
1058.20 850.6323
1058.30 850.3626
1058.40 850.0929
1058.50 849.8232
1058.60 849.5534
1058.70 849.2837
1058.80 849.014
1058.90 848.7443
1059.00 848.4746
1059.10 848.2049
1059.20 847.9352
1059.30 847.6655
1059.40 847.3957
1059.50 847.126
1059.60 846.8563
1059.70 846.5866
1059.80 846.3169
1059.90 846.0472
1060.00 845.7775
1060.10 845.5077
1060.20 845.238
1060.30 845.009
1060.40 844.8072
1060.50 844.6053
1060.60 844.4034
1060.70 844.2016
1060.80 843.9997
1060.90 843.7979
1061.00 843.596
1061.10 843.9484
1061.20 844.6704
1061.30 845.3923
1061.40 846.1143
1061.50 846.8363
1061.60 847.5582
1061.70 848.2802
1061.80 849.0021
1061.90 849.7241
1062.00 850.446
1062.10 851.168
1062.20 851.89
1062.30 852.6119
1062.40 853.3339
1062.50 854.0558
1062.60 854.7778
1062.70 855.4998
1062.80 856.2217
1062.90 856.9437
1063.00 857.6656
1063.10 858.3876
1063.20 859.1096
1063.30 859.8315
1063.40 860.5535
1063.50 861.2754
1063.60 861.9974
1063.70 862.7193
1063.80 863.4413
1063.90 864.1633
1064.00 864.8852
1064.10 865.6072
1064.20 866.3291
1064.30 867.048
1064.40 867.7542
1064.50 868.4605
1064.60 869.1668
1064.70 869.873
1064.80 870.5793
1064.90 871.2856
1065.00 871.9919
1065.10 872.6307
1065.20 872.9998
1065.30 873.3688
1065.40 873.7379
1065.50 874.1069
1065.60 874.476
1065.70 874.845
1065.80 875.2141
1065.90 875.5831
1066.00 875.9522
1066.10 876.3213
1066.20 876.6903
1066.30 877.0594
1066.40 877.4284
1066.50 877.7975
1066.60 878.1665
1066.70 878.5356
1066.80 878.9047
1066.90 879.2737
1067.00 879.6428
1067.10 880.0118
1067.20 880.3809
1067.30 880.7499
1067.40 881.119
1067.50 881.4881
1067.60 881.8571
1067.70 882.2262
1067.80 882.5952
1067.90 882.9643
1068.00 883.3333
1068.10 883.7024
1068.20 884.0714
1068.30 884.4405
1068.40 884.8466
1068.50 885.2686
1068.60 885.6906
1068.70 886.1126
1068.80 886.5346
1068.90 886.9566
1069.00 887.3786
1069.10 887.8006
1069.20 888.2843
1069.30 888.8093
1069.40 889.3343
1069.50 889.8593
1069.60 890.3843
1069.70 890.9092
1069.80 891.4342
1069.90 891.9592
1070.00 892.4842
1070.10 893.0091
1070.20 893.5341
1070.30 894.0591
1070.40 894.5841
1070.50 895.1091
1070.60 895.634
1070.70 896.159
1070.80 896.684
1070.90 897.209
1071.00 897.734
1071.10 898.2589
1071.20 898.7839
1071.30 899.3089
1071.40 899.8339
1071.50 900.3588
1071.60 900.8838
1071.70 901.4088
1071.80 901.9338
1071.90 902.4588
1072.00 902.9837
1072.10 903.5087
1072.20 904.0337
1072.30 904.5587
1072.40 905.0756
1072.50 905.5201
1072.60 905.9647
1072.70 906.4092
1072.80 906.8537
1072.90 907.2983
1073.00 907.7428
1073.10 908.1873
1073.20 908.6318
1073.30 909.3651
1073.40 910.0983
1073.50 910.8315
1073.60 911.5648
1073.70 912.298
1073.80 913.0312
1073.90 913.7645
1074.00 914.4977
1074.10 915.2309
1074.20 915.9642
1074.30 916.6974
1074.40 917.4306
1074.50 918.1639
1074.60 918.8971
1074.70 919.6303
1074.80 920.3636
1074.90 921.0968
1075.00 921.83
1075.10 922.5633
1075.20 923.2965
1075.30 924.0297
1075.40 924.763
1075.50 925.4962
1075.60 926.2294
1075.70 926.9627
1075.80 927.6959
1075.90 928.4291
1076.00 929.1623
1076.10 929.8956
1076.20 930.6288
1076.30 931.362
1076.40 932.0953
1076.50 932.8611
1076.60 933.6759
1076.70 934.4906
1076.80 935.3054
1076.90 936.1201
1077.00 936.9349
1077.10 937.7496
1077.20 938.5644
1077.30 939.3334
1077.40 939.9192
1077.50 940.505
1077.60 941.0908
1077.70 941.6766
1077.80 942.2624
1077.90 942.8482
1078.00 943.434
1078.10 944.0198
1078.20 944.6056
1078.30 945.1914
1078.40 945.7772
1078.50 946.363
1078.60 946.9488
1078.70 947.5346
1078.80 948.1204
1078.90 948.7063
1079.00 949.2921
1079.10 949.8779
1079.20 950.4637
1079.30 951.0495
1079.40 951.6353
1079.50 952.2211
1079.60 952.8069
1079.70 953.3927
1079.80 953.9785
1079.90 954.5643
1080.00 955.1501
1080.10 955.7359
1080.20 956.3217
1080.30 956.9075
1080.40 957.4933
1080.50 958.0791
1080.60 958.6336
1080.70 959.1568
1080.80 959.6799
1080.90 960.203
1081.00 960.7262
1081.10 961.2493
1081.20 961.7724
1081.30 962.2956
1081.40 962.4661
1081.50 962.1078
1081.60 961.7495
1081.70 961.3912
1081.80 961.0328
1081.90 960.6745
1082.00 960.3162
1082.10 959.9579
1082.20 959.5995
1082.30 959.2412
1082.40 958.8829
1082.50 958.5246
1082.60 958.1662
1082.70 957.8079
1082.80 957.4496
1082.90 957.0913
1083.00 956.733
1083.10 956.3746
1083.20 956.0163
1083.30 955.658
1083.40 955.2997
1083.50 954.9413
1083.60 954.583
1083.70 954.2247
1083.80 953.8664
1083.90 953.508
1084.00 953.1497
1084.10 952.7914
1084.20 952.4331
1084.30 952.0747
1084.40 951.7164
1084.50 951.3581
1084.60 950.9998
1084.70 950.6673
1084.80 950.352
1084.90 950.0367
1085.00 949.7214
1085.10 949.4061
1085.20 949.0908
1085.30 948.7756
1085.40 948.4603
1085.50 948.5107
1085.60 949.1096
1085.70 949.7085
1085.80 950.3074
1085.90 950.9063
1086.00 951.5052
1086.10 952.1041
1086.20 952.7031
1086.30 953.302
1086.40 953.9009
1086.50 954.4998
1086.60 955.0987
1086.70 955.6976
1086.80 956.2965
1086.90 956.8954
1087.00 957.4944
1087.10 958.0933
1087.20 958.6922
1087.30 959.2911
1087.40 959.89
1087.50 960.4889
1087.60 961.0878
1087.70 961.6868
1087.80 962.2857
1087.90 962.8846
1088.00 963.4835
1088.10 964.0824
1088.20 964.6813
1088.30 965.2802
1088.40 965.8791
1088.50 966.4781
1088.60 967.077
1088.70 967.6759
1088.80 968.2623
1088.90 968.8404
1089.00 969.4185
1089.10 969.9966
1089.20 970.5748
1089.30 971.1529
1089.40 971.731
1089.50 972.3091
1089.60 972.5992
1089.70 972.4572
1089.80 972.3152
1089.90 972.1732
1090.00 972.0313
1090.10 971.8893
1090.20 971.7473
1090.30 971.6053
1090.40 971.4634
1090.50 971.3214
1090.60 971.1794
1090.70 971.0374
1090.80 970.8955
1090.90 970.7535
1091.00 970.6115
1091.10 970.4695
1091.20 970.3275
1091.30 970.1856
1091.40 970.0436
1091.50 969.9016
1091.60 969.7596
1091.70 969.6177
1091.80 969.4757
1091.90 969.3337
1092.00 969.1917
1092.10 969.0498
1092.20 968.9078
1092.30 968.7658
1092.40 968.6238
1092.50 968.4819
1092.60 968.3399
1092.70 968.1979
1092.80 968.0559
1092.90 967.9171
1093.00 967.7813
1093.10 967.6456
1093.20 967.5099
1093.30 967.3741
1093.40 967.2384
1093.50 967.1026
1093.60 966.9669
1093.70 966.835
1093.80 966.7119
1093.90 966.5889
1094.00 966.4658
1094.10 966.3428
1094.20 966.2197
1094.30 966.0967
1094.40 965.9736
1094.50 965.8506
1094.60 965.7275
1094.70 965.6045
1094.80 965.4814
1094.90 965.3584
1095.00 965.2353
1095.10 965.1123
1095.20 964.9892
1095.30 964.8662
1095.40 964.7431
1095.50 964.6201
1095.60 964.497
1095.70 964.374
1095.80 964.2509
1095.90 964.1279
1096.00 964.0048
1096.10 963.8818
1096.20 963.7587
1096.30 963.6357
1096.40 963.5126
1096.50 963.3896
1096.60 963.2665
1096.70 963.1435
1096.80 963.0204
1096.90 962.8974
1097.00 962.7501
1097.10 962.5461
1097.20 962.3421
1097.30 962.1382
1097.40 961.9342
1097.50 961.7302
1097.60 961.5262
1097.70 961.3223
1097.80 961.1375
1097.90 961.1254
1098.00 961.1133
1098.10 961.1012
1098.20 961.0891
1098.30 961.077
1098.40 961.0649
1098.50 961.0527
1098.60 961.0406
1098.70 961.0285
1098.80 961.0164
1098.90 961.0043
1099.00 960.9922
1099.10 960.9801
1099.20 960.968
1099.30 960.9559
1099.40 960.9438
1099.50 960.9317
1099.60 960.9196
1099.70 960.9075
1099.80 960.8954
1099.90 960.8832
1100.00 960.8711
1100.10 960.859
1100.20 960.8469
1100.30 960.8348
1100.40 960.8227
1100.50 960.8106
1100.60 960.7985
1100.70 960.7864
1100.80 960.7743
1100.90 960.7622
1101.00 960.7501
1101.10 960.738
1101.20 960.7447
1101.30 960.7514
1101.40 960.7581
1101.50 960.7648
1101.60 960.7715
1101.70 960.7782
1101.80 960.785
1101.90 960.7917
1102.00 960.7484
1102.10 960.6927
1102.20 960.637
1102.30 960.5813
1102.40 960.5256
1102.50 960.4699
1102.60 960.4141
1102.70 960.3584
1102.80 960.3027
1102.90 960.247
1103.00 960.1913
1103.10 960.1355
1103.20 960.0798
1103.30 960.0241
1103.40 959.9684
1103.50 959.9127
1103.60 959.857
1103.70 959.8012
1103.80 959.7455
1103.90 959.6898
1104.00 959.6341
1104.10 959.5784
1104.20 959.5227
1104.30 959.4669
1104.40 959.4112
1104.50 959.3555
1104.60 959.2998
1104.70 959.2441
1104.80 959.1883
1104.90 959.1326
1105.00 959.0769
1105.10 959.0212
1105.20 958.9655
1105.30 958.8996
1105.40 958.8269
1105.50 958.7541
1105.60 958.6814
1105.70 958.6087
1105.80 958.536
1105.90 958.4633
1106.00 958.3906
1106.10 958.072
1106.20 957.3845
1106.30 956.697
1106.40 956.0095
1106.50 955.322
1106.60 954.6345
1106.70 953.947
1106.80 953.2595
1106.90 952.572
1107.00 951.8845
1107.10 951.1971
1107.20 950.5096
1107.30 949.8221
1107.40 949.1346
1107.50 948.4471
1107.60 947.7596
1107.70 947.0721
1107.80 946.3846
1107.90 945.6971
1108.00 945.0096
1108.10 944.3221
1108.20 943.6346
1108.30 942.9472
1108.40 942.2597
1108.50 941.5722
1108.60 940.8847
1108.70 940.1972
1108.80 939.5097
1108.90 938.8222
1109.00 938.1347
1109.10 937.4472
1109.20 936.7597
1109.30 936.0722
1109.40 935.3932
1109.50 934.748
1109.60 934.1027
1109.70 933.4575
1109.80 932.8123
1109.90 932.1671
1110.00 931.5218
1110.10 930.8766
1110.20 930.2314
1110.30 929.9683
1110.40 929.7477
1110.50 929.5271
1110.60 929.3065
1110.70 929.0859
1110.80 928.8653
1110.90 928.6447
1111.00 928.4241
1111.10 928.2035
1111.20 927.9829
1111.30 927.7624
1111.40 927.5418
1111.50 927.3212
1111.60 927.1006
1111.70 926.88
1111.80 926.6594
1111.90 926.4388
1112.00 926.2182
1112.10 925.9976
1112.20 925.777
1112.30 925.5564
1112.40 925.3358
1112.50 925.1152
1112.60 924.8946
1112.70 924.674
1112.80 924.4534
1112.90 924.2328
1113.00 924.0122
1113.10 923.7916
1113.20 923.571
1113.30 923.3504
1113.40 923.1298
1113.50 922.9092
1113.60 922.6982
1113.70 922.4936
1113.80 922.289
1113.90 922.0844
1114.00 921.8798
1114.10 921.6752
1114.20 921.4706
1114.30 921.266
1114.40 921.1679
1114.50 921.3186
1114.60 921.4692
1114.70 921.6198
1114.80 921.7704
1114.90 921.921
1115.00 922.0716
1115.10 922.2222
1115.20 922.3728
1115.30 922.5234
1115.40 922.6741
1115.50 922.8247
1115.60 922.9753
1115.70 923.1259
1115.80 923.2765
1115.90 923.4271
1116.00 923.5777
1116.10 923.7283
1116.20 923.879
1116.30 924.0296
1116.40 924.1802
1116.50 924.3308
1116.60 924.4814
1116.70 924.632
1116.80 924.7826
1116.90 924.9332
1117.00 925.0839
1117.10 925.2345
1117.20 925.3851
1117.30 925.5357
1117.40 925.6863
1117.50 925.8369
1117.60 925.9875
1117.70 926.1381
1117.80 926.28
1117.90 926.4219
1118.00 926.5638
1118.10 926.7056
1118.20 926.8475
1118.30 926.9894
1118.40 927.1313
1118.50 927.2731
1118.60 927.575
1118.70 927.9455
1118.80 928.316
1118.90 928.6865
1119.00 929.057
1119.10 929.4275
1119.20 929.798
1119.30 930.1685
1119.40 930.5389
1119.50 930.9094
1119.60 931.2799
1119.70 931.6504
1119.80 932.0209
1119.90 932.3914
1120.00 932.7619
1120.10 933.1324
1120.20 933.5029
1120.30 933.8733
1120.40 934.2438
1120.50 934.6143
1120.60 934.9848
1120.70 935.3553
1120.80 935.7258
1120.90 936.0963
1121.00 936.4668
1121.10 936.8373
1121.20 937.2077
1121.30 937.5782
1121.40 937.9487
1121.50 938.3192
1121.60 938.6897
1121.70 939.0602
1121.80 939.4307
1121.90 939.781
1122.00 940.0842
1122.10 940.3874
1122.20 940.6905
1122.30 940.9937
1122.40 941.2969
1122.50 941.6001
1122.60 941.9033
1122.70 942.2065
1122.80 941.5483
1122.90 940.89
1123.00 940.2318
1123.10 939.5736
1123.20 938.9154
1123.30 938.2572
1123.40 937.599
1123.50 936.9408
1123.60 936.2825
1123.70 935.6243
1123.80 934.9661
1123.90 934.3079
1124.00 933.6497
1124.10 932.9915
1124.20 932.3333
1124.30 931.675
1124.40 931.0168
1124.50 930.3586
1124.60 929.7004
1124.70 929.0422
1124.80 928.384
1124.90 927.7258
1125.00 927.0675
1125.10 926.4093
1125.20 925.7511
1125.30 925.0929
1125.40 924.4347
1125.50 923.7765
1125.60 923.1183
1125.70 922.4601
1125.80 921.8018
1125.90 921.1436
1126.00 920.4854
1126.10 919.8184
1126.20 919.1425
1126.30 918.4666
1126.40 917.7907
1126.50 917.1148
1126.60 916.439
1126.70 915.7631
1126.80 915.0872
1126.90 914.5709
1127.00 914.693
1127.10 914.8151
1127.20 914.9372
1127.30 915.0593
1127.40 915.1813
1127.50 915.3034
1127.60 915.4255
1127.70 915.5476
1127.80 915.6697
1127.90 915.7918
1128.00 915.9139
1128.10 916.036
1128.20 916.1581
1128.30 916.2802
1128.40 916.4022
1128.50 916.5243
1128.60 916.6464
1128.70 916.7685
1128.80 916.8906
1128.90 917.0127
1129.00 917.1348
1129.10 917.2569
1129.20 917.379
1129.30 917.501
1129.40 917.6231
1129.50 917.7452
1129.60 917.8673
1129.70 917.9894
1129.80 918.1115
1129.90 918.2336
1130.00 918.3557
1130.10 918.4778
1130.20 918.5998
1130.30 918.6917
1130.40 918.7705
1130.50 918.8494
1130.60 918.9282
1130.70 919.0071
1130.80 919.0859
1130.90 919.1648
1131.00 919.2436
1131.10 919.2042
1131.20 918.9873
1131.30 918.7703
1131.40 918.5534
1131.50 918.3365
1131.60 918.1195
1131.70 917.9026
1131.80 917.6857
1131.90 917.4688
1132.00 917.2518
1132.10 917.0349
1132.20 916.818
1132.30 916.601
1132.40 916.3841
1132.50 916.1672
1132.60 915.9502
1132.70 915.7333
1132.80 915.5164
1132.90 915.2995
1133.00 915.0825
1133.10 914.8656
1133.20 914.6487
1133.30 914.4317
1133.40 914.2148
1133.50 913.9979
1133.60 913.781
1133.70 913.564
1133.80 913.3471
1133.90 913.1302
1134.00 912.9132
1134.10 912.6963
1134.20 912.4794
1134.30 912.2625
1134.40 912.0455
1134.50 911.8911
1134.60 911.7523
1134.70 911.6135
1134.80 911.4747
1134.90 911.3359
1135.00 911.1971
1135.10 911.0583
1135.20 910.9195
1135.30 911.0034
1135.40 911.4212
1135.50 911.839
1135.60 912.2568
1135.70 912.6746
1135.80 913.0925
1135.90 913.5103
1136.00 913.9281
1136.10 914.3459
1136.20 914.7638
1136.30 915.1816
1136.40 915.5994
1136.50 916.0172
1136.60 916.4351
1136.70 916.8529
1136.80 917.2707
1136.90 917.6885
1137.00 918.1064
1137.10 918.5242
1137.20 918.942
1137.30 919.3598
1137.40 919.7777
1137.50 920.1955
1137.60 920.6133
1137.70 921.0311
1137.80 921.4489
1137.90 921.8668
1138.00 922.2846
1138.10 922.7024
1138.20 923.1202
1138.30 923.5381
1138.40 923.9559
1138.50 924.3737
1138.60 924.7915
1138.70 925.2887
1138.80 925.8056
1138.90 926.3225
1139.00 926.8395
1139.10 927.3564
1139.20 927.8734
1139.30 928.3903
1139.40 928.9072
1139.50 929.4166
1139.60 929.9147
1139.70 930.4128
1139.80 930.9109
1139.90 931.409
1140.00 931.9071
1140.10 932.4052
1140.20 932.9033
1140.30 933.4014
1140.40 933.8995
1140.50 934.3975
1140.60 934.8956
1140.70 935.3937
1140.80 935.8918
1140.90 936.3899
1141.00 936.888
1141.10 937.3861
1141.20 937.8842
1141.30 938.3823
1141.40 938.8804
1141.50 939.3784
1141.60 939.8765
1141.70 940.3746
1141.80 940.8727
1141.90 941.3708
1142.00 941.8689
1142.10 942.367
1142.20 942.8651
1142.30 943.3632
1142.40 943.8613
1142.50 944.3594
1142.60 944.8574
1142.70 945.3555
1142.80 945.8536
1142.90 946.4681
1143.00 947.1117
1143.10 947.7554
1143.20 948.399
1143.30 949.0426
1143.40 949.6862
1143.50 950.3298
1143.60 950.9734
1143.70 951.6803
1143.80 952.482
1143.90 953.2837
1144.00 954.0854
1144.10 954.8871
1144.20 955.6888
1144.30 956.4905
1144.40 957.2922
1144.50 958.0939
1144.60 958.8956
1144.70 959.6973
1144.80 960.499
1144.90 961.3007
1145.00 962.1024
1145.10 962.9041
1145.20 963.7058
1145.30 964.5075
1145.40 965.3092
1145.50 966.1109
1145.60 966.9126
1145.70 967.7143
1145.80 968.516
1145.90 969.3177
1146.00 970.1194
1146.10 970.9211
1146.20 971.7228
1146.30 972.5245
1146.40 973.3263
1146.50 974.128
1146.60 974.9297
1146.70 975.7314
1146.80 976.5331
1146.90 977.3348
1147.00 978.1365
1147.10 978.8256
1147.20 979.4396
1147.30 980.0536
1147.40 980.6677
1147.50 981.2817
1147.60 981.8957
1147.70 982.5097
1147.80 983.1238
1147.90 983.6591
1148.00 983.8794
1148.10 984.0998
1148.20 984.3201
1148.30 984.5405
1148.40 984.7608
1148.50 984.9811
1148.60 985.2015
1148.70 985.4218
1148.80 985.6422
1148.90 985.8625
1149.00 986.0829
1149.10 986.3032
1149.20 986.5236
1149.30 986.7439
1149.40 986.9643
1149.50 987.1846
1149.60 987.405
1149.70 987.6253
1149.80 987.8457
1149.90 988.066
1150.00 988.2864
1150.10 988.5067
1150.20 988.7271
1150.30 988.9474
1150.40 989.1678
1150.50 989.3881
1150.60 989.6084
1150.70 989.8288
1150.80 990.0491
1150.90 990.2695
1151.00 990.4898
1151.10 990.7102
1151.20 990.9305
1151.30 991.1612
1151.40 991.4023
1151.50 991.6433
1151.60 991.8843
1151.70 992.1253
1151.80 992.3664
1151.90 992.6074
1152.00 992.8484
1152.10 993.0556
1152.20 992.9581
1152.30 992.8606
1152.40 992.7631
1152.50 992.6656
1152.60 992.5681
1152.70 992.4705
1152.80 992.373
1152.90 992.2755
1153.00 992.178
1153.10 992.0805
1153.20 991.983
1153.30 991.8855
1153.40 991.788
1153.50 991.6905
1153.60 991.593
1153.70 991.4954
1153.80 991.3979
1153.90 991.3004
1154.00 991.2029
1154.10 991.1054
1154.20 991.0079
1154.30 990.9104
1154.40 990.8129
1154.50 990.7154
1154.60 990.6178
1154.70 990.5203
1154.80 990.4228
1154.90 990.3253
1155.00 990.2278
1155.10 990.1303
1155.20 990.0328
1155.30 989.9353
1155.40 989.8378
1155.50 989.7187
1155.60 989.5137
1155.70 989.3087
1155.80 989.1037
1155.90 988.8986
1156.00 988.6936
1156.10 988.4886
1156.20 988.2835
1156.30 988.0785
1156.40 987.8467
1156.50 987.6081
1156.60 987.3695
1156.70 987.131
1156.80 986.8924
1156.90 986.6539
1157.00 986.4153
1157.10 986.1767
1157.20 985.9382
1157.30 985.6996
1157.40 985.4611
1157.50 985.2225
1157.60 984.9839
1157.70 984.7454
1157.80 984.5068
1157.90 984.2683
1158.00 984.0297
1158.10 983.7911
1158.20 983.5526
1158.30 983.314
1158.40 983.0755
1158.50 982.8369
1158.60 982.5983
1158.70 982.3598
1158.80 982.1212
1158.90 981.8827
1159.00 981.6441
1159.10 981.4055
1159.20 981.167
1159.30 980.9284
1159.40 980.6899
1159.50 980.4513
1159.60 980.2127
1159.70 979.9742
1159.80 979.718
1159.90 979.4599
1160.00 979.2017
1160.10 978.9436
1160.20 978.6855
1160.30 978.4273
1160.40 978.1692
1160.50 977.9111
1160.60 977.3551
1160.70 976.5012
1160.80 975.6473
1160.90 974.7935
1161.00 973.9396
1161.10 973.0858
1161.20 972.2319
1161.30 971.378
1161.40 970.5242
1161.50 969.6703
1161.60 968.8165
1161.70 967.9626
1161.80 967.1087
1161.90 966.2549
1162.00 965.401
1162.10 964.5472
1162.20 963.6933
1162.30 962.8394
1162.40 961.9856
1162.50 961.1317
1162.60 960.2779
1162.70 959.424
1162.80 958.5701
1162.90 957.7163
1163.00 956.8624
1163.10 956.0086
1163.20 955.1547
1163.30 954.3008
1163.40 953.447
1163.50 952.5931
1163.60 951.7393
1163.70 950.8854
1163.80 950.0315
1163.90 949.1777
1164.00 948.3131
1164.10 947.4412
1164.20 946.5694
1164.30 945.6976
1164.40 944.8257
1164.50 943.9539
1164.60 943.0821
1164.70 942.2103
1164.80 941.398
1164.90 941.1214
1165.00 940.8449
1165.10 940.5683
1165.20 940.2918
1165.30 940.0152
1165.40 939.7387
1165.50 939.4621
1165.60 939.1856
1165.70 938.909
1165.80 938.6325
1165.90 938.3559
1166.00 938.0794
1166.10 937.8028
1166.20 937.5263
1166.30 937.2497
1166.40 936.9732
1166.50 936.6966
1166.60 936.4201
1166.70 936.1435
1166.80 935.867
1166.90 935.5904
1167.00 935.3139
1167.10 935.0373
1167.20 934.7608
1167.30 934.4842
1167.40 934.2077
1167.50 933.9311
1167.60 933.6546
1167.70 933.378
1167.80 933.1015
1167.90 932.8249
1168.00 932.5484
1168.10 932.2718
1168.20 931.9908
1168.30 931.692
1168.40 931.3933
1168.50 931.0945
1168.60 930.7957
1168.70 930.4969
1168.80 930.1981
1168.90 929.8993
1169.00 929.6005
1169.10 929.6293
1169.20 929.7985
1169.30 929.9676
1169.40 930.1368
1169.50 930.306
1169.60 930.4751
1169.70 930.6443
1169.80 930.8135
1169.90 930.9826
1170.00 931.1518
1170.10 931.3209
1170.20 931.4901
1170.30 931.6593
1170.40 931.8284
1170.50 931.9976
1170.60 932.1668
1170.70 932.3359
1170.80 932.5051
1170.90 932.6742
1171.00 932.8434
1171.10 933.0126
1171.20 933.1817
1171.30 933.3509
1171.40 933.5201
1171.50 933.6892
1171.60 933.8584
1171.70 934.0276
1171.80 934.1967
1171.90 934.3659
1172.00 934.535
1172.10 934.7042
1172.20 934.8734
1172.30 935.0425
1172.40 935.2117
1172.50 935.4742
1172.60 935.7768
1172.70 936.0793
1172.80 936.3818
1172.90 936.6844
1173.00 936.9869
1173.10 937.2895
1173.20 937.592
1173.30 937.876
1173.40 938.0861
1173.50 938.2961
1173.60 938.5061
1173.70 938.7162
1173.80 938.9262
1173.90 939.1362
1174.00 939.3462
1174.10 939.5563
1174.20 939.7663
1174.30 939.9763
1174.40 940.1863
1174.50 940.3964
1174.60 940.6064
1174.70 940.8164
1174.80 941.0264
1174.90 941.2365
1175.00 941.4465
1175.10 941.6565
1175.20 941.8665
1175.30 942.0766
1175.40 942.2866
1175.50 942.4966
1175.60 942.7066
1175.70 942.9167
1175.80 943.1267
1175.90 943.3367
1176.00 943.5467
1176.10 943.7568
1176.20 943.9668
1176.30 944.1768
1176.40 944.3868
1176.50 944.5969
1176.60 944.8069
1176.70 945.0196
1176.80 945.2433
1176.90 945.467
1177.00 945.6907
1177.10 945.9143
1177.20 946.138
1177.30 946.3617
1177.40 946.5854
1177.50 946.8091
1177.60 947.4451
1177.70 948.258
1177.80 949.0708
1177.90 949.8836
1178.00 950.6964
1178.10 951.5093
1178.20 952.3221
1178.30 953.1349
1178.40 953.9477
1178.50 954.7606
1178.60 955.5734
1178.70 956.3862
1178.80 957.199
1178.90 958.0119
1179.00 958.8247
1179.10 959.6375
1179.20 960.4504
1179.30 961.2632
1179.40 962.076
1179.50 962.8888
1179.60 963.7017
1179.70 964.5145
1179.80 965.3273
1179.90 966.1401
1180.00 966.953
1180.10 967.7658
1180.20 968.5786
1180.30 969.3914
1180.40 970.2043
1180.50 971.0171
1180.60 971.8299
1180.70 972.6427
1180.80 973.4556
1180.90 974.2684
1181.00 975.1321
1181.10 976.0298
1181.20 976.9274
1181.30 977.8251
1181.40 978.7228
1181.50 979.6204
1181.60 980.5181
1181.70 981.4157
1181.80 982.2899
1181.90 982.9529
1182.00 983.6159
1182.10 984.2788
1182.20 984.9418
1182.30 985.6048
1182.40 986.2677
1182.50 986.9307
1182.60 987.5937
1182.70 988.2566
1182.80 988.9196
1182.90 989.5826
1183.00 990.2455
1183.10 990.9085
1183.20 991.5715
1183.30 992.2345
1183.40 992.8974
1183.50 993.5604
1183.60 994.2234
1183.70 994.8863
1183.80 995.5493
1183.90 996.2123
1184.00 996.8752
1184.10 997.5382
1184.20 998.2012
1184.30 998.8641
1184.40 999.5271
1184.50 1000.19
1184.60 1000.853
1184.70 1001.516
1184.80 1002.179
1184.90 1002.842
1185.00 1003.505
1185.10 1004.168
1185.20 1004.831
1185.30 1005.437
1185.40 1006.043
1185.50 1006.65
1185.60 1007.256
1185.70 1007.862
1185.80 1008.468
1185.90 1009.075
1186.00 1009.681
1186.10 1010.164
1186.20 1010.523
1186.30 1010.883
1186.40 1011.242
1186.50 1011.602
1186.60 1011.961
1186.70 1012.321
1186.80 1012.681
1186.90 1013.04
1187.00 1013.4
1187.10 1013.759
1187.20 1014.119
1187.30 1014.478
1187.40 1014.838
1187.50 1015.197
1187.60 1015.557
1187.70 1015.916
1187.80 1016.276
1187.90 1016.635
1188.00 1016.995
1188.10 1017.354
1188.20 1017.714
1188.30 1018.074
1188.40 1018.433
1188.50 1018.793
1188.60 1019.152
1188.70 1019.512
1188.80 1019.871
1188.90 1020.231
1189.00 1020.59
1189.10 1020.95
1189.20 1021.309
1189.30 1021.669
1189.40 1022.028
1189.50 1022.315
1189.60 1022.494
1189.70 1022.672
1189.80 1022.85
1189.90 1023.028
1190.00 1023.206
1190.10 1023.385
1190.20 1023.563
1190.30 1023.741
1190.40 1023.674
1190.50 1023.58
1190.60 1023.486
1190.70 1023.391
1190.80 1023.297
1190.90 1023.203
1191.00 1023.109
1191.10 1023.015
1191.20 1022.92
1191.30 1022.826
1191.40 1022.732
1191.50 1022.638
1191.60 1022.544
1191.70 1022.449
1191.80 1022.355
1191.90 1022.261
1192.00 1022.167
1192.10 1022.073
1192.20 1021.978
1192.30 1021.884
1192.40 1021.79
1192.50 1021.696
1192.60 1021.602
1192.70 1021.507
1192.80 1021.413
1192.90 1021.319
1193.00 1021.225
1193.10 1021.131
1193.20 1021.036
1193.30 1020.942
1193.40 1020.848
1193.50 1020.754
1193.60 1020.66
1193.70 1020.565
1193.80 1020.49
1193.90 1020.424
1194.00 1020.357
1194.10 1020.29
1194.20 1020.224
1194.30 1020.157
1194.40 1020.09
1194.50 1020.024
1194.60 1019.974
1194.70 1020.076
1194.80 1020.177
1194.90 1020.279
1195.00 1020.381
1195.10 1020.482
1195.20 1020.584
1195.30 1020.686
1195.40 1020.787
1195.50 1020.889
1195.60 1020.991
1195.70 1021.092
1195.80 1021.194
1195.90 1021.296
1196.00 1021.398
1196.10 1021.499
1196.20 1021.601
1196.30 1021.703
1196.40 1021.804
1196.50 1021.906
1196.60 1022.008
1196.70 1022.109
1196.80 1022.211
1196.90 1022.313
1197.00 1022.414
1197.10 1022.516
1197.20 1022.618
1197.30 1022.72
1197.40 1022.821
1197.50 1022.923
1197.60 1023.025
1197.70 1023.126
1197.80 1023.228
1197.90 1023.33
1198.00 1023.431
1198.10 1023.644
1198.20 1023.869
1198.30 1024.094
1198.40 1024.319
1198.50 1024.544
1198.60 1024.769
1198.70 1024.994
1198.80 1025.219
1198.90 1025.3
1199.00 1025.167
1199.10 1025.033
1199.20 1024.9
1199.30 1024.766
1199.40 1024.633
1199.50 1024.499
1199.60 1024.366
1199.70 1024.232
1199.80 1024.099
1199.90 1023.965
1200.00 1023.832
1200.10 1023.698
1200.20 1023.565
1200.30 1023.431
1200.40 1023.298
1200.50 1023.164
1200.60 1023.031
1200.70 1022.897
1200.80 1022.764
1200.90 1022.63
1201.00 1022.497
1201.10 1022.363
1201.20 1022.23
1201.30 1022.096
1201.40 1021.963
1201.50 1021.829
1201.60 1021.696
1201.70 1021.562
1201.80 1021.428
1201.90 1021.295
1202.00 1021.161
1202.10 1021.028
1202.20 1020.894
1202.30 1020.767
1202.40 1020.69
1202.50 1020.613
1202.60 1020.536
1202.70 1020.459
1202.80 1020.382
1202.90 1020.305
1203.00 1020.228
1203.10 1020.151
1203.20 1020.765
1203.30 1021.839
1203.40 1022.913
1203.50 1023.987
1203.60 1025.061
1203.70 1026.135
1203.80 1027.209
1203.90 1028.283
1204.00 1029.357
1204.10 1030.431
1204.20 1031.505
1204.30 1032.579
1204.40 1033.653
1204.50 1034.727
1204.60 1035.801
1204.70 1036.875
1204.80 1037.949
1204.90 1039.022
1205.00 1040.096
1205.10 1041.17
1205.20 1042.244
1205.30 1043.318
1205.40 1044.392
1205.50 1045.466
1205.60 1046.54
1205.70 1047.614
1205.80 1048.688
1205.90 1049.762
1206.00 1050.836
1206.10 1051.91
1206.20 1052.984
1206.30 1054.058
1206.40 1055.132
1206.50 1056.206
1206.60 1057.288
1206.70 1058.391
1206.80 1059.493
1206.90 1060.595
1207.00 1061.697
1207.10 1062.799
1207.20 1063.902
1207.30 1065.004
1207.40 1066.106
1207.50 1066.802
1207.60 1067.396
1207.70 1067.991
1207.80 1068.585
1207.90 1069.179
1208.00 1069.774
1208.10 1070.368
1208.20 1070.962
1208.30 1071.557
1208.40 1072.151
1208.50 1072.746
1208.60 1073.34
1208.70 1073.934
1208.80 1074.529
1208.90 1075.123
1209.00 1075.717
1209.10 1076.312
1209.20 1076.906
1209.30 1077.5
1209.40 1078.095
1209.50 1078.689
1209.60 1079.283
1209.70 1079.878
1209.80 1080.472
1209.90 1081.067
1210.00 1081.661
1210.10 1082.255
1210.20 1082.85
1210.30 1083.444
1210.40 1084.038
1210.50 1084.633
1210.60 1085.227
1210.70 1085.821
1210.80 1086.416
1210.90 1086.99
1211.00 1087.543
1211.10 1088.096
1211.20 1088.65
1211.30 1089.203
1211.40 1089.757
1211.50 1090.31
1211.60 1090.863
1211.70 1091.417
1211.80 1092.313
1211.90 1093.247
1212.00 1094.181
1212.10 1095.115
1212.20 1096.049
1212.30 1096.983
1212.40 1097.917
1212.50 1098.851
1212.60 1099.785
1212.70 1100.719
1212.80 1101.653
1212.90 1102.587
1213.00 1103.521
1213.10 1104.456
1213.20 1105.39
1213.30 1106.324
1213.40 1107.258
1213.50 1108.192
1213.60 1109.126
1213.70 1110.06
1213.80 1110.994
1213.90 1111.928
1214.00 1112.862
1214.10 1113.796
1214.20 1114.73
1214.30 1115.664
1214.40 1116.598
1214.50 1117.532
1214.60 1118.466
1214.70 1119.4
1214.80 1120.334
1214.90 1121.269
1215.00 1122.203
1215.10 1123.137
1215.20 1124.088
1215.30 1125.052
1215.40 1126.015
1215.50 1126.978
1215.60 1127.941
1215.70 1128.905
1215.80 1129.868
1215.90 1130.831
1216.00 1131.795
1216.10 1131.762
1216.20 1131.729
1216.30 1131.697
1216.40 1131.664
1216.50 1131.631
1216.60 1131.598
1216.70 1131.566
1216.80 1131.533
1216.90 1131.5
1217.00 1131.467
1217.10 1131.435
1217.20 1131.402
1217.30 1131.369
1217.40 1131.337
1217.50 1131.304
1217.60 1131.271
1217.70 1131.238
1217.80 1131.206
1217.90 1131.173
1218.00 1131.14
1218.10 1131.107
1218.20 1131.075
1218.30 1131.042
1218.40 1131.009
1218.50 1130.977
1218.60 1130.944
1218.70 1130.911
1218.80 1130.878
1218.90 1130.846
1219.00 1130.813
1219.10 1130.78
1219.20 1130.747
1219.30 1130.715
1219.40 1130.682
1219.50 1130.63
1219.60 1130.57
1219.70 1130.51
1219.80 1130.451
1219.90 1130.391
1220.00 1130.331
1220.10 1130.271
1220.20 1130.211
1220.30 1130.215
1220.40 1130.794
1220.50 1131.373
1220.60 1131.952
1220.70 1132.53
1220.80 1133.109
1220.90 1133.688
1221.00 1134.267
1221.10 1134.846
1221.20 1135.425
1221.30 1136.004
1221.40 1136.583
1221.50 1137.162
1221.60 1137.74
1221.70 1138.319
1221.80 1138.898
1221.90 1139.477
1222.00 1140.056
1222.10 1140.635
1222.20 1141.214
1222.30 1141.793
1222.40 1142.371
1222.50 1142.95
1222.60 1143.529
1222.70 1144.108
1222.80 1144.687
1222.90 1145.266
1223.00 1145.845
1223.10 1146.424
1223.20 1147.002
1223.30 1147.581
1223.40 1148.16
1223.50 1148.739
1223.60 1149.318
1223.70 1149.897
1223.80 1150.422
1223.90 1150.923
1224.00 1151.424
1224.10 1151.926
1224.20 1152.427
1224.30 1152.928
1224.40 1153.43
1224.50 1153.931
1224.60 1154.335
1224.70 1154.35
1224.80 1154.365
1224.90 1154.381
1225.00 1154.396
1225.10 1154.411
1225.20 1154.426
1225.30 1154.442
1225.40 1154.457
1225.50 1154.472
1225.60 1154.487
1225.70 1154.503
1225.80 1154.518
1225.90 1154.533
1226.00 1154.548
1226.10 1154.564
1226.20 1154.579
1226.30 1154.594
1226.40 1154.609
1226.50 1154.624
1226.60 1154.64
1226.70 1154.655
1226.80 1154.67
1226.90 1154.685
1227.00 1154.701
1227.10 1154.716
1227.20 1154.731
1227.30 1154.746
1227.40 1154.762
1227.50 1154.777
1227.60 1154.792
1227.70 1154.807
1227.80 1154.823
1227.90 1154.838
1228.00 1154.853
1228.10 1154.856
1228.20 1154.856
1228.30 1154.856
1228.40 1154.856
1228.50 1154.856
1228.60 1154.856
1228.70 1154.856
1228.80 1154.856
1228.90 1154.816
1229.00 1154.611
1229.10 1154.406
1229.20 1154.202
1229.30 1153.997
1229.40 1153.793
1229.50 1153.588
1229.60 1153.384
1229.70 1153.179
1229.80 1152.974
1229.90 1152.77
1230.00 1152.565
1230.10 1152.361
1230.20 1152.156
1230.30 1151.952
1230.40 1151.747
1230.50 1151.542
1230.60 1151.338
1230.70 1151.133
1230.80 1150.929
1230.90 1150.724
1231.00 1150.52
1231.10 1150.315
1231.20 1150.11
1231.30 1149.906
1231.40 1149.701
1231.50 1149.497
1231.60 1149.292
1231.70 1149.088
1231.80 1148.883
1231.90 1148.678
1232.00 1148.474
1232.10 1148.269
1232.20 1148.065
1232.30 1147.86
1232.40 1147.54
1232.50 1147.192
1232.60 1146.844
1232.70 1146.495
1232.80 1146.147
1232.90 1145.799
1233.00 1145.45
1233.10 1145.102
1233.20 1144.722
1233.30 1144.217
1233.40 1143.711
1233.50 1143.206
1233.60 1142.7
1233.70 1142.195
1233.80 1141.689
1233.90 1141.184
1234.00 1140.678
1234.10 1140.173
1234.20 1139.667
1234.30 1139.162
1234.40 1138.656
1234.50 1138.151
1234.60 1137.645
1234.70 1137.14
1234.80 1136.634
1234.90 1136.129
1235.00 1135.623
1235.10 1135.118
1235.20 1134.613
1235.30 1134.107
1235.40 1133.602
1235.50 1133.096
1235.60 1132.591
1235.70 1132.085
1235.80 1131.58
1235.90 1131.074
1236.00 1130.569
1236.10 1130.063
1236.20 1129.558
1236.30 1129.052
1236.40 1128.547
1236.50 1128.041
1236.60 1127.536
1236.70 1127.098
1236.80 1126.689
1236.90 1126.28
1237.00 1125.871
1237.10 1125.462
1237.20 1125.053
1237.30 1124.644
1237.40 1124.235
1237.50 1123.832
1237.60 1123.455
1237.70 1123.077
1237.80 1122.7
1237.90 1122.323
1238.00 1121.945
1238.10 1121.568
1238.20 1121.19
1238.30 1120.813
1238.40 1120.435
1238.50 1120.058
1238.60 1119.681
1238.70 1119.303
1238.80 1118.926
1238.90 1118.548
1239.00 1118.171
1239.10 1117.793
1239.20 1117.416
1239.30 1117.039
1239.40 1116.661
1239.50 1116.284
1239.60 1115.906
1239.70 1115.529
1239.80 1115.151
1239.90 1114.774
1240.00 1114.397
1240.10 1114.019
1240.20 1113.642
1240.30 1113.264
1240.40 1112.887
1240.50 1112.509
1240.60 1112.132
1240.70 1111.755
1240.80 1111.377
1240.90 1111
1241.00 1110.618
1241.10 1110.235
1241.20 1109.851
1241.30 1109.468
1241.40 1109.085
1241.50 1108.701
1241.60 1108.318
1241.70 1107.935
1241.80 1107.599
1241.90 1107.697
1242.00 1107.795
1242.10 1107.893
1242.20 1107.991
1242.30 1108.089
1242.40 1108.186
1242.50 1108.284
1242.60 1108.382
1242.70 1108.48
1242.80 1108.578
1242.90 1108.676
1243.00 1108.773
1243.10 1108.871
1243.20 1108.969
1243.30 1109.067
1243.40 1109.165
1243.50 1109.263
1243.60 1109.36
1243.70 1109.458
1243.80 1109.556
1243.90 1109.654
1244.00 1109.752
1244.10 1109.85
1244.20 1109.947
1244.30 1110.045
1244.40 1110.143
1244.50 1110.241
1244.60 1110.339
1244.70 1110.437
1244.80 1110.535
1244.90 1110.632
1245.00 1110.73
1245.10 1110.828
1245.20 1110.926
1245.30 1111.134
1245.40 1111.417
1245.50 1111.699
1245.60 1111.982
1245.70 1112.264
1245.80 1112.547
1245.90 1112.829
1246.00 1113.112
1246.10 1113.394
1246.20 1114.422
1246.30 1115.449
1246.40 1116.476
1246.50 1117.504
1246.60 1118.531
1246.70 1119.559
1246.80 1120.586
1246.90 1121.613
1247.00 1122.641
1247.10 1123.668
1247.20 1124.696
1247.30 1125.723
1247.40 1126.75
1247.50 1127.778
1247.60 1128.805
1247.70 1129.832
1247.80 1130.86
1247.90 1131.887
1248.00 1132.915
1248.10 1133.942
1248.20 1134.969
1248.30 1135.997
1248.40 1137.024
1248.50 1138.052
1248.60 1139.079
1248.70 1140.106
1248.80 1141.134
1248.90 1142.161
1249.00 1143.189
1249.10 1144.216
1249.20 1145.243
1249.30 1146.271
1249.40 1147.298
1249.50 1148.325
1249.60 1149.345
1249.70 1150.358
1249.80 1151.371
1249.90 1152.383
1250.00 1153.396
1250.10 1154.408
1250.20 1155.421
1250.30 1156.433
1250.40 1157.446
1250.50 1158.229
1250.60 1159.011
1250.70 1159.794
1250.80 1160.576
1250.90 1161.359
1251.00 1162.142
1251.10 1162.924
1251.20 1163.707
1251.30 1164.489
1251.40 1165.272
1251.50 1166.055
1251.60 1166.837
1251.70 1167.62
1251.80 1168.403
1251.90 1169.185
1252.00 1169.968
1252.10 1170.75
1252.20 1171.533
1252.30 1172.316
1252.40 1173.098
1252.50 1173.881
1252.60 1174.663
1252.70 1175.446
1252.80 1176.229
1252.90 1177.011
1253.00 1177.794
1253.10 1178.577
1253.20 1179.359
1253.30 1180.142
1253.40 1180.924
1253.50 1181.707
1253.60 1182.49
1253.70 1183.272
1253.80 1184.055
1253.90 1184.865
1254.00 1185.718
1254.10 1186.57
1254.20 1187.422
1254.30 1188.274
1254.40 1189.126
1254.50 1189.979
1254.60 1190.831
1254.70 1191.683
1254.80 1192.18
1254.90 1192.637
1255.00 1193.093
1255.10 1193.55
1255.20 1194.007
1255.30 1194.464
1255.40 1194.921
1255.50 1195.378
1255.60 1195.835
1255.70 1196.292
1255.80 1196.749
1255.90 1197.206
1256.00 1197.663
1256.10 1198.12
1256.20 1198.576
1256.30 1199.033
1256.40 1199.49
1256.50 1199.947
1256.60 1200.404
1256.70 1200.861
1256.80 1201.318
1256.90 1201.775
1257.00 1202.232
1257.10 1202.689
1257.20 1203.146
1257.30 1203.603
1257.40 1204.06
1257.50 1204.516
1257.60 1204.973
1257.70 1205.43
1257.80 1205.887
1257.90 1206.344
1258.00 1206.801
1258.10 1207.258
1258.20 1207.669
1258.30 1207.974
1258.40 1208.279
1258.50 1208.584
1258.60 1208.889
1258.70 1209.194
1258.80 1209.499
1258.90 1209.804
1259.00 1210.109
1259.10 1211.266
1259.20 1212.788
1259.30 1214.31
1259.40 1215.832
1259.50 1217.354
1259.60 1218.876
1259.70 1220.398
1259.80 1221.92
1259.90 1223.443
1260.00 1224.965
1260.10 1226.487
1260.20 1228.009
1260.30 1229.531
1260.40 1231.053
1260.50 1232.575
1260.60 1234.097
1260.70 1235.619
1260.80 1237.142
1260.90 1238.664
1261.00 1240.186
1261.10 1241.708
1261.20 1243.23
1261.30 1244.752
1261.40 1246.274
1261.50 1247.796
1261.60 1249.318
1261.70 1250.84
1261.80 1252.363
1261.90 1253.885
1262.00 1255.407
1262.10 1256.929
1262.20 1258.451
1262.30 1259.973
1262.40 1261.495
1262.50 1263.045
1262.60 1264.708
1262.70 1266.371
1262.80 1268.034
1262.90 1269.696
1263.00 1271.359
1263.10 1273.022
1263.20 1274.684
1263.30 1276.347
1263.40 1277.241
1263.50 1277.623
1263.60 1278.004
1263.70 1278.386
1263.80 1278.768
1263.90 1279.149
1264.00 1279.531
1264.10 1279.912
1264.20 1280.294
1264.30 1280.676
1264.40 1281.057
1264.50 1281.439
1264.60 1281.82
1264.70 1282.202
1264.80 1282.584
1264.90 1282.965
1265.00 1283.347
1265.10 1283.729
1265.20 1284.11
1265.30 1284.492
1265.40 1284.873
1265.50 1285.255
1265.60 1285.637
1265.70 1286.018
1265.80 1286.4
1265.90 1286.781
1266.00 1287.163
1266.10 1287.545
1266.20 1287.926
1266.30 1288.308
1266.40 1288.69
1266.50 1289.071
1266.60 1289.453
1266.70 1289.834
1266.80 1290.216
1266.90 1290.332
1267.00 1290.449
1267.10 1290.565
1267.20 1290.681
1267.30 1290.798
1267.40 1290.914
1267.50 1291.03
1267.60 1291.146
1267.70 1291.42
1267.80 1291.93
1267.90 1292.44
1268.00 1292.949
1268.10 1293.459
1268.20 1293.969
1268.30 1294.479
1268.40 1294.989
1268.50 1295.498
1268.60 1296.008
1268.70 1296.518
1268.80 1297.028
1268.90 1297.538
1269.00 1298.047
1269.10 1298.557
1269.20 1299.067
1269.30 1299.577
1269.40 1300.087
1269.50 1300.596
1269.60 1301.106
1269.70 1301.616
1269.80 1302.126
1269.90 1302.636
1270.00 1303.145
1270.10 1303.655
1270.20 1304.165
1270.30 1304.675
1270.40 1305.185
1270.50 1305.694
1270.60 1306.204
1270.70 1306.714
1270.80 1307.224
1270.90 1307.734
1271.00 1308.243
1271.10 1308.753
1271.20 1309.453
1271.30 1310.174
1271.40 1310.895
1271.50 1311.615
1271.60 1312.336
1271.70 1313.057
1271.80 1313.778
1271.90 1314.499
1272.00 1314.727
1272.10 1313.808
1272.20 1312.889
1272.30 1311.97
1272.40 1311.051
1272.50 1310.132
1272.60 1309.213
1272.70 1308.294
1272.80 1307.375
1272.90 1306.456
1273.00 1305.537
1273.10 1304.619
1273.20 1303.7
1273.30 1302.781
1273.40 1301.862
1273.50 1300.943
1273.60 1300.024
1273.70 1299.105
1273.80 1298.186
1273.90 1297.267
1274.00 1296.348
1274.10 1295.429
1274.20 1294.51
1274.30 1293.591
1274.40 1292.672
1274.50 1291.753
1274.60 1290.834
1274.70 1289.915
1274.80 1288.996
1274.90 1288.077
1275.00 1287.158
1275.10 1286.239
1275.20 1285.32
1275.30 1284.401
1275.40 1283.482
1275.50 1282.487
1275.60 1281.46
1275.70 1280.432
1275.80 1279.405
1275.90 1278.378
1276.00 1277.351
1276.10 1276.323
1276.20 1275.296
1276.30 1274.422
1276.40 1274.927
1276.50 1275.431
1276.60 1275.936
1276.70 1276.441
1276.80 1276.945
1276.90 1277.45
1277.00 1277.954
1277.10 1278.459
1277.20 1278.964
1277.30 1279.468
1277.40 1279.973
1277.50 1280.478
1277.60 1280.982
1277.70 1281.487
1277.80 1281.991
1277.90 1282.496
1278.00 1283.001
1278.10 1283.505
1278.20 1284.01
1278.30 1284.515
1278.40 1285.019
1278.50 1285.524
1278.60 1286.028
1278.70 1286.533
1278.80 1287.038
1278.90 1287.542
1279.00 1288.047
1279.10 1288.552
1279.20 1289.056
1279.30 1289.561
1279.40 1290.065
1279.50 1290.57
1279.60 1291.075
1279.70 1291.579
1279.80 1292.089
1279.90 1292.602
1280.00 1293.116
1280.10 1293.629
1280.20 1294.142
1280.30 1294.656
1280.40 1295.169
1280.50 1295.682
1280.60 1296.196
1280.70 1296.12
1280.80 1296.044
1280.90 1295.968
1281.00 1295.893
1281.10 1295.817
1281.20 1295.741
1281.30 1295.665
1281.40 1295.589
1281.50 1295.514
1281.60 1295.438
1281.70 1295.362
1281.80 1295.286
1281.90 1295.21
1282.00 1295.135
1282.10 1295.059
1282.20 1294.983
1282.30 1294.907
1282.40 1294.831
1282.50 1294.756
1282.60 1294.68
1282.70 1294.604
1282.80 1294.528
1282.90 1294.452
1283.00 1294.377
1283.10 1294.301
1283.20 1294.225
1283.30 1294.149
1283.40 1294.073
1283.50 1293.998
1283.60 1293.922
1283.70 1293.846
1283.80 1293.77
1283.90 1293.695
1284.00 1293.619
1284.10 1293.568
1284.20 1293.554
1284.30 1293.54
1284.40 1293.526
1284.50 1293.512
1284.60 1293.498
1284.70 1293.484
1284.80 1293.47
1284.90 1293.456
1285.00 1293.684
1285.10 1293.973
1285.20 1294.262
1285.30 1294.55
1285.40 1294.839
1285.50 1295.128
1285.60 1295.417
1285.70 1295.705
1285.80 1295.994
1285.90 1296.283
1286.00 1296.572
1286.10 1296.86
1286.20 1297.149
1286.30 1297.438
1286.40 1297.727
1286.50 1298.015
1286.60 1298.304
1286.70 1298.593
1286.80 1298.881
1286.90 1299.17
1287.00 1299.459
1287.10 1299.748
1287.20 1300.036
1287.30 1300.325
1287.40 1300.614
1287.50 1300.903
1287.60 1301.191
1287.70 1301.48
1287.80 1301.769
1287.90 1302.058
1288.00 1302.346
1288.10 1302.635
1288.20 1302.924
1288.30 1303.212
1288.40 1303.494
1288.50 1303.746
1288.60 1303.999
1288.70 1304.251
1288.80 1304.503
1288.90 1304.756
1289.00 1305.008
1289.10 1305.26
1289.20 1305.513
1289.30 1305.545
1289.40 1305.431
1289.50 1305.317
1289.60 1305.203
1289.70 1305.088
1289.80 1304.974
1289.90 1304.86
1290.00 1304.746
1290.10 1304.632
1290.20 1304.518
1290.30 1304.403
1290.40 1304.289
1290.50 1304.175
1290.60 1304.061
1290.70 1303.947
1290.80 1303.833
1290.90 1303.718
1291.00 1303.604
1291.10 1303.49
1291.20 1303.376
1291.30 1303.262
1291.40 1303.147
1291.50 1303.033
1291.60 1302.919
1291.70 1302.805
1291.80 1302.691
1291.90 1302.577
1292.00 1302.462
1292.10 1302.348
1292.20 1302.234
1292.30 1302.12
1292.40 1302.006
1292.50 1301.892
1292.60 1301.777
1292.70 1301.663
1292.80 1301.532
1292.90 1301.4
1293.00 1301.269
1293.10 1301.138
1293.20 1301.006
1293.30 1300.875
1293.40 1300.744
1293.50 1300.612
1293.60 1300.491
1293.70 1300.386
1293.80 1300.28
1293.90 1300.174
1294.00 1300.069
1294.10 1299.963
1294.20 1299.857
1294.30 1299.752
1294.40 1299.646
1294.50 1299.541
1294.60 1299.435
1294.70 1299.329
1294.80 1299.224
1294.90 1299.118
1295.00 1299.012
1295.10 1298.907
1295.20 1298.801
1295.30 1298.696
1295.40 1298.59
1295.50 1298.484
1295.60 1298.379
1295.70 1298.273
1295.80 1298.167
1295.90 1298.062
1296.00 1297.956
1296.10 1297.851
1296.20 1297.745
1296.30 1297.639
1296.40 1297.534
1296.50 1297.428
1296.60 1297.323
1296.70 1297.217
1296.80 1297.111
1296.90 1297.006
1297.00 1296.9
1297.10 1296.748
1297.20 1296.585
1297.30 1296.421
1297.40 1296.258
1297.50 1296.094
1297.60 1295.931
1297.70 1295.767
1297.80 1295.604
1297.90 1295.416
1298.00 1295.13
1298.10 1294.844
1298.20 1294.558
1298.30 1294.273
1298.40 1293.987
1298.50 1293.701
1298.60 1293.415
1298.70 1293.13
1298.80 1292.844
1298.90 1292.558
1299.00 1292.272
1299.10 1291.987
1299.20 1291.701
1299.30 1291.415
1299.40 1291.129
1299.50 1290.843
1299.60 1290.558
1299.70 1290.272
1299.80 1289.986
1299.90 1289.7
