# Version 2.1 - nm, norm@500 to 1, cut digits
# Wavelength(nm)  Flambda(ergs/cm^s/s/nm)
300.00 3.403487e-95
300.10 3.403487e-95
300.20 3.403487e-95
300.30 3.403487e-95
300.40 3.403487e-95
300.50 3.403487e-95
300.60 3.403487e-95
300.70 3.403487e-95
300.80 3.403487e-95
300.90 3.403487e-95
301.00 3.403487e-95
301.10 3.403487e-95
301.20 3.403487e-95
301.30 3.403487e-95
301.40 3.403487e-95
301.50 3.403487e-95
301.60 3.403487e-95
301.70 3.403487e-95
301.80 3.403487e-95
301.90 3.403487e-95
302.00 3.403487e-95
302.10 3.403487e-95
302.20 3.403487e-95
302.30 3.403487e-95
302.40 3.403487e-95
302.50 3.403487e-95
302.60 3.403487e-95
302.70 3.403487e-95
302.80 3.403487e-95
302.90 3.403487e-95
303.00 3.403487e-95
303.10 3.403487e-95
303.20 3.403487e-95
303.30 3.403487e-95
303.40 3.403487e-95
303.50 3.403487e-95
303.60 3.403487e-95
303.70 3.403487e-95
303.80 3.403487e-95
303.90 3.403487e-95
304.00 3.403487e-95
304.10 3.403487e-95
304.20 3.403487e-95
304.30 3.403487e-95
304.40 3.403487e-95
304.50 3.403487e-95
304.60 3.403487e-95
304.70 3.403487e-95
304.80 3.403487e-95
304.90 3.403487e-95
305.00 3.403487e-95
305.10 3.403487e-95
305.20 3.403487e-95
305.30 3.403487e-95
305.40 3.403487e-95
305.50 3.403487e-95
305.60 3.403487e-95
305.70 3.403487e-95
305.80 3.403487e-95
305.90 3.403487e-95
306.00 3.403487e-95
306.10 3.403487e-95
306.20 3.403487e-95
306.30 3.403487e-95
306.40 3.403487e-95
306.50 3.403487e-95
306.60 3.403487e-95
306.70 3.403487e-95
306.80 3.403487e-95
306.90 3.403487e-95
307.00 3.403487e-95
307.10 3.403487e-95
307.20 3.403487e-95
307.30 3.403487e-95
307.40 3.403487e-95
307.50 3.403487e-95
307.60 3.403487e-95
307.70 3.403487e-95
307.80 3.403487e-95
307.90 3.403487e-95
308.00 3.403487e-95
308.10 3.403487e-95
308.20 3.403487e-95
308.30 3.403487e-95
308.40 3.403487e-95
308.50 3.403487e-95
308.60 3.403487e-95
308.70 3.403487e-95
308.80 3.403487e-95
308.90 3.403487e-95
309.00 3.403487e-95
309.10 3.403487e-95
309.20 3.403487e-95
309.30 3.403487e-95
309.40 3.403487e-95
309.50 3.403487e-95
309.60 3.403487e-95
309.70 3.403487e-95
309.80 3.403487e-95
309.90 3.403487e-95
310.00 3.403487e-95
310.10 3.403487e-95
310.20 3.403487e-95
310.30 3.403487e-95
310.40 3.403487e-95
310.50 3.403487e-95
310.60 3.403487e-95
310.70 3.403487e-95
310.80 3.403487e-95
310.90 3.403487e-95
311.00 3.403487e-95
311.10 3.403487e-95
311.20 3.403487e-95
311.30 3.403487e-95
311.40 3.403487e-95
311.50 3.403487e-95
311.60 3.403487e-95
311.70 3.403487e-95
311.80 3.403487e-95
311.90 3.403487e-95
312.00 3.403487e-95
312.10 3.403487e-95
312.20 3.403487e-95
312.30 3.403487e-95
312.40 3.403487e-95
312.50 3.403487e-95
312.60 3.403487e-95
312.70 3.403487e-95
312.80 3.403487e-95
312.90 3.403487e-95
313.00 3.403487e-95
313.10 3.403487e-95
313.20 3.403487e-95
313.30 3.403487e-95
313.40 3.403487e-95
313.50 3.403487e-95
313.60 3.403487e-95
313.70 3.403487e-95
313.80 3.403487e-95
313.90 3.403487e-95
314.00 3.403487e-95
314.10 3.403487e-95
314.20 3.403487e-95
314.30 3.403487e-95
314.40 3.403487e-95
314.50 3.403487e-95
314.60 3.403487e-95
314.70 3.403487e-95
314.80 3.403487e-95
314.90 3.403487e-95
315.00 3.403487e-95
315.10 3.403487e-95
315.20 3.403487e-95
315.30 3.403487e-95
315.40 3.403487e-95
315.50 3.403487e-95
315.60 3.403487e-95
315.70 3.403487e-95
315.80 3.403487e-95
315.90 3.403487e-95
316.00 3.403487e-95
316.10 3.403487e-95
316.20 3.403487e-95
316.30 3.403487e-95
316.40 3.403487e-95
316.50 3.403487e-95
316.60 3.403487e-95
316.70 3.403487e-95
316.80 3.403487e-95
316.90 3.403487e-95
317.00 3.403487e-95
317.10 3.403487e-95
317.20 3.403487e-95
317.30 3.403487e-95
317.40 3.403487e-95
317.50 3.403487e-95
317.60 3.403487e-95
317.70 3.403487e-95
317.80 3.403487e-95
317.90 3.403487e-95
318.00 3.403487e-95
318.10 3.403487e-95
318.20 3.403487e-95
318.30 3.403487e-95
318.40 3.403487e-95
318.50 3.403487e-95
318.60 3.403487e-95
318.70 3.403487e-95
318.80 3.403487e-95
318.90 3.403487e-95
319.00 3.403487e-95
319.10 3.403487e-95
319.20 3.403487e-95
319.30 3.403487e-95
319.40 3.403487e-95
319.50 3.403487e-95
319.60 3.403487e-95
319.70 3.403487e-95
319.80 3.403487e-95
319.90 3.403487e-95
320.00 3.403487e-95
320.10 3.403487e-95
320.20 3.403487e-95
320.30 3.403487e-95
320.40 3.403487e-95
320.50 3.403487e-95
320.60 3.403487e-95
320.70 3.403487e-95
320.80 3.403487e-95
320.90 3.403487e-95
321.00 3.403487e-95
321.10 3.403487e-95
321.20 3.403487e-95
321.30 3.403487e-95
321.40 3.403487e-95
321.50 3.403487e-95
321.60 3.403487e-95
321.70 3.403487e-95
321.80 3.403487e-95
321.90 3.403487e-95
322.00 3.403487e-95
322.10 3.403487e-95
322.20 3.403487e-95
322.30 3.403487e-95
322.40 3.403487e-95
322.50 3.403487e-95
322.60 3.403487e-95
322.70 3.403487e-95
322.80 3.403487e-95
322.90 3.403487e-95
323.00 3.403487e-95
323.10 3.403487e-95
323.20 3.403487e-95
323.30 3.403487e-95
323.40 3.403487e-95
323.50 3.403487e-95
323.60 3.403487e-95
323.70 3.403487e-95
323.80 3.403487e-95
323.90 3.403487e-95
324.00 3.403487e-95
324.10 3.403487e-95
324.20 3.403487e-95
324.30 3.403487e-95
324.40 3.403487e-95
324.50 3.403487e-95
324.60 3.403487e-95
324.70 3.403487e-95
324.80 3.403487e-95
324.90 3.403487e-95
325.00 3.403487e-95
325.10 3.403487e-95
325.20 3.403487e-95
325.30 3.403487e-95
325.40 3.403487e-95
325.50 3.403487e-95
325.60 3.403487e-95
325.70 3.403487e-95
325.80 3.403487e-95
325.90 3.403487e-95
326.00 3.403487e-95
326.10 3.403487e-95
326.20 3.403487e-95
326.30 3.403487e-95
326.40 3.403487e-95
326.50 3.403487e-95
326.60 3.403487e-95
326.70 3.403487e-95
326.80 3.403487e-95
326.90 3.403487e-95
327.00 3.403487e-95
327.10 3.403487e-95
327.20 3.403487e-95
327.30 3.403487e-95
327.40 3.403487e-95
327.50 3.403487e-95
327.60 3.403487e-95
327.70 3.403487e-95
327.80 3.403487e-95
327.90 3.403487e-95
328.00 3.403487e-95
328.10 3.403487e-95
328.20 3.403487e-95
328.30 3.403487e-95
328.40 3.403487e-95
328.50 3.403487e-95
328.60 3.403487e-95
328.70 3.403487e-95
328.80 3.403487e-95
328.90 3.403487e-95
329.00 3.403487e-95
329.10 3.403487e-95
329.20 3.403487e-95
329.30 3.403487e-95
329.40 3.403487e-95
329.50 3.403487e-95
329.60 3.403487e-95
329.70 3.403487e-95
329.80 3.403487e-95
329.90 3.403487e-95
330.00 3.403487e-95
330.10 3.403487e-95
330.20 3.403487e-95
330.30 3.403487e-95
330.40 3.403487e-95
330.50 3.403487e-95
330.60 3.403487e-95
330.70 3.403487e-95
330.80 3.403487e-95
330.90 3.403487e-95
331.00 3.403487e-95
331.10 3.403487e-95
331.20 3.403487e-95
331.30 3.403487e-95
331.40 3.403487e-95
331.50 3.403487e-95
331.60 3.403487e-95
331.70 3.403487e-95
331.80 3.403487e-95
331.90 3.403487e-95
332.00 3.403487e-95
332.10 3.403487e-95
332.20 3.403487e-95
332.30 3.403487e-95
332.40 3.403487e-95
332.50 3.403487e-95
332.60 3.403487e-95
332.70 3.403487e-95
332.80 3.403487e-95
332.90 3.403487e-95
333.00 3.403487e-95
333.10 3.403487e-95
333.20 3.403487e-95
333.30 3.403487e-95
333.40 3.403487e-95
333.50 3.403487e-95
333.60 3.403487e-95
333.70 3.403487e-95
333.80 3.403487e-95
333.90 3.403487e-95
334.00 3.403487e-95
334.10 3.403487e-95
334.20 3.403487e-95
334.30 3.403487e-95
334.40 3.403487e-95
334.50 3.403487e-95
334.60 3.403487e-95
334.70 3.403487e-95
334.80 3.403487e-95
334.90 3.403487e-95
335.00 3.403487e-95
335.10 3.403487e-95
335.20 3.403487e-95
335.30 3.403487e-95
335.40 3.403487e-95
335.50 3.403487e-95
335.60 3.403487e-95
335.70 3.403487e-95
335.80 3.403487e-95
335.90 3.403487e-95
336.00 3.403487e-95
336.10 3.403487e-95
336.20 3.403487e-95
336.30 3.403487e-95
336.40 3.403487e-95
336.50 3.403487e-95
336.60 3.403487e-95
336.70 3.403487e-95
336.80 3.403487e-95
336.90 3.403487e-95
337.00 3.403487e-95
337.10 3.403487e-95
337.20 3.403487e-95
337.30 3.403487e-95
337.40 3.403487e-95
337.50 3.403487e-95
337.60 3.403487e-95
337.70 3.403487e-95
337.80 3.403487e-95
337.90 3.403487e-95
338.00 3.403487e-95
338.10 3.403487e-95
338.20 3.403487e-95
338.30 3.403487e-95
338.40 3.403487e-95
338.50 3.403487e-95
338.60 3.403487e-95
338.70 3.403487e-95
338.80 3.403487e-95
338.90 3.403487e-95
339.00 3.403487e-95
339.10 3.403487e-95
339.20 3.403487e-95
339.30 3.403487e-95
339.40 3.403487e-95
339.50 3.403487e-95
339.60 3.403487e-95
339.70 3.403487e-95
339.80 3.403487e-95
339.90 3.403487e-95
340.00 3.403487e-95
340.10 3.403487e-95
340.20 3.403487e-95
340.30 3.403487e-95
340.40 3.403487e-95
340.50 3.403487e-95
340.60 3.403487e-95
340.70 3.403487e-95
340.80 3.403487e-95
340.90 3.403487e-95
341.00 3.403487e-95
341.10 3.403487e-95
341.20 3.403487e-95
341.30 3.403487e-95
341.40 3.403487e-95
341.50 3.403487e-95
341.60 3.403487e-95
341.70 3.403487e-95
341.80 3.403487e-95
341.90 3.403487e-95
342.00 3.403487e-95
342.10 3.403487e-95
342.20 3.403487e-95
342.30 3.403487e-95
342.40 3.403487e-95
342.50 3.403487e-95
342.60 3.403487e-95
342.70 3.403487e-95
342.80 3.403487e-95
342.90 3.403487e-95
343.00 3.403487e-95
343.10 3.403487e-95
343.20 3.403487e-95
343.30 3.403487e-95
343.40 3.403487e-95
343.50 3.403487e-95
343.60 3.403487e-95
343.70 3.403487e-95
343.80 3.403487e-95
343.90 3.403487e-95
344.00 3.403487e-95
344.10 3.403487e-95
344.20 3.403487e-95
344.30 3.403487e-95
344.40 3.403487e-95
344.50 3.403487e-95
344.60 3.403487e-95
344.70 3.403487e-95
344.80 3.403487e-95
344.90 3.403487e-95
345.00 3.403487e-95
345.10 3.403487e-95
345.20 3.403487e-95
345.30 3.403487e-95
345.40 3.403487e-95
345.50 3.403487e-95
345.60 3.403487e-95
345.70 3.403487e-95
345.80 3.403487e-95
345.90 3.403487e-95
346.00 3.403487e-95
346.10 3.403487e-95
346.20 3.403487e-95
346.30 3.403487e-95
346.40 3.403487e-95
346.50 3.403487e-95
346.60 3.403487e-95
346.70 3.403487e-95
346.80 3.403487e-95
346.90 3.403487e-95
347.00 3.403487e-95
347.10 3.403487e-95
347.20 3.403487e-95
347.30 3.403487e-95
347.40 3.403487e-95
347.50 3.403487e-95
347.60 3.403487e-95
347.70 3.403487e-95
347.80 3.403487e-95
347.90 3.403487e-95
348.00 3.403487e-95
348.10 3.403487e-95
348.20 3.403487e-95
348.30 3.403487e-95
348.40 3.403487e-95
348.50 3.403487e-95
348.60 3.403487e-95
348.70 3.403487e-95
348.80 3.403487e-95
348.90 3.403487e-95
349.00 3.403487e-95
349.10 3.403487e-95
349.20 3.403487e-95
349.30 3.403487e-95
349.40 3.403487e-95
349.50 3.403487e-95
349.60 3.403487e-95
349.70 3.403487e-95
349.80 3.403487e-95
349.90 3.403487e-95
350.00 3.403487e-95
350.10 3.403487e-95
350.20 3.403487e-95
350.30 3.403487e-95
350.40 3.403487e-95
350.50 3.403487e-95
350.60 3.403487e-95
350.70 3.403487e-95
350.80 3.403487e-95
350.90 3.403487e-95
351.00 3.403487e-95
351.10 3.403487e-95
351.20 3.403487e-95
351.30 3.403487e-95
351.40 3.403487e-95
351.50 3.403487e-95
351.60 3.403487e-95
351.70 3.403487e-95
351.80 3.403487e-95
351.90 3.403487e-95
352.00 3.403487e-95
352.10 3.403487e-95
352.20 3.403487e-95
352.30 3.403487e-95
352.40 3.403487e-95
352.50 3.403487e-95
352.60 3.403487e-95
352.70 3.403487e-95
352.80 3.403487e-95
352.90 3.403487e-95
353.00 3.403487e-95
353.10 3.403487e-95
353.20 3.403487e-95
353.30 3.403487e-95
353.40 3.403487e-95
353.50 3.403487e-95
353.60 3.403487e-95
353.70 3.403487e-95
353.80 3.403487e-95
353.90 3.403487e-95
354.00 3.403487e-95
354.10 3.403487e-95
354.20 3.403487e-95
354.30 3.403487e-95
354.40 3.403487e-95
354.50 3.403487e-95
354.60 3.403487e-95
354.70 3.403487e-95
354.80 3.403487e-95
354.90 3.403487e-95
355.00 3.403487e-95
355.10 3.403487e-95
355.20 3.403487e-95
355.30 3.403487e-95
355.40 3.403487e-95
355.50 3.403487e-95
355.60 3.403487e-95
355.70 3.403487e-95
355.80 3.403487e-95
355.90 3.403487e-95
356.00 3.403487e-95
356.10 3.403487e-95
356.20 3.403487e-95
356.30 3.403487e-95
356.40 3.403487e-95
356.50 3.403487e-95
356.60 3.403487e-95
356.70 3.403487e-95
356.80 3.403487e-95
356.90 3.403487e-95
357.00 3.403487e-95
357.10 3.403487e-95
357.20 3.403487e-95
357.30 3.403487e-95
357.40 3.403487e-95
357.50 3.403487e-95
357.60 3.403487e-95
357.70 3.403487e-95
357.80 3.403487e-95
357.90 3.403487e-95
358.00 3.403487e-95
358.10 3.403487e-95
358.20 3.403487e-95
358.30 3.403487e-95
358.40 3.403487e-95
358.50 3.403487e-95
358.60 3.403487e-95
358.70 3.403487e-95
358.80 3.403487e-95
358.90 3.403487e-95
359.00 3.403487e-95
359.10 3.403487e-95
359.20 3.403487e-95
359.30 3.403487e-95
359.40 3.403487e-95
359.50 3.403487e-95
359.60 3.403487e-95
359.70 3.403487e-95
359.80 3.403487e-95
359.90 3.403487e-95
360.00 3.403487e-95
360.10 3.403487e-95
360.20 3.403487e-95
360.30 3.403487e-95
360.40 3.403487e-95
360.50 3.403487e-95
360.60 3.403487e-95
360.70 3.403487e-95
360.80 3.403487e-95
360.90 3.403487e-95
361.00 3.403487e-95
361.10 3.403487e-95
361.20 3.403487e-95
361.30 3.403487e-95
361.40 3.403487e-95
361.50 3.403487e-95
361.60 3.403487e-95
361.70 3.403487e-95
361.80 3.403487e-95
361.90 3.403487e-95
362.00 3.403487e-95
362.10 3.403487e-95
362.20 3.403487e-95
362.30 3.403487e-95
362.40 3.403487e-95
362.50 3.403487e-95
362.60 3.403487e-95
362.70 3.403487e-95
362.80 3.403487e-95
362.90 3.403487e-95
363.00 3.403487e-95
363.10 3.403487e-95
363.20 3.403487e-95
363.30 3.403487e-95
363.40 3.403487e-95
363.50 3.403487e-95
363.60 3.403487e-95
363.70 3.403487e-95
363.80 3.403487e-95
363.90 3.403487e-95
364.00 3.403487e-95
364.10 3.403487e-95
364.20 3.403487e-95
364.30 3.403487e-95
364.40 3.403487e-95
364.50 3.403487e-95
364.60 3.403487e-95
364.70 3.403487e-95
364.80 3.403487e-95
364.90 3.403487e-95
365.00 3.403487e-95
365.10 3.403487e-95
365.20 3.403487e-95
365.30 3.403487e-95
365.40 3.403487e-95
365.50 3.403487e-95
365.60 3.403487e-95
365.70 3.403487e-95
365.80 3.403487e-95
365.90 3.403487e-95
366.00 3.403487e-95
366.10 3.403487e-95
366.20 3.403487e-95
366.30 3.403487e-95
366.40 3.403487e-95
366.50 3.403487e-95
366.60 3.403487e-95
366.70 3.403487e-95
366.80 3.403487e-95
366.90 3.403487e-95
367.00 3.403487e-95
367.10 3.403487e-95
367.20 3.403487e-95
367.30 3.403487e-95
367.40 3.403487e-95
367.50 3.403487e-95
367.60 3.403487e-95
367.70 3.403487e-95
367.80 3.403487e-95
367.90 3.403487e-95
368.00 3.403487e-95
368.10 3.403487e-95
368.20 3.403487e-95
368.30 3.403487e-95
368.40 3.403487e-95
368.50 3.403487e-95
368.60 3.403487e-95
368.70 3.403487e-95
368.80 3.403487e-95
368.90 3.403487e-95
369.00 3.403487e-95
369.10 3.403487e-95
369.20 3.403487e-95
369.30 3.403487e-95
369.40 3.403487e-95
369.50 3.403487e-95
369.60 3.403487e-95
369.70 3.403487e-95
369.80 3.403487e-95
369.90 3.403487e-95
370.00 3.403487e-95
370.10 3.403487e-95
370.20 3.403487e-95
370.30 3.403487e-95
370.40 3.403487e-95
370.50 3.403487e-95
370.60 3.403487e-95
370.70 3.403487e-95
370.80 3.403487e-95
370.90 3.403487e-95
371.00 3.403487e-95
371.10 3.403487e-95
371.20 3.403487e-95
371.30 3.403487e-95
371.40 3.403487e-95
371.50 3.403487e-95
371.60 3.403487e-95
371.70 3.403487e-95
371.80 3.403487e-95
371.90 3.403487e-95
372.00 3.403487e-95
372.10 3.403487e-95
372.20 3.403487e-95
372.30 3.403487e-95
372.40 3.403487e-95
372.50 3.403487e-95
372.60 3.403487e-95
372.70 3.403487e-95
372.80 3.403487e-95
372.90 3.403487e-95
373.00 3.403487e-95
373.10 3.403487e-95
373.20 3.403487e-95
373.30 3.403487e-95
373.40 3.403487e-95
373.50 3.403487e-95
373.60 3.403487e-95
373.70 3.403487e-95
373.80 3.403487e-95
373.90 3.403487e-95
374.00 3.403487e-95
374.10 3.403487e-95
374.20 3.403487e-95
374.30 3.403487e-95
374.40 3.403487e-95
374.50 3.403487e-95
374.60 3.403487e-95
374.70 3.403487e-95
374.80 3.403487e-95
374.90 3.403487e-95
375.00 3.403487e-95
375.10 3.403487e-95
375.20 3.403487e-95
375.30 3.403487e-95
375.40 3.403487e-95
375.50 3.403487e-95
375.60 3.403487e-95
375.70 3.403487e-95
375.80 3.403487e-95
375.90 3.403487e-95
376.00 3.403487e-95
376.10 3.403487e-95
376.20 3.403487e-95
376.30 3.403487e-95
376.40 3.403487e-95
376.50 3.403487e-95
376.60 3.403487e-95
376.70 3.403487e-95
376.80 3.403487e-95
376.90 3.403487e-95
377.00 3.403487e-95
377.10 3.403487e-95
377.20 3.403487e-95
377.30 3.403487e-95
377.40 3.403487e-95
377.50 3.403487e-95
377.60 3.403487e-95
377.70 3.403487e-95
377.80 3.403487e-95
377.90 3.403487e-95
378.00 3.403487e-95
378.10 3.403487e-95
378.20 3.403487e-95
378.30 3.403487e-95
378.40 3.403487e-95
378.50 3.403487e-95
378.60 3.403487e-95
378.70 3.403487e-95
378.80 3.403487e-95
378.90 3.403487e-95
379.00 3.403487e-95
379.10 3.403487e-95
379.20 3.403487e-95
379.30 3.403487e-95
379.40 3.403487e-95
379.50 3.403487e-95
379.60 3.403487e-95
379.70 3.403487e-95
379.80 3.403487e-95
379.90 3.403487e-95
380.00 3.403487e-95
380.10 3.403487e-95
380.20 3.403487e-95
380.30 3.403487e-95
380.40 3.403487e-95
380.50 3.403487e-95
380.60 3.403487e-95
380.70 3.403487e-95
380.80 3.403487e-95
380.90 3.403487e-95
381.00 3.403487e-95
381.10 3.403487e-95
381.20 3.403487e-95
381.30 3.403487e-95
381.40 3.403487e-95
381.50 3.403487e-95
381.60 3.403487e-95
381.70 3.403487e-95
381.80 3.403487e-95
381.90 3.403487e-95
382.00 3.403487e-95
382.10 3.403487e-95
382.20 3.403487e-95
382.30 3.403487e-95
382.40 3.403487e-95
382.50 3.403487e-95
382.60 3.403487e-95
382.70 3.403487e-95
382.80 3.403487e-95
382.90 3.403487e-95
383.00 3.403487e-95
383.10 3.403487e-95
383.20 3.403487e-95
383.30 3.403487e-95
383.40 3.403487e-95
383.50 3.403487e-95
383.60 3.403487e-95
383.70 3.403487e-95
383.80 3.403487e-95
383.90 3.403487e-95
384.00 3.403487e-95
384.10 3.403487e-95
384.20 3.403487e-95
384.30 3.403487e-95
384.40 3.403487e-95
384.50 3.403487e-95
384.60 3.403487e-95
384.70 3.403487e-95
384.80 3.403487e-95
384.90 3.403487e-95
385.00 3.403487e-95
385.10 3.403487e-95
385.20 3.403487e-95
385.30 3.403487e-95
385.40 3.403487e-95
385.50 3.403487e-95
385.60 3.403487e-95
385.70 3.403487e-95
385.80 3.403487e-95
385.90 3.403487e-95
386.00 3.403487e-95
386.10 3.403487e-95
386.20 3.403487e-95
386.30 3.403487e-95
386.40 3.403487e-95
386.50 3.403487e-95
386.60 3.403487e-95
386.70 3.403487e-95
386.80 3.403487e-95
386.90 3.403487e-95
387.00 3.403487e-95
387.10 3.403487e-95
387.20 3.403487e-95
387.30 3.403487e-95
387.40 3.403487e-95
387.50 3.403487e-95
387.60 3.403487e-95
387.70 3.403487e-95
387.80 3.403487e-95
387.90 3.403487e-95
388.00 3.403487e-95
388.10 3.403487e-95
388.20 3.403487e-95
388.30 3.403487e-95
388.40 3.403487e-95
388.50 3.403487e-95
388.60 3.403487e-95
388.70 3.403487e-95
388.80 3.403487e-95
388.90 3.403487e-95
389.00 3.403487e-95
389.10 3.403487e-95
389.20 3.403487e-95
389.30 3.403487e-95
389.40 3.403487e-95
389.50 3.403487e-95
389.60 3.403487e-95
389.70 3.403487e-95
389.80 3.403487e-95
389.90 3.403487e-95
390.00 3.403487e-95
390.10 3.403487e-95
390.20 3.403487e-95
390.30 3.403487e-95
390.40 3.403487e-95
390.50 3.403487e-95
390.60 3.403487e-95
390.70 3.403487e-95
390.80 3.403487e-95
390.90 3.403487e-95
391.00 3.403487e-95
391.10 3.403487e-95
391.20 3.403487e-95
391.30 3.403487e-95
391.40 3.403487e-95
391.50 3.403487e-95
391.60 3.403487e-95
391.70 3.403487e-95
391.80 3.403487e-95
391.90 3.403487e-95
392.00 3.403487e-95
392.10 3.403487e-95
392.20 3.403487e-95
392.30 3.403487e-95
392.40 3.403487e-95
392.50 3.403487e-95
392.60 3.403487e-95
392.70 3.403487e-95
392.80 3.403487e-95
392.90 3.403487e-95
393.00 3.403487e-95
393.10 3.403487e-95
393.20 3.403487e-95
393.30 3.403487e-95
393.40 3.403487e-95
393.50 3.403487e-95
393.60 3.403487e-95
393.70 3.403487e-95
393.80 3.403487e-95
393.90 3.403487e-95
394.00 3.403487e-95
394.10 3.403487e-95
394.20 3.403487e-95
394.30 3.403487e-95
394.40 3.403487e-95
394.50 3.403487e-95
394.60 3.403487e-95
394.70 3.403487e-95
394.80 3.403487e-95
394.90 3.403487e-95
395.00 3.369453e-95
395.10 3.335418e-95
395.20 3.301383e-95
395.30 3.267348e-95
395.40 3.233313e-95
395.50 3.199278e-95
395.60 3.165243e-95
395.70 3.131208e-95
395.80 3.097174e-95
395.90 3.063139e-95
396.00 3.029104e-95
396.10 0.01096804
396.20 0.05178828
396.30 0.1044567
396.40 0.1524064
396.50 0.1887081
396.60 0.2136763
396.70 0.2296469
396.80 0.2360361
396.90 0.2360361
397.00 0.2360361
397.10 0.2360361
397.20 0.2360361
397.30 0.2360361
397.40 0.2360361
397.50 0.2360361
397.60 0.2360361
397.70 0.2360361
397.80 0.2805315
397.90 0.3960881
398.00 0.5808753
398.10 0.8191176
398.20 1.088902
398.30 1.366391
398.40 1.625922
398.50 1.845274
398.60 2.010246
398.70 2.12239
398.80 2.198611
398.90 2.258497
399.00 2.320439
399.10 2.397701
399.20 2.490989
399.30 2.592688
399.40 2.697027
399.50 2.80691
399.60 2.929496
399.70 3.069425
399.80 3.227987
399.90 3.407123
400.00 3.60896
400.10 3.826239
400.20 4.043751
400.30 4.24624
400.40 4.42143
400.50 4.562447
400.60 4.66818
400.70 4.743856
400.80 4.796489
400.90 4.823877
401.00 4.823877
401.10 4.823877
401.20 4.823877
401.30 4.823877
401.40 4.823877
401.50 4.823877
401.60 4.823877
401.70 4.823877
401.80 4.823877
401.90 4.823877
402.00 4.823877
402.10 4.823877
402.20 4.823877
402.30 4.823877
402.40 4.823877
402.50 4.823877
402.60 4.823877
402.70 4.893029
402.80 5.028775
402.90 5.215584
403.00 5.424145
403.10 5.61898
403.20 5.772428
403.30 5.867683
403.40 5.898955
403.50 5.898955
403.60 5.898955
403.70 5.898955
403.80 5.898955
403.90 5.898955
404.00 5.898955
404.10 5.898955
404.20 5.898955
404.30 5.898955
404.40 5.898955
404.50 5.898955
404.60 5.898955
404.70 5.898955
404.80 5.898955
404.90 5.898955
405.00 5.898955
405.10 5.898955
405.20 5.898955
405.30 5.898955
405.40 5.898955
405.50 5.901089
405.60 5.905185
405.70 5.907475
405.80 5.908563
405.90 5.912972
406.00 5.928388
406.10 5.949248
406.20 5.958821
406.30 5.973586
406.40 6.004967
406.50 6.052143
406.60 6.106314
406.70 6.157909
406.80 6.205566
406.90 6.251703
407.00 6.299356
407.10 6.357714
407.20 6.433843
407.30 6.52706
407.40 6.629119
407.50 6.729883
407.60 6.819436
407.70 6.890377
407.80 6.894529
407.90 6.805955
408.00 6.630585
408.10 6.392342
408.20 6.122558
408.30 5.845069
408.40 5.585538
408.50 5.366186
408.60 5.201214
408.70 5.08907
408.80 5.0186
408.90 4.97201
409.00 4.929311
409.10 4.874731
409.20 4.804855
409.30 4.718518
409.40 4.61418
409.50 4.504296
409.60 4.381711
409.70 4.241781
409.80 4.083219
409.90 3.904083
410.00 3.702246
410.10 3.484967
410.20 3.284069
410.30 3.133028
410.40 3.038646
410.50 2.996145
410.60 2.99117
410.70 3.008924
410.80 3.041263
410.90 3.088431
411.00 3.148661
411.10 3.192623
411.20 3.221759
411.30 3.237588
411.40 3.241251
411.50 3.241251
411.60 3.241251
411.70 3.241251
411.80 3.241251
411.90 3.241251
412.00 3.241251
412.10 3.241251
412.20 3.241251
412.30 3.241251
412.40 3.241251
412.50 3.241251
412.60 3.241251
412.70 3.172099
412.80 3.036353
412.90 2.849545
413.00 2.640983
413.10 2.446148
413.20 2.297269
413.30 2.214226
413.40 2.203642
413.50 2.232331
413.60 2.266943
413.70 2.303847
413.80 2.338864
413.90 2.36853
414.00 2.390756
414.10 2.405106
414.20 2.41274
414.30 2.417166
414.40 2.423431
414.50 2.435967
414.60 2.455882
414.70 2.481042
414.80 2.508503
414.90 2.534867
415.00 2.556674
415.10 2.571575
415.20 2.578974
415.30 2.579418
415.40 2.579418
415.50 2.58133
415.60 2.59383
415.70 2.6239
415.80 2.670738
415.90 2.727
416.00 2.778751
416.10 2.812333
416.20 2.81795
416.30 2.791567
416.40 2.738774
416.50 2.673084
416.60 2.610022
416.70 2.564119
416.80 2.540284
416.90 2.530914
417.00 2.523552
417.10 2.504944
417.20 2.464573
417.30 2.401733
417.40 2.325443
417.50 2.248128
417.60 2.178133
417.70 2.11789
417.80 2.069243
417.90 2.042261
418.00 2.032844
418.10 2.032844
418.20 2.032844
418.30 2.032844
418.40 2.032844
418.50 2.032844
418.60 2.032844
418.70 2.059057
418.80 2.099684
418.90 2.14141
419.00 2.176967
419.10 2.203959
419.20 2.221357
419.30 2.236213
419.40 2.259851
419.50 2.285823
419.60 2.319409
419.70 2.358913
419.80 2.399476
419.90 2.436339
420.00 2.461837
420.10 2.464492
420.20 2.447879
420.30 2.39643
420.40 2.315623
420.50 2.217107
420.60 2.116348
420.70 2.022919
420.80 1.937946
420.90 1.86339
421.00 1.803161
421.10 1.759199
421.20 1.730062
421.30 1.714233
421.40 1.71057
421.50 1.71057
421.60 1.71057
421.70 1.71057
421.80 1.722651
421.90 1.747137
422.00 1.784287
422.10 1.832311
422.20 1.888043
422.30 1.946861
422.40 2.003308
422.50 2.052558
422.60 2.093118
422.70 2.127403
422.80 2.159563
422.90 2.194239
423.00 2.235452
423.10 2.283265
423.20 2.329438
423.30 2.366756
423.40 2.39049
423.50 2.398201
423.60 2.390443
423.70 2.371367
423.80 2.347732
423.90 2.326651
424.00 2.312672
424.10 2.306737
424.20 2.307819
424.30 2.312651
424.40 2.316448
424.50 2.315033
424.60 2.307279
424.70 2.294918
424.80 2.280242
424.90 2.265973
425.00 2.257285
425.10 2.259535
425.20 2.271843
425.30 2.28786
425.40 2.294941
425.50 2.290895
425.60 2.274299
425.70 2.241939
425.80 2.194013
425.90 2.133342
426.00 2.066175
426.10 2.013291
426.20 2.000558
426.30 2.030672
426.40 2.092912
426.50 2.165803
426.60 2.229428
426.70 2.267671
426.80 2.271573
426.90 2.24209
427.00 2.201798
427.10 2.162049
427.20 2.126291
427.30 2.095914
427.40 2.070145
427.50 2.046695
427.60 2.027138
427.70 2.016439
427.80 2.016439
427.90 2.016439
428.00 2.026711
428.10 2.051109
428.20 2.091626
428.30 2.147093
428.40 2.213332
428.50 2.284141
428.60 2.352495
428.70 2.386544
428.80 2.389376
428.90 2.37116
429.00 2.341234
429.10 2.307438
429.20 2.278384
429.30 2.258578
429.40 2.244096
429.50 2.225564
429.60 2.196598
429.70 2.15826
429.80 2.117697
429.90 2.080834
430.00 2.055336
430.10 2.052681
430.20 2.052681
430.30 2.052681
430.40 2.052681
430.50 2.052681
430.60 2.052681
430.70 2.052681
430.80 2.052681
430.90 2.052681
431.00 2.052681
431.10 2.052681
431.20 2.052681
431.30 2.052681
431.40 2.052681
431.50 2.052681
431.60 2.052681
431.70 2.062097
431.80 2.057599
431.90 2.040189
432.00 2.012337
432.10 1.977548
432.20 1.939269
432.30 1.901725
432.40 1.869308
432.50 1.8465
432.60 1.835466
432.70 1.834159
432.80 1.838099
432.90 1.841778
433.00 1.839933
433.10 1.83115
433.20 1.821417
433.30 1.819276
433.40 1.830445
433.50 1.85719
433.60 1.898333
433.70 1.949687
433.80 2.004433
433.90 2.055528
434.00 2.102595
434.10 2.151548
434.20 2.206975
434.30 2.270645
434.40 2.342325
434.50 2.418692
434.60 2.490643
434.70 2.546567
434.80 2.578842
434.90 2.58567
435.00 2.572551
435.10 2.5554
435.20 2.535692
435.30 2.519232
435.40 2.51215
435.50 2.51215
435.60 2.51215
435.70 2.51215
435.80 2.51215
435.90 2.51215
436.00 2.51215
436.10 2.499624
436.20 2.456348
436.30 2.385182
436.40 2.296406
436.50 2.208706
436.60 2.137757
436.70 2.09044
436.80 2.070245
436.90 2.076229
437.00 2.087804
437.10 2.096995
437.20 2.102311
437.30 2.102311
437.40 2.102311
437.50 2.102311
437.60 2.102311
437.70 2.102311
437.80 2.102311
437.90 2.102311
438.00 2.099078
438.10 2.092897
438.20 2.076203
438.30 2.040532
438.40 1.979346
438.50 1.908536
438.60 1.840183
438.70 1.779921
438.80 1.730711
438.90 1.693904
439.00 1.669031
439.10 1.653152
439.20 1.641397
439.30 1.649791
439.40 1.685964
439.50 1.727706
439.60 1.753668
439.70 1.752502
439.80 1.752502
439.90 1.752502
440.00 1.752502
440.10 1.752502
440.20 1.752502
440.30 1.752502
440.40 1.752502
440.50 1.752502
440.60 1.752502
440.70 1.752502
440.80 1.752502
440.90 1.752502
441.00 1.752502
441.10 1.752502
441.20 1.752502
441.30 1.752502
441.40 1.752502
441.50 1.752502
441.60 1.752502
441.70 1.743085
441.80 1.735503
441.90 1.728427
442.00 1.719129
442.10 1.705894
442.20 1.688441
442.30 1.667167
442.40 1.643137
442.50 1.616695
442.60 1.587169
442.70 1.554192
442.80 1.518091
442.90 1.479736
443.00 1.440368
443.10 1.401338
443.20 1.36033
443.30 1.312941
443.40 1.257349
443.50 1.194204
443.60 1.126208
443.70 1.057025
443.80 0.990897
443.90 0.9312183
444.00 0.875903
444.10 0.8185355
444.20 0.7543925
444.30 0.6814646
444.40 0.5997219
444.50 0.5122343
444.60 0.4281221
444.70 0.359399
444.80 0.314339
444.90 0.2954166
445.00 0.2954166
445.10 0.3098686
445.20 0.3308719
445.30 0.3476757
445.40 0.3578408
445.50 0.3634952
445.60 0.3664235
445.70 0.3677144
445.80 0.3687219
445.90 0.3701257
446.00 0.3718237
446.10 0.373672
446.20 0.3757623
446.30 0.3785933
446.40 0.3830607
446.50 0.3886358
446.60 0.3957386
446.70 0.4079694
446.80 0.4276181
446.90 0.4547134
447.00 0.4893208
447.10 0.5323225
447.20 0.5842668
447.30 0.6451444
447.40 0.7101445
447.50 0.7815244
447.60 0.8603927
447.70 0.9459731
447.80 1.035609
447.90 1.123899
448.00 1.197098
448.10 1.246059
448.20 1.27404
448.30 1.291339
448.40 1.309658
448.50 1.320467
448.60 1.322311
448.70 1.322311
448.80 1.322311
448.90 1.322311
449.00 1.322311
449.10 1.322311
449.20 1.322311
449.30 1.303504
449.40 1.258175
449.50 1.208994
449.60 1.178411
449.70 1.178411
449.80 1.178411
449.90 1.178411
450.00 1.178411
450.10 1.193311
450.20 1.24321
450.30 1.32453
450.40 1.440602
450.50 1.588545
450.60 1.758526
450.70 1.938792
450.80 2.115556
450.90 2.276104
451.00 2.408225
451.10 2.50241
451.20 2.556909
451.30 2.577525
451.40 2.577525
451.50 2.577525
451.60 2.577525
451.70 2.577525
451.80 2.577525
451.90 2.577525
452.00 2.577525
452.10 2.577525
452.20 2.577525
452.30 2.577525
452.40 2.577525
452.50 2.577525
452.60 2.577525
452.70 2.592335
452.80 2.620745
452.90 2.653792
453.00 2.682996
453.10 2.703205
453.20 2.713433
453.30 2.714752
453.40 2.714752
453.50 2.714752
453.60 2.714752
453.70 2.714752
453.80 2.714752
453.90 2.714752
454.00 2.714752
454.10 2.714752
454.20 2.714752
454.30 2.714752
454.40 2.730536
454.50 2.766537
454.60 2.820758
454.70 2.888764
454.80 2.963526
454.90 3.036659
455.00 3.101176
455.10 3.137498
455.20 3.150199
455.30 3.150921
455.40 3.14699
455.50 3.141336
455.60 3.138407
455.70 3.137117
455.80 3.136109
455.90 3.134705
456.00 3.133007
456.10 3.131159
456.20 3.129069
456.30 3.126238
456.40 3.12177
456.50 3.113216
456.60 3.09736
456.70 3.07254
456.80 3.038973
456.90 2.99861
457.00 2.952428
457.10 2.900236
457.20 2.842976
457.30 2.782098
457.40 2.717098
457.50 2.645718
457.60 2.56685
457.70 2.481269
457.80 2.391634
457.90 2.303343
458.00 2.223105
458.10 2.155927
458.20 2.104123
458.30 2.067027
458.40 2.043656
458.50 2.032847
458.60 2.031003
458.70 2.031003
458.80 2.031003
458.90 2.031003
459.00 2.031003
459.10 2.031003
459.20 2.031003
459.30 2.031003
459.40 2.031003
459.50 2.031003
459.60 2.031003
459.70 2.031003
459.80 2.031003
459.90 2.031003
460.00 2.031003
460.10 2.016103
460.20 1.966205
460.30 1.884884
460.40 1.768812
460.50 1.630406
460.60 1.493774
460.70 1.360996
460.80 1.233599
460.90 1.11145
461.00 0.9953789
461.10 0.901194
461.20 0.8466949
461.30 0.8260793
461.40 0.8260793
461.50 0.8260793
461.60 0.8260793
461.70 0.8260793
461.80 0.8260793
461.90 0.8260793
462.00 0.8260793
462.10 0.8260793
462.20 0.8260793
462.30 0.8260793
462.40 0.8260793
462.50 0.8260793
462.60 0.8260793
462.70 0.8112692
462.80 0.7828585
462.90 0.7498116
463.00 0.7358045
463.10 0.777709
463.20 0.8773432
463.30 1.024982
463.40 1.196241
463.50 1.368316
463.60 1.521404
463.70 1.641218
463.80 1.719676
463.90 1.756991
464.00 1.762736
464.10 1.762736
464.20 1.762736
464.30 1.767075
464.40 1.771799
464.50 1.774633
464.60 1.776597
464.70 1.778541
464.80 1.781341
464.90 1.78585
465.00 1.791444
465.10 1.797267
465.20 1.804211
465.30 1.81256
465.40 1.820516
465.50 1.826366
465.60 1.826366
465.70 1.826366
465.80 1.826366
465.90 1.826366
466.00 1.826366
466.10 1.826366
466.20 1.826366
466.30 1.826366
466.40 1.826366
466.50 1.826366
466.60 1.826366
466.70 1.826366
466.80 1.841509
466.90 1.865453
467.00 1.889124
467.10 1.90769
467.20 1.917452
467.30 1.917452
467.40 1.917452
467.50 1.917452
467.60 1.917452
467.70 1.917452
467.80 1.917452
467.90 1.917452
468.00 1.917452
468.10 1.917452
468.20 1.917452
468.30 1.917452
468.40 1.917452
468.50 1.917452
468.60 1.917452
468.70 1.921335
468.80 1.926532
468.90 1.929216
469.00 1.929216
469.10 1.929216
469.20 1.929216
469.30 1.929216
469.40 1.929216
469.50 1.929216
469.60 1.929216
469.70 1.929216
469.80 1.929216
469.90 1.929216
470.00 1.929216
470.10 1.929216
470.20 1.929216
470.30 1.929216
470.40 1.929216
470.50 1.919679
470.60 1.88633
470.70 1.838842
470.80 1.789475
470.90 1.751076
471.00 1.735026
471.10 1.735026
471.20 1.735026
471.30 1.735026
471.40 1.735026
471.50 1.735026
471.60 1.735026
471.70 1.735026
471.80 1.735026
471.90 1.735026
472.00 1.735026
472.10 1.735026
472.20 1.735026
472.30 1.735026
472.40 1.735026
472.50 1.735026
472.60 1.735026
472.70 1.735026
472.80 1.740738
472.90 1.754983
473.00 1.760344
473.10 1.722189
473.20 1.635695
473.30 1.50482
473.40 1.345914
473.50 1.186113
473.60 1.051059
473.70 0.9582373
473.80 0.9170416
473.90 0.9255421
474.00 0.9695765
474.10 1.014529
474.20 1.043242
474.30 1.042888
474.40 1.02238
474.50 0.9835447
474.60 0.9273607
474.70 0.857411
474.80 0.7798485
474.90 0.7022058
475.00 0.6320957
475.10 0.5754982
475.20 0.5348495
475.30 0.5089757
475.40 0.494785
475.50 0.4889351
475.60 0.4889351
475.70 0.493743
475.80 0.5095428
475.90 0.5324246
476.00 0.558131
476.10 0.582971
476.20 0.6027219
476.30 0.6130937
476.40 0.6130937
476.50 0.6130937
476.60 0.6130937
476.70 0.6130937
476.80 0.5979501
476.90 0.5740064
477.00 0.5503353
477.10 0.5317693
477.20 0.5220079
477.30 0.5220079
477.40 0.5220079
477.50 0.5220079
477.60 0.5220079
477.70 0.5259239
477.80 0.5317422
477.90 0.5362935
478.00 0.5376632
478.10 0.5376632
478.20 0.5376632
478.30 0.5376632
478.40 0.5376632
478.50 0.5376632
478.60 0.5376632
478.70 0.5337794
478.80 0.5285824
478.90 0.525899
479.00 0.525899
479.10 0.525899
479.20 0.5283179
479.30 0.5318965
479.40 0.5356376
479.50 0.5406941
479.60 0.549116
479.70 0.5627773
479.80 0.5825791
479.90 0.6084159
480.00 0.6389093
480.10 0.6705655
480.20 0.6986508
480.30 0.7183403
480.40 0.7259716
480.50 0.7259716
480.60 0.7259716
480.70 0.7259716
480.80 0.7259716
480.90 0.7259716
481.00 0.7450958
481.10 0.7990074
481.20 0.8878199
481.30 1.004847
481.40 1.137929
481.50 1.272552
481.60 1.394728
481.70 1.493732
481.80 1.560722
481.90 1.589781
482.00 1.589781
482.10 1.589781
482.20 1.589781
482.30 1.589781
482.40 1.589781
482.50 1.589781
482.60 1.589781
482.70 1.589781
482.80 1.58407
482.90 1.569824
483.00 1.553873
483.10 1.536481
483.20 1.51803
483.30 1.503301
483.40 1.492959
483.50 1.48424
483.60 1.476247
483.70 1.46939
483.80 1.461762
483.90 1.448928
484.00 1.427194
484.10 1.398052
484.20 1.369339
484.30 1.365353
484.40 1.365353
484.50 1.365353
484.60 1.365353
484.70 1.365353
484.80 1.365353
484.90 1.365353
485.00 1.365353
485.10 1.365353
485.20 1.365353
485.30 1.365353
485.40 1.365353
485.50 1.365353
485.60 1.365353
485.70 1.360545
485.80 1.344746
485.90 1.321864
486.00 1.296157
486.10 1.271317
486.20 1.251567
486.30 1.247164
486.40 1.26727
486.50 1.300122
486.60 1.341109
486.70 1.384961
486.80 1.427196
486.90 1.464182
487.00 1.493779
487.10 1.515066
487.20 1.527923
487.30 1.532925
487.40 1.532925
487.50 1.532925
487.60 1.532925
487.70 1.529009
487.80 1.523191
487.90 1.51864
488.00 1.51727
488.10 1.51727
488.20 1.51727
488.30 1.51727
488.40 1.51727
488.50 1.518383
488.60 1.522468
488.70 1.527951
488.80 1.530618
488.90 1.530618
489.00 1.530618
489.10 1.530618
489.20 1.528199
489.30 1.524621
489.40 1.520879
489.50 1.515823
489.60 1.507401
489.70 1.49374
489.80 1.473938
489.90 1.458797
490.00 1.446733
490.10 1.435334
490.20 1.425628
490.30 1.421337
490.40 1.425292
490.50 1.432988
490.60 1.436912
490.70 1.437253
490.80 1.437253
490.90 1.437253
491.00 1.418129
491.10 1.364286
491.20 1.288447
491.30 1.20432
491.40 1.127621
491.50 1.07003
491.60 1.036752
491.70 1.027457
491.80 1.040045
491.90 1.071897
492.00 1.110049
492.10 1.126306
492.20 1.126306
492.30 1.126306
492.40 1.126306
492.50 1.131902
492.60 1.145882
492.70 1.16487
492.80 1.184047
492.90 1.200437
493.00 1.208899
493.10 1.2107
493.20 1.207497
493.30 1.204143
493.40 1.202133
493.50 1.198577
493.60 1.188537
493.70 1.1684
493.80 1.138766
493.90 1.105786
494.00 1.07774
494.10 1.06193
494.20 1.06193
494.30 1.06193
494.40 1.06193
494.50 1.06193
494.60 1.06193
494.70 1.06193
494.80 1.06193
494.90 1.06193
495.00 1.068385
495.10 1.077407
495.20 1.08748
495.30 1.099475
495.40 1.114486
495.50 1.13344
495.60 1.156304
495.70 1.182386
495.80 1.210467
495.90 1.238634
496.00 1.265131
496.10 1.288841
496.20 1.309002
496.30 1.3189
496.40 1.308128
496.50 1.275276
496.60 1.234289
496.70 1.190438
496.80 1.148202
496.90 1.111216
497.00 1.081619
497.10 1.060332
497.20 1.047476
497.30 1.042473
497.40 1.042473
497.50 1.042473
497.60 1.042473
497.70 1.042473
497.80 1.042473
497.90 1.042473
498.00 1.042473
498.10 1.042473
498.20 1.042473
498.30 1.042473
498.40 1.042473
498.50 1.041359
498.60 1.037275
498.70 1.031791
498.80 1.029125
498.90 1.029125
499.00 1.029125
499.10 1.029125
499.20 1.029125
499.30 1.029125
499.40 1.029125
499.50 1.029125
499.60 1.029125
499.70 1.029125
499.80 1.029125
499.90 1.018429
500.00 1
500.10 0.9797419
500.20 0.9613633
500.30 0.9459648
500.40 0.9343787
500.50 0.9266824
500.60 0.9227583
500.70 0.9224169
500.80 0.9224169
500.90 0.9224169
501.00 0.9224169
501.10 0.9223484
501.20 0.9097835
501.30 0.8789182
501.40 0.8266884
501.50 0.756242
501.60 0.6767456
501.70 0.6005365
501.80 0.5402402
501.90 0.5051705
502.00 0.4976833
502.10 0.5134162
502.20 0.544054
502.30 0.5715587
502.40 0.5947347
502.50 0.6076478
502.60 0.60802
502.70 0.6005279
502.80 0.5918068
502.90 0.5873252
503.00 0.5908709
503.10 0.6056355
503.20 0.6329682
503.30 0.6659973
503.40 0.7027308
503.50 0.7447673
503.60 0.79199
503.70 0.8421829
503.80 0.8922604
503.90 0.9391266
504.00 0.9803255
504.10 1.015549
504.20 1.044833
504.30 1.067077
504.40 1.081184
504.50 1.086899
504.60 1.086899
504.70 1.086899
504.80 1.086899
504.90 1.086899
505.00 1.080444
505.10 1.07219
505.20 1.065894
505.30 1.060507
505.40 1.053013
505.50 1.037519
505.60 1.014655
505.70 0.9885729
505.80 0.960492
505.90 0.9323248
506.00 0.905828
506.10 0.8911261
506.20 0.902806
506.30 0.9426831
506.40 1.009392
506.50 1.097882
506.60 1.188391
506.70 1.270355
506.80 1.336082
506.90 1.382813
507.00 1.412286
507.10 1.429614
507.20 1.440583
507.30 1.448017
507.40 1.452571
507.50 1.455395
507.60 1.457448
507.70 1.458836
507.80 1.459107
507.90 1.459107
508.00 1.459107
508.10 1.459107
508.20 1.459107
508.30 1.459107
508.40 1.459107
508.50 1.459107
508.60 1.459107
508.70 1.459107
508.80 1.459107
508.90 1.459107
509.00 1.459107
509.10 1.459107
509.20 1.459107
509.30 1.459107
509.40 1.459107
509.50 1.459107
509.60 1.459107
509.70 1.459107
509.80 1.459107
509.90 1.459107
510.00 1.459107
510.10 1.459107
510.20 1.459107
510.30 1.459107
510.40 1.459107
510.50 1.459107
510.60 1.459107
510.70 1.459107
510.80 1.459107
510.90 1.459107
511.00 1.459107
511.10 1.459107
511.20 1.458699
511.30 1.456663
511.40 1.452511
511.50 1.445924
511.60 1.436523
511.70 1.423023
511.80 1.403742
511.90 1.3779
512.00 1.347235
512.10 1.315245
512.20 1.284608
512.30 1.260051
512.40 1.239215
512.50 1.220868
512.60 1.206516
512.70 1.195019
512.80 1.184564
512.90 1.172656
513.00 1.156042
513.10 1.132908
513.20 1.103862
513.30 1.070833
513.40 1.0341
513.50 0.9921627
513.60 0.9596005
513.70 0.9435626
513.80 0.9484238
513.90 0.9749315
514.00 1.020021
514.10 1.075613
514.20 1.132078
514.30 1.181753
514.40 1.220244
514.50 1.246915
514.60 1.265108
514.70 1.281941
514.80 1.31045
514.90 1.357103
515.00 1.4211
515.10 1.496523
515.20 1.573349
515.30 1.642972
515.40 1.699235
515.50 1.741776
515.60 1.768574
515.70 1.778633
515.80 1.778633
515.90 1.778633
516.00 1.778633
516.10 1.773375
516.20 1.750008
516.30 1.706284
516.40 1.644329
516.50 1.57035
516.60 1.493146
516.70 1.422451
516.80 1.366
516.90 1.327021
517.00 1.304786
517.10 1.295973
517.20 1.296729
517.30 1.304756
517.40 1.316838
517.50 1.327532
517.60 1.33105
517.70 1.329661
517.80 1.329391
517.90 1.329391
518.00 1.329391
518.10 1.329391
518.20 1.329391
518.30 1.329391
518.40 1.329391
518.50 1.329391
518.60 1.329391
518.70 1.329391
518.80 1.329391
518.90 1.329391
519.00 1.329391
519.10 1.329391
519.20 1.335665
519.30 1.343315
519.40 1.347924
519.50 1.349942
519.60 1.349942
519.70 1.349942
519.80 1.349942
519.90 1.349942
520.00 1.349942
520.10 1.349942
520.20 1.349942
520.30 1.349942
520.40 1.349942
520.50 1.349942
520.60 1.349942
520.70 1.349942
520.80 1.349942
520.90 1.351127
521.00 1.352751
521.10 1.354973
521.20 1.3579
521.30 1.361566
521.40 1.36572
521.50 1.369876
521.60 1.371962
521.70 1.371962
521.80 1.371962
521.90 1.371962
522.00 1.371962
522.10 1.371962
522.20 1.371962
522.30 1.369014
522.40 1.366674
522.50 1.366512
522.60 1.366512
522.70 1.366512
522.80 1.366512
522.90 1.366512
523.00 1.366512
523.10 1.366512
523.20 1.366512
523.30 1.366512
523.40 1.366512
523.50 1.370513
523.60 1.37066
523.70 1.361082
523.80 1.340133
523.90 1.309379
524.00 1.268993
524.10 1.215439
524.20 1.144928
524.30 1.073008
524.40 1.020411
524.50 0.9880239
524.60 0.9698318
524.70 0.9529986
524.80 0.9244898
524.90 0.8778363
525.00 0.8138393
525.10 0.7376482
525.20 0.657045
525.30 0.5808146
525.40 0.5170335
525.50 0.4710334
525.60 0.4442354
525.70 0.4341762
525.80 0.4341762
525.90 0.4341762
526.00 0.4341762
526.10 0.4304254
526.20 0.4219532
526.30 0.4099317
526.40 0.3958442
526.50 0.381333
526.60 0.3680277
526.70 0.3567586
526.80 0.3474822
526.90 0.3446998
527.00 0.3536618
527.10 0.3652775
527.20 0.3653186
527.30 0.3498577
527.40 0.3332217
527.50 0.3197042
527.60 0.3141337
527.70 0.3141337
527.80 0.3141337
527.90 0.3141337
528.00 0.3141337
528.10 0.3141337
528.20 0.3141337
528.30 0.3141337
528.40 0.3141337
528.50 0.3141337
528.60 0.3141337
528.70 0.3141337
528.80 0.3141337
528.90 0.3141337
529.00 0.3141337
529.10 0.3141337
529.20 0.3101244
529.30 0.3124958
529.40 0.3250129
529.50 0.3460041
529.60 0.3732031
529.70 0.4023434
529.80 0.4308435
529.90 0.4564094
530.00 0.4782404
530.10 0.4969885
530.20 0.5136394
530.30 0.5261046
530.40 0.5299864
530.50 0.5299864
530.60 0.5299864
530.70 0.5299864
530.80 0.5299864
530.90 0.5288017
531.00 0.5271772
531.10 0.5249558
531.20 0.5220287
531.30 0.5183624
531.40 0.5178911
531.50 0.5205969
531.60 0.5248049
531.70 0.5289691
531.80 0.5317907
531.90 0.5337585
532.00 0.5351271
532.10 0.5360545
532.20 0.5360545
532.30 0.5360545
532.40 0.5360545
532.50 0.5360545
532.60 0.5360545
532.70 0.5360545
532.80 0.5360545
532.90 0.5360545
533.00 0.5360545
533.10 0.5360545
533.20 0.5370392
533.30 0.5384529
533.40 0.5384529
533.50 0.5343519
533.60 0.5195443
533.70 0.4949674
533.80 0.4609783
533.90 0.418358
534.00 0.3724556
534.10 0.335194
534.20 0.3199569
534.30 0.3199569
534.40 0.3199569
534.50 0.3199569
534.60 0.3199569
534.70 0.3199569
534.80 0.3199569
534.90 0.3199569
535.00 0.3199569
535.10 0.3199569
535.20 0.3199569
535.30 0.3199569
535.40 0.3199569
535.50 0.3199569
535.60 0.3199569
535.70 0.3203898
535.80 0.3224771
535.90 0.3257139
536.00 0.3298822
536.10 0.3343247
536.20 0.3375113
536.30 0.3375113
536.40 0.3375113
536.50 0.3375113
536.60 0.3375113
536.70 0.3375113
536.80 0.3375113
536.90 0.332543
537.00 0.3163423
537.10 0.2962115
537.20 0.2844451
537.30 0.285901
537.40 0.285901
537.50 0.285901
537.60 0.285901
537.70 0.285901
537.80 0.285901
537.90 0.285901
538.00 0.285901
538.10 0.285901
538.20 0.285901
538.30 0.285901
538.40 0.285901
538.50 0.285901
538.60 0.2889705
538.70 0.2919687
538.80 0.2926968
538.90 0.2926968
539.00 0.2926968
539.10 0.2926968
539.20 0.2904316
539.30 0.2804104
539.40 0.2632842
539.50 0.2402749
539.60 0.2130759
539.70 0.1839356
539.80 0.1554355
539.90 0.1298696
540.00 0.1080386
540.10 0.08929057
540.20 0.07263964
540.30 0.06147178
540.40 0.06062043
540.50 0.06257624
540.60 0.06257624
540.70 0.06257624
540.80 0.06257624
540.90 0.06257624
541.00 0.06257624
541.10 0.06257624
541.20 0.06257624
541.30 0.06257624
541.40 0.05889344
541.50 0.05203222
541.60 0.04573782
541.70 0.0415737
541.80 0.03875202
541.90 0.03678427
542.00 0.03541569
542.10 0.03448826
542.20 0.03448826
542.30 0.03448826
542.40 0.03448826
542.50 0.03448826
542.60 0.03448826
542.70 0.03448826
542.80 0.03448826
542.90 0.03448826
543.00 0.03448826
543.10 0.03448826
543.20 0.03350352
543.30 0.03208985
543.40 0.03208985
543.50 0.03208985
543.60 0.03208985
543.70 0.03208985
543.80 0.03208985
543.90 0.03208985
544.00 0.03208985
544.10 0.0324587
544.20 0.03291509
544.30 0.03442002
544.40 0.04115164
544.50 0.05811685
544.60 0.08803766
544.70 0.1309376
544.80 0.1842697
544.90 0.2432004
545.00 0.301112
545.10 0.3510508
545.20 0.3875591
545.30 0.4078392
545.40 0.4124
545.50 0.4124
545.60 0.4124
545.70 0.411967
545.80 0.4098797
545.90 0.4066429
546.00 0.4024746
546.10 0.3980321
546.20 0.3948455
546.30 0.3948455
546.40 0.3948455
546.50 0.3948455
546.60 0.3948455
546.70 0.3948455
546.80 0.3948455
546.90 0.3948455
547.00 0.3948455
547.10 0.3948455
547.20 0.3948455
547.30 0.3933896
547.40 0.3933896
547.50 0.3933896
547.60 0.3933896
547.70 0.3933896
547.80 0.3933896
547.90 0.3933896
548.00 0.3933896
548.10 0.3933896
548.20 0.3933896
548.30 0.3933896
548.40 0.3933896
548.50 0.3933896
548.60 0.3903201
548.70 0.3873219
548.80 0.3865938
548.90 0.3865938
549.00 0.3865938
549.10 0.3865938
549.20 0.3865938
549.30 0.3865938
549.40 0.3865938
549.50 0.3865938
549.60 0.3865938
549.70 0.3865938
549.80 0.3865938
549.90 0.3865938
550.00 0.9507753
550.10 0.9507753
550.20 0.9507753
550.30 0.9507753
550.40 0.9507753
550.50 0.9507753
550.60 0.9507753
550.70 0.9507753
550.80 0.9507753
550.90 0.9507753
551.00 0.9507753
551.10 0.9498531
551.20 0.9487122
551.30 0.9449498
551.40 0.9281208
551.50 0.8857078
551.60 0.8109058
551.70 0.7036558
551.80 0.5703255
551.90 0.4229989
552.00 0.2782199
552.10 0.1533729
552.20 0.06210219
552.30 0.01140179
552.40 0
552.50 0
552.60 0
552.70 0
552.80 0
552.90 0
553.00 0
553.10 0
553.20 0
553.30 0
553.40 0
553.50 0
553.60 0
553.70 0
553.80 0
553.90 0.001178142
554.00 0.01232989
554.10 0.02860962
554.20 0.03969582
554.30 0.03969582
554.40 0.03969582
554.50 0.03969582
554.60 0.03969582
554.70 0.03969582
554.80 0.03969582
554.90 0.03969582
555.00 0.03969582
555.10 0.063435
555.20 0.1052172
555.30 0.123045
555.40 0.123045
555.50 0.123045
555.60 0.123045
555.70 0.123045
555.80 0.123045
555.90 0.123045
556.00 0.123045
556.10 0.123045
556.20 0.123045
556.30 0.123045
556.40 0.123045
556.50 0.123045
556.60 0.1626151
556.70 0.2114476
556.80 0.2684075
556.90 0.3335298
557.00 0.4044108
557.10 0.4773532
557.20 0.548309
557.30 0.6149201
557.40 0.6768463
557.50 0.7340855
557.60 0.7854603
557.70 0.8319001
557.80 0.8775672
557.90 0.9252923
558.00 0.9691038
558.10 1.014531
558.20 1.069022
558.30 1.133095
558.40 1.190639
558.50 1.237432
558.60 1.269589
558.70 1.283439
558.80 1.283439
558.90 1.283439
559.00 1.283439
559.10 1.2597
559.20 1.217918
559.30 1.20009
559.40 1.20009
559.50 1.20009
559.60 1.20009
559.70 1.20009
559.80 1.20009
559.90 1.20009
560.00 1.20009
560.10 1.224659
560.20 1.303992
560.30 1.42913
560.40 1.585916
560.50 1.759517
560.60 1.893795
560.70 2.000814
560.80 2.065193
560.90 2.0769
561.00 2.037156
561.10 1.964214
561.20 1.893258
561.30 1.826647
561.40 1.764721
561.50 1.707481
561.60 1.656107
561.70 1.609667
561.80 1.564
561.90 1.515096
562.00 1.460133
562.10 1.425499
562.20 1.458096
562.30 1.564028
562.40 1.73416
562.50 1.944032
562.60 2.160659
562.70 2.354129
562.80 2.497071
562.90 2.568276
563.00 2.576754
563.10 2.576754
563.20 2.576754
563.30 2.576754
563.40 2.576754
563.50 2.576864
563.60 2.58729
563.70 2.605106
563.80 2.628253
563.90 2.661219
564.00 2.713032
564.10 2.764925
564.20 2.787006
564.30 2.782971
564.40 2.757566
564.50 2.713116
564.60 2.650634
564.70 2.566163
564.80 2.4543
564.90 2.37747
565.00 2.346333
565.10 2.346333
565.20 2.346333
565.30 2.346333
565.40 2.346333
565.50 2.346333
565.60 2.346333
565.70 2.346333
565.80 2.346333
565.90 2.346333
566.00 2.346333
566.10 2.321502
566.20 2.22607
566.30 2.056065
566.40 1.828389
566.50 1.571725
566.60 1.32294
566.70 1.11562
566.80 0.972678
566.90 0.9014727
567.00 0.8929949
567.10 0.8929949
567.20 0.8929949
567.30 0.8929949
567.40 0.8934011
567.50 0.8995105
567.60 0.8917863
567.70 0.8739705
567.80 0.850823
567.90 0.8178575
568.00 0.7660442
568.10 0.6895813
568.20 0.5881681
568.30 0.4670645
568.40 0.3356839
568.50 0.2132813
568.60 0.1155689
568.70 0.06310318
568.80 0.07542102
568.90 0.09810417
569.00 0.1204447
569.10 0.1416313
569.20 0.1554458
569.30 0.1554458
569.40 0.1554458
569.50 0.1554458
569.60 0.1554458
569.70 0.1554458
569.80 0.1554458
569.90 0.1554458
570.00 0.1554458
570.10 0.1532047
570.20 0.1590036
570.30 0.1798795
570.40 0.1998181
570.50 0.2025381
570.60 0.2025381
570.70 0.2025381
570.80 0.2025381
570.90 0.2025381
571.00 0.2025381
571.10 0.2025381
571.20 0.2082258
571.30 0.2222657
571.40 0.2392513
571.50 0.249727
571.60 0.2604903
571.70 0.2685402
571.80 0.269468
571.90 0.269468
572.00 0.269468
572.10 0.269468
572.20 0.269468
572.30 0.269468
572.40 0.269468
572.50 0.26272
572.60 0.249066
572.70 0.2301512
572.80 0.2083578
572.90 0.1856747
573.00 0.1633341
573.10 0.1421475
573.20 0.128333
573.30 0.128333
573.40 0.128333
573.50 0.128333
573.60 0.128333
573.70 0.128333
573.80 0.128333
573.90 0.128333
574.00 0.1309799
574.10 0.1501275
574.20 0.1688291
574.30 0.182203
574.40 0.203254
574.50 0.245676
574.60 0.2914116
574.70 0.3338201
574.80 0.3691254
574.90 0.3939253
575.00 0.4063792
575.10 0.4063901
575.20 0.4007024
575.30 0.3866625
575.40 0.3692707
575.50 0.3592905
575.60 0.3757636
575.70 0.4251799
575.80 0.50748
575.90 0.6093406
576.00 0.7196173
576.10 0.8266705
576.20 0.9197828
576.30 0.992553
576.40 1.043223
576.50 1.071498
576.60 1.079118
576.70 1.079118
576.80 1.079118
576.90 1.079118
577.00 1.079118
577.10 1.079118
577.20 1.079118
577.30 1.079118
577.40 1.079118
577.50 1.079118
577.60 1.079118
577.70 1.079118
577.80 1.079118
577.90 1.079118
578.00 1.076471
578.10 1.057323
578.20 1.03008
578.30 0.9958304
578.40 0.9578944
578.50 0.9237942
578.60 0.8975166
578.70 0.8787367
578.80 0.8562027
578.90 0.8314028
579.00 0.818949
579.10 0.8189381
579.20 0.8189381
579.30 0.8189381
579.40 0.8189381
579.50 0.8122232
579.60 0.7822849
579.70 0.7248188
579.80 0.641591
579.90 0.5397303
580.00 0.4294537
580.10 0.3224004
580.20 0.2292881
580.30 0.1565179
580.40 0.1058481
580.50 0.07757277
580.60 0.06995326
580.70 0.06995326
580.80 0.06995326
580.90 0.06995326
581.00 0.06995326
581.10 0.06995326
581.20 0.06995326
581.30 0.06995326
581.40 0.06995326
581.50 0.06995326
581.60 0.06995326
581.70 0.06995326
581.80 0.06995326
581.90 0.06995326
582.00 0.06995326
582.10 0.06995326
582.20 0.06995326
582.30 0.09078949
582.40 0.1244384
582.50 0.1556834
582.60 0.1725416
582.70 0.1637525
582.80 0.1509811
582.90 0.1509811
583.00 0.1509811
583.10 0.1509811
583.20 0.1509811
583.30 0.1509811
583.40 0.1509811
583.50 0.1509811
583.60 0.1509811
583.70 0.1509811
583.80 0.1509811
583.90 0.1509811
584.00 0.1509811
584.10 0.1725529
584.20 0.2245181
584.30 0.3039956
584.40 0.4070862
584.50 0.5316958
584.60 0.6751402
584.70 0.8270866
584.80 0.9711788
584.90 1.092074
585.00 1.17836
585.10 1.224367
585.20 1.233241
585.30 1.233241
585.40 1.233241
585.50 1.233241
585.60 1.233241
585.70 1.233241
585.80 1.236764
585.90 1.287301
586.00 1.399212
586.10 1.583573
586.20 1.841341
586.30 2.135893
586.40 2.438346
586.50 2.71482
586.60 2.93522
586.70 3.084229
586.80 3.139431
586.90 3.139431
587.00 3.139431
587.10 3.139431
587.20 3.139431
587.30 3.139431
587.40 3.139431
587.50 3.139431
587.60 3.139431
587.70 3.139431
587.80 3.139431
587.90 3.139431
588.00 3.139431
588.10 3.117859
588.20 3.065894
588.30 3.038038
588.40 3.109766
588.50 3.237434
588.60 3.381446
588.70 3.501889
588.80 3.549964
588.90 3.478752
589.00 3.392466
589.10 3.346459
589.20 3.337585
589.30 3.337585
589.40 3.337585
589.50 3.337585
589.60 3.337585
589.70 3.337585
589.80 3.334062
589.90 3.283525
590.00 3.174913
590.10 3.016691
590.20 2.799693
590.30 2.543217
590.40 2.281224
590.50 2.043619
590.60 1.848103
590.70 1.708684
590.80 1.653482
590.90 1.653482
591.00 1.653482
591.10 1.653482
591.20 1.653482
591.30 1.653482
591.40 1.653482
591.50 1.653482
591.60 1.653482
591.70 1.653482
591.80 1.653482
591.90 1.740884
592.00 1.889712
592.10 2.042467
592.20 2.144877
592.30 2.111005
592.40 1.936186
592.50 1.683908
592.60 1.396452
592.70 1.124062
592.80 0.9318953
592.90 0.8822125
593.00 0.8822125
593.10 0.8822125
593.20 0.8822125
593.30 0.8822125
593.40 0.8822125
593.50 0.8822125
593.60 0.8822125
593.70 0.8822125
593.80 0.8822125
593.90 0.8822125
594.00 0.8822545
594.10 0.8582426
594.20 0.8174724
594.30 0.7585605
594.40 0.6813977
594.50 0.6002429
594.60 0.5390425
594.70 0.5146127
594.80 0.5146127
594.90 0.5146127
595.00 0.5146127
595.10 0.5146127
595.20 0.5146127
595.30 0.5146127
595.40 0.5146127
595.50 0.5146127
595.60 0.5146127
595.70 0.5270468
595.80 0.5761003
595.90 0.5418516
596.00 0.4192567
596.10 0.2665014
596.20 0.1640917
596.30 0.1463422
596.40 0.1463422
596.50 0.1463422
596.60 0.1463422
596.70 0.1463422
596.80 0.1463422
596.90 0.1463422
597.00 0.1463422
597.10 0.1463422
597.20 0.1463422
597.30 0.1463422
597.40 0.1463422
597.50 0.1463422
597.60 0.1463422
597.70 0.1463422
597.80 0.1463422
597.90 0.1463422
598.00 0.1430005
598.10 0.1408736
598.20 0.1408736
598.30 0.1408736
598.40 0.1408736
598.50 0.1408736
598.60 0.1408736
598.70 0.1408736
598.80 0.1408736
598.90 0.1408736
599.00 0.1408736
599.10 0.1408736
599.20 0.1408736
599.30 0.1408736
599.40 0.1408736
599.50 0.1408736
599.60 0.1408736
599.70 0.1284396
599.80 0.1226451
599.90 0.1565305
600.00 0
600.10 0
600.20 0
600.30 0
600.40 0
600.50 0
600.60 0
600.70 0
600.80 0
600.90 0
601.00 0
601.10 0
601.20 0
601.30 0
601.40 0
601.50 0
601.60 0
601.70 0
601.80 1.730362
601.90 3.481558
602.00 4.558026
602.10 4.435439
602.20 2.501326
602.30 0
602.40 0
602.50 0
602.60 0
602.70 0
602.80 0
602.90 0
603.00 0
603.10 0
603.20 0
603.30 0
603.40 0
603.50 0
603.60 0
603.70 0
603.80 0
603.90 0
604.00 0
604.10 0.6675493
604.20 1.275383
604.30 1.156034
604.40 0.300291
604.50 0
604.60 0
604.70 0
604.80 0
604.90 0
605.00 0
605.10 0
605.20 0
605.30 0
605.40 0
605.50 0
605.60 0
605.70 0
605.80 0
605.90 0
606.00 1.112528
606.10 4.415366
606.20 6.549261
606.30 7.722416
606.40 8.006931
606.50 7.384554
606.60 6.346993
606.70 5.617655
606.80 5.47991
606.90 5.866502
607.00 6.607574
607.10 7.472599
607.20 8.114052
607.30 8.234915
607.40 7.797834
607.50 6.607173
607.60 4.376844
607.70 1.240194
607.80 0
607.90 0
608.00 0
608.10 0
608.20 0
608.30 0
608.40 0
608.50 0
608.60 0
608.70 0
608.80 0
608.90 0
609.00 0
609.10 0
609.20 0
609.30 0
609.40 0
609.50 0
609.60 0
609.70 0
609.80 0
609.90 0
610.00 0
610.10 0
610.20 0
610.30 0
610.40 0.1633444
610.50 0
610.60 0
610.70 0
610.80 0
610.90 0
611.00 0
611.10 0
611.20 0
611.30 0
611.40 0
611.50 0
611.60 0
611.70 0
611.80 0
611.90 0
612.00 0
612.10 0
612.20 0.3914582
612.30 0.7233671
612.40 0.5953133
612.50 0.03736877
612.60 0
612.70 0
612.80 0
612.90 0
613.00 0
613.10 0
613.20 0
613.30 0
613.40 0
613.50 1.228202
613.60 2.975444
613.70 4.230377
613.80 4.931013
613.90 5.157547
614.00 5.002186
614.10 4.535006
614.20 3.90724
614.30 3.334304
614.40 2.818459
614.50 2.077122
614.60 0.7813185
614.70 0
614.80 0
614.90 0
615.00 0
615.10 0
615.20 0
615.30 0
615.40 0
615.50 0
615.60 0
615.70 0
615.80 0
615.90 0
616.00 0
616.10 0
616.20 0
616.30 0
616.40 0
616.50 0
616.60 0
616.70 0.03677692
616.80 0.2748597
616.90 0.4025417
617.00 0.2711934
617.10 0
617.20 0
617.30 0
617.40 0
617.50 0
617.60 0
617.70 0
617.80 0
617.90 0
618.00 0
618.10 0
618.20 0.87554
618.30 2.0751
618.40 3.154768
618.50 3.848497
618.60 4.158849
618.70 4.127496
618.80 3.707627
618.90 2.877242
619.00 1.752303
619.10 0.5493448
619.20 0
619.30 0
619.40 0
619.50 0
619.60 0
619.70 0.2417825
619.80 0.3275078
619.90 0
620.00 0
620.10 0
620.20 0
620.30 0
620.40 0
620.50 0
620.60 0
620.70 0
620.80 0
620.90 0
621.00 2.304236
621.10 3.12312
621.20 2.069515
621.30 0
621.40 0
621.50 0
621.60 0
621.70 0
621.80 0
621.90 0
622.00 0
622.10 0
622.20 0
622.30 0
622.40 0
622.50 0
622.60 0
622.70 1.87147
622.80 3.220432
622.90 3.697139
623.00 3.659848
623.10 3.614474
623.20 3.744739
623.30 4.020477
623.40 4.674608
623.50 5.907721
623.60 7.448626
623.70 8.890129
623.80 9.860363
623.90 10.05275
624.00 9.320588
624.10 7.919029
624.20 6.29804
624.30 4.808142
624.40 3.63845
624.50 3.062766
624.60 3.328521
624.70 4.372488
624.80 5.554503
624.90 6.104235
625.00 5.856421
625.10 4.916657
625.20 3.484252
625.30 1.826459
625.40 0.1094726
625.50 0
625.60 0
625.70 0
625.80 0
625.90 0
626.00 0
626.10 0
626.20 0
626.30 1.057142
626.40 3.302658
626.50 5.201932
626.60 6.365543
626.70 6.565357
626.80 5.966921
626.90 4.838196
627.00 3.21291
627.10 1.033218
627.20 0
627.30 0
627.40 0
627.50 0
627.60 0
627.70 0
627.80 0
627.90 0
628.00 0
628.10 0.995867
628.20 1.927813
628.30 1.265322
628.40 0
628.50 0
628.60 0
628.70 0
628.80 0
628.90 0
629.00 0
629.10 0
629.20 0
629.30 0.1800176
629.40 3.537785
629.50 5.13022
629.60 3.301251
629.70 0
629.80 0
629.90 0
630.00 0
630.10 0
630.20 0
630.30 0
630.40 0
630.50 0
630.60 0
630.70 6.138552
630.80 11.0721
630.90 11.92857
631.00 10.08367
631.10 7.36182
631.20 5.049566
631.30 3.575855
631.40 2.724609
631.50 2.185417
631.60 1.936279
631.70 1.840293
631.80 1.739234
631.90 1.640463
632.00 1.675921
632.10 1.928672
632.20 2.323686
632.30 2.857538
632.40 3.603516
632.50 4.302313
632.60 4.179957
632.70 2.768728
632.80 0.3748
632.90 0
633.00 0
633.10 0
633.20 0
633.30 0
633.40 0
633.50 0
633.60 0
633.70 0.8458719
633.80 3.022245
633.90 4.794493
634.00 6.106523
634.10 6.813498
634.20 6.921687
634.30 6.450269
634.40 5.516132
634.50 4.346673
634.60 3.150114
634.70 2.345889
634.80 2.50883
634.90 3.741852
635.00 5.595843
635.10 7.39463
635.20 8.616206
635.30 9.066176
635.40 8.848259
635.50 8.116591
635.60 7.067774
635.70 6.090919
635.80 5.417995
635.90 5.079632
636.00 4.817677
636.10 3.99693
636.20 2.282119
636.30 0
636.40 0
636.50 0
636.60 0
636.70 0
636.80 0
636.90 0
637.00 0
637.10 0
637.20 0
637.30 0
637.40 0
637.50 0
637.60 0
637.70 0
637.80 0
637.90 0
638.00 0
638.10 0
638.20 1.77592
638.30 3.59125
638.40 4.727327
638.50 4.833684
638.60 3.9635
638.70 2.467087
638.80 0.8048745
638.90 0
639.00 0
639.10 0.1255846
639.20 1.377247
639.30 2.674887
639.40 3.904955
639.50 5.124388
639.60 6.389719
639.70 7.785352
639.80 9.250498
639.90 10.55226
640.00 11.46259
640.10 11.82475
640.20 11.57649
640.30 10.78392
640.40 9.606458
640.50 8.268074
640.60 7.019277
640.70 6.037436
640.80 5.298262
640.90 4.551876
641.00 3.50131
641.10 2.17514
641.20 0.9628807
641.30 0.2950203
641.40 0.522956
641.50 1.708924
641.60 3.611055
641.70 5.86804
641.80 8.138802
641.90 9.893136
642.00 10.63218
642.10 10.45511
642.20 9.715065
642.30 8.835423
642.40 8.222856
642.50 8.097881
642.60 8.579071
642.70 9.600612
642.80 10.82349
642.90 11.93157
643.00 12.74476
643.10 13.08875
643.20 12.88116
643.30 12.36626
643.40 11.8235
643.50 11.18654
643.60 10.33227
643.70 9.318206
643.80 8.30409
643.90 7.38201
644.00 6.556122
644.10 5.854383
644.20 5.404073
644.30 5.324924
644.40 5.656213
644.50 6.28278
644.60 6.975315
644.70 7.560581
644.80 8.043187
644.90 8.246082
645.00 7.959558
645.10 7.315958
645.20 6.520599
645.30 5.757868
645.40 5.234826
645.50 5.193941
645.60 5.734787
645.70 6.738729
645.80 7.969225
645.90 9.432713
646.00 11.22782
646.10 12.80439
646.20 13.22791
646.30 12.23625
646.40 10.35816
646.50 8.321732
646.60 6.803455
646.70 6.248261
646.80 6.731425
646.90 7.839523
647.00 8.794839
647.10 9.119029
647.20 8.77446
647.30 7.569291
647.40 5.406252
647.50 2.96457
647.60 1.254949
647.70 0.9084097
647.80 1.920413
647.90 3.749367
648.00 5.728105
648.10 7.351231
648.20 8.357935
648.30 8.738017
648.40 8.832081
648.50 8.892687
648.60 9.071476
648.70 9.659378
648.80 10.66177
648.90 11.86499
649.00 13.05827
649.10 14.04036
649.20 14.64645
649.30 14.79271
649.40 14.411
649.50 13.59514
649.60 12.66481
649.70 11.96147
649.80 11.68994
649.90 11.91451
650.00 12.36957
650.10 12.76562
650.20 13.08099
650.30 13.27771
650.40 13.29373
650.50 13.12416
650.60 12.89901
650.70 12.72073
650.80 12.68774
650.90 12.80913
651.00 12.81078
651.10 12.44955
651.20 11.7538
651.30 10.87609
651.40 10.08896
651.50 9.63428
651.60 9.627188
651.70 10.13385
651.80 11.02762
651.90 12.10349
652.00 13.13454
652.10 13.89131
652.20 14.24363
652.30 14.12744
652.40 13.68772
652.50 13.12982
652.60 12.55047
652.70 11.92876
652.80 11.16383
652.90 10.04068
653.00 8.308402
653.10 5.868199
653.20 3.07691
653.30 0.5743938
653.40 0
653.50 0
653.60 0
653.70 0
653.80 2.083327
653.90 4.255903
654.00 5.85833
654.10 6.554799
654.20 6.436268
654.30 5.754818
654.40 4.948702
654.50 4.68701
654.60 5.391432
654.70 6.952897
654.80 9.144601
654.90 11.68034
655.00 14.00965
655.10 15.42557
655.20 15.54626
655.30 14.47796
655.40 12.70409
655.50 10.60345
655.60 8.479329
655.70 6.887645
655.80 6.328171
655.90 6.805077
656.00 8.053601
656.10 9.802268
656.20 11.58095
656.30 13.12418
656.40 14.48082
656.50 15.66988
656.60 16.59259
656.70 17.04891
656.80 16.87952
656.90 15.98328
657.00 14.43824
657.10 12.50523
657.20 10.52157
657.30 8.945241
657.40 8.076897
657.50 8.03872
657.60 9.039322
657.70 10.96594
657.80 13.38499
657.90 15.89711
658.00 18.25773
658.10 20.27239
658.20 21.7224
658.30 22.65219
658.40 23.1158
658.50 23.03969
658.60 22.50271
658.70 21.45318
658.80 19.8182
658.90 17.86394
659.00 15.90707
659.10 14.16834
659.20 12.83962
659.30 12.10739
659.40 12.00293
659.50 12.45781
659.60 13.39593
659.70 14.65576
659.80 16.01727
659.90 17.12423
660.00 17.62514
660.10 17.76861
660.20 18.07962
660.30 18.67563
660.40 19.38444
660.50 19.98412
660.60 20.40609
660.70 20.6527
660.80 20.65261
660.90 20.29671
661.00 19.58668
661.10 18.73148
661.20 17.97206
661.30 17.46379
661.40 17.26786
661.50 17.23314
661.60 17.22163
661.70 17.23965
661.80 17.33154
661.90 17.52569
662.00 17.78211
662.10 18.20113
662.20 19.0039
662.30 20.44929
662.40 22.64362
662.50 25.21337
662.60 27.52539
662.70 29.14714
662.80 29.77215
662.90 29.14167
663.00 27.18885
663.10 24.17707
663.20 20.71045
663.30 17.50035
663.40 15.179
663.50 14.03999
663.60 13.92222
663.70 14.32559
663.80 14.757
663.90 15.05149
664.00 15.22535
664.10 15.29118
664.20 15.36247
664.30 15.62205
664.40 16.23129
664.50 17.19223
664.60 18.34776
664.70 19.51508
664.80 20.34038
664.90 20.26386
665.00 19.00548
665.10 16.92663
665.20 14.64233
665.30 12.65042
665.40 11.26623
665.50 10.67203
665.60 10.85649
665.70 11.50465
665.80 12.22016
665.90 12.78576
666.00 13.15472
666.10 13.32533
666.20 13.47917
666.30 14.06363
666.40 15.4464
666.50 17.4609
666.60 19.57491
666.70 21.30267
666.80 22.3908
666.90 22.78925
667.00 22.60652
667.10 22.16215
667.20 21.80891
667.30 21.63035
667.40 21.62298
667.50 21.9957
667.60 22.81387
667.70 23.81218
667.80 24.63414
667.90 25.14145
668.00 25.34607
668.10 25.30644
668.20 25.14132
668.30 24.8834
668.40 24.44553
668.50 23.77407
668.60 22.9117
668.70 22.10401
668.80 21.31527
668.90 20.15266
669.00 18.64176
669.10 17.26224
669.20 16.50189
669.30 16.38603
669.40 16.67267
669.50 17.1789
669.60 17.73088
669.70 18.22687
669.80 18.69332
669.90 19.18571
670.00 19.75285
670.10 20.35604
670.20 21.1136
670.30 22.11932
670.40 23.12072
670.50 23.76215
670.60 23.81513
670.70 23.37722
670.80 22.62794
670.90 21.72316
671.00 20.99402
671.10 20.78351
671.20 21.23308
671.30 22.29932
671.40 23.81188
671.50 25.54352
671.60 27.16327
671.70 28.40386
671.80 29.1116
671.90 29.20742
672.00 28.72647
672.10 27.82809
672.20 26.84291
672.30 26.04396
672.40 25.49681
672.50 25.22638
672.60 25.27054
672.70 25.61056
672.80 26.13646
672.90 26.66973
673.00 27.05789
673.10 27.22549
673.20 27.17311
673.30 26.83597
673.40 26.11258
673.50 25.07543
673.60 23.97363
673.70 23.04373
673.80 22.30426
673.90 21.74103
674.00 21.53858
674.10 21.92094
674.20 23.03298
674.30 24.80099
674.40 26.69132
674.50 28.08078
674.60 28.66968
674.70 28.46047
674.80 27.68187
674.90 26.59395
675.00 25.41175
675.10 24.43307
675.20 24.11955
675.30 24.72618
675.40 26.06514
675.50 27.71265
675.60 29.16658
675.70 30.04821
675.80 30.41736
675.90 30.50918
676.00 30.3949
676.10 30.12239
676.20 29.85161
676.30 29.87561
676.40 30.35629
676.50 31.127
676.60 31.81672
676.70 32.1516
676.80 32.09142
676.90 31.68123
677.00 30.99144
677.10 30.14699
677.20 29.33272
677.30 28.84887
677.40 28.96727
677.50 29.7504
677.60 30.98254
677.70 32.04182
677.80 32.40852
677.90 32.05391
678.00 31.19338
678.10 30.09813
678.20 28.97216
678.30 28.01859
678.40 27.43181
678.50 27.32705
678.60 27.59389
678.70 27.90681
678.80 27.97444
678.90 27.66449
679.00 27.04725
679.10 26.48117
679.20 26.27718
679.30 26.3716
679.40 26.57667
679.50 26.72917
679.60 26.71583
679.70 26.45103
679.80 25.91467
679.90 25.19068
680.00 24.5314
680.10 24.10661
680.20 23.92422
680.30 24.0662
680.40 24.50147
680.50 25.04817
680.60 25.58029
680.70 26.19339
680.80 27.09826
680.90 28.48435
681.00 30.47122
681.10 32.89572
681.20 35.3145
681.30 37.1954
681.40 38.11724
681.50 37.98898
681.60 37.07709
681.70 35.66704
681.80 33.99559
681.90 32.45319
682.00 31.39721
682.10 30.97026
682.20 31.11717
682.30 31.51396
682.40 31.66987
682.50 31.3296
682.60 30.57536
682.70 29.78783
682.80 29.32693
682.90 29.1859
683.00 29.10053
683.10 28.89577
683.20 28.63312
683.30 28.33056
683.40 27.92001
683.50 27.397
683.60 26.79035
683.70 26.11027
683.80 25.32653
683.90 24.5234
684.00 23.87994
684.10 23.40034
684.20 23.01845
684.30 22.78435
684.40 22.79628
684.50 23.09168
684.60 23.69726
684.70 24.56182
684.80 25.50837
684.90 26.30073
685.00 26.64213
685.10 26.46473
685.20 25.9887
685.30 25.39378
685.40 24.7536
685.50 24.11929
685.60 23.60846
685.70 23.41883
685.80 23.60641
685.90 23.92131
686.00 23.6569
686.10 22.11145
686.20 19.30549
686.30 15.82817
686.40 12.49377
686.50 10.00602
686.60 8.826972
686.70 9.172225
686.80 10.92976
686.90 13.70515
687.00 16.90779
687.10 19.88856
687.20 22.08931
687.30 23.22179
687.40 23.50648
687.50 23.34229
687.60 22.89031
687.70 22.08046
687.80 20.89163
687.90 19.56779
688.00 18.39144
688.10 17.62394
688.20 17.38473
688.30 17.69759
688.40 18.52176
688.50 19.55691
688.60 20.43473
688.70 20.96397
688.80 21.312
688.90 21.99833
689.00 23.2866
689.10 25.15169
689.20 27.40477
689.30 29.49055
689.40 30.8913
689.50 31.42337
689.60 31.1847
689.70 30.41814
689.80 29.52684
689.90 29.09454
690.00 29.54061
690.10 30.85669
690.20 32.51487
690.30 33.67751
690.40 33.77843
690.50 32.63355
690.60 30.27967
690.70 27.21768
690.80 24.18421
690.90 21.65015
691.00 19.9341
691.10 19.20628
691.20 19.3882
691.30 20.22652
691.40 21.30193
691.50 22.31402
691.60 23.32493
691.70 24.67198
691.80 26.46727
691.90 28.3691
692.00 30.05185
692.10 31.24197
692.20 31.67347
692.30 31.27041
692.40 30.12437
692.50 28.44019
692.60 26.47317
692.70 24.54404
692.80 23.16098
692.90 22.80873
693.00 23.56732
693.10 24.93014
693.20 26.21149
693.30 27.1001
693.40 27.46143
693.50 27.12531
693.60 25.9206
693.70 23.94312
693.80 21.81479
693.90 20.27339
694.00 19.7516
694.10 20.38494
694.20 22.03574
694.30 24.26094
694.40 26.36217
694.50 27.66253
694.60 27.77853
694.70 26.68508
694.80 24.83381
694.90 23.01344
695.00 21.97448
695.10 22.08838
695.20 23.17004
695.30 24.83389
695.40 26.80491
695.50 28.76141
695.60 30.32297
695.70 31.20597
695.80 31.30127
695.90 30.76524
696.00 30.00302
696.10 29.47005
696.20 29.40087
696.30 29.69996
696.40 30.22321
696.50 30.86208
696.60 31.45374
696.70 31.83101
696.80 31.78529
696.90 31.20883
697.00 30.08969
697.10 28.38749
697.20 26.12563
697.30 23.44086
697.40 20.56518
697.50 17.83993
697.60 15.55828
697.70 13.98443
697.80 13.37886
697.90 13.87086
698.00 15.39075
698.10 17.61409
698.20 20.09246
698.30 22.36691
698.40 24.19085
698.50 25.53996
698.60 26.47327
698.70 27.15441
698.80 27.78318
698.90 28.36272
699.00 28.75918
699.10 28.89418
699.20 28.74097
699.30 28.34504
699.40 27.80872
699.50 27.32027
699.60 27.29063
699.70 28.12339
699.80 29.82108
699.90 32.09389
700.00 34.53517
700.10 36.624
700.20 37.83939
700.30 37.88133
700.40 36.76544
700.50 34.75242
700.60 32.27203
700.70 29.83392
700.80 27.81614
700.90 26.40797
701.00 25.5121
701.10 24.90322
701.20 24.49073
701.30 24.26135
701.40 24.25742
701.50 24.52535
701.60 25.09658
701.70 26.10023
701.80 27.55461
701.90 29.19576
702.00 30.63851
702.10 31.52334
702.20 31.74297
702.30 31.48941
702.40 31.03043
702.50 30.54108
702.60 30.14733
702.70 29.97373
702.80 30.12632
702.90 30.74781
703.00 31.89904
703.10 33.28025
703.20 34.49792
703.30 35.34811
703.40 35.79351
703.50 35.89593
703.60 35.63326
703.70 34.87661
703.80 33.625
703.90 32.11419
704.00 30.65851
704.10 29.45228
704.20 28.63965
704.30 28.34958
704.40 28.58134
704.50 29.19952
704.60 29.94739
704.70 30.55398
704.80 30.8192
704.90 30.66418
705.00 30.21844
705.10 29.73793
705.20 29.47545
705.30 29.58389
705.40 30.08298
705.50 30.7414
705.60 30.99478
705.70 30.48548
705.80 29.33647
705.90 27.88209
706.00 26.55467
706.10 25.79961
706.20 25.86641
706.30 26.75752
706.40 28.31712
706.50 30.37981
706.60 32.62068
706.70 34.54525
706.80 35.77049
706.90 36.32931
707.00 36.65906
707.10 36.9305
707.20 36.95371
707.30 36.62948
707.40 36.02328
707.50 35.25451
707.60 34.44163
707.70 33.66881
707.80 33.05498
707.90 32.66886
708.00 32.5504
708.10 32.78202
708.20 33.24862
708.30 33.74587
708.40 34.15014
708.50 34.37472
708.60 34.43304
708.70 34.37897
708.80 34.2592
708.90 34.1769
709.00 34.26189
709.10 34.62794
709.20 35.32806
709.30 36.21715
709.40 37.0436
709.50 37.61007
709.60 37.89305
709.70 37.94128
709.80 37.76243
709.90 37.44224
710.00 37.11401
710.10 36.9074
710.20 36.90325
710.30 37.21833
710.40 38.02507
710.50 39.38078
710.60 41.08936
710.70 42.84971
710.80 44.40002
710.90 45.49507
711.00 45.94587
711.10 45.66081
711.20 44.66724
711.30 43.12245
711.40 41.3048
711.50 39.53505
711.60 38.13725
711.70 37.32626
711.80 37.29395
711.90 38.14764
712.00 39.77075
712.10 41.83565
712.20 43.84421
712.30 45.33655
712.40 46.11924
712.50 46.15814
712.60 45.34997
712.70 43.75819
712.80 41.70734
712.90 39.61268
713.00 37.86765
713.10 36.56153
713.20 35.53197
713.30 34.65702
713.40 33.8872
713.50 33.32255
713.60 33.14049
713.70 33.51826
713.80 34.37633
713.90 35.44428
714.00 36.52293
714.10 37.31677
714.20 37.59299
714.30 37.324
714.40 36.60968
714.50 35.77026
714.60 35.09978
714.70 34.70465
714.80 34.64746
714.90 34.93044
715.00 35.4821
715.10 36.07014
715.20 36.75858
715.30 37.86693
715.40 39.46622
715.50 41.44624
715.60 43.43709
715.70 45.01952
715.80 45.91155
715.90 45.94652
716.00 45.16393
716.10 43.8213
716.20 42.35873
716.30 41.229
716.40 40.77178
716.50 41.19965
716.60 42.24177
716.70 43.30018
716.80 44.06245
716.90 44.45852
717.00 44.52366
717.10 44.2821
717.20 43.88228
717.30 43.58474
717.40 43.51587
717.50 43.71433
717.60 44.15844
717.70 44.71639
717.80 45.24283
717.90 45.5061
718.00 45.02636
718.10 43.53035
718.20 41.23279
718.30 38.58877
718.40 36.10739
718.50 34.27998
718.60 33.26979
718.70 32.83998
718.80 32.75079
718.90 32.89997
719.00 33.3683
719.10 34.20486
719.20 35.20601
719.30 36.23712
719.40 37.43925
719.50 38.85935
719.60 40.18746
719.70 40.95998
719.80 40.78702
719.90 39.48428
720.00 37.21159
720.10 34.64053
720.20 32.62004
720.30 31.88939
720.40 32.71033
720.50 34.81729
720.60 37.80739
720.70 41.13018
720.80 44.21072
720.90 46.53363
721.00 47.73407
721.10 47.76631
721.20 46.8841
721.30 45.51811
721.40 44.14759
721.50 43.1701
721.60 42.78679
721.70 42.8524
721.80 43.08435
721.90 43.35555
722.00 43.63131
722.10 43.96611
722.20 44.58295
722.30 45.61622
722.40 46.95293
722.50 48.4817
722.60 50.16624
722.70 51.94187
722.80 53.59818
722.90 54.78635
723.00 55.2471
723.10 54.94304
723.20 54.10128
723.30 53.09826
723.40 52.34881
723.50 51.95462
723.60 51.41645
723.70 50.20554
723.80 48.38193
723.90 46.08743
724.00 43.04057
724.10 38.86472
724.20 33.6921
724.30 28.38917
724.40 24.03085
724.50 21.47738
724.60 21.12128
724.70 22.90942
724.80 26.18024
724.90 30.10159
725.00 34.20316
725.10 38.25023
725.20 41.78671
725.30 44.22487
725.40 45.57035
725.50 46.51487
725.60 47.65278
725.70 48.75241
725.80 49.29396
725.90 48.9216
726.00 47.58513
726.10 45.64427
726.20 43.93157
726.30 43.23504
726.40 43.77508
726.50 45.35111
726.60 47.51011
726.70 49.75247
726.80 51.6143
726.90 52.55043
727.00 52.04969
727.10 49.90539
727.20 46.33731
727.30 41.79149
727.40 36.90453
727.50 32.58846
727.60 29.63533
727.70 28.54445
727.80 29.52317
727.90 32.29851
728.00 35.88275
728.10 38.84341
728.20 40.13567
728.30 39.44635
728.40 37.14156
728.50 34.1005
728.60 31.18803
728.70 29.33539
728.80 29.27877
728.90 30.9983
729.00 33.88861
729.10 37.11875
729.20 39.97391
729.30 41.80057
729.40 42.48882
729.50 42.61683
729.60 42.59564
729.70 42.48369
729.80 42.28344
729.90 42.31423
730.00 43.04699
730.10 44.56707
730.20 46.44857
730.30 48.05344
730.40 48.96973
730.50 48.98193
730.60 48.01393
730.70 46.32351
730.80 44.50549
730.90 43.1838
731.00 42.54053
731.10 42.14737
731.20 41.12871
731.30 38.72282
731.40 34.92707
731.50 30.43942
731.60 26.32426
731.70 23.6032
731.80 22.82508
731.90 24.10534
732.00 27.29239
732.10 31.96508
732.20 37.21057
732.30 41.633
732.40 43.94794
732.50 43.67069
732.60 41.39746
732.70 38.18724
732.80 34.89768
732.90 32.10263
733.00 30.27111
733.10 29.78505
733.20 30.75452
733.30 32.8437
733.40 35.43355
733.50 37.80091
733.60 39.17648
733.70 39.28414
733.80 38.58385
733.90 37.78722
734.00 37.38323
734.10 37.2658
734.20 37.18437
734.30 37.20071
734.40 37.35373
734.50 37.62613
734.60 38.08923
734.70 38.9662
734.80 40.26683
734.90 41.72357
735.00 43.16548
735.10 44.54858
735.20 45.92016
735.30 47.26734
735.40 48.30701
735.50 48.78621
735.60 48.41534
735.70 46.96102
735.80 44.62909
735.90 41.82219
736.00 38.9767
736.10 36.63546
736.20 35.40953
736.30 35.80179
736.40 37.85539
736.50 40.50614
736.60 41.6451
736.70 39.85671
736.80 35.75181
736.90 31.08392
737.00 27.5015
737.10 26.01017
737.20 26.85517
737.30 29.65614
737.40 33.52657
737.50 37.22448
737.60 39.51658
737.70 39.5602
737.80 37.14831
737.90 33.22565
738.00 29.60638
738.10 27.55007
738.20 27.08
738.30 27.78946
738.40 29.50198
738.50 32.01822
738.60 35.08379
738.70 38.38997
738.80 41.55464
738.90 44.15932
739.00 45.80525
739.10 46.21411
739.20 45.35479
739.30 43.20423
739.40 40.00368
739.50 36.55662
739.60 33.6255
739.70 31.44113
739.80 29.9086
739.90 29.06561
740.00 28.93125
740.10 29.42292
740.20 30.40625
740.30 31.62605
740.40 32.78679
740.50 33.6534
740.60 34.03692
740.70 34.16962
740.80 34.46725
740.90 34.92219
741.00 35.34635
741.10 35.78528
741.20 36.48249
741.30 37.5413
741.40 38.76509
741.50 39.85346
741.60 40.67581
741.70 41.34631
741.80 41.92953
741.90 42.2517
742.00 42.11121
742.10 41.37249
742.20 40.08383
742.30 38.48957
742.40 37.0265
742.50 36.11526
742.60 35.7806
742.70 35.80742
742.80 36.03084
742.90 36.38737
743.00 36.84073
743.10 37.2012
743.20 37.2923
743.30 37.14273
743.40 36.87369
743.50 36.57135
743.60 36.2244
743.70 35.83731
743.80 35.32046
743.90 34.52026
744.00 33.28376
744.10 31.3583
744.20 28.75746
744.30 25.85857
744.40 23.00591
744.50 20.47794
744.60 18.56515
744.70 17.52999
744.80 17.5623
744.90 18.67896
745.00 20.73942
745.10 23.46493
745.20 26.47531
745.30 29.31806
745.40 31.7341
745.50 33.79682
745.60 35.51717
745.70 36.64979
745.80 37.17563
745.90 37.39907
746.00 37.45244
746.10 37.16033
746.20 36.20294
746.30 34.32685
746.40 31.43818
746.50 27.64948
746.60 23.35245
746.70 19.00235
746.80 15.28209
746.90 13.41346
747.00 14.1048
747.10 17.15923
747.20 21.94427
747.30 27.41094
747.40 32.42732
747.50 35.94155
747.60 37.02822
747.70 35.40994
747.80 31.70373
747.90 26.95649
748.00 22.17438
748.10 18.52797
748.20 16.89349
748.30 17.0436
748.40 18.55147
748.50 21.00705
748.60 23.51304
748.70 25.22314
748.80 25.57565
748.90 24.53869
749.00 22.78779
749.10 21.03872
749.20 19.6889
749.30 19.01552
749.40 19.25931
749.50 20.40733
749.60 22.13275
749.70 23.90341
749.80 25.14834
749.90 25.58336
750.00 25.20862
750.10 24.22668
750.20 23.05527
750.30 22.06582
750.40 21.3885
750.50 21.17417
750.60 21.64696
750.70 22.92815
750.80 24.91236
750.90 27.30485
751.00 29.76699
751.10 31.98802
751.20 33.66968
751.30 34.48715
751.40 34.27781
751.50 33.05061
751.60 30.95165
751.70 28.32284
751.80 25.5703
751.90 22.74481
752.00 19.5544
752.10 15.76315
752.20 11.63671
752.30 7.840588
752.40 4.924562
752.50 3.284593
752.60 2.853814
752.70 3.482221
752.80 5.115978
752.90 7.277549
753.00 9.329005
753.10 10.80462
753.20 11.51332
753.30 11.63768
753.40 11.6604
753.50 12.0974
753.60 13.08294
753.70 14.38818
753.80 15.74113
753.90 16.88417
754.00 17.89863
754.10 18.9429
754.20 19.96555
754.30 21.04038
754.40 22.2498
754.50 23.57518
754.60 24.92002
754.70 26.14678
754.80 27.06971
754.90 27.49741
755.00 27.32832
755.10 26.5555
755.20 25.28849
755.30 23.50479
755.40 21.1157
755.50 18.2769
755.60 15.32295
755.70 12.68351
755.80 11.03308
755.90 10.80206
756.00 11.79931
756.10 13.56052
756.20 15.63319
756.30 17.64146
756.40 19.24207
756.50 20.17841
756.60 20.26051
756.70 19.39589
756.80 17.43639
756.90 14.46605
757.00 10.94871
757.10 7.751887
757.20 5.566993
757.30 4.622311
757.40 5.108352
757.50 6.921007
757.60 9.593428
757.70 12.39805
757.80 14.61119
757.90 15.63872
758.00 15.05392
758.10 12.89281
758.20 9.823395
758.30 6.684447
758.40 4.171344
758.50 2.634848
758.60 2.246524
758.70 3.079085
758.80 4.961484
758.90 7.768908
759.00 11.20308
759.10 14.68414
759.20 17.48467
759.30 18.62568
759.40 17.20605
759.50 13.12746
759.60 7.27116
759.70 0.8777529
759.80 0
759.90 0
760.00 0
760.10 0
760.20 0
760.30 0
760.40 0
760.50 1.212413
760.60 6.212254
760.70 10.18987
760.80 13.17507
760.90 15.08609
761.00 15.4114
761.10 13.90124
761.20 11.27782
761.30 8.327575
761.40 5.466867
761.50 3.328516
761.60 2.348949
761.70 2.394857
761.80 2.976156
761.90 3.540986
762.00 3.540416
762.10 2.706564
762.20 1.078334
762.30 0
762.40 0
762.50 0
762.60 0
762.70 0
762.80 0
762.90 0
763.00 0
763.10 0
763.20 0
763.30 0
763.40 0
763.50 2.04305
763.60 3.821365
763.70 4.159818
763.80 3.358301
763.90 2.342137
764.00 2.110586
764.10 2.915548
764.20 4.226647
764.30 5.337847
764.40 5.752439
764.50 5.23628
764.60 3.899329
764.70 2.133
764.80 0.5361377
764.90 0
765.00 0
765.10 0
765.20 0
765.30 0.233475
765.40 0.5479133
765.50 0.1009809
765.60 0
765.70 0
765.80 0
765.90 0
766.00 0
766.10 0
766.20 0
766.30 0
766.40 0
766.50 0
766.60 0
766.70 0
766.80 1.687732
766.90 3.307525
767.00 4.026378
767.10 3.83556
767.20 2.718691
767.30 0.8242562
767.40 0
767.50 0
767.60 0
767.70 0
767.80 0
767.90 0
768.00 0
768.10 0
768.20 0
768.30 0
768.40 0
768.50 0
768.60 0.03991914
768.70 0
768.80 0
768.90 0
769.00 0
769.10 0
769.20 0
769.30 0
769.40 0
769.50 0.5257392
769.60 0.8982949
769.70 0.8632977
769.80 0.628572
769.90 0.4310418
770.00 0.4438508
770.10 0.7083322
770.20 1.157326
770.30 1.671032
770.40 2.165376
770.50 2.718318
770.60 3.308666
770.70 3.777016
770.80 3.954473
770.90 3.349242
771.00 1.418048
771.10 0
771.20 0
771.30 0
771.40 0
771.50 0
771.60 0
771.70 0
771.80 0
771.90 0
772.00 0
772.10 0
772.20 0
772.30 0
772.40 0
772.50 0
772.60 0
772.70 0
772.80 0
772.90 0
773.00 0
773.10 0
773.20 1.60298
773.30 3.759754
773.40 5.688493
773.50 7.676807
773.60 10.04096
773.70 12.53012
773.80 14.67737
773.90 16.11244
774.00 16.53485
774.10 15.72885
774.20 13.82325
774.30 11.41681
774.40 9.333989
774.50 7.611409
774.60 4.620226
774.70 0
774.80 0
774.90 0
775.00 0
775.10 0
775.20 0
775.30 0
775.40 0
775.50 0
775.60 0
775.70 0
775.80 6.604251
775.90 11.50371
776.00 12.37755
776.10 11.53206
776.20 10.69165
776.30 10.371
776.40 10.32258
776.50 10.36801
776.60 10.4697
776.70 10.87609
776.80 11.83452
776.90 13.09685
777.00 14.02493
777.10 14.11588
777.20 13.35924
777.30 12.0032
777.40 10.36989
777.50 8.822566
777.60 7.740585
777.70 7.409309
777.80 7.872071
777.90 9.034566
778.00 10.71618
778.10 12.3897
778.20 13.50924
778.30 13.97776
778.40 14.13094
778.50 14.32705
778.60 14.61765
778.70 15.1144
778.80 15.83341
778.90 16.22197
779.00 15.02429
779.10 10.92996
779.20 3.927144
779.30 0
779.40 0
779.50 0
779.60 0
779.70 0
779.80 0
779.90 0
780.00 0
780.10 4.179616
780.20 11.77598
780.30 16.44265
780.40 18.1409
780.50 17.43896
780.60 15.04491
780.70 11.91772
780.80 9.248127
780.90 8.166535
781.00 9.122221
781.10 11.99401
781.20 16.48141
781.30 22.10507
781.40 28.35155
781.50 33.99213
781.60 37.05495
781.70 35.81037
781.80 29.75722
781.90 20.13059
782.00 9.17554
782.10 0
782.20 0
782.30 0
782.40 0
782.50 0.8895764
782.60 9.963011
782.70 19.1343
782.80 26.08754
782.90 29.41425
783.00 29.29442
783.10 27.00348
783.20 24.14672
783.30 22.09723
783.40 21.48181
783.50 22.05511
783.60 23.29268
783.70 24.461
783.80 24.6451
783.90 23.60121
784.00 21.70477
784.10 19.71553
784.20 18.34662
784.30 17.92519
784.40 18.52346
784.50 20.24383
784.60 23.45585
784.70 28.10089
784.80 33.30032
784.90 37.36607
785.00 37.912
785.10 34.12594
785.20 27.59851
785.30 20.29774
785.40 13.84757
785.50 9.493553
785.60 7.92878
785.70 9.068752
785.80 12.18782
785.90 16.41107
786.00 20.52976
786.10 23.37719
786.20 24.49937
786.30 24.44696
786.40 24.88651
786.50 26.88174
786.60 29.41891
786.70 30.86895
786.80 30.58733
786.90 28.85466
787.00 26.55408
787.10 24.99885
787.20 25.22361
787.30 27.41302
787.40 31.16958
787.50 35.81775
787.60 40.50267
787.70 44.4083
787.80 46.92391
787.90 47.78384
788.00 47.58023
788.10 47.45748
788.20 48.23852
788.30 50.16574
788.40 52.78199
788.50 55.31343
788.60 57.0298
788.70 57.32031
788.80 55.98291
788.90 53.31547
789.00 49.90095
789.10 46.42001
789.20 43.44907
789.30 41.45468
789.40 40.83937
789.50 41.66381
789.60 43.44508
789.70 45.27397
789.80 46.41383
789.90 46.73305
790.00 46.40595
790.10 45.61504
790.20 44.56771
790.30 43.47471
790.40 42.54431
790.50 42.01494
790.60 42.35454
790.70 43.63093
790.80 44.67469
790.90 43.40747
791.00 37.6542
791.10 27.38117
791.20 15.13383
791.30 3.728107
791.40 0
791.50 0
791.60 0
791.70 3.884548
791.80 15.01263
791.90 26.85236
792.00 36.74432
792.10 42.77204
792.20 44.77163
792.30 44.34492
792.40 44.104
792.50 45.4634
792.60 47.95876
792.70 50.92034
792.80 53.61474
792.90 55.27502
793.00 55.58116
793.10 54.69629
793.20 53.14297
793.30 51.61188
793.40 50.66347
793.50 50.59847
793.60 51.44335
793.70 53.06216
793.80 55.16182
793.90 57.16425
794.00 58.3791
794.10 58.28255
794.20 56.70173
794.30 53.6878
794.40 49.429
794.50 44.35746
794.60 39.11632
794.70 34.39251
794.80 30.78492
794.90 28.78843
795.00 28.67964
795.10 30.25379
795.20 33.04485
795.30 36.67846
795.40 40.81299
795.50 45.01129
795.60 48.87912
795.70 52.05544
795.80 54.24101
795.90 55.35987
796.00 55.33184
796.10 53.77991
796.20 50.89425
796.30 47.64081
796.40 45.00293
796.50 44.01322
796.60 45.25026
796.70 48.56015
796.80 53.46181
796.90 59.19857
797.00 64.82893
797.10 69.59636
797.20 73.0509
797.30 74.96892
797.40 75.49863
797.50 75.38823
797.60 75.13876
797.70 74.77303
797.80 74.51731
797.90 74.42007
798.00 74.65113
798.10 75.55031
798.20 77.02685
798.30 78.77079
798.40 80.51483
798.50 82.07397
798.60 82.95895
798.70 82.6605
798.80 81.05606
798.90 78.30876
799.00 74.62955
799.10 70.38232
799.20 66.12987
799.30 62.58773
799.40 60.29386
799.50 59.44699
799.60 60.20002
799.70 62.29638
799.80 64.98687
799.90 67.4978
800.00 69.53478
800.10 71.01842
800.20 71.89378
800.30 72.04145
800.40 71.58189
800.50 71.01616
800.60 70.97029
800.70 71.80138
800.80 73.5075
800.90 75.94613
801.00 78.62692
801.10 80.92133
801.20 82.34751
801.30 82.79977
801.40 82.5061
801.50 81.73147
801.60 80.73709
801.70 80.06569
801.80 80.34723
801.90 81.70795
802.00 83.71337
802.10 85.70218
802.20 86.44365
802.30 84.45068
802.40 79.30935
802.50 72.00151
802.60 64.41425
802.70 58.27655
802.80 54.56764
802.90 53.58924
803.00 55.21006
803.10 59.15632
803.20 64.98865
803.30 71.87907
803.40 78.59665
803.50 83.93893
803.60 87.52444
803.70 89.78887
803.80 91.16857
803.90 91.80917
804.00 91.55437
804.10 90.38046
804.20 88.80549
804.30 87.70871
804.40 87.74274
804.50 89.05394
804.60 91.3799
804.70 94.28002
804.80 97.29907
804.90 100.1111
805.00 102.6381
805.10 104.8044
805.20 106.3906
805.30 107.1381
805.40 106.9349
805.50 105.8224
805.60 104.0413
805.70 101.8045
805.80 99.10786
805.90 95.91797
806.00 92.34462
806.10 88.9399
806.20 86.56179
806.30 85.86472
806.40 87.09013
806.50 90.11398
806.60 94.3781
806.70 98.99587
806.80 103.0719
806.90 105.8036
807.00 106.4459
807.10 104.9788
807.20 102.3962
807.30 100.0759
807.40 99.27933
807.50 100.5429
807.60 103.4956
807.70 107.1602
807.80 110.2844
807.90 111.6629
808.00 110.6083
808.10 107.254
808.20 102.4174
808.30 97.34514
808.40 93.42728
808.50 91.67868
808.60 92.29417
808.70 94.74129
808.80 98.15988
808.90 101.6106
809.00 104.4129
809.10 106.156
809.20 106.5429
809.30 105.62
809.40 103.8873
809.50 101.8517
809.60 99.84778
809.70 98.16616
809.80 96.83985
809.90 95.82477
810.00 95.24078
810.10 95.11184
810.20 95.07704
810.30 94.77465
810.40 94.11155
810.50 93.36184
810.60 93.20215
810.70 94.05684
810.80 95.79008
810.90 98.29535
811.00 101.5267
811.10 105.2649
811.20 109.2871
811.30 113.4565
811.40 117.6513
811.50 121.694
811.60 125.5206
811.70 129.0564
811.80 131.9672
811.90 133.7473
812.00 133.9869
812.10 132.8114
812.20 130.8472
812.30 128.6589
812.40 126.7597
812.50 125.7051
812.60 125.6712
812.70 126.2842
812.80 127.1673
812.90 127.9643
813.00 128.1188
813.10 127.2874
813.20 125.428
813.30 122.988
813.40 120.8642
813.50 119.685
813.60 119.6977
813.70 120.8569
813.80 122.6248
813.90 124.1083
814.00 124.7296
814.10 124.3777
814.20 123.1318
814.30 121.7493
814.40 121.1733
814.50 121.7904
814.60 123.8463
814.70 127.2429
814.80 131.3612
814.90 135.5663
815.00 139.2218
815.10 141.8059
815.20 143.23
815.30 143.7588
815.40 143.7238
815.50 143.4293
815.60 143.1284
815.70 142.675
815.80 141.9831
815.90 141.296
816.00 140.7768
816.10 140.4643
816.20 140.3746
816.30 140.5575
816.40 141.0268
816.50 141.8383
816.60 143.1245
816.70 144.836
816.80 146.7563
816.90 148.6348
817.00 150.1543
817.10 151.0543
817.20 151.1524
817.30 150.3296
817.40 148.7097
817.50 146.6671
817.60 144.4989
817.70 142.3061
817.80 140.1327
817.90 137.941
818.00 135.6393
818.10 133.3545
818.20 131.4154
818.30 129.9993
818.40 128.7705
818.50 127.0302
818.60 124.2013
818.70 120.1703
818.80 115.4408
818.90 110.6129
819.00 105.9176
819.10 101.7408
819.20 98.79382
819.30 97.79957
819.40 99.37744
819.50 103.3106
819.60 108.3716
819.70 113.2221
819.80 117.3313
819.90 120.8876
820.00 124.0158
820.10 126.7238
820.20 128.9466
820.30 130.8768
820.40 133.3285
820.50 136.8663
820.60 141.3265
820.70 146.0207
820.80 150.0399
820.90 153.1535
821.00 155.6414
821.10 157.5188
821.20 158.5847
821.30 158.8044
821.40 158.5574
821.50 158.2532
821.60 158.0082
821.70 157.621
821.80 156.8766
821.90 155.8734
822.00 154.7919
822.10 153.8652
822.20 153.353
822.30 153.3334
822.40 154.0232
822.50 155.8346
822.60 158.8135
822.70 162.5687
822.80 166.7779
822.90 171.0605
823.00 174.7574
823.10 177.3242
823.20 178.3445
823.30 177.5607
823.40 175.2249
823.50 172.0294
823.60 168.7106
823.70 165.9326
823.80 164.1082
823.90 163.1803
824.00 162.9014
824.10 162.7686
824.20 162.0152
824.30 160.3709
824.40 158.1825
824.50 156.044
824.60 154.7098
824.70 154.8984
824.80 156.9668
824.90 160.5818
825.00 164.8179
825.10 168.519
825.20 170.6094
825.30 170.4897
825.40 168.0955
825.50 164.1724
825.60 160.1545
825.70 157.3512
825.80 156.6976
825.90 158.6537
826.00 162.6914
826.10 167.7257
826.20 172.8884
826.30 177.6002
826.40 181.509
826.50 184.248
826.60 185.4809
826.70 185.2152
826.80 183.8264
826.90 181.7572
827.00 179.4848
827.10 177.4753
827.20 175.9606
827.30 175.0193
827.40 174.8214
827.50 175.2104
827.60 175.0086
827.70 172.28
827.80 165.7781
827.90 156.1625
828.00 145.4004
828.10 135.8705
828.20 129.6685
828.30 127.5642
828.40 128.1439
828.50 128.7375
828.60 127.5038
828.70 123.8012
828.80 118.0961
828.90 111.8294
829.00 106.9819
829.10 106.0222
829.20 110.4963
829.30 119.4894
829.40 130.0967
829.50 138.553
829.60 141.9723
829.70 139.5146
829.80 133.2699
829.90 127.2627
830.00 124.5602
830.10 126.6312
830.20 133.6813
830.30 144.6805
830.40 157.785
830.50 170.3037
830.60 179.1277
830.70 182.3517
830.80 180.4008
830.90 175.4803
831.00 170.0892
831.10 166.1085
831.20 164.1372
831.30 163.7764
831.40 164.4789
831.50 165.9073
831.60 167.8039
831.70 169.6499
831.80 170.9818
831.90 171.9698
832.00 173.3464
832.10 175.7391
832.20 179.0536
832.30 182.6084
832.40 185.644
832.50 188.0238
832.60 190.2339
832.70 192.7617
832.80 196.0076
832.90 200.0485
833.00 204.4426
833.10 208.618
833.20 212.1335
833.30 214.8078
833.40 216.6596
833.50 217.6797
833.60 217.7737
833.70 217.1193
833.80 216.1249
833.90 214.5317
834.00 210.4999
834.10 201.5569
834.20 187.2318
834.30 169.8887
834.40 153.1832
834.50 140.6621
834.60 134.9608
834.70 136.8529
834.80 145.2088
834.90 157.7411
835.00 171.9159
835.10 184.8753
835.20 193.5351
835.30 196.4052
835.40 195.2874
835.50 193.9579
835.60 195.0265
835.70 198.5562
835.80 203.0354
835.90 206.9358
836.00 209.3988
836.10 210.2167
836.20 209.7693
836.30 208.7921
836.40 207.8194
836.50 207.4963
836.60 208.6784
836.70 211.5715
836.80 215.4201
836.90 219.1904
837.00 221.9947
837.10 223.4194
837.20 223.8175
837.30 223.5889
837.40 222.639
837.50 220.9271
837.60 218.5962
837.70 215.3433
837.80 210.7974
837.90 205.0427
838.00 198.5662
838.10 192.2816
838.20 187.2352
838.30 184.3026
838.40 183.9694
838.50 186.1664
838.60 190.3992
838.70 195.9928
838.80 202.2246
838.90 208.4908
839.00 214.2521
839.10 219.1707
839.20 223.3394
839.30 226.9429
839.40 228.9984
839.50 227.3357
839.60 220.0742
839.70 206.6656
839.80 188.8234
839.90 170.0352
840.00 154.0684
840.10 143.8425
840.20 140.6552
840.30 144.1319
840.40 152.7786
840.50 164.5325
840.60 176.8401
840.70 187.0526
840.80 194.1181
840.90 198.9239
841.00 203.2173
841.10 208.6295
841.20 215.176
841.30 221.6611
841.40 227.1594
841.50 231.2541
841.60 233.9477
841.70 235.5492
841.80 236.5997
841.90 237.447
842.00 238.0583
842.10 238.4239
842.20 238.5999
842.30 238.4107
842.40 237.2722
842.50 234.1197
842.60 228.6684
842.70 221.984
842.80 215.2073
842.90 209.3908
843.00 205.7193
843.10 204.8629
843.20 206.6956
843.30 210.7517
843.40 216.3839
843.50 222.3494
843.60 227.0021
843.70 229.1022
843.80 228.327
843.90 225.7046
844.00 222.7201
844.10 220.0697
844.20 217.9646
844.30 216.2038
844.40 214.4204
844.50 212.6552
844.60 211.3405
844.70 211.0725
844.80 211.7274
844.90 212.1665
845.00 211.6391
845.10 210.3292
845.20 208.6462
845.30 207.0185
845.40 205.9296
845.50 205.8018
845.60 206.8239
845.70 209.1483
845.80 212.6992
845.90 216.8924
846.00 220.825
846.10 223.4792
846.20 223.5743
846.30 220.5533
846.40 215.1839
846.50 208.7095
846.60 202.5321
846.70 197.8659
846.80 195.5884
846.90 196.1697
847.00 199.2917
847.10 204.0538
847.20 209.339
847.30 214.0445
847.40 217.2205
847.50 218.1186
847.60 217.1912
847.70 215.8643
847.80 215.0309
847.90 214.8986
848.00 215.4761
848.10 216.6944
848.20 218.313
848.30 220.0398
848.40 221.8589
848.50 223.8141
848.60 225.8851
848.70 227.7118
848.80 228.5479
848.90 227.806
849.00 225.2884
849.10 221.025
849.20 215.3135
849.30 209.0928
849.40 203.709
849.50 200.1647
849.60 198.768
849.70 199.4496
849.80 201.9269
849.90 205.5906
850.00 209.6472
850.10 213.5858
850.20 217.0986
850.30 219.806
850.40 221.6928
850.50 222.8084
850.60 222.594
850.70 220.1442
850.80 214.8332
850.90 207.1763
851.00 198.7336
851.10 191.0585
851.20 185.261
851.30 182.0602
851.40 181.296
851.50 181.4934
851.60 180.6437
851.70 177.1049
851.80 169.9087
851.90 159.4608
852.00 147.5961
852.10 136.6674
852.20 128.9457
852.30 125.9962
852.40 128.2487
852.50 135.0411
852.60 144.9367
852.70 156.0358
852.80 166.6912
852.90 176.3425
853.00 185.2578
853.10 193.9513
853.20 202.6369
853.30 211.1336
853.40 219.2931
853.50 227.09
853.60 234.1726
853.70 239.9041
853.80 243.7453
853.90 245.5326
854.00 245.8786
854.10 245.923
854.20 246.6001
854.30 248.1953
854.40 250.5349
854.50 252.8469
854.60 254.1333
854.70 253.6269
854.80 250.936
854.90 246.2369
855.00 240.6075
855.10 235.6585
855.20 232.6709
855.30 232.4627
855.40 235.0923
855.50 239.8148
855.60 245.3083
855.70 250.1099
855.80 253.1346
855.90 254.3061
856.00 254.358
856.10 254.0172
856.20 253.857
856.30 254.3052
856.40 255.1425
856.50 255.5855
856.60 255.2929
856.70 254.5703
856.80 253.8807
856.90 253.6214
857.00 254.2523
857.10 255.9648
857.20 258.3849
857.30 260.9075
857.40 262.88
857.50 263.9188
857.60 263.9178
857.70 262.7974
857.80 260.7969
857.90 258.6101
858.00 257.0871
858.10 256.7828
858.20 257.7376
858.30 259.7911
858.40 262.7546
858.50 266.484
858.60 270.5446
858.70 274.0746
858.80 276.5913
858.90 278.0815
859.00 278.4245
859.10 277.6434
859.20 276.2215
859.30 274.6522
859.40 272.8792
859.50 270.7894
859.60 268.8052
859.70 267.412
859.80 266.8626
859.90 267.2987
860.00 268.9544
860.10 272.1739
860.20 276.8166
860.30 281.9328
860.40 286.2618
860.50 288.5343
860.60 287.6003
860.70 282.9283
860.80 275.0691
860.90 265.1008
861.00 254.0137
861.10 242.6401
861.20 231.5364
861.30 220.7468
861.40 209.842
861.50 198.4083
861.60 186.3406
861.70 173.9761
861.80 162.1099
861.90 151.6382
862.00 143.3353
862.10 137.8203
862.20 135.345
862.30 135.6543
862.40 138.0844
862.50 141.5828
862.60 144.8734
862.70 147.0947
862.80 147.8382
862.90 146.8602
863.00 144.0435
863.10 139.8103
863.20 135.2632
863.30 131.6247
863.40 129.7849
863.50 130.1813
863.60 132.7968
863.70 137.1049
863.80 142.1363
863.90 146.5433
864.00 148.9672
864.10 148.8944
864.20 146.9827
864.30 144.4488
864.40 142.5995
864.50 142.2474
864.60 143.2507
864.70 144.6863
864.80 145.2978
864.90 144.3394
865.00 142.0615
865.10 139.0277
865.20 135.6975
865.30 133.2854
865.40 133.6745
865.50 137.9056
865.60 145.7767
865.70 155.6918
865.80 165.1752
865.90 172.303
866.00 176.4055
866.10 178.22
866.20 179.1849
866.30 180.1219
866.40 180.8412
866.50 181.4074
866.60 182.3665
866.70 183.5863
866.80 184.2082
866.90 183.6349
867.00 182.0103
867.10 180.2998
867.20 179.7252
867.30 180.9332
867.40 183.6692
867.50 187.0484
867.60 189.9408
867.70 191.2021
867.80 190.2045
867.90 186.9698
868.00 182.0827
868.10 176.6277
868.20 172.1136
868.30 169.9084
868.40 170.5278
868.50 173.7281
868.60 178.8542
868.70 185.042
868.80 191.2009
868.90 195.8476
869.00 197.5455
869.10 195.8151
869.20 191.0906
869.30 184.0596
869.40 175.635
869.50 167.241
869.60 160.3119
869.70 155.8105
869.80 154.3138
869.90 155.8561
870.00 159.8498
870.10 164.9229
870.20 169.3174
870.30 171.9102
870.40 172.7382
870.50 172.3634
870.60 171.2616
870.70 169.8123
870.80 168.3104
870.90 166.8804
871.00 165.4071
871.10 163.725
871.20 161.6516
871.30 159.1752
871.40 156.4906
871.50 153.9939
871.60 152.2569
871.70 151.6822
871.80 152.2162
871.90 153.5281
872.00 155.1651
872.10 156.7821
872.20 158.2973
872.30 159.9019
872.40 162.072
872.50 164.9216
872.60 167.7582
872.70 169.827
872.80 170.7768
872.90 170.4938
873.00 169.1339
873.10 167.0733
873.20 164.8453
873.30 163.0281
873.40 162.222
873.50 162.825
873.60 164.8379
873.70 167.9176
873.80 171.5544
873.90 175.4536
874.00 179.7988
874.10 184.6045
874.20 189.4062
874.30 193.4951
874.40 196.1541
874.50 197.0332
874.60 196.2214
874.70 193.9551
874.80 190.6731
874.90 187.0283
875.00 183.2937
875.10 179.8654
875.20 177.4893
875.30 176.6662
875.40 177.6117
875.50 179.8115
875.60 181.5637
875.70 181.2275
875.80 178.3101
875.90 172.7405
876.00 165.2351
876.10 157.8736
876.20 152.7754
876.30 150.9515
876.40 150.8602
876.50 149.71
876.60 146.5312
876.70 142.0402
876.80 137.979
876.90 136.7009
877.00 140.7685
877.10 151.7049
877.20 168.8312
877.30 190.0166
877.40 211.5438
877.50 228.6815
877.60 237.2316
877.70 235.4782
877.80 226.6488
877.90 216.0566
878.00 206.8472
878.10 200.1851
878.20 195.8575
878.30 193.1803
878.40 191.7522
878.50 191.2803
878.60 191.6007
878.70 192.6652
878.80 193.5312
878.90 192.5407
879.00 189.8393
879.10 186.732
879.20 184.5801
879.30 184.6293
879.40 187.4458
879.50 193.0156
879.60 200.4328
879.70 208.058
879.80 214.0838
879.90 217.0154
880.00 215.9541
880.10 210.7615
880.20 203.2404
880.30 196.5253
880.40 192.1535
880.50 190.0223
880.60 189.4072
880.70 189.5917
880.80 190.3524
880.90 191.6682
881.00 193.9997
881.10 198.2078
881.20 204.9338
881.30 214.1671
881.40 225.1665
881.50 236.7175
881.60 247.3912
881.70 255.7163
881.80 260.6772
881.90 261.8635
882.00 259.4762
882.10 254.4339
882.20 246.4726
882.30 232.9835
882.40 211.0973
882.50 181.308
882.60 147.1311
882.70 112.9418
882.80 84.15838
882.90 65.82683
883.00 60.98029
883.10 70.37558
883.20 91.57117
883.30 119.4116
883.40 147.7959
883.50 170.6721
883.60 185.0855
883.70 192.9332
883.80 198.4828
883.90 204.0927
884.00 210.168
884.10 216.9755
884.20 223.9378
884.30 230.0998
884.40 234.3453
884.50 234.8217
884.60 230.6852
884.70 223.7143
884.80 216.4114
884.90 210.4649
885.00 206.8931
885.10 206.1829
885.20 208.3117
885.30 213.0335
885.40 219.8209
885.50 227.5593
885.60 234.8184
885.70 240.2651
885.80 243.393
885.90 245.1403
886.00 246.791
886.10 248.5064
886.20 249.8677
886.30 250.707
886.40 250.9622
886.50 250.3524
886.60 248.6058
886.70 245.499
886.80 241.0058
886.90 235.4807
887.00 229.1345
887.10 222.6307
887.20 217.4731
887.30 215.2172
887.40 217.3436
887.50 224.8882
887.60 237.7544
887.70 254.6177
887.80 273.5288
887.90 291.9895
888.00 307.621
888.10 318.7261
888.20 323.9121
888.30 323.1993
888.40 318.6276
888.50 312.7466
888.60 307.2984
888.70 303.4818
888.80 301.7686
888.90 301.5864
889.00 302.0885
889.10 302.3056
889.20 300.2934
889.30 294.727
889.40 285.6945
889.50 274.322
889.60 262.9588
889.70 254.1898
889.80 249.4427
889.90 248.6225
890.00 250.7363
890.10 254.1743
890.20 257.6984
890.30 260.5464
890.40 261.7425
890.50 260.6879
890.60 258.0168
890.70 255.0121
890.80 252.9574
890.90 252.8459
891.00 255.0384
891.10 259.1879
891.20 264.5802
891.30 270.5579
891.40 276.8858
891.50 283.698
891.60 290.2614
891.70 293.3887
891.80 290.8335
891.90 283.9557
892.00 275.0041
892.10 265.5653
892.20 256.7356
892.30 249.6369
892.40 245.2532
892.50 244.051
892.60 245.9485
892.70 250.5497
892.80 256.7993
892.90 263.0624
893.00 268.2122
893.10 273.4836
893.20 279.6503
893.30 284.5023
893.40 285.787
893.50 282.9997
893.60 276.5398
893.70 266.4297
893.80 252.6189
893.90 235.585
894.00 216.6028
894.10 197.5177
894.20 180.4681
894.30 167.1683
894.40 158.5313
894.50 155.169
894.60 157.4439
894.70 165.3611
894.80 178.1535
894.90 193.9755
895.00 210.2987
895.10 225.1245
895.20 238.1222
895.30 249.9673
895.40 259.9119
895.50 266.7005
895.60 270.53
895.70 272.4216
895.80 273.6843
895.90 275.0856
896.00 276.7311
896.10 278.3296
896.20 279.4452
896.30 279.7679
896.40 279.222
896.50 277.7574
896.60 275.0832
896.70 271.0222
896.80 266.9811
896.90 264.8592
897.00 265.281
897.10 267.9692
897.20 271.8743
897.30 275.8485
897.40 279.1976
897.50 281.5368
897.60 282.8459
897.70 283.3927
897.80 283.3673
897.90 283.1794
898.00 283.3788
898.10 284.5156
898.20 287.4248
898.30 292.6384
898.40 299.8605
898.50 308.2828
898.60 317.0144
898.70 324.5792
898.80 329.4201
898.90 330.9971
899.00 329.3529
899.10 324.8181
899.20 318.4091
899.30 311.0825
899.40 303.5457
899.50 297.0065
899.60 292.6751
899.70 291.0891
899.80 292.0021
899.90 295.3105
900.00 296.7824
900.10 298.2544
900.20 299.7263
900.30 301.1983
900.40 302.6702
900.50 304.1421
900.60 305.6141
900.70 307.086
900.80 308.5579
900.90 310.0299
901.00 311.5018
901.10 312.9737
901.20 314.4457
901.30 315.9176
901.40 317.3896
901.50 318.8615
901.60 320.3334
901.70 321.8054
901.80 323.2773
901.90 324.7492
902.00 326.2212
902.10 327.6931
902.20 329.165
902.30 330.637
902.40 332.1089
902.50 333.5809
902.60 335.0528
902.70 336.5247
902.80 337.9967
902.90 339.4686
903.00 340.9405
903.10 342.4125
903.20 343.8844
903.30 345.211
903.40 346.3194
903.50 347.4279
903.60 348.5364
903.70 349.6448
903.80 350.7533
903.90 351.8618
904.00 352.9703
904.10 354.0787
904.20 355.1872
904.30 356.2957
904.40 357.4042
904.50 358.5126
904.60 359.6211
904.70 360.7296
904.80 361.838
904.90 362.9465
905.00 364.055
905.10 365.1635
905.20 366.2719
905.30 367.3804
905.40 368.4889
905.50 369.5973
905.60 370.7058
905.70 371.8143
905.80 372.9228
905.90 374.0312
906.00 375.1397
906.10 376.2482
906.20 377.3567
906.30 378.4651
906.40 379.5736
906.50 380.6821
906.60 381.7905
906.70 382.7498
906.80 382.3659
906.90 381.982
907.00 381.5981
907.10 381.2142
907.20 380.8303
907.30 380.4464
907.40 380.0626
907.50 379.6787
907.60 379.2948
907.70 378.9109
907.80 378.527
907.90 378.1431
908.00 377.7592
908.10 377.3753
908.20 376.9914
908.30 376.6075
908.40 376.2237
908.50 375.8398
908.60 375.4559
908.70 375.072
908.80 374.6881
908.90 374.3042
909.00 373.9203
909.10 373.5364
909.20 373.1525
909.30 372.7686
909.40 372.3848
909.50 372.0009
909.60 371.617
909.70 371.2331
909.80 370.8492
909.90 370.4653
910.00 370.0814
910.10 369.6975
910.20 370.0752
910.30 370.9197
910.40 371.7641
910.50 372.6086
910.60 373.4531
910.70 374.2975
910.80 375.142
910.90 375.9865
911.00 376.8309
911.10 377.6754
911.20 378.5199
911.30 379.3643
911.40 380.2088
911.50 381.0533
911.60 381.8977
911.70 382.7422
911.80 383.5866
911.90 384.4311
912.00 385.2756
912.10 386.12
912.20 386.9645
912.30 387.809
912.40 388.6534
912.50 389.4979
912.60 390.3424
912.70 391.1868
912.80 392.0313
912.90 392.8758
913.00 393.7202
913.10 394.5647
913.20 395.4091
913.30 396.2536
913.40 397.0981
913.50 397.9425
913.60 398.787
913.70 399.5288
913.80 400.2663
913.90 401.0038
914.00 401.7413
914.10 402.4788
914.20 403.2164
914.30 403.9539
914.40 404.6914
914.50 405.4289
914.60 406.1664
914.70 406.9039
914.80 407.6414
914.90 408.379
915.00 409.1165
915.10 409.854
915.20 410.5915
915.30 411.329
915.40 412.0665
915.50 412.804
915.60 413.5415
915.70 414.2791
915.80 415.0166
915.90 415.7541
916.00 416.4916
916.10 417.2291
916.20 417.9666
916.30 418.7041
916.40 419.4416
916.50 420.1792
916.60 420.9167
916.70 421.6542
916.80 422.3917
916.90 423.1292
917.00 423.8667
917.10 424.5163
917.20 424.5214
917.30 424.5264
917.40 424.5315
917.50 424.5365
917.60 424.5415
917.70 424.5466
917.80 424.5516
917.90 424.5566
918.00 424.5617
918.10 424.5667
918.20 424.5717
918.30 424.5768
918.40 424.5818
918.50 424.5868
918.60 424.5919
918.70 424.5969
918.80 424.602
918.90 424.607
919.00 424.612
919.10 424.6171
919.20 424.6221
919.30 424.6271
919.40 424.6322
919.50 424.6372
919.60 424.6422
919.70 424.6473
919.80 424.6523
919.90 424.6573
920.00 424.6624
920.10 424.6674
920.20 424.6725
920.30 424.6775
920.40 424.6825
920.50 424.6876
920.60 424.7183
920.70 424.9573
920.80 425.1963
920.90 425.4352
921.00 425.6742
921.10 425.9132
921.20 426.1522
921.30 426.3911
921.40 426.6301
921.50 426.8691
921.60 427.1081
921.70 427.347
921.80 427.586
921.90 427.825
922.00 428.0639
922.10 428.3029
922.20 428.5419
922.30 428.7809
922.40 429.0198
922.50 429.2588
922.60 429.4978
922.70 429.7368
922.80 429.9757
922.90 430.2147
923.00 430.4537
923.10 430.6926
923.20 430.9316
923.30 431.1706
923.40 431.4096
923.50 431.6485
923.60 431.8875
923.70 432.1265
923.80 432.3655
923.90 432.6044
924.00 432.8434
924.10 433.0824
924.20 433.0833
924.30 433.0636
924.40 433.0439
924.50 433.0241
924.60 433.0044
924.70 432.9846
924.80 432.9649
924.90 432.9452
925.00 432.9254
925.10 432.9057
925.20 432.8859
925.30 432.8662
925.40 432.8465
925.50 432.8267
925.60 432.807
925.70 432.7873
925.80 432.7675
925.90 432.7478
926.00 432.728
926.10 432.7083
926.20 432.6886
926.30 432.6688
926.40 432.6491
926.50 432.6294
926.60 432.6096
926.70 432.5899
926.80 432.5701
926.90 432.5504
927.00 432.5307
927.10 432.5109
927.20 432.4912
927.30 432.4714
927.40 432.4517
927.50 432.432
927.60 432.4122
927.70 432.9757
927.80 434.0162
927.90 435.0568
928.00 436.0973
928.10 437.1379
928.20 438.1784
928.30 439.219
928.40 440.2596
928.50 441.3001
928.60 442.3407
928.70 443.3812
928.80 444.4218
928.90 445.4624
929.00 446.5029
929.10 447.5435
929.20 448.584
929.30 449.6246
929.40 450.6651
929.50 451.7057
929.60 452.7463
929.70 453.7868
929.80 454.8274
929.90 455.8679
930.00 456.9085
930.10 457.9491
930.20 458.9896
930.30 460.0302
930.40 461.0707
930.50 462.1113
930.60 463.1518
930.70 464.1924
930.80 465.233
930.90 466.2735
931.00 467.3141
931.10 468.3546
931.20 469.3831
931.30 469.8202
931.40 470.2572
931.50 470.6943
931.60 471.1313
931.70 471.5684
931.80 472.0054
931.90 472.4425
932.00 472.8795
932.10 473.3166
932.20 473.7536
932.30 474.1907
932.40 474.6278
932.50 475.0648
932.60 475.5019
932.70 475.9389
932.80 476.376
932.90 476.813
933.00 477.2501
933.10 477.6871
933.20 478.1242
933.30 478.5612
933.40 478.9983
933.50 479.4353
933.60 479.8724
933.70 480.3094
933.80 480.7465
933.90 481.1835
934.00 481.6206
934.10 482.0576
934.20 482.4947
934.30 482.9317
934.40 483.3688
934.50 483.8059
934.60 484.2429
934.70 484.68
934.80 485.1493
934.90 485.6903
935.00 486.2314
935.10 486.7725
935.20 487.3136
935.30 487.8547
935.40 488.3958
935.50 488.9368
935.60 489.4779
935.70 490.019
935.80 490.5601
935.90 491.1012
936.00 491.6422
936.10 492.1833
936.20 492.7244
936.30 493.2655
936.40 493.8066
936.50 494.3477
936.60 494.8887
936.70 495.4298
936.80 495.9709
936.90 496.512
937.00 497.0531
937.10 497.5941
937.20 498.1352
937.30 498.6763
937.40 499.2174
937.50 499.7585
937.60 500.2996
937.70 500.8406
937.80 501.3817
937.90 501.9228
938.00 502.4639
938.10 503.005
938.20 503.546
938.30 504.0871
938.40 504.705
938.50 505.4248
938.60 506.1445
938.70 506.8643
938.80 507.584
938.90 508.3037
939.00 509.0235
939.10 509.7432
939.20 510.463
939.30 511.1827
939.40 511.9024
939.50 512.6222
939.60 513.3419
939.70 514.0617
939.80 514.7814
939.90 515.5011
940.00 516.2209
940.10 516.9406
940.20 517.6604
940.30 518.3801
940.40 519.0998
940.50 519.8196
940.60 520.5393
940.70 521.2591
940.80 521.9788
940.90 522.6985
941.00 523.4183
941.10 524.138
941.20 524.8578
941.30 525.5775
941.40 526.2972
941.50 527.017
941.60 527.7367
941.70 528.4565
941.80 529.1762
941.90 529.8959
942.00 530.5736
942.10 531.1854
942.20 531.7971
942.30 532.4089
942.40 533.0207
942.50 533.6325
942.60 534.2442
942.70 534.856
942.80 535.4678
942.90 536.0796
943.00 536.6914
943.10 537.3031
943.20 537.9149
943.30 538.5267
943.40 539.1385
943.50 539.7503
943.60 540.362
943.70 540.9738
943.80 541.5856
943.90 542.1974
944.00 542.8092
944.10 543.4209
944.20 544.0327
944.30 544.6445
944.40 545.2563
944.50 545.8681
944.60 546.4798
944.70 547.0916
944.80 547.7034
944.90 548.3152
945.00 548.927
945.10 549.5387
945.20 550.1505
945.30 550.7623
945.40 551.3741
945.50 551.9858
945.60 552.4573
945.70 552.2893
945.80 552.1213
945.90 551.9533
946.00 551.7854
946.10 551.6174
946.20 551.4494
946.30 551.2814
946.40 551.1135
946.50 550.9455
946.60 550.7775
946.70 550.6095
946.80 550.4415
946.90 550.2736
947.00 550.1056
947.10 549.9376
947.20 549.7696
947.30 549.6017
947.40 549.4337
947.50 549.2657
947.60 549.0977
947.70 548.9297
947.80 548.7618
947.90 548.5938
948.00 548.4258
948.10 548.2578
948.20 548.0899
948.30 547.9219
948.40 547.7539
948.50 547.5859
948.60 547.4179
948.70 547.25
948.80 547.082
948.90 546.914
949.00 546.746
949.10 546.5781
949.20 546.4101
949.30 546.4004
949.40 546.4278
949.50 546.4553
949.60 546.4827
949.70 546.5101
949.80 546.5376
949.90 546.565
950.00 546.5925
950.10 546.6199
950.20 546.6473
950.30 546.6748
950.40 546.7022
950.50 546.7296
950.60 546.7571
950.70 546.7845
950.80 546.8119
950.90 546.8394
951.00 546.8668
951.10 546.8943
951.20 546.9217
951.30 546.9491
951.40 546.9766
951.50 547.004
951.60 547.0314
951.70 547.0589
951.80 547.0863
951.90 547.1138
952.00 547.1412
952.10 547.1686
952.20 547.1961
952.30 547.2235
952.40 547.2509
952.50 547.2784
952.60 547.3058
952.70 547.3333
952.80 547.3607
952.90 547.4329
953.00 547.626
953.10 547.8191
953.20 548.0122
953.30 548.2053
953.40 548.3984
953.50 548.5915
953.60 548.7846
953.70 548.9778
953.80 549.1709
953.90 549.364
954.00 549.5571
954.10 549.7502
954.20 549.9433
954.30 550.1364
954.40 550.3295
954.50 550.5227
954.60 550.7158
954.70 550.9089
954.80 551.102
954.90 551.2951
955.00 551.4882
955.10 551.6813
955.20 551.8744
955.30 552.0675
955.40 552.2607
955.50 552.4538
955.60 552.6469
955.70 552.84
955.80 553.0331
955.90 553.2262
956.00 553.4193
956.10 553.6124
956.20 553.8056
956.30 553.9987
956.40 554.1918
956.50 554.3849
956.60 554.6592
956.70 554.9946
956.80 555.3301
956.90 555.6656
957.00 556.0011
957.10 556.3365
957.20 556.672
957.30 557.0075
957.40 557.3429
957.50 557.6784
957.60 558.0139
957.70 558.3494
957.80 558.6848
957.90 559.0203
958.00 559.3558
958.10 559.6913
958.20 560.0267
958.30 560.3622
958.40 560.6977
958.50 561.0332
958.60 561.3686
958.70 561.7041
958.80 562.0396
958.90 562.3751
959.00 562.7105
959.10 563.046
959.20 563.3815
959.30 563.717
959.40 564.0524
959.50 564.3879
959.60 564.7234
959.70 565.0589
959.80 565.3943
959.90 565.7298
960.00 566.0653
960.10 566.4008
960.20 566.7362
960.30 567.4229
960.40 568.2529
960.50 569.083
960.60 569.9131
960.70 570.7431
960.80 571.5732
960.90 572.4033
961.00 573.2333
961.10 574.0634
961.20 574.8934
961.30 575.7235
961.40 576.5536
961.50 577.3836
961.60 578.2137
961.70 579.0438
961.80 579.8738
961.90 580.7039
962.00 581.534
962.10 582.364
962.20 583.1941
962.30 584.0241
962.40 584.8542
962.50 585.6843
962.60 586.5143
962.70 587.3444
962.80 588.1745
962.90 589.0045
963.00 589.8346
963.10 590.6647
963.20 591.4947
963.30 592.3248
963.40 593.1548
963.50 593.9849
963.60 594.815
963.70 595.645
963.80 596.4751
963.90 597.3052
964.00 597.7721
964.10 598.0835
964.20 598.3949
964.30 598.7062
964.40 599.0176
964.50 599.329
964.60 599.6403
964.70 599.9517
964.80 600.2631
964.90 600.5744
965.00 600.8858
965.10 601.1971
965.20 601.5085
965.30 601.8199
965.40 602.1312
965.50 602.4426
965.60 602.754
965.70 603.0653
965.80 603.3767
965.90 603.6881
966.00 603.9994
966.10 604.3108
966.20 604.6222
966.30 604.9335
966.40 605.2449
966.50 605.5563
966.60 605.8676
966.70 606.179
966.80 606.4903
966.90 606.8017
967.00 607.1131
967.10 607.4244
967.20 607.7358
967.30 608.0472
967.40 608.3585
967.50 608.6699
967.60 608.9813
967.70 609.4432
967.80 610.0387
967.90 610.6342
968.00 611.2296
968.10 611.8251
968.20 612.4206
968.30 613.016
968.40 613.6115
968.50 614.207
968.60 614.8024
968.70 615.3979
968.80 615.9934
968.90 616.5889
969.00 617.1843
969.10 617.7798
969.20 618.3753
969.30 618.9707
969.40 619.5662
969.50 620.1617
969.60 620.7572
969.70 621.3526
969.80 621.9481
969.90 622.5436
970.00 623.139
970.10 623.7345
970.20 624.33
970.30 624.9255
970.40 625.5209
970.50 626.1164
970.60 626.7119
970.70 627.3073
970.80 627.9028
970.90 628.4983
971.00 629.0937
971.10 629.6892
971.20 630.2847
971.30 630.8802
971.40 631.4269
971.50 631.7787
971.60 632.1305
971.70 632.4823
971.80 632.8342
971.90 633.186
972.00 633.5378
972.10 633.8896
972.20 634.2414
972.30 634.5932
972.40 634.945
972.50 635.2968
972.60 635.6487
972.70 636.0005
972.80 636.3523
972.90 636.7041
973.00 637.0559
973.10 637.4077
973.20 637.7595
973.30 638.1114
973.40 638.4632
973.50 638.815
973.60 639.1668
973.70 639.5186
973.80 639.8704
973.90 640.2222
974.00 640.5741
974.10 640.9259
974.20 641.2777
974.30 641.6295
974.40 641.9813
974.50 642.3331
974.60 642.6849
974.70 643.0367
974.80 643.3886
974.90 643.7404
975.00 644.0922
975.10 644.444
975.20 644.5962
975.30 644.6708
975.40 644.7454
975.50 644.82
975.60 644.8947
975.70 644.9693
975.80 645.0439
975.90 645.1185
976.00 645.1931
976.10 645.2677
976.20 645.3423
976.30 645.4169
976.40 645.4915
976.50 645.5661
976.60 645.6407
976.70 645.7153
976.80 645.7899
976.90 645.8645
977.00 645.9391
977.10 646.0137
977.20 646.0883
977.30 646.163
977.40 646.2376
977.50 646.3122
977.60 646.3868
977.70 646.4614
977.80 646.536
977.90 646.6106
978.00 646.6852
978.10 646.7598
978.20 646.8344
978.30 646.909
978.40 646.9836
978.50 647.0582
978.60 647.1328
978.70 647.2074
978.80 647.282
978.90 647.3085
979.00 646.902
979.10 646.4954
979.20 646.0888
979.30 645.6822
979.40 645.2757
979.50 644.8691
979.60 644.4625
979.70 644.0559
979.80 643.6494
979.90 643.2428
980.00 642.8362
980.10 642.4297
980.20 642.0231
980.30 641.6165
980.40 641.2099
980.50 640.8034
980.60 640.3968
980.70 639.9902
980.80 639.5836
980.90 639.1771
981.00 638.7705
981.10 638.3639
981.20 637.9574
981.30 637.5508
981.40 637.1442
981.50 636.7376
981.60 636.3311
981.70 635.9245
981.80 635.5179
981.90 635.1113
982.00 634.7048
982.10 634.2982
982.20 633.8916
982.30 633.485
982.40 633.0785
982.50 632.6719
982.60 632.2653
982.70 631.6859
982.80 630.739
982.90 629.7922
983.00 628.8454
983.10 627.8986
983.20 626.9517
983.30 626.0049
983.40 625.0581
983.50 624.1112
983.60 623.1644
983.70 622.2176
983.80 621.2707
983.90 620.3239
984.00 619.3771
984.10 618.4302
984.20 617.4834
984.30 616.5366
984.40 615.5897
984.50 614.6429
984.60 613.6961
984.70 612.7493
984.80 611.8024
984.90 610.8556
985.00 609.9088
985.10 608.9619
985.20 608.0151
985.30 607.0683
985.40 606.1214
985.50 605.1746
985.60 604.2278
985.70 603.2809
985.80 602.3341
985.90 601.3873
986.00 600.4404
986.10 599.4936
986.20 598.5468
986.30 597.6
986.40 596.6531
986.50 595.8647
986.60 595.3139
986.70 594.7631
986.80 594.2123
986.90 593.6615
987.00 593.1107
987.10 592.5599
987.20 592.0091
987.30 591.4583
987.40 590.9075
987.50 590.3567
987.60 589.8059
987.70 589.2551
987.80 588.7043
987.90 588.1535
988.00 587.6027
988.10 587.0519
988.20 586.5011
988.30 585.9503
988.40 585.3995
988.50 584.8487
988.60 584.2979
988.70 583.7471
988.80 583.1963
988.90 582.6455
989.00 582.0947
989.10 581.5439
989.20 580.9931
989.30 580.4423
989.40 579.8915
989.50 579.3407
989.60 578.7899
989.70 578.2391
989.80 577.6883
989.90 577.1375
990.00 576.5867
990.10 576.0359
990.20 575.4851
990.30 574.8057
990.40 573.8652
990.50 572.9247
990.60 571.9843
990.70 571.0438
990.80 570.1033
990.90 569.1628
991.00 568.2224
991.10 567.2819
991.20 566.3414
991.30 565.4009
991.40 564.4605
991.50 563.52
991.60 562.5795
991.70 561.639
991.80 560.6986
991.90 559.7581
992.00 558.8176
992.10 557.8771
992.20 556.9367
992.30 555.9962
992.40 555.0557
992.50 554.1152
992.60 553.1748
992.70 552.2343
992.80 551.2938
992.90 550.3533
993.00 549.4128
993.10 548.4724
993.20 547.5319
993.30 546.5914
993.40 545.6509
993.50 544.7105
993.60 543.77
993.70 542.8295
993.80 541.889
993.90 540.9486
994.00 540.0081
994.10 539.1516
994.20 538.9109
994.30 538.6702
994.40 538.4296
994.50 538.1889
994.60 537.9482
994.70 537.7076
994.80 537.4669
994.90 537.2262
995.00 536.9855
995.10 536.7449
995.20 536.5042
995.30 536.2635
995.40 536.0228
995.50 535.7822
995.60 535.5415
995.70 535.3008
995.80 535.0601
995.90 534.8195
996.00 534.5788
996.10 534.3381
996.20 534.0975
996.30 533.8568
996.40 533.6161
996.50 533.3754
996.60 533.1348
996.70 532.8941
996.80 532.6534
996.90 532.4127
997.00 532.1721
997.10 531.9314
997.20 531.6907
997.30 531.45
997.40 531.2094
997.50 530.9687
997.60 530.728
997.70 530.4873
997.80 530.2467
997.90 530.006
998.00 529.8468
998.10 529.7118
998.20 529.5769
998.30 529.442
998.40 529.3071
998.50 529.1722
998.60 529.0373
998.70 528.9023
998.80 528.7674
998.90 528.6325
999.00 528.4976
999.10 528.3627
999.20 528.2278
999.30 528.0928
999.40 527.9579
999.50 527.823
999.60 527.6881
999.70 527.5532
999.80 527.4183
999.90 527.2833
1000.00 527.1484
1000.10 527.0135
1000.20 526.8786
1000.30 526.7437
1000.40 526.6088
1000.50 526.4738
1000.60 526.3389
1000.70 526.204
1000.80 526.0691
1000.90 525.9342
1001.00 525.7993
1001.10 525.6643
1001.20 525.5294
1001.30 525.3945
1001.40 525.2596
1001.50 525.1247
1001.60 524.9898
1001.70 524.8549
1001.80 524.9865
1001.90 525.7399
1002.00 526.4934
1002.10 527.2469
1002.20 528.0004
1002.30 528.7539
1002.40 529.5074
1002.50 530.2609
1002.60 531.0144
1002.70 531.7678
1002.80 532.5213
1002.90 533.2748
1003.00 534.0283
1003.10 534.7818
1003.20 535.5353
1003.30 536.2888
1003.40 537.0422
1003.50 537.7957
1003.60 538.5492
1003.70 539.3027
1003.80 540.0562
1003.90 540.8097
1004.00 541.5632
1004.10 542.3167
1004.20 543.0701
1004.30 543.8236
1004.40 544.5771
1004.50 545.3306
1004.60 546.0841
1004.70 546.8376
1004.80 547.5911
1004.90 548.3446
1005.00 549.098
1005.10 549.8515
1005.20 550.605
1005.30 551.3585
1005.40 552.112
1005.50 552.8655
1005.60 553.619
1005.70 554.2387
1005.80 554.801
1005.90 555.3634
1006.00 555.9258
1006.10 556.4881
1006.20 557.0505
1006.30 557.6129
1006.40 558.1752
1006.50 558.7376
1006.60 559.3
1006.70 559.8624
1006.80 560.4247
1006.90 560.9871
1007.00 561.5495
1007.10 562.1118
1007.20 562.6742
1007.30 563.2366
1007.40 563.7989
1007.50 564.3613
1007.60 564.9237
1007.70 565.486
1007.80 566.0484
1007.90 566.6108
1008.00 567.1732
1008.10 567.7355
1008.20 568.2979
1008.30 568.8603
1008.40 569.4226
1008.50 569.985
1008.60 570.5474
1008.70 571.1097
1008.80 571.6721
1008.90 572.2345
1009.00 572.7968
1009.10 573.3592
1009.20 573.9216
1009.30 574.4839
1009.40 575.0463
1009.50 575.6087
1009.60 576.1065
1009.70 576.5971
1009.80 577.0877
1009.90 577.5783
1010.00 578.0689
1010.10 578.5596
1010.20 579.0502
1010.30 579.5408
1010.40 580.0314
1010.50 580.522
1010.60 581.0126
1010.70 581.5032
1010.80 581.9939
1010.90 582.4845
1011.00 582.9751
1011.10 583.4657
1011.20 583.9563
1011.30 584.4469
1011.40 584.9376
1011.50 585.4282
1011.60 585.9188
1011.70 586.4094
1011.80 586.9
1011.90 587.3906
1012.00 587.8812
1012.10 588.3719
1012.20 588.8625
1012.30 589.3531
1012.40 589.8437
1012.50 590.3343
1012.60 590.8249
1012.70 591.3155
1012.80 591.8062
1012.90 592.2968
1013.00 592.7874
1013.10 593.278
1013.20 593.7686
1013.30 594.2592
1013.40 594.7499
1013.50 594.6374
1013.60 594.5249
1013.70 594.4124
1013.80 594.2999
1013.90 594.1874
1014.00 594.0749
1014.10 593.9624
1014.20 593.8499
1014.30 593.7374
1014.40 593.6249
1014.50 593.5124
1014.60 593.3999
1014.70 593.2874
1014.80 593.1749
1014.90 593.0624
1015.00 592.9499
1015.10 592.8374
1015.20 592.7249
1015.30 592.6124
1015.40 592.4999
1015.50 592.3874
1015.60 592.2749
1015.70 592.1624
1015.80 592.0499
1015.90 591.9374
1016.00 591.8249
1016.10 591.7124
1016.20 591.5999
1016.30 591.4874
1016.40 591.3749
1016.50 591.2624
1016.60 591.1499
1016.70 591.0374
1016.80 590.9249
1016.90 590.8124
1017.00 590.6999
1017.10 590.5874
1017.20 590.4749
1017.30 590.3624
1017.40 591.052
1017.50 591.7416
1017.60 592.4312
1017.70 593.1208
1017.80 593.8104
1017.90 594.5
1018.00 595.1896
1018.10 595.8792
1018.20 596.5688
1018.30 597.2584
1018.40 597.948
1018.50 598.6376
1018.60 599.3272
1018.70 600.0168
1018.80 600.7064
1018.90 601.396
1019.00 602.0856
1019.10 602.7752
1019.20 603.4648
1019.30 604.1544
1019.40 604.8441
1019.50 605.5337
1019.60 606.2233
1019.70 606.9129
1019.80 607.6025
1019.90 608.2921
1020.00 608.9817
1020.10 609.6713
1020.20 610.3609
1020.30 611.0505
1020.40 611.7401
1020.50 612.4297
1020.60 613.1193
1020.70 613.8089
1020.80 614.4985
1020.90 615.1881
1021.00 615.8777
1021.10 616.5673
1021.20 617.2569
1021.30 617.8539
1021.40 618.4277
1021.50 619.0015
1021.60 619.5753
1021.70 620.1492
1021.80 620.723
1021.90 621.2968
1022.00 621.8706
1022.10 622.4444
1022.20 623.0182
1022.30 623.5921
1022.40 624.1659
1022.50 624.7397
1022.60 625.3135
1022.70 625.8873
1022.80 626.4611
1022.90 627.035
1023.00 627.6088
1023.10 628.1826
1023.20 628.7564
1023.30 629.3302
1023.40 629.904
1023.50 630.4779
1023.60 631.0517
1023.70 631.6255
1023.80 632.1993
1023.90 632.7731
1024.00 633.3469
1024.10 633.9207
1024.20 634.4946
1024.30 635.0684
1024.40 635.6422
1024.50 636.216
1024.60 636.7898
1024.70 637.3636
1024.80 637.9375
1024.90 638.5113
1025.00 639.0851
1025.10 639.6589
1025.20 640.2302
1025.30 640.7989
1025.40 641.3676
1025.50 641.9363
1025.60 642.5051
1025.70 643.0738
1025.80 643.6425
1025.90 644.2112
1026.00 644.7799
1026.10 645.3487
1026.20 645.9174
1026.30 646.4861
1026.40 647.0548
1026.50 647.6235
1026.60 648.1923
1026.70 648.761
1026.80 649.3297
1026.90 649.8984
1027.00 650.4671
1027.10 651.0359
1027.20 651.6046
1027.30 652.1733
1027.40 652.742
1027.50 653.3107
1027.60 653.8795
1027.70 654.4482
1027.80 655.0169
1027.90 655.5856
1028.00 656.1543
1028.10 656.7231
1028.20 657.2918
1028.30 657.8605
1028.40 658.4292
1028.50 658.9979
1028.60 659.5667
1028.70 660.1354
1028.80 660.7041
1028.90 661.2728
1029.00 661.8415
1029.10 662.338
1029.20 662.1844
1029.30 662.0307
1029.40 661.8771
1029.50 661.7234
1029.60 661.5697
1029.70 661.4161
1029.80 661.2624
1029.90 661.1088
1030.00 660.9551
1030.10 660.8015
1030.20 660.6478
1030.30 660.4942
1030.40 660.3405
1030.50 660.1869
1030.60 660.0332
1030.70 659.8795
1030.80 659.7259
1030.90 659.5722
1031.00 659.4186
1031.10 659.2649
1031.20 659.1113
1031.30 658.9576
1031.40 658.804
1031.50 658.6503
1031.60 658.4966
1031.70 658.343
1031.80 658.1893
1031.90 658.0357
1032.00 657.882
1032.10 657.7284
1032.20 657.5747
1032.30 657.4211
1032.40 657.2674
1032.50 657.1137
1032.60 656.9601
1032.70 656.8064
1032.80 656.6528
1032.90 656.4991
1033.00 656.3455
1033.10 657.0506
1033.20 658.3283
1033.30 659.606
1033.40 660.8836
1033.50 662.1613
1033.60 663.439
1033.70 664.7166
1033.80 665.9943
1033.90 667.272
1034.00 668.5496
1034.10 669.8273
1034.20 671.105
1034.30 672.3827
1034.40 673.6603
1034.50 674.938
1034.60 676.2157
1034.70 677.4933
1034.80 678.771
1034.90 680.0487
1035.00 681.3263
1035.10 682.604
1035.20 683.8817
1035.30 685.1594
1035.40 686.437
1035.50 687.7147
1035.60 688.9924
1035.70 690.27
1035.80 691.5477
1035.90 692.8254
1036.00 694.1031
1036.10 695.3807
1036.20 696.6584
1036.30 697.9361
1036.40 699.2137
1036.50 700.4914
1036.60 701.7691
1036.70 703.0467
1036.80 704.3244
1036.90 705.6021
1037.00 706.8798
1037.10 707.487
1037.20 708.0199
1037.30 708.5527
1037.40 709.0855
1037.50 709.6183
1037.60 710.1511
1037.70 710.6839
1037.80 711.2167
1037.90 711.7495
1038.00 712.2823
1038.10 712.8151
1038.20 713.3479
1038.30 713.8807
1038.40 714.4135
1038.50 714.9463
1038.60 715.4791
1038.70 716.0119
1038.80 716.5447
1038.90 717.0775
1039.00 717.6103
1039.10 718.1431
1039.20 718.6759
1039.30 719.2087
1039.40 719.7415
1039.50 720.2743
1039.60 720.8072
1039.70 721.34
1039.80 721.8728
1039.90 722.4056
1040.00 722.9384
1040.10 723.4712
1040.20 724.004
1040.30 724.5368
1040.40 725.0696
1040.50 725.6024
1040.60 726.1352
1040.70 726.668
1040.80 727.2008
1040.90 727.7336
1041.00 728.1657
1041.10 728.1947
1041.20 728.2238
1041.30 728.2528
1041.40 728.2818
1041.50 728.3109
1041.60 728.3399
1041.70 728.369
1041.80 728.398
1041.90 728.4271
1042.00 728.4561
1042.10 728.4852
1042.20 728.5142
1042.30 728.5432
1042.40 728.5723
1042.50 728.6013
1042.60 728.6304
1042.70 728.6594
1042.80 728.6885
1042.90 728.7175
1043.00 728.7465
1043.10 728.7756
1043.20 728.8046
1043.30 728.8337
1043.40 728.8627
1043.50 728.8918
1043.60 728.9208
1043.70 728.9499
1043.80 728.9789
1043.90 729.0079
1044.00 729.037
1044.10 729.066
1044.20 729.0951
1044.30 729.1241
1044.40 729.1532
1044.50 729.1822
1044.60 729.2113
1044.70 729.2403
1044.80 729.2693
1044.90 729.2984
1045.00 729.5487
1045.10 730.3153
1045.20 731.0819
1045.30 731.8485
1045.40 732.6151
1045.50 733.3817
1045.60 734.1483
1045.70 734.9149
1045.80 735.6816
1045.90 736.4482
1046.00 737.2148
1046.10 737.9814
1046.20 738.748
1046.30 739.5146
1046.40 740.2812
1046.50 741.0478
1046.60 741.8144
1046.70 742.581
1046.80 743.3476
1046.90 744.1142
1047.00 744.8808
1047.10 745.6474
1047.20 746.414
1047.30 747.1806
1047.40 747.9472
1047.50 748.7139
1047.60 749.4805
1047.70 750.2471
1047.80 751.0137
1047.90 751.7803
1048.00 752.5469
1048.10 753.3135
1048.20 754.0801
1048.30 754.8467
1048.40 755.6133
1048.50 756.3799
1048.60 757.1465
1048.70 757.9131
1048.80 758.6797
1048.90 759.4463
1049.00 760.052
1049.10 760.2823
1049.20 760.5126
1049.30 760.7428
1049.40 760.9731
1049.50 761.2033
1049.60 761.4336
1049.70 761.6638
1049.80 761.8941
1049.90 762.1244
1050.00 762.3546
1050.10 762.5849
1050.20 762.8151
1050.30 763.0454
1050.40 763.2757
1050.50 763.5059
1050.60 763.7362
1050.70 763.9664
1050.80 764.1967
1050.90 764.4269
1051.00 764.6572
1051.10 764.8875
1051.20 765.1177
1051.30 765.348
1051.40 765.5782
1051.50 765.8085
1051.60 766.0388
1051.70 766.269
1051.80 766.4993
1051.90 766.7295
1052.00 766.9598
1052.10 767.19
1052.20 767.4203
1052.30 767.6506
1052.40 767.8808
1052.50 768.1111
1052.60 768.3413
1052.70 768.5716
1052.80 768.8019
1052.90 769.0321
1053.00 769.3204
1053.10 769.8407
1053.20 770.361
1053.30 770.8813
1053.40 771.4015
1053.50 771.9218
1053.60 772.4421
1053.70 772.9624
1053.80 773.4827
1053.90 774.003
1054.00 774.5233
1054.10 775.0436
1054.20 775.5639
1054.30 776.0842
1054.40 776.6045
1054.50 777.1248
1054.60 777.6451
1054.70 778.1654
1054.80 778.6856
1054.90 779.2059
1055.00 779.7262
1055.10 780.2465
1055.20 780.7668
1055.30 781.2871
1055.40 781.8074
1055.50 782.3277
1055.60 782.848
1055.70 783.3683
1055.80 783.8886
1055.90 784.4089
1056.00 784.9292
1056.10 785.4495
1056.20 785.9697
1056.30 786.49
1056.40 787.0103
1056.50 787.5306
1056.60 788.0509
1056.70 788.5712
1056.80 789.0915
1056.90 789.6118
1057.00 790.1321
1057.10 789.9462
1057.20 789.6819
1057.30 789.4176
1057.40 789.1533
1057.50 788.889
1057.60 788.6246
1057.70 788.3603
1057.80 788.096
1057.90 787.8317
1058.00 787.5674
1058.10 787.3031
1058.20 787.0387
1058.30 786.7744
1058.40 786.5101
1058.50 786.2458
1058.60 785.9815
1058.70 785.7172
1058.80 785.4528
1058.90 785.1885
1059.00 784.9242
1059.10 784.6599
1059.20 784.3956
1059.30 784.1313
1059.40 783.8669
1059.50 783.6026
1059.60 783.3383
1059.70 783.074
1059.80 782.8097
1059.90 782.5454
1060.00 782.281
1060.10 782.0167
1060.20 781.7524
1060.30 781.4881
1060.40 781.2238
1060.50 780.9595
1060.60 780.6951
1060.70 780.4308
1060.80 780.1665
1060.90 779.9022
1061.00 779.6379
1061.10 779.9381
1061.20 780.6146
1061.30 781.2911
1061.40 781.9676
1061.50 782.6441
1061.60 783.3206
1061.70 783.9971
1061.80 784.6736
1061.90 785.3501
1062.00 786.0266
1062.10 786.7032
1062.20 787.3797
1062.30 788.0562
1062.40 788.7327
1062.50 789.4092
1062.60 790.0857
1062.70 790.7622
1062.80 791.4387
1062.90 792.1152
1063.00 792.7917
1063.10 793.4683
1063.20 794.1448
1063.30 794.8213
1063.40 795.4978
1063.50 796.1743
1063.60 796.8508
1063.70 797.5273
1063.80 798.2038
1063.90 798.8803
1064.00 799.5568
1064.10 800.2334
1064.20 800.9099
1064.30 801.5864
1064.40 802.2629
1064.50 802.9394
1064.60 803.6159
1064.70 804.2924
1064.80 804.9689
1064.90 805.6454
1065.00 806.322
1065.10 806.9298
1065.20 807.2629
1065.30 807.5959
1065.40 807.929
1065.50 808.2621
1065.60 808.5952
1065.70 808.9283
1065.80 809.2614
1065.90 809.5945
1066.00 809.9276
1066.10 810.2606
1066.20 810.5937
1066.30 810.9268
1066.40 811.2599
1066.50 811.593
1066.60 811.9261
1066.70 812.2592
1066.80 812.5922
1066.90 812.9253
1067.00 813.2584
1067.10 813.5915
1067.20 813.9246
1067.30 814.2577
1067.40 814.5908
1067.50 814.9238
1067.60 815.2569
1067.70 815.59
1067.80 815.9231
1067.90 816.2562
1068.00 816.5893
1068.10 816.9224
1068.20 817.2554
1068.30 817.5885
1068.40 817.9216
1068.50 818.2547
1068.60 818.5878
1068.70 818.9209
1068.80 819.254
1068.90 819.587
1069.00 819.9201
1069.10 820.2532
1069.20 820.6492
1069.30 821.0872
1069.40 821.5252
1069.50 821.9631
1069.60 822.4011
1069.70 822.8391
1069.80 823.277
1069.90 823.715
1070.00 824.153
1070.10 824.5909
1070.20 825.0289
1070.30 825.4669
1070.40 825.9048
1070.50 826.3428
1070.60 826.7808
1070.70 827.2188
1070.80 827.6567
1070.90 828.0947
1071.00 828.5327
1071.10 828.9706
1071.20 829.4086
1071.30 829.8466
1071.40 830.2845
1071.50 830.7225
1071.60 831.1605
1071.70 831.5984
1071.80 832.0364
1071.90 832.4744
1072.00 832.9123
1072.10 833.3503
1072.20 833.7883
1072.30 834.2262
1072.40 834.6642
1072.50 835.1022
1072.60 835.5401
1072.70 835.9781
1072.80 836.4161
1072.90 836.854
1073.00 837.292
1073.10 837.73
1073.20 838.1679
1073.30 838.8999
1073.40 839.6319
1073.50 840.3639
1073.60 841.0959
1073.70 841.8279
1073.80 842.5599
1073.90 843.2918
1074.00 844.0238
1074.10 844.7558
1074.20 845.4878
1074.30 846.2198
1074.40 846.9518
1074.50 847.6838
1074.60 848.4157
1074.70 849.1477
1074.80 849.8797
1074.90 850.6117
1075.00 851.3437
1075.10 852.0757
1075.20 852.8077
1075.30 853.5396
1075.40 854.2716
1075.50 855.0036
1075.60 855.7356
1075.70 856.4676
1075.80 857.1996
1075.90 857.9316
1076.00 858.6635
1076.10 859.3955
1076.20 860.1275
1076.30 860.8595
1076.40 861.5915
1076.50 862.3235
1076.60 863.0555
1076.70 863.7874
1076.80 864.5194
1076.90 865.2514
1077.00 865.9834
1077.10 866.7154
1077.20 867.4474
1077.30 868.1327
1077.40 868.6316
1077.50 869.1304
1077.60 869.6292
1077.70 870.128
1077.80 870.6268
1077.90 871.1257
1078.00 871.6245
1078.10 872.1233
1078.20 872.6221
1078.30 873.1209
1078.40 873.6198
1078.50 874.1186
1078.60 874.6174
1078.70 875.1162
1078.80 875.6151
1078.90 876.1139
1079.00 876.6127
1079.10 877.1115
1079.20 877.6103
1079.30 878.1092
1079.40 878.608
1079.50 879.1068
1079.60 879.6056
1079.70 880.1045
1079.80 880.6033
1079.90 881.1021
1080.00 881.6009
1080.10 882.0997
1080.20 882.5986
1080.30 883.0974
1080.40 883.5962
1080.50 884.095
1080.60 884.5939
1080.70 885.0927
1080.80 885.5915
1080.90 886.0903
1081.00 886.5891
1081.10 887.088
1081.20 887.5868
1081.30 888.0856
1081.40 888.2254
1081.50 887.8265
1081.60 887.4276
1081.70 887.0288
1081.80 886.6299
1081.90 886.231
1082.00 885.8322
1082.10 885.4333
1082.20 885.0344
1082.30 884.6356
1082.40 884.2367
1082.50 883.8378
1082.60 883.439
1082.70 883.0401
1082.80 882.6412
1082.90 882.2424
1083.00 881.8435
1083.10 881.4446
1083.20 881.0458
1083.30 880.6469
1083.40 880.248
1083.50 879.8492
1083.60 879.4503
1083.70 879.0515
1083.80 878.6526
1083.90 878.2537
1084.00 877.8549
1084.10 877.456
1084.20 877.0571
1084.30 876.6583
1084.40 876.2594
1084.50 875.8605
1084.60 875.4617
1084.70 875.0628
1084.80 874.6639
1084.90 874.2651
1085.00 873.8662
1085.10 873.4673
1085.20 873.0685
1085.30 872.6696
1085.40 872.2707
1085.50 872.2443
1085.60 872.7765
1085.70 873.3086
1085.80 873.8408
1085.90 874.3729
1086.00 874.9051
1086.10 875.4373
1086.20 875.9694
1086.30 876.5016
1086.40 877.0338
1086.50 877.5659
1086.60 878.0981
1086.70 878.6303
1086.80 879.1624
1086.90 879.6946
1087.00 880.2268
1087.10 880.7589
1087.20 881.2911
1087.30 881.8232
1087.40 882.3554
1087.50 882.8876
1087.60 883.4197
1087.70 883.9519
1087.80 884.4841
1087.90 885.0162
1088.00 885.5484
1088.10 886.0806
1088.20 886.6127
1088.30 887.1449
1088.40 887.6771
1088.50 888.2092
1088.60 888.7414
1088.70 889.2735
1088.80 889.8057
1088.90 890.3379
1089.00 890.87
1089.10 891.4022
1089.20 891.9344
1089.30 892.4665
1089.40 892.9987
1089.50 893.5309
1089.60 893.7697
1089.70 893.5685
1089.80 893.3673
1089.90 893.1662
1090.00 892.965
1090.10 892.7638
1090.20 892.5626
1090.30 892.3614
1090.40 892.1603
1090.50 891.9591
1090.60 891.7579
1090.70 891.5567
1090.80 891.3556
1090.90 891.1544
1091.00 890.9532
1091.10 890.752
1091.20 890.5508
1091.30 890.3497
1091.40 890.1485
1091.50 889.9473
1091.60 889.7461
1091.70 889.545
1091.80 889.3438
1091.90 889.1426
1092.00 888.9414
1092.10 888.7402
1092.20 888.5391
1092.30 888.3379
1092.40 888.1367
1092.50 887.9355
1092.60 887.7344
1092.70 887.5332
1092.80 887.332
1092.90 887.1308
1093.00 886.9296
1093.10 886.7285
1093.20 886.5273
1093.30 886.3261
1093.40 886.1249
1093.50 885.9237
1093.60 885.7226
1093.70 885.5253
1093.80 885.337
1093.90 885.1488
1094.00 884.9605
1094.10 884.7723
1094.20 884.584
1094.30 884.3958
1094.40 884.2075
1094.50 884.0193
1094.60 883.831
1094.70 883.6428
1094.80 883.4545
1094.90 883.2663
1095.00 883.078
1095.10 882.8897
1095.20 882.7015
1095.30 882.5132
1095.40 882.325
1095.50 882.1367
1095.60 881.9485
1095.70 881.7602
1095.80 881.572
1095.90 881.3837
1096.00 881.1955
1096.10 881.0072
1096.20 880.819
1096.30 880.6307
1096.40 880.4425
1096.50 880.2542
1096.60 880.066
1096.70 879.8777
1096.80 879.6895
1096.90 879.5012
1097.00 879.313
1097.10 879.1247
1097.20 878.9365
1097.30 878.7482
1097.40 878.56
1097.50 878.3717
1097.60 878.1835
1097.70 877.9952
1097.80 877.8265
1097.90 877.8336
1098.00 877.8408
1098.10 877.8479
1098.20 877.8551
1098.30 877.8622
1098.40 877.8693
1098.50 877.8765
1098.60 877.8836
1098.70 877.8908
1098.80 877.8979
1098.90 877.9051
1099.00 877.9122
1099.10 877.9193
1099.20 877.9265
1099.30 877.9336
1099.40 877.9408
1099.50 877.9479
1099.60 877.9551
1099.70 877.9622
1099.80 877.9693
1099.90 877.9765
1100.00 877.9836
1100.10 877.9908
1100.20 877.9979
1100.30 878.0051
1100.40 878.0122
1100.50 878.0194
1100.60 878.0265
1100.70 878.0336
1100.80 878.0408
1100.90 878.0479
1101.00 878.0551
1101.10 878.0622
1101.20 878.0694
1101.30 878.0765
1101.40 878.0836
1101.50 878.0908
1101.60 878.0979
1101.70 878.1051
1101.80 878.1122
1101.90 878.1194
1102.00 878.0756
1102.10 878.0192
1102.20 877.9628
1102.30 877.9063
1102.40 877.8499
1102.50 877.7934
1102.60 877.737
1102.70 877.6806
1102.80 877.6241
1102.90 877.5677
1103.00 877.5112
1103.10 877.4548
1103.20 877.3984
1103.30 877.3419
1103.40 877.2855
1103.50 877.2291
1103.60 877.1726
1103.70 877.1162
1103.80 877.0597
1103.90 877.0033
1104.00 876.9469
1104.10 876.8904
1104.20 876.834
1104.30 876.7775
1104.40 876.7211
1104.50 876.6647
1104.60 876.6082
1104.70 876.5518
1104.80 876.4954
1104.90 876.4389
1105.00 876.3825
1105.10 876.326
1105.20 876.2696
1105.30 876.2132
1105.40 876.1567
1105.50 876.1003
1105.60 876.0439
1105.70 875.9874
1105.80 875.931
1105.90 875.8745
1106.00 875.8181
1106.10 875.5112
1106.20 874.8287
1106.30 874.1461
1106.40 873.4636
1106.50 872.7811
1106.60 872.0985
1106.70 871.416
1106.80 870.7335
1106.90 870.0509
1107.00 869.3684
1107.10 868.6858
1107.20 868.0033
1107.30 867.3208
1107.40 866.6382
1107.50 865.9557
1107.60 865.2731
1107.70 864.5906
1107.80 863.9081
1107.90 863.2255
1108.00 862.543
1108.10 861.8605
1108.20 861.1779
1108.30 860.4954
1108.40 859.8128
1108.50 859.1303
1108.60 858.4478
1108.70 857.7652
1108.80 857.0827
1108.90 856.4001
1109.00 855.7176
1109.10 855.0351
1109.20 854.3525
1109.30 853.67
1109.40 852.9875
1109.50 852.3049
1109.60 851.6224
1109.70 850.9398
1109.80 850.2573
1109.90 849.5748
1110.00 848.8922
1110.10 848.2097
1110.20 847.5271
1110.30 847.2338
1110.40 846.9837
1110.50 846.7336
1110.60 846.4835
1110.70 846.2334
1110.80 845.9833
1110.90 845.7332
1111.00 845.4831
1111.10 845.233
1111.20 844.9829
1111.30 844.7329
1111.40 844.4828
1111.50 844.2327
1111.60 843.9826
1111.70 843.7325
1111.80 843.4824
1111.90 843.2323
1112.00 842.9822
1112.10 842.7321
1112.20 842.482
1112.30 842.2319
1112.40 841.9818
1112.50 841.7317
1112.60 841.4816
1112.70 841.2315
1112.80 840.9814
1112.90 840.7313
1113.00 840.4812
1113.10 840.2311
1113.20 839.981
1113.30 839.7309
1113.40 839.4808
1113.50 839.2307
1113.60 838.9807
1113.70 838.7306
1113.80 838.4805
1113.90 838.2304
1114.00 837.9803
1114.10 837.7302
1114.20 837.4801
1114.30 837.23
1114.40 837.0884
1114.50 837.2001
1114.60 837.3117
1114.70 837.4234
1114.80 837.535
1114.90 837.6467
1115.00 837.7583
1115.10 837.87
1115.20 837.9817
1115.30 838.0933
1115.40 838.205
1115.50 838.3166
1115.60 838.4283
1115.70 838.5399
1115.80 838.6516
1115.90 838.7633
1116.00 838.8749
1116.10 838.9866
1116.20 839.0982
1116.30 839.2099
1116.40 839.3215
1116.50 839.4332
1116.60 839.5448
1116.70 839.6565
1116.80 839.7682
1116.90 839.8798
1117.00 839.9915
1117.10 840.1031
1117.20 840.2148
1117.30 840.3264
1117.40 840.4381
1117.50 840.5497
1117.60 840.6614
1117.70 840.7731
1117.80 840.8847
1117.90 840.9964
1118.00 841.108
1118.10 841.2197
1118.20 841.3313
1118.30 841.443
1118.40 841.5546
1118.50 841.6663
1118.60 841.9409
1118.70 842.2854
1118.80 842.6299
1118.90 842.9744
1119.00 843.3189
1119.10 843.6633
1119.20 844.0078
1119.30 844.3523
1119.40 844.6968
1119.50 845.0413
1119.60 845.3857
1119.70 845.7302
1119.80 846.0747
1119.90 846.4192
1120.00 846.7637
1120.10 847.1081
1120.20 847.4526
1120.30 847.7971
1120.40 848.1416
1120.50 848.4861
1120.60 848.8305
1120.70 849.175
1120.80 849.5195
1120.90 849.864
1121.00 850.2085
1121.10 850.5529
1121.20 850.8974
1121.30 851.2419
1121.40 851.5864
1121.50 851.9309
1121.60 852.2753
1121.70 852.6198
1121.80 852.9643
1121.90 853.3088
1122.00 853.6533
1122.10 853.9977
1122.20 854.3422
1122.30 854.6867
1122.40 855.0312
1122.50 855.3757
1122.60 855.7201
1122.70 856.0646
1122.80 855.43
1122.90 854.7954
1123.00 854.1608
1123.10 853.5261
1123.20 852.8915
1123.30 852.2569
1123.40 851.6223
1123.50 850.9877
1123.60 850.3531
1123.70 849.7184
1123.80 849.0838
1123.90 848.4492
1124.00 847.8146
1124.10 847.18
1124.20 846.5453
1124.30 845.9107
1124.40 845.2761
1124.50 844.6415
1124.60 844.0069
1124.70 843.3722
1124.80 842.7376
1124.90 842.103
1125.00 841.4684
1125.10 840.8338
1125.20 840.1991
1125.30 839.5645
1125.40 838.9299
1125.50 838.2953
1125.60 837.6607
1125.70 837.026
1125.80 836.3914
1125.90 835.7568
1126.00 835.1222
1126.10 834.4876
1126.20 833.8529
1126.30 833.2183
1126.40 832.5837
1126.50 831.9491
1126.60 831.3145
1126.70 830.6799
1126.80 830.0452
1126.90 829.5731
1127.00 829.7512
1127.10 829.9292
1127.20 830.1073
1127.30 830.2853
1127.40 830.4634
1127.50 830.6414
1127.60 830.8194
1127.70 830.9975
1127.80 831.1755
1127.90 831.3536
1128.00 831.5316
1128.10 831.7096
1128.20 831.8877
1128.30 832.0657
1128.40 832.2438
1128.50 832.4218
1128.60 832.5999
1128.70 832.7779
1128.80 832.9559
1128.90 833.134
1129.00 833.312
1129.10 833.4901
1129.20 833.6681
1129.30 833.8462
1129.40 834.0242
1129.50 834.2022
1129.60 834.3803
1129.70 834.5583
1129.80 834.7364
1129.90 834.9144
1130.00 835.0924
1130.10 835.2705
1130.20 835.4485
1130.30 835.6266
1130.40 835.8046
1130.50 835.9827
1130.60 836.1607
1130.70 836.3387
1130.80 836.5168
1130.90 836.6948
1131.00 836.8729
1131.10 836.9304
1131.20 836.8072
1131.30 836.6841
1131.40 836.5609
1131.50 836.4377
1131.60 836.3145
1131.70 836.1913
1131.80 836.0681
1131.90 835.9449
1132.00 835.8218
1132.10 835.6986
1132.20 835.5754
1132.30 835.4522
1132.40 835.329
1132.50 835.2058
1132.60 835.0826
1132.70 834.9595
1132.80 834.8363
1132.90 834.7131
1133.00 834.5899
1133.10 834.4667
1133.20 834.3435
1133.30 834.2203
1133.40 834.0972
1133.50 833.974
1133.60 833.8508
1133.70 833.7276
1133.80 833.6044
1133.90 833.4812
1134.00 833.358
1134.10 833.2349
1134.20 833.1117
1134.30 832.9885
1134.40 832.8653
1134.50 832.7421
1134.60 832.6189
1134.70 832.4958
1134.80 832.3726
1134.90 832.2494
1135.00 832.1262
1135.10 832.003
1135.20 831.8798
1135.30 831.9834
1135.40 832.4271
1135.50 832.8708
1135.60 833.3144
1135.70 833.7581
1135.80 834.2018
1135.90 834.6455
1136.00 835.0892
1136.10 835.5329
1136.20 835.9766
1136.30 836.4202
1136.40 836.8639
1136.50 837.3076
1136.60 837.7513
1136.70 838.195
1136.80 838.6387
1136.90 839.0824
1137.00 839.526
1137.10 839.9697
1137.20 840.4134
1137.30 840.8571
1137.40 841.3008
1137.50 841.7445
1137.60 842.1881
1137.70 842.6318
1137.80 843.0755
1137.90 843.5192
1138.00 843.9629
1138.10 844.4066
1138.20 844.8503
1138.30 845.2939
1138.40 845.7376
1138.50 846.1813
1138.60 846.625
1138.70 847.0687
1138.80 847.5124
1138.90 847.9561
1139.00 848.3997
1139.10 848.8434
1139.20 849.2871
1139.30 849.7308
1139.40 850.1745
1139.50 850.6105
1139.60 851.035
1139.70 851.4595
1139.80 851.884
1139.90 852.3084
1140.00 852.7329
1140.10 853.1574
1140.20 853.5819
1140.30 854.0064
1140.40 854.4309
1140.50 854.8554
1140.60 855.2799
1140.70 855.7044
1140.80 856.1288
1140.90 856.5533
1141.00 856.9778
1141.10 857.4023
1141.20 857.8268
1141.30 858.2513
1141.40 858.6758
1141.50 859.1003
1141.60 859.5247
1141.70 859.9492
1141.80 860.3737
1141.90 860.7982
1142.00 861.2227
1142.10 861.6472
1142.20 862.0717
1142.30 862.4962
1142.40 862.9207
1142.50 863.3451
1142.60 863.7696
1142.70 864.1941
1142.80 864.6186
1142.90 865.0431
1143.00 865.4676
1143.10 865.8921
1143.20 866.3166
1143.30 866.741
1143.40 867.1655
1143.50 867.59
1143.60 868.0145
1143.70 868.5034
1143.80 869.0889
1143.90 869.6744
1144.00 870.2599
1144.10 870.8454
1144.20 871.4309
1144.30 872.0163
1144.40 872.6018
1144.50 873.1873
1144.60 873.7728
1144.70 874.3583
1144.80 874.9438
1144.90 875.5293
1145.00 876.1148
1145.10 876.7003
1145.20 877.2858
1145.30 877.8712
1145.40 878.4567
1145.50 879.0422
1145.60 879.6277
1145.70 880.2132
1145.80 880.7987
1145.90 881.3842
1146.00 881.9697
1146.10 882.5552
1146.20 883.1407
1146.30 883.7261
1146.40 884.3116
1146.50 884.8971
1146.60 885.4826
1146.70 886.0681
1146.80 886.6536
1146.90 887.2391
1147.00 887.8246
1147.10 888.4101
1147.20 888.9956
1147.30 889.581
1147.40 890.1665
1147.50 890.752
1147.60 891.3375
1147.70 891.923
1147.80 892.5085
1147.90 893.0138
1148.00 893.1984
1148.10 893.3829
1148.20 893.5675
1148.30 893.7521
1148.40 893.9366
1148.50 894.1212
1148.60 894.3057
1148.70 894.4903
1148.80 894.6749
1148.90 894.8594
1149.00 895.044
1149.10 895.2286
1149.20 895.4131
1149.30 895.5977
1149.40 895.7822
1149.50 895.9668
1149.60 896.1514
1149.70 896.3359
1149.80 896.5205
1149.90 896.7051
1150.00 896.8896
1150.10 897.0742
1150.20 897.2587
1150.30 897.4433
1150.40 897.6279
1150.50 897.8124
1150.60 897.997
1150.70 898.1816
1150.80 898.3661
1150.90 898.5507
1151.00 898.7352
1151.10 898.9198
1151.20 899.1044
1151.30 899.2889
1151.40 899.4735
1151.50 899.6581
1151.60 899.8426
1151.70 900.0272
1151.80 900.2117
1151.90 900.3963
1152.00 900.5809
1152.10 900.7309
1152.20 900.5707
1152.30 900.4105
1152.40 900.2503
1152.50 900.0901
1152.60 899.9299
1152.70 899.7697
1152.80 899.6095
1152.90 899.4493
1153.00 899.289
1153.10 899.1288
1153.20 898.9686
1153.30 898.8084
1153.40 898.6482
1153.50 898.488
1153.60 898.3278
1153.70 898.1676
1153.80 898.0074
1153.90 897.8471
1154.00 897.6869
1154.10 897.5267
1154.20 897.3665
1154.30 897.2063
1154.40 897.0461
1154.50 896.8859
1154.60 896.7257
1154.70 896.5655
1154.80 896.4053
1154.90 896.245
1155.00 896.0848
1155.10 895.9246
1155.20 895.7644
1155.30 895.6042
1155.40 895.444
1155.50 895.2838
1155.60 895.1236
1155.70 894.9634
1155.80 894.8031
1155.90 894.6429
1156.00 894.4827
1156.10 894.3225
1156.20 894.1623
1156.30 894.0021
1156.40 893.8146
1156.50 893.6202
1156.60 893.4258
1156.70 893.2315
1156.80 893.0371
1156.90 892.8428
1157.00 892.6484
1157.10 892.454
1157.20 892.2597
1157.30 892.0653
1157.40 891.871
1157.50 891.6766
1157.60 891.4822
1157.70 891.2879
1157.80 891.0935
1157.90 890.8992
1158.00 890.7048
1158.10 890.5104
1158.20 890.3161
1158.30 890.1217
1158.40 889.9274
1158.50 889.733
1158.60 889.5387
1158.70 889.3443
1158.80 889.1499
1158.90 888.9556
1159.00 888.7612
1159.10 888.5669
1159.20 888.3725
1159.30 888.1781
1159.40 887.9838
1159.50 887.7894
1159.60 887.5951
1159.70 887.4007
1159.80 887.2063
1159.90 887.012
1160.00 886.8176
1160.10 886.6233
1160.20 886.4289
1160.30 886.2345
1160.40 886.0402
1160.50 885.8458
1160.60 885.3481
1160.70 884.5471
1160.80 883.746
1160.90 882.945
1161.00 882.1439
1161.10 881.3429
1161.20 880.5418
1161.30 879.7408
1161.40 878.9397
1161.50 878.1387
1161.60 877.3376
1161.70 876.5366
1161.80 875.7355
1161.90 874.9345
1162.00 874.1334
1162.10 873.3324
1162.20 872.5313
1162.30 871.7303
1162.40 870.9292
1162.50 870.1282
1162.60 869.3271
1162.70 868.5261
1162.80 867.725
1162.90 866.924
1163.00 866.1229
1163.10 865.3218
1163.20 864.5208
1163.30 863.7197
1163.40 862.9187
1163.50 862.1176
1163.60 861.3166
1163.70 860.5155
1163.80 859.7145
1163.90 858.9134
1164.00 858.1124
1164.10 857.3113
1164.20 856.5103
1164.30 855.7092
1164.40 854.9082
1164.50 854.1071
1164.60 853.3061
1164.70 852.505
1164.80 851.7646
1164.90 851.5698
1165.00 851.375
1165.10 851.1802
1165.20 850.9853
1165.30 850.7905
1165.40 850.5957
1165.50 850.4009
1165.60 850.2061
1165.70 850.0113
1165.80 849.8165
1165.90 849.6216
1166.00 849.4268
1166.10 849.232
1166.20 849.0372
1166.30 848.8424
1166.40 848.6476
1166.50 848.4527
1166.60 848.2579
1166.70 848.0631
1166.80 847.8683
1166.90 847.6735
1167.00 847.4787
1167.10 847.2838
1167.20 847.089
1167.30 846.8942
1167.40 846.6994
1167.50 846.5046
1167.60 846.3098
1167.70 846.115
1167.80 845.9201
1167.90 845.7253
1168.00 845.5305
1168.10 845.3357
1168.20 845.1409
1168.30 844.9461
1168.40 844.7512
1168.50 844.5564
1168.60 844.3616
1168.70 844.1668
1168.80 843.972
1168.90 843.7772
1169.00 843.5824
1169.10 843.7211
1169.20 844.0029
1169.30 844.2846
1169.40 844.5664
1169.50 844.8481
1169.60 845.1299
1169.70 845.4116
1169.80 845.6934
1169.90 845.9751
1170.00 846.2568
1170.10 846.5386
1170.20 846.8203
1170.30 847.1021
1170.40 847.3838
1170.50 847.6656
1170.60 847.9473
1170.70 848.2291
1170.80 848.5108
1170.90 848.7926
1171.00 849.0743
1171.10 849.3561
1171.20 849.6378
1171.30 849.9195
1171.40 850.2013
1171.50 850.483
1171.60 850.7648
1171.70 851.0465
1171.80 851.3283
1171.90 851.61
1172.00 851.8918
1172.10 852.1735
1172.20 852.4553
1172.30 852.737
1172.40 853.0188
1172.50 853.3005
1172.60 853.5822
1172.70 853.864
1172.80 854.1457
1172.90 854.4275
1173.00 854.7092
1173.10 854.991
1173.20 855.2727
1173.30 855.5356
1173.40 855.7232
1173.50 855.9107
1173.60 856.0982
1173.70 856.2857
1173.80 856.4733
1173.90 856.6608
1174.00 856.8483
1174.10 857.0358
1174.20 857.2234
1174.30 857.4109
1174.40 857.5984
1174.50 857.7859
1174.60 857.9735
1174.70 858.161
1174.80 858.3485
1174.90 858.5361
1175.00 858.7236
1175.10 858.9111
1175.20 859.0986
1175.30 859.2862
1175.40 859.4737
1175.50 859.6612
1175.60 859.8487
1175.70 860.0363
1175.80 860.2238
1175.90 860.4113
1176.00 860.5988
1176.10 860.7864
1176.20 860.9739
1176.30 861.1614
1176.40 861.349
1176.50 861.5365
1176.60 861.724
1176.70 861.9115
1176.80 862.0991
1176.90 862.2866
1177.00 862.4741
1177.10 862.6616
1177.20 862.8492
1177.30 863.0367
1177.40 863.2242
1177.50 863.4117
1177.60 864.0193
1177.70 864.8068
1177.80 865.5943
1177.90 866.3818
1178.00 867.1694
1178.10 867.9569
1178.20 868.7444
1178.30 869.5319
1178.40 870.3195
1178.50 871.107
1178.60 871.8945
1178.70 872.682
1178.80 873.4695
1178.90 874.2571
1179.00 875.0446
1179.10 875.8321
1179.20 876.6196
1179.30 877.4072
1179.40 878.1947
1179.50 878.9822
1179.60 879.7697
1179.70 880.5573
1179.80 881.3448
1179.90 882.1323
1180.00 882.9198
1180.10 883.7073
1180.20 884.4949
1180.30 885.2824
1180.40 886.0699
1180.50 886.8574
1180.60 887.645
1180.70 888.4325
1180.80 889.22
1180.90 890.0075
1181.00 890.7951
1181.10 891.5826
1181.20 892.3701
1181.30 893.1576
1181.40 893.9451
1181.50 894.7327
1181.60 895.5202
1181.70 896.3077
1181.80 897.0713
1181.90 897.6199
1182.00 898.1684
1182.10 898.7169
1182.20 899.2654
1182.30 899.8139
1182.40 900.3624
1182.50 900.9109
1182.60 901.4594
1182.70 902.008
1182.80 902.5565
1182.90 903.105
1183.00 903.6535
1183.10 904.202
1183.20 904.7505
1183.30 905.299
1183.40 905.8475
1183.50 906.3961
1183.60 906.9446
1183.70 907.4931
1183.80 908.0416
1183.90 908.5901
1184.00 909.1386
1184.10 909.6871
1184.20 910.2356
1184.30 910.7842
1184.40 911.3327
1184.50 911.8812
1184.60 912.4297
1184.70 912.9782
1184.80 913.5267
1184.90 914.0752
1185.00 914.6237
1185.10 915.1723
1185.20 915.7208
1185.30 916.2693
1185.40 916.8178
1185.50 917.3663
1185.60 917.9148
1185.70 918.4633
1185.80 919.0118
1185.90 919.5604
1186.00 920.1089
1186.10 920.5318
1186.20 920.829
1186.30 921.1263
1186.40 921.4235
1186.50 921.7208
1186.60 922.018
1186.70 922.3153
1186.80 922.6125
1186.90 922.9098
1187.00 923.207
1187.10 923.5043
1187.20 923.8015
1187.30 924.0988
1187.40 924.396
1187.50 924.6933
1187.60 924.9905
1187.70 925.2878
1187.80 925.585
1187.90 925.8823
1188.00 926.1796
1188.10 926.4768
1188.20 926.7741
1188.30 927.0713
1188.40 927.3686
1188.50 927.6658
1188.60 927.9631
1188.70 928.2603
1188.80 928.5576
1188.90 928.8548
1189.00 929.1521
1189.10 929.4493
1189.20 929.7466
1189.30 930.0438
1189.40 930.3411
1189.50 930.6383
1189.60 930.9356
1189.70 931.2328
1189.80 931.5301
1189.90 931.8273
1190.00 932.1246
1190.10 932.4219
1190.20 932.7191
1190.30 933.0164
1190.40 933.064
1190.50 933.0838
1190.60 933.1037
1190.70 933.1235
1190.80 933.1434
1190.90 933.1632
1191.00 933.1831
1191.10 933.2029
1191.20 933.2228
1191.30 933.2426
1191.40 933.2625
1191.50 933.2823
1191.60 933.3022
1191.70 933.3221
1191.80 933.3419
1191.90 933.3618
1192.00 933.3816
1192.10 933.4015
1192.20 933.4213
1192.30 933.4412
1192.40 933.461
1192.50 933.4809
1192.60 933.5007
1192.70 933.5206
1192.80 933.5405
1192.90 933.5603
1193.00 933.5802
1193.10 933.6
1193.20 933.6199
1193.30 933.6397
1193.40 933.6596
1193.50 933.6794
1193.60 933.6993
1193.70 933.7191
1193.80 933.739
1193.90 933.7588
1194.00 933.7787
1194.10 933.7986
1194.20 933.8184
1194.30 933.8383
1194.40 933.8581
1194.50 933.878
1194.60 933.915
1194.70 934.1063
1194.80 934.2976
1194.90 934.489
1195.00 934.6803
1195.10 934.8716
1195.20 935.0629
1195.30 935.2543
1195.40 935.4456
1195.50 935.6369
1195.60 935.8283
1195.70 936.0196
1195.80 936.2109
1195.90 936.4022
1196.00 936.5936
1196.10 936.7849
1196.20 936.9762
1196.30 937.1675
1196.40 937.3589
1196.50 937.5502
1196.60 937.7415
1196.70 937.9329
1196.80 938.1242
1196.90 938.3155
1197.00 938.5068
1197.10 938.6982
1197.20 938.8895
1197.30 939.0808
1197.40 939.2721
1197.50 939.4635
1197.60 939.6548
1197.70 939.8461
1197.80 940.0375
1197.90 940.2288
1198.00 940.4201
1198.10 940.6114
1198.20 940.8028
1198.30 940.9941
1198.40 941.1854
1198.50 941.3768
1198.60 941.5681
1198.70 941.7594
1198.80 941.9507
1198.90 941.996
1199.00 941.8223
1199.10 941.6485
1199.20 941.4748
1199.30 941.3011
1199.40 941.1273
1199.50 940.9536
1199.60 940.7798
1199.70 940.6061
1199.80 940.4323
1199.90 940.2586
1200.00 940.0848
1200.10 939.9111
1200.20 939.7373
1200.30 939.5636
1200.40 939.3899
1200.50 939.2161
1200.60 939.0424
1200.70 938.8686
1200.80 938.6949
1200.90 938.5211
1201.00 938.3474
1201.10 938.1736
1201.20 937.9999
1201.30 937.8262
1201.40 937.6524
1201.50 937.4787
1201.60 937.3049
1201.70 937.1312
1201.80 936.9574
1201.90 936.7837
1202.00 936.6099
1202.10 936.4362
1202.20 936.2624
1202.30 936.0887
1202.40 935.915
1202.50 935.7412
1202.60 935.5675
1202.70 935.3937
1202.80 935.22
1202.90 935.0462
1203.00 934.8725
1203.10 934.6987
1203.20 935.2282
1203.30 936.2265
1203.40 937.2249
1203.50 938.2232
1203.60 939.2215
1203.70 940.2198
1203.80 941.2181
1203.90 942.2164
1204.00 943.2147
1204.10 944.213
1204.20 945.2114
1204.30 946.2097
1204.40 947.208
1204.50 948.2063
1204.60 949.2046
1204.70 950.2029
1204.80 951.2012
1204.90 952.1995
1205.00 953.1979
1205.10 954.1962
1205.20 955.1945
1205.30 956.1928
1205.40 957.1911
1205.50 958.1894
1205.60 959.1877
1205.70 960.186
1205.80 961.1844
1205.90 962.1827
1206.00 963.181
1206.10 964.1793
1206.20 965.1776
1206.30 966.1759
1206.40 967.1742
1206.50 968.1725
1206.60 969.1709
1206.70 970.1692
1206.80 971.1675
1206.90 972.1658
1207.00 973.1641
1207.10 974.1624
1207.20 975.1607
1207.30 976.159
1207.40 977.1574
1207.50 977.7419
1207.60 978.223
1207.70 978.7041
1207.80 979.1853
1207.90 979.6664
1208.00 980.1475
1208.10 980.6286
1208.20 981.1097
1208.30 981.5908
1208.40 982.072
1208.50 982.5531
1208.60 983.0342
1208.70 983.5153
1208.80 983.9964
1208.90 984.4775
1209.00 984.9587
1209.10 985.4398
1209.20 985.9209
1209.30 986.402
1209.40 986.8831
1209.50 987.3642
1209.60 987.8454
1209.70 988.3265
1209.80 988.8076
1209.90 989.2887
1210.00 989.7698
1210.10 990.2509
1210.20 990.7321
1210.30 991.2132
1210.40 991.6943
1210.50 992.1754
1210.60 992.6565
1210.70 993.1376
1210.80 993.6188
1210.90 994.0999
1211.00 994.581
1211.10 995.0621
1211.20 995.5432
1211.30 996.0243
1211.40 996.5054
1211.50 996.9866
1211.60 997.4677
1211.70 997.9488
1211.80 998.7788
1211.90 999.6476
1212.00 1000.516
1212.10 1001.385
1212.20 1002.254
1212.30 1003.123
1212.40 1003.992
1212.50 1004.86
1212.60 1005.729
1212.70 1006.598
1212.80 1007.467
1212.90 1008.335
1213.00 1009.204
1213.10 1010.073
1213.20 1010.942
1213.30 1011.811
1213.40 1012.679
1213.50 1013.548
1213.60 1014.417
1213.70 1015.286
1213.80 1016.154
1213.90 1017.023
1214.00 1017.892
1214.10 1018.761
1214.20 1019.63
1214.30 1020.498
1214.40 1021.367
1214.50 1022.236
1214.60 1023.105
1214.70 1023.973
1214.80 1024.842
1214.90 1025.711
1215.00 1026.58
1215.10 1027.449
1215.20 1028.317
1215.30 1029.186
1215.40 1030.055
1215.50 1030.924
1215.60 1031.793
1215.70 1032.661
1215.80 1033.53
1215.90 1034.399
1216.00 1035.268
1216.10 1035.122
1216.20 1034.976
1216.30 1034.831
1216.40 1034.685
1216.50 1034.54
1216.60 1034.394
1216.70 1034.249
1216.80 1034.103
1216.90 1033.957
1217.00 1033.812
1217.10 1033.666
1217.20 1033.521
1217.30 1033.375
1217.40 1033.229
1217.50 1033.084
1217.60 1032.938
1217.70 1032.793
1217.80 1032.647
1217.90 1032.501
1218.00 1032.356
1218.10 1032.21
1218.20 1032.065
1218.30 1031.919
1218.40 1031.774
1218.50 1031.628
1218.60 1031.482
1218.70 1031.337
1218.80 1031.191
1218.90 1031.046
1219.00 1030.9
1219.10 1030.754
1219.20 1030.609
1219.30 1030.463
1219.40 1030.318
1219.50 1030.172
1219.60 1030.027
1219.70 1029.881
1219.80 1029.735
1219.90 1029.59
1220.00 1029.444
1220.10 1029.299
1220.20 1029.153
1220.30 1029.072
1220.40 1029.577
1220.50 1030.082
1220.60 1030.587
1220.70 1031.092
1220.80 1031.597
1220.90 1032.102
1221.00 1032.607
1221.10 1033.112
1221.20 1033.617
1221.30 1034.122
1221.40 1034.627
1221.50 1035.132
1221.60 1035.637
1221.70 1036.142
1221.80 1036.647
1221.90 1037.152
1222.00 1037.657
1222.10 1038.162
1222.20 1038.667
1222.30 1039.171
1222.40 1039.676
1222.50 1040.181
1222.60 1040.686
1222.70 1041.191
1222.80 1041.696
1222.90 1042.201
1223.00 1042.706
1223.10 1043.211
1223.20 1043.716
1223.30 1044.221
1223.40 1044.726
1223.50 1045.231
1223.60 1045.736
1223.70 1046.241
1223.80 1046.746
1223.90 1047.251
1224.00 1047.756
1224.10 1048.261
1224.20 1048.766
1224.30 1049.271
1224.40 1049.775
1224.50 1050.28
1224.60 1050.686
1224.70 1050.696
1224.80 1050.706
1224.90 1050.716
1225.00 1050.726
1225.10 1050.736
1225.20 1050.746
1225.30 1050.756
1225.40 1050.766
1225.50 1050.775
1225.60 1050.785
1225.70 1050.795
1225.80 1050.805
1225.90 1050.815
1226.00 1050.825
1226.10 1050.835
1226.20 1050.845
1226.30 1050.855
1226.40 1050.864
1226.50 1050.874
1226.60 1050.884
1226.70 1050.894
1226.80 1050.904
1226.90 1050.914
1227.00 1050.924
1227.10 1050.934
1227.20 1050.944
1227.30 1050.954
1227.40 1050.963
1227.50 1050.973
1227.60 1050.983
1227.70 1050.993
1227.80 1051.003
1227.90 1051.013
1228.00 1051.023
1228.10 1051.033
1228.20 1051.043
1228.30 1051.052
1228.40 1051.062
1228.50 1051.072
1228.60 1051.082
1228.70 1051.092
1228.80 1051.102
1228.90 1051.07
1229.00 1050.872
1229.10 1050.673
1229.20 1050.475
1229.30 1050.276
1229.40 1050.078
1229.50 1049.879
1229.60 1049.681
1229.70 1049.482
1229.80 1049.284
1229.90 1049.085
1230.00 1048.887
1230.10 1048.688
1230.20 1048.49
1230.30 1048.291
1230.40 1048.093
1230.50 1047.894
1230.60 1047.696
1230.70 1047.497
1230.80 1047.299
1230.90 1047.1
1231.00 1046.902
1231.10 1046.703
1231.20 1046.505
1231.30 1046.306
1231.40 1046.108
1231.50 1045.909
1231.60 1045.711
1231.70 1045.512
1231.80 1045.314
1231.90 1045.115
1232.00 1044.917
1232.10 1044.718
1232.20 1044.52
1232.30 1044.321
1232.40 1044.123
1232.50 1043.924
1232.60 1043.726
1232.70 1043.527
1232.80 1043.329
1232.90 1043.13
1233.00 1042.932
1233.10 1042.733
1233.20 1042.503
1233.30 1042.144
1233.40 1041.786
1233.50 1041.427
1233.60 1041.069
1233.70 1040.71
1233.80 1040.352
1233.90 1039.993
1234.00 1039.635
1234.10 1039.276
1234.20 1038.918
1234.30 1038.559
1234.40 1038.201
1234.50 1037.842
1234.60 1037.484
1234.70 1037.125
1234.80 1036.766
1234.90 1036.408
1235.00 1036.049
1235.10 1035.691
1235.20 1035.332
1235.30 1034.974
1235.40 1034.615
1235.50 1034.257
1235.60 1033.898
1235.70 1033.54
1235.80 1033.181
1235.90 1032.823
1236.00 1032.464
1236.10 1032.106
1236.20 1031.747
1236.30 1031.389
1236.40 1031.03
1236.50 1030.671
1236.60 1030.313
1236.70 1029.954
1236.80 1029.596
1236.90 1029.237
1237.00 1028.879
1237.10 1028.52
1237.20 1028.162
1237.30 1027.803
1237.40 1027.445
1237.50 1027.093
1237.60 1026.766
1237.70 1026.44
1237.80 1026.113
1237.90 1025.787
1238.00 1025.461
1238.10 1025.134
1238.20 1024.808
1238.30 1024.481
1238.40 1024.155
1238.50 1023.829
1238.60 1023.502
1238.70 1023.176
1238.80 1022.85
1238.90 1022.523
1239.00 1022.197
1239.10 1021.87
1239.20 1021.544
1239.30 1021.218
1239.40 1020.891
1239.50 1020.565
1239.60 1020.238
1239.70 1019.912
1239.80 1019.586
1239.90 1019.259
1240.00 1018.933
1240.10 1018.606
1240.20 1018.28
1240.30 1017.954
1240.40 1017.627
1240.50 1017.301
1240.60 1016.974
1240.70 1016.648
1240.80 1016.322
1240.90 1015.995
1241.00 1015.669
1241.10 1015.343
1241.20 1015.016
1241.30 1014.69
1241.40 1014.363
1241.50 1014.037
1241.60 1013.711
1241.70 1013.384
1241.80 1013.107
1241.90 1013.27
1242.00 1013.434
1242.10 1013.598
1242.20 1013.761
1242.30 1013.925
1242.40 1014.089
1242.50 1014.253
1242.60 1014.416
1242.70 1014.58
1242.80 1014.744
1242.90 1014.907
1243.00 1015.071
1243.10 1015.235
1243.20 1015.398
1243.30 1015.562
1243.40 1015.726
1243.50 1015.889
1243.60 1016.053
1243.70 1016.217
1243.80 1016.38
1243.90 1016.544
1244.00 1016.708
1244.10 1016.871
1244.20 1017.035
1244.30 1017.199
1244.40 1017.362
1244.50 1017.526
1244.60 1017.69
1244.70 1017.853
1244.80 1018.017
1244.90 1018.181
1245.00 1018.344
1245.10 1018.508
1245.20 1018.672
1245.30 1018.835
1245.40 1018.999
1245.50 1019.163
1245.60 1019.326
1245.70 1019.49
1245.80 1019.654
1245.90 1019.817
1246.00 1019.981
1246.10 1020.145
1246.20 1021.067
1246.30 1021.989
1246.40 1022.912
1246.50 1023.834
1246.60 1024.756
1246.70 1025.679
1246.80 1026.601
1246.90 1027.523
1247.00 1028.445
1247.10 1029.368
1247.20 1030.29
1247.30 1031.212
1247.40 1032.135
1247.50 1033.057
1247.60 1033.979
1247.70 1034.902
1247.80 1035.824
1247.90 1036.746
1248.00 1037.668
1248.10 1038.591
1248.20 1039.513
1248.30 1040.435
1248.40 1041.358
1248.50 1042.28
1248.60 1043.202
1248.70 1044.125
1248.80 1045.047
1248.90 1045.969
1249.00 1046.892
1249.10 1047.814
1249.20 1048.736
1249.30 1049.658
1249.40 1050.581
1249.50 1051.503
1249.60 1052.425
1249.70 1053.348
1249.80 1054.27
1249.90 1055.192
1250.00 1056.115
1250.10 1057.037
1250.20 1057.959
1250.30 1058.881
1250.40 1059.804
1250.50 1060.492
1250.60 1061.18
1250.70 1061.868
1250.80 1062.556
1250.90 1063.244
1251.00 1063.932
1251.10 1064.621
1251.20 1065.309
1251.30 1065.997
1251.40 1066.685
1251.50 1067.373
1251.60 1068.061
1251.70 1068.749
1251.80 1069.437
1251.90 1070.126
1252.00 1070.814
1252.10 1071.502
1252.20 1072.19
1252.30 1072.878
1252.40 1073.566
1252.50 1074.254
1252.60 1074.942
1252.70 1075.631
1252.80 1076.319
1252.90 1077.007
1253.00 1077.695
1253.10 1078.383
1253.20 1079.071
1253.30 1079.759
1253.40 1080.447
1253.50 1081.136
1253.60 1081.824
1253.70 1082.512
1253.80 1083.2
1253.90 1083.888
1254.00 1084.576
1254.10 1085.264
1254.20 1085.952
1254.30 1086.641
1254.40 1087.329
1254.50 1088.017
1254.60 1088.705
1254.70 1089.393
1254.80 1089.719
1254.90 1090.004
1255.00 1090.29
1255.10 1090.575
1255.20 1090.861
1255.30 1091.147
1255.40 1091.432
1255.50 1091.718
1255.60 1092.003
1255.70 1092.289
1255.80 1092.574
1255.90 1092.86
1256.00 1093.145
1256.10 1093.431
1256.20 1093.716
1256.30 1094.002
1256.40 1094.287
1256.50 1094.573
1256.60 1094.858
1256.70 1095.144
1256.80 1095.43
1256.90 1095.715
1257.00 1096.001
1257.10 1096.286
1257.20 1096.572
1257.30 1096.857
1257.40 1097.143
1257.50 1097.428
1257.60 1097.714
1257.70 1097.999
1257.80 1098.285
1257.90 1098.57
1258.00 1098.856
1258.10 1099.141
1258.20 1099.427
1258.30 1099.713
1258.40 1099.998
1258.50 1100.284
1258.60 1100.569
1258.70 1100.855
1258.80 1101.14
1258.90 1101.426
1259.00 1101.711
1259.10 1102.865
1259.20 1104.39
1259.30 1105.915
1259.40 1107.44
1259.50 1108.965
1259.60 1110.49
1259.70 1112.015
1259.80 1113.54
1259.90 1115.065
1260.00 1116.591
1260.10 1118.116
1260.20 1119.641
1260.30 1121.166
1260.40 1122.691
1260.50 1124.216
1260.60 1125.741
1260.70 1127.266
1260.80 1128.791
1260.90 1130.317
1261.00 1131.842
1261.10 1133.367
1261.20 1134.892
1261.30 1136.417
1261.40 1137.942
1261.50 1139.467
1261.60 1140.992
1261.70 1142.517
1261.80 1144.043
1261.90 1145.568
1262.00 1147.093
1262.10 1148.618
1262.20 1150.143
1262.30 1151.668
1262.40 1153.193
1262.50 1154.718
1262.60 1156.244
1262.70 1157.769
1262.80 1159.294
1262.90 1160.819
1263.00 1162.344
1263.10 1163.869
1263.20 1165.394
1263.30 1166.919
1263.40 1167.662
1263.50 1167.882
1263.60 1168.103
1263.70 1168.323
1263.80 1168.543
1263.90 1168.764
1264.00 1168.984
1264.10 1169.205
1264.20 1169.425
1264.30 1169.646
1264.40 1169.866
1264.50 1170.087
1264.60 1170.307
1264.70 1170.528
1264.80 1170.748
1264.90 1170.968
1265.00 1171.189
1265.10 1171.409
1265.20 1171.63
1265.30 1171.85
1265.40 1172.071
1265.50 1172.291
1265.60 1172.512
1265.70 1172.732
1265.80 1172.953
1265.90 1173.173
1266.00 1173.393
1266.10 1173.614
1266.20 1173.834
1266.30 1174.055
1266.40 1174.275
1266.50 1174.496
1266.60 1174.716
1266.70 1174.937
1266.80 1175.157
1266.90 1175.378
1267.00 1175.598
1267.10 1175.818
1267.20 1176.039
1267.30 1176.259
1267.40 1176.48
1267.50 1176.7
1267.60 1176.921
1267.70 1177.301
1267.80 1177.923
1267.90 1178.544
1268.00 1179.165
1268.10 1179.786
1268.20 1180.408
1268.30 1181.029
1268.40 1181.65
1268.50 1182.271
1268.60 1182.892
1268.70 1183.514
1268.80 1184.135
1268.90 1184.756
1269.00 1185.377
1269.10 1185.998
1269.20 1186.62
1269.30 1187.241
1269.40 1187.862
1269.50 1188.483
1269.60 1189.104
1269.70 1189.726
1269.80 1190.347
1269.90 1190.968
1270.00 1191.589
1270.10 1192.21
1270.20 1192.832
1270.30 1193.453
1270.40 1194.074
1270.50 1194.695
1270.60 1195.316
1270.70 1195.938
1270.80 1196.559
1270.90 1197.18
1271.00 1197.801
1271.10 1198.422
1271.20 1199.044
1271.30 1199.665
1271.40 1200.286
1271.50 1200.907
1271.60 1201.528
1271.70 1202.15
1271.80 1202.771
1271.90 1203.392
1272.00 1203.512
1272.10 1202.464
1272.20 1201.415
1272.30 1200.366
1272.40 1199.317
1272.50 1198.268
1272.60 1197.22
1272.70 1196.171
1272.80 1195.122
1272.90 1194.073
1273.00 1193.024
1273.10 1191.976
1273.20 1190.927
1273.30 1189.878
1273.40 1188.829
1273.50 1187.78
1273.60 1186.732
1273.70 1185.683
1273.80 1184.634
1273.90 1183.585
1274.00 1182.537
1274.10 1181.488
1274.20 1180.439
1274.30 1179.39
1274.40 1178.341
1274.50 1177.293
1274.60 1176.244
1274.70 1175.195
1274.80 1174.146
1274.90 1173.097
1275.00 1172.049
1275.10 1171
1275.20 1169.951
1275.30 1168.902
1275.40 1167.854
1275.50 1166.805
1275.60 1165.756
1275.70 1164.707
1275.80 1163.658
1275.90 1162.61
1276.00 1161.561
1276.10 1160.512
1276.20 1159.463
1276.30 1158.57
1276.40 1159.082
1276.50 1159.593
1276.60 1160.104
1276.70 1160.616
1276.80 1161.127
1276.90 1161.638
1277.00 1162.149
1277.10 1162.661
1277.20 1163.172
1277.30 1163.683
1277.40 1164.195
1277.50 1164.706
1277.60 1165.217
1277.70 1165.728
1277.80 1166.24
1277.90 1166.751
1278.00 1167.262
1278.10 1167.773
1278.20 1168.285
1278.30 1168.796
1278.40 1169.307
1278.50 1169.819
1278.60 1170.33
1278.70 1170.841
1278.80 1171.352
1278.90 1171.864
1279.00 1172.375
1279.10 1172.886
1279.20 1173.398
1279.30 1173.909
1279.40 1174.42
1279.50 1174.931
1279.60 1175.443
1279.70 1175.954
1279.80 1176.465
1279.90 1176.977
1280.00 1177.488
1280.10 1177.999
1280.20 1178.51
1280.30 1179.022
1280.40 1179.533
1280.50 1180.044
1280.60 1180.555
1280.70 1180.467
1280.80 1180.378
1280.90 1180.289
1281.00 1180.201
1281.10 1180.112
1281.20 1180.023
1281.30 1179.935
1281.40 1179.846
1281.50 1179.757
1281.60 1179.669
1281.70 1179.58
1281.80 1179.491
1281.90 1179.402
1282.00 1179.314
1282.10 1179.225
1282.20 1179.136
1282.30 1179.048
1282.40 1178.959
1282.50 1178.87
1282.60 1178.782
1282.70 1178.693
1282.80 1178.604
1282.90 1178.516
1283.00 1178.427
1283.10 1178.338
1283.20 1178.249
1283.30 1178.161
1283.40 1178.072
1283.50 1177.983
1283.60 1177.895
1283.70 1177.806
1283.80 1177.717
1283.90 1177.629
1284.00 1177.54
1284.10 1177.451
1284.20 1177.363
1284.30 1177.274
1284.40 1177.185
1284.50 1177.096
1284.60 1177.008
1284.70 1176.919
1284.80 1176.83
1284.90 1176.742
1285.00 1176.9
1285.10 1177.119
1285.20 1177.339
1285.30 1177.558
1285.40 1177.778
1285.50 1177.997
1285.60 1178.217
1285.70 1178.436
1285.80 1178.656
1285.90 1178.876
1286.00 1179.095
1286.10 1179.315
1286.20 1179.534
1286.30 1179.754
1286.40 1179.973
1286.50 1180.193
1286.60 1180.412
1286.70 1180.632
1286.80 1180.852
1286.90 1181.071
1287.00 1181.291
1287.10 1181.51
1287.20 1181.73
1287.30 1181.949
1287.40 1182.169
1287.50 1182.389
1287.60 1182.608
1287.70 1182.828
1287.80 1183.047
1287.90 1183.267
1288.00 1183.486
1288.10 1183.706
1288.20 1183.925
1288.30 1184.145
1288.40 1184.365
1288.50 1184.584
1288.60 1184.804
1288.70 1185.023
1288.80 1185.243
1288.90 1185.462
1289.00 1185.682
1289.10 1185.901
1289.20 1186.121
1289.30 1186.117
1289.40 1185.963
1289.50 1185.809
1289.60 1185.655
1289.70 1185.502
1289.80 1185.348
1289.90 1185.194
1290.00 1185.041
1290.10 1184.887
1290.20 1184.733
1290.30 1184.579
1290.40 1184.426
1290.50 1184.272
1290.60 1184.118
1290.70 1183.965
1290.80 1183.811
1290.90 1183.657
1291.00 1183.503
1291.10 1183.35
1291.20 1183.196
1291.30 1183.042
1291.40 1182.889
1291.50 1182.735
1291.60 1182.581
1291.70 1182.427
1291.80 1182.274
1291.90 1182.12
1292.00 1181.966
1292.10 1181.812
1292.20 1181.659
1292.30 1181.505
1292.40 1181.351
1292.50 1181.198
1292.60 1181.044
1292.70 1180.89
1292.80 1180.736
1292.90 1180.583
1293.00 1180.429
1293.10 1180.275
1293.20 1180.122
1293.30 1179.968
1293.40 1179.814
1293.50 1179.66
1293.60 1179.517
1293.70 1179.39
1293.80 1179.262
1293.90 1179.135
1294.00 1179.007
1294.10 1178.88
1294.20 1178.752
1294.30 1178.625
1294.40 1178.497
1294.50 1178.37
1294.60 1178.242
1294.70 1178.115
1294.80 1177.987
1294.90 1177.86
1295.00 1177.732
1295.10 1177.605
1295.20 1177.477
1295.30 1177.35
1295.40 1177.222
1295.50 1177.095
1295.60 1176.967
1295.70 1176.84
1295.80 1176.712
1295.90 1176.585
1296.00 1176.457
1296.10 1176.33
1296.20 1176.202
1296.30 1176.075
1296.40 1175.947
1296.50 1175.82
1296.60 1175.693
1296.70 1175.565
1296.80 1175.438
1296.90 1175.31
1297.00 1175.183
1297.10 1175.055
1297.20 1174.928
1297.30 1174.8
1297.40 1174.673
1297.50 1174.545
1297.60 1174.418
1297.70 1174.29
1297.80 1174.163
1297.90 1174.01
1298.00 1173.758
1298.10 1173.506
1298.20 1173.254
1298.30 1173.002
1298.40 1172.75
1298.50 1172.498
1298.60 1172.246
1298.70 1171.994
1298.80 1171.742
1298.90 1171.49
1299.00 1171.238
1299.10 1170.986
1299.20 1170.734
1299.30 1170.482
1299.40 1170.23
1299.50 1169.978
1299.60 1169.726
1299.70 1169.474
1299.80 1169.222
1299.90 1168.97
