# Version 2.1 - nm, norm@500 to 1, cut digits
# Wavelength(nm)  Flambda(ergs/cm^s/s/nm)
300.00 3.31381e-95
300.10 3.31381e-95
300.20 3.31381e-95
300.30 3.31381e-95
300.40 3.31381e-95
300.50 3.31381e-95
300.60 3.31381e-95
300.70 3.31381e-95
300.80 3.31381e-95
300.90 3.31381e-95
301.00 3.31381e-95
301.10 3.31381e-95
301.20 3.31381e-95
301.30 3.31381e-95
301.40 3.31381e-95
301.50 3.31381e-95
301.60 3.31381e-95
301.70 3.31381e-95
301.80 3.31381e-95
301.90 3.31381e-95
302.00 3.31381e-95
302.10 3.31381e-95
302.20 3.31381e-95
302.30 3.31381e-95
302.40 3.31381e-95
302.50 3.31381e-95
302.60 3.31381e-95
302.70 3.31381e-95
302.80 3.31381e-95
302.90 3.31381e-95
303.00 3.31381e-95
303.10 3.31381e-95
303.20 3.31381e-95
303.30 3.31381e-95
303.40 3.31381e-95
303.50 3.31381e-95
303.60 3.31381e-95
303.70 3.31381e-95
303.80 3.31381e-95
303.90 3.31381e-95
304.00 3.31381e-95
304.10 3.31381e-95
304.20 3.31381e-95
304.30 3.31381e-95
304.40 3.31381e-95
304.50 3.31381e-95
304.60 3.31381e-95
304.70 3.31381e-95
304.80 3.31381e-95
304.90 3.31381e-95
305.00 3.31381e-95
305.10 3.31381e-95
305.20 3.31381e-95
305.30 3.31381e-95
305.40 3.31381e-95
305.50 3.31381e-95
305.60 3.31381e-95
305.70 3.31381e-95
305.80 3.31381e-95
305.90 3.31381e-95
306.00 3.31381e-95
306.10 3.31381e-95
306.20 3.31381e-95
306.30 3.31381e-95
306.40 3.31381e-95
306.50 3.31381e-95
306.60 3.31381e-95
306.70 3.31381e-95
306.80 3.31381e-95
306.90 3.31381e-95
307.00 3.31381e-95
307.10 3.31381e-95
307.20 3.31381e-95
307.30 3.31381e-95
307.40 3.31381e-95
307.50 3.31381e-95
307.60 3.31381e-95
307.70 3.31381e-95
307.80 3.31381e-95
307.90 3.31381e-95
308.00 3.31381e-95
308.10 3.31381e-95
308.20 3.31381e-95
308.30 3.31381e-95
308.40 3.31381e-95
308.50 3.31381e-95
308.60 3.31381e-95
308.70 3.31381e-95
308.80 3.31381e-95
308.90 3.31381e-95
309.00 3.31381e-95
309.10 3.31381e-95
309.20 3.31381e-95
309.30 3.31381e-95
309.40 3.31381e-95
309.50 3.31381e-95
309.60 3.31381e-95
309.70 3.31381e-95
309.80 3.31381e-95
309.90 3.31381e-95
310.00 3.31381e-95
310.10 3.31381e-95
310.20 3.31381e-95
310.30 3.31381e-95
310.40 3.31381e-95
310.50 3.31381e-95
310.60 3.31381e-95
310.70 3.31381e-95
310.80 3.31381e-95
310.90 3.31381e-95
311.00 3.31381e-95
311.10 3.31381e-95
311.20 3.31381e-95
311.30 3.31381e-95
311.40 3.31381e-95
311.50 3.31381e-95
311.60 3.31381e-95
311.70 3.31381e-95
311.80 3.31381e-95
311.90 3.31381e-95
312.00 3.31381e-95
312.10 3.31381e-95
312.20 3.31381e-95
312.30 3.31381e-95
312.40 3.31381e-95
312.50 3.31381e-95
312.60 3.31381e-95
312.70 3.31381e-95
312.80 3.31381e-95
312.90 3.31381e-95
313.00 3.31381e-95
313.10 3.31381e-95
313.20 3.31381e-95
313.30 3.31381e-95
313.40 3.31381e-95
313.50 3.31381e-95
313.60 3.31381e-95
313.70 3.31381e-95
313.80 3.31381e-95
313.90 3.31381e-95
314.00 3.31381e-95
314.10 3.31381e-95
314.20 3.31381e-95
314.30 3.31381e-95
314.40 3.31381e-95
314.50 3.31381e-95
314.60 3.31381e-95
314.70 3.31381e-95
314.80 3.31381e-95
314.90 3.31381e-95
315.00 3.31381e-95
315.10 3.31381e-95
315.20 3.31381e-95
315.30 3.31381e-95
315.40 3.31381e-95
315.50 3.31381e-95
315.60 3.31381e-95
315.70 3.31381e-95
315.80 3.31381e-95
315.90 3.31381e-95
316.00 3.31381e-95
316.10 3.31381e-95
316.20 3.31381e-95
316.30 3.31381e-95
316.40 3.31381e-95
316.50 3.31381e-95
316.60 3.31381e-95
316.70 3.31381e-95
316.80 3.31381e-95
316.90 3.31381e-95
317.00 3.31381e-95
317.10 3.31381e-95
317.20 3.31381e-95
317.30 3.31381e-95
317.40 3.31381e-95
317.50 3.31381e-95
317.60 3.31381e-95
317.70 3.31381e-95
317.80 3.31381e-95
317.90 3.31381e-95
318.00 3.31381e-95
318.10 3.31381e-95
318.20 3.31381e-95
318.30 3.31381e-95
318.40 3.31381e-95
318.50 3.31381e-95
318.60 3.31381e-95
318.70 3.31381e-95
318.80 3.31381e-95
318.90 3.31381e-95
319.00 3.31381e-95
319.10 3.31381e-95
319.20 3.31381e-95
319.30 3.31381e-95
319.40 3.31381e-95
319.50 3.31381e-95
319.60 3.31381e-95
319.70 3.31381e-95
319.80 3.31381e-95
319.90 3.31381e-95
320.00 3.31381e-95
320.10 3.31381e-95
320.20 3.31381e-95
320.30 3.31381e-95
320.40 3.31381e-95
320.50 3.31381e-95
320.60 3.31381e-95
320.70 3.31381e-95
320.80 3.31381e-95
320.90 3.31381e-95
321.00 3.31381e-95
321.10 3.31381e-95
321.20 3.31381e-95
321.30 3.31381e-95
321.40 3.31381e-95
321.50 3.31381e-95
321.60 3.31381e-95
321.70 3.31381e-95
321.80 3.31381e-95
321.90 3.31381e-95
322.00 3.31381e-95
322.10 3.31381e-95
322.20 3.31381e-95
322.30 3.31381e-95
322.40 3.31381e-95
322.50 3.31381e-95
322.60 3.31381e-95
322.70 3.31381e-95
322.80 3.31381e-95
322.90 3.31381e-95
323.00 3.31381e-95
323.10 3.31381e-95
323.20 3.31381e-95
323.30 3.31381e-95
323.40 3.31381e-95
323.50 3.31381e-95
323.60 3.31381e-95
323.70 3.31381e-95
323.80 3.31381e-95
323.90 3.31381e-95
324.00 3.31381e-95
324.10 3.31381e-95
324.20 3.31381e-95
324.30 3.31381e-95
324.40 3.31381e-95
324.50 3.31381e-95
324.60 3.31381e-95
324.70 3.31381e-95
324.80 3.31381e-95
324.90 3.31381e-95
325.00 3.31381e-95
325.10 3.31381e-95
325.20 3.31381e-95
325.30 3.31381e-95
325.40 3.31381e-95
325.50 3.31381e-95
325.60 3.31381e-95
325.70 3.31381e-95
325.80 3.31381e-95
325.90 3.31381e-95
326.00 3.31381e-95
326.10 3.31381e-95
326.20 3.31381e-95
326.30 3.31381e-95
326.40 3.31381e-95
326.50 3.31381e-95
326.60 3.31381e-95
326.70 3.31381e-95
326.80 3.31381e-95
326.90 3.31381e-95
327.00 3.31381e-95
327.10 3.31381e-95
327.20 3.31381e-95
327.30 3.31381e-95
327.40 3.31381e-95
327.50 3.31381e-95
327.60 3.31381e-95
327.70 3.31381e-95
327.80 3.31381e-95
327.90 3.31381e-95
328.00 3.31381e-95
328.10 3.31381e-95
328.20 3.31381e-95
328.30 3.31381e-95
328.40 3.31381e-95
328.50 3.31381e-95
328.60 3.31381e-95
328.70 3.31381e-95
328.80 3.31381e-95
328.90 3.31381e-95
329.00 3.31381e-95
329.10 3.31381e-95
329.20 3.31381e-95
329.30 3.31381e-95
329.40 3.31381e-95
329.50 3.31381e-95
329.60 3.31381e-95
329.70 3.31381e-95
329.80 3.31381e-95
329.90 3.31381e-95
330.00 3.31381e-95
330.10 3.31381e-95
330.20 3.31381e-95
330.30 3.31381e-95
330.40 3.31381e-95
330.50 3.31381e-95
330.60 3.31381e-95
330.70 3.31381e-95
330.80 3.31381e-95
330.90 3.31381e-95
331.00 3.31381e-95
331.10 3.31381e-95
331.20 3.31381e-95
331.30 3.31381e-95
331.40 3.31381e-95
331.50 3.31381e-95
331.60 3.31381e-95
331.70 3.31381e-95
331.80 3.31381e-95
331.90 3.31381e-95
332.00 3.31381e-95
332.10 3.31381e-95
332.20 3.31381e-95
332.30 3.31381e-95
332.40 3.31381e-95
332.50 3.31381e-95
332.60 3.31381e-95
332.70 3.31381e-95
332.80 3.31381e-95
332.90 3.31381e-95
333.00 3.31381e-95
333.10 3.31381e-95
333.20 3.31381e-95
333.30 3.31381e-95
333.40 3.31381e-95
333.50 3.31381e-95
333.60 3.31381e-95
333.70 3.31381e-95
333.80 3.31381e-95
333.90 3.31381e-95
334.00 3.31381e-95
334.10 3.31381e-95
334.20 3.31381e-95
334.30 3.31381e-95
334.40 3.31381e-95
334.50 3.31381e-95
334.60 3.31381e-95
334.70 3.31381e-95
334.80 3.31381e-95
334.90 3.31381e-95
335.00 3.31381e-95
335.10 3.31381e-95
335.20 3.31381e-95
335.30 3.31381e-95
335.40 3.31381e-95
335.50 3.31381e-95
335.60 3.31381e-95
335.70 3.31381e-95
335.80 3.31381e-95
335.90 3.31381e-95
336.00 3.31381e-95
336.10 3.31381e-95
336.20 3.31381e-95
336.30 3.31381e-95
336.40 3.31381e-95
336.50 3.31381e-95
336.60 3.31381e-95
336.70 3.31381e-95
336.80 3.31381e-95
336.90 3.31381e-95
337.00 3.31381e-95
337.10 3.31381e-95
337.20 3.31381e-95
337.30 3.31381e-95
337.40 3.31381e-95
337.50 3.31381e-95
337.60 3.31381e-95
337.70 3.31381e-95
337.80 3.31381e-95
337.90 3.31381e-95
338.00 3.31381e-95
338.10 3.31381e-95
338.20 3.31381e-95
338.30 3.31381e-95
338.40 3.31381e-95
338.50 3.31381e-95
338.60 3.31381e-95
338.70 3.31381e-95
338.80 3.31381e-95
338.90 3.31381e-95
339.00 3.31381e-95
339.10 3.31381e-95
339.20 3.31381e-95
339.30 3.31381e-95
339.40 3.31381e-95
339.50 3.31381e-95
339.60 3.31381e-95
339.70 3.31381e-95
339.80 3.31381e-95
339.90 3.31381e-95
340.00 3.31381e-95
340.10 3.31381e-95
340.20 3.31381e-95
340.30 3.31381e-95
340.40 3.31381e-95
340.50 3.31381e-95
340.60 3.31381e-95
340.70 3.31381e-95
340.80 3.31381e-95
340.90 3.31381e-95
341.00 3.31381e-95
341.10 3.31381e-95
341.20 3.31381e-95
341.30 3.31381e-95
341.40 3.31381e-95
341.50 3.31381e-95
341.60 3.31381e-95
341.70 3.31381e-95
341.80 3.31381e-95
341.90 3.31381e-95
342.00 3.31381e-95
342.10 3.31381e-95
342.20 3.31381e-95
342.30 3.31381e-95
342.40 3.31381e-95
342.50 3.31381e-95
342.60 3.31381e-95
342.70 3.31381e-95
342.80 3.31381e-95
342.90 3.31381e-95
343.00 3.31381e-95
343.10 3.31381e-95
343.20 3.31381e-95
343.30 3.31381e-95
343.40 3.31381e-95
343.50 3.31381e-95
343.60 3.31381e-95
343.70 3.31381e-95
343.80 3.31381e-95
343.90 3.31381e-95
344.00 3.31381e-95
344.10 3.31381e-95
344.20 3.31381e-95
344.30 3.31381e-95
344.40 3.31381e-95
344.50 3.31381e-95
344.60 3.31381e-95
344.70 3.31381e-95
344.80 3.31381e-95
344.90 3.31381e-95
345.00 3.31381e-95
345.10 3.31381e-95
345.20 3.31381e-95
345.30 3.31381e-95
345.40 3.31381e-95
345.50 3.31381e-95
345.60 3.31381e-95
345.70 3.31381e-95
345.80 3.31381e-95
345.90 3.31381e-95
346.00 3.31381e-95
346.10 3.31381e-95
346.20 3.31381e-95
346.30 3.31381e-95
346.40 3.31381e-95
346.50 3.31381e-95
346.60 3.31381e-95
346.70 3.31381e-95
346.80 3.31381e-95
346.90 3.31381e-95
347.00 3.31381e-95
347.10 3.31381e-95
347.20 3.31381e-95
347.30 3.31381e-95
347.40 3.31381e-95
347.50 3.31381e-95
347.60 3.31381e-95
347.70 3.31381e-95
347.80 3.31381e-95
347.90 3.31381e-95
348.00 3.31381e-95
348.10 3.31381e-95
348.20 3.31381e-95
348.30 3.31381e-95
348.40 3.31381e-95
348.50 3.31381e-95
348.60 3.31381e-95
348.70 3.31381e-95
348.80 3.31381e-95
348.90 3.31381e-95
349.00 3.31381e-95
349.10 3.31381e-95
349.20 3.31381e-95
349.30 3.31381e-95
349.40 3.31381e-95
349.50 3.31381e-95
349.60 3.31381e-95
349.70 3.31381e-95
349.80 3.31381e-95
349.90 3.31381e-95
350.00 3.31381e-95
350.10 3.31381e-95
350.20 3.31381e-95
350.30 3.31381e-95
350.40 3.31381e-95
350.50 3.31381e-95
350.60 3.31381e-95
350.70 3.31381e-95
350.80 3.31381e-95
350.90 3.31381e-95
351.00 3.31381e-95
351.10 3.31381e-95
351.20 3.31381e-95
351.30 3.31381e-95
351.40 3.31381e-95
351.50 3.31381e-95
351.60 3.31381e-95
351.70 3.31381e-95
351.80 3.31381e-95
351.90 3.31381e-95
352.00 3.31381e-95
352.10 3.31381e-95
352.20 3.31381e-95
352.30 3.31381e-95
352.40 3.31381e-95
352.50 3.31381e-95
352.60 3.31381e-95
352.70 3.31381e-95
352.80 3.31381e-95
352.90 3.31381e-95
353.00 3.31381e-95
353.10 3.31381e-95
353.20 3.31381e-95
353.30 3.31381e-95
353.40 3.31381e-95
353.50 3.31381e-95
353.60 3.31381e-95
353.70 3.31381e-95
353.80 3.31381e-95
353.90 3.31381e-95
354.00 3.31381e-95
354.10 3.31381e-95
354.20 3.31381e-95
354.30 3.31381e-95
354.40 3.31381e-95
354.50 3.31381e-95
354.60 3.31381e-95
354.70 3.31381e-95
354.80 3.31381e-95
354.90 3.31381e-95
355.00 3.31381e-95
355.10 3.31381e-95
355.20 3.31381e-95
355.30 3.31381e-95
355.40 3.31381e-95
355.50 3.31381e-95
355.60 3.31381e-95
355.70 3.31381e-95
355.80 3.31381e-95
355.90 3.31381e-95
356.00 3.31381e-95
356.10 3.31381e-95
356.20 3.31381e-95
356.30 3.31381e-95
356.40 3.31381e-95
356.50 3.31381e-95
356.60 3.31381e-95
356.70 3.31381e-95
356.80 3.31381e-95
356.90 3.31381e-95
357.00 3.31381e-95
357.10 3.31381e-95
357.20 3.31381e-95
357.30 3.31381e-95
357.40 3.31381e-95
357.50 3.31381e-95
357.60 3.31381e-95
357.70 3.31381e-95
357.80 3.31381e-95
357.90 3.31381e-95
358.00 3.31381e-95
358.10 3.31381e-95
358.20 3.31381e-95
358.30 3.31381e-95
358.40 3.31381e-95
358.50 3.31381e-95
358.60 3.31381e-95
358.70 3.31381e-95
358.80 3.31381e-95
358.90 3.31381e-95
359.00 3.31381e-95
359.10 3.31381e-95
359.20 3.31381e-95
359.30 3.31381e-95
359.40 3.31381e-95
359.50 3.31381e-95
359.60 3.31381e-95
359.70 3.31381e-95
359.80 3.31381e-95
359.90 3.31381e-95
360.00 3.31381e-95
360.10 3.31381e-95
360.20 3.31381e-95
360.30 3.31381e-95
360.40 3.31381e-95
360.50 3.31381e-95
360.60 3.31381e-95
360.70 3.31381e-95
360.80 3.31381e-95
360.90 3.31381e-95
361.00 3.31381e-95
361.10 3.31381e-95
361.20 3.31381e-95
361.30 3.31381e-95
361.40 3.31381e-95
361.50 3.31381e-95
361.60 3.31381e-95
361.70 3.31381e-95
361.80 3.31381e-95
361.90 3.31381e-95
362.00 3.31381e-95
362.10 3.31381e-95
362.20 3.31381e-95
362.30 3.31381e-95
362.40 3.31381e-95
362.50 3.31381e-95
362.60 3.31381e-95
362.70 3.31381e-95
362.80 3.31381e-95
362.90 3.31381e-95
363.00 3.31381e-95
363.10 3.31381e-95
363.20 3.31381e-95
363.30 3.31381e-95
363.40 3.31381e-95
363.50 3.31381e-95
363.60 3.31381e-95
363.70 3.31381e-95
363.80 3.31381e-95
363.90 3.31381e-95
364.00 3.31381e-95
364.10 3.31381e-95
364.20 3.31381e-95
364.30 3.31381e-95
364.40 3.31381e-95
364.50 3.31381e-95
364.60 3.31381e-95
364.70 3.31381e-95
364.80 3.31381e-95
364.90 3.31381e-95
365.00 3.31381e-95
365.10 3.31381e-95
365.20 3.31381e-95
365.30 3.31381e-95
365.40 3.31381e-95
365.50 3.31381e-95
365.60 3.31381e-95
365.70 3.31381e-95
365.80 3.31381e-95
365.90 3.31381e-95
366.00 3.31381e-95
366.10 3.31381e-95
366.20 3.31381e-95
366.30 3.31381e-95
366.40 3.31381e-95
366.50 3.31381e-95
366.60 3.31381e-95
366.70 3.31381e-95
366.80 3.31381e-95
366.90 3.31381e-95
367.00 3.31381e-95
367.10 3.31381e-95
367.20 3.31381e-95
367.30 3.31381e-95
367.40 3.31381e-95
367.50 3.31381e-95
367.60 3.31381e-95
367.70 3.31381e-95
367.80 3.31381e-95
367.90 3.31381e-95
368.00 3.31381e-95
368.10 3.31381e-95
368.20 3.31381e-95
368.30 3.31381e-95
368.40 3.31381e-95
368.50 3.31381e-95
368.60 3.31381e-95
368.70 3.31381e-95
368.80 3.31381e-95
368.90 3.31381e-95
369.00 3.31381e-95
369.10 3.31381e-95
369.20 3.31381e-95
369.30 3.31381e-95
369.40 3.31381e-95
369.50 3.31381e-95
369.60 3.31381e-95
369.70 3.31381e-95
369.80 3.31381e-95
369.90 3.31381e-95
370.00 3.31381e-95
370.10 3.31381e-95
370.20 3.31381e-95
370.30 3.31381e-95
370.40 3.31381e-95
370.50 3.31381e-95
370.60 3.31381e-95
370.70 3.31381e-95
370.80 3.31381e-95
370.90 3.31381e-95
371.00 3.31381e-95
371.10 3.31381e-95
371.20 3.31381e-95
371.30 3.31381e-95
371.40 3.31381e-95
371.50 3.31381e-95
371.60 3.31381e-95
371.70 3.31381e-95
371.80 3.31381e-95
371.90 3.31381e-95
372.00 3.31381e-95
372.10 3.31381e-95
372.20 3.31381e-95
372.30 3.31381e-95
372.40 3.31381e-95
372.50 3.31381e-95
372.60 3.31381e-95
372.70 3.31381e-95
372.80 3.31381e-95
372.90 3.31381e-95
373.00 3.31381e-95
373.10 3.31381e-95
373.20 3.31381e-95
373.30 3.31381e-95
373.40 3.31381e-95
373.50 3.31381e-95
373.60 3.31381e-95
373.70 3.31381e-95
373.80 3.31381e-95
373.90 3.31381e-95
374.00 3.31381e-95
374.10 3.31381e-95
374.20 3.31381e-95
374.30 3.31381e-95
374.40 3.31381e-95
374.50 3.31381e-95
374.60 3.31381e-95
374.70 3.31381e-95
374.80 3.31381e-95
374.90 3.31381e-95
375.00 3.31381e-95
375.10 3.31381e-95
375.20 3.31381e-95
375.30 3.31381e-95
375.40 3.31381e-95
375.50 3.31381e-95
375.60 3.31381e-95
375.70 3.31381e-95
375.80 3.31381e-95
375.90 3.31381e-95
376.00 3.31381e-95
376.10 3.31381e-95
376.20 3.31381e-95
376.30 3.31381e-95
376.40 3.31381e-95
376.50 3.31381e-95
376.60 3.31381e-95
376.70 3.31381e-95
376.80 3.31381e-95
376.90 3.31381e-95
377.00 3.31381e-95
377.10 3.31381e-95
377.20 3.31381e-95
377.30 3.31381e-95
377.40 3.31381e-95
377.50 3.31381e-95
377.60 3.31381e-95
377.70 3.31381e-95
377.80 3.31381e-95
377.90 3.31381e-95
378.00 3.31381e-95
378.10 3.31381e-95
378.20 3.31381e-95
378.30 3.31381e-95
378.40 3.31381e-95
378.50 3.31381e-95
378.60 3.31381e-95
378.70 3.31381e-95
378.80 3.31381e-95
378.90 3.31381e-95
379.00 3.31381e-95
379.10 3.31381e-95
379.20 3.31381e-95
379.30 3.31381e-95
379.40 3.31381e-95
379.50 3.31381e-95
379.60 3.31381e-95
379.70 3.31381e-95
379.80 3.31381e-95
379.90 3.31381e-95
380.00 3.31381e-95
380.10 3.31381e-95
380.20 3.31381e-95
380.30 3.31381e-95
380.40 3.31381e-95
380.50 3.31381e-95
380.60 3.31381e-95
380.70 3.31381e-95
380.80 3.31381e-95
380.90 3.31381e-95
381.00 3.31381e-95
381.10 3.31381e-95
381.20 3.31381e-95
381.30 3.31381e-95
381.40 3.31381e-95
381.50 3.31381e-95
381.60 3.31381e-95
381.70 3.31381e-95
381.80 3.31381e-95
381.90 3.31381e-95
382.00 3.31381e-95
382.10 3.31381e-95
382.20 3.31381e-95
382.30 3.31381e-95
382.40 3.31381e-95
382.50 3.31381e-95
382.60 3.31381e-95
382.70 3.31381e-95
382.80 3.31381e-95
382.90 3.31381e-95
383.00 3.31381e-95
383.10 3.31381e-95
383.20 3.31381e-95
383.30 3.31381e-95
383.40 3.31381e-95
383.50 3.31381e-95
383.60 3.31381e-95
383.70 3.31381e-95
383.80 3.31381e-95
383.90 3.31381e-95
384.00 3.31381e-95
384.10 3.31381e-95
384.20 3.31381e-95
384.30 3.31381e-95
384.40 3.31381e-95
384.50 3.31381e-95
384.60 3.31381e-95
384.70 3.31381e-95
384.80 3.31381e-95
384.90 3.31381e-95
385.00 3.31381e-95
385.10 3.31381e-95
385.20 3.31381e-95
385.30 3.31381e-95
385.40 3.31381e-95
385.50 3.31381e-95
385.60 3.31381e-95
385.70 3.31381e-95
385.80 3.31381e-95
385.90 3.31381e-95
386.00 3.31381e-95
386.10 3.31381e-95
386.20 3.31381e-95
386.30 3.31381e-95
386.40 3.31381e-95
386.50 3.31381e-95
386.60 3.31381e-95
386.70 3.31381e-95
386.80 3.31381e-95
386.90 3.31381e-95
387.00 3.31381e-95
387.10 3.31381e-95
387.20 3.31381e-95
387.30 3.31381e-95
387.40 3.31381e-95
387.50 3.31381e-95
387.60 3.31381e-95
387.70 3.31381e-95
387.80 3.31381e-95
387.90 3.31381e-95
388.00 3.31381e-95
388.10 3.31381e-95
388.20 3.31381e-95
388.30 3.31381e-95
388.40 3.31381e-95
388.50 3.31381e-95
388.60 3.31381e-95
388.70 3.31381e-95
388.80 3.31381e-95
388.90 3.31381e-95
389.00 3.31381e-95
389.10 3.31381e-95
389.20 3.31381e-95
389.30 3.31381e-95
389.40 3.31381e-95
389.50 3.31381e-95
389.60 3.31381e-95
389.70 3.31381e-95
389.80 3.31381e-95
389.90 3.31381e-95
390.00 3.31381e-95
390.10 3.31381e-95
390.20 3.31381e-95
390.30 3.31381e-95
390.40 3.31381e-95
390.50 3.31381e-95
390.60 3.31381e-95
390.70 3.31381e-95
390.80 3.31381e-95
390.90 3.31381e-95
391.00 3.31381e-95
391.10 3.31381e-95
391.20 3.31381e-95
391.30 3.31381e-95
391.40 3.31381e-95
391.50 3.31381e-95
391.60 3.31381e-95
391.70 3.31381e-95
391.80 3.31381e-95
391.90 3.31381e-95
392.00 3.31381e-95
392.10 3.31381e-95
392.20 3.31381e-95
392.30 3.31381e-95
392.40 3.31381e-95
392.50 3.31381e-95
392.60 3.31381e-95
392.70 3.31381e-95
392.80 3.31381e-95
392.90 3.31381e-95
393.00 3.31381e-95
393.10 3.31381e-95
393.20 3.31381e-95
393.30 3.31381e-95
393.40 3.31381e-95
393.50 3.31381e-95
393.60 3.31381e-95
393.70 3.31381e-95
393.80 3.31381e-95
393.90 3.31381e-95
394.00 3.31381e-95
394.10 3.31381e-95
394.20 3.31381e-95
394.30 3.31381e-95
394.40 3.31381e-95
394.50 3.31381e-95
394.60 3.31381e-95
394.70 3.31381e-95
394.80 3.31381e-95
394.90 3.31381e-95
395.00 3.280672e-95
395.10 3.247534e-95
395.20 3.214396e-95
395.30 3.181258e-95
395.40 3.14812e-95
395.50 3.114982e-95
395.60 3.081843e-95
395.70 3.048705e-95
395.80 3.015567e-95
395.90 2.982429e-95
396.00 2.949291e-95
396.10 0.008086198
396.20 0.04258616
396.30 0.08792608
396.40 0.1290735
396.50 0.1590336
396.60 0.1772401
396.70 0.1849475
396.80 0.1849475
396.90 0.1849475
397.00 0.1849475
397.10 0.1849475
397.20 0.1849475
397.30 0.1849475
397.40 0.1849475
397.50 0.1849475
397.60 0.1849475
397.70 0.1849475
397.80 0.2212982
397.90 0.3246484
398.00 0.4919019
398.10 0.7066942
398.20 0.9472602
398.30 1.190678
398.40 1.412994
398.50 1.594713
398.60 1.72526
398.70 1.809408
398.80 1.865977
398.90 1.915179
399.00 1.974218
399.10 2.05385
399.20 2.152625
399.30 2.261492
399.40 2.373366
399.50 2.489295
399.60 2.614378
399.70 2.752526
399.80 2.906296
399.90 3.078965
400.00 3.272759
400.10 3.480331
400.20 3.68664
400.30 3.876834
400.40 4.039835
400.50 4.17047
400.60 4.268945
400.70 4.341294
400.80 4.395235
400.90 4.43014
401.00 4.441075
401.10 4.441075
401.20 4.441075
401.30 4.441075
401.40 4.441075
401.50 4.441075
401.60 4.441075
401.70 4.441075
401.80 4.441075
401.90 4.441075
402.00 4.441075
402.10 4.441075
402.20 4.441075
402.30 4.441075
402.40 4.441075
402.50 4.441075
402.60 4.462566
402.70 4.550609
402.80 4.700261
402.90 4.895867
403.00 5.109419
403.10 5.308645
403.20 5.46954
403.30 5.577675
403.40 5.627724
403.50 5.627724
403.60 5.627724
403.70 5.627724
403.80 5.627724
403.90 5.627724
404.00 5.627724
404.10 5.627724
404.20 5.627724
404.30 5.627724
404.40 5.627724
404.50 5.627724
404.60 5.627724
404.70 5.627724
404.80 5.627724
404.90 5.627724
405.00 5.627724
405.10 5.627724
405.20 5.627724
405.30 5.627724
405.40 5.627724
405.50 5.627942
405.60 5.631842
405.70 5.636255
405.80 5.641529
405.90 5.650931
406.00 5.669725
406.10 5.69271
406.20 5.701765
406.30 5.710394
406.40 5.729568
406.50 5.760578
406.60 5.798011
406.70 5.835698
406.80 5.869828
406.90 5.897751
407.00 5.927852
407.10 5.968334
407.20 6.025495
407.30 6.098711
407.40 6.180712
407.50 6.26276
407.60 6.336087
407.70 6.392937
407.80 6.391813
407.90 6.301441
408.00 6.134187
408.10 5.919395
408.20 5.678829
408.30 5.435411
408.40 5.213095
408.50 5.031376
408.60 4.900829
408.70 4.816681
408.80 4.76707
408.90 4.734494
409.00 4.699042
409.10 4.646683
409.20 4.575964
409.30 4.487931
409.40 4.378103
409.50 4.262174
409.60 4.137092
409.70 3.998943
409.80 3.845173
409.90 3.672504
410.00 3.478711
410.10 3.271138
410.20 3.071526
410.30 2.921098
410.40 2.827387
410.50 2.786161
410.60 2.783473
410.70 2.803452
410.80 2.835791
410.90 2.877857
411.00 2.929802
411.10 2.976465
411.20 3.008817
411.30 3.02915
411.40 3.039185
411.50 3.042553
411.60 3.043704
411.70 3.043704
411.80 3.043704
411.90 3.043704
412.00 3.043704
412.10 3.043704
412.20 3.043704
412.30 3.043704
412.40 3.043704
412.50 3.043704
412.60 3.022213
412.70 2.93417
412.80 2.784518
412.90 2.588912
413.00 2.377863
413.10 2.186235
413.20 2.038931
413.30 1.95135
413.40 1.927891
413.50 1.958658
413.60 1.99086
413.70 2.020677
413.80 2.044467
413.90 2.060115
414.00 2.0671
414.10 2.0671
414.20 2.0671
414.30 2.0671
414.40 2.0671
414.50 2.074021
414.60 2.089368
414.70 2.110062
414.80 2.132175
414.90 2.151404
415.00 2.16326
415.10 2.164863
415.20 2.164863
415.30 2.164863
415.40 2.164863
415.50 2.164645
415.60 2.160745
415.70 2.172051
415.80 2.200079
415.90 2.23842
416.00 2.275227
416.10 2.299301
416.20 2.302508
416.30 2.281066
416.40 2.23902
416.50 2.187116
416.60 2.137617
416.70 2.102069
416.80 2.084677
416.90 2.079008
417.00 2.073841
417.10 2.057102
417.20 2.019741
417.30 1.96261
417.40 1.895688
417.50 1.831534
417.60 1.778567
417.70 1.740111
417.80 1.715238
417.90 1.70226
418.00 1.70226
418.10 1.70226
418.20 1.70226
418.30 1.70226
418.40 1.70226
418.50 1.70226
418.60 1.725768
418.70 1.77792
418.80 1.843194
418.90 1.905838
419.00 1.957733
419.10 1.995507
419.20 2.017241
419.30 2.028343
419.40 2.043792
419.50 2.056018
419.60 2.069833
419.70 2.086149
419.80 2.102922
419.90 2.118095
420.00 2.126761
420.10 2.126761
420.20 2.120065
420.30 2.080298
420.40 2.011009
420.50 1.921599
420.60 1.825813
420.70 1.733485
420.80 1.647205
420.90 1.570234
421.00 1.507353
421.10 1.460691
421.20 1.428338
421.30 1.408005
421.40 1.397971
421.50 1.394602
421.60 1.393451
421.70 1.400513
421.80 1.421387
421.90 1.44973
422.00 1.484952
422.10 1.525581
422.20 1.568924
422.30 1.610716
422.40 1.646233
422.50 1.671936
422.60 1.687816
422.70 1.697567
422.80 1.706448
422.90 1.720109
423.00 1.740655
423.10 1.765676
423.20 1.790605
423.30 1.810482
423.40 1.822323
423.50 1.824787
423.60 1.819325
423.70 1.811219
423.80 1.807379
423.90 1.813362
424.00 1.831483
424.10 1.85947
424.20 1.888336
424.30 1.915488
424.40 1.938678
424.50 1.949887
424.60 1.94756
424.70 1.935241
424.80 1.917831
424.90 1.900977
425.00 1.892329
425.10 1.898271
425.20 1.909056
425.30 1.917954
425.40 1.918961
425.50 1.918961
425.60 1.918961
425.70 1.903241
425.80 1.86994
425.90 1.822196
426.00 1.766596
426.10 1.716558
426.20 1.702955
426.30 1.729322
426.40 1.787036
426.50 1.857642
426.60 1.92368
426.70 1.97028
426.80 1.988085
426.90 1.976443
427.00 1.951508
427.10 1.927766
427.20 1.907965
427.30 1.891881
427.40 1.876802
427.50 1.858908
427.60 1.838548
427.70 1.820154
427.80 1.811079
427.90 1.827142
428.00 1.85676
428.10 1.898181
428.20 1.949612
428.30 2.007818
428.40 2.068875
428.50 2.129101
428.60 2.161444
428.70 2.158076
428.80 2.126663
428.90 2.079641
429.00 2.027377
429.10 1.977885
429.20 1.93985
429.30 1.918527
429.40 1.910849
429.50 1.907674
429.60 1.901543
429.70 1.890757
429.80 1.877487
429.90 1.864657
430.00 1.857848
430.10 1.858826
430.20 1.858826
430.30 1.858826
430.40 1.858826
430.50 1.858826
430.60 1.858826
430.70 1.858826
430.80 1.858826
430.90 1.858826
431.00 1.858826
431.10 1.858826
431.20 1.858826
431.30 1.858826
431.40 1.858826
431.50 1.858826
431.60 1.858826
431.70 1.858403
431.80 1.844326
431.90 1.823491
432.00 1.798643
432.10 1.772512
432.20 1.747558
432.30 1.72689
432.40 1.713554
432.50 1.710391
432.60 1.717958
432.70 1.73291
432.80 1.749347
432.90 1.760468
433.00 1.760785
433.10 1.749701
433.20 1.73401
433.30 1.722846
433.40 1.722885
433.50 1.737605
433.60 1.766351
433.70 1.804164
433.80 1.843278
433.90 1.876762
434.00 1.904269
434.10 1.931973
434.20 1.966534
434.30 2.012829
434.40 2.073242
434.50 2.145912
434.60 2.22265
434.70 2.292016
434.80 2.345026
434.90 2.377633
435.00 2.389124
435.10 2.382746
435.20 2.371961
435.30 2.365395
435.40 2.373805
435.50 2.386177
435.60 2.396144
435.70 2.399329
435.80 2.399329
435.90 2.399329
436.00 2.399329
436.10 2.394222
436.20 2.361063
436.30 2.302169
436.40 2.226179
436.50 2.146507
436.60 2.074328
436.70 2.018615
436.80 1.989687
436.90 1.98718
437.00 1.995719
437.10 2.003042
437.20 2.006831
437.30 2.006831
437.40 2.006831
437.50 2.006831
437.60 2.006831
437.70 2.006831
437.80 2.005551
437.90 1.994623
438.00 1.982385
438.10 1.968618
438.20 1.948465
438.30 1.915391
438.40 1.863033
438.50 1.802807
438.60 1.746957
438.70 1.698174
438.80 1.657354
438.90 1.625106
439.00 1.601887
439.10 1.586333
439.20 1.574577
439.30 1.56859
439.40 1.589325
439.50 1.617869
439.60 1.635795
439.70 1.630264
439.80 1.626762
439.90 1.624419
440.00 1.622562
440.10 1.621584
440.20 1.621584
440.30 1.621584
440.40 1.621584
440.50 1.621584
440.60 1.621584
440.70 1.621584
440.80 1.621584
440.90 1.621584
441.00 1.621584
441.10 1.621584
441.20 1.621584
441.30 1.621584
441.40 1.621584
441.50 1.621584
441.60 1.621584
441.70 1.614945
441.80 1.608148
441.90 1.60064
442.00 1.590266
442.10 1.575767
442.20 1.557378
442.30 1.536817
442.40 1.517633
442.50 1.497043
442.60 1.473596
442.70 1.448893
442.80 1.423575
442.90 1.398793
443.00 1.375426
443.10 1.353892
443.20 1.331064
443.30 1.301796
443.40 1.263325
443.50 1.215375
443.60 1.159888
443.70 1.100365
443.80 1.041301
443.90 0.9861859
444.00 0.9335731
444.10 0.8778813
444.20 0.8144548
444.30 0.7410073
444.40 0.657405
444.50 0.5666051
444.60 0.4768473
444.70 0.3991064
444.80 0.3413922
444.90 0.3064104
445.00 0.3101209
445.10 0.343464
445.20 0.3804462
445.30 0.4066252
445.40 0.4144156
445.50 0.4105166
445.60 0.4035901
445.70 0.4009568
445.80 0.4018124
445.90 0.4045225
446.00 0.4095603
446.10 0.4165237
446.20 0.4240503
446.30 0.4310685
446.40 0.4373513
446.50 0.4441359
446.60 0.4537746
446.70 0.4679048
446.80 0.4841052
446.90 0.5049014
447.00 0.5326078
447.10 0.569617
447.20 0.618106
447.30 0.6777401
447.40 0.745413
447.50 0.8231497
447.60 0.9119383
447.70 1.01065
447.80 1.115862
447.90 1.216203
448.00 1.297044
448.10 1.354265
448.20 1.390748
448.30 1.415302
448.40 1.438659
448.50 1.455147
448.60 1.460813
448.70 1.461425
448.80 1.461425
448.90 1.461425
449.00 1.461425
449.10 1.461425
449.20 1.461425
449.30 1.456801
449.40 1.426248
449.50 1.388653
449.60 1.363043
449.70 1.363043
449.80 1.363043
449.90 1.363043
450.00 1.363043
450.10 1.37031
450.20 1.405698
450.30 1.466904
450.40 1.558454
450.50 1.679782
450.60 1.823674
450.70 1.980097
450.80 2.136421
450.90 2.280862
451.00 2.40227
451.10 2.491703
451.20 2.547076
451.30 2.573526
451.40 2.582023
451.50 2.586042
451.60 2.595697
451.70 2.60917
451.80 2.615754
451.90 2.615754
452.00 2.615754
452.10 2.615754
452.20 2.615754
452.30 2.615192
452.40 2.612194
452.50 2.610245
452.60 2.614604
452.70 2.637375
452.80 2.67223
452.90 2.711218
453.00 2.746486
453.10 2.772423
453.20 2.78694
453.30 2.790499
453.40 2.790499
453.50 2.790499
453.60 2.790499
453.70 2.790499
453.80 2.790499
453.90 2.790499
454.00 2.790499
454.10 2.790499
454.20 2.790499
454.30 2.790499
454.40 2.803005
454.50 2.830052
454.60 2.871208
454.70 2.924184
454.80 2.984314
454.90 3.04559
455.00 3.084514
455.10 3.09968
455.20 3.102287
455.30 3.103718
455.40 3.109073
455.50 3.114849
455.60 3.114616
455.70 3.114064
455.80 3.113209
455.90 3.110499
456.00 3.105461
456.10 3.098497
456.20 3.090971
456.30 3.083953
456.40 3.07767
456.50 3.070885
456.60 3.061247
456.70 3.046384
456.80 3.024568
456.90 2.995667
457.00 2.959422
457.10 2.915089
457.20 2.862812
457.30 2.803178
457.40 2.735505
457.50 2.657768
457.60 2.568979
457.70 2.470268
457.80 2.365056
457.90 2.259581
458.00 2.161359
458.10 2.076485
458.20 2.008724
458.30 1.959037
458.40 1.926981
458.50 1.910493
458.60 1.904827
458.70 1.904215
458.80 1.904215
458.90 1.904215
459.00 1.904215
459.10 1.904215
459.20 1.904215
459.30 1.904215
459.40 1.904215
459.50 1.904215
459.60 1.904215
459.70 1.904215
459.80 1.904215
459.90 1.904215
460.00 1.904215
460.10 1.896948
460.20 1.861561
460.30 1.800354
460.40 1.708804
460.50 1.595254
460.60 1.482267
460.70 1.371154
460.80 1.263128
460.90 1.157831
461.00 1.055677
461.10 0.9662437
461.20 0.9108712
461.30 0.8844204
461.40 0.8759236
461.50 0.8719053
461.60 0.8622496
461.70 0.8487765
461.80 0.8421925
461.90 0.8421925
462.00 0.8421925
462.10 0.8421925
462.20 0.8421925
462.30 0.8421925
462.40 0.8421925
462.50 0.8421925
462.60 0.8378337
462.70 0.8150628
462.80 0.7802081
462.90 0.7412193
463.00 0.722131
463.10 0.753987
463.20 0.8405427
463.30 0.9746717
463.40 1.134921
463.50 1.298906
463.60 1.448262
463.70 1.568629
463.80 1.651023
463.90 1.694555
464.00 1.707779
464.10 1.707779
464.20 1.708101
464.30 1.718268
464.40 1.73185
464.50 1.749737
464.60 1.771516
464.70 1.795285
464.80 1.818887
464.90 1.840317
465.00 1.856891
465.10 1.866609
465.20 1.869958
465.30 1.868167
465.40 1.862359
465.50 1.856978
465.60 1.855877
465.70 1.855877
465.80 1.855877
465.90 1.855877
466.00 1.855877
466.10 1.855877
466.20 1.855877
466.30 1.855877
466.40 1.855877
466.50 1.855877
466.60 1.855877
466.70 1.863681
466.80 1.885485
466.90 1.914172
467.00 1.941942
467.10 1.96468
467.20 1.979397
467.30 1.983117
467.40 1.983117
467.50 1.983117
467.60 1.983117
467.70 1.983117
467.80 1.983117
467.90 1.983117
468.00 1.983117
468.10 1.983117
468.20 1.983117
468.30 1.983117
468.40 1.983117
468.50 1.983117
468.60 1.983117
468.70 1.985193
468.80 1.986194
468.90 1.986194
469.00 1.986194
469.10 1.986194
469.20 1.986194
469.30 1.986194
469.40 1.986194
469.50 1.986194
469.60 1.986194
469.70 1.986194
469.80 1.986194
469.90 1.986194
470.00 1.986194
470.10 1.986194
470.20 1.986194
470.30 1.986194
470.40 1.986194
470.50 1.978416
470.60 1.947511
470.70 1.902202
470.80 1.853903
470.90 1.814759
471.00 1.795505
471.10 1.795505
471.20 1.795505
471.30 1.795505
471.40 1.795505
471.50 1.795505
471.60 1.795505
471.70 1.795505
471.80 1.795505
471.90 1.795505
472.00 1.795505
472.10 1.795505
472.20 1.795505
472.30 1.795505
472.40 1.795505
472.50 1.795505
472.60 1.795505
472.70 1.795505
472.80 1.795505
472.90 1.803884
473.00 1.803142
473.10 1.765367
473.20 1.685356
473.30 1.565683
473.40 1.419995
473.50 1.271981
473.60 1.145031
473.70 1.056411
473.80 1.016506
473.90 1.025129
474.00 1.069772
474.10 1.124566
474.20 1.164291
474.30 1.170684
474.40 1.144596
474.50 1.099662
474.60 1.036728
474.70 0.9599825
474.80 0.8762503
474.90 0.7935443
475.00 0.7196374
475.10 0.6602432
475.20 0.6173054
475.30 0.5891543
475.40 0.5724013
475.50 0.5635324
475.60 0.5618258
475.70 0.5700444
475.80 0.5847754
475.90 0.6030592
476.00 0.6224201
476.10 0.640937
476.20 0.6557998
476.30 0.6639917
476.40 0.6639917
476.50 0.6639917
476.60 0.6639917
476.70 0.6561876
476.80 0.6343838
476.90 0.6056969
477.00 0.5779266
477.10 0.5551887
477.20 0.5404713
477.30 0.5367515
477.40 0.5367515
477.50 0.5367515
477.60 0.5398123
477.70 0.5516273
477.80 0.5663864
477.90 0.5806415
478.00 0.5924105
478.10 0.5998254
478.20 0.6020758
478.30 0.6020758
478.40 0.6020758
478.50 0.6020758
478.60 0.6020758
478.70 0.5999997
478.80 0.5989989
478.90 0.5989989
479.00 0.5989989
479.10 0.5989989
479.20 0.5989989
479.30 0.5989989
479.40 0.5989989
479.50 0.5989989
479.60 0.5989989
479.70 0.5989989
479.80 0.6020645
479.90 0.6118411
480.00 0.6276499
480.10 0.6470177
480.20 0.6667108
480.30 0.6830877
480.40 0.6925671
480.50 0.6932443
480.60 0.6932443
480.70 0.6932443
480.80 0.6932443
480.90 0.6932443
481.00 0.7063028
481.10 0.7458224
481.20 0.8126767
481.30 0.9024212
481.40 1.006527
481.50 1.114238
481.60 1.21421
481.70 1.297077
481.80 1.354528
481.90 1.380022
482.00 1.380022
482.10 1.380022
482.20 1.380022
482.30 1.380022
482.40 1.380022
482.50 1.380022
482.60 1.380022
482.70 1.380022
482.80 1.380022
482.90 1.371643
483.00 1.356205
483.10 1.3384
483.20 1.318317
483.30 1.300301
483.40 1.285741
483.50 1.269769
483.60 1.252604
483.70 1.237396
483.80 1.22249
483.90 1.202714
484.00 1.173415
484.10 1.135513
484.20 1.095575
484.30 1.079016
484.40 1.079016
484.50 1.079016
484.60 1.079016
484.70 1.079016
484.80 1.079016
484.90 1.079016
485.00 1.079016
485.10 1.08108
485.20 1.086584
485.30 1.093425
485.40 1.097918
485.50 1.097918
485.60 1.097918
485.70 1.089699
485.80 1.074968
485.90 1.056684
486.00 1.037323
486.10 1.018807
486.20 1.003944
486.30 0.9960437
486.40 1.005103
486.50 1.022515
486.60 1.045372
486.70 1.07029
486.80 1.094907
486.90 1.117789
487.00 1.138601
487.10 1.157442
487.20 1.174196
487.30 1.188524
487.40 1.200327
487.50 1.210099
487.60 1.215658
487.70 1.211315
487.80 1.202231
487.90 1.191564
488.00 1.181416
488.10 1.174954
488.20 1.175035
488.30 1.1792
488.40 1.183822
488.50 1.187083
488.60 1.188005
488.70 1.188005
488.80 1.188005
488.90 1.188005
489.00 1.188005
489.10 1.188005
489.20 1.188005
489.30 1.188005
489.40 1.188005
489.50 1.188005
489.60 1.188005
489.70 1.188005
489.80 1.184939
489.90 1.175163
490.00 1.163249
490.10 1.152187
490.20 1.143242
490.30 1.139414
490.40 1.143134
490.50 1.155046
490.60 1.165548
490.70 1.172892
490.80 1.177544
490.90 1.181225
491.00 1.17213
491.10 1.141098
491.20 1.094729
491.30 1.04308
491.40 0.9969017
491.50 0.9636782
491.60 0.9465357
491.70 0.9448737
491.80 0.9575927
491.90 0.9845415
492.00 1.016612
492.10 1.029686
492.20 1.029686
492.30 1.029686
492.40 1.029686
492.50 1.036751
492.60 1.051938
492.70 1.071857
492.80 1.092098
492.90 1.110214
493.00 1.126139
493.10 1.136897
493.20 1.144477
493.30 1.147667
493.40 1.147667
493.50 1.147667
493.60 1.142426
493.70 1.125888
493.80 1.098852
493.90 1.069459
494.00 1.044033
494.10 1.028348
494.20 1.028238
494.30 1.028238
494.40 1.028238
494.50 1.028238
494.60 1.028238
494.70 1.028238
494.80 1.028238
494.90 1.028238
495.00 1.029604
495.10 1.031607
495.20 1.031119
495.30 1.030557
495.40 1.034325
495.50 1.045427
495.60 1.059848
495.70 1.0779
495.80 1.099554
495.90 1.123969
496.00 1.149989
496.10 1.176608
496.20 1.202739
496.30 1.226622
496.40 1.236518
496.50 1.228623
496.60 1.205767
496.70 1.180848
496.80 1.156232
496.90 1.133349
497.00 1.112537
497.10 1.093697
497.20 1.076942
497.30 1.062614
497.40 1.050811
497.50 1.041039
497.60 1.03242
497.70 1.025418
497.80 1.02297
497.90 1.021771
498.00 1.02015
498.10 1.019197
498.20 1.016865
498.30 1.0127
498.40 1.008079
498.50 1.004818
498.60 1.003896
498.70 1.003896
498.80 1.003896
498.90 1.003896
499.00 1.003896
499.10 1.003896
499.20 1.003896
499.30 1.003896
499.40 1.003896
499.50 1.003896
499.60 1.003896
499.70 1.003896
499.80 1.003896
499.90 1.003896
500.00 1
500.10 0.9916944
500.20 0.9809469
500.30 0.970301
500.40 0.9612098
500.50 0.9514559
500.60 0.9409543
500.70 0.9336104
500.80 0.9289581
500.90 0.9252766
501.00 0.9213137
501.10 0.9128262
501.20 0.8923402
501.30 0.854245
501.40 0.7963176
501.50 0.7255892
501.60 0.6506555
501.70 0.5821638
501.80 0.5306266
501.90 0.5031868
502.00 0.5008948
502.10 0.5191118
502.20 0.5495704
502.30 0.5778557
502.40 0.6029827
502.50 0.617475
502.60 0.6203833
502.70 0.6160261
502.80 0.6102868
502.90 0.6071323
503.00 0.6086179
503.10 0.6166653
503.20 0.6319585
503.30 0.6534502
503.40 0.6788266
503.50 0.7071373
503.60 0.7396431
503.70 0.7760846
503.80 0.8144444
503.90 0.8502841
504.00 0.8828961
504.10 0.9126944
504.20 0.9378417
504.30 0.9558368
504.40 0.9657026
504.50 0.9670869
504.60 0.9670869
504.70 0.9670869
504.80 0.9670869
504.90 0.9670869
505.00 0.9657211
505.10 0.962433
505.20 0.9598726
505.30 0.9570404
505.40 0.9516002
505.50 0.9404976
505.60 0.9260774
505.70 0.908025
505.80 0.8863711
505.90 0.8619555
506.00 0.8359363
506.10 0.8174556
506.20 0.8212665
506.30 0.8487315
506.40 0.8988123
506.50 0.9682546
506.60 1.047892
506.70 1.119107
506.80 1.175485
506.90 1.215103
507.00 1.240229
507.10 1.256064
507.20 1.268059
507.30 1.278584
507.40 1.287606
507.50 1.295091
507.60 1.300994
507.70 1.304804
507.80 1.304269
507.90 1.301881
508.00 1.301881
508.10 1.301881
508.20 1.301881
508.30 1.301881
508.40 1.301881
508.50 1.301881
508.60 1.301881
508.70 1.301881
508.80 1.301881
508.90 1.301881
509.00 1.301881
509.10 1.301881
509.20 1.301881
509.30 1.301881
509.40 1.301881
509.50 1.301881
509.60 1.301881
509.70 1.301881
509.80 1.301881
509.90 1.301881
510.00 1.301881
510.10 1.301881
510.20 1.301881
510.30 1.299978
510.40 1.29587
510.50 1.293034
510.60 1.293034
510.70 1.293034
510.80 1.293034
510.90 1.294847
511.00 1.295625
511.10 1.295625
511.20 1.295625
511.30 1.295625
511.40 1.295625
511.50 1.291865
511.60 1.28397
511.70 1.271257
511.80 1.252623
511.90 1.22762
512.00 1.197842
512.10 1.166551
512.20 1.138783
512.30 1.115415
512.40 1.094494
512.50 1.075015
512.60 1.05692
512.70 1.041358
512.80 1.026856
512.90 1.011895
513.00 0.9944846
513.10 0.9734665
513.20 0.949615
513.30 0.9249327
513.40 0.8995563
513.50 0.8712455
513.60 0.854214
513.70 0.851806
513.80 0.8654116
513.90 0.8948523
514.00 0.9381038
514.10 0.9897603
514.20 1.043213
514.30 1.092977
514.40 1.135783
514.50 1.171203
514.60 1.196863
514.70 1.221656
514.80 1.255931
514.90 1.304553
515.00 1.366574
515.10 1.437222
515.20 1.509602
515.30 1.577439
515.40 1.636065
515.50 1.683748
515.60 1.716661
515.70 1.736468
515.80 1.747401
515.90 1.756365
516.00 1.768969
516.10 1.778385
516.20 1.770226
516.30 1.743165
516.40 1.69962
516.50 1.644601
516.60 1.584738
516.70 1.527811
516.80 1.480541
516.90 1.446158
517.00 1.424683
517.10 1.414274
517.20 1.412607
517.30 1.418182
517.40 1.428503
517.50 1.439167
517.60 1.445083
517.70 1.440802
517.80 1.438109
517.90 1.438109
518.00 1.438109
518.10 1.438109
518.20 1.438109
518.30 1.438109
518.40 1.438109
518.50 1.438109
518.60 1.438109
518.70 1.438109
518.80 1.438109
518.90 1.438109
519.00 1.438109
519.10 1.441228
519.20 1.455959
519.30 1.474632
519.40 1.492385
519.50 1.508523
519.60 1.52154
519.70 1.529189
519.80 1.530258
519.90 1.530258
520.00 1.530258
520.10 1.530258
520.20 1.530258
520.30 1.530258
520.40 1.530258
520.50 1.530258
520.60 1.530258
520.70 1.530258
520.80 1.530258
520.90 1.528884
521.00 1.529034
521.10 1.531009
521.20 1.534457
521.30 1.539411
521.40 1.545444
521.50 1.551646
521.60 1.555609
521.70 1.555609
521.80 1.555609
521.90 1.555609
522.00 1.555609
522.10 1.555609
522.20 1.552918
522.30 1.548001
522.40 1.543795
522.50 1.541717
522.60 1.541717
522.70 1.541717
522.80 1.541717
522.90 1.541717
523.00 1.541717
523.10 1.541717
523.20 1.541717
523.30 1.541717
523.40 1.541717
523.50 1.547311
523.60 1.54586
523.70 1.534782
523.80 1.515155
523.90 1.490483
524.00 1.462429
524.10 1.427729
524.20 1.38076
524.30 1.317687
524.40 1.265015
524.50 1.228211
524.60 1.20255
524.70 1.177758
524.80 1.143482
524.90 1.094861
525.00 1.032839
525.10 0.9614129
525.20 0.8865764
525.30 0.8152928
525.40 0.7538458
525.50 0.7061629
525.60 0.6732501
525.70 0.653443
525.80 0.6425098
525.90 0.6335461
526.00 0.6209422
526.10 0.6033876
526.20 0.5816046
526.30 0.5570251
526.40 0.5315342
526.50 0.5075945
526.60 0.4878199
526.70 0.4735314
526.80 0.4644239
526.90 0.4693289
527.00 0.4867095
527.10 0.505888
527.20 0.5119939
527.30 0.4958932
527.40 0.4765504
527.50 0.4584006
527.60 0.4465821
527.70 0.4465821
527.80 0.4465821
527.90 0.4465821
528.00 0.4465821
528.10 0.4465821
528.20 0.4465821
528.30 0.4465821
528.40 0.4465821
528.50 0.4465821
528.60 0.4465821
528.70 0.4465821
528.80 0.4465821
528.90 0.4465821
529.00 0.4465821
529.10 0.4466814
529.20 0.4430943
529.30 0.4440339
529.40 0.4536192
529.50 0.4712806
529.60 0.4968058
529.70 0.5299845
529.80 0.5691384
529.90 0.6061649
530.00 0.6386695
530.10 0.6667685
530.20 0.6910557
530.30 0.7094058
530.40 0.7178066
530.50 0.7178066
530.60 0.7178066
530.70 0.7178066
530.80 0.7178066
530.90 0.7173677
531.00 0.7164412
531.10 0.7144661
531.20 0.7110178
531.30 0.7060634
531.40 0.702721
531.50 0.7028484
531.60 0.7053335
531.70 0.7104512
531.80 0.7149404
531.90 0.7192647
532.00 0.7235298
532.10 0.7274954
532.20 0.7296871
532.30 0.7296871
532.40 0.7296871
532.50 0.7296871
532.60 0.7296871
532.70 0.7296871
532.80 0.7296871
532.90 0.7296871
533.00 0.7296871
533.10 0.7305231
533.20 0.7364175
533.30 0.7440393
533.40 0.7499263
533.50 0.7452891
533.60 0.7312664
533.70 0.7083102
533.80 0.6754246
533.90 0.63183
534.00 0.5808795
534.10 0.5329181
534.20 0.5012865
534.30 0.4966012
534.40 0.4966012
534.50 0.4966012
534.60 0.4966012
534.70 0.4966012
534.80 0.4966012
534.90 0.4966012
535.00 0.4966012
535.10 0.4966012
535.20 0.4966012
535.30 0.4966012
535.40 0.4966012
535.50 0.4975073
535.60 0.5002544
535.70 0.5052184
535.80 0.5121347
535.90 0.5206889
536.00 0.5307256
536.10 0.5415002
536.20 0.5512367
536.30 0.5575163
536.40 0.5581223
536.50 0.5581223
536.60 0.5581223
536.70 0.5581223
536.80 0.5581223
536.90 0.5479823
537.00 0.5269514
537.10 0.5023469
537.20 0.4859128
537.30 0.4859128
537.40 0.4859128
537.50 0.4859128
537.60 0.4859128
537.70 0.4859128
537.80 0.4859128
537.90 0.4859128
538.00 0.4859128
538.10 0.4859128
538.20 0.4859128
538.30 0.4859128
538.40 0.4859128
538.50 0.4859128
538.60 0.4859128
538.70 0.4859128
538.80 0.4859128
538.90 0.4859128
539.00 0.4859128
539.10 0.4826945
539.20 0.4715508
539.30 0.4519378
539.40 0.4246003
539.50 0.3908008
539.60 0.3522588
539.70 0.3114303
539.80 0.2741757
539.90 0.2430949
540.00 0.2186318
540.10 0.2000773
540.20 0.1861449
540.30 0.1793285
540.40 0.1830279
540.50 0.193059
540.60 0.1989892
540.70 0.1996264
540.80 0.1996264
540.90 0.1996264
541.00 0.1996264
541.10 0.1996264
541.20 0.1996264
541.30 0.1996264
541.40 0.1969357
541.50 0.1906071
541.60 0.1841586
541.70 0.179041
541.80 0.1745518
541.90 0.1702275
542.00 0.1659624
542.10 0.1619967
542.20 0.1598051
542.30 0.1598051
542.40 0.1598051
542.50 0.1598051
542.60 0.1598051
542.70 0.1598051
542.80 0.1598051
542.90 0.1598051
543.00 0.1598051
543.10 0.1589691
543.20 0.1530746
543.30 0.1454528
543.40 0.1395659
543.50 0.1386083
543.60 0.1386083
543.70 0.1404214
543.80 0.1479813
543.90 0.1603214
544.00 0.1763173
544.10 0.1946312
544.20 0.2136759
544.30 0.2333137
544.40 0.2564943
544.50 0.2869635
544.60 0.3268758
544.70 0.376461
544.80 0.4338342
544.90 0.4953485
545.00 0.5561969
545.10 0.6115224
545.20 0.6571693
545.30 0.6901292
545.40 0.7094155
545.50 0.7157643
545.60 0.7130172
545.70 0.7080531
545.80 0.7011368
545.90 0.6925827
546.00 0.682546
546.10 0.6717714
546.20 0.6620349
546.30 0.6557552
546.40 0.6551493
546.50 0.6551493
546.60 0.6551493
546.70 0.6551493
546.80 0.6551493
546.90 0.6551493
547.00 0.6551493
547.10 0.6551493
547.20 0.6551493
547.30 0.6551493
547.40 0.6551493
547.50 0.6551493
547.60 0.6551493
547.70 0.6551493
547.80 0.6551493
547.90 0.6551493
548.00 0.6551493
548.10 0.6551493
548.20 0.6551493
548.30 0.6551493
548.40 0.6551493
548.50 0.6551493
548.60 0.6551493
548.70 0.6551493
548.80 0.6551493
548.90 0.6551493
549.00 0.6551493
549.10 0.6551493
549.20 0.6551493
549.30 0.6551493
549.40 0.6551493
549.50 0.6551493
549.60 0.6551493
549.70 0.6551493
549.80 0.6521811
549.90 0.6462353
550.00 1.445155
550.10 1.445155
550.20 1.445155
550.30 1.445155
550.40 1.445155
550.50 1.445155
550.60 1.445155
550.70 1.440622
550.80 1.421723
550.90 1.390872
551.00 1.350883
551.10 1.305098
551.20 1.257486
551.30 1.208392
551.40 1.15044
551.50 1.074267
551.60 0.9744865
551.70 0.8505233
551.80 0.7070904
551.90 0.5533047
552.00 0.4011837
552.10 0.26287
552.20 0.1487527
552.30 0.06635297
552.40 0.01813726
552.50 0
552.60 0
552.70 0
552.80 0
552.90 0
553.00 0
553.10 0
553.20 0
553.30 0
553.40 0
553.50 0
553.60 0.009138909
553.70 0.02676699
553.80 0.04955283
553.90 0.08032709
554.00 0.119091
554.10 0.1604715
554.20 0.1948547
554.30 0.2124169
554.40 0.2124169
554.50 0.2124169
554.60 0.2124169
554.70 0.2124169
554.80 0.2124169
554.90 0.2124169
555.00 0.2137515
555.10 0.2299923
555.20 0.2447567
555.30 0.2447567
555.40 0.2447567
555.50 0.2447567
555.60 0.2447567
555.70 0.2447567
555.80 0.2447567
555.90 0.2447567
556.00 0.2447567
556.10 0.2447567
556.20 0.2447567
556.30 0.2447567
556.40 0.2447567
556.50 0.2929193
556.60 0.3713757
556.70 0.4606523
556.80 0.5632811
556.90 0.6773997
557.00 0.7971425
557.10 0.9163415
557.20 1.028744
557.30 1.130076
557.40 1.218336
557.50 1.292436
557.60 1.342191
557.70 1.370098
557.80 1.385002
557.90 1.390408
558.00 1.392098
558.10 1.398811
558.20 1.419333
558.30 1.459276
558.40 1.514085
558.50 1.560511
558.60 1.592572
558.70 1.604253
558.80 1.604253
558.90 1.604253
559.00 1.602919
559.10 1.586678
559.20 1.571913
559.30 1.571913
559.40 1.571913
559.50 1.571913
559.60 1.571913
559.70 1.571913
559.80 1.571913
559.90 1.571913
560.00 1.571913
560.10 1.594935
560.20 1.663292
560.30 1.769723
560.40 1.903232
560.50 2.00484
560.60 2.079871
560.70 2.133213
560.80 2.149222
560.90 2.122184
561.00 2.057161
561.10 1.966458
561.20 1.867756
561.30 1.776911
561.40 1.698589
561.50 1.628245
561.60 1.569351
561.70 1.523816
561.80 1.486126
561.90 1.449946
562.00 1.409491
562.10 1.406941
562.20 1.455574
562.30 1.557579
562.40 1.704539
562.50 1.878223
562.60 2.055644
562.70 2.217027
562.80 2.335925
562.90 2.394997
563.00 2.402408
563.10 2.402408
563.20 2.402408
563.30 2.402408
563.40 2.402408
563.50 2.412001
563.60 2.433291
563.70 2.463992
563.80 2.501484
563.90 2.547869
564.00 2.609115
564.10 2.666134
564.20 2.697258
564.30 2.706394
564.40 2.697028
564.50 2.66895
564.60 2.620386
564.70 2.545517
564.80 2.438147
564.90 2.351066
565.00 2.296346
565.10 2.26785
565.20 2.254151
565.30 2.243663
565.40 2.233725
565.50 2.229969
565.60 2.229969
565.70 2.229969
565.80 2.229969
565.90 2.229969
566.00 2.229969
566.10 2.184426
566.20 2.080889
566.30 1.921378
566.40 1.719609
566.50 1.499499
566.60 1.290017
566.70 1.116953
566.80 0.9980552
566.90 0.9389828
567.00 0.9315725
567.10 0.9315725
567.20 0.9315725
567.30 0.9423884
567.40 0.9695623
567.50 0.9939417
567.60 1.003634
567.70 0.9964265
567.80 0.9759186
567.90 0.9418416
568.00 0.8900127
568.10 0.8177385
568.20 0.724058
568.30 0.6114287
568.40 0.4876252
568.50 0.3659321
568.60 0.2610091
568.70 0.1932594
568.80 0.1835056
568.90 0.1873617
569.00 0.1937078
569.10 0.2022928
569.20 0.2081955
569.30 0.2081955
569.40 0.2081955
569.50 0.2081955
569.60 0.2081955
569.70 0.2081955
569.80 0.2081955
569.90 0.2081955
570.00 0.2212917
570.10 0.2531228
570.20 0.2962346
570.30 0.3400766
570.40 0.371721
570.50 0.378439
570.60 0.378439
570.70 0.378439
570.80 0.378439
570.90 0.378439
571.00 0.3802441
571.10 0.4034149
571.20 0.4464525
571.30 0.4927421
571.40 0.527828
571.50 0.5528471
571.60 0.5724515
571.70 0.5880417
571.80 0.5967539
571.90 0.5939675
572.00 0.5845509
572.10 0.5767849
572.20 0.5709839
572.30 0.5680464
572.40 0.5677069
572.50 0.5677069
572.60 0.5677069
572.70 0.5677069
572.80 0.566193
572.90 0.5623368
573.00 0.5559907
573.10 0.5474058
573.20 0.5415031
573.30 0.5415031
573.40 0.5415031
573.50 0.5415031
573.60 0.5415031
573.70 0.5415031
573.80 0.5415031
573.90 0.5415031
574.00 0.5284068
574.10 0.5027909
574.20 0.4711412
574.30 0.4466048
574.40 0.4448449
574.50 0.4774656
574.60 0.5220667
574.70 0.5658828
574.80 0.6019486
574.90 0.6238837
575.00 0.6265239
575.10 0.6033531
575.20 0.5603154
575.30 0.50321
575.40 0.4409502
575.50 0.381958
575.60 0.3525104
575.70 0.3711474
575.80 0.4392745
575.90 0.5525518
576.00 0.6925195
576.10 0.8346247
576.20 0.9631341
576.30 1.066063
576.40 1.136892
576.50 1.173189
576.60 1.177736
576.70 1.177736
576.80 1.177736
576.90 1.177736
577.00 1.177736
577.10 1.177736
577.20 1.177736
577.30 1.177736
577.40 1.177736
577.50 1.177736
577.60 1.177736
577.70 1.177736
577.80 1.177736
577.90 1.177736
578.00 1.177736
578.10 1.171521
578.20 1.160059
578.30 1.143627
578.40 1.126993
578.50 1.112475
578.60 1.103181
578.70 1.100501
578.80 1.098033
578.90 1.081679
579.00 1.077234
579.10 1.077234
579.20 1.077234
579.30 1.077234
579.40 1.077234
579.50 1.077234
579.60 1.056095
579.70 0.9983746
579.80 0.9045509
579.90 0.7817518
580.00 0.64243
580.10 0.5003248
580.20 0.3718154
580.30 0.2688863
580.40 0.198058
580.50 0.1617605
580.60 0.1572132
580.70 0.1572132
580.80 0.1572132
580.90 0.1572132
581.00 0.1572132
581.10 0.1632602
581.20 0.1785745
581.30 0.190808
581.40 0.1913849
581.50 0.1913849
581.60 0.1913849
581.70 0.1913849
581.80 0.1913849
581.90 0.1913849
582.00 0.1913849
582.10 0.1913849
582.20 0.1913849
582.30 0.1970969
582.40 0.2190824
582.50 0.2455034
582.60 0.2633186
582.70 0.2584954
582.80 0.2248973
582.90 0.2193159
583.00 0.2193159
583.10 0.2193159
583.20 0.2193159
583.30 0.2193159
583.40 0.2193159
583.50 0.2193159
583.60 0.2193159
583.70 0.2193159
583.80 0.2193159
583.90 0.2241221
584.00 0.2828976
584.10 0.3837752
584.20 0.5175996
584.30 0.6768149
584.40 0.852186
584.50 1.037515
584.60 1.227855
584.70 1.412615
584.80 1.577382
584.90 1.710142
585.00 1.803368
585.10 1.849058
585.20 1.849847
585.30 1.837613
585.40 1.837036
585.50 1.837036
585.60 1.837036
585.70 1.837036
585.80 1.853381
585.90 1.909552
586.00 2.016203
586.10 2.182975
586.20 2.411698
586.30 2.680025
586.40 2.939647
586.50 3.162985
586.60 3.328386
586.70 3.426909
586.80 3.463483
586.90 3.463483
587.00 3.463483
587.10 3.463483
587.20 3.463483
587.30 3.463483
587.40 3.463483
587.50 3.463483
587.60 3.463483
587.70 3.463483
587.80 3.463483
587.90 3.458677
588.00 3.399256
588.10 3.298378
588.20 3.164554
588.30 3.054376
588.40 3.029215
588.50 3.058986
588.60 3.11552
588.70 3.167854
588.80 3.174069
588.90 3.090831
589.00 2.997605
589.10 2.945868
589.20 2.929765
589.30 2.929765
589.40 2.929765
589.50 2.929765
589.60 2.929765
589.70 2.929765
589.80 2.91342
589.90 2.85725
590.00 2.78936
590.10 2.679568
590.20 2.515353
590.30 2.310614
590.40 2.094543
590.50 1.894451
590.60 1.728173
590.70 1.61159
590.80 1.575017
590.90 1.575017
591.00 1.575017
591.10 1.575017
591.20 1.575017
591.30 1.575017
591.40 1.575017
591.50 1.575017
591.60 1.575017
591.70 1.575017
591.80 1.575017
591.90 1.643189
592.00 1.77183
592.10 1.906339
592.20 1.993433
592.30 1.949425
592.40 1.799215
592.50 1.584115
592.60 1.337241
592.70 1.100148
592.80 0.9291655
592.90 0.8796431
593.00 0.8796431
593.10 0.8796431
593.20 0.8796431
593.30 0.8796431
593.40 0.8796431
593.50 0.8796431
593.60 0.8796431
593.70 0.8796431
593.80 0.8796431
593.90 0.8796431
594.00 0.8408812
594.10 0.7839013
594.20 0.7193929
594.30 0.64722
594.40 0.5684338
594.50 0.4939462
594.60 0.4416988
594.70 0.4234464
594.80 0.4234464
594.90 0.4234464
595.00 0.4234464
595.10 0.4234464
595.20 0.4234464
595.30 0.4234464
595.40 0.4234464
595.50 0.4234464
595.60 0.4483059
595.70 0.5159508
595.80 0.6064441
595.90 0.6214901
596.00 0.5408678
596.10 0.4063587
596.20 0.3192653
596.30 0.3142352
596.40 0.3142352
596.50 0.3142352
596.60 0.3142352
596.70 0.3142352
596.80 0.3142352
596.90 0.3142352
597.00 0.3142352
597.10 0.3142352
597.20 0.3142352
597.30 0.3142352
597.40 0.3142352
597.50 0.3142352
597.60 0.3142352
597.70 0.3142352
597.80 0.3142352
597.90 0.3142352
598.00 0.3142352
598.10 0.3142352
598.20 0.3142352
598.30 0.3142352
598.40 0.3142352
598.50 0.3142352
598.60 0.3142352
598.70 0.3142352
598.80 0.3142352
598.90 0.3142352
599.00 0.3142352
599.10 0.3142352
599.20 0.3142352
599.30 0.3142352
599.40 0.3142352
599.50 0.3142352
599.60 0.2950634
599.70 0.2737037
599.80 0.2753223
599.90 0.3238793
600.00 0
600.10 0
600.20 0
600.30 0
600.40 0
600.50 0
600.60 0
600.70 0
600.80 0
600.90 0
601.00 0
601.10 0
601.20 0
601.30 0
601.40 0
601.50 0
601.60 0.2275096
601.70 1.851409
601.80 3.684475
601.90 5.271001
602.00 6.062892
602.10 5.618359
602.20 3.448022
602.30 0
602.40 0
602.50 0
602.60 0
602.70 0
602.80 0
602.90 0
603.00 0
603.10 0
603.20 0
603.30 0
603.40 0
603.50 0
603.60 0
603.70 0
603.80 0
603.90 0
604.00 0.61842
604.10 1.284331
604.20 1.543836
604.30 1.13188
604.40 0.0996782
604.50 0
604.60 0
604.70 0
604.80 0
604.90 0
605.00 0
605.10 0
605.20 0
605.30 0
605.40 0
605.50 0
605.60 0
605.70 0
605.80 0
605.90 0
606.00 0.059773
606.10 3.185751
606.20 5.400042
606.30 6.856513
606.40 7.583194
606.50 7.531401
606.60 7.100238
606.70 6.88507
606.80 7.081056
606.90 7.580576
607.00 8.232433
607.10 8.872509
607.20 9.229723
607.30 9.057424
607.40 8.352434
607.50 6.993829
607.60 4.774697
607.70 1.817971
607.80 0
607.90 0
608.00 0
608.10 0
608.20 0
608.30 0
608.40 0
608.50 0
608.60 0
608.70 0
608.80 0
608.90 0
609.00 0.02778782
609.10 0.001086839
609.20 0
609.30 0
609.40 0
609.50 0
609.60 0
609.70 0
609.80 0
609.90 0
610.00 0
610.10 0
610.20 0
610.30 0.2140596
610.40 0.5927648
610.50 0
610.60 0
610.70 0
610.80 0
610.90 0
611.00 0
611.10 0
611.20 0
611.30 0
611.40 0
611.50 0
611.60 0
611.70 0
611.80 0
611.90 0
612.00 0
612.10 0
612.20 0.4015317
612.30 0.5841035
612.40 0.3784561
612.50 0
612.60 0
612.70 0
612.80 0
612.90 0
613.00 0
613.10 0
613.20 0
613.30 0
613.40 0
613.50 0.8186514
613.60 2.28464
613.70 3.385555
613.80 4.080421
613.90 4.420257
614.00 4.453149
614.10 4.222492
614.20 3.842134
614.30 3.484423
614.40 3.159497
614.50 2.640909
614.60 1.647436
614.70 0.02317214
614.80 0
614.90 0
615.00 0
615.10 0
615.20 0
615.30 0
615.40 0
615.50 0
615.60 0
615.70 0.1266977
615.80 0.1541195
615.90 0
616.00 0
616.10 0
616.20 0
616.30 0
616.40 0
616.50 0
616.60 0
616.70 0.2148473
616.80 0.5321085
616.90 0.6397216
617.00 0.4265258
617.10 0
617.20 0
617.30 0
617.40 0
617.50 0
617.60 0
617.70 0
617.80 0
617.90 0
618.00 0
618.10 0.444536
618.20 1.332317
618.30 2.400808
618.40 3.340001
618.50 3.902732
618.60 4.121658
618.70 4.097574
618.80 3.849366
618.90 3.372288
619.00 2.73927
619.10 2.060403
619.20 1.497144
619.30 1.213496
619.40 1.288014
619.50 1.600315
619.60 1.895869
619.70 2.056441
619.80 2.061034
619.90 1.73396
620.00 0.6045014
620.10 0
620.20 0
620.30 0
620.40 0
620.50 0
620.60 0
620.70 0
620.80 0
620.90 1.261242
621.00 3.540968
621.10 4.141905
621.20 3.043906
621.30 0.7732989
621.40 0
621.50 0
621.60 0
621.70 0
621.80 0
621.90 0
622.00 0
622.10 0
622.20 0
622.30 0
622.40 0
622.50 0
622.60 1.592277
622.70 3.40713
622.80 4.563854
622.90 4.939148
623.00 4.83337
623.10 4.666173
623.20 4.60285
623.30 4.653684
623.40 5.069401
623.50 6.050851
623.60 7.368516
623.70 8.673864
623.80 9.631617
623.90 9.941109
624.00 9.410114
624.10 8.216517
624.20 6.762879
624.30 5.3845
624.40 4.261996
624.50 3.636241
624.60 3.726593
624.70 4.469461
624.80 5.305235
624.90 5.571504
625.00 5.130577
625.10 4.079742
625.20 2.601749
625.30 0.9605478
625.40 0
625.50 0
625.60 0
625.70 0
625.80 0
625.90 0
626.00 0
626.10 0
626.20 0.6141719
626.30 2.583841
626.40 4.559434
626.50 6.209063
626.60 7.245513
626.70 7.47864
626.80 7.023437
626.90 6.06253
627.00 4.577017
627.10 2.497985
627.20 0
627.30 0
627.40 0
627.50 0
627.60 0
627.70 0
627.80 0
627.90 0
628.00 0.07691236
628.10 2.420264
628.20 3.547789
628.30 3.21981
628.40 1.596617
628.50 0
628.60 0
628.70 0
628.80 0
628.90 0
629.00 0
629.10 0
629.20 0
629.30 1.020476
629.40 3.909664
629.50 5.288681
629.60 3.683519
629.70 0
629.80 0
629.90 0
630.00 0
630.10 0
630.20 0
630.30 0
630.40 0
630.50 0
630.60 0
630.70 6.769522
630.80 10.99586
630.90 11.6356
631.00 9.895964
631.10 7.383364
631.20 5.247113
631.30 3.882108
631.40 3.097184
631.50 2.598986
631.60 2.349138
631.70 2.225368
631.80 2.110994
631.90 2.040654
632.00 2.133915
632.10 2.431177
632.20 2.832196
632.30 3.333899
632.40 4.021922
632.50 4.673199
632.60 4.605864
632.70 3.432138
632.80 1.436464
632.90 0
633.00 0
633.10 0
633.20 0
633.30 0
633.40 0
633.50 0
633.60 0.1623175
633.70 2.087606
633.80 3.775989
633.90 5.0771
634.00 5.965816
634.10 6.345688
634.20 6.252444
634.30 5.723059
634.40 4.85865
634.50 3.859714
634.60 2.911143
634.70 2.371792
634.80 2.731166
634.90 4.064816
635.00 5.94871
635.10 7.748151
635.20 8.979285
635.30 9.471718
635.40 9.309416
635.50 8.602702
635.60 7.512437
635.70 6.406604
635.80 5.540568
635.90 4.985418
636.00 4.539756
636.10 3.666906
636.20 2.097598
636.30 0.1126117
636.40 0
636.50 0
636.60 0
636.70 0
636.80 0
636.90 0
637.00 0
637.10 0
637.20 0
637.30 0
637.40 0
637.50 0
637.60 0
637.70 0
637.80 0
637.90 0
638.00 0
638.10 1.53659
638.20 3.439761
638.30 5.245348
638.40 6.397865
638.50 6.590429
638.60 5.878907
638.70 4.58982
638.80 3.1386
638.90 2.099565
639.00 1.848297
639.10 2.353773
639.20 3.266145
639.30 4.140191
639.40 4.916771
639.50 5.707771
639.60 6.604246
639.70 7.692157
639.80 8.909744
639.90 10.02632
640.00 10.80514
640.10 11.08039
640.20 10.78431
640.30 9.963746
640.40 8.756942
640.50 7.393656
640.60 6.153361
640.70 5.240595
640.80 4.635471
640.90 4.087321
641.00 3.300887
641.10 2.273027
641.20 1.330454
641.30 0.8574767
641.40 1.174618
641.50 2.34249
641.60 4.144488
641.70 6.258842
641.80 8.383598
641.90 10.0278
642.00 10.71034
642.10 10.49296
642.20 9.696322
642.30 8.721728
642.40 7.966758
642.50 7.668405
642.60 7.969729
642.70 8.835942
642.80 9.977755
642.90 11.10825
643.00 12.03868
643.10 12.56758
643.20 12.57444
643.30 12.25641
643.40 11.85745
643.50 11.31596
643.60 10.52952
643.70 9.579192
643.80 8.645105
643.90 7.837454
644.00 7.162595
644.10 6.622873
644.20 6.288242
644.30 6.220488
644.40 6.429758
644.50 6.816543
644.60 7.212136
644.70 7.508446
644.80 7.757418
644.90 7.845967
645.00 7.604617
645.10 7.123332
645.20 6.547156
645.30 6.007144
645.40 5.664384
645.50 5.7382
645.60 6.32816
645.70 7.328693
645.80 8.539283
645.90 9.971405
646.00 11.68497
646.10 13.16039
646.20 13.55192
646.30 12.61952
646.40 10.83728
646.50 8.881743
646.60 7.387792
646.70 6.772864
646.80 7.106474
646.90 7.994276
647.00 8.738106
647.10 8.940033
647.20 8.574651
647.30 7.462953
647.40 5.51729
647.50 3.341596
647.60 1.845447
647.70 1.597241
647.80 2.58248
647.90 4.297643
648.00 6.118479
648.10 7.581614
648.20 8.476322
648.30 8.84426
648.40 9.025036
648.50 9.245219
648.60 9.616397
648.70 10.36224
648.80 11.4553
648.90 12.66741
649.00 13.77817
649.10 14.60228
649.20 15.02706
649.30 15.02884
649.40 14.5786
649.50 13.75917
649.60 12.83461
649.70 12.09505
649.80 11.70775
649.90 11.72146
650.00 11.93111
650.10 12.12598
650.20 12.32945
650.30 12.54576
650.40 12.73618
650.50 12.88914
650.60 13.05293
650.70 13.21485
650.80 13.39626
650.90 13.58184
651.00 13.5348
651.10 13.06205
651.20 12.23413
651.30 11.2335
651.40 10.33707
651.50 9.816989
651.60 9.810157
651.70 10.35348
651.80 11.28001
651.90 12.34126
652.00 13.30659
652.10 13.98511
652.20 14.28681
652.30 14.1789
652.40 13.80614
652.50 13.35302
652.60 12.89637
652.70 12.4172
652.80 11.82089
652.90 10.89686
653.00 9.430956
653.10 7.370852
653.20 5.036293
653.30 2.964725
653.40 1.529897
653.50 0.9486657
653.60 1.274217
653.70 2.427212
653.80 4.099164
653.90 5.869649
654.00 7.221078
654.10 7.870298
654.20 7.881341
654.30 7.436219
654.40 6.857026
654.50 6.668915
654.60 7.227852
654.70 8.475828
654.80 10.28102
654.90 12.44883
655.00 14.49628
655.10 15.7847
655.20 15.96418
655.30 15.08317
655.40 13.5232
655.50 11.61504
655.60 9.643706
655.70 8.135382
655.80 7.547829
655.90 7.874613
656.00 8.88994
656.10 10.35737
656.20 11.84758
656.30 13.11869
656.40 14.23263
656.50 15.23318
656.60 16.04403
656.70 16.49011
656.80 16.42618
656.90 15.75227
657.00 14.52972
657.10 12.96056
657.20 11.32599
657.30 10.03343
657.40 9.317103
657.50 9.24766
657.60 9.994703
657.70 11.48
657.80 13.37329
657.90 15.36956
658.00 17.28314
658.10 18.97764
658.20 20.29016
658.30 21.24303
658.40 21.8392
658.50 21.96991
658.60 21.64905
658.70 20.78263
658.80 19.30065
658.90 17.48995
659.00 15.71258
659.10 14.21324
659.20 13.16077
659.30 12.71508
659.40 12.91134
659.50 13.65727
659.60 14.82289
659.70 16.21794
659.80 17.61524
659.90 18.667
660.00 19.06104
660.10 19.07228
660.20 19.22089
660.30 19.62144
660.40 20.1006
660.50 20.45141
660.60 20.62923
660.70 20.66148
660.80 20.50077
660.90 20.06415
661.00 19.36349
661.10 18.58591
661.20 17.93922
661.30 17.55176
661.40 17.46237
661.50 17.50299
661.60 17.51662
661.70 17.49369
661.80 17.48064
661.90 17.52939
662.00 17.64666
662.10 17.95895
662.20 18.68161
662.30 20.04725
662.40 22.14522
662.50 24.62516
662.60 26.87663
662.70 28.46417
662.80 29.10165
662.90 28.56784
663.00 26.81182
663.10 24.07791
663.20 20.91267
663.30 17.95561
663.40 15.7667
663.50 14.59951
663.60 14.32668
663.70 14.53927
663.80 14.81911
663.90 15.02875
664.00 15.18812
664.10 15.32312
664.20 15.52783
664.30 15.93038
664.40 16.64684
664.50 17.65567
664.60 18.8028
664.70 19.91477
664.80 20.66922
664.90 20.57417
665.00 19.38808
665.10 17.43206
665.20 15.26027
665.30 13.33436
665.40 11.96452
665.50 11.33692
665.60 11.47559
665.70 12.12906
665.80 12.9398
665.90 13.67403
666.00 14.21965
666.10 14.517
666.20 14.71156
666.30 15.2032
666.40 16.30492
666.50 17.88824
666.60 19.53732
666.70 20.86829
666.80 21.69039
666.90 21.98338
667.00 21.83317
667.10 21.488
667.20 21.23419
667.30 21.15102
667.40 21.2611
667.50 21.74941
667.60 22.62986
667.70 23.62636
667.80 24.42753
667.90 24.90994
668.00 25.0842
668.10 25.03585
668.20 24.92245
668.30 24.81208
668.40 24.62966
668.50 24.29669
668.60 23.80012
668.70 23.28748
668.80 22.66396
668.90 21.56386
669.00 20.03677
669.10 18.55793
669.20 17.61668
669.30 17.29805
669.40 17.43029
669.50 17.85155
669.60 18.37295
669.70 18.86516
669.80 19.33079
669.90 19.79517
670.00 20.28049
670.10 20.75884
670.20 21.35152
670.30 22.16914
670.40 23.02862
670.50 23.65312
670.60 23.84452
670.70 23.64513
670.80 23.16433
670.90 22.50715
671.00 21.94089
671.10 21.73952
671.20 22.01784
671.30 22.78383
671.40 23.94429
671.50 25.3363
671.60 26.69091
671.70 27.77171
671.80 28.42294
671.90 28.532
672.00 28.10092
672.10 27.28483
672.20 26.38908
672.30 25.66999
672.40 25.21734
672.50 25.07016
672.60 25.23871
672.70 25.65738
672.80 26.19777
672.90 26.68773
673.00 27.01044
673.10 27.12825
673.20 27.04492
673.30 26.7022
673.40 26.00236
673.50 24.98684
673.60 23.86806
673.70 22.85822
673.80 21.97482
673.90 21.2336
674.00 20.85363
674.10 21.09182
674.20 22.1108
674.30 23.85142
674.40 25.80171
674.50 27.33968
674.60 28.14512
674.70 28.16439
674.80 27.55194
674.90 26.52884
675.00 25.31052
675.10 24.20922
675.20 23.69546
675.30 24.05913
675.40 25.18036
675.50 26.68622
675.60 28.10091
675.70 29.04302
675.80 29.51978
675.90 29.71043
676.00 29.65441
676.10 29.38908
676.20 29.08261
676.30 29.03081
676.40 29.3858
676.50 29.99566
676.60 30.55236
676.70 30.83042
676.80 30.79617
676.90 30.4929
677.00 29.96808
677.10 29.29586
677.20 28.62611
677.30 28.23833
677.40 28.39238
677.50 29.16562
677.60 30.36916
677.70 31.43635
677.80 31.90796
677.90 31.76728
678.00 31.19166
678.10 30.37776
678.20 29.44708
678.30 28.53636
678.40 27.82076
678.50 27.44736
678.60 27.35877
678.70 27.29914
678.80 27.05736
678.90 26.56568
679.00 25.92429
679.10 25.45859
679.20 25.42839
679.30 25.74163
679.40 26.16223
679.50 26.48104
679.60 26.56736
679.70 26.35102
679.80 25.83802
679.90 25.12153
680.00 24.44051
680.10 23.95971
680.20 23.69745
680.30 23.73644
680.40 24.06982
680.50 24.56409
680.60 25.10722
680.70 25.7535
680.80 26.67432
680.90 28.02497
681.00 29.87949
681.10 32.05825
681.20 34.15013
681.30 35.69579
681.40 36.35961
681.50 36.10678
681.60 35.21786
681.70 33.97689
681.80 32.59352
681.90 31.38705
682.00 30.64147
682.10 30.45411
682.20 30.74222
682.30 31.20828
682.40 31.4451
682.50 31.24016
682.60 30.65433
682.70 30.0032
682.80 29.58569
682.90 29.40263
683.00 29.23135
683.10 28.91305
683.20 28.50592
683.30 28.05875
683.40 27.5648
683.50 27.06449
683.60 26.5901
683.70 26.10824
683.80 25.5237
683.90 24.86209
684.00 24.26799
684.10 23.75626
684.20 23.29936
684.30 22.96992
684.40 22.89614
684.50 23.16541
684.60 23.82101
684.70 24.79462
684.80 25.87199
684.90 26.76302
685.00 27.14391
685.10 26.93671
685.20 26.34713
685.30 25.57234
685.40 24.72998
685.50 23.9163
685.60 23.27888
685.70 23.02344
685.80 23.20323
685.90 23.57899
686.00 23.51966
686.10 22.37277
686.20 20.08495
686.30 17.14957
686.40 14.28766
686.50 12.10752
686.60 11.02195
686.70 11.24132
686.80 12.69637
686.90 15.07746
687.00 17.88636
687.10 20.541
687.20 22.51409
687.30 23.51508
687.40 23.71068
687.50 23.46096
687.60 22.97191
687.70 22.22988
687.80 21.22932
687.90 20.19284
688.00 19.34617
688.10 18.87547
688.20 18.83748
688.30 19.20815
688.40 19.92761
688.50 20.73469
688.60 21.33076
688.70 21.57843
688.80 21.6469
688.90 22.01727
689.00 22.94276
689.10 24.40687
689.20 26.25002
689.30 27.99905
689.40 29.22402
689.50 29.77331
689.60 29.71881
689.70 29.24769
689.80 28.67157
689.90 28.45869
690.00 28.95038
690.10 30.13498
690.20 31.56554
690.30 32.52293
690.40 32.54383
690.50 31.52439
690.60 29.52935
690.70 27.00241
690.80 24.5665
690.90 22.58617
691.00 21.28434
691.10 20.77561
691.20 20.99144
691.30 21.71577
691.40 22.58074
691.50 23.32465
691.60 24.01404
691.70 24.97835
691.80 26.35345
691.90 27.86843
692.00 29.27037
692.10 30.32779
692.20 30.8051
692.30 30.6173
692.40 29.79762
692.50 28.47618
692.60 26.83371
692.70 25.13324
692.80 23.83831
692.90 23.42291
693.00 24.01171
693.10 25.17793
693.20 26.28808
693.30 27.0312
693.40 27.27217
693.50 26.86574
693.60 25.65274
693.70 23.71987
693.80 21.66143
693.90 20.17572
694.00 19.67549
694.10 20.28744
694.20 21.87133
694.30 24.00555
694.40 26.0511
694.50 27.39125
694.60 27.66699
694.70 26.84103
694.80 25.30524
694.90 23.7619
695.00 22.88986
695.10 23.02892
695.20 24.01696
695.30 25.50822
695.40 27.25563
695.50 28.98964
695.60 30.38868
695.70 31.19065
695.80 31.26631
695.90 30.74821
696.00 30.03236
696.10 29.54598
696.20 29.48059
696.30 29.72594
696.40 30.14402
696.50 30.62695
696.60 31.02842
696.70 31.21959
696.80 31.035
696.90 30.38884
697.00 29.27841
697.10 27.68682
697.20 25.65603
697.30 23.33184
697.40 20.91081
697.50 18.65827
697.60 16.8169
697.70 15.59862
697.80 15.20855
697.90 15.75531
698.00 17.16571
698.10 19.13299
698.20 21.25219
698.30 23.11783
698.40 24.5335
698.50 25.51097
698.60 26.13287
698.70 26.54703
698.80 26.9281
698.90 27.28214
699.00 27.4817
699.10 27.45627
699.20 27.19899
699.30 26.77681
699.40 26.2807
699.50 25.86847
699.60 25.91572
699.70 26.79046
699.80 28.48638
699.90 30.73561
700.00 33.15664
700.10 35.25485
700.20 36.53826
700.30 36.71777
700.40 35.79553
700.50 33.99972
700.60 31.71348
700.70 29.40108
700.80 27.44553
700.90 26.0599
701.00 25.17048
701.10 24.58968
701.20 24.25076
701.30 24.13618
701.40 24.26183
701.50 24.63805
701.60 25.2585
701.70 26.21051
701.80 27.50757
701.90 28.94078
702.00 30.1922
702.10 30.95541
702.20 31.13631
702.30 30.90514
702.40 30.49694
702.50 30.04931
702.60 29.66707
702.70 29.46524
702.80 29.54648
702.90 30.05646
703.00 31.06715
703.10 32.32803
703.20 33.48677
703.30 34.33627
703.40 34.81063
703.50 34.94299
703.60 34.72078
703.70 34.04255
703.80 32.91117
703.90 31.54914
704.00 30.2364
704.10 29.13626
704.20 28.38199
704.30 28.10729
704.40 28.34241
704.50 28.9918
704.60 29.82808
704.70 30.57643
704.80 31.00839
704.90 31.00644
705.00 30.64166
705.10 30.12114
705.20 29.69527
705.30 29.54513
705.40 29.72215
705.50 30.05629
705.60 30.10054
705.70 29.5751
705.80 28.57996
705.90 27.37315
706.00 26.29579
706.10 25.73562
706.20 25.93634
706.30 26.9037
706.40 28.46306
706.50 30.4414
706.60 32.55192
706.70 34.3491
706.80 35.50366
706.90 36.06101
707.00 36.39022
707.10 36.61893
707.20 36.56971
707.30 36.16657
707.40 35.50676
707.50 34.72533
707.60 33.93262
707.70 33.2143
707.80 32.70217
707.90 32.45512
708.00 32.47309
708.10 32.79778
708.20 33.29395
708.30 33.75384
708.40 34.06443
708.50 34.15685
708.60 34.07799
708.70 33.92307
708.80 33.75173
708.90 33.65021
709.00 33.71928
709.10 34.04821
709.20 34.69454
709.30 35.5576
709.40 36.41551
709.50 37.0616
709.60 37.44774
709.70 37.59723
709.80 37.50845
709.90 37.26984
710.00 37.00909
710.10 36.84019
710.20 36.84113
710.30 37.1326
710.40 37.88709
710.50 39.16504
710.60 40.77675
710.70 42.41173
710.80 43.79943
710.90 44.72169
711.00 45.03038
711.10 44.67393
711.20 43.69552
711.30 42.22621
711.40 40.50699
711.50 38.83514
711.60 37.52525
711.70 36.78461
711.80 36.77276
711.90 37.56458
712.00 39.0393
712.10 40.89116
712.20 42.66618
712.30 43.94499
712.40 44.5681
712.50 44.53746
712.60 43.79255
712.70 42.41867
712.80 40.71074
712.90 39.00401
713.00 37.59241
713.10 36.53121
713.20 35.68374
713.30 34.9432
713.40 34.26485
713.50 33.74399
713.60 33.55488
713.70 33.86726
713.80 34.59776
713.90 35.48165
714.00 36.3237
714.10 36.86209
714.20 36.90755
714.30 36.46483
714.40 35.65164
714.50 34.74933
714.60 33.9981
714.70 33.48973
714.80 33.29679
714.90 33.44338
715.00 33.87934
715.10 34.40833
715.20 35.09868
715.30 36.22474
715.40 37.82075
715.50 39.75095
715.60 41.64809
715.70 43.12115
715.80 43.91977
715.90 43.91674
716.00 43.18307
716.10 41.97441
716.20 40.69368
716.30 39.73954
716.40 39.39986
716.50 39.85214
716.60 40.8343
716.70 41.79379
716.80 42.45279
716.90 42.76089
717.00 42.76443
717.10 42.50176
717.20 42.13427
717.30 41.92027
717.40 41.98598
717.50 42.35788
717.60 42.97569
717.70 43.67709
717.80 44.29857
717.90 44.60956
718.00 44.17645
718.10 42.76457
718.20 40.58241
718.30 38.07104
718.40 35.73668
718.50 34.064
718.60 33.21459
718.70 32.95945
718.80 33.05868
718.90 33.40926
719.00 34.07453
719.10 35.08005
719.20 36.21985
719.30 37.33781
719.40 38.51559
719.50 39.76442
719.60 40.81011
719.70 41.26966
719.80 40.83884
719.90 39.39776
720.00 37.13106
720.10 34.67555
720.20 32.81087
720.30 32.18108
720.40 32.97668
720.50 34.91135
720.60 37.58543
720.70 40.49909
720.80 43.15332
720.90 45.11429
721.00 46.0782
721.10 46.00791
721.20 45.12927
721.30 43.8319
721.40 42.54919
721.50 41.63939
721.60 41.26409
721.70 41.26396
721.80 41.38279
721.90 41.54124
722.00 41.76387
722.10 42.12207
722.20 42.79184
722.30 43.85864
722.40 45.19469
722.50 46.68163
722.60 48.26744
722.70 49.87255
722.80 51.29504
722.90 52.22591
723.00 52.46316
723.10 52.03005
723.20 51.17802
723.30 50.24256
723.40 49.54095
723.50 49.13317
723.60 48.60691
723.70 47.5239
723.80 45.96328
723.90 44.08822
724.00 41.66408
724.10 38.34143
724.20 34.21569
724.30 30.00327
724.40 26.56958
724.50 24.60248
724.60 24.39397
724.70 25.86317
724.80 28.4348
724.90 31.42043
725.00 34.49691
725.10 37.57746
725.20 40.32942
725.30 42.25202
725.40 43.36491
725.50 44.29212
725.60 45.52911
725.70 46.81583
725.80 47.63383
725.90 47.58471
726.00 46.55826
726.10 44.8661
726.20 43.29222
726.30 42.59766
726.40 42.99371
726.50 44.28343
726.60 46.07309
726.70 47.94523
726.80 49.49757
726.90 50.24239
727.00 49.74229
727.10 47.85749
727.20 44.82739
727.30 41.06788
727.40 37.11618
727.50 33.72725
727.60 31.53211
727.70 30.88035
727.80 31.87673
727.90 34.2556
728.00 37.18606
728.10 39.48966
728.20 40.33906
728.30 39.52551
728.40 37.38631
728.50 34.65997
728.60 32.06165
728.70 30.38421
728.80 30.25795
728.90 31.62363
729.00 33.895
729.10 36.32327
729.20 38.32621
729.30 39.43375
729.40 39.6512
729.50 39.54481
729.60 39.50686
729.70 39.59048
729.80 39.75544
729.90 40.192
730.00 41.18953
730.10 42.70737
730.20 44.31401
730.30 45.47275
730.40 45.91485
730.50 45.57324
730.60 44.47927
730.70 42.9057
730.80 41.38556
730.90 40.44783
731.00 40.19614
731.10 40.18174
731.20 39.5708
731.30 37.65523
731.40 34.42566
731.50 30.52882
731.60 26.95959
731.70 24.65735
731.80 24.10814
731.90 25.393
732.00 28.35277
732.10 32.58251
732.20 37.23985
732.30 41.07164
732.40 42.96683
732.50 42.54597
732.60 40.38373
732.70 37.4463
732.80 34.49972
732.90 32.04598
733.00 30.46079
733.10 30.02886
733.20 30.82498
733.30 32.55918
733.40 34.70265
733.50 36.63213
733.60 37.6686
733.70 37.5735
733.80 36.79103
733.90 36.00011
734.00 35.65715
734.10 35.68409
734.20 35.8598
734.30 36.18268
734.40 36.59724
734.50 37.01146
734.60 37.43902
734.70 38.06757
734.80 38.93919
734.90 39.89842
735.00 40.91274
735.10 42.0376
735.20 43.31438
735.30 44.66535
735.40 45.77025
735.50 46.345
735.60 46.08886
735.70 44.78722
735.80 42.6621
735.90 40.12371
736.00 37.58417
736.10 35.50415
736.20 34.39414
736.30 34.6857
736.40 36.41489
736.50 38.65539
736.60 39.5545
736.70 37.85925
736.80 34.11729
736.90 29.90098
737.00 26.6889
737.10 25.36769
737.20 26.13883
737.30 28.65308
737.40 32.13405
737.50 35.51424
737.60 37.71845
737.70 37.97639
737.80 36.05068
737.90 32.71848
738.00 29.55714
738.10 27.69237
738.20 27.17293
738.30 27.67202
738.40 29.07785
738.50 31.26073
738.60 34.02544
738.70 37.11199
738.80 40.16105
738.90 42.76253
739.00 44.52843
739.10 45.17532
739.20 44.63074
739.30 42.82607
739.40 39.94291
739.50 36.69375
739.60 33.80418
739.70 31.55079
739.80 29.90471
739.90 28.93301
740.00 28.65197
740.10 28.96262
740.20 29.73076
740.30 30.73078
740.40 31.69697
740.50 32.40872
740.60 32.69872
740.70 32.79122
740.80 33.07551
740.90 33.55332
741.00 34.02461
741.10 34.47016
741.20 35.06015
741.30 35.86654
741.40 36.73593
741.50 37.44976
741.60 37.94215
741.70 38.35429
741.80 38.77211
741.90 39.06629
742.00 39.06475
742.10 38.61944
742.20 37.72203
742.30 36.5365
742.40 35.42261
742.50 34.75315
742.60 34.55538
742.70 34.6562
742.80 34.93823
742.90 35.35021
743.00 35.83151
743.10 36.18471
743.20 36.24583
743.30 36.05611
743.40 35.76517
743.50 35.5094
743.60 35.31329
743.70 35.18555
743.80 35.00184
743.90 34.54365
744.00 33.61801
744.10 31.94937
744.20 29.51031
744.30 26.66588
744.40 23.80828
744.50 21.26353
744.60 19.33468
744.70 18.26485
744.80 18.20383
744.90 19.12785
745.00 20.88621
745.10 23.21398
745.20 25.77343
745.30 28.18851
745.40 30.25011
745.50 32.05297
745.60 33.62504
745.70 34.71201
745.80 35.23832
745.90 35.43604
746.00 35.3938
746.10 34.95514
746.20 33.87979
746.30 32.00175
746.40 29.28838
746.50 25.87265
746.60 22.10909
746.70 18.38495
746.80 15.27563
746.90 13.83013
747.00 14.65739
747.10 17.58617
747.20 22.04458
747.30 27.07163
747.40 31.65548
747.50 34.86872
747.60 35.87705
747.70 34.41411
747.80 31.00794
747.90 26.59431
748.00 22.12124
748.10 18.69585
748.20 17.14058
748.30 17.26644
748.40 18.67236
748.50 20.94698
748.60 23.24712
748.70 24.78198
748.80 25.03007
748.90 23.96008
749.00 22.18677
749.10 20.38202
749.20 18.96232
749.30 18.23423
749.40 18.43191
749.50 19.52911
749.60 21.20721
749.70 22.94942
749.80 24.18506
749.90 24.60786
750.00 24.20589
750.10 23.19722
750.20 22.00812
750.30 21.00093
750.40 20.29969
750.50 20.04229
750.60 20.43082
750.70 21.56784
750.80 23.35074
750.90 25.50985
751.00 27.73816
751.10 29.75326
751.20 31.28551
751.30 32.04521
751.40 31.87902
751.50 30.77165
751.60 28.82867
751.70 26.35012
751.80 23.73711
751.90 21.10929
752.00 18.24872
752.10 14.94386
752.20 11.43528
752.30 8.315796
752.40 6.026403
752.50 4.85098
752.60 4.688521
752.70 5.376857
752.80 6.850383
752.90 8.694579
753.00 10.37255
753.10 11.51782
753.20 12.00327
753.30 12.00969
753.40 11.99751
753.50 12.45888
753.60 13.48582
753.70 14.79631
753.80 16.08117
753.90 17.07162
754.00 17.82112
754.10 18.49325
754.20 19.09899
754.30 19.75735
754.40 20.59045
754.50 21.63043
754.60 22.81554
754.70 24.01386
754.80 25.02261
754.90 25.61841
755.00 25.65727
755.10 25.09303
755.20 24.01237
755.30 22.41512
755.40 20.25901
755.50 17.70811
755.60 15.07833
755.70 12.77673
755.80 11.41018
755.90 11.3464
756.00 12.38922
756.10 14.08893
756.20 16.01894
756.30 17.83986
756.40 19.25949
756.50 20.0913
756.60 20.20885
756.70 19.54409
756.80 17.95465
756.90 15.48864
757.00 12.5229
757.10 9.790277
757.20 7.88548
757.30 7.003137
757.40 7.310164
757.50 8.723682
757.60 10.85263
757.70 13.08866
757.80 14.81423
757.90 15.51
758.00 14.78808
758.10 12.67494
758.20 9.777696
758.30 6.858946
758.40 4.550853
758.50 3.173048
758.60 2.866431
758.70 3.668563
758.80 5.410296
758.90 7.979705
759.00 11.10552
759.10 14.26046
759.20 16.8159
759.30 17.93507
759.40 16.8736
759.50 13.57839
759.60 8.798205
759.70 3.56844
759.80 0
759.90 0
760.00 0
760.10 0
760.20 0
760.30 0
760.40 0
760.50 2.567745
760.60 6.4272
760.70 9.548759
760.80 11.99789
760.90 13.69758
761.00 14.16088
761.10 13.09716
761.20 11.03794
761.30 8.583431
761.40 6.071442
761.50 4.106983
761.60 3.164113
761.70 3.195859
761.80 3.808884
761.90 4.524442
762.00 4.827977
762.10 4.408313
762.20 3.191853
762.30 1.351078
762.40 0
762.50 0
762.60 0
762.70 0
762.80 0
762.90 0
763.00 0
763.10 0
763.20 0
763.30 0
763.40 0
763.50 2.67862
763.60 4.33889
763.70 4.646948
763.80 3.835287
763.90 2.761481
764.00 2.393973
764.10 3.010639
764.20 4.159405
764.30 5.211154
764.40 5.701408
764.50 5.373453
764.60 4.276201
764.70 2.736364
764.80 1.289144
764.90 0.3133497
765.00 0
765.10 0
765.20 0.3509842
765.30 0.9575835
765.40 1.247039
765.50 0.7967097
765.60 0
765.70 0
765.80 0
765.90 0
766.00 0
766.10 0
766.20 0
766.30 0
766.40 0
766.50 0
766.60 0
766.70 0.2019929
766.80 2.268965
766.90 3.55094
767.00 4.000908
767.10 3.64879
767.20 2.512308
767.30 0.7495785
767.40 0
767.50 0
767.60 0
767.70 0
767.80 0
767.90 0
768.00 0
768.10 0
768.20 0
768.30 0
768.40 0
768.50 1.079974
768.60 1.636951
768.70 1.2014
768.80 0.1594143
768.90 0
769.00 0
769.10 0
769.20 0
769.30 0
769.40 0.7774409
769.50 1.557268
769.60 1.813713
769.70 1.687525
769.80 1.379103
769.90 1.128547
770.00 1.106716
770.10 1.35833
770.20 1.82217
770.30 2.36271
770.40 2.862617
770.50 3.348248
770.60 3.721381
770.70 3.749782
770.80 3.279359
770.90 1.978395
771.00 0
771.10 0
771.20 0
771.30 0
771.40 0
771.50 0
771.60 0
771.70 0
771.80 0
771.90 0
772.00 0
772.10 0
772.20 0
772.30 0
772.40 0
772.50 0
772.60 0
772.70 0
772.80 0
772.90 0
773.00 0
773.10 0.3043688
773.20 2.613356
773.30 4.740023
773.40 6.529762
773.50 8.268468
773.60 10.27697
773.70 12.3679
773.80 14.15673
773.90 15.33368
774.00 15.62922
774.10 14.84551
774.20 13.08195
774.30 10.85565
774.40 8.899015
774.50 7.266449
774.60 4.591684
774.70 0
774.80 0
774.90 0
775.00 0
775.10 0
775.20 0
775.30 0
775.40 0
775.50 0
775.60 0
775.70 0
775.80 6.632685
775.90 10.34136
776.00 10.61415
776.10 9.523944
776.20 8.641549
776.30 8.430691
776.40 8.63593
776.50 9.037151
776.60 9.534126
776.70 10.24279
776.80 11.30555
776.90 12.52801
777.00 13.40214
777.10 13.50722
777.20 12.85091
777.30 11.68532
777.40 10.33634
777.50 9.139191
777.60 8.421991
777.70 8.415744
777.80 9.087981
777.90 10.27554
778.00 11.77407
778.10 13.13555
778.20 13.92777
778.30 14.09771
778.40 13.99186
778.50 13.97831
778.60 14.10022
778.70 14.41598
778.80 14.94445
778.90 15.26705
779.00 14.30133
779.10 10.87257
779.20 4.971845
779.30 0
779.40 0
779.50 0
779.60 0
779.70 0
779.80 0
779.90 0
780.00 0
780.10 5.061433
780.20 11.55262
780.30 15.54491
780.40 16.95115
780.50 16.24953
780.60 14.04104
780.70 11.16313
780.80 8.681777
780.90 7.641827
781.00 8.493887
781.10 11.16368
781.20 15.38229
781.30 20.68346
781.40 26.55115
781.50 31.83305
781.60 34.73065
781.70 33.69665
781.80 28.29456
781.90 19.63972
782.00 9.770198
782.10 1.008228
782.20 0
782.30 0
782.40 0
782.50 2.796613
782.60 11.12852
782.70 19.52247
782.80 25.87124
782.90 28.89778
783.00 28.78109
783.10 26.68346
783.20 24.04745
783.30 22.10851
783.40 21.44436
783.50 21.85642
783.60 22.88151
783.70 23.89377
783.80 24.11336
783.90 23.31667
784.00 21.81598
784.10 20.254
784.20 19.22548
784.30 18.9731
784.40 19.5235
784.50 20.96636
784.60 23.64453
784.70 27.53365
784.80 31.89425
784.90 35.31665
785.00 35.84745
785.10 32.86683
785.20 27.76234
785.30 22.18072
785.40 17.39748
785.50 14.34872
785.60 13.52785
785.70 14.79352
785.80 17.4795
785.90 20.83438
786.00 23.87853
786.10 25.71359
786.20 26.08276
786.30 25.56481
786.40 25.60518
786.50 27.09001
786.60 29.12111
786.70 30.29781
786.80 30.09023
786.90 28.7496
787.00 27.02558
787.10 26.00371
787.20 26.47854
787.30 28.51986
787.40 31.75419
787.50 35.60006
787.60 39.35115
787.70 42.4012
787.80 44.34821
787.90 45.02218
788.00 44.9436
788.10 45.0828
788.20 46.09615
788.30 48.09063
788.40 50.56916
788.50 52.8291
788.60 54.28031
788.70 54.45037
788.80 53.20184
788.90 50.83737
789.00 47.89319
789.10 44.91622
789.20 42.33014
789.30 40.52862
789.40 39.88026
789.50 40.44492
789.60 41.83152
789.70 43.3117
789.80 44.28707
789.90 44.63503
790.00 44.47756
790.10 43.94455
790.20 43.18413
790.30 42.34946
790.40 41.6094
790.50 41.18889
790.60 41.52203
790.70 42.66358
790.80 43.54946
790.90 42.3357
791.00 37.15615
791.10 28.01981
791.20 17.15227
791.30 7.040467
791.40 0
791.50 0
791.60 0.05840747
791.70 7.074061
791.80 16.8758
791.90 27.32874
792.00 36.09421
792.10 41.48601
792.20 43.3857
792.30 43.21236
792.40 43.21671
792.50 44.59679
792.60 46.911
792.70 49.50061
792.80 51.65703
792.90 52.71197
793.00 52.45831
793.10 51.13062
793.20 49.28635
793.30 47.61017
793.40 46.62613
793.50 46.62575
793.60 47.62762
793.70 49.45079
793.80 51.7299
793.90 53.8544
794.00 55.16277
794.10 55.19921
794.20 53.83636
794.30 51.10543
794.40 47.13719
794.50 42.32066
794.60 37.25736
794.70 32.61573
794.80 29.03717
794.90 27.05627
795.00 26.96557
795.10 28.58875
795.20 31.47494
795.30 35.20842
795.40 39.39584
795.50 43.57096
795.60 47.33911
795.70 50.37807
795.80 52.43026
795.90 53.46095
796.00 53.45339
796.10 52.12756
796.20 49.68761
796.30 46.97392
796.40 44.8338
796.50 44.18092
796.60 45.53548
796.70 48.76876
796.80 53.43504
796.90 58.82285
797.00 64.05828
797.10 68.44662
797.20 71.58766
797.30 73.26984
797.40 73.59343
797.50 73.20417
797.60 72.56866
797.70 71.77693
797.80 71.09889
797.90 70.62596
798.00 70.53063
798.10 71.1208
798.20 72.33628
798.30 73.92359
798.40 75.63015
798.50 77.24344
798.60 78.27956
798.70 78.25398
798.80 77.04626
798.90 74.80257
799.00 71.68712
799.10 67.97212
799.20 64.1577
799.30 60.93958
799.40 58.8347
799.50 58.00109
799.60 58.54612
799.70 60.24898
799.80 62.50094
799.90 64.68924
800.00 66.59459
800.10 68.1357
800.20 69.21909
800.30 69.67739
800.40 69.56392
800.50 69.29955
800.60 69.40272
800.70 70.13086
800.80 71.49432
800.90 73.45621
801.00 75.65779
801.10 77.56749
801.20 78.75951
801.30 79.12966
801.40 78.85433
801.50 78.15706
801.60 77.27351
801.70 76.6788
801.80 76.9035
801.90 78.03685
802.00 79.69563
802.10 81.34054
802.20 81.91348
802.30 80.12327
802.40 75.64659
802.50 69.3923
802.60 63.03537
802.70 58.04871
802.80 55.23302
802.90 54.77255
803.00 56.47384
803.10 60.06765
803.20 65.17695
803.30 71.1048
803.40 76.8141
803.50 81.27409
803.60 84.20842
803.70 86.06716
803.80 87.25383
803.90 87.86668
804.00 87.6965
804.10 86.67942
804.20 85.27965
804.30 84.31708
804.40 84.40307
804.50 85.67679
804.60 87.92699
804.70 90.77362
804.80 93.78401
804.90 96.62199
805.00 99.15772
805.10 101.2603
805.20 102.7004
805.30 103.2631
805.40 102.9049
805.50 101.7154
805.60 99.92034
805.70 97.71885
805.80 95.13894
805.90 92.17301
806.00 88.91115
806.10 85.83037
806.20 83.69478
806.30 83.09088
806.40 84.21827
806.50 86.93785
806.60 90.74025
806.70 94.82838
806.80 98.38748
806.90 100.7111
807.00 101.1931
807.10 99.8756
807.20 97.6779
807.30 95.83412
807.40 95.43995
807.50 96.91768
807.60 99.85978
807.70 103.3237
807.80 106.16
807.90 107.2996
808.00 106.1658
808.10 102.952
808.20 98.48398
808.30 93.93188
808.40 90.53571
808.50 89.16593
808.60 89.95292
808.70 92.39603
808.80 95.69551
808.90 98.96517
809.00 101.5668
809.10 103.1257
809.20 103.3831
809.30 102.4042
809.40 100.6617
809.50 98.61549
809.60 96.56901
809.70 94.82811
809.80 93.47576
809.90 92.4838
810.00 91.93995
810.10 91.82753
810.20 91.81296
810.30 91.59744
810.40 91.11732
810.50 90.61564
810.60 90.68207
810.70 91.66546
810.80 93.40126
810.90 95.74829
811.00 98.6428
811.10 101.898
811.20 105.3405
811.30 108.8933
811.40 112.4857
811.50 115.9718
811.60 119.2972
811.70 122.3942
811.80 124.9583
811.90 126.5356
812.00 126.7466
812.10 125.69
812.20 123.9457
812.30 122.0663
812.40 120.5361
812.50 119.8295
812.60 120.0492
812.70 120.819
812.80 121.7944
812.90 122.6612
813.00 122.917
813.10 122.2302
813.20 120.5412
813.30 118.2687
813.40 116.2701
813.50 115.1574
813.60 115.1634
813.70 116.2283
813.80 117.8563
813.90 119.2287
814.00 119.7995
814.10 119.4218
814.20 118.1214
814.30 116.5842
814.40 115.7103
814.50 115.9382
814.60 117.5744
814.70 120.5562
814.80 124.3257
814.90 128.3183
815.00 131.9407
815.10 134.6635
815.20 136.33
815.30 137.1116
815.40 137.264
815.50 137.0621
815.60 136.7698
815.70 136.2863
815.80 135.547
815.90 134.7947
816.00 134.2266
816.10 133.9265
816.20 133.9089
816.30 134.1737
816.40 134.6979
816.50 135.5164
816.60 136.7377
816.70 138.3286
816.80 140.1205
816.90 141.8997
817.00 143.3716
817.10 144.2875
817.20 144.4836
817.30 143.8523
817.40 142.4877
817.50 140.7026
817.60 138.7651
817.70 136.7856
817.80 134.8204
817.90 132.8638
818.00 130.8628
818.10 128.9096
818.20 127.2445
818.30 125.9889
818.40 124.8307
818.50 123.1641
818.60 120.5026
818.70 116.773
818.80 112.458
818.90 108.1189
819.00 103.9496
819.10 100.2556
819.20 97.62236
819.30 96.64131
819.40 97.82591
819.50 101.013
819.60 105.2286
819.70 109.4212
819.80 113.2158
819.90 116.788
820.00 120.1898
820.10 123.3419
820.20 126.0623
820.30 128.4038
820.40 131.0176
820.50 134.3515
820.60 138.2413
820.70 142.1343
820.80 145.3349
820.90 147.7376
821.00 149.648
821.10 151.1057
821.20 151.935
821.30 152.0986
821.40 151.9067
821.50 151.6589
821.60 151.3997
821.70 150.909
821.80 149.9775
821.90 148.7346
822.00 147.4223
822.10 146.3121
822.20 145.6839
822.30 145.6535
822.40 146.4239
822.50 148.3284
822.60 151.3634
822.70 155.1326
822.80 159.2911
822.90 163.4289
823.00 166.8865
823.10 169.1505
823.20 169.8905
823.30 168.9579
823.40 166.6665
823.50 163.6942
823.60 160.7233
823.70 158.3605
823.80 156.9725
823.90 156.4868
824.00 156.6213
824.10 156.8219
824.20 156.3086
824.30 154.8053
824.40 152.6545
824.50 150.466
824.60 149.0019
824.70 148.9725
824.80 150.7322
824.90 154.0063
825.00 157.9609
825.10 161.5074
825.20 163.6233
825.30 163.7207
825.40 161.6985
825.50 158.2143
825.60 154.5671
825.70 151.9512
825.80 151.2615
825.90 152.9665
826.00 156.6069
826.10 161.2064
826.20 165.9686
826.30 170.3445
826.40 173.994
826.50 176.5586
826.60 177.6672
826.70 177.2675
826.80 175.7122
826.90 173.4688
827.00 171.0545
827.10 168.969
827.20 167.4598
827.30 166.5897
827.40 166.4805
827.50 166.9352
827.60 166.851
827.70 164.4942
827.80 158.7531
827.90 150.1861
828.00 140.5341
828.10 131.9249
828.20 126.2285
828.30 124.1651
828.40 124.5534
828.50 125.0855
828.60 124.1843
828.70 121.3317
828.80 116.9374
828.90 112.2292
829.00 108.845
829.10 108.7833
829.20 113.2429
829.30 121.3494
829.40 130.5763
829.50 137.6858
829.60 140.2136
829.70 137.498
829.80 131.4877
829.90 125.8506
830.00 123.3039
830.10 125.0587
830.20 131.2309
830.30 140.8652
830.40 152.3147
830.50 163.2228
830.60 170.8888
830.70 173.6578
830.80 171.8833
830.90 167.5166
831.00 162.8223
831.10 159.5078
831.20 158.0928
831.30 158.1707
831.40 159.2161
831.50 160.8899
831.60 162.9011
831.70 164.7581
831.80 166.0769
831.90 167.0462
832.00 168.3486
832.10 170.5853
832.20 173.7323
832.30 177.2055
832.40 180.2704
832.50 182.6967
832.60 184.8073
832.70 186.9808
832.80 189.578
832.90 192.7186
833.00 196.0884
833.10 199.247
833.20 201.8499
833.30 203.7727
833.40 205.0795
833.50 205.8205
833.60 205.9233
833.70 205.4739
833.80 204.7403
833.90 203.4249
834.00 199.8743
834.10 191.923
834.20 179.1946
834.30 163.8262
834.40 149.1362
834.50 138.3396
834.60 133.7546
834.70 135.9992
834.80 143.9639
834.90 155.4791
835.00 168.1935
835.10 179.5274
835.20 186.8179
835.30 188.9028
835.40 187.4889
835.50 185.9796
835.60 186.7315
835.70 189.8385
835.80 193.9416
835.90 197.6143
836.00 200.0411
836.10 200.9918
836.20 200.7524
836.30 199.939
836.40 199.0386
836.50 198.7006
836.60 199.7303
836.70 202.3053
836.80 205.7712
836.90 209.2241
837.00 211.8658
837.10 213.2939
837.20 213.7562
837.30 213.5511
837.40 212.5966
837.50 210.9189
837.60 208.7365
837.70 205.8621
837.80 201.9856
837.90 197.1382
838.00 191.6965
838.10 186.4119
838.20 182.155
838.30 179.6749
838.40 179.3899
838.50 181.2344
838.60 184.7913
838.70 189.4995
838.80 194.7571
838.90 200.0478
839.00 204.8752
839.10 208.9283
839.20 212.3295
839.30 215.2981
839.40 217.0086
839.50 215.5777
839.60 209.3236
839.70 197.677
839.80 182.1081
839.90 165.7162
840.00 151.8105
840.10 142.9261
840.20 140.2014
840.30 143.3219
840.40 151.019
840.50 161.5445
840.60 172.687
840.70 182.1044
840.80 188.7791
840.90 193.3874
841.00 197.4579
841.10 202.4308
841.20 208.222
841.30 213.6638
841.40 217.9765
841.50 220.9537
841.60 222.7603
841.70 223.7813
841.80 224.5394
841.90 225.3089
842.00 225.9679
842.10 226.443
842.20 226.8115
842.30 226.9458
842.40 226.2887
842.50 223.8649
842.60 219.4666
842.70 214.0752
842.80 208.6319
842.90 203.9466
843.00 200.9483
843.10 200.1354
843.20 201.3712
843.30 204.3066
843.40 208.5138
843.50 213.039
843.60 216.5255
843.70 217.9655
843.80 217.1328
843.90 214.9476
844.00 212.6603
844.10 210.7905
844.20 209.4586
844.30 208.4229
844.40 207.2916
844.50 206.0602
844.60 205.0997
844.70 204.9499
844.80 205.4981
844.90 205.7068
845.00 204.899
845.10 203.257
845.20 201.2019
845.30 199.2037
845.40 197.7843
845.50 197.3724
845.60 198.1298
845.70 200.171
845.80 203.4073
845.90 207.292
846.00 211.0076
846.10 213.6134
846.20 213.9015
846.30 211.3223
846.40 206.551
846.50 200.7226
846.60 195.127
846.70 190.8804
846.80 188.7834
846.90 189.257
847.00 192.0401
847.10 196.3499
847.20 201.219
847.30 205.6878
847.40 208.8318
847.50 209.874
847.60 209.1892
847.70 208.0867
847.80 207.3891
847.90 207.2736
848.00 207.7164
848.10 208.6459
848.20 209.8977
848.30 211.2927
848.40 212.8695
848.50 214.6773
848.60 216.6492
848.70 218.3962
848.80 219.234
848.90 218.6461
849.00 216.4708
849.10 212.7369
849.20 207.6859
849.30 202.1448
849.40 197.3424
849.50 194.1917
849.60 192.9432
849.70 193.5226
849.80 195.7095
849.90 199.0028
850.00 202.7143
850.10 206.3424
850.20 209.5271
850.30 211.8895
850.40 213.4292
850.50 214.2419
850.60 213.9235
850.70 211.7477
850.80 207.171
850.90 200.627
851.00 193.4667
851.10 186.99
851.20 182.0593
851.30 179.2182
851.40 178.2919
851.50 178.0199
851.60 176.7258
851.70 173.0093
851.80 165.9848
851.90 155.9737
852.00 144.6031
852.10 134.0067
852.20 126.3079
852.30 123.0497
852.40 124.7516
852.50 130.9091
852.60 140.262
852.70 151.041
852.80 161.6322
852.90 171.3912
853.00 180.4439
853.10 189.1707
853.20 197.7243
853.30 205.9353
853.40 213.6777
853.50 220.9543
853.60 227.478
853.70 232.6827
853.80 236.0937
853.90 237.6049
854.00 237.7978
854.10 237.7132
854.20 238.2037
854.30 239.5114
854.40 241.4318
854.50 243.2321
854.60 244.0062
854.70 243.115
854.80 240.3114
854.90 235.8542
855.00 230.7856
855.10 226.582
855.20 224.3559
855.30 224.74
855.40 227.6873
855.50 232.4598
855.60 237.8174
855.70 242.4079
855.80 245.2423
855.90 246.2778
856.00 246.2451
856.10 245.8604
856.20 245.6808
856.30 246.1352
856.40 247.0482
856.50 247.7122
856.60 247.8003
856.70 247.5666
856.80 247.4087
856.90 247.6232
857.00 248.4912
857.10 250.0586
857.20 251.9483
857.30 253.6519
857.40 254.6656
857.50 254.7626
857.60 253.9785
857.70 252.3424
857.80 250.1337
857.90 248.0089
858.00 246.7208
858.10 246.7132
858.20 247.9184
858.30 250.0648
858.40 252.9086
858.50 256.3062
858.60 259.8808
858.70 262.8822
858.80 264.8856
858.90 265.8841
859.00 265.7843
859.10 264.634
859.20 262.8934
859.30 261.0325
859.40 259.0714
859.50 256.9747
859.60 255.1566
859.70 254.0785
859.80 253.968
859.90 254.8995
860.00 256.9788
860.10 260.4102
860.20 265.006
860.30 269.8993
860.40 273.9681
860.50 276.0897
860.60 275.2574
860.70 271.0253
860.80 263.87
860.90 254.7161
861.00 244.4227
861.10 233.73
861.20 223.1653
861.30 212.8277
861.40 202.4273
861.50 191.6931
861.60 180.5862
861.70 169.3659
861.80 158.6611
861.90 149.2237
862.00 141.7104
862.10 136.6507
862.20 134.2842
862.30 134.4157
862.40 136.4604
862.50 139.4747
862.60 142.3117
862.70 144.1453
862.80 144.495
862.90 143.0832
863.00 139.9065
863.10 135.5697
863.20 131.2666
863.30 128.2079
863.40 127.234
863.50 128.6675
863.60 132.2894
863.70 137.3696
863.80 142.8238
863.90 147.2929
864.00 149.4964
864.10 149.0506
864.20 146.7546
864.30 143.8997
864.40 141.7354
864.50 140.9817
864.60 141.4822
864.70 142.3985
864.80 142.6134
864.90 141.4858
865.00 139.2931
865.10 136.5845
865.20 133.776
865.30 131.9152
865.40 132.6094
865.50 136.7152
865.60 144.0054
865.70 153.0437
865.80 161.6551
865.90 168.1613
866.00 171.9912
866.10 173.8297
866.20 174.9717
866.30 176.1493
866.40 177.1946
866.50 178.1439
866.60 179.4219
866.70 180.8183
866.80 181.4949
866.90 180.9567
867.00 179.4663
867.10 177.9671
867.20 177.5326
867.30 178.7286
867.40 181.3483
867.50 184.6
867.60 187.4461
867.70 188.773
867.80 187.8617
867.90 184.6385
868.00 179.6635
868.10 174.0451
868.20 169.3078
868.30 166.7993
868.40 167.0348
868.50 169.8405
868.60 174.6518
868.70 180.6355
868.80 186.6753
868.90 191.273
869.00 192.9839
869.10 191.3103
869.20 186.716
869.30 179.9387
869.40 171.9102
869.50 164.0396
869.60 157.7517
869.70 153.9459
869.80 153.0157
869.90 154.8341
870.00 158.7667
870.10 163.5014
870.20 167.3886
870.30 169.3634
870.40 169.4588
870.50 168.3221
870.60 166.6091
870.70 164.8354
870.80 163.3653
870.90 162.3211
871.00 161.534
871.10 160.7506
871.20 159.6753
871.30 158.1788
871.40 156.3514
871.50 154.4957
871.60 153.1108
871.70 152.6114
871.80 153.027
871.90 154.0617
872.00 155.2702
872.10 156.3679
872.20 157.3513
872.30 158.4706
872.40 160.1863
872.50 162.619
872.60 165.2208
872.70 167.3247
872.80 168.5329
872.90 168.6468
873.00 167.7238
873.10 166.0229
873.20 163.9851
873.30 162.1509
873.40 161.0946
873.50 161.233
873.60 162.6424
873.70 165.0776
873.80 168.1349
873.90 171.5614
874.00 175.457
874.10 179.7631
874.20 184.0553
874.30 187.7248
874.40 190.1597
874.50 191.0707
874.60 190.5446
874.70 188.7715
874.80 186.0876
874.90 183.0382
875.00 179.8806
875.10 176.9703
875.20 174.9323
875.30 174.1927
875.40 174.9843
875.50 176.9027
875.60 178.4403
875.70 178.1217
875.80 175.5212
875.90 170.6088
876.00 164.028
876.10 157.6341
876.20 153.3457
876.30 152.0316
876.40 152.2589
876.50 151.5216
876.60 148.9249
876.70 145.0934
876.80 141.6274
876.90 140.6682
877.00 144.5184
877.10 154.5556
877.20 170.1852
877.30 189.4987
877.40 209.1466
877.50 224.8027
877.60 232.5744
877.70 230.8629
877.80 222.4886
877.90 212.209
878.00 203.0345
878.10 196.2215
878.20 191.6851
878.30 188.8821
878.40 187.468
878.50 187.107
878.60 187.5323
878.70 188.5553
878.80 189.251
878.90 188.1896
879.00 185.6347
879.10 182.877
879.20 181.235
879.30 181.8371
879.40 185.0857
879.50 190.7957
879.60 197.9749
879.70 205.0163
879.80 210.2709
879.90 212.4889
880.00 211.0065
880.10 205.8585
880.20 198.793
880.30 192.687
880.40 188.931
880.50 187.3871
880.60 187.311
880.70 187.943
880.80 188.9782
880.90 190.3601
881.00 192.5315
881.10 196.3168
881.20 202.3143
881.30 210.5184
881.40 220.2994
881.50 230.6226
881.60 240.2368
881.70 247.7909
881.80 252.2773
881.90 253.2207
882.00 250.772
882.10 245.8524
882.20 238.5079
882.30 226.7544
882.40 208.1741
882.50 183.0915
882.60 154.3537
882.70 125.4756
882.80 100.8874
882.90 84.795
883.00 79.77258
883.10 86.58281
883.20 103.3796
883.30 126.0276
883.40 149.575
883.50 168.9927
883.60 181.6997
883.70 189.1703
883.80 194.9439
883.90 200.8889
884.00 207.1755
884.10 213.9433
884.20 220.6082
884.30 226.2128
884.40 229.7438
884.50 229.6904
884.60 225.5016
884.70 218.9379
884.80 212.3318
884.90 207.216
885.00 204.4654
885.10 204.4396
885.20 207.0031
885.30 211.7699
885.40 218.1063
885.50 224.9111
885.60 230.9318
885.70 235.1383
885.80 237.252
885.90 238.2179
886.00 239.2512
886.10 240.5645
886.20 241.8169
886.30 242.8108
886.40 243.3777
886.50 243.1011
886.60 241.6079
886.70 238.6898
886.80 234.3978
886.90 229.143
887.00 223.1855
887.10 217.1763
887.20 212.5031
887.30 210.5569
887.40 212.615
887.50 219.5613
887.60 231.2748
887.70 246.5173
887.80 263.4737
887.90 279.9024
888.00 293.7312
888.10 303.4446
888.20 307.7059
888.30 306.4991
888.40 301.8018
888.50 296.1431
888.60 291.312
888.70 288.4896
888.80 288.0355
888.90 289.2279
889.00 291.0237
889.10 292.2966
889.20 291.1745
889.30 286.4194
889.40 278.1007
889.50 267.3713
889.60 256.6712
889.70 248.61
889.80 244.5381
889.90 244.2813
890.00 246.7634
890.10 250.3499
890.20 253.8114
890.30 256.4167
890.40 257.2816
890.50 255.8859
890.60 252.853
890.70 249.4283
890.80 246.878
890.90 246.1936
891.00 247.7359
891.10 251.1786
891.20 255.8667
891.30 261.196
891.40 266.929
891.50 273.1203
891.60 278.9452
891.70 281.2949
891.80 278.0187
891.90 270.4789
892.00 260.9963
892.10 251.3134
892.20 242.6633
892.30 236.1412
892.40 232.5797
892.50 232.268
892.60 234.9322
892.70 239.9671
892.80 246.2151
892.90 252.1058
893.00 256.7021
893.10 261.3877
893.20 267.1457
893.30 272.1117
893.40 274.2059
893.50 272.7903
893.60 267.9859
893.70 259.6617
893.80 247.7043
893.90 232.4269
894.00 214.829
894.10 196.53
894.20 179.5709
894.30 165.7848
894.40 156.3989
894.50 152.2993
894.60 153.9765
894.70 161.4096
894.80 173.7428
894.90 189.1094
895.00 205.0486
895.10 219.5777
895.20 232.2424
895.30 243.5558
895.40 252.8629
895.50 259.1306
895.60 262.6059
895.70 264.2168
895.80 265.1167
895.90 266.0146
896.00 267.0592
896.10 268.0747
896.20 268.7604
896.30 268.8977
896.40 268.4448
896.50 267.3311
896.60 265.2093
896.70 261.8774
896.80 258.5826
896.90 256.9908
897.00 257.6409
897.10 260.295
897.20 264.0658
897.30 267.9801
897.40 271.4324
897.50 274.0417
897.60 275.7475
897.70 276.7591
897.80 277.1688
897.90 277.2421
898.00 277.4311
898.10 278.2745
898.20 280.6509
898.30 285.2109
898.40 291.7358
898.50 299.317
898.60 306.8859
898.70 312.9712
898.80 316.2413
898.90 316.4124
899.00 313.7617
899.10 308.8046
899.20 302.6275
899.30 296.208
899.40 290.183
899.50 285.5005
899.60 282.9743
899.70 282.6677
899.80 284.081
899.90 287.2658
900.00 288.5363
900.10 289.8068
900.20 291.0773
900.30 292.3478
900.40 293.6183
900.50 294.8888
900.60 296.1593
900.70 297.4298
900.80 298.7002
900.90 300.1382
901.00 301.6625
901.10 303.1868
901.20 304.7111
901.30 306.2354
901.40 307.7597
901.50 309.284
901.60 310.8083
901.70 312.3326
901.80 313.8569
901.90 315.3812
902.00 316.9055
902.10 318.4298
902.20 319.9541
902.30 321.4784
902.40 323.0027
902.50 324.527
902.60 326.0513
902.70 327.5756
902.80 329.0999
902.90 330.6242
903.00 332.1485
903.10 333.6728
903.20 335.197
903.30 336.5939
903.40 337.7997
903.50 339.0055
903.60 340.2113
903.70 341.4171
903.80 342.6229
903.90 343.8287
904.00 345.0345
904.10 346.2403
904.20 347.4461
904.30 348.627
904.40 349.7819
904.50 350.9367
904.60 352.0916
904.70 353.2465
904.80 354.4014
904.90 355.5563
905.00 356.7112
905.10 357.866
905.20 359.0209
905.30 360.1758
905.40 361.3307
905.50 362.4856
905.60 363.6405
905.70 364.7954
905.80 365.9502
905.90 367.1051
906.00 368.26
906.10 369.4149
906.20 370.5698
906.30 371.7247
906.40 372.8795
906.50 374.0344
906.60 375.1893
906.70 376.2134
906.80 376.0606
906.90 375.9077
907.00 375.7549
907.10 375.602
907.20 375.4492
907.30 375.2963
907.40 375.1435
907.50 374.9906
907.60 374.8378
907.70 374.6502
907.80 374.2495
907.90 373.8488
908.00 373.4481
908.10 373.0475
908.20 372.6468
908.30 372.2461
908.40 371.8454
908.50 371.4447
908.60 371.044
908.70 370.6433
908.80 370.2426
908.90 369.8419
909.00 369.4413
909.10 369.0406
909.20 368.6399
909.30 368.2392
909.40 367.8385
909.50 367.4378
909.60 367.0371
909.70 366.6364
909.80 366.2357
909.90 365.8351
910.00 365.4344
910.10 365.0337
910.20 365.3004
910.30 365.9761
910.40 366.6518
910.50 367.3275
910.60 368.0032
910.70 368.6789
910.80 369.3546
910.90 370.0303
911.00 370.706
911.10 371.3817
911.20 372.083
911.30 372.8008
911.40 373.5186
911.50 374.2363
911.60 374.9541
911.70 375.6719
911.80 376.3897
911.90 377.1074
912.00 377.8252
912.10 378.543
912.20 379.2608
912.30 379.9785
912.40 380.6963
912.50 381.4141
912.60 382.1319
912.70 382.8496
912.80 383.5674
912.90 384.2852
913.00 385.003
913.10 385.7207
913.20 386.4385
913.30 387.1563
913.40 387.8741
913.50 388.5918
913.60 389.3096
913.70 389.9374
913.80 390.5615
913.90 391.1855
914.00 391.8096
914.10 392.4336
914.20 393.0577
914.30 393.6817
914.40 394.3058
914.50 394.9298
914.60 395.5539
914.70 396.3869
914.80 397.2458
914.90 398.1047
915.00 398.9636
915.10 399.8225
915.20 400.6813
915.30 401.5402
915.40 402.3991
915.50 403.258
915.60 404.1169
915.70 404.9757
915.80 405.8346
915.90 406.6935
916.00 407.5524
916.10 408.4113
916.20 409.2701
916.30 410.129
916.40 410.9879
916.50 411.8468
916.60 412.7057
916.70 413.5645
916.80 414.4234
916.90 415.2823
917.00 416.1412
917.10 416.923
917.20 417.14
917.30 417.3571
917.40 417.5741
917.50 417.7911
917.60 418.0081
917.70 418.2251
917.80 418.4422
917.90 418.6592
918.00 418.8762
918.10 419.0916
918.20 419.1462
918.30 419.2009
918.40 419.2555
918.50 419.3101
918.60 419.3648
918.70 419.4194
918.80 419.474
918.90 419.5287
919.00 419.5833
919.10 419.6379
919.20 419.6926
919.30 419.7472
919.40 419.8019
919.50 419.8565
919.60 419.9111
919.70 419.9658
919.80 420.0204
919.90 420.075
920.00 420.1297
920.10 420.1843
920.20 420.2389
920.30 420.2936
920.40 420.3482
920.50 420.4028
920.60 420.48
920.70 420.7397
920.80 420.9993
920.90 421.2589
921.00 421.5185
921.10 421.7782
921.20 422.0378
921.30 422.2974
921.40 422.5571
921.50 422.8167
921.60 423.0763
921.70 423.3
921.80 423.5215
921.90 423.7429
922.00 423.9643
922.10 424.1857
922.20 424.4072
922.30 424.6286
922.40 424.85
922.50 425.0714
922.60 425.2929
922.70 425.5143
922.80 425.7357
922.90 425.9571
923.00 426.1786
923.10 426.4
923.20 426.6214
923.30 426.8428
923.40 427.0643
923.50 427.2857
923.60 427.5071
923.70 427.7285
923.80 427.95
923.90 428.1714
924.00 428.3928
924.10 428.6142
924.20 428.6271
924.30 428.6218
924.40 428.6165
924.50 428.6113
924.60 428.606
924.70 428.6007
924.80 428.5954
924.90 428.5901
925.00 428.5849
925.10 428.5796
925.20 428.4809
925.30 428.3422
925.40 428.2035
925.50 428.0648
925.60 427.9261
925.70 427.7874
925.80 427.6487
925.90 427.5099
926.00 427.3712
926.10 427.2325
926.20 427.0938
926.30 426.9551
926.40 426.8164
926.50 426.6777
926.60 426.539
926.70 426.4003
926.80 426.2616
926.90 426.1229
927.00 425.9842
927.10 425.8454
927.20 425.7067
927.30 425.568
927.40 425.4293
927.50 425.2906
927.60 425.1519
927.70 425.5242
927.80 426.3146
927.90 427.105
928.00 427.8955
928.10 428.6859
928.20 429.4763
928.30 430.2667
928.40 431.0571
928.50 431.8475
928.60 432.6379
928.70 433.5189
928.80 434.6217
928.90 435.7245
929.00 436.8273
929.10 437.93
929.20 439.0328
929.30 440.1356
929.40 441.2384
929.50 442.3411
929.60 443.4439
929.70 444.5467
929.80 445.6494
929.90 446.7522
930.00 447.855
930.10 448.9578
930.20 450.0605
930.30 451.1633
930.40 452.2661
930.50 453.3688
930.60 454.4716
930.70 455.5744
930.80 456.6772
930.90 457.7799
931.00 458.8827
931.10 459.9855
931.20 461.0777
931.30 461.6516
931.40 462.2255
931.50 462.7995
931.60 463.3734
931.70 463.9473
931.80 464.5212
931.90 465.0952
932.00 465.6691
932.10 466.243
932.20 466.817
932.30 467.1127
932.40 467.2891
932.50 467.4656
932.60 467.6421
932.70 467.8185
932.80 467.995
932.90 468.1715
933.00 468.3479
933.10 468.5244
933.20 468.7009
933.30 468.8773
933.40 469.0538
933.50 469.2303
933.60 469.4067
933.70 469.5832
933.80 469.7597
933.90 469.9361
934.00 470.1126
934.10 470.2891
934.20 470.4655
934.30 470.642
934.40 470.8185
934.50 470.9949
934.60 471.1714
934.70 471.3479
934.80 471.5526
934.90 471.8202
935.00 472.0878
935.10 472.3555
935.20 472.6231
935.30 472.8907
935.40 473.1583
935.50 473.426
935.60 473.6936
935.70 473.9612
935.80 474.2288
935.90 474.7941
936.00 475.3784
936.10 475.9627
936.20 476.5469
936.30 477.1312
936.40 477.7155
936.50 478.2998
936.60 478.884
936.70 479.4683
936.80 480.0526
936.90 480.6369
937.00 481.2211
937.10 481.8054
937.20 482.3897
937.30 482.974
937.40 483.5582
937.50 484.1425
937.60 484.7268
937.70 485.3111
937.80 485.8953
937.90 486.4796
938.00 487.0639
938.10 487.6481
938.20 488.2324
938.30 488.8167
938.40 489.4683
938.50 490.2091
938.60 490.9499
938.70 491.6908
938.80 492.4316
938.90 493.1724
939.00 493.9133
939.10 494.6541
939.20 495.3949
939.30 496.1358
939.40 496.8759
939.50 497.5814
939.60 498.2869
939.70 498.9925
939.80 499.698
939.90 500.4035
940.00 501.1091
940.10 501.8146
940.20 502.5201
940.30 503.2257
940.40 503.9312
940.50 504.6367
940.60 505.3423
940.70 506.0478
940.80 506.7533
940.90 507.4589
941.00 508.1644
941.10 508.8699
941.20 509.5755
941.30 510.281
941.40 510.9865
941.50 511.6921
941.60 512.3976
941.70 513.1031
941.80 513.8087
941.90 514.5142
942.00 515.1828
942.10 515.7937
942.20 516.4047
942.30 517.0156
942.40 517.6265
942.50 518.2375
942.60 518.8484
942.70 519.4593
942.80 520.0702
942.90 520.6812
943.00 521.2921
943.10 522.0733
943.20 522.8674
943.30 523.6615
943.40 524.4555
943.50 525.2496
943.60 526.0437
943.70 526.8377
943.80 527.6318
943.90 528.4258
944.00 529.2199
944.10 530.014
944.20 530.808
944.30 531.6021
944.40 532.3962
944.50 533.1902
944.60 533.9843
944.70 534.7784
944.80 535.5724
944.90 536.3665
945.00 537.1605
945.10 537.9546
945.20 538.7487
945.30 539.5427
945.40 540.3368
945.50 541.1309
945.60 541.8019
945.70 541.9127
945.80 542.0235
945.90 542.1343
946.00 542.245
946.10 542.3558
946.20 542.4666
946.30 542.5774
946.40 542.6881
946.50 542.7989
946.60 542.9097
946.70 542.9074
946.80 542.8495
946.90 542.7915
947.00 542.7336
947.10 542.6757
947.20 542.6177
947.30 542.5598
947.40 542.5018
947.50 542.4439
947.60 542.386
947.70 542.328
947.80 542.2701
947.90 542.2121
948.00 542.1542
948.10 542.0963
948.20 542.0383
948.30 541.9804
948.40 541.9224
948.50 541.8645
948.60 541.8066
948.70 541.7486
948.80 541.6907
948.90 541.6327
949.00 541.5748
949.10 541.5169
949.20 541.4589
949.30 541.5397
949.40 541.653
949.50 541.7663
949.60 541.8796
949.70 541.9929
949.80 542.1062
949.90 542.2195
950.00 542.3328
950.10 542.4461
950.20 542.5594
950.30 542.6301
950.40 542.5728
950.50 542.5156
950.60 542.4584
950.70 542.4011
950.80 542.3439
950.90 542.2867
951.00 542.2294
951.10 542.1722
951.20 542.115
951.30 542.0577
951.40 542.0005
951.50 541.9433
951.60 541.886
951.70 541.8288
951.80 541.7716
951.90 541.7143
952.00 541.6571
952.10 541.5999
952.20 541.5426
952.30 541.4854
952.40 541.4282
952.50 541.3709
952.60 541.3137
952.70 541.2565
952.80 541.1992
952.90 541.1812
953.00 541.2691
953.10 541.3571
953.20 541.445
953.30 541.533
953.40 541.6209
953.50 541.7089
953.60 541.7968
953.70 541.8848
953.80 541.9727
953.90 542.0607
954.00 542.3189
954.10 542.6648
954.20 543.0108
954.30 543.3567
954.40 543.7027
954.50 544.0486
954.60 544.3946
954.70 544.7405
954.80 545.0865
954.90 545.4324
955.00 545.7784
955.10 546.1243
955.20 546.4703
955.30 546.8162
955.40 547.1622
955.50 547.5081
955.60 547.8541
955.70 548.2
955.80 548.546
955.90 548.8919
956.00 549.2379
956.10 549.5839
956.20 549.9298
956.30 550.2758
956.40 550.6217
956.50 550.9677
956.60 551.3847
956.70 551.8554
956.80 552.3261
956.90 552.7968
957.00 553.2675
957.10 553.7382
957.20 554.2089
957.30 554.6796
957.40 555.1503
957.50 555.621
957.60 556.0917
957.70 556.2559
957.80 556.3934
957.90 556.531
958.00 556.6685
958.10 556.806
958.20 556.9436
958.30 557.0811
958.40 557.2186
958.50 557.3562
958.60 557.4937
958.70 557.6312
958.80 557.7687
958.90 557.9063
959.00 558.0438
959.10 558.1813
959.20 558.3189
959.30 558.4564
959.40 558.5939
959.50 558.7315
959.60 558.869
959.70 559.0065
959.80 559.1441
959.90 559.2816
960.00 559.4191
960.10 559.5567
960.20 559.6942
960.30 560.1394
960.40 560.7104
960.50 561.2813
960.60 561.8522
960.70 562.4232
960.80 562.9941
960.90 563.565
961.00 564.136
961.10 564.7069
961.20 565.2778
961.30 565.8544
961.40 566.7087
961.50 567.5629
961.60 568.4172
961.70 569.2715
961.80 570.1257
961.90 570.98
962.00 571.8343
962.10 572.6885
962.20 573.5428
962.30 574.397
962.40 575.2513
962.50 576.1056
962.60 576.9598
962.70 577.8141
962.80 578.6683
962.90 579.5226
963.00 580.3769
963.10 581.2311
963.20 582.0854
963.30 582.9396
963.40 583.7939
963.50 584.6482
963.60 585.5024
963.70 586.3567
963.80 587.2109
963.90 588.0652
964.00 588.6013
964.10 589.001
964.20 589.4008
964.30 589.8005
964.40 590.2002
964.50 590.5999
964.60 590.9997
964.70 591.3994
964.80 591.7991
964.90 592.1989
965.00 592.5986
965.10 592.8784
965.20 593.1532
965.30 593.4279
965.40 593.7027
965.50 593.9775
965.60 594.2523
965.70 594.5271
965.80 594.8018
965.90 595.0766
966.00 595.3514
966.10 595.6262
966.20 595.901
966.30 596.1757
966.40 596.4505
966.50 596.7253
966.60 597.0001
966.70 597.2749
966.80 597.5496
966.90 597.8244
967.00 598.0992
967.10 598.374
967.20 598.6488
967.30 598.9235
967.40 599.1983
967.50 599.4731
967.60 599.7479
967.70 600.1546
967.80 600.6784
967.90 601.2021
968.00 601.7258
968.10 602.2496
968.20 602.7733
968.30 603.297
968.40 603.8208
968.50 604.3445
968.60 604.8683
968.70 605.392
968.80 605.8867
968.90 606.3712
969.00 606.8558
969.10 607.3403
969.20 607.8248
969.30 608.3094
969.40 608.7939
969.50 609.2784
969.60 609.7629
969.70 610.2475
969.80 610.732
969.90 611.2165
970.00 611.7011
970.10 612.1856
970.20 612.6701
970.30 613.1546
970.40 613.6392
970.50 614.1237
970.60 614.6082
970.70 615.0927
970.80 615.5773
970.90 616.0618
971.00 616.5463
971.10 617.0309
971.20 617.5154
971.30 617.9999
971.40 618.4417
971.50 618.7128
971.60 618.9838
971.70 619.2548
971.80 619.5258
971.90 619.7968
972.00 620.0678
972.10 620.3388
972.20 620.6099
972.30 620.8809
972.40 621.1519
972.50 621.5006
972.60 621.9817
972.70 622.4627
972.80 622.9437
972.90 623.4248
973.00 623.9058
973.10 624.3869
973.20 624.8679
973.30 625.349
973.40 625.83
973.50 626.311
973.60 626.7921
973.70 627.2731
973.80 627.7542
973.90 628.2352
974.00 628.7163
974.10 629.1973
974.20 629.6784
974.30 630.1594
974.40 630.6404
974.50 631.1215
974.60 631.6025
974.70 632.0836
974.80 632.5646
974.90 633.0457
975.00 633.5267
975.10 634.0078
975.20 634.3139
975.30 634.552
975.40 634.7902
975.50 635.0283
975.60 635.2664
975.70 635.5046
975.80 635.7427
975.90 635.9808
976.00 636.2189
976.10 636.4571
976.20 636.6952
976.30 636.7034
976.40 636.671
976.50 636.6386
976.60 636.6062
976.70 636.5738
976.80 636.5414
976.90 636.509
977.00 636.4766
977.10 636.4442
977.20 636.4118
977.30 636.3794
977.40 636.347
977.50 636.3146
977.60 636.2822
977.70 636.2498
977.80 636.2174
977.90 636.185
978.00 636.1526
978.10 636.1202
978.20 636.0878
978.30 636.0554
978.40 636.023
978.50 635.9907
978.60 635.9583
978.70 635.9259
978.80 635.8935
978.90 635.8189
979.00 635.3649
979.10 634.9108
979.20 634.4568
979.30 634.0027
979.40 633.5487
979.50 633.0946
979.60 632.6406
979.70 632.1865
979.80 631.7325
979.90 631.2784
980.00 630.8699
980.10 630.6691
980.20 630.4682
980.30 630.2673
980.40 630.0664
980.50 629.8655
980.60 629.6646
980.70 629.4637
980.80 629.2629
980.90 629.062
981.00 628.8611
981.10 628.6602
981.20 628.4593
981.30 628.2584
981.40 628.0575
981.50 627.8567
981.60 627.6558
981.70 627.4549
981.80 627.254
981.90 627.0531
982.00 626.8522
982.10 626.6513
982.20 626.4505
982.30 626.2496
982.40 626.0487
982.50 625.8478
982.60 625.6469
982.70 625.2945
982.80 624.6202
982.90 623.9459
983.00 623.2716
983.10 622.5973
983.20 621.923
983.30 621.2487
983.40 620.5744
983.50 619.9001
983.60 619.2258
983.70 618.5515
983.80 617.7654
983.90 616.7808
984.00 615.7961
984.10 614.8114
984.20 613.8267
984.30 612.8421
984.40 611.8574
984.50 610.8727
984.60 609.888
984.70 608.9034
984.80 607.9187
984.90 606.934
985.00 605.9493
985.10 604.9646
985.20 603.98
985.30 602.9953
985.40 602.0106
985.50 601.0259
985.60 600.0413
985.70 599.0566
985.80 598.0719
985.90 597.0872
986.00 596.1026
986.10 595.1179
986.20 594.1332
986.30 593.1485
986.40 592.1639
986.50 591.318
986.60 590.6804
986.70 590.0427
986.80 589.4051
986.90 588.7674
987.00 588.1298
987.10 587.4922
987.20 586.8545
987.30 586.2169
987.40 585.5792
987.50 584.9416
987.60 584.3685
987.70 583.8924
987.80 583.4162
987.90 582.94
988.00 582.4638
988.10 581.9876
988.20 581.5114
988.30 581.0352
988.40 580.559
988.50 580.0828
988.60 579.6066
988.70 579.1304
988.80 578.6542
988.90 578.178
989.00 577.7018
989.10 577.2256
989.20 576.7494
989.30 576.2732
989.40 575.797
989.50 575.3208
989.60 574.8446
989.70 574.3684
989.80 573.8923
989.90 573.4161
990.00 572.9399
990.10 572.4637
990.20 571.9875
990.30 571.3986
990.40 570.5809
990.50 569.7633
990.60 568.9456
990.70 568.1279
990.80 567.3103
990.90 566.4926
991.00 565.675
991.10 564.8573
991.20 564.0396
991.30 563.222
991.40 562.3877
991.50 561.5128
991.60 560.6378
991.70 559.7629
991.80 558.8879
991.90 558.013
992.00 557.138
992.10 556.2631
992.20 555.3881
992.30 554.5132
992.40 553.6382
992.50 552.7633
992.60 551.8884
992.70 551.0134
992.80 550.1385
992.90 549.2635
993.00 548.3886
993.10 547.5136
993.20 546.6387
993.30 545.7637
993.40 544.8888
993.50 544.0138
993.60 543.1389
993.70 542.2639
993.80 541.389
993.90 540.5141
994.00 539.6391
994.10 538.8378
994.20 538.576
994.30 538.3143
994.40 538.0526
994.50 537.7909
994.60 537.5292
994.70 537.2674
994.80 537.0057
994.90 536.744
995.00 536.4823
995.10 536.2206
995.20 535.9515
995.30 535.4462
995.40 534.9409
995.50 534.4356
995.60 533.9303
995.70 533.425
995.80 532.9197
995.90 532.4144
996.00 531.9091
996.10 531.4038
996.20 530.8985
996.30 530.3932
996.40 529.8879
996.50 529.3826
996.60 528.8773
996.70 528.372
996.80 527.8667
996.90 527.3614
997.00 526.8561
997.10 526.3508
997.20 525.8455
997.30 525.3402
997.40 524.8349
997.50 524.3296
997.60 523.8243
997.70 523.319
997.80 522.8137
997.90 522.3084
998.00 521.8745
998.10 521.4618
998.20 521.0492
998.30 520.6366
998.40 520.2239
998.50 519.8113
998.60 519.3987
998.70 518.9861
998.80 518.5734
998.90 518.1608
999.00 517.7482
999.10 517.4948
999.20 517.3311
999.30 517.1674
999.40 517.0036
999.50 516.8399
999.60 516.6762
999.70 516.5124
999.80 516.3487
999.90 516.185
1000.00 516.0212
1000.10 515.8575
1000.20 515.6938
1000.30 515.53
1000.40 515.3663
1000.50 515.2026
1000.60 515.0388
1000.70 514.8751
1000.80 514.7114
1000.90 514.5476
1001.00 514.3839
1001.10 514.2201
1001.20 514.0564
1001.30 513.8927
1001.40 513.7289
1001.50 513.5652
1001.60 513.4015
1001.70 513.2377
1001.80 513.3075
1001.90 513.9223
1002.00 514.5371
1002.10 515.1518
1002.20 515.7666
1002.30 516.3814
1002.40 516.9961
1002.50 517.6109
1002.60 518.2256
1002.70 518.8404
1002.80 519.4552
1002.90 520.084
1003.00 520.8394
1003.10 521.5947
1003.20 522.3501
1003.30 523.1055
1003.40 523.8609
1003.50 524.6162
1003.60 525.3716
1003.70 526.127
1003.80 526.8824
1003.90 527.6377
1004.00 528.3931
1004.10 529.1485
1004.20 529.9039
1004.30 530.6592
1004.40 531.4146
1004.50 532.17
1004.60 532.9254
1004.70 533.6808
1004.80 534.4361
1004.90 535.1915
1005.00 535.9469
1005.10 536.7023
1005.20 537.4576
1005.30 538.213
1005.40 538.9684
1005.50 539.7238
1005.60 540.4791
1005.70 541.1173
1005.80 541.7052
1005.90 542.2931
1006.00 542.881
1006.10 543.4689
1006.20 544.0568
1006.30 544.6447
1006.40 545.2326
1006.50 545.8205
1006.60 546.4084
1006.70 546.9963
1006.80 547.6204
1006.90 548.2989
1007.00 548.9774
1007.10 549.6558
1007.20 550.3343
1007.30 551.0128
1007.40 551.6912
1007.50 552.3697
1007.60 553.0481
1007.70 553.7266
1007.80 554.4051
1007.90 555.0835
1008.00 555.762
1008.10 556.4404
1008.20 557.1189
1008.30 557.7974
1008.40 558.4758
1008.50 559.1543
1008.60 559.8328
1008.70 560.5112
1008.80 561.1897
1008.90 561.8681
1009.00 562.5466
1009.10 563.2251
1009.20 563.9035
1009.30 564.582
1009.40 565.2605
1009.50 565.9389
1009.60 566.5608
1009.70 567.1764
1009.80 567.792
1009.90 568.4075
1010.00 569.0231
1010.10 569.6387
1010.20 570.2543
1010.30 570.8699
1010.40 571.4855
1010.50 572.1011
1010.60 572.7166
1010.70 573.1966
1010.80 573.5861
1010.90 573.9756
1011.00 574.3651
1011.10 574.7546
1011.20 575.1442
1011.30 575.5337
1011.40 575.9232
1011.50 576.3127
1011.60 576.7022
1011.70 577.0917
1011.80 577.4812
1011.90 577.8707
1012.00 578.2603
1012.10 578.6498
1012.20 579.0393
1012.30 579.4288
1012.40 579.8183
1012.50 580.2078
1012.60 580.5973
1012.70 580.9868
1012.80 581.3764
1012.90 581.7659
1013.00 582.1554
1013.10 582.5449
1013.20 582.9344
1013.30 583.3239
1013.40 583.7134
1013.50 583.5744
1013.60 583.4355
1013.70 583.2965
1013.80 583.1575
1013.90 583.0185
1014.00 582.8795
1014.10 582.7405
1014.20 582.6015
1014.30 582.4625
1014.40 582.3235
1014.50 582.1846
1014.60 582.2037
1014.70 582.2905
1014.80 582.3774
1014.90 582.4642
1015.00 582.5511
1015.10 582.6379
1015.20 582.7248
1015.30 582.8117
1015.40 582.8985
1015.50 582.9854
1015.60 583.0722
1015.70 583.1591
1015.80 583.2459
1015.90 583.3328
1016.00 583.4197
1016.10 583.5065
1016.20 583.5934
1016.30 583.6802
1016.40 583.7671
1016.50 583.8539
1016.60 583.9408
1016.70 584.0277
1016.80 584.1145
1016.90 584.2014
1017.00 584.2882
1017.10 584.3751
1017.20 584.4619
1017.30 584.5488
1017.40 585.3385
1017.50 586.1283
1017.60 586.918
1017.70 587.7077
1017.80 588.4975
1017.90 589.2872
1018.00 590.0769
1018.10 590.8666
1018.20 591.6564
1018.30 592.4461
1018.40 593.2358
1018.50 593.927
1018.60 594.5526
1018.70 595.1781
1018.80 595.8036
1018.90 596.4292
1019.00 597.0547
1019.10 597.6802
1019.20 598.3057
1019.30 598.9313
1019.40 599.5568
1019.50 600.1823
1019.60 600.8079
1019.70 601.4334
1019.80 602.0589
1019.90 602.6845
1020.00 603.31
1020.10 603.9355
1020.20 604.561
1020.30 605.1866
1020.40 605.8121
1020.50 606.4376
1020.60 607.0632
1020.70 607.6887
1020.80 608.3142
1020.90 608.9398
1021.00 609.5653
1021.10 610.1908
1021.20 610.8163
1021.30 611.3607
1021.40 611.8848
1021.50 612.4088
1021.60 612.9329
1021.70 613.457
1021.80 613.981
1021.90 614.5051
1022.00 615.0292
1022.10 615.5532
1022.20 616.0773
1022.30 616.6014
1022.40 617.0849
1022.50 617.528
1022.60 617.9711
1022.70 618.4142
1022.80 618.8573
1022.90 619.3003
1023.00 619.7434
1023.10 620.1865
1023.20 620.6296
1023.30 621.0727
1023.40 621.5157
1023.50 621.9588
1023.60 622.4019
1023.70 622.845
1023.80 623.2881
1023.90 623.7311
1024.00 624.1742
1024.10 624.6173
1024.20 625.0604
1024.30 625.5035
1024.40 625.9465
1024.50 626.3896
1024.60 626.8327
1024.70 627.2758
1024.80 627.7189
1024.90 628.1619
1025.00 628.605
1025.10 629.0481
1025.20 629.4889
1025.30 629.9276
1025.40 630.3662
1025.50 630.8048
1025.60 631.2434
1025.70 631.682
1025.80 632.1206
1025.90 632.5592
1026.00 632.9979
1026.10 633.4365
1026.20 633.8751
1026.30 634.326
1026.40 634.8873
1026.50 635.4486
1026.60 636.0099
1026.70 636.5712
1026.80 637.1325
1026.90 637.6938
1027.00 638.2551
1027.10 638.8164
1027.20 639.3777
1027.30 639.939
1027.40 640.5003
1027.50 641.0616
1027.60 641.6229
1027.70 642.1842
1027.80 642.7455
1027.90 643.3068
1028.00 643.8681
1028.10 644.4294
1028.20 644.9907
1028.30 645.552
1028.40 646.1133
1028.50 646.6746
1028.60 647.2359
1028.70 647.7972
1028.80 648.3585
1028.90 648.9198
1029.00 649.4811
1029.10 649.9791
1029.20 649.9074
1029.30 649.8357
1029.40 649.764
1029.50 649.6923
1029.60 649.6206
1029.70 649.5488
1029.80 649.4771
1029.90 649.4054
1030.00 649.3337
1030.10 649.262
1030.20 649.1903
1030.30 649.0967
1030.40 648.9937
1030.50 648.8906
1030.60 648.7876
1030.70 648.6846
1030.80 648.5816
1030.90 648.4785
1031.00 648.3755
1031.10 648.2725
1031.20 648.1695
1031.30 648.0664
1031.40 647.9634
1031.50 647.8604
1031.60 647.7574
1031.70 647.6543
1031.80 647.5513
1031.90 647.4483
1032.00 647.3453
1032.10 647.2422
1032.20 647.1392
1032.30 647.0362
1032.40 646.9332
1032.50 646.8301
1032.60 646.7271
1032.70 646.6241
1032.80 646.5211
1032.90 646.418
1033.00 646.315
1033.10 646.9645
1033.20 648.1158
1033.30 649.267
1033.40 650.4182
1033.50 651.5694
1033.60 652.7207
1033.70 653.8719
1033.80 655.0231
1033.90 656.1743
1034.00 657.3256
1034.10 658.4768
1034.20 659.6449
1034.30 660.9652
1034.40 662.2855
1034.50 663.6058
1034.60 664.9262
1034.70 666.2465
1034.80 667.5668
1034.90 668.8871
1035.00 670.2074
1035.10 671.5277
1035.20 672.848
1035.30 674.1683
1035.40 675.4886
1035.50 676.8089
1035.60 678.1292
1035.70 679.4495
1035.80 680.7698
1035.90 682.0902
1036.00 683.4105
1036.10 684.7308
1036.20 686.0511
1036.30 687.3714
1036.40 688.6917
1036.50 690.012
1036.60 691.3323
1036.70 692.6526
1036.80 693.9729
1036.90 695.2932
1037.00 696.6135
1037.10 697.3464
1037.20 698.014
1037.30 698.6816
1037.40 699.3492
1037.50 700.0168
1037.60 700.6844
1037.70 701.352
1037.80 702.0195
1037.90 702.6871
1038.00 703.3547
1038.10 704.0223
1038.20 704.5932
1038.30 705.0189
1038.40 705.4446
1038.50 705.8704
1038.60 706.2961
1038.70 706.7218
1038.80 707.1476
1038.90 707.5733
1039.00 707.999
1039.10 708.4248
1039.20 708.8505
1039.30 709.2762
1039.40 709.702
1039.50 710.1277
1039.60 710.5534
1039.70 710.9791
1039.80 711.4049
1039.90 711.8306
1040.00 712.2563
1040.10 712.6821
1040.20 713.1078
1040.30 713.5335
1040.40 713.9593
1040.50 714.385
1040.60 714.8107
1040.70 715.2365
1040.80 715.6622
1040.90 716.0879
1041.00 716.4254
1041.10 716.4097
1041.20 716.394
1041.30 716.3783
1041.40 716.3626
1041.50 716.3468
1041.60 716.3311
1041.70 716.3154
1041.80 716.2997
1041.90 716.284
1042.00 716.2683
1042.10 716.2526
1042.20 716.3678
1042.30 716.5704
1042.40 716.7729
1042.50 716.9755
1042.60 717.178
1042.70 717.3805
1042.80 717.5831
1042.90 717.7856
1043.00 717.9881
1043.10 718.1907
1043.20 718.3932
1043.30 718.5958
1043.40 718.7983
1043.50 719.0008
1043.60 719.2034
1043.70 719.4059
1043.80 719.6084
1043.90 719.811
1044.00 720.0135
1044.10 720.216
1044.20 720.4186
1044.30 720.6211
1044.40 720.8237
1044.50 721.0262
1044.60 721.2287
1044.70 721.4313
1044.80 721.6338
1044.90 721.8363
1045.00 722.2328
1045.10 723.0816
1045.20 723.9305
1045.30 724.7793
1045.40 725.6282
1045.50 726.477
1045.60 727.3259
1045.70 728.1747
1045.80 729.0236
1045.90 729.8724
1046.00 730.7213
1046.10 731.5701
1046.20 732.2692
1046.30 732.904
1046.40 733.5389
1046.50 734.1737
1046.60 734.8085
1046.70 735.4434
1046.80 736.0782
1046.90 736.713
1047.00 737.3479
1047.10 737.9827
1047.20 738.6175
1047.30 739.2524
1047.40 739.8872
1047.50 740.522
1047.60 741.1569
1047.70 741.7917
1047.80 742.4266
1047.90 743.0614
1048.00 743.6962
1048.10 744.3311
1048.20 744.9659
1048.30 745.6007
1048.40 746.2356
1048.50 746.8704
1048.60 747.5052
1048.70 748.1401
1048.80 748.7749
1048.90 749.4097
1049.00 749.9036
1049.10 750.0684
1049.20 750.2333
1049.30 750.3981
1049.40 750.563
1049.50 750.7278
1049.60 750.8926
1049.70 751.0575
1049.80 751.2223
1049.90 751.3872
1050.00 751.552
1050.10 751.7168
1050.20 751.9241
1050.30 752.1495
1050.40 752.3749
1050.50 752.6003
1050.60 752.8257
1050.70 753.0511
1050.80 753.2765
1050.90 753.5019
1051.00 753.7273
1051.10 753.9527
1051.20 754.1781
1051.30 754.4035
1051.40 754.6289
1051.50 754.8543
1051.60 755.0797
1051.70 755.3051
1051.80 755.5305
1051.90 755.7559
1052.00 755.9813
1052.10 756.2066
1052.20 756.432
1052.30 756.6574
1052.40 756.8828
1052.50 757.1082
1052.60 757.3336
1052.70 757.559
1052.80 757.7844
1052.90 758.0098
1053.00 758.2861
1053.10 758.7656
1053.20 759.2452
1053.30 759.7247
1053.40 760.2043
1053.50 760.6838
1053.60 761.1634
1053.70 761.6429
1053.80 762.1225
1053.90 762.602
1054.00 763.0816
1054.10 763.5611
1054.20 764.0575
1054.30 764.5708
1054.40 765.0841
1054.50 765.5973
1054.60 766.1106
1054.70 766.6239
1054.80 767.1371
1054.90 767.6504
1055.00 768.1637
1055.10 768.6769
1055.20 769.1902
1055.30 769.7035
1055.40 770.2167
1055.50 770.73
1055.60 771.2433
1055.70 771.7565
1055.80 772.2698
1055.90 772.783
1056.00 773.2963
1056.10 773.8096
1056.20 774.3228
1056.30 774.8361
1056.40 775.3494
1056.50 775.8626
1056.60 776.3759
1056.70 776.8892
1056.80 777.4024
1056.90 777.9157
1057.00 778.429
1057.10 778.3234
1057.20 778.1491
1057.30 777.9749
1057.40 777.8006
1057.50 777.6263
1057.60 777.452
1057.70 777.2778
1057.80 777.1035
1057.90 776.9292
1058.00 776.7549
1058.10 776.5806
1058.20 776.4052
1058.30 776.227
1058.40 776.0487
1058.50 775.8705
1058.60 775.6923
1058.70 775.5141
1058.80 775.3359
1058.90 775.1576
1059.00 774.9794
1059.10 774.8012
1059.20 774.623
1059.30 774.4447
1059.40 774.2665
1059.50 774.0883
1059.60 773.9101
1059.70 773.7319
1059.80 773.5536
1059.90 773.3754
1060.00 773.1972
1060.10 773.019
1060.20 772.8408
1060.30 772.6625
1060.40 772.4843
1060.50 772.3061
1060.60 772.1279
1060.70 771.9496
1060.80 771.7714
1060.90 771.5932
1061.00 771.415
1061.10 771.7314
1061.20 772.3776
1061.30 773.0238
1061.40 773.6701
1061.50 774.3163
1061.60 774.9625
1061.70 775.6087
1061.80 776.2549
1061.90 776.9011
1062.00 777.5473
1062.10 778.1935
1062.20 778.8398
1062.30 779.4997
1062.40 780.1612
1062.50 780.8227
1062.60 781.4841
1062.70 782.1456
1062.80 782.8071
1062.90 783.4685
1063.00 784.13
1063.10 784.7915
1063.20 785.453
1063.30 786.1144
1063.40 786.7759
1063.50 787.4374
1063.60 788.0989
1063.70 788.7603
1063.80 789.4218
1063.90 790.0833
1064.00 790.7448
1064.10 791.4062
1064.20 792.0677
1064.30 792.7292
1064.40 793.3907
1064.50 794.0521
1064.60 794.7136
1064.70 795.3751
1064.80 796.0366
1064.90 796.698
1065.00 797.3595
1065.10 797.9608
1065.20 798.3213
1065.30 798.6819
1065.40 799.0424
1065.50 799.4029
1065.60 799.7635
1065.70 800.124
1065.80 800.4845
1065.90 800.8451
1066.00 801.2056
1066.10 801.5661
1066.20 801.9267
1066.30 802.2914
1066.40 802.6624
1066.50 803.0334
1066.60 803.4044
1066.70 803.7753
1066.80 804.1463
1066.90 804.5173
1067.00 804.8883
1067.10 805.2593
1067.20 805.6303
1067.30 806.0013
1067.40 806.3723
1067.50 806.7433
1067.60 807.1142
1067.70 807.4852
1067.80 807.8562
1067.90 808.2272
1068.00 808.5982
1068.10 808.9692
1068.20 809.3402
1068.30 809.7112
1068.40 810.0821
1068.50 810.4531
1068.60 810.8241
1068.70 811.1951
1068.80 811.5661
1068.90 811.9371
1069.00 812.3081
1069.10 812.6791
1069.20 813.1052
1069.30 813.5681
1069.40 814.031
1069.50 814.4939
1069.60 814.9568
1069.70 815.4197
1069.80 815.8826
1069.90 816.3454
1070.00 816.8083
1070.10 817.2712
1070.20 817.7341
1070.30 818.197
1070.40 818.6504
1070.50 819.1026
1070.60 819.5549
1070.70 820.0072
1070.80 820.4594
1070.90 820.9117
1071.00 821.364
1071.10 821.8163
1071.20 822.2685
1071.30 822.7208
1071.40 823.1731
1071.50 823.6253
1071.60 824.0776
1071.70 824.5299
1071.80 824.9821
1071.90 825.4344
1072.00 825.8867
1072.10 826.339
1072.20 826.7912
1072.30 827.2435
1072.40 827.6958
1072.50 828.148
1072.60 828.6003
1072.70 829.0526
1072.80 829.5049
1072.90 829.9571
1073.00 830.4094
1073.10 830.8617
1073.20 831.3139
1073.30 832.0238
1073.40 832.7338
1073.50 833.4437
1073.60 834.1536
1073.70 834.8635
1073.80 835.5734
1073.90 836.2833
1074.00 836.9933
1074.10 837.7032
1074.20 838.4131
1074.30 839.123
1074.40 839.8341
1074.50 840.5501
1074.60 841.2661
1074.70 841.9821
1074.80 842.6981
1074.90 843.4141
1075.00 844.1301
1075.10 844.8461
1075.20 845.5621
1075.30 846.2782
1075.40 846.9942
1075.50 847.7102
1075.60 848.4262
1075.70 849.1422
1075.80 849.8582
1075.90 850.5742
1076.00 851.2902
1076.10 852.0062
1076.20 852.7222
1076.30 853.4382
1076.40 854.1542
1076.50 854.8702
1076.60 855.5862
1076.70 856.3022
1076.80 857.0182
1076.90 857.7342
1077.00 858.4502
1077.10 859.1662
1077.20 859.8822
1077.30 860.5573
1077.40 861.069
1077.50 861.5807
1077.60 862.0924
1077.70 862.6041
1077.80 863.1158
1077.90 863.6275
1078.00 864.1391
1078.10 864.6508
1078.20 865.1625
1078.30 865.6742
1078.40 866.1859
1078.50 866.6655
1078.60 867.097
1078.70 867.5285
1078.80 867.96
1078.90 868.3915
1079.00 868.8231
1079.10 869.2546
1079.20 869.6861
1079.30 870.1176
1079.40 870.5491
1079.50 870.9806
1079.60 871.4121
1079.70 871.8436
1079.80 872.2752
1079.90 872.7067
1080.00 873.1382
1080.10 873.5697
1080.20 874.0012
1080.30 874.4327
1080.40 874.8642
1080.50 875.2958
1080.60 875.7273
1080.70 876.1588
1080.80 876.5903
1080.90 877.0218
1081.00 877.4533
1081.10 877.8848
1081.20 878.3163
1081.30 878.7479
1081.40 878.8647
1081.50 878.5096
1081.60 878.1545
1081.70 877.7994
1081.80 877.4442
1081.90 877.0891
1082.00 876.734
1082.10 876.3789
1082.20 876.0238
1082.30 875.6687
1082.40 875.3135
1082.50 874.9584
1082.60 874.6931
1082.70 874.5174
1082.80 874.3418
1082.90 874.1662
1083.00 873.9906
1083.10 873.815
1083.20 873.6394
1083.30 873.4638
1083.40 873.2882
1083.50 873.1126
1083.60 872.937
1083.70 872.7614
1083.80 872.5858
1083.90 872.4102
1084.00 872.2345
1084.10 872.0589
1084.20 871.8833
1084.30 871.7077
1084.40 871.5321
1084.50 871.3565
1084.60 871.1809
1084.70 871.0053
1084.80 870.8297
1084.90 870.6541
1085.00 870.4785
1085.10 870.3029
1085.20 870.1272
1085.30 869.9516
1085.40 869.776
1085.50 869.9268
1085.60 870.567
1085.70 871.2072
1085.80 871.8475
1085.90 872.4877
1086.00 873.128
1086.10 873.7682
1086.20 874.4084
1086.30 875.0487
1086.40 875.6889
1086.50 876.3292
1086.60 876.9694
1086.70 877.5507
1086.80 878.0927
1086.90 878.6347
1087.00 879.1766
1087.10 879.7186
1087.20 880.2606
1087.30 880.8026
1087.40 881.3446
1087.50 881.8865
1087.60 882.4285
1087.70 882.9705
1087.80 883.5125
1087.90 884.0545
1088.00 884.5965
1088.10 885.1384
1088.20 885.6804
1088.30 886.2224
1088.40 886.7644
1088.50 887.3064
1088.60 887.8483
1088.70 888.3903
1088.80 888.9323
1088.90 889.4743
1089.00 890.0163
1089.10 890.5582
1089.20 891.1002
1089.30 891.6422
1089.40 892.1842
1089.50 892.7262
1089.60 893.0111
1089.70 892.9105
1089.80 892.8098
1089.90 892.7092
1090.00 892.6086
1090.10 892.5079
1090.20 892.4073
1090.30 892.3066
1090.40 892.206
1090.50 892.1054
1090.60 892.0047
1090.70 891.9041
1090.80 891.7523
1090.90 891.5494
1091.00 891.3464
1091.10 891.1435
1091.20 890.9405
1091.30 890.7376
1091.40 890.5347
1091.50 890.3317
1091.60 890.1288
1091.70 889.9258
1091.80 889.7229
1091.90 889.5199
1092.00 889.317
1092.10 889.1141
1092.20 888.9111
1092.30 888.7082
1092.40 888.5052
1092.50 888.3023
1092.60 888.0993
1092.70 887.8964
1092.80 887.6935
1092.90 887.4905
1093.00 887.2876
1093.10 887.0846
1093.20 886.8817
1093.30 886.6788
1093.40 886.4758
1093.50 886.2729
1093.60 886.0699
1093.70 885.8704
1093.80 885.6788
1093.90 885.4871
1094.00 885.2955
1094.10 885.1039
1094.20 884.9123
1094.30 884.7207
1094.40 884.5291
1094.50 884.3375
1094.60 884.1458
1094.70 883.9542
1094.80 883.7626
1094.90 883.6361
1095.00 883.6074
1095.10 883.5786
1095.20 883.5498
1095.30 883.521
1095.40 883.4922
1095.50 883.4635
1095.60 883.4347
1095.70 883.4059
1095.80 883.3771
1095.90 883.3483
1096.00 883.3196
1096.10 883.2908
1096.20 883.262
1096.30 883.2332
1096.40 883.2044
1096.50 883.1757
1096.60 883.1469
1096.70 883.1181
1096.80 883.0893
1096.90 883.0605
1097.00 883.0318
1097.10 883.003
1097.20 882.9742
1097.30 882.9454
1097.40 882.9166
1097.50 882.8879
1097.60 882.8591
1097.70 882.8303
1097.80 882.8186
1097.90 882.9611
1098.00 883.1035
1098.10 883.246
1098.20 883.3884
1098.30 883.5309
1098.40 883.6733
1098.50 883.8157
1098.60 883.9582
1098.70 884.1006
1098.80 884.2431
1098.90 884.3855
1099.00 884.5056
1099.10 884.4249
1099.20 884.3441
1099.30 884.2634
1099.40 884.1827
1099.50 884.1019
1099.60 884.0212
1099.70 883.9404
1099.80 883.8597
1099.90 883.7789
1100.00 883.6982
1100.10 883.6175
1100.20 883.5367
1100.30 883.456
1100.40 883.3752
1100.50 883.2945
1100.60 883.2137
1100.70 883.133
1100.80 883.0522
1100.90 882.9715
1101.00 882.8908
1101.10 882.81
1101.20 882.7293
1101.30 882.6485
1101.40 882.5678
1101.50 882.487
1101.60 882.4063
1101.70 882.3256
1101.80 882.2448
1101.90 882.1641
1102.00 882.0388
1102.10 881.9023
1102.20 881.7658
1102.30 881.6294
1102.40 881.4929
1102.50 881.3565
1102.60 881.22
1102.70 881.0835
1102.80 880.9471
1102.90 880.8106
1103.00 880.6742
1103.10 880.5377
1103.20 880.3988
1103.30 880.2592
1103.40 880.1197
1103.50 879.9801
1103.60 879.8406
1103.70 879.701
1103.80 879.5615
1103.90 879.4219
1104.00 879.2824
1104.10 879.1428
1104.20 879.0033
1104.30 878.8637
1104.40 878.7242
1104.50 878.5847
1104.60 878.4451
1104.70 878.3056
1104.80 878.166
1104.90 878.0265
1105.00 877.8869
1105.10 877.7474
1105.20 877.6078
1105.30 877.4683
1105.40 877.3287
1105.50 877.1892
1105.60 877.0496
1105.70 876.9101
1105.80 876.7705
1105.90 876.631
1106.00 876.4914
1106.10 876.1324
1106.20 875.4442
1106.30 874.7561
1106.40 874.0679
1106.50 873.3797
1106.60 872.6915
1106.70 872.0033
1106.80 871.3151
1106.90 870.6269
1107.00 869.9387
1107.10 869.2505
1107.20 868.5623
1107.30 867.889
1107.40 867.2378
1107.50 866.5866
1107.60 865.9354
1107.70 865.2842
1107.80 864.633
1107.90 863.9819
1108.00 863.3307
1108.10 862.6795
1108.20 862.0283
1108.30 861.3771
1108.40 860.726
1108.50 860.0748
1108.60 859.4236
1108.70 858.7724
1108.80 858.1212
1108.90 857.4701
1109.00 856.8189
1109.10 856.1677
1109.20 855.5165
1109.30 854.8653
1109.40 854.2141
1109.50 853.563
1109.60 852.9118
1109.70 852.2606
1109.80 851.6094
1109.90 850.9582
1110.00 850.3071
1110.10 849.6559
1110.20 849.0047
1110.30 848.6946
1110.40 848.4223
1110.50 848.1501
1110.60 847.8779
1110.70 847.6056
1110.80 847.3334
1110.90 847.0611
1111.00 846.7889
1111.10 846.5167
1111.20 846.2444
1111.30 845.9722
1111.40 845.6999
1111.50 845.3734
1111.60 845.0409
1111.70 844.7084
1111.80 844.3758
1111.90 844.0433
1112.00 843.7108
1112.10 843.3782
1112.20 843.0457
1112.30 842.7132
1112.40 842.3806
1112.50 842.0481
1112.60 841.7156
1112.70 841.383
1112.80 841.0505
1112.90 840.718
1113.00 840.3854
1113.10 840.0529
1113.20 839.7204
1113.30 839.3878
1113.40 839.0553
1113.50 838.7228
1113.60 838.3902
1113.70 838.0577
1113.80 837.7252
1113.90 837.3926
1114.00 837.0601
1114.10 836.7276
1114.20 836.395
1114.30 836.0625
1114.40 835.8251
1114.50 835.8095
1114.60 835.794
1114.70 835.7785
1114.80 835.7629
1114.90 835.7474
1115.00 835.7319
1115.10 835.7163
1115.20 835.7008
1115.30 835.6852
1115.40 835.6697
1115.50 835.6542
1115.60 835.72
1115.70 835.9756
1115.80 836.2313
1115.90 836.4869
1116.00 836.7426
1116.10 836.9982
1116.20 837.2538
1116.30 837.5095
1116.40 837.7651
1116.50 838.0208
1116.60 838.2764
1116.70 838.5321
1116.80 838.7877
1116.90 839.0433
1117.00 839.299
1117.10 839.5546
1117.20 839.8103
1117.30 840.0659
1117.40 840.3216
1117.50 840.5772
1117.60 840.8328
1117.70 841.0885
1117.80 841.3441
1117.90 841.5998
1118.00 841.8554
1118.10 842.1111
1118.20 842.3667
1118.30 842.6223
1118.40 842.878
1118.50 843.1336
1118.60 843.5321
1118.70 843.9917
1118.80 844.4514
1118.90 844.9111
1119.00 845.3707
1119.10 845.8304
1119.20 846.2901
1119.30 846.7497
1119.40 847.2094
1119.50 847.669
1119.60 848.1287
1119.70 848.5884
1119.80 848.9615
1119.90 849.2769
1120.00 849.5924
1120.10 849.9078
1120.20 850.2232
1120.30 850.5387
1120.40 850.8541
1120.50 851.1695
1120.60 851.485
1120.70 851.8004
1120.80 852.1158
1120.90 852.4312
1121.00 852.7467
1121.10 853.0621
1121.20 853.3775
1121.30 853.693
1121.40 854.0084
1121.50 854.3238
1121.60 854.6393
1121.70 854.9547
1121.80 855.2701
1121.90 855.5856
1122.00 855.901
1122.10 856.2164
1122.20 856.5319
1122.30 856.8473
1122.40 857.1627
1122.50 857.4782
1122.60 857.7936
1122.70 858.109
1122.80 857.5665
1122.90 857.0239
1123.00 856.4814
1123.10 855.9389
1123.20 855.3963
1123.30 854.8538
1123.40 854.3112
1123.50 853.7687
1123.60 853.2262
1123.70 852.6836
1123.80 852.1411
1123.90 851.5985
1124.00 850.9882
1124.10 850.3704
1124.20 849.7526
1124.30 849.1348
1124.40 848.5169
1124.50 847.8991
1124.60 847.2813
1124.70 846.6635
1124.80 846.0457
1124.90 845.4278
1125.00 844.81
1125.10 844.1922
1125.20 843.5744
1125.30 842.9565
1125.40 842.3387
1125.50 841.7209
1125.60 841.1031
1125.70 840.4852
1125.80 839.8674
1125.90 839.2496
1126.00 838.6318
1126.10 838.0139
1126.20 837.3961
1126.30 836.7783
1126.40 836.1605
1126.50 835.5427
1126.60 834.9248
1126.70 834.307
1126.80 833.6892
1126.90 833.2138
1127.00 833.3081
1127.10 833.4024
1127.20 833.4967
1127.30 833.591
1127.40 833.6853
1127.50 833.7796
1127.60 833.8739
1127.70 833.9682
1127.80 834.0625
1127.90 834.1568
1128.00 834.2511
1128.10 834.3468
1128.20 834.4554
1128.30 834.5639
1128.40 834.6725
1128.50 834.7811
1128.60 834.8896
1128.70 834.9982
1128.80 835.1068
1128.90 835.2153
1129.00 835.3239
1129.10 835.4325
1129.20 835.541
1129.30 835.6496
1129.40 835.7582
1129.50 835.8667
1129.60 835.9753
1129.70 836.0838
1129.80 836.1924
1129.90 836.301
1130.00 836.4095
1130.10 836.5181
1130.20 836.6267
1130.30 836.7352
1130.40 836.8438
1130.50 836.9524
1130.60 837.0609
1130.70 837.1695
1130.80 837.2781
1130.90 837.3866
1131.00 837.4952
1131.10 837.4982
1131.20 837.3428
1131.30 837.1874
1131.40 837.032
1131.50 836.8766
1131.60 836.7212
1131.70 836.5658
1131.80 836.4104
1131.90 836.255
1132.00 836.0996
1132.10 835.9442
1132.20 835.7888
1132.30 835.685
1132.40 835.7876
1132.50 835.8902
1132.60 835.9928
1132.70 836.0953
1132.80 836.1979
1132.90 836.3005
1133.00 836.4031
1133.10 836.5057
1133.20 836.6083
1133.30 836.7109
1133.40 836.8135
1133.50 836.9161
1133.60 837.0186
1133.70 837.1212
1133.80 837.2238
1133.90 837.3264
1134.00 837.429
1134.10 837.5316
1134.20 837.6342
1134.30 837.7368
1134.40 837.8394
1134.50 837.9419
1134.60 838.0445
1134.70 838.1471
1134.80 838.2497
1134.90 838.3523
1135.00 838.4549
1135.10 838.5575
1135.20 838.6601
1135.30 838.9613
1135.40 839.5607
1135.50 840.16
1135.60 840.7593
1135.70 841.3587
1135.80 841.958
1135.90 842.5573
1136.00 843.1567
1136.10 843.756
1136.20 844.3553
1136.30 844.9546
1136.40 845.554
1136.50 846.0384
1136.60 846.2547
1136.70 846.471
1136.80 846.6873
1136.90 846.9036
1137.00 847.1199
1137.10 847.3362
1137.20 847.5525
1137.30 847.7687
1137.40 847.985
1137.50 848.2013
1137.60 848.4176
1137.70 848.6339
1137.80 848.8502
1137.90 849.0665
1138.00 849.2828
1138.10 849.4991
1138.20 849.7154
1138.30 849.9317
1138.40 850.148
1138.50 850.3643
1138.60 850.5806
1138.70 850.7969
1138.80 851.0132
1138.90 851.2295
1139.00 851.4458
1139.10 851.6621
1139.20 851.8783
1139.30 852.0946
1139.40 852.3109
1139.50 852.5205
1139.60 852.72
1139.70 852.9194
1139.80 853.1189
1139.90 853.3184
1140.00 853.5179
1140.10 853.7173
1140.20 853.9168
1140.30 854.1163
1140.40 854.3158
1140.50 854.5152
1140.60 854.7147
1140.70 854.9439
1140.80 855.2424
1140.90 855.5409
1141.00 855.8394
1141.10 856.1379
1141.20 856.4363
1141.30 856.7348
1141.40 857.0333
1141.50 857.3318
1141.60 857.6303
1141.70 857.9288
1141.80 858.2273
1141.90 858.5258
1142.00 858.8243
1142.10 859.1228
1142.20 859.4213
1142.30 859.7198
1142.40 860.0183
1142.50 860.3168
1142.60 860.6153
1142.70 860.9137
1142.80 861.2122
1142.90 861.5107
1143.00 861.8092
1143.10 862.1077
1143.20 862.4062
1143.30 862.7047
1143.40 863.0032
1143.50 863.3017
1143.60 863.6002
1143.70 863.9551
1143.80 864.3947
1143.90 864.8343
1144.00 865.2738
1144.10 865.7134
1144.20 866.153
1144.30 866.5926
1144.40 867.0321
1144.50 867.4717
1144.60 867.9113
1144.70 868.3509
1144.80 868.7905
1144.90 869.279
1145.00 869.9635
1145.10 870.648
1145.20 871.3324
1145.30 872.0169
1145.40 872.7014
1145.50 873.3858
1145.60 874.0703
1145.70 874.7548
1145.80 875.4393
1145.90 876.1237
1146.00 876.8082
1146.10 877.4927
1146.20 878.1772
1146.30 878.8616
1146.40 879.5461
1146.50 880.2306
1146.60 880.9151
1146.70 881.5995
1146.80 882.284
1146.90 882.9685
1147.00 883.6529
1147.10 884.3374
1147.20 885.0219
1147.30 885.7064
1147.40 886.3908
1147.50 887.0753
1147.60 887.7598
1147.70 888.4443
1147.80 889.1287
1147.90 889.7429
1148.00 890.0761
1148.10 890.4092
1148.20 890.7424
1148.30 891.0755
1148.40 891.4087
1148.50 891.7418
1148.60 892.075
1148.70 892.4081
1148.80 892.7412
1148.90 893.0744
1149.00 893.4075
1149.10 893.7407
1149.20 894.0654
1149.30 894.39
1149.40 894.7147
1149.50 895.0394
1149.60 895.3641
1149.70 895.6888
1149.80 896.0135
1149.90 896.3382
1150.00 896.6628
1150.10 896.9875
1150.20 897.3122
1150.30 897.6369
1150.40 897.9616
1150.50 898.2863
1150.60 898.6109
1150.70 898.9356
1150.80 899.2603
1150.90 899.585
1151.00 899.9097
1151.10 900.2344
1151.20 900.5591
1151.30 900.8837
1151.40 901.2084
1151.50 901.5331
1151.60 901.8578
1151.70 902.1825
1151.80 902.5072
1151.90 902.8318
1152.00 903.1565
1152.10 903.451
1152.20 903.4736
1152.30 903.4961
1152.40 903.5187
1152.50 903.5413
1152.60 903.5638
1152.70 903.5864
1152.80 903.6089
1152.90 903.6315
1153.00 903.6541
1153.10 903.6766
1153.20 903.6992
1153.30 903.7218
1153.40 903.6211
1153.50 903.4895
1153.60 903.358
1153.70 903.2264
1153.80 903.0949
1153.90 902.9634
1154.00 902.8318
1154.10 902.7003
1154.20 902.5688
1154.30 902.4372
1154.40 902.3057
1154.50 902.1742
1154.60 902.0426
1154.70 901.9111
1154.80 901.7795
1154.90 901.648
1155.00 901.5165
1155.10 901.3849
1155.20 901.2534
1155.30 901.1219
1155.40 900.9903
1155.50 900.8588
1155.60 900.7273
1155.70 900.5957
1155.80 900.4642
1155.90 900.3326
1156.00 900.2011
1156.10 900.0696
1156.20 899.938
1156.30 899.8065
1156.40 899.651
1156.50 899.4896
1156.60 899.3281
1156.70 899.1666
1156.80 899.0052
1156.90 898.8437
1157.00 898.6823
1157.10 898.5208
1157.20 898.3593
1157.30 898.1979
1157.40 898.0364
1157.50 897.875
1157.60 897.7569
1157.70 897.6678
1157.80 897.5787
1157.90 897.4897
1158.00 897.4006
1158.10 897.3115
1158.20 897.2224
1158.30 897.1333
1158.40 897.0442
1158.50 896.9551
1158.60 896.866
1158.70 896.777
1158.80 896.6879
1158.90 896.5988
1159.00 896.5097
1159.10 896.4206
1159.20 896.3315
1159.30 896.2424
1159.40 896.1533
1159.50 896.0642
1159.60 895.9752
1159.70 895.8861
1159.80 895.797
1159.90 895.7079
1160.00 895.6188
1160.10 895.5297
1160.20 895.4406
1160.30 895.3515
1160.40 895.2625
1160.50 895.1734
1160.60 894.8185
1160.70 894.1977
1160.80 893.577
1160.90 892.9563
1161.00 892.3356
1161.10 891.7148
1161.20 891.0941
1161.30 890.4734
1161.40 889.8527
1161.50 889.2319
1161.60 888.6112
1161.70 887.9905
1161.80 887.3598
1161.90 886.6893
1162.00 886.0188
1162.10 885.3483
1162.20 884.6778
1162.30 884.0073
1162.40 883.3368
1162.50 882.6663
1162.60 881.9958
1162.70 881.3253
1162.80 880.6548
1162.90 879.9843
1163.00 879.3138
1163.10 878.6433
1163.20 877.9728
1163.30 877.3023
1163.40 876.6318
1163.50 875.9613
1163.60 875.2908
1163.70 874.6203
1163.80 873.9498
1163.90 873.2793
1164.00 872.6088
1164.10 871.9383
1164.20 871.2678
1164.30 870.5973
1164.40 869.9268
1164.50 869.2563
1164.60 868.5858
1164.70 867.9153
1164.80 867.2979
1164.90 867.1587
1165.00 867.0194
1165.10 866.8802
1165.20 866.7409
1165.30 866.6016
1165.40 866.4624
1165.50 866.3231
1165.60 866.1838
1165.70 866.0446
1165.80 865.9053
1165.90 865.766
1166.00 865.6268
1166.10 865.2966
1166.20 864.9451
1166.30 864.5937
1166.40 864.2423
1166.50 863.8908
1166.60 863.5394
1166.70 863.188
1166.80 862.8366
1166.90 862.4851
1167.00 862.1337
1167.10 861.7823
1167.20 861.4308
1167.30 861.0794
1167.40 860.728
1167.50 860.3766
1167.60 860.0251
1167.70 859.6737
1167.80 859.3223
1167.90 858.9708
1168.00 858.6194
1168.10 858.268
1168.20 857.9166
1168.30 857.5651
1168.40 857.2137
1168.50 856.8623
1168.60 856.5108
1168.70 856.1594
1168.80 855.808
1168.90 855.4565
1169.00 855.1051
1169.10 855.046
1169.20 855.1122
1169.30 855.1784
1169.40 855.2445
1169.50 855.3107
1169.60 855.3769
1169.70 855.4431
1169.80 855.5092
1169.90 855.5754
1170.00 855.6416
1170.10 855.7078
1170.20 855.7739
1170.30 855.8613
1170.40 855.9804
1170.50 856.0994
1170.60 856.2185
1170.70 856.3376
1170.80 856.4566
1170.90 856.5757
1171.00 856.6948
1171.10 856.8139
1171.20 856.9329
1171.30 857.052
1171.40 857.1711
1171.50 857.2902
1171.60 857.4092
1171.70 857.5283
1171.80 857.6474
1171.90 857.7665
1172.00 857.8855
1172.10 858.0046
1172.20 858.1237
1172.30 858.2428
1172.40 858.3618
1172.50 858.4809
1172.60 858.6
1172.70 858.719
1172.80 858.8381
1172.90 858.9572
1173.00 859.0763
1173.10 859.1953
1173.20 859.3144
1173.30 859.417
1173.40 859.4535
1173.50 859.49
1173.60 859.5265
1173.70 859.563
1173.80 859.5995
1173.90 859.636
1174.00 859.6726
1174.10 859.7091
1174.20 859.7456
1174.30 859.7821
1174.40 859.8186
1174.50 859.8551
1174.60 859.9782
1174.70 860.1108
1174.80 860.2435
1174.90 860.3762
1175.00 860.5088
1175.10 860.6415
1175.20 860.7742
1175.30 860.9069
1175.40 861.0395
1175.50 861.1722
1175.60 861.3049
1175.70 861.4375
1175.80 861.5702
1175.90 861.7029
1176.00 861.8356
1176.10 861.9682
1176.20 862.1009
1176.30 862.2336
1176.40 862.3662
1176.50 862.4989
1176.60 862.6316
1176.70 862.7643
1176.80 862.8969
1176.90 863.0296
1177.00 863.1623
1177.10 863.2949
1177.20 863.4276
1177.30 863.5603
1177.40 863.693
1177.50 863.8256
1177.60 864.3263
1177.70 864.9848
1177.80 865.6432
1177.90 866.3017
1178.00 866.9601
1178.10 867.6185
1178.20 868.277
1178.30 868.9354
1178.40 869.5939
1178.50 870.2523
1178.60 870.9107
1178.70 871.5692
1178.80 872.2773
1178.90 873.0599
1179.00 873.8425
1179.10 874.6251
1179.20 875.4077
1179.30 876.1903
1179.40 876.9729
1179.50 877.7555
1179.60 878.5381
1179.70 879.3207
1179.80 880.1033
1179.90 880.8859
1180.00 881.6685
1180.10 882.4511
1180.20 883.2337
1180.30 884.0163
1180.40 884.7989
1180.50 885.5815
1180.60 886.3641
1180.70 887.1467
1180.80 887.9293
1180.90 888.7119
1181.00 889.4945
1181.10 890.2771
1181.20 891.0597
1181.30 891.8423
1181.40 892.6249
1181.50 893.4075
1181.60 894.1901
1181.70 894.9727
1181.80 895.7344
1181.90 896.3075
1182.00 896.8807
1182.10 897.4538
1182.20 898.027
1182.30 898.6002
1182.40 899.1733
1182.50 899.7465
1182.60 900.3196
1182.70 900.8928
1182.80 901.466
1182.90 902.0391
1183.00 902.6123
1183.10 903.0665
1183.20 903.4911
1183.30 903.9156
1183.40 904.3402
1183.50 904.7647
1183.60 905.1892
1183.70 905.6138
1183.80 906.0383
1183.90 906.4629
1184.00 906.8874
1184.10 907.3119
1184.20 907.7365
1184.30 908.161
1184.40 908.5855
1184.50 909.0101
1184.60 909.4346
1184.70 909.8592
1184.80 910.2837
1184.90 910.7082
1185.00 911.1328
1185.10 911.5573
1185.20 911.9819
1185.30 912.4064
1185.40 912.8309
1185.50 913.2555
1185.60 913.68
1185.70 914.1045
1185.80 914.5291
1185.90 914.9536
1186.00 915.3782
1186.10 915.6926
1186.20 915.897
1186.30 916.1013
1186.40 916.3057
1186.50 916.5101
1186.60 916.7144
1186.70 916.9188
1186.80 917.1231
1186.90 917.3275
1187.00 917.5319
1187.10 917.7362
1187.20 917.9406
1187.30 918.1926
1187.40 918.6349
1187.50 919.0773
1187.60 919.5197
1187.70 919.962
1187.80 920.4044
1187.90 920.8467
1188.00 921.2891
1188.10 921.7315
1188.20 922.1738
1188.30 922.6162
1188.40 923.0586
1188.50 923.5009
1188.60 923.9433
1188.70 924.3857
1188.80 924.828
1188.90 925.2704
1189.00 925.7127
1189.10 926.1551
1189.20 926.5975
1189.30 927.0398
1189.40 927.4822
1189.50 927.9246
1189.60 928.3669
1189.70 928.8093
1189.80 929.2517
1189.90 929.694
1190.00 930.1364
1190.10 930.5787
1190.20 931.0211
1190.30 931.4635
1190.40 931.6871
1190.50 931.8863
1190.60 932.0856
1190.70 932.2849
1190.80 932.4842
1190.90 932.6835
1191.00 932.8828
1191.10 933.0821
1191.20 933.2813
1191.30 933.4806
1191.40 933.6799
1191.50 933.8792
1191.60 933.9916
1191.70 934.017
1191.80 934.0425
1191.90 934.0679
1192.00 934.0934
1192.10 934.1189
1192.20 934.1443
1192.30 934.1698
1192.40 934.1953
1192.50 934.2207
1192.60 934.2462
1192.70 934.2716
1192.80 934.2971
1192.90 934.3226
1193.00 934.348
1193.10 934.3735
1193.20 934.399
1193.30 934.4244
1193.40 934.4499
1193.50 934.4754
1193.60 934.5008
1193.70 934.5263
1193.80 934.5517
1193.90 934.5772
1194.00 934.6027
1194.10 934.6281
1194.20 934.6536
1194.30 934.6791
1194.40 934.7045
1194.50 934.73
1194.60 934.7705
1194.70 934.9462
1194.80 935.1219
1194.90 935.2976
1195.00 935.4734
1195.10 935.6491
1195.20 935.8248
1195.30 936.0005
1195.40 936.1762
1195.50 936.352
1195.60 936.5277
1195.70 936.7034
1195.80 936.8791
1195.90 937.0476
1196.00 937.2141
1196.10 937.3807
1196.20 937.5473
1196.30 937.7139
1196.40 937.8805
1196.50 938.0471
1196.60 938.2137
1196.70 938.3803
1196.80 938.5469
1196.90 938.7134
1197.00 938.88
1197.10 939.0466
1197.20 939.2132
1197.30 939.3798
1197.40 939.5464
1197.50 939.713
1197.60 939.8796
1197.70 940.0462
1197.80 940.2127
1197.90 940.3793
1198.00 940.5459
1198.10 940.7125
1198.20 940.8791
1198.30 941.0457
1198.40 941.2123
1198.50 941.3789
1198.60 941.5455
1198.70 941.7121
1198.80 941.8786
1198.90 941.9173
1199.00 941.7639
1199.10 941.6106
1199.20 941.4573
1199.30 941.304
1199.40 941.1507
1199.50 940.9974
1199.60 940.844
1199.70 940.6907
1199.80 940.5374
1199.90 940.3841
1200.00 940.2308
1200.10 940.0774
1200.20 939.8031
1200.30 939.5287
1200.40 939.2543
1200.50 938.98
1200.60 938.7056
1200.70 938.4312
1200.80 938.1569
1200.90 937.8825
1201.00 937.6081
1201.10 937.3337
1201.20 937.0594
1201.30 936.785
1201.40 936.5106
1201.50 936.2363
1201.60 935.9619
1201.70 935.6875
1201.80 935.4131
1201.90 935.1388
1202.00 934.8644
1202.10 934.59
1202.20 934.3157
1202.30 934.0413
1202.40 933.7669
1202.50 933.4926
1202.60 933.2182
1202.70 932.9438
1202.80 932.6694
1202.90 932.3951
1203.00 932.1207
1203.10 931.8463
1203.20 932.1882
1203.30 932.9409
1203.40 933.6936
1203.50 934.4463
1203.60 935.1989
1203.70 935.9516
1203.80 936.7043
1203.90 937.457
1204.00 938.2097
1204.10 938.9624
1204.20 939.7151
1204.30 940.4678
1204.40 941.2617
1204.50 942.2209
1204.60 943.1801
1204.70 944.1393
1204.80 945.0985
1204.90 946.0577
1205.00 947.0168
1205.10 947.976
1205.20 948.9352
1205.30 949.8944
1205.40 950.8536
1205.50 951.8127
1205.60 952.7719
1205.70 953.7311
1205.80 954.6903
1205.90 955.6495
1206.00 956.6087
1206.10 957.5678
1206.20 958.527
1206.30 959.4862
1206.40 960.4454
1206.50 961.4046
1206.60 962.3638
1206.70 963.3229
1206.80 964.2821
1206.90 965.2413
1207.00 966.2005
1207.10 967.1597
1207.20 968.1188
1207.30 969.078
1207.40 970.0372
1207.50 970.6338
1207.60 971.1398
1207.70 971.6458
1207.80 972.1517
1207.90 972.6577
1208.00 973.1637
1208.10 973.6696
1208.20 974.1756
1208.30 974.6816
1208.40 975.1876
1208.50 975.6935
1208.60 976.1995
1208.70 976.7576
1208.80 977.3939
1208.90 978.0302
1209.00 978.6665
1209.10 979.3028
1209.20 979.9391
1209.30 980.5754
1209.40 981.2117
1209.50 981.848
1209.60 982.4843
1209.70 983.1206
1209.80 983.7569
1209.90 984.3933
1210.00 985.0296
1210.10 985.6659
1210.20 986.3022
1210.30 986.9385
1210.40 987.5748
1210.50 988.2111
1210.60 988.8474
1210.70 989.4837
1210.80 990.12
1210.90 990.7563
1211.00 991.3926
1211.10 992.0289
1211.20 992.6652
1211.30 993.3015
1211.40 993.9378
1211.50 994.5741
1211.60 995.2104
1211.70 995.8467
1211.80 996.7888
1211.90 997.7648
1212.00 998.7408
1212.10 999.7168
1212.20 1000.693
1212.30 1001.669
1212.40 1002.645
1212.50 1003.621
1212.60 1004.597
1212.70 1005.573
1212.80 1006.549
1212.90 1007.525
1213.00 1008.409
1213.10 1009.2
1213.20 1009.992
1213.30 1010.784
1213.40 1011.576
1213.50 1012.367
1213.60 1013.159
1213.70 1013.951
1213.80 1014.743
1213.90 1015.534
1214.00 1016.326
1214.10 1017.118
1214.20 1017.91
1214.30 1018.701
1214.40 1019.493
1214.50 1020.285
1214.60 1021.076
1214.70 1021.868
1214.80 1022.66
1214.90 1023.452
1215.00 1024.243
1215.10 1025.035
1215.20 1025.827
1215.30 1026.619
1215.40 1027.41
1215.50 1028.202
1215.60 1028.994
1215.70 1029.785
1215.80 1030.577
1215.90 1031.369
1216.00 1032.161
1216.10 1032.064
1216.20 1031.966
1216.30 1031.869
1216.40 1031.772
1216.50 1031.675
1216.60 1031.578
1216.70 1031.481
1216.80 1031.384
1216.90 1031.286
1217.00 1031.189
1217.10 1031.092
1217.20 1030.995
1217.30 1030.905
1217.40 1030.82
1217.50 1030.735
1217.60 1030.65
1217.70 1030.565
1217.80 1030.48
1217.90 1030.395
1218.00 1030.31
1218.10 1030.225
1218.20 1030.14
1218.30 1030.054
1218.40 1029.969
1218.50 1029.884
1218.60 1029.799
1218.70 1029.714
1218.80 1029.629
1218.90 1029.544
1219.00 1029.459
1219.10 1029.374
1219.20 1029.289
1219.30 1029.204
1219.40 1029.119
1219.50 1029.034
1219.60 1028.949
1219.70 1028.864
1219.80 1028.779
1219.90 1028.694
1220.00 1028.609
1220.10 1028.523
1220.20 1028.438
1220.30 1028.41
1220.40 1028.895
1220.50 1029.38
1220.60 1029.865
1220.70 1030.35
1220.80 1030.835
1220.90 1031.32
1221.00 1031.805
1221.10 1032.29
1221.20 1032.775
1221.30 1033.26
1221.40 1033.745
1221.50 1034.23
1221.60 1034.767
1221.70 1035.326
1221.80 1035.884
1221.90 1036.443
1222.00 1037.001
1222.10 1037.56
1222.20 1038.119
1222.30 1038.677
1222.40 1039.236
1222.50 1039.794
1222.60 1040.353
1222.70 1040.912
1222.80 1041.47
1222.90 1042.029
1223.00 1042.587
1223.10 1043.146
1223.20 1043.705
1223.30 1044.263
1223.40 1044.822
1223.50 1045.38
1223.60 1045.939
1223.70 1046.498
1223.80 1047.056
1223.90 1047.615
1224.00 1048.174
1224.10 1048.732
1224.20 1049.291
1224.30 1049.849
1224.40 1050.408
1224.50 1050.967
1224.60 1051.438
1224.70 1051.563
1224.80 1051.688
1224.90 1051.813
1225.00 1051.938
1225.10 1052.062
1225.20 1052.187
1225.30 1052.312
1225.40 1052.437
1225.50 1052.562
1225.60 1052.686
1225.70 1052.811
1225.80 1052.936
1225.90 1052.96
1226.00 1052.94
1226.10 1052.921
1226.20 1052.901
1226.30 1052.881
1226.40 1052.862
1226.50 1052.842
1226.60 1052.823
1226.70 1052.803
1226.80 1052.784
1226.90 1052.764
1227.00 1052.745
1227.10 1052.725
1227.20 1052.705
1227.30 1052.686
1227.40 1052.666
1227.50 1052.647
1227.60 1052.627
1227.70 1052.608
1227.80 1052.588
1227.90 1052.569
1228.00 1052.549
1228.10 1052.529
1228.20 1052.51
1228.30 1052.49
1228.40 1052.471
1228.50 1052.451
1228.60 1052.432
1228.70 1052.412
1228.80 1052.393
1228.90 1052.336
1229.00 1052.134
1229.10 1051.932
1229.20 1051.73
1229.30 1051.528
1229.40 1051.326
1229.50 1051.123
1229.60 1050.921
1229.70 1050.719
1229.80 1050.517
1229.90 1050.315
1230.00 1050.113
1230.10 1049.91
1230.20 1049.825
1230.30 1049.77
1230.40 1049.714
1230.50 1049.658
1230.60 1049.602
1230.70 1049.547
1230.80 1049.491
1230.90 1049.435
1231.00 1049.38
1231.10 1049.324
1231.20 1049.268
1231.30 1049.212
1231.40 1049.157
1231.50 1049.101
1231.60 1049.045
1231.70 1048.989
1231.80 1048.934
1231.90 1048.878
1232.00 1048.822
1232.10 1048.766
1232.20 1048.711
1232.30 1048.655
1232.40 1048.599
1232.50 1048.544
1232.60 1048.488
1232.70 1048.432
1232.80 1048.376
1232.90 1048.321
1233.00 1048.265
1233.10 1048.209
1233.20 1048.125
1233.30 1047.929
1233.40 1047.733
1233.50 1047.537
1233.60 1047.341
1233.70 1047.146
1233.80 1046.95
1233.90 1046.754
1234.00 1046.558
1234.10 1046.362
1234.20 1046.166
1234.30 1045.97
1234.40 1045.774
1234.50 1045.511
1234.60 1045.219
1234.70 1044.927
1234.80 1044.636
1234.90 1044.344
1235.00 1044.052
1235.10 1043.761
1235.20 1043.469
1235.30 1043.177
1235.40 1042.885
1235.50 1042.594
1235.60 1042.302
1235.70 1042.01
1235.80 1041.719
1235.90 1041.427
1236.00 1041.135
1236.10 1040.844
1236.20 1040.552
1236.30 1040.26
1236.40 1039.968
1236.50 1039.677
1236.60 1039.385
1236.70 1039.093
1236.80 1038.802
1236.90 1038.51
1237.00 1038.218
1237.10 1037.927
1237.20 1037.635
1237.30 1037.343
1237.40 1037.051
1237.50 1036.765
1237.60 1036.502
1237.70 1036.238
1237.80 1035.975
1237.90 1035.711
1238.00 1035.448
1238.10 1035.184
1238.20 1034.921
1238.30 1034.657
1238.40 1034.394
1238.50 1034.13
1238.60 1033.866
1238.70 1033.603
1238.80 1033.238
1238.90 1032.831
1239.00 1032.423
1239.10 1032.015
1239.20 1031.607
1239.30 1031.2
1239.40 1030.792
1239.50 1030.384
1239.60 1029.977
1239.70 1029.569
1239.80 1029.161
1239.90 1028.753
1240.00 1028.346
1240.10 1027.938
1240.20 1027.53
1240.30 1027.122
1240.40 1026.715
1240.50 1026.307
1240.60 1025.899
1240.70 1025.491
1240.80 1025.084
1240.90 1024.676
1241.00 1024.268
1241.10 1023.86
1241.20 1023.453
1241.30 1023.045
1241.40 1022.637
1241.50 1022.229
1241.60 1021.822
1241.70 1021.414
1241.80 1021.049
1241.90 1021.071
1242.00 1021.093
1242.10 1021.114
1242.20 1021.136
1242.30 1021.158
1242.40 1021.179
1242.50 1021.201
1242.60 1021.223
1242.70 1021.244
1242.80 1021.266
1242.90 1021.288
1243.00 1021.31
1243.10 1021.412
1243.20 1021.55
1243.30 1021.687
1243.40 1021.824
1243.50 1021.962
1243.60 1022.099
1243.70 1022.237
1243.80 1022.374
1243.90 1022.512
1244.00 1022.649
1244.10 1022.786
1244.20 1022.924
1244.30 1023.061
1244.40 1023.199
1244.50 1023.336
1244.60 1023.473
1244.70 1023.611
1244.80 1023.748
1244.90 1023.886
1245.00 1024.023
1245.10 1024.16
1245.20 1024.298
1245.30 1024.435
1245.40 1024.573
1245.50 1024.71
1245.60 1024.847
1245.70 1024.985
1245.80 1025.122
1245.90 1025.26
1246.00 1025.397
1246.10 1025.534
1246.20 1026.337
1246.30 1027.139
1246.40 1027.941
1246.50 1028.743
1246.60 1029.545
1246.70 1030.347
1246.80 1031.15
1246.90 1031.952
1247.00 1032.754
1247.10 1033.556
1247.20 1034.358
1247.30 1035.161
1247.40 1035.919
1247.50 1036.648
1247.60 1037.377
1247.70 1038.106
1247.80 1038.835
1247.90 1039.564
1248.00 1040.293
1248.10 1041.023
1248.20 1041.752
1248.30 1042.481
1248.40 1043.21
1248.50 1043.939
1248.60 1044.668
1248.70 1045.397
1248.80 1046.126
1248.90 1046.855
1249.00 1047.584
1249.10 1048.313
1249.20 1049.043
1249.30 1049.772
1249.40 1050.501
1249.50 1051.23
1249.60 1051.959
1249.70 1052.688
1249.80 1053.417
1249.90 1054.146
1250.00 1054.875
1250.10 1055.604
1250.20 1056.333
1250.30 1057.063
1250.40 1057.792
1250.50 1058.316
1250.60 1058.839
1250.70 1059.363
1250.80 1059.887
1250.90 1060.411
1251.00 1060.935
1251.10 1061.459
1251.20 1061.983
1251.30 1062.507
1251.40 1063.031
1251.50 1063.554
1251.60 1064.078
1251.70 1064.673
1251.80 1065.338
1251.90 1066.004
1252.00 1066.669
1252.10 1067.335
1252.20 1068
1252.30 1068.666
1252.40 1069.331
1252.50 1069.997
1252.60 1070.662
1252.70 1071.328
1252.80 1071.993
1252.90 1072.659
1253.00 1073.324
1253.10 1073.99
1253.20 1074.655
1253.30 1075.321
1253.40 1075.986
1253.50 1076.652
1253.60 1077.317
1253.70 1077.982
1253.80 1078.648
1253.90 1079.313
1254.00 1079.979
1254.10 1080.644
1254.20 1081.31
1254.30 1081.975
1254.40 1082.641
1254.50 1083.306
1254.60 1083.972
1254.70 1084.637
1254.80 1084.985
1254.90 1085.298
1255.00 1085.611
1255.10 1085.923
1255.20 1086.236
1255.30 1086.549
1255.40 1086.861
1255.50 1087.174
1255.60 1087.487
1255.70 1087.799
1255.80 1088.112
1255.90 1088.425
1256.00 1088.708
1256.10 1088.949
1256.20 1089.189
1256.30 1089.429
1256.40 1089.669
1256.50 1089.909
1256.60 1090.149
1256.70 1090.389
1256.80 1090.63
1256.90 1090.87
1257.00 1091.11
1257.10 1091.35
1257.20 1091.59
1257.30 1091.83
1257.40 1092.07
1257.50 1092.31
1257.60 1092.551
1257.70 1092.791
1257.80 1093.031
1257.90 1093.271
1258.00 1093.511
1258.10 1093.751
1258.20 1093.991
1258.30 1094.232
1258.40 1094.472
1258.50 1094.712
1258.60 1094.952
1258.70 1095.192
1258.80 1095.432
1258.90 1095.672
1259.00 1095.913
1259.10 1096.913
1259.20 1098.239
1259.30 1099.566
1259.40 1100.892
1259.50 1102.218
1259.60 1103.545
1259.70 1104.871
1259.80 1106.198
1259.90 1107.524
1260.00 1108.85
1260.10 1110.177
1260.20 1111.503
1260.30 1112.877
1260.40 1114.44
1260.50 1116.004
1260.60 1117.567
1260.70 1119.13
1260.80 1120.694
1260.90 1122.257
1261.00 1123.821
1261.10 1125.384
1261.20 1126.947
1261.30 1128.511
1261.40 1130.074
1261.50 1131.638
1261.60 1133.201
1261.70 1134.764
1261.80 1136.328
1261.90 1137.891
1262.00 1139.454
1262.10 1141.018
1262.20 1142.581
1262.30 1144.145
1262.40 1145.708
1262.50 1147.271
1262.60 1148.835
1262.70 1150.398
1262.80 1151.962
1262.90 1153.525
1263.00 1155.088
1263.10 1156.652
1263.20 1158.215
1263.30 1159.779
1263.40 1160.656
1263.50 1161.076
1263.60 1161.496
1263.70 1161.917
1263.80 1162.337
1263.90 1162.757
1264.00 1163.177
1264.10 1163.597
1264.20 1164.017
1264.30 1164.437
1264.40 1164.858
1264.50 1165.278
1264.60 1165.692
1264.70 1166.05
1264.80 1166.409
1264.90 1166.767
1265.00 1167.126
1265.10 1167.484
1265.20 1167.843
1265.30 1168.201
1265.40 1168.56
1265.50 1168.918
1265.60 1169.277
1265.70 1169.635
1265.80 1169.994
1265.90 1170.353
1266.00 1170.711
1266.10 1171.07
1266.20 1171.428
1266.30 1171.787
1266.40 1172.145
1266.50 1172.504
1266.60 1172.862
1266.70 1173.221
1266.80 1173.579
1266.90 1173.938
1267.00 1174.296
1267.10 1174.655
1267.20 1175.013
1267.30 1175.372
1267.40 1175.73
1267.50 1176.089
1267.60 1176.448
1267.70 1176.947
1267.80 1177.656
1267.90 1178.366
1268.00 1179.076
1268.10 1179.785
1268.20 1180.495
1268.30 1181.205
1268.40 1181.914
1268.50 1182.624
1268.60 1183.334
1268.70 1184.044
1268.80 1184.753
1268.90 1185.463
1269.00 1186.154
1269.10 1186.845
1269.20 1187.536
1269.30 1188.226
1269.40 1188.917
1269.50 1189.608
1269.60 1190.299
1269.70 1190.99
1269.80 1191.681
1269.90 1192.372
1270.00 1193.063
1270.10 1193.754
1270.20 1194.445
1270.30 1195.135
1270.40 1195.826
1270.50 1196.517
1270.60 1197.208
1270.70 1197.899
1270.80 1198.59
1270.90 1199.281
1271.00 1199.972
1271.10 1200.663
1271.20 1201.353
1271.30 1202.044
1271.40 1202.735
1271.50 1203.426
1271.60 1204.117
1271.70 1204.808
1271.80 1205.499
1271.90 1206.19
1272.00 1206.442
1272.10 1205.669
1272.20 1204.897
1272.30 1204.124
1272.40 1203.352
1272.50 1202.579
1272.60 1201.807
1272.70 1201.034
1272.80 1200.262
1272.90 1199.489
1273.00 1198.717
1273.10 1197.944
1273.20 1197.172
1273.30 1196.368
1273.40 1195.557
1273.50 1194.745
1273.60 1193.934
1273.70 1193.123
1273.80 1192.311
1273.90 1191.5
1274.00 1190.689
1274.10 1189.877
1274.20 1189.066
1274.30 1188.255
1274.40 1187.444
1274.50 1186.632
1274.60 1185.821
1274.70 1185.01
1274.80 1184.198
1274.90 1183.387
1275.00 1182.576
1275.10 1181.764
1275.20 1180.953
1275.30 1180.142
1275.40 1179.33
1275.50 1178.519
1275.60 1177.708
1275.70 1176.896
1275.80 1176.085
1275.90 1175.274
1276.00 1174.463
1276.10 1173.651
1276.20 1172.84
1276.30 1172.165
1276.40 1172.721
1276.50 1173.277
1276.60 1173.833
1276.70 1174.388
1276.80 1174.944
1276.90 1175.5
1277.00 1176.056
1277.10 1176.611
1277.20 1177.167
1277.30 1177.723
1277.40 1178.279
1277.50 1178.834
1277.60 1179.352
1277.70 1179.844
1277.80 1180.336
1277.90 1180.828
1278.00 1181.32
1278.10 1181.812
1278.20 1182.305
1278.30 1182.797
1278.40 1183.289
1278.50 1183.781
1278.60 1184.273
1278.70 1184.765
1278.80 1185.257
1278.90 1185.749
1279.00 1186.241
1279.10 1186.733
1279.20 1187.226
1279.30 1187.718
1279.40 1188.21
1279.50 1188.702
1279.60 1189.194
1279.70 1189.686
1279.80 1190.178
1279.90 1190.67
1280.00 1191.162
1280.10 1191.654
1280.20 1192.147
1280.30 1192.639
1280.40 1193.131
1280.50 1193.623
1280.60 1194.115
1280.70 1194.081
1280.80 1194.048
1280.90 1194.014
1281.00 1193.98
1281.10 1193.947
1281.20 1193.913
1281.30 1193.879
1281.40 1193.846
1281.50 1193.812
1281.60 1193.779
1281.70 1193.745
1281.80 1193.711
1281.90 1193.617
1282.00 1193.462
1282.10 1193.307
1282.20 1193.152
1282.30 1192.997
1282.40 1192.841
1282.50 1192.686
1282.60 1192.531
1282.70 1192.376
1282.80 1192.221
1282.90 1192.066
1283.00 1191.911
1283.10 1191.756
1283.20 1191.601
1283.30 1191.446
1283.40 1191.291
1283.50 1191.136
1283.60 1190.98
1283.70 1190.825
1283.80 1190.67
1283.90 1190.515
1284.00 1190.36
1284.10 1190.205
1284.20 1190.05
1284.30 1189.895
1284.40 1189.74
1284.50 1189.585
1284.60 1189.43
1284.70 1189.275
1284.80 1189.12
1284.90 1188.964
1285.00 1189.025
1285.10 1189.141
1285.20 1189.256
1285.30 1189.371
1285.40 1189.486
1285.50 1189.601
1285.60 1189.716
1285.70 1189.831
1285.80 1189.946
1285.90 1190.061
1286.00 1190.176
1286.10 1190.291
1286.20 1190.451
1286.30 1190.716
1286.40 1190.98
1286.50 1191.245
1286.60 1191.51
1286.70 1191.775
1286.80 1192.04
1286.90 1192.304
1287.00 1192.569
1287.10 1192.834
1287.20 1193.099
1287.30 1193.364
1287.40 1193.628
1287.50 1193.893
1287.60 1194.158
1287.70 1194.423
1287.80 1194.687
1287.90 1194.952
1288.00 1195.217
1288.10 1195.482
1288.20 1195.747
1288.30 1196.011
1288.40 1196.276
1288.50 1196.541
1288.60 1196.806
1288.70 1197.071
1288.80 1197.335
1288.90 1197.6
1289.00 1197.865
1289.10 1198.13
1289.20 1198.394
1289.30 1198.463
1289.40 1198.401
1289.50 1198.338
1289.60 1198.276
1289.70 1198.214
1289.80 1198.151
1289.90 1198.089
1290.00 1198.027
1290.10 1197.965
1290.20 1197.902
1290.30 1197.84
1290.40 1197.778
1290.50 1197.701
1290.60 1197.495
1290.70 1197.289
1290.80 1197.083
1290.90 1196.877
1291.00 1196.671
1291.10 1196.465
1291.20 1196.259
1291.30 1196.053
1291.40 1195.847
1291.50 1195.641
1291.60 1195.435
1291.70 1195.229
1291.80 1195.023
1291.90 1194.817
1292.00 1194.611
1292.10 1194.405
1292.20 1194.199
1292.30 1193.993
1292.40 1193.788
1292.50 1193.582
1292.60 1193.376
1292.70 1193.17
1292.80 1192.964
1292.90 1192.758
1293.00 1192.552
1293.10 1192.346
1293.20 1192.14
1293.30 1191.934
1293.40 1191.728
1293.50 1191.522
1293.60 1191.325
1293.70 1191.142
1293.80 1190.959
1293.90 1190.776
1294.00 1190.593
1294.10 1190.41
1294.20 1190.227
1294.30 1190.044
1294.40 1189.861
1294.50 1189.678
1294.60 1189.495
1294.70 1189.312
1294.80 1189.129
1294.90 1189.045
1295.00 1188.972
1295.10 1188.899
1295.20 1188.826
1295.30 1188.753
1295.40 1188.68
1295.50 1188.607
1295.60 1188.534
1295.70 1188.461
1295.80 1188.388
1295.90 1188.315
1296.00 1188.242
1296.10 1188.169
1296.20 1188.096
1296.30 1188.023
1296.40 1187.95
1296.50 1187.877
1296.60 1187.804
1296.70 1187.731
1296.80 1187.658
1296.90 1187.585
1297.00 1187.512
1297.10 1187.439
1297.20 1187.366
1297.30 1187.293
1297.40 1187.22
1297.50 1187.147
1297.60 1187.074
1297.70 1187.001
1297.80 1186.928
1297.90 1186.833
1298.00 1186.651
1298.10 1186.469
1298.20 1186.287
1298.30 1186.105
1298.40 1185.923
1298.50 1185.741
1298.60 1185.558
1298.70 1185.376
1298.80 1185.194
1298.90 1185.012
1299.00 1184.83
1299.10 1184.648
1299.20 1184.356
1299.30 1184.017
1299.40 1183.678
1299.50 1183.339
1299.60 1183
1299.70 1182.661
1299.80 1182.322
1299.90 1181.983
