# Version 2.1 - nm, norm@500 to 1, cut digits
# Wavelength(nm)  Flambda(ergs/cm^s/s/nm)
300.00 2.400518e-95
300.10 2.400518e-95
300.20 2.400518e-95
300.30 2.400518e-95
300.40 2.400518e-95
300.50 2.400518e-95
300.60 2.400518e-95
300.70 2.400518e-95
300.80 2.400518e-95
300.90 2.400518e-95
301.00 2.400518e-95
301.10 2.400518e-95
301.20 2.400518e-95
301.30 2.400518e-95
301.40 2.400518e-95
301.50 2.400518e-95
301.60 2.400518e-95
301.70 2.400518e-95
301.80 2.400518e-95
301.90 2.400518e-95
302.00 2.400518e-95
302.10 2.400518e-95
302.20 2.400518e-95
302.30 2.400518e-95
302.40 2.400518e-95
302.50 2.400518e-95
302.60 2.400518e-95
302.70 2.400518e-95
302.80 2.400518e-95
302.90 2.400518e-95
303.00 2.400518e-95
303.10 2.400518e-95
303.20 2.400518e-95
303.30 2.400518e-95
303.40 2.400518e-95
303.50 2.400518e-95
303.60 2.400518e-95
303.70 2.400518e-95
303.80 2.400518e-95
303.90 2.400518e-95
304.00 2.400518e-95
304.10 2.400518e-95
304.20 2.400518e-95
304.30 2.400518e-95
304.40 2.400518e-95
304.50 2.400518e-95
304.60 2.400518e-95
304.70 2.400518e-95
304.80 2.400518e-95
304.90 2.400518e-95
305.00 2.400518e-95
305.10 2.400518e-95
305.20 2.400518e-95
305.30 2.400518e-95
305.40 2.400518e-95
305.50 2.400518e-95
305.60 2.400518e-95
305.70 2.400518e-95
305.80 2.400518e-95
305.90 2.400518e-95
306.00 2.400518e-95
306.10 2.400518e-95
306.20 2.400518e-95
306.30 2.400518e-95
306.40 2.400518e-95
306.50 2.400518e-95
306.60 2.400518e-95
306.70 2.400518e-95
306.80 2.400518e-95
306.90 2.400518e-95
307.00 2.400518e-95
307.10 2.400518e-95
307.20 2.400518e-95
307.30 2.400518e-95
307.40 2.400518e-95
307.50 2.400518e-95
307.60 2.400518e-95
307.70 2.400518e-95
307.80 2.400518e-95
307.90 2.400518e-95
308.00 2.400518e-95
308.10 2.400518e-95
308.20 2.400518e-95
308.30 2.400518e-95
308.40 2.400518e-95
308.50 2.400518e-95
308.60 2.400518e-95
308.70 2.400518e-95
308.80 2.400518e-95
308.90 2.400518e-95
309.00 2.400518e-95
309.10 2.400518e-95
309.20 2.400518e-95
309.30 2.400518e-95
309.40 2.400518e-95
309.50 2.400518e-95
309.60 2.400518e-95
309.70 2.400518e-95
309.80 2.400518e-95
309.90 2.400518e-95
310.00 2.400518e-95
310.10 2.400518e-95
310.20 2.400518e-95
310.30 2.400518e-95
310.40 2.400518e-95
310.50 2.400518e-95
310.60 2.400518e-95
310.70 2.400518e-95
310.80 2.400518e-95
310.90 2.400518e-95
311.00 2.400518e-95
311.10 2.400518e-95
311.20 2.400518e-95
311.30 2.400518e-95
311.40 2.400518e-95
311.50 2.400518e-95
311.60 2.400518e-95
311.70 2.400518e-95
311.80 2.400518e-95
311.90 2.400518e-95
312.00 2.400518e-95
312.10 2.400518e-95
312.20 2.400518e-95
312.30 2.400518e-95
312.40 2.400518e-95
312.50 2.400518e-95
312.60 2.400518e-95
312.70 2.400518e-95
312.80 2.400518e-95
312.90 2.400518e-95
313.00 2.400518e-95
313.10 2.400518e-95
313.20 2.400518e-95
313.30 2.400518e-95
313.40 2.400518e-95
313.50 2.400518e-95
313.60 2.400518e-95
313.70 2.400518e-95
313.80 2.400518e-95
313.90 2.400518e-95
314.00 2.400518e-95
314.10 2.400518e-95
314.20 2.400518e-95
314.30 2.400518e-95
314.40 2.400518e-95
314.50 2.400518e-95
314.60 2.400518e-95
314.70 2.400518e-95
314.80 2.400518e-95
314.90 2.400518e-95
315.00 2.400518e-95
315.10 2.400518e-95
315.20 2.400518e-95
315.30 2.400518e-95
315.40 2.400518e-95
315.50 2.400518e-95
315.60 2.400518e-95
315.70 2.400518e-95
315.80 2.400518e-95
315.90 2.400518e-95
316.00 2.400518e-95
316.10 2.400518e-95
316.20 2.400518e-95
316.30 2.400518e-95
316.40 2.400518e-95
316.50 2.400518e-95
316.60 2.400518e-95
316.70 2.400518e-95
316.80 2.400518e-95
316.90 2.400518e-95
317.00 2.400518e-95
317.10 2.400518e-95
317.20 2.400518e-95
317.30 2.400518e-95
317.40 2.400518e-95
317.50 2.400518e-95
317.60 2.400518e-95
317.70 2.400518e-95
317.80 2.400518e-95
317.90 2.400518e-95
318.00 2.400518e-95
318.10 2.400518e-95
318.20 2.400518e-95
318.30 2.400518e-95
318.40 2.400518e-95
318.50 2.400518e-95
318.60 2.400518e-95
318.70 2.400518e-95
318.80 2.400518e-95
318.90 2.400518e-95
319.00 2.400518e-95
319.10 2.400518e-95
319.20 2.400518e-95
319.30 2.400518e-95
319.40 2.400518e-95
319.50 2.400518e-95
319.60 2.400518e-95
319.70 2.400518e-95
319.80 2.400518e-95
319.90 2.400518e-95
320.00 2.400518e-95
320.10 2.400518e-95
320.20 2.400518e-95
320.30 2.400518e-95
320.40 2.400518e-95
320.50 2.400518e-95
320.60 2.400518e-95
320.70 2.400518e-95
320.80 2.400518e-95
320.90 2.400518e-95
321.00 2.400518e-95
321.10 2.400518e-95
321.20 2.400518e-95
321.30 2.400518e-95
321.40 2.400518e-95
321.50 2.400518e-95
321.60 2.400518e-95
321.70 2.400518e-95
321.80 2.400518e-95
321.90 2.400518e-95
322.00 2.400518e-95
322.10 2.400518e-95
322.20 2.400518e-95
322.30 2.400518e-95
322.40 2.400518e-95
322.50 2.400518e-95
322.60 2.400518e-95
322.70 2.400518e-95
322.80 2.400518e-95
322.90 2.400518e-95
323.00 2.400518e-95
323.10 2.400518e-95
323.20 2.400518e-95
323.30 2.400518e-95
323.40 2.400518e-95
323.50 2.400518e-95
323.60 2.400518e-95
323.70 2.400518e-95
323.80 2.400518e-95
323.90 2.400518e-95
324.00 2.400518e-95
324.10 2.400518e-95
324.20 2.400518e-95
324.30 2.400518e-95
324.40 2.400518e-95
324.50 2.400518e-95
324.60 2.400518e-95
324.70 2.400518e-95
324.80 2.400518e-95
324.90 2.400518e-95
325.00 2.400518e-95
325.10 2.400518e-95
325.20 2.400518e-95
325.30 2.400518e-95
325.40 2.400518e-95
325.50 2.400518e-95
325.60 2.400518e-95
325.70 2.400518e-95
325.80 2.400518e-95
325.90 2.400518e-95
326.00 2.400518e-95
326.10 2.400518e-95
326.20 2.400518e-95
326.30 2.400518e-95
326.40 2.400518e-95
326.50 2.400518e-95
326.60 2.400518e-95
326.70 2.400518e-95
326.80 2.400518e-95
326.90 2.400518e-95
327.00 2.400518e-95
327.10 2.400518e-95
327.20 2.400518e-95
327.30 2.400518e-95
327.40 2.400518e-95
327.50 2.400518e-95
327.60 2.400518e-95
327.70 2.400518e-95
327.80 2.400518e-95
327.90 2.400518e-95
328.00 2.400518e-95
328.10 2.400518e-95
328.20 2.400518e-95
328.30 2.400518e-95
328.40 2.400518e-95
328.50 2.400518e-95
328.60 2.400518e-95
328.70 2.400518e-95
328.80 2.400518e-95
328.90 2.400518e-95
329.00 2.400518e-95
329.10 2.400518e-95
329.20 2.400518e-95
329.30 2.400518e-95
329.40 2.400518e-95
329.50 2.400518e-95
329.60 2.400518e-95
329.70 2.400518e-95
329.80 2.400518e-95
329.90 2.400518e-95
330.00 2.400518e-95
330.10 2.400518e-95
330.20 2.400518e-95
330.30 2.400518e-95
330.40 2.400518e-95
330.50 2.400518e-95
330.60 2.400518e-95
330.70 2.400518e-95
330.80 2.400518e-95
330.90 2.400518e-95
331.00 2.400518e-95
331.10 2.400518e-95
331.20 2.400518e-95
331.30 2.400518e-95
331.40 2.400518e-95
331.50 2.400518e-95
331.60 2.400518e-95
331.70 2.400518e-95
331.80 2.400518e-95
331.90 2.400518e-95
332.00 2.400518e-95
332.10 2.400518e-95
332.20 2.400518e-95
332.30 2.400518e-95
332.40 2.400518e-95
332.50 2.400518e-95
332.60 2.400518e-95
332.70 2.400518e-95
332.80 2.400518e-95
332.90 2.400518e-95
333.00 2.400518e-95
333.10 2.400518e-95
333.20 2.400518e-95
333.30 2.400518e-95
333.40 2.400518e-95
333.50 2.400518e-95
333.60 2.400518e-95
333.70 2.400518e-95
333.80 2.400518e-95
333.90 2.400518e-95
334.00 2.400518e-95
334.10 2.400518e-95
334.20 2.400518e-95
334.30 2.400518e-95
334.40 2.400518e-95
334.50 2.400518e-95
334.60 2.400518e-95
334.70 2.400518e-95
334.80 2.400518e-95
334.90 2.400518e-95
335.00 2.400518e-95
335.10 2.400518e-95
335.20 2.400518e-95
335.30 2.400518e-95
335.40 2.400518e-95
335.50 2.400518e-95
335.60 2.400518e-95
335.70 2.400518e-95
335.80 2.400518e-95
335.90 2.400518e-95
336.00 2.400518e-95
336.10 2.400518e-95
336.20 2.400518e-95
336.30 2.400518e-95
336.40 2.400518e-95
336.50 2.400518e-95
336.60 2.400518e-95
336.70 2.400518e-95
336.80 2.400518e-95
336.90 2.400518e-95
337.00 2.400518e-95
337.10 2.400518e-95
337.20 2.400518e-95
337.30 2.400518e-95
337.40 2.400518e-95
337.50 2.400518e-95
337.60 2.400518e-95
337.70 2.400518e-95
337.80 2.400518e-95
337.90 2.400518e-95
338.00 2.400518e-95
338.10 2.400518e-95
338.20 2.400518e-95
338.30 2.400518e-95
338.40 2.400518e-95
338.50 2.400518e-95
338.60 2.400518e-95
338.70 2.400518e-95
338.80 2.400518e-95
338.90 2.400518e-95
339.00 2.400518e-95
339.10 2.400518e-95
339.20 2.400518e-95
339.30 2.400518e-95
339.40 2.400518e-95
339.50 2.400518e-95
339.60 2.400518e-95
339.70 2.400518e-95
339.80 2.400518e-95
339.90 2.400518e-95
340.00 2.400518e-95
340.10 2.400518e-95
340.20 2.400518e-95
340.30 2.400518e-95
340.40 2.400518e-95
340.50 2.400518e-95
340.60 2.400518e-95
340.70 2.400518e-95
340.80 2.400518e-95
340.90 2.400518e-95
341.00 2.400518e-95
341.10 2.400518e-95
341.20 2.400518e-95
341.30 2.400518e-95
341.40 2.400518e-95
341.50 2.400518e-95
341.60 2.400518e-95
341.70 2.400518e-95
341.80 2.400518e-95
341.90 2.400518e-95
342.00 2.400518e-95
342.10 2.400518e-95
342.20 2.400518e-95
342.30 2.400518e-95
342.40 2.400518e-95
342.50 2.400518e-95
342.60 2.400518e-95
342.70 2.400518e-95
342.80 2.400518e-95
342.90 2.400518e-95
343.00 2.400518e-95
343.10 2.400518e-95
343.20 2.400518e-95
343.30 2.400518e-95
343.40 2.400518e-95
343.50 2.400518e-95
343.60 2.400518e-95
343.70 2.400518e-95
343.80 2.400518e-95
343.90 2.400518e-95
344.00 2.400518e-95
344.10 2.400518e-95
344.20 2.400518e-95
344.30 2.400518e-95
344.40 2.400518e-95
344.50 2.400518e-95
344.60 2.400518e-95
344.70 2.400518e-95
344.80 2.400518e-95
344.90 2.400518e-95
345.00 2.400518e-95
345.10 2.400518e-95
345.20 2.400518e-95
345.30 2.400518e-95
345.40 2.400518e-95
345.50 2.400518e-95
345.60 2.400518e-95
345.70 2.400518e-95
345.80 2.400518e-95
345.90 2.400518e-95
346.00 2.400518e-95
346.10 2.400518e-95
346.20 2.400518e-95
346.30 2.400518e-95
346.40 2.400518e-95
346.50 2.400518e-95
346.60 2.400518e-95
346.70 2.400518e-95
346.80 2.400518e-95
346.90 2.400518e-95
347.00 2.400518e-95
347.10 2.400518e-95
347.20 2.400518e-95
347.30 2.400518e-95
347.40 2.400518e-95
347.50 2.400518e-95
347.60 2.400518e-95
347.70 2.400518e-95
347.80 2.400518e-95
347.90 2.400518e-95
348.00 2.400518e-95
348.10 2.400518e-95
348.20 2.400518e-95
348.30 2.400518e-95
348.40 2.400518e-95
348.50 2.400518e-95
348.60 2.400518e-95
348.70 2.400518e-95
348.80 2.400518e-95
348.90 2.400518e-95
349.00 2.400518e-95
349.10 2.400518e-95
349.20 2.400518e-95
349.30 2.400518e-95
349.40 2.400518e-95
349.50 2.400518e-95
349.60 2.400518e-95
349.70 2.400518e-95
349.80 2.400518e-95
349.90 2.400518e-95
350.00 2.400518e-95
350.10 2.400518e-95
350.20 2.400518e-95
350.30 2.400518e-95
350.40 2.400518e-95
350.50 2.400518e-95
350.60 2.400518e-95
350.70 2.400518e-95
350.80 2.400518e-95
350.90 2.400518e-95
351.00 2.400518e-95
351.10 2.400518e-95
351.20 2.400518e-95
351.30 2.400518e-95
351.40 2.400518e-95
351.50 2.400518e-95
351.60 2.400518e-95
351.70 2.400518e-95
351.80 2.400518e-95
351.90 2.400518e-95
352.00 2.400518e-95
352.10 2.400518e-95
352.20 2.400518e-95
352.30 2.400518e-95
352.40 2.400518e-95
352.50 2.400518e-95
352.60 2.400518e-95
352.70 2.400518e-95
352.80 2.400518e-95
352.90 2.400518e-95
353.00 2.400518e-95
353.10 2.400518e-95
353.20 2.400518e-95
353.30 2.400518e-95
353.40 2.400518e-95
353.50 2.400518e-95
353.60 2.400518e-95
353.70 2.400518e-95
353.80 2.400518e-95
353.90 2.400518e-95
354.00 2.400518e-95
354.10 2.400518e-95
354.20 2.400518e-95
354.30 2.400518e-95
354.40 2.400518e-95
354.50 2.400518e-95
354.60 2.400518e-95
354.70 2.400518e-95
354.80 2.400518e-95
354.90 2.400518e-95
355.00 2.400518e-95
355.10 2.400518e-95
355.20 2.400518e-95
355.30 2.400518e-95
355.40 2.400518e-95
355.50 2.400518e-95
355.60 2.400518e-95
355.70 2.400518e-95
355.80 2.400518e-95
355.90 2.400518e-95
356.00 2.400518e-95
356.10 2.400518e-95
356.20 2.400518e-95
356.30 2.400518e-95
356.40 2.400518e-95
356.50 2.400518e-95
356.60 2.400518e-95
356.70 2.400518e-95
356.80 2.400518e-95
356.90 2.400518e-95
357.00 2.400518e-95
357.10 2.400518e-95
357.20 2.400518e-95
357.30 2.400518e-95
357.40 2.400518e-95
357.50 2.400518e-95
357.60 2.400518e-95
357.70 2.400518e-95
357.80 2.400518e-95
357.90 2.400518e-95
358.00 2.400518e-95
358.10 2.400518e-95
358.20 2.400518e-95
358.30 2.400518e-95
358.40 2.400518e-95
358.50 2.400518e-95
358.60 2.400518e-95
358.70 2.400518e-95
358.80 2.400518e-95
358.90 2.400518e-95
359.00 2.400518e-95
359.10 2.400518e-95
359.20 2.400518e-95
359.30 2.400518e-95
359.40 2.400518e-95
359.50 2.400518e-95
359.60 2.400518e-95
359.70 2.400518e-95
359.80 2.400518e-95
359.90 2.400518e-95
360.00 2.400518e-95
360.10 2.400518e-95
360.20 2.400518e-95
360.30 2.400518e-95
360.40 2.400518e-95
360.50 2.400518e-95
360.60 2.400518e-95
360.70 2.400518e-95
360.80 2.400518e-95
360.90 2.400518e-95
361.00 2.400518e-95
361.10 2.400518e-95
361.20 2.400518e-95
361.30 2.400518e-95
361.40 2.400518e-95
361.50 2.400518e-95
361.60 2.400518e-95
361.70 2.400518e-95
361.80 2.400518e-95
361.90 2.400518e-95
362.00 2.400518e-95
362.10 2.400518e-95
362.20 2.400518e-95
362.30 2.400518e-95
362.40 2.400518e-95
362.50 2.400518e-95
362.60 2.400518e-95
362.70 2.400518e-95
362.80 2.400518e-95
362.90 2.400518e-95
363.00 2.400518e-95
363.10 2.400518e-95
363.20 2.400518e-95
363.30 2.400518e-95
363.40 2.400518e-95
363.50 2.400518e-95
363.60 2.400518e-95
363.70 2.400518e-95
363.80 2.400518e-95
363.90 2.400518e-95
364.00 2.400518e-95
364.10 2.400518e-95
364.20 2.400518e-95
364.30 2.400518e-95
364.40 2.400518e-95
364.50 2.400518e-95
364.60 2.400518e-95
364.70 2.400518e-95
364.80 2.400518e-95
364.90 2.400518e-95
365.00 2.400518e-95
365.10 2.400518e-95
365.20 2.400518e-95
365.30 2.400518e-95
365.40 2.400518e-95
365.50 2.400518e-95
365.60 2.400518e-95
365.70 2.400518e-95
365.80 2.400518e-95
365.90 2.400518e-95
366.00 2.400518e-95
366.10 2.400518e-95
366.20 2.400518e-95
366.30 2.400518e-95
366.40 2.400518e-95
366.50 2.400518e-95
366.60 2.400518e-95
366.70 2.400518e-95
366.80 2.400518e-95
366.90 2.400518e-95
367.00 2.400518e-95
367.10 2.400518e-95
367.20 2.400518e-95
367.30 2.400518e-95
367.40 2.400518e-95
367.50 2.400518e-95
367.60 2.400518e-95
367.70 2.400518e-95
367.80 2.400518e-95
367.90 2.400518e-95
368.00 2.400518e-95
368.10 2.400518e-95
368.20 2.400518e-95
368.30 2.400518e-95
368.40 2.400518e-95
368.50 2.400518e-95
368.60 2.400518e-95
368.70 2.400518e-95
368.80 2.400518e-95
368.90 2.400518e-95
369.00 2.400518e-95
369.10 2.400518e-95
369.20 2.400518e-95
369.30 2.400518e-95
369.40 2.400518e-95
369.50 2.400518e-95
369.60 2.400518e-95
369.70 2.400518e-95
369.80 2.400518e-95
369.90 2.400518e-95
370.00 2.400518e-95
370.10 2.400518e-95
370.20 2.400518e-95
370.30 2.400518e-95
370.40 2.400518e-95
370.50 2.400518e-95
370.60 2.400518e-95
370.70 2.400518e-95
370.80 2.400518e-95
370.90 2.400518e-95
371.00 2.400518e-95
371.10 2.400518e-95
371.20 2.400518e-95
371.30 2.400518e-95
371.40 2.400518e-95
371.50 2.400518e-95
371.60 2.400518e-95
371.70 2.400518e-95
371.80 2.400518e-95
371.90 2.400518e-95
372.00 2.400518e-95
372.10 2.400518e-95
372.20 2.400518e-95
372.30 2.400518e-95
372.40 2.400518e-95
372.50 2.400518e-95
372.60 2.400518e-95
372.70 2.400518e-95
372.80 2.400518e-95
372.90 2.400518e-95
373.00 2.400518e-95
373.10 2.400518e-95
373.20 2.400518e-95
373.30 2.400518e-95
373.40 2.400518e-95
373.50 2.400518e-95
373.60 2.400518e-95
373.70 2.400518e-95
373.80 2.400518e-95
373.90 2.400518e-95
374.00 2.400518e-95
374.10 2.400518e-95
374.20 2.400518e-95
374.30 2.400518e-95
374.40 2.400518e-95
374.50 2.400518e-95
374.60 2.400518e-95
374.70 2.400518e-95
374.80 2.400518e-95
374.90 2.400518e-95
375.00 2.400518e-95
375.10 2.400518e-95
375.20 2.400518e-95
375.30 2.400518e-95
375.40 2.400518e-95
375.50 2.400518e-95
375.60 2.400518e-95
375.70 2.400518e-95
375.80 2.400518e-95
375.90 2.400518e-95
376.00 2.400518e-95
376.10 2.400518e-95
376.20 2.400518e-95
376.30 2.400518e-95
376.40 2.400518e-95
376.50 2.400518e-95
376.60 2.400518e-95
376.70 2.400518e-95
376.80 2.400518e-95
376.90 2.400518e-95
377.00 2.400518e-95
377.10 2.400518e-95
377.20 2.400518e-95
377.30 2.400518e-95
377.40 2.400518e-95
377.50 2.400518e-95
377.60 2.400518e-95
377.70 2.400518e-95
377.80 2.400518e-95
377.90 2.400518e-95
378.00 2.400518e-95
378.10 2.400518e-95
378.20 2.400518e-95
378.30 2.400518e-95
378.40 2.400518e-95
378.50 2.400518e-95
378.60 2.400518e-95
378.70 2.400518e-95
378.80 2.400518e-95
378.90 2.400518e-95
379.00 2.400518e-95
379.10 2.400518e-95
379.20 2.400518e-95
379.30 2.400518e-95
379.40 2.400518e-95
379.50 2.400518e-95
379.60 2.400518e-95
379.70 2.400518e-95
379.80 2.400518e-95
379.90 2.400518e-95
380.00 2.400518e-95
380.10 2.400518e-95
380.20 2.400518e-95
380.30 2.400518e-95
380.40 2.400518e-95
380.50 2.400518e-95
380.60 2.400518e-95
380.70 2.400518e-95
380.80 2.400518e-95
380.90 2.400518e-95
381.00 2.400518e-95
381.10 2.400518e-95
381.20 2.400518e-95
381.30 2.400518e-95
381.40 2.400518e-95
381.50 2.400518e-95
381.60 2.400518e-95
381.70 2.400518e-95
381.80 2.400518e-95
381.90 2.400518e-95
382.00 2.400518e-95
382.10 2.400518e-95
382.20 2.400518e-95
382.30 2.400518e-95
382.40 2.400518e-95
382.50 2.400518e-95
382.60 2.400518e-95
382.70 2.400518e-95
382.80 2.400518e-95
382.90 2.400518e-95
383.00 2.400518e-95
383.10 2.400518e-95
383.20 2.400518e-95
383.30 2.400518e-95
383.40 2.400518e-95
383.50 2.400518e-95
383.60 2.400518e-95
383.70 2.400518e-95
383.80 2.400518e-95
383.90 2.400518e-95
384.00 2.400518e-95
384.10 2.400518e-95
384.20 2.400518e-95
384.30 2.400518e-95
384.40 2.400518e-95
384.50 2.400518e-95
384.60 2.400518e-95
384.70 2.400518e-95
384.80 2.400518e-95
384.90 2.400518e-95
385.00 2.400518e-95
385.10 2.400518e-95
385.20 2.400518e-95
385.30 2.400518e-95
385.40 2.400518e-95
385.50 2.400518e-95
385.60 2.400518e-95
385.70 2.400518e-95
385.80 2.400518e-95
385.90 2.400518e-95
386.00 2.400518e-95
386.10 2.400518e-95
386.20 2.400518e-95
386.30 2.400518e-95
386.40 2.400518e-95
386.50 2.400518e-95
386.60 2.400518e-95
386.70 2.400518e-95
386.80 2.400518e-95
386.90 2.400518e-95
387.00 2.400518e-95
387.10 2.400518e-95
387.20 2.400518e-95
387.30 2.400518e-95
387.40 2.400518e-95
387.50 2.400518e-95
387.60 2.400518e-95
387.70 2.400518e-95
387.80 2.400518e-95
387.90 2.400518e-95
388.00 2.400518e-95
388.10 2.400518e-95
388.20 2.400518e-95
388.30 2.400518e-95
388.40 2.400518e-95
388.50 2.400518e-95
388.60 2.400518e-95
388.70 2.400518e-95
388.80 2.400518e-95
388.90 2.400518e-95
389.00 2.400518e-95
389.10 2.400518e-95
389.20 2.400518e-95
389.30 2.400518e-95
389.40 2.400518e-95
389.50 2.400518e-95
389.60 2.400518e-95
389.70 2.400518e-95
389.80 2.400518e-95
389.90 2.400518e-95
390.00 2.400518e-95
390.10 2.400518e-95
390.20 2.400518e-95
390.30 2.400518e-95
390.40 2.400518e-95
390.50 2.400518e-95
390.60 2.400518e-95
390.70 2.400518e-95
390.80 2.400518e-95
390.90 2.400518e-95
391.00 2.400518e-95
391.10 2.400518e-95
391.20 2.400518e-95
391.30 2.400518e-95
391.40 2.400518e-95
391.50 2.400518e-95
391.60 2.400518e-95
391.70 2.400518e-95
391.80 2.400518e-95
391.90 2.400518e-95
392.00 2.400518e-95
392.10 2.400518e-95
392.20 2.400518e-95
392.30 2.400518e-95
392.40 2.400518e-95
392.50 2.400518e-95
392.60 2.400518e-95
392.70 2.400518e-95
392.80 2.400518e-95
392.90 2.400518e-95
393.00 2.400518e-95
393.10 2.400518e-95
393.20 2.400518e-95
393.30 2.400518e-95
393.40 2.400518e-95
393.50 2.400518e-95
393.60 2.400518e-95
393.70 2.400518e-95
393.80 2.400518e-95
393.90 2.400518e-95
394.00 2.400518e-95
394.10 2.400518e-95
394.20 2.400518e-95
394.30 2.400518e-95
394.40 2.400518e-95
394.50 2.400518e-95
394.60 2.400518e-95
394.70 2.400518e-95
394.80 2.400518e-95
394.90 2.400518e-95
395.00 2.376513e-95
395.10 2.352507e-95
395.20 2.328502e-95
395.30 2.304497e-95
395.40 2.280492e-95
395.50 2.256487e-95
395.60 2.232481e-95
395.70 2.208476e-95
395.80 2.184471e-95
395.90 2.160466e-95
396.00 2.136461e-95
396.10 0.002101114
396.20 0.01949429
396.30 0.04373151
396.40 0.06551405
396.50 0.07941494
396.60 0.08376049
396.70 0.08376049
396.80 0.08376049
396.90 0.08376049
397.00 0.08376049
397.10 0.08376049
397.20 0.08376049
397.30 0.08376049
397.40 0.08376049
397.50 0.08376049
397.60 0.08376049
397.70 0.08376049
397.80 0.09999135
397.90 0.1615848
398.00 0.2643942
398.10 0.3951096
398.20 0.5373425
398.30 0.6749046
398.40 0.7919405
398.50 0.8774285
398.60 0.9284186
398.70 0.9530962
398.80 0.9685114
398.90 0.9909614
399.00 1.031888
399.10 1.095957
399.20 1.17902
399.30 1.272148
399.40 1.368091
399.50 1.465023
399.60 1.56393
399.70 1.666765
399.80 1.777266
399.90 1.899817
400.00 2.036252
400.10 2.180848
400.20 2.322371
400.30 2.450064
400.40 2.557169
400.50 2.642143
400.60 2.706999
400.70 2.757476
400.80 2.800456
400.90 2.837677
401.00 2.867562
401.10 2.889384
401.20 2.902893
401.30 2.906873
401.40 2.906873
401.50 2.906873
401.60 2.906873
401.70 2.906873
401.80 2.906873
401.90 2.906873
402.00 2.906873
402.10 2.906873
402.20 2.906873
402.30 2.906873
402.40 2.906873
402.50 2.909784
402.60 2.95751
402.70 3.051296
402.80 3.185033
402.90 3.346606
403.00 3.516495
403.10 3.674613
403.20 3.807812
403.30 3.908443
403.40 3.973095
403.50 4.004146
403.60 4.00909
403.70 4.00909
403.80 4.00909
403.90 4.00909
404.00 4.00909
404.10 4.00909
404.20 4.00909
404.30 4.00909
404.40 4.00909
404.50 4.00909
404.60 4.00909
404.70 4.00909
404.80 4.00909
404.90 4.00909
405.00 4.00909
405.10 4.00909
405.20 4.00909
405.30 4.00909
405.40 4.00909
405.50 4.00909
405.60 4.011789
405.70 4.018149
405.80 4.028075
405.90 4.042289
406.00 4.061384
406.10 4.081909
406.20 4.088084
406.30 4.086007
406.40 4.083412
406.50 4.084255
406.60 4.089189
406.70 4.092529
406.80 4.092529
406.90 4.092529
407.00 4.092529
407.10 4.098183
407.20 4.115017
407.30 4.142635
407.40 4.176872
407.50 4.213038
407.60 4.246068
407.70 4.269541
407.80 4.261241
407.90 4.199648
408.00 4.096838
408.10 3.966123
408.20 3.82389
408.30 3.686328
408.40 3.569292
408.50 3.483804
408.60 3.432814
408.70 3.408136
408.80 3.399729
408.90 3.394655
409.00 3.377843
409.10 3.341048
409.20 3.285932
409.30 3.216408
409.40 3.133009
409.50 3.036077
409.60 2.937171
409.70 2.834335
409.80 2.723835
409.90 2.601284
410.00 2.464848
410.10 2.320252
410.20 2.178729
410.30 2.064883
410.40 1.994368
410.50 1.964729
410.60 1.965904
410.70 1.984279
410.80 2.008939
410.90 2.03382
411.00 2.055627
411.10 2.073197
411.20 2.088895
411.30 2.106774
411.40 2.123414
411.50 2.137789
411.60 2.152567
411.70 2.166434
411.80 2.175112
411.90 2.175112
412.00 2.175112
412.10 2.175112
412.20 2.175112
412.30 2.175112
412.40 2.175112
412.50 2.172201
412.60 2.124475
412.70 2.03069
412.80 1.896953
412.90 1.736952
413.00 1.577219
413.10 1.436234
413.20 1.326128
413.30 1.252939
413.40 1.216889
413.50 1.21223
413.60 1.228444
413.70 1.241184
413.80 1.243488
413.90 1.243488
414.00 1.243488
414.10 1.243488
414.20 1.243488
414.30 1.243488
414.40 1.243488
414.50 1.243488
414.60 1.248747
414.70 1.258227
414.80 1.267547
414.90 1.272145
415.00 1.272145
415.10 1.272145
415.20 1.272145
415.30 1.272145
415.40 1.272145
415.50 1.272145
415.60 1.269447
415.70 1.263087
415.80 1.257926
415.90 1.261884
416.00 1.268871
416.10 1.273817
416.20 1.272863
416.30 1.263482
416.40 1.24658
416.50 1.231835
416.60 1.222556
416.70 1.219216
416.80 1.219216
416.90 1.219216
417.00 1.219216
417.10 1.213561
417.20 1.196728
417.30 1.16911
417.40 1.134873
417.50 1.104515
417.60 1.088144
417.70 1.089553
417.80 1.110003
417.90 1.13674
418.00 1.157494
418.10 1.16945
418.20 1.173112
418.30 1.174928
418.40 1.185781
418.50 1.215549
418.60 1.269251
418.70 1.34561
418.80 1.430154
418.90 1.507433
419.00 1.570054
419.10 1.614067
419.20 1.636758
419.30 1.639928
419.40 1.632061
419.50 1.632061
419.60 1.632061
419.70 1.632061
419.80 1.632061
419.90 1.632061
420.00 1.632061
420.10 1.632061
420.20 1.632061
420.30 1.618214
420.40 1.581624
420.50 1.526289
420.60 1.460259
420.70 1.391406
420.80 1.323766
420.90 1.261664
421.00 1.209972
421.10 1.17058
421.20 1.141373
421.30 1.119513
421.40 1.102874
421.50 1.088499
421.60 1.079544
421.70 1.088585
421.80 1.108229
421.90 1.135283
422.00 1.159423
422.10 1.179974
422.20 1.195549
422.30 1.203404
422.40 1.203404
422.50 1.203404
422.60 1.203404
422.70 1.203404
422.80 1.203404
422.90 1.20183
423.00 1.191674
423.10 1.177981
423.20 1.167024
423.30 1.157578
423.40 1.149832
423.50 1.144309
423.60 1.143384
423.70 1.152675
423.80 1.177671
423.90 1.212571
424.00 1.255496
424.10 1.304447
424.20 1.354884
424.30 1.400831
424.40 1.437033
424.50 1.460745
424.60 1.466625
424.70 1.457291
424.80 1.447971
424.90 1.443373
425.00 1.443373
425.10 1.443373
425.20 1.443373
425.30 1.443373
425.40 1.443373
425.50 1.443373
425.60 1.443373
425.70 1.443373
425.80 1.438608
425.90 1.420436
426.00 1.394353
426.10 1.366782
426.20 1.355181
426.30 1.370002
426.40 1.407629
426.50 1.452858
426.60 1.497287
426.70 1.53545
426.80 1.562398
426.90 1.575186
427.00 1.575186
427.10 1.575186
427.20 1.575186
427.30 1.575186
427.40 1.575186
427.50 1.569378
427.60 1.552719
427.70 1.527837
427.80 1.519267
427.90 1.529932
428.00 1.559056
428.10 1.602697
428.20 1.653652
428.30 1.700087
428.40 1.728484
428.50 1.729713
428.60 1.700965
428.70 1.645613
428.80 1.573353
428.90 1.496861
429.00 1.425496
429.10 1.365613
429.20 1.32394
429.30 1.30554
429.40 1.309283
429.50 1.318458
429.60 1.328638
429.70 1.339013
429.80 1.34909
429.90 1.358999
430.00 1.368188
430.10 1.375235
430.20 1.378514
430.30 1.378704
430.40 1.378704
430.50 1.378704
430.60 1.378704
430.70 1.378704
430.80 1.378704
430.90 1.378704
431.00 1.378704
431.10 1.378704
431.20 1.378704
431.30 1.378704
431.40 1.378704
431.50 1.378704
431.60 1.372881
431.70 1.351117
431.80 1.326871
431.90 1.306151
432.00 1.291441
432.10 1.283729
432.20 1.283496
432.30 1.291538
432.40 1.305845
432.50 1.317528
432.60 1.326833
432.70 1.333999
432.80 1.338094
432.90 1.338094
433.00 1.338094
433.10 1.334655
433.20 1.322519
433.30 1.304523
433.40 1.288852
433.50 1.283114
433.60 1.287549
433.70 1.297283
433.80 1.305058
433.90 1.305749
434.00 1.299134
434.10 1.290287
434.20 1.287207
434.30 1.298002
434.40 1.328175
434.50 1.378377
434.60 1.443649
434.70 1.515507
434.80 1.577368
434.90 1.626698
435.00 1.664583
435.10 1.69516
435.20 1.724516
435.30 1.75756
435.40 1.79486
435.50 1.832394
435.60 1.86423
435.70 1.884858
435.80 1.890685
435.90 1.890685
436.00 1.890685
436.10 1.890685
436.20 1.879671
436.30 1.852071
436.40 1.81216
436.50 1.766931
436.60 1.722502
436.70 1.684339
436.80 1.657391
436.90 1.644603
437.00 1.64683
437.10 1.649782
437.20 1.650516
437.30 1.650516
437.40 1.650516
437.50 1.650516
437.60 1.650516
437.70 1.650516
437.80 1.636902
437.90 1.617078
438.00 1.595042
438.10 1.573842
438.20 1.553595
438.30 1.532036
438.40 1.504565
438.50 1.473567
438.60 1.448613
438.70 1.427606
438.80 1.408314
438.90 1.390152
439.00 1.37478
439.10 1.363376
439.20 1.354412
439.30 1.346039
439.40 1.340073
439.50 1.343223
439.60 1.345557
439.70 1.340276
439.80 1.330199
439.90 1.320291
440.00 1.311101
440.10 1.304055
440.20 1.300776
440.30 1.300586
440.40 1.300586
440.50 1.300586
440.60 1.300586
440.70 1.300586
440.80 1.300586
440.90 1.300586
441.00 1.300586
441.10 1.300586
441.20 1.300586
441.30 1.300586
441.40 1.300586
441.50 1.300586
441.60 1.300586
441.70 1.299441
441.80 1.295366
441.90 1.289032
442.00 1.286605
442.10 1.28635
442.20 1.286736
442.30 1.288418
442.40 1.292236
442.50 1.297128
442.60 1.301839
442.70 1.307467
442.80 1.31601
442.90 1.32863
443.00 1.341897
443.10 1.355394
443.20 1.367283
443.30 1.376009
443.40 1.37515
443.50 1.36025
443.60 1.335582
443.70 1.303817
443.80 1.268741
443.90 1.23315
444.00 1.196842
444.10 1.156736
444.20 1.10938
444.30 1.052638
444.40 0.9862619
444.50 0.912348
444.60 0.8359374
444.70 0.7639335
444.80 0.7060602
444.90 0.6871525
445.00 0.6971117
445.10 0.7211449
445.20 0.7425314
445.30 0.7477435
445.40 0.733497
445.50 0.7064002
445.60 0.6770424
445.70 0.6564147
445.80 0.6510254
445.90 0.6549346
446.00 0.6634876
446.10 0.6760132
446.20 0.6894213
446.30 0.7006798
446.40 0.7080318
446.50 0.7107091
446.60 0.7107091
446.70 0.7107091
446.80 0.7107688
446.90 0.7166405
447.00 0.7280337
447.10 0.7478028
447.20 0.7799052
447.30 0.8236261
447.40 0.8790019
447.50 0.9472488
447.60 1.02895
447.70 1.122749
447.80 1.218755
447.90 1.30585
448.00 1.378278
448.10 1.433565
448.20 1.473378
448.30 1.502338
448.40 1.527255
448.50 1.54784
448.60 1.557552
448.70 1.561982
448.80 1.56474
448.90 1.565158
449.00 1.565158
449.10 1.565158
449.20 1.565158
449.30 1.565158
449.40 1.562703
449.50 1.550378
449.60 1.537864
449.70 1.532769
449.80 1.532769
449.90 1.532769
450.00 1.532769
450.10 1.532769
450.20 1.539285
450.30 1.557585
450.40 1.592808
450.50 1.647787
450.60 1.720712
450.70 1.806361
450.80 1.896738
450.90 1.984164
451.00 2.061634
451.10 2.12313
451.20 2.166588
451.30 2.19499
451.40 2.215736
451.50 2.238279
451.60 2.269861
451.70 2.310068
451.80 2.351973
451.90 2.388973
452.00 2.409583
452.10 2.413155
452.20 2.403971
452.30 2.387892
452.40 2.371878
452.50 2.363784
452.60 2.36821
452.70 2.38401
452.80 2.407041
452.90 2.432534
453.00 2.454715
453.10 2.469077
453.20 2.474309
453.30 2.471457
453.40 2.467131
453.50 2.4669
453.60 2.4669
453.70 2.4669
453.80 2.469426
453.90 2.472948
454.00 2.474904
454.10 2.47543
454.20 2.476617
454.30 2.479521
454.40 2.484433
454.50 2.492427
454.60 2.505382
454.70 2.524579
454.80 2.545805
454.90 2.545383
455.00 2.531126
455.10 2.512849
455.20 2.500596
455.30 2.502689
455.40 2.51987
455.50 2.543705
455.60 2.562688
455.70 2.565695
455.80 2.565257
455.90 2.561348
456.00 2.552795
456.10 2.540269
456.20 2.526861
456.30 2.515603
456.40 2.508251
456.50 2.505573
456.60 2.505573
456.70 2.505573
456.80 2.505514
456.90 2.499642
457.00 2.486022
457.10 2.4633
457.20 2.430464
457.30 2.386743
457.40 2.331367
457.50 2.263121
457.60 2.181419
457.70 2.087621
457.80 1.985417
457.90 1.880744
458.00 1.780474
458.10 1.69079
458.20 1.616606
458.30 1.560955
458.40 1.52426
458.50 1.503675
458.60 1.493963
458.70 1.489533
458.80 1.486775
458.90 1.486357
459.00 1.486357
459.10 1.486357
459.20 1.486357
459.30 1.486357
459.40 1.486357
459.50 1.486357
459.60 1.486357
459.70 1.487165
459.80 1.487165
459.90 1.487165
460.00 1.487165
460.10 1.487165
460.20 1.480649
460.30 1.462349
460.40 1.427126
460.50 1.375598
460.60 1.322791
460.70 1.268621
460.80 1.213569
460.90 1.157045
461.00 1.098776
461.10 1.039848
461.20 0.9963903
461.30 0.9679883
461.40 0.9472422
461.50 0.924699
461.60 0.8931169
461.70 0.8529099
461.80 0.8110054
461.90 0.7740054
462.00 0.7463921
462.10 0.7302354
462.20 0.723692
462.30 0.7221916
462.40 0.720081
462.50 0.7116002
462.60 0.6931583
462.70 0.6645644
462.80 0.628895
462.90 0.5907816
463.00 0.5690577
463.10 0.5791754
463.20 0.6267316
463.30 0.7099575
463.40 0.8166287
463.50 0.9302668
463.60 1.038898
463.70 1.131464
463.80 1.197322
463.90 1.235769
464.00 1.254446
464.10 1.26384
464.20 1.272197
464.30 1.285264
464.40 1.308119
464.50 1.342993
464.60 1.387552
464.70 1.436465
464.80 1.483806
464.90 1.524017
465.00 1.552146
465.10 1.56505
465.20 1.562533
465.30 1.546863
465.40 1.523018
465.50 1.499768
465.60 1.485624
465.70 1.485213
465.80 1.485213
465.90 1.485213
466.00 1.485213
466.10 1.485213
466.20 1.485213
466.30 1.485213
466.40 1.485213
466.50 1.4901
466.60 1.502858
466.70 1.522979
466.80 1.549001
466.90 1.577568
467.00 1.604527
467.10 1.627751
467.20 1.645965
467.30 1.657102
467.40 1.660369
467.50 1.660369
467.60 1.660369
467.70 1.660369
467.80 1.660369
467.90 1.660369
468.00 1.660369
468.10 1.660369
468.20 1.660369
468.30 1.660369
468.40 1.660369
468.50 1.660369
468.60 1.660774
468.70 1.660774
468.80 1.660774
468.90 1.660774
469.00 1.660774
469.10 1.660774
469.20 1.660774
469.30 1.660774
469.40 1.660774
469.50 1.660774
469.60 1.660774
469.70 1.659966
469.80 1.659966
469.90 1.659966
470.00 1.659966
470.10 1.659966
470.20 1.659966
470.30 1.659966
470.40 1.659966
470.50 1.657213
470.60 1.637095
470.70 1.605616
470.80 1.570291
470.90 1.539389
471.00 1.520188
471.10 1.51762
471.20 1.51762
471.30 1.51762
471.40 1.51762
471.50 1.51762
471.60 1.51762
471.70 1.51762
471.80 1.51762
471.90 1.51762
472.00 1.51762
472.10 1.519739
472.20 1.522905
472.30 1.525007
472.40 1.525007
472.50 1.525007
472.60 1.525007
472.70 1.525007
472.80 1.525007
472.90 1.525007
473.00 1.515834
473.10 1.487561
473.20 1.435692
473.30 1.360236
473.40 1.267783
473.50 1.171539
473.60 1.086163
473.70 1.024511
473.80 0.9959007
473.90 1.002649
474.00 1.037551
474.10 1.083297
474.20 1.120281
474.30 1.134675
474.40 1.118096
474.50 1.07523
474.60 1.017716
474.70 0.9496051
474.80 0.8770502
474.90 0.8068385
475.00 0.7451233
475.10 0.695886
475.20 0.6599135
475.30 0.6395001
475.40 0.6314379
475.50 0.6303704
475.60 0.63405
475.70 0.6425318
475.80 0.6522577
475.90 0.6597145
476.00 0.6655275
476.10 0.6707282
476.20 0.6751671
476.30 0.6783389
476.40 0.6793969
476.50 0.6745097
476.60 0.661752
476.70 0.6416311
476.80 0.615609
476.90 0.5870422
477.00 0.560083
477.10 0.5368587
477.20 0.5186446
477.30 0.5075081
477.40 0.5042409
477.50 0.5052831
477.60 0.5173754
477.70 0.5375278
477.80 0.5613948
477.90 0.5859536
478.00 0.6095977
478.10 0.631532
478.20 0.6513865
478.30 0.6686334
478.40 0.6839061
478.50 0.6984759
478.60 0.7124176
478.70 0.7257933
478.80 0.7370777
478.90 0.7452082
479.00 0.7488767
479.10 0.7488767
479.20 0.7488767
479.30 0.7488767
479.40 0.7488767
479.50 0.7488767
479.60 0.7488767
479.70 0.7488767
479.80 0.7488767
479.90 0.7488767
480.00 0.7488767
480.10 0.7488767
480.20 0.7520559
480.30 0.7598715
480.40 0.7697073
480.50 0.7780877
480.60 0.7843341
480.70 0.7861815
480.80 0.7861815
480.90 0.7861815
481.00 0.7875831
481.10 0.7974179
481.20 0.8174244
481.30 0.8473751
481.40 0.8858896
481.50 0.9300647
481.60 0.9749778
481.70 1.015408
481.80 1.045762
481.90 1.060174
482.00 1.060174
482.10 1.058055
482.20 1.054889
482.30 1.052787
482.40 1.052787
482.50 1.052787
482.60 1.052787
482.70 1.052787
482.80 1.052787
482.90 1.052787
483.00 1.048236
483.10 1.038532
483.20 1.025724
483.30 1.01208
483.40 0.9978619
483.50 0.9804676
483.60 0.957212
483.70 0.933834
483.80 0.9122007
483.90 0.887328
484.00 0.8543117
484.10 0.813054
484.20 0.7682613
484.30 0.737896
484.40 0.7267077
484.50 0.7267077
484.60 0.7267077
484.70 0.7267077
484.80 0.7267077
484.90 0.7267077
485.00 0.7305991
485.10 0.7406696
485.20 0.7544484
485.30 0.765868
485.40 0.7718125
485.50 0.771755
485.60 0.7648663
485.70 0.753788
485.80 0.7440621
485.90 0.7366053
486.00 0.7307923
486.10 0.7255916
486.20 0.7211527
486.30 0.717981
486.40 0.716923
486.50 0.716923
486.60 0.716923
486.70 0.716923
486.80 0.716923
486.90 0.716923
487.00 0.7204012
487.10 0.7313178
487.20 0.7495926
487.30 0.773674
487.40 0.8013969
487.50 0.8302345
487.60 0.8499905
487.70 0.8637432
487.80 0.8754745
487.90 0.8869496
488.00 0.8977565
488.10 0.9073318
488.20 0.9153453
488.30 0.9207576
488.40 0.9204844
488.50 0.9114304
488.60 0.8970832
488.70 0.8837074
488.80 0.8724231
488.90 0.8642926
489.00 0.860624
489.10 0.860624
489.20 0.860624
489.30 0.860624
489.40 0.860624
489.50 0.860624
489.60 0.860624
489.70 0.860624
489.80 0.860624
489.90 0.860624
490.00 0.860624
490.10 0.860624
490.20 0.8574449
490.30 0.8551794
490.40 0.8576856
490.50 0.8651097
490.60 0.8761498
490.70 0.8897807
490.80 0.9032851
490.90 0.916558
491.00 0.9296502
491.10 0.9381637
491.20 0.9443769
491.30 0.9508038
491.40 0.9586427
491.50 0.9676805
491.60 0.9773694
491.70 0.9868689
491.80 0.9967536
491.90 1.010387
492.00 1.026266
492.10 1.031745
492.20 1.031745
492.30 1.031745
492.40 1.032205
492.50 1.039666
492.60 1.05295
492.70 1.069452
492.80 1.086387
492.90 1.102638
493.00 1.11881
493.10 1.135193
493.20 1.151375
493.30 1.166747
493.40 1.180911
493.50 1.194876
493.60 1.211093
493.70 1.223747
493.80 1.228884
493.90 1.2288
494.00 1.227938
494.10 1.231083
494.20 1.241053
494.30 1.244894
494.40 1.244894
494.50 1.244894
494.60 1.244894
494.70 1.244894
494.80 1.244894
494.90 1.244894
495.00 1.241002
495.10 1.230932
495.20 1.217153
495.30 1.201467
495.40 1.187195
495.50 1.177298
495.60 1.173191
495.70 1.17563
495.80 1.183076
495.90 1.196403
496.00 1.215571
496.10 1.239974
496.20 1.268323
496.30 1.298476
496.40 1.326503
496.50 1.347629
496.60 1.358307
496.70 1.358307
496.80 1.358307
496.90 1.358307
497.00 1.354829
497.10 1.343913
497.20 1.325638
497.30 1.301556
497.40 1.273833
497.50 1.243954
497.60 1.212105
497.70 1.180611
497.80 1.152523
497.90 1.12607
498.00 1.099311
498.10 1.071043
498.20 1.043175
498.30 1.020515
498.40 1.005516
498.50 1
498.60 1
498.70 1
498.80 1
498.90 1
499.00 1
499.10 1
499.20 1
499.30 1
499.40 1
499.50 1
499.60 1
499.70 1
499.80 1
499.90 1
500.00 1
500.10 1.005716
500.20 1.017201
500.30 1.025834
500.40 1.02645
500.50 1.01799
500.60 1.001027
500.70 0.9855492
500.80 0.9720447
500.90 0.9587718
501.00 0.944278
501.10 0.9259298
501.20 0.8997101
501.30 0.8633325
501.40 0.816979
501.50 0.7637662
501.60 0.7130602
501.70 0.6717167
501.80 0.6447718
501.90 0.6346099
502.00 0.6401904
502.10 0.6575862
502.20 0.6805604
502.30 0.7032312
502.40 0.7246838
502.50 0.7379629
502.60 0.743758
502.70 0.7448576
502.80 0.7446872
502.90 0.7441537
503.00 0.7423804
503.10 0.7390417
503.20 0.7337207
503.30 0.725397
503.40 0.7145639
503.50 0.7028256
503.60 0.690637
503.70 0.678839
503.80 0.6694736
503.90 0.663979
504.00 0.6619036
504.10 0.6620434
504.20 0.6636803
504.30 0.6675675
504.40 0.6691092
504.50 0.6691092
504.60 0.6691092
504.70 0.6691092
504.80 0.6691092
504.90 0.6691092
505.00 0.6691092
505.10 0.6697179
505.20 0.6697283
505.30 0.6697283
505.40 0.6697283
505.50 0.6697283
505.60 0.6697283
505.70 0.6672895
505.80 0.6598429
505.90 0.6465162
506.00 0.6273485
506.10 0.6079251
506.20 0.5997311
506.30 0.6031663
506.40 0.6179009
506.50 0.6435416
506.60 0.6782583
506.70 0.7174017
506.80 0.7472044
506.90 0.7673835
507.00 0.7804111
507.10 0.7903806
507.20 0.8009746
507.30 0.8133626
507.40 0.8265442
507.50 0.838828
507.60 0.8487608
507.70 0.8536944
507.80 0.8516543
507.90 0.8454393
508.00 0.8377475
508.10 0.834506
508.20 0.834506
508.30 0.834506
508.40 0.834506
508.50 0.834506
508.60 0.834506
508.70 0.834506
508.80 0.834506
508.90 0.834506
509.00 0.834506
509.10 0.834506
509.20 0.834506
509.30 0.834506
509.40 0.834506
509.50 0.834506
509.60 0.834506
509.70 0.834506
509.80 0.834506
509.90 0.834506
510.00 0.834506
510.10 0.8287896
510.20 0.817305
510.30 0.8031217
510.40 0.7901638
510.50 0.782122
510.60 0.7817978
510.70 0.7819646
510.80 0.7919227
510.90 0.8055859
511.00 0.8153191
511.10 0.8153191
511.20 0.8153191
511.30 0.8153191
511.40 0.8153191
511.50 0.8153191
511.60 0.8114231
511.70 0.8028369
511.80 0.789543
511.90 0.7716592
512.00 0.7502002
512.10 0.7298032
512.20 0.7127147
512.30 0.6965716
512.40 0.6804965
512.50 0.6640465
512.60 0.6460003
512.70 0.6283988
512.80 0.6116336
512.90 0.5959164
513.00 0.5815175
513.10 0.5684732
513.20 0.5576122
513.30 0.5505643
513.40 0.5472335
513.50 0.5450063
513.60 0.5539264
513.70 0.5713168
513.80 0.5940271
513.90 0.620615
514.00 0.6510048
514.10 0.6848449
514.20 0.7213584
514.30 0.7594315
514.40 0.7981617
514.50 0.8324576
514.60 0.8625612
514.70 0.8926946
514.80 0.9269658
514.90 0.9668202
515.00 1.011329
515.10 1.058467
515.20 1.10739
515.30 1.15477
515.40 1.198336
515.50 1.237071
515.60 1.270795
515.70 1.29965
515.80 1.325164
515.90 1.351054
516.00 1.380317
516.10 1.408196
516.20 1.423429
516.30 1.426299
516.40 1.419062
516.50 1.40385
516.60 1.382661
516.70 1.358673
516.80 1.335577
516.90 1.315841
517.00 1.302814
517.10 1.292844
517.20 1.288156
517.30 1.288948
517.40 1.294335
517.50 1.302426
517.60 1.310319
517.70 1.313736
517.80 1.309332
517.90 1.305966
518.00 1.305966
518.10 1.305966
518.20 1.305966
518.30 1.305966
518.40 1.305966
518.50 1.305966
518.60 1.305966
518.70 1.305966
518.80 1.305966
518.90 1.305966
519.00 1.305966
519.10 1.317553
519.20 1.340715
519.30 1.370505
519.40 1.402582
519.50 1.434807
519.60 1.464455
519.70 1.488283
519.80 1.504142
519.90 1.511334
520.00 1.511334
520.10 1.511334
520.20 1.511334
520.30 1.511334
520.40 1.511334
520.50 1.511334
520.60 1.511334
520.70 1.511167
520.80 1.501209
520.90 1.487546
521.00 1.477813
521.10 1.478971
521.20 1.482336
521.30 1.487931
521.40 1.495183
521.50 1.502797
521.60 1.508467
521.70 1.510233
521.80 1.510233
521.90 1.510233
522.00 1.510233
522.10 1.507756
522.20 1.50187
522.30 1.495343
522.40 1.489505
522.50 1.485215
522.60 1.484182
522.70 1.484182
522.80 1.484182
522.90 1.484182
523.00 1.484182
523.10 1.484472
523.20 1.488965
523.30 1.494935
523.40 1.500658
523.50 1.507032
523.60 1.50367
523.70 1.493108
523.80 1.480005
523.90 1.46977
524.00 1.465774
524.10 1.465907
524.20 1.463299
524.30 1.450118
524.40 1.420967
524.50 1.386671
524.60 1.356567
524.70 1.326434
524.80 1.292163
524.90 1.252308
525.00 1.207799
525.10 1.160053
525.20 1.11112
525.30 1.063739
525.40 1.020173
525.50 0.981438
525.60 0.947714
525.70 0.918859
525.80 0.894955
525.90 0.8772001
526.00 0.859069
526.10 0.8366627
526.20 0.8078551
526.30 0.7714718
526.40 0.7359473
526.50 0.7043915
526.60 0.680186
526.70 0.6650311
526.80 0.6637853
526.90 0.6783697
527.00 0.701221
527.10 0.7262942
527.20 0.7395054
527.30 0.7339708
527.40 0.7154021
527.50 0.6950274
527.60 0.6772013
527.70 0.6664401
527.80 0.665374
527.90 0.665374
528.00 0.665374
528.10 0.665374
528.20 0.665374
528.30 0.665374
528.40 0.665374
528.50 0.665374
528.60 0.665374
528.70 0.665374
528.80 0.665374
528.90 0.6686954
529.00 0.6770149
529.10 0.6795056
529.20 0.6773657
529.30 0.6760624
529.40 0.6792361
529.50 0.6880072
529.60 0.7037507
529.70 0.7275447
529.80 0.7588956
529.90 0.7961052
530.00 0.8359487
530.10 0.8705668
530.20 0.8998594
530.30 0.9221541
530.40 0.9349348
530.50 0.9371913
530.60 0.9371913
530.70 0.9371913
530.80 0.9371913
530.90 0.9371913
531.00 0.9371913
531.10 0.9360326
531.20 0.9326679
531.30 0.9270726
531.40 0.9204738
531.50 0.916934
531.60 0.9163986
531.70 0.9198802
531.80 0.9256557
531.90 0.9322776
532.00 0.9396159
532.10 0.9469257
532.20 0.9526908
532.30 0.9553652
532.40 0.9553652
532.50 0.9553652
532.60 0.9553652
532.70 0.9553652
532.80 0.9553652
532.90 0.9553652
533.00 0.9557362
533.10 0.9615892
533.20 0.9685165
533.30 0.9771155
533.40 0.9864878
533.50 0.9930417
533.60 0.9920952
533.70 0.9797144
533.80 0.9561935
533.90 0.9215751
534.00 0.8756009
534.10 0.8239334
534.20 0.7766857
534.30 0.7440658
534.40 0.7329452
534.50 0.7329452
534.60 0.7329452
534.70 0.7332179
534.80 0.7339964
534.90 0.7353119
535.00 0.7374831
535.10 0.7411442
535.20 0.7462199
535.30 0.7521181
535.40 0.7586531
535.50 0.7658666
535.60 0.7742727
535.70 0.7844499
535.80 0.7949257
535.90 0.8008146
536.00 0.8056145
536.10 0.8123107
536.20 0.8223949
536.30 0.8360136
536.40 0.8441658
536.50 0.8446551
536.60 0.8446551
536.70 0.8446551
536.80 0.8391939
536.90 0.8241662
537.00 0.8013149
537.10 0.7762416
537.20 0.7571251
537.30 0.7494793
537.40 0.7494793
537.50 0.7494793
537.60 0.7494793
537.70 0.7494793
537.80 0.7494793
537.90 0.7494793
538.00 0.7494793
538.10 0.7494793
538.20 0.7494793
538.30 0.7494793
538.40 0.7494793
538.50 0.7494793
538.60 0.7494793
538.70 0.7494793
538.80 0.7494793
538.90 0.7461579
539.00 0.7378384
539.10 0.7237608
539.20 0.7048102
539.30 0.6803974
539.40 0.6520295
539.50 0.6218362
539.60 0.5920482
539.70 0.565023
539.80 0.5421859
539.90 0.5236707
540.00 0.5094485
540.10 0.4996416
540.20 0.494203
540.30 0.4951432
540.40 0.5043835
540.50 0.5211678
540.60 0.53612
540.70 0.5467252
540.80 0.5537117
540.90 0.5576314
541.00 0.5581309
541.10 0.5581309
541.20 0.5581309
541.30 0.5581309
541.40 0.5574783
541.50 0.5534038
541.60 0.548269
541.70 0.5430213
541.80 0.5372457
541.90 0.5306239
542.00 0.5232855
542.10 0.5159757
542.20 0.5102106
542.30 0.5075363
542.40 0.5075363
542.50 0.5075363
542.60 0.5075363
542.70 0.5075363
542.80 0.5075363
542.90 0.5075363
543.00 0.5071652
543.10 0.5010223
543.20 0.4896017
543.30 0.4750322
543.40 0.459937
543.50 0.4470096
543.60 0.445486
543.70 0.458528
543.80 0.4817293
543.90 0.5114557
544.00 0.5467669
544.10 0.5860462
544.20 0.6267902
544.30 0.6673442
544.40 0.7082243
544.50 0.7505083
544.60 0.7950384
544.70 0.8420084
544.80 0.8906815
544.90 0.9399196
545.00 0.9882924
545.10 1.03442
545.20 1.077044
545.30 1.114167
545.40 1.143111
545.50 1.162224
545.60 1.17198
545.70 1.173956
545.80 1.168767
545.90 1.156218
546.00 1.140286
546.10 1.123138
546.20 1.106474
546.30 1.09278
546.40 1.084628
546.50 1.084139
546.60 1.084139
546.70 1.084139
546.80 1.084139
546.90 1.084139
547.00 1.084139
547.10 1.084139
547.20 1.084139
547.30 1.084139
547.40 1.084139
547.50 1.084139
547.60 1.084139
547.70 1.084139
547.80 1.084139
547.90 1.084139
548.00 1.084139
548.10 1.084139
548.20 1.084139
548.30 1.084139
548.40 1.084139
548.50 1.084139
548.60 1.084139
548.70 1.084139
548.80 1.084139
548.90 1.084139
549.00 1.084139
549.10 1.084139
549.20 1.082067
549.30 1.077993
549.40 1.07111
549.50 1.060308
549.60 1.044704
549.70 1.024107
549.80 0.9997349
549.90 0.973848
550.00 1.995754
550.10 1.995754
550.20 1.995754
550.30 1.995754
550.40 1.995754
550.50 1.995754
550.60 1.977964
550.70 1.938262
550.80 1.880259
550.90 1.805943
551.00 1.717665
551.10 1.619467
551.20 1.517607
551.30 1.416222
551.40 1.314022
551.50 1.208311
551.60 1.096986
551.70 0.9788793
551.80 0.8552504
551.90 0.7288665
552.00 0.6025064
552.10 0.4780358
552.20 0.3587853
552.30 0.2512338
552.40 0.1625353
552.50 0.0967181
552.60 0.051313
552.70 0.02093089
552.80 0.003688409
552.90 0
553.00 0
553.10 0
553.20 0
553.30 0
553.40 0.02061481
553.50 0.05730511
553.60 0.1056425
553.70 0.1608915
553.80 0.2209602
553.90 0.2861767
554.00 0.3546873
554.10 0.4216506
554.20 0.4807335
554.30 0.5254853
554.40 0.551538
554.50 0.5602451
554.60 0.5602451
554.70 0.5602451
554.80 0.5602451
554.90 0.5602451
555.00 0.566339
555.10 0.5681465
555.20 0.5681465
555.30 0.5681465
555.40 0.5681465
555.50 0.5681465
555.60 0.5681465
555.70 0.5681465
555.80 0.5681465
555.90 0.5681465
556.00 0.5681465
556.10 0.5681465
556.20 0.5681465
556.30 0.6281613
556.40 0.7221719
556.50 0.8302979
556.60 0.9449804
556.70 1.070112
556.80 1.212795
556.90 1.368934
557.00 1.529172
557.10 1.68532
557.20 1.8295
557.30 1.955753
557.40 2.039589
557.50 2.083189
557.60 2.090369
557.70 2.068568
557.80 2.025989
557.90 1.970413
558.00 1.912286
558.10 1.862793
558.20 1.830524
558.30 1.82036
558.40 1.832247
558.50 1.858424
558.60 1.882737
558.70 1.888585
558.80 1.888585
558.90 1.888585
559.00 1.882491
559.10 1.880684
559.20 1.880684
559.30 1.880684
559.40 1.880684
559.50 1.880684
559.60 1.880684
559.70 1.880684
559.80 1.880684
559.90 1.880684
560.00 1.880684
560.10 1.896056
560.20 1.932701
560.30 1.927459
560.40 1.902424
560.50 1.874894
560.60 1.848533
560.70 1.813492
560.80 1.757469
560.90 1.682196
561.00 1.596953
561.10 1.511298
561.20 1.43486
561.30 1.374637
561.40 1.332209
561.50 1.304551
561.60 1.288604
561.70 1.283163
561.80 1.287189
561.90 1.30096
562.00 1.32785
562.10 1.371164
562.20 1.430869
562.30 1.503116
562.40 1.582496
562.50 1.663897
562.60 1.743888
562.70 1.821691
562.80 1.878442
562.90 1.906374
563.00 1.910519
563.10 1.910519
563.20 1.910519
563.30 1.910519
563.40 1.92013
563.50 1.940823
563.60 1.972384
563.70 2.013971
563.80 2.062797
563.90 2.117099
564.00 2.177108
564.10 2.227819
564.20 2.26431
564.30 2.289856
564.40 2.305338
564.50 2.307023
564.60 2.289622
564.70 2.246075
564.80 2.170535
564.90 2.089669
565.00 2.014674
565.10 1.944181
565.20 1.876439
565.30 1.810409
565.40 1.748386
565.50 1.695755
565.60 1.656183
565.70 1.628176
565.80 1.606662
565.90 1.58325
566.00 1.545976
566.10 1.485191
566.20 1.398673
566.30 1.291838
566.40 1.174518
566.50 1.058233
566.60 0.9539295
566.70 0.8702775
566.80 0.8135266
566.90 0.7855946
567.00 0.7814497
567.10 0.7882698
567.20 0.8150435
567.30 0.8598956
567.40 0.9087664
567.50 0.9531295
567.60 0.9850891
567.70 1.000551
567.80 1.00107
567.90 0.9886169
568.00 0.9642194
568.10 0.928429
568.20 0.87859
568.30 0.8113911
568.40 0.7277329
568.50 0.6454528
568.60 0.5745308
568.70 0.5279884
568.80 0.5168677
568.90 0.5168677
569.00 0.5168677
569.10 0.5168677
569.20 0.5168677
569.30 0.5168677
569.40 0.5168677
569.50 0.5168677
569.60 0.5168677
569.70 0.5314877
569.80 0.5679821
569.90 0.6257852
570.00 0.7007232
570.10 0.7852002
570.20 0.8668419
570.30 0.932671
570.40 0.9733146
570.50 0.9840774
570.60 0.9840774
570.70 0.9840774
570.80 0.9840774
570.90 0.9853124
571.00 1.014489
571.10 1.066584
571.20 1.125316
571.30 1.18476
571.40 1.237049
571.50 1.276643
571.60 1.304064
571.70 1.320596
571.80 1.325785
571.90 1.318516
572.00 1.296958
572.10 1.266666
572.20 1.243369
572.30 1.23025
572.40 1.22945
572.50 1.22945
572.60 1.22945
572.70 1.22945
572.80 1.22945
572.90 1.22945
573.00 1.22945
573.10 1.22945
573.20 1.22945
573.30 1.22945
573.40 1.22945
573.50 1.22945
573.60 1.22945
573.70 1.21483
573.80 1.178335
573.90 1.120532
574.00 1.045594
574.10 0.9611171
574.20 0.8794754
574.30 0.8136463
574.40 0.7801266
574.50 0.7911764
574.60 0.8235874
574.70 0.858986
574.80 0.8875615
574.90 0.8990124
575.00 0.869836
575.10 0.8109207
575.20 0.7254146
575.30 0.6211184
575.40 0.510349
575.50 0.405698
575.60 0.3184653
575.70 0.2892593
575.80 0.3212184
575.90 0.4098175
576.00 0.5443817
576.10 0.7021921
576.20 0.8501218
576.30 0.9711554
576.40 1.053603
576.50 1.092599
576.60 1.092599
576.70 1.092599
576.80 1.092599
576.90 1.092599
577.00 1.092599
577.10 1.092599
577.20 1.092599
577.30 1.092599
577.40 1.092599
577.50 1.092599
577.60 1.092599
577.70 1.092599
577.80 1.092599
577.90 1.092599
578.00 1.092599
578.10 1.092599
578.20 1.092599
578.30 1.103129
578.40 1.120492
578.50 1.137044
578.60 1.153916
578.70 1.174582
578.80 1.201006
578.90 1.230393
579.00 1.249248
579.10 1.249248
579.20 1.249248
579.30 1.249248
579.40 1.249248
579.50 1.249248
579.60 1.245539
579.70 1.22105
579.80 1.186103
579.90 1.134579
580.00 1.05748
580.10 0.9491669
580.20 0.8145669
580.30 0.6935333
580.40 0.6110857
580.50 0.5720898
580.60 0.5720898
580.70 0.5720898
580.80 0.5720898
580.90 0.5859652
581.00 0.6210567
581.10 0.6666112
581.20 0.7087475
581.30 0.7359774
581.40 0.7404578
581.50 0.7404578
581.60 0.7404578
581.70 0.7404578
581.80 0.7404578
581.90 0.7404578
582.00 0.7404578
582.10 0.7404578
582.20 0.7404578
582.30 0.7299277
582.40 0.7302407
582.50 0.7435838
582.60 0.758519
582.70 0.7604355
582.80 0.7371955
582.90 0.6951222
583.00 0.676268
583.10 0.676268
583.20 0.676268
583.30 0.676268
583.40 0.676268
583.50 0.676268
583.60 0.676268
583.70 0.6563826
583.80 0.6533873
583.90 0.6835523
584.00 0.7620425
584.10 0.9013422
584.20 1.105536
584.30 1.339429
584.40 1.575122
584.50 1.802101
584.60 2.013401
584.70 2.20058
584.80 2.355392
584.90 2.459494
585.00 2.505282
585.10 2.507264
585.20 2.487605
585.30 2.466673
585.40 2.462193
585.50 2.462193
585.60 2.465599
585.70 2.480026
585.80 2.510578
585.90 2.561358
586.00 2.635267
586.10 2.737632
586.20 2.871079
586.30 3.027969
586.40 3.165531
586.50 3.260887
586.60 3.309437
586.70 3.313351
586.80 3.283204
586.90 3.283204
587.00 3.283204
587.10 3.283204
587.20 3.283204
587.30 3.283204
587.40 3.283204
587.50 3.283204
587.60 3.283204
587.70 3.283204
587.80 3.234652
587.90 3.132832
588.00 2.982823
588.10 2.794026
588.20 2.576503
588.30 2.376359
588.40 2.220498
588.50 2.105105
588.60 2.024818
588.70 1.96865
588.80 1.914341
588.90 1.833901
589.00 1.753022
589.10 1.705486
589.20 1.683008
589.30 1.67671
589.40 1.67671
589.50 1.67671
589.60 1.673304
589.70 1.658877
589.80 1.637351
589.90 1.64013
590.00 1.645803
590.10 1.630395
590.20 1.579626
590.30 1.496479
590.40 1.396487
590.50 1.29682
590.60 1.211266
590.70 1.154576
590.80 1.152963
590.90 1.152963
591.00 1.152963
591.10 1.152963
591.20 1.152963
591.30 1.152963
591.40 1.152963
591.50 1.152963
591.60 1.152963
591.70 1.152963
591.80 1.152963
591.90 1.177823
592.00 1.247447
592.10 1.324281
592.20 1.369091
592.30 1.335341
592.40 1.255509
592.50 1.143923
592.60 1.012911
592.70 0.8818984
592.80 0.781396
592.90 0.743858
593.00 0.743858
593.10 0.743858
593.20 0.743858
593.30 0.743858
593.40 0.743858
593.50 0.743858
593.60 0.743858
593.70 0.743858
593.80 0.7348319
593.90 0.6812731
594.00 0.6016907
594.10 0.5147342
594.20 0.4320562
594.30 0.3583129
594.40 0.2959428
594.50 0.2485455
594.60 0.2213323
594.70 0.2161276
594.80 0.2161276
594.90 0.2161276
595.00 0.2161276
595.10 0.2161276
595.20 0.2255395
595.30 0.2635137
595.40 0.3304321
595.50 0.424569
595.60 0.5410452
595.70 0.6705111
595.80 0.7979747
595.90 0.8789844
596.00 0.8767117
596.10 0.8225295
596.20 0.77772
596.30 0.77772
596.40 0.77772
596.50 0.77772
596.60 0.77772
596.70 0.77772
596.80 0.77772
596.90 0.77772
597.00 0.77772
597.10 0.77772
597.20 0.77772
597.30 0.77772
597.40 0.77772
597.50 0.77772
597.60 0.77772
597.70 0.77772
597.80 0.77772
597.90 0.77772
598.00 0.77772
598.10 0.77772
598.20 0.77772
598.30 0.77772
598.40 0.77772
598.50 0.77772
598.60 0.77772
598.70 0.77772
598.80 0.7840527
598.90 0.7869934
599.00 0.7869934
599.10 0.7869934
599.20 0.7775816
599.30 0.7396073
599.40 0.6774694
599.50 0.6163872
599.60 0.5672678
599.70 0.5420597
599.80 0.5537509
599.90 0.6114752
600.00 0
600.10 0
600.20 0
600.30 0
600.40 0
600.50 0
600.60 0
600.70 0
600.80 0.2533093
600.90 0.1176264
601.00 0
601.10 0
601.20 0
601.30 0
601.40 0.1912202
601.50 1.322185
601.60 2.694276
601.70 4.170308
601.80 5.566194
601.90 6.543747
602.00 6.746188
602.10 5.953055
602.20 3.964795
602.30 0.7409607
602.40 0
602.50 0
602.60 0
602.70 0
602.80 0
602.90 0
603.00 0
603.10 0
603.20 0
603.30 0
603.40 0
603.50 0
603.60 0
603.70 0.2317697
603.80 0.8823153
603.90 1.442861
604.00 1.785442
604.10 1.84944
604.20 1.555971
604.30 0.8290675
604.40 0
604.50 0
604.60 0
604.70 0
604.80 0
604.90 0
605.00 0
605.10 0
605.20 0
605.30 0
605.40 0
605.50 0
605.60 0
605.70 0
605.80 0
605.90 0
606.00 0
606.10 0.6948418
606.20 2.496805
606.30 4.007121
606.40 5.184997
606.50 5.950381
606.60 6.476987
606.70 7.038204
606.80 7.658427
606.90 8.198646
607.00 8.569883
607.10 8.740671
607.20 8.612119
607.30 8.067187
607.40 7.151663
607.50 5.878724
607.60 4.202271
607.70 2.201358
607.80 0.03104492
607.90 0
608.00 0
608.10 0
608.20 0
608.30 0
608.40 0
608.50 0
608.60 0
608.70 0
608.80 0.4800684
608.90 1.05787
609.00 1.386987
609.10 1.431234
609.20 1.050814
609.30 0.1358527
609.40 0
609.50 0
609.60 0
609.70 0
609.80 0
609.90 0
610.00 0
610.10 0
610.20 0
610.30 0.921981
610.40 1.057776
610.50 0.2627113
610.60 0
610.70 0
610.80 0
610.90 0
611.00 0
611.10 0
611.20 0
611.30 0
611.40 0
611.50 0
611.60 0
611.70 0
611.80 0
611.90 0
612.00 0
612.10 0.1575656
612.20 0.3204067
612.30 0.2489726
612.40 0
612.50 0
612.60 0
612.70 0
612.80 0
612.90 0
613.00 0
613.10 0
613.20 0
613.30 0
613.40 0
613.50 0.04655917
613.60 0.7677392
613.70 1.390006
613.80 1.91175
613.90 2.330726
614.00 2.621362
614.10 2.779114
614.20 2.838064
614.30 2.868884
614.40 2.890419
614.50 2.809172
614.60 2.478053
614.70 1.795659
614.80 0.7754405
614.90 0
615.00 0
615.10 0
615.20 0
615.30 0
615.40 0
615.50 0.05387778
615.60 0.6092506
615.70 0.8150407
615.80 0.4710863
615.90 0
616.00 0
616.10 0
616.20 0
616.30 0
616.40 0
616.50 0
616.60 0
616.70 0.4150265
616.80 0.7686518
616.90 0.822405
617.00 0.5443719
617.10 0.06410999
617.20 0
617.30 0
617.40 0
617.50 0
617.60 0
617.70 0
617.80 0
617.90 0.1768591
618.00 0.6754814
618.10 1.123131
618.20 1.660326
618.30 2.29024
618.40 2.808285
618.50 3.052618
618.60 3.090599
618.70 3.082486
618.80 3.135357
618.90 3.269935
619.00 3.481128
619.10 3.702739
619.20 3.878477
619.30 4.025343
619.40 4.163264
619.50 4.259112
619.60 4.239084
619.70 4.127983
619.80 4.017037
619.90 3.868658
620.00 3.396376
620.10 2.410315
620.20 0.9937376
620.30 0
620.40 0
620.50 0
620.60 0
620.70 0
620.80 1.477023
620.90 3.267247
621.00 4.444805
621.10 4.595621
621.20 3.695696
621.30 2.070747
621.40 0.3153428
621.50 0
621.60 0
621.70 0
621.80 0
621.90 0
622.00 0
622.10 0
622.20 0.04092235
622.30 0.6836415
622.40 1.504622
622.50 2.576946
622.60 3.75353
622.70 4.764418
622.80 5.375328
622.90 5.518461
623.00 5.341188
623.10 5.041843
623.20 4.720474
623.30 4.441984
623.40 4.422685
623.50 4.816113
623.60 5.506019
623.70 6.309375
623.80 7.022125
623.90 7.423322
624.00 7.302175
624.10 6.685329
624.20 5.812893
624.30 4.919092
624.40 4.129667
624.50 3.581852
624.60 3.403326
624.70 3.545078
624.80 3.694001
624.90 3.497189
625.00 2.888542
625.10 1.930525
625.20 0.7391415
625.30 0
625.40 0
625.50 0
625.60 0
625.70 0
625.80 0
625.90 0
626.00 0.283665
626.10 1.593112
626.20 2.876863
626.30 4.12396
626.40 5.249733
626.50 6.155539
626.60 6.766531
626.70 6.991298
626.80 6.846221
626.90 6.350188
627.00 5.414544
627.10 3.971127
627.20 2.094638
627.30 0.05817093
627.40 0
627.50 0
627.60 0
627.70 0
627.80 0
627.90 0
628.00 1.939516
628.10 3.854911
628.20 4.990618
628.30 5.212381
628.40 4.583664
628.50 3.288043
628.60 1.660508
628.70 0.1168517
628.80 0
628.90 0
629.00 0
629.10 0
629.20 0.3759916
629.30 1.963756
629.40 3.505981
629.50 4.256528
629.60 3.348185
629.70 0.3216326
629.80 0
629.90 0
630.00 0
630.10 0
630.20 0
630.30 0
630.40 0
630.50 0
630.60 1.704634
630.70 6.052307
630.80 8.27758
630.90 8.459719
631.00 7.281599
631.10 5.660736
631.20 4.279965
631.30 3.392394
631.40 2.887387
631.50 2.565303
631.60 2.373774
631.70 2.240198
631.80 2.134197
631.90 2.120665
632.00 2.273321
632.10 2.562791
632.20 2.877068
632.30 3.214303
632.40 3.657218
632.50 4.086831
632.60 4.113095
632.70 3.553072
632.80 2.593014
632.90 1.481627
633.00 0.4162718
633.10 0
633.20 0
633.30 0.06935127
633.40 0.8643493
633.50 1.714753
633.60 2.55788
633.70 3.343568
633.80 3.942711
633.90 4.270305
634.00 4.350879
634.10 4.17914
634.20 3.823888
634.30 3.338425
634.40 2.777611
634.50 2.256395
634.60 1.882857
634.70 1.845202
634.80 2.396342
634.90 3.555295
635.00 5.034081
635.10 6.407205
635.20 7.359518
635.30 7.794932
635.40 7.749617
635.50 7.245897
635.60 6.356025
635.70 5.330807
635.80 4.397987
635.90 3.668839
636.00 3.069849
636.10 2.330741
636.20 1.339279
636.30 0.2851521
636.40 0
636.50 0
636.60 0
636.70 0
636.80 0.2020755
636.90 0.8472691
637.00 1.389036
637.10 1.611912
637.20 1.415434
637.30 0.8170923
637.40 0.06555062
637.50 0
637.60 0
637.70 0
637.80 0
637.90 0.660011
638.00 1.993073
638.10 3.466379
638.20 4.970115
638.30 6.333262
638.40 7.235331
638.50 7.50378
638.60 7.185004
638.70 6.494442
638.80 5.685413
638.90 5.066883
639.00 4.830768
639.10 4.938054
639.20 5.155192
639.30 5.224183
639.40 5.176681
639.50 5.175518
639.60 5.33883
639.70 5.73436
639.80 6.313644
639.90 6.903888
640.00 7.312294
640.10 7.399575
640.20 7.10635
640.30 6.441124
640.40 5.479451
640.50 4.404719
640.60 3.4709
640.70 2.872289
640.80 2.599932
640.90 2.461564
641.00 2.234441
641.10 1.871428
641.20 1.533073
641.30 1.447301
641.40 1.81498
641.50 2.680041
641.60 3.912943
641.70 5.324091
641.80 6.738411
641.90 7.836867
642.00 8.277644
642.10 8.05503
642.20 7.367704
642.30 6.490563
642.40 5.713967
642.50 5.241882
642.60 5.217939
642.70 5.65938
642.80 6.415741
642.90 7.309449
643.00 8.184345
643.10 8.848501
643.20 9.156253
643.30 9.191439
643.40 9.09005
643.50 8.81179
643.60 8.307758
643.70 7.672975
643.80 7.073557
643.90 6.619081
644.00 6.317497
644.10 6.134466
644.20 6.042466
644.30 6.006871
644.40 5.994332
644.50 5.951042
644.60 5.833836
644.70 5.652186
644.80 5.512477
644.90 5.418702
645.00 5.298379
645.10 5.16033
645.20 5.030139
645.30 4.932512
645.40 4.925443
645.50 5.143534
645.60 5.662702
645.70 6.42087
645.80 7.315953
645.90 8.363805
646.00 9.555485
646.10 10.53793
646.20 10.79137
646.30 10.16394
646.40 8.940073
646.50 7.562931
646.60 6.458001
646.70 5.904812
646.80 5.94825
646.90 6.314507
647.00 6.583406
647.10 6.564923
647.20 6.256931
647.30 5.541034
647.40 4.363962
647.50 3.080049
647.60 2.240257
647.70 2.189692
647.80 2.903253
647.90 4.050673
648.00 5.216451
648.10 6.106509
648.20 6.630804
648.30 6.894253
648.40 7.154424
648.50 7.547432
648.60 8.101872
648.70 8.893429
648.80 9.854862
648.90 10.79173
649.00 11.52235
649.10 11.92793
649.20 11.99612
649.30 11.79366
649.40 11.35365
649.50 10.72375
649.60 10.02683
649.70 9.411784
649.80 8.953127
649.90 8.666136
650.00 8.479831
650.10 8.344638
650.20 8.341945
650.30 8.53455
650.40 8.925761
650.50 9.49738
650.60 10.17091
650.70 10.7743
650.80 11.21507
650.90 11.44713
651.00 11.34257
651.10 10.82475
651.20 10.00696
651.30 9.070523
651.40 8.232742
651.50 7.743893
651.60 7.739049
651.70 8.205083
651.80 8.957851
651.90 9.746512
652.00 10.38993
652.10 10.79697
652.20 10.95563
652.30 10.88501
652.40 10.69522
652.50 10.49748
652.60 10.32235
652.70 10.158
652.80 9.941145
652.90 9.517389
653.00 8.775282
653.10 7.74048
653.20 6.604485
653.30 5.63267
653.40 4.977662
653.50 4.701407
653.60 4.811354
653.70 5.277784
653.80 5.969492
653.90 6.752415
654.00 7.428912
654.10 7.85734
654.20 8.048542
654.30 8.042473
654.40 7.9209
654.50 7.881247
654.60 8.102251
654.70 8.611708
654.80 9.443072
654.90 10.57718
655.00 11.74091
655.10 12.54356
655.20 12.76335
655.30 12.35574
655.40 11.46786
655.50 10.28427
655.60 8.996516
655.70 7.963899
655.80 7.476239
655.90 7.513669
656.00 7.958977
656.10 8.681271
656.20 9.410756
656.30 9.996195
656.40 10.5033
656.50 11.00038
656.60 11.46091
656.70 11.78664
656.80 11.88665
656.90 11.68637
657.00 11.209
657.10 10.52566
657.20 9.771619
657.30 9.186241
657.40 8.854424
657.50 8.757363
657.60 8.969362
657.70 9.479471
657.80 10.18159
657.90 10.97621
658.00 11.80485
658.10 12.64542
658.20 13.45236
658.30 14.21154
658.40 14.85315
658.50 15.24457
658.60 15.30478
658.70 14.90235
658.80 13.98806
658.90 12.80978
659.00 11.70762
659.10 10.90194
659.20 10.48907
659.30 10.55339
659.40 11.12723
659.50 12.10664
659.60 13.31643
659.70 14.57099
659.80 15.68701
659.90 16.41119
660.00 16.56093
660.10 16.38297
660.20 16.26722
660.30 16.29693
660.40 16.33838
660.50 16.25484
660.60 16.04603
660.70 15.76825
660.80 15.41911
660.90 14.97231
661.00 14.45122
661.10 13.96775
661.20 13.63361
661.30 13.50856
661.40 13.5907
661.50 13.72793
661.60 13.77378
661.70 13.69856
661.80 13.54058
661.90 13.37263
662.00 13.26578
662.10 13.35335
662.20 13.79144
662.30 14.72034
662.40 16.18426
662.50 17.94871
662.60 19.5802
662.70 20.74257
662.80 21.24627
662.90 20.97557
663.00 19.91409
663.10 18.22126
663.20 16.23268
663.30 14.33465
663.40 12.85226
663.50 11.92243
663.60 11.49567
663.70 11.38866
663.80 11.38826
663.90 11.42843
664.00 11.5295
664.10 11.73003
664.20 12.07435
664.30 12.583
664.40 13.28059
664.50 14.11746
664.60 14.98037
664.70 15.75027
664.80 16.22562
664.90 16.12701
665.00 15.32452
665.10 14.00617
665.20 12.50873
665.30 11.13319
665.40 10.10882
665.50 9.583118
665.60 9.624293
665.70 10.13009
665.80 10.88267
665.90 11.68044
666.00 12.34572
666.10 12.75125
666.20 12.95706
666.30 13.20104
666.40 13.64472
666.50 14.24389
666.60 14.8456
666.70 15.30082
666.80 15.55247
666.90 15.62712
667.00 15.55846
667.10 15.43518
667.20 15.38188
667.30 15.45303
667.40 15.70264
667.50 16.23807
667.60 16.99733
667.70 17.75467
667.80 18.3363
667.90 18.66905
668.00 18.75911
668.10 18.70993
668.20 18.69641
668.30 18.82039
668.40 19.04161
668.50 19.26519
668.60 19.40254
668.70 19.42781
668.80 19.1854
668.90 18.43467
669.00 17.2473
669.10 15.97947
669.20 15.00654
669.30 14.47752
669.40 14.36057
669.50 14.56196
669.60 14.91642
669.70 15.28643
669.80 15.64035
669.90 15.95495
670.00 16.20963
670.10 16.3983
670.20 16.61768
670.30 16.97585
670.40 17.43107
670.50 17.8834
670.60 18.22461
670.70 18.40903
670.80 18.42112
670.90 18.26924
671.00 18.06719
671.10 17.9265
671.20 17.89718
671.30 18.05777
671.40 18.44602
671.50 19.02844
671.60 19.68743
671.70 20.2862
671.80 20.70309
671.90 20.80493
672.00 20.54657
672.10 20.04031
672.20 19.48339
672.30 19.04768
672.40 18.83581
672.50 18.89743
672.60 19.20143
672.70 19.63164
672.80 20.06416
672.90 20.3767
673.00 20.53048
673.10 20.55007
673.20 20.44287
673.30 20.17364
673.40 19.67318
673.50 18.9293
673.60 18.05219
673.70 17.16935
673.80 16.29267
673.90 15.47635
674.00 14.9362
674.10 14.91446
674.20 15.56024
674.30 16.84895
674.40 18.42077
674.50 19.80306
674.60 20.72271
674.70 21.05972
674.80 20.82704
674.90 20.13831
675.00 19.15829
675.10 18.1455
675.20 17.47127
675.30 17.40586
675.40 17.95375
675.50 18.90225
675.60 19.92572
675.70 20.72944
675.80 21.24481
675.90 21.52961
676.00 21.56908
676.10 21.37687
676.20 21.0928
676.30 20.94637
676.40 21.03979
676.50 21.27796
676.60 21.51485
676.70 21.64672
676.80 21.65718
676.90 21.57673
677.00 21.40925
677.10 21.13957
677.20 20.8327
677.30 20.67251
677.40 20.84029
677.50 21.41598
677.60 22.29342
677.70 23.11839
677.80 23.626
677.90 23.8205
678.00 23.78345
678.10 23.55966
678.20 23.12546
678.30 22.49139
678.40 21.76398
678.50 21.1003
678.60 20.53136
678.70 19.96036
678.80 19.33953
678.90 18.70824
679.00 18.18505
679.10 17.97153
679.20 18.19366
679.30 18.7412
679.40 19.36596
679.50 19.84368
679.60 20.0501
679.70 19.95346
679.80 19.59522
679.90 19.05942
680.00 18.50944
680.10 18.06378
680.20 17.75111
680.30 17.63556
680.40 17.74607
680.50 18.04903
680.60 18.47874
680.70 19.01838
680.80 19.74306
680.90 20.72303
681.00 21.95057
681.10 23.26537
681.20 24.39946
681.30 25.10522
681.40 25.24746
681.50 24.87894
681.60 24.23348
681.70 23.52566
681.80 22.87712
681.90 22.43097
682.00 22.30027
682.10 22.49536
682.20 22.91425
682.30 23.36734
682.40 23.66209
682.50 23.6967
682.60 23.48754
682.70 23.1834
682.80 22.92624
682.90 22.72735
683.00 22.47555
683.10 22.07265
683.20 21.55839
683.30 21.01339
683.40 20.51907
683.50 20.16957
683.60 19.99438
683.70 19.90654
683.80 19.74179
683.90 19.43689
684.00 19.05346
684.10 18.61792
684.20 18.16368
684.30 17.77798
684.40 17.60082
684.50 17.7693
684.60 18.33981
684.70 19.23609
684.80 20.24217
684.90 21.06085
685.00 21.40702
685.10 21.20697
685.20 20.59719
685.30 19.75262
685.40 18.82506
685.50 17.95156
685.60 17.2869
685.70 16.99928
685.80 17.12539
685.90 17.4978
686.00 17.74184
686.10 17.42947
686.20 16.41574
686.30 14.94177
686.40 13.42587
686.50 12.19727
686.60 11.50131
686.70 11.49103
686.80 12.17391
686.90 13.43346
687.00 15.02003
687.10 16.58433
687.20 17.7678
687.30 18.34566
687.40 18.36913
687.50 18.05806
687.60 17.63283
687.70 17.16265
687.80 16.66523
687.90 16.28021
688.00 16.09962
688.10 16.15934
688.20 16.41421
688.30 16.77843
688.40 17.17937
688.50 17.47309
688.60 17.53019
688.70 17.32187
688.80 16.97974
688.90 16.81646
689.00 17.01048
689.10 17.56133
689.20 18.3886
689.30 19.24735
689.40 19.93352
689.50 20.37669
689.60 20.5949
689.70 20.6524
689.80 20.65768
689.90 20.80486
690.00 21.24415
690.10 21.96204
690.20 22.73184
690.30 23.17239
690.40 23.07545
690.50 22.47501
690.60 21.45984
690.70 20.28762
690.80 19.27298
690.90 18.54395
691.00 18.13553
691.10 18.05664
691.20 18.26905
691.30 18.6606
691.40 19.02336
691.50 19.21234
691.60 19.28449
691.70 19.47995
691.80 19.93584
691.90 20.54542
692.00 21.2184
692.10 21.83756
692.20 22.26615
692.30 22.4266
692.40 22.26192
692.50 21.7659
692.60 20.97121
692.70 19.99704
692.80 19.13388
692.90 18.72803
693.00 18.93752
693.10 19.54953
693.20 20.15459
693.30 20.51604
693.40 20.53003
693.50 20.12091
693.60 19.18421
693.70 17.77319
693.80 16.30207
693.90 15.24765
694.00 14.89661
694.10 15.33309
694.20 16.44654
694.30 17.94569
694.40 19.42702
694.50 20.50513
694.60 20.94073
694.70 20.6882
694.80 19.96206
694.90 19.17595
695.00 18.74642
695.10 18.88794
695.20 19.50935
695.30 20.40307
695.40 21.42017
695.50 22.42863
695.60 23.26625
695.70 23.7635
695.80 23.7935
695.90 23.42369
696.00 22.94322
696.10 22.63804
696.20 22.59352
696.30 22.70483
696.40 22.87527
696.50 23.02358
696.60 23.06143
696.70 22.94468
696.80 22.60805
696.90 22.01697
697.00 21.18249
697.10 20.12482
697.20 18.90213
697.30 17.63842
697.40 16.43355
697.50 15.38264
697.60 14.59953
697.70 14.17209
697.80 14.17861
697.90 14.6728
698.00 15.59388
698.10 16.73288
698.20 17.84227
698.30 18.68827
698.40 19.19192
698.50 19.41305
698.60 19.44803
698.70 19.38723
698.80 19.32841
698.90 19.2803
699.00 19.15472
699.10 18.90904
699.20 18.56604
699.30 18.20708
699.40 17.88546
699.50 17.67863
699.60 17.82313
699.70 18.54939
699.80 19.84015
699.90 21.52209
700.00 23.33973
700.10 24.953
700.20 26.02764
700.30 26.35859
700.40 25.92849
700.50 24.86547
700.60 23.3959
700.70 21.80987
700.80 20.4064
700.90 19.38155
701.00 18.71241
701.10 18.30912
701.20 18.15444
701.30 18.22902
701.40 18.50761
701.50 18.94726
701.60 19.48982
701.70 20.14296
701.80 20.91013
701.90 21.70975
702.00 22.39415
702.10 22.80458
702.20 22.88789
702.30 22.74321
702.40 22.50355
702.50 22.22104
702.60 21.94579
702.70 21.75208
702.80 21.71337
702.90 21.94498
703.00 22.51747
703.10 23.30922
703.20 24.10972
703.30 24.75655
703.40 25.15915
703.50 25.30231
703.60 25.18992
703.70 24.78335
703.80 24.09019
703.90 23.26141
704.00 22.46199
704.10 21.7727
704.20 21.27984
704.30 21.09206
704.40 21.27607
704.50 21.8153
704.60 22.57775
704.70 23.3484
704.80 23.91301
704.90 24.12744
705.00 23.96346
705.10 23.51011
705.20 22.95487
705.30 22.47561
705.40 22.15628
705.50 21.95365
705.60 21.6924
705.70 21.26894
705.80 20.72711
705.90 20.15607
706.00 19.68726
706.10 19.53499
706.20 19.87696
706.30 20.72221
706.40 21.911
706.50 23.30064
706.60 24.72618
706.70 25.91695
706.80 26.69769
706.90 27.12065
707.00 27.37094
707.10 27.48505
707.20 27.34536
707.30 26.92662
707.40 26.34784
707.50 25.73409
707.60 25.15805
707.70 24.68713
707.80 24.44008
707.90 24.44785
708.00 24.65401
708.10 25.0329
708.20 25.45297
708.30 25.75097
708.40 25.85567
708.50 25.73971
708.60 25.48607
708.70 25.22568
708.80 25.02228
708.90 24.91775
709.00 24.94796
709.10 25.14643
709.20 25.56341
709.30 26.18485
709.40 26.88345
709.50 27.48845
709.60 27.92842
709.70 28.18526
709.80 28.24461
709.90 28.17773
710.00 28.07409
710.10 27.99848
710.20 28.00638
710.30 28.19535
710.40 28.69699
710.50 29.56183
710.60 30.65422
710.70 31.72417
710.80 32.553
710.90 33.01257
711.00 33.04749
711.10 32.67497
711.20 31.95026
711.30 30.93627
711.40 29.76408
711.50 28.62729
711.60 27.75239
711.70 27.28684
711.80 27.30667
711.90 27.82322
712.00 28.73848
712.10 29.85014
712.20 30.87427
712.30 31.54826
712.40 31.7983
712.50 31.67685
712.60 31.19804
712.70 30.45773
712.80 29.63902
712.90 28.88475
713.00 28.27865
713.10 27.81489
713.20 27.4255
713.30 27.05039
713.40 26.66214
713.50 26.32671
713.60 26.17256
713.70 26.31851
713.80 26.69564
713.90 27.11002
714.00 27.4184
714.10 27.46862
714.20 27.17777
714.30 26.59509
714.40 25.83552
714.50 25.05872
714.60 24.37193
714.70 23.82453
714.80 23.48593
714.90 23.40531
715.00 23.57455
715.10 23.89463
715.20 24.42377
715.30 25.30745
715.40 26.51991
715.50 27.92155
715.60 29.23606
715.70 30.2051
715.80 30.68232
715.90 30.62641
716.00 30.13595
716.10 29.40324
716.20 28.6831
716.30 28.20318
716.40 28.10996
716.50 28.48929
716.60 29.15369
716.70 29.74582
716.80 30.10269
716.90 30.21355
717.00 30.12934
717.10 29.89925
717.20 29.66463
717.30 29.61928
717.40 29.85924
717.50 30.38748
717.60 31.10363
717.70 31.84087
717.80 32.44884
717.90 32.7533
718.00 32.48882
718.10 31.53084
718.20 30.02957
718.30 28.30159
718.40 26.72886
718.50 25.67158
718.60 25.25064
718.70 25.30248
718.80 25.64393
718.90 26.19537
719.00 26.98049
719.10 27.98562
719.20 29.05039
719.30 30.02543
719.40 30.88923
719.50 31.59994
719.60 31.99897
719.70 31.90792
719.80 31.21565
719.90 29.92157
720.00 28.2015
720.10 26.492
720.20 25.28982
720.30 24.95186
720.40 25.5228
720.50 26.75509
720.60 28.34849
720.70 29.99323
720.80 31.41592
720.90 32.40072
721.00 32.80213
721.10 32.6039
721.20 31.93891
721.30 31.04638
721.40 30.19207
721.50 29.59377
721.60 29.31889
721.70 29.22605
721.80 29.1571
721.90 29.11888
722.00 29.21369
722.10 29.51987
722.20 30.10527
722.30 30.96609
722.40 31.98399
722.50 33.05888
722.60 34.1289
722.70 35.11237
722.80 35.8673
722.90 36.21419
723.00 36.07983
723.10 35.56752
723.20 34.9033
723.30 34.28525
723.40 33.8177
723.50 33.48757
723.60 33.10306
723.70 32.45761
723.80 31.6385
723.90 30.8003
724.00 29.83014
724.10 28.49993
724.20 26.83051
724.30 25.15654
724.40 23.84241
724.50 23.16949
724.60 23.21868
724.70 23.88915
724.80 24.86391
724.90 25.82072
725.00 26.72074
725.10 27.70649
725.20 28.69839
725.30 29.43726
725.40 29.95781
725.50 30.64045
725.60 31.72351
725.70 32.96866
725.80 33.98241
725.90 34.40093
726.00 34.0555
726.10 33.11593
726.20 32.11155
726.30 31.58469
726.40 31.68358
726.50 32.2632
726.60 33.10696
726.70 34.01235
726.80 34.75954
726.90 35.05765
727.00 34.67721
727.10 33.60597
727.20 32.05419
727.30 30.29646
727.40 28.60232
727.50 27.32585
727.60 26.72114
727.70 26.84357
727.80 27.62827
727.90 28.88308
728.00 30.19551
728.10 31.02533
728.20 31.04834
728.30 30.2527
728.40 28.85499
728.50 27.21991
728.60 25.68166
728.70 24.64963
728.80 24.45512
728.90 24.9974
729.00 25.85639
729.10 26.57697
729.20 26.9022
729.30 26.73239
729.40 26.23409
729.50 25.8223
729.60 25.76972
729.70 26.10936
729.80 26.75032
729.90 27.65563
730.00 28.7898
730.10 29.94411
730.20 30.78155
730.30 31.03586
730.40 30.7041
730.50 29.9445
730.60 28.93258
730.70 27.89744
730.80 27.15842
730.90 26.98497
731.00 27.34538
731.10 27.86869
731.20 27.97795
731.30 27.20885
731.40 25.54474
731.50 23.40652
731.60 21.45483
731.70 20.29
731.80 20.19411
731.90 21.1804
732.00 23.11683
732.10 25.71746
732.20 28.43937
732.30 30.52821
732.40 31.38133
732.50 30.85781
732.60 29.36551
732.70 27.51029
732.80 25.74714
732.90 24.35744
733.00 23.49612
733.10 23.24309
733.20 23.60566
733.30 24.42736
733.40 25.43223
733.50 26.28592
733.60 26.59797
733.70 26.23943
733.80 25.52682
733.90 24.93174
734.00 24.75628
734.10 24.9805
734.20 25.47721
734.30 26.15583
734.40 26.84089
734.50 27.35682
734.60 27.63275
734.70 27.76162
734.80 27.82112
734.90 27.85082
735.00 28.02113
735.10 28.51465
735.20 29.35454
735.30 30.39011
735.40 31.32471
735.50 31.89778
735.60 31.86428
735.70 31.08707
735.80 29.75825
735.90 28.2013
736.00 26.69631
736.10 25.47862
736.20 24.79568
736.30 24.87597
736.40 25.73697
736.50 26.86681
736.60 27.2141
736.70 26.05274
736.80 23.7112
736.90 21.13298
737.00 19.20594
737.10 18.43838
737.20 18.92226
737.30 20.43508
737.40 22.5402
737.50 24.66965
737.60 26.22654
737.70 26.72557
737.80 25.94288
737.90 24.23476
738.00 22.46998
738.10 21.31815
738.20 20.8524
738.30 20.93625
738.40 21.57567
738.50 22.77001
738.60 24.4539
738.70 26.49782
738.80 28.65984
738.90 30.63916
739.00 32.155
739.10 32.98408
739.20 33.01278
739.30 32.12451
739.40 30.37363
739.50 28.17505
739.60 26.03016
739.70 24.21443
739.80 22.79901
739.90 21.87646
740.00 21.45522
740.10 21.43676
740.20 21.71898
740.30 22.17154
740.40 22.6339
740.50 22.95821
740.60 23.04744
740.70 23.06126
740.80 23.25924
740.90 23.65587
741.00 24.08174
741.10 24.43082
741.20 24.7295
741.30 24.98835
741.40 25.15142
741.50 25.16741
741.60 25.07745
741.70 25.02729
741.80 25.11259
741.90 25.29745
742.00 25.49228
742.10 25.56658
742.20 25.43416
742.30 25.10667
742.40 24.74979
742.50 24.58036
742.60 24.62265
742.70 24.8039
742.80 25.10166
742.90 25.49404
743.00 25.90048
743.10 26.15956
743.20 26.16387
743.30 25.96256
743.40 25.70981
743.50 25.58046
743.60 25.6437
743.70 25.91213
743.80 26.24196
743.90 26.375
744.00 26.10764
744.10 25.19745
744.20 23.56574
744.30 21.47347
744.40 19.28736
744.50 17.32313
744.60 15.82958
744.70 14.96486
744.80 14.78668
744.90 15.21958
745.00 16.13429
745.10 17.34832
745.20 18.664
745.30 19.90241
745.40 20.97453
745.50 21.98278
745.60 22.97242
745.70 23.73693
745.80 24.13894
745.90 24.25343
746.00 24.08635
746.10 23.5451
746.20 22.55869
746.30 21.1238
746.40 19.30194
746.50 17.22332
746.60 15.10586
746.70 13.14892
746.80 11.63967
746.90 11.13425
747.00 11.95681
747.10 14.01297
747.20 16.95208
747.30 20.16544
747.40 23.05081
747.50 25.07655
747.60 25.73495
747.70 24.83849
747.80 22.66429
747.90 19.76916
748.00 16.79408
748.10 14.49375
748.20 13.41948
748.30 13.48124
748.40 14.40954
748.50 15.88885
748.60 17.35249
748.70 18.27573
748.80 18.31761
748.90 17.45508
749.00 16.07121
749.10 14.6164
749.20 13.43519
749.30 12.80282
749.40 12.88851
749.50 13.65352
749.60 14.86644
749.70 16.15486
749.80 17.08402
749.90 17.3892
750.00 17.04425
750.10 16.23738
750.20 15.30565
750.30 14.51256
750.40 13.94408
750.50 13.68703
750.60 13.86445
750.70 14.52814
750.80 15.60377
750.90 16.92102
751.00 18.29043
751.10 19.53658
751.20 20.49429
751.30 20.99212
751.40 20.92625
751.50 20.25083
751.60 18.98921
751.70 17.31111
751.80 15.51531
751.90 13.79025
752.00 12.07414
752.10 10.24007
752.20 8.436067
752.30 7.011731
752.40 6.149848
752.50 5.908802
752.60 6.163412
752.70 6.772855
752.80 7.670499
752.90 8.629136
753.00 9.381854
753.10 9.789232
753.20 9.844497
753.30 9.68301
753.40 9.624495
753.50 10.0107
753.60 10.85222
753.70 11.85898
753.80 12.74272
753.90 13.28277
754.00 13.48055
754.10 13.46814
754.20 13.34196
754.30 13.25652
754.40 13.36097
754.50 13.75146
754.60 14.42986
754.70 15.30354
754.80 16.19385
754.90 16.88532
755.00 17.2083
755.10 17.07224
755.20 16.51105
755.30 15.55603
755.40 14.24049
755.50 12.70137
755.60 11.15324
755.70 9.874665
755.80 9.233026
755.90 9.420305
756.00 10.27981
756.10 11.48921
756.20 12.75973
756.30 13.88405
756.40 14.71133
756.50 15.19819
756.60 15.33783
756.70 15.11283
756.80 14.42277
756.90 13.25369
757.00 11.77019
757.10 10.34119
757.20 9.283756
757.30 8.698842
757.40 8.680451
757.50 9.195327
757.60 10.05216
757.70 10.95523
757.80 11.58332
757.90 11.6459
758.00 10.90198
758.10 9.358224
758.20 7.391731
758.30 5.47659
758.40 4.005696
758.50 3.178874
758.60 3.060314
758.70 3.629074
758.80 4.758844
758.90 6.382454
759.00 8.33113
759.10 10.27697
759.20 11.87994
759.30 12.70259
759.40 12.39836
759.50 10.99059
759.60 8.863347
759.70 6.516736
759.80 4.277419
759.90 2.448816
760.00 1.271902
760.10 0.7416932
760.20 0.781035
760.30 1.380728
760.40 2.489106
760.50 3.869951
760.60 5.204409
760.70 6.377244
760.80 7.488696
760.90 8.486727
761.00 9.034678
761.10 8.853263
761.20 8.078835
761.30 6.9064
761.40 5.482738
761.50 4.229992
761.60 3.562752
761.70 3.566983
761.80 4.079212
761.90 4.837498
762.00 5.497942
762.10 5.762181
762.20 5.415395
762.30 4.44842
762.40 3.072177
762.50 1.270523
762.60 0
762.70 0
762.80 0
762.90 0
763.00 0
763.10 0
763.20 0
763.30 0
763.40 1.070037
763.50 2.939188
763.60 4.038749
763.70 4.230789
763.80 3.597529
763.90 2.697364
764.00 2.225329
764.10 2.429967
764.20 3.076992
764.30 3.795164
764.40 4.275748
764.50 4.291143
764.60 3.792535
764.70 2.937794
764.80 2.045273
764.90 1.374683
765.00 1.012516
765.10 0.999379
765.20 1.316448
765.30 1.75167
765.40 1.937159
765.50 1.588959
765.60 0.6190997
765.70 0
765.80 0
765.90 0
766.00 0
766.10 0
766.20 0
766.30 0
766.40 0
766.50 0
766.60 0.04988734
766.70 1.505385
766.80 2.550148
766.90 3.051213
767.00 3.015053
767.10 2.519001
767.20 1.624688
767.30 0.4662654
767.40 0
767.50 0
767.60 0
767.70 0
767.80 0
767.90 0
768.00 0
768.10 0
768.20 0
768.30 0.7550756
768.40 2.300833
768.50 3.255421
768.60 3.501101
768.70 3.152188
768.80 2.456619
768.90 1.739272
769.00 1.235875
769.10 1.023849
769.20 1.173143
769.30 1.67019
769.40 2.270001
769.50 2.642626
769.60 2.674395
769.70 2.449532
769.80 2.110381
769.90 1.844515
770.00 1.779003
770.10 1.952726
770.20 2.327379
770.30 2.777432
770.40 3.166495
770.50 3.441875
770.60 3.420005
770.70 2.82106
770.80 1.548415
770.90 0
771.00 0
771.10 0
771.20 0
771.30 0
771.40 0
771.50 0
771.60 0
771.70 0
771.80 0
771.90 0
772.00 0
772.10 0
772.20 0
772.30 0
772.40 0
772.50 0
772.60 0
772.70 0
772.80 0
772.90 0
773.00 0
773.10 1.549002
773.20 3.418129
773.30 4.997398
773.40 6.166125
773.50 7.139912
773.60 8.169856
773.70 9.202589
773.80 10.06108
773.90 10.59449
774.00 10.64091
774.10 10.0747
774.20 8.930218
774.30 7.486626
774.40 6.172555
774.50 5.054582
774.60 3.461227
774.70 0.5174288
774.80 0
774.90 0
775.00 0
775.10 0
775.20 0
775.30 0
775.40 0
775.50 0
775.60 0
775.70 1.54488
775.80 5.09801
775.90 6.246393
776.00 5.606567
776.10 4.430002
776.20 3.697885
776.30 3.691962
776.40 4.206295
776.50 5.014136
776.60 5.950719
776.70 6.917509
776.80 7.875114
776.90 8.751094
777.00 9.341577
777.10 9.44164
777.20 9.082675
777.30 8.462487
777.40 7.834887
777.50 7.415928
777.60 7.383581
777.70 7.837308
777.80 8.645427
777.90 9.586375
778.00 10.47086
778.10 11.06892
778.20 11.21131
778.30 10.91972
778.40 10.47361
778.50 10.16752
778.60 10.02254
778.70 10.00802
778.80 10.14223
778.90 10.29519
779.00 9.885963
779.10 8.210155
779.20 5.265068
779.30 1.6062
779.40 0
779.50 0
779.60 0
779.70 0
779.80 0
779.90 0
780.00 1.080719
780.10 5.103617
780.20 8.494637
780.30 10.58774
780.40 11.24818
780.50 10.71359
780.60 9.29123
780.70 7.448262
780.80 5.821572
780.90 5.087277
781.00 5.590858
781.10 7.341833
781.20 10.17966
781.30 13.76727
781.40 17.70748
781.50 21.22935
781.60 23.20592
781.70 22.71445
781.80 19.51338
781.90 14.28427
782.00 8.289316
782.10 2.980574
782.20 0
782.30 0
782.40 0.7773297
782.50 4.822728
782.60 10.13039
782.70 15.43485
782.80 19.42357
782.90 21.30808
783.00 21.22355
783.10 19.89663
783.20 18.19787
783.30 16.87524
783.40 16.30005
783.50 16.38681
783.60 16.8688
783.70 17.42057
783.80 17.6381
783.90 17.37927
784.00 16.79312
784.10 16.20471
784.20 15.90055
784.30 15.94656
784.40 16.29876
784.50 17.00757
784.60 18.29682
784.70 20.19623
784.80 22.33822
784.90 24.04054
785.00 24.42396
785.10 23.2872
785.20 21.40189
785.30 19.57056
785.40 18.27441
785.50 17.79074
785.60 18.21412
785.70 19.35661
785.80 20.79394
785.90 22.12732
786.00 22.93294
786.10 22.90422
786.20 22.12356
786.30 21.07188
786.40 20.53955
786.50 20.95187
786.60 21.78686
786.70 22.29859
786.80 22.24475
786.90 21.77543
787.00 21.27406
787.10 21.24717
787.20 21.96202
787.30 23.30976
787.40 25.03951
787.50 26.84053
787.60 28.38374
787.70 29.50269
787.80 30.18535
787.90 30.43698
788.00 30.55344
788.10 31.02909
788.20 32.12955
788.30 33.74537
788.40 35.44114
788.50 36.78153
788.60 37.51415
788.70 37.47391
788.80 36.64718
788.90 35.27147
789.00 33.68981
789.10 32.13055
789.20 30.70138
789.30 29.59966
789.40 29.05862
789.50 29.12276
789.60 29.62341
789.70 30.26026
789.80 30.77202
789.90 31.0779
790.00 31.19712
790.10 31.15445
790.20 30.97929
790.30 30.70721
790.40 30.41136
790.50 30.24424
790.60 30.48918
790.70 31.16949
790.80 31.62231
790.90 30.77215
791.00 27.63167
791.10 22.26801
791.20 15.9271
791.30 10.04135
791.40 5.905632
791.50 4.441721
791.60 5.907479
791.70 9.893679
791.80 15.49724
791.90 21.51212
792.00 26.60738
792.10 29.82195
792.20 31.12969
792.30 31.35491
792.40 31.70421
792.50 32.78581
792.60 34.295
792.70 35.74506
792.80 36.6306
792.90 36.58118
793.00 35.59807
793.10 33.96095
793.20 32.14415
793.30 30.66126
793.40 29.86062
793.50 29.95148
793.60 30.93694
793.70 32.6155
793.80 34.60663
793.90 36.39891
794.00 37.52855
794.10 37.74394
794.20 37.01214
794.30 35.32883
794.40 32.71262
794.50 29.39938
794.60 25.78912
794.70 22.36547
794.80 19.6775
794.90 18.18893
795.00 18.14527
795.10 19.45224
795.20 21.78735
795.30 24.77528
795.40 28.0431
795.50 31.19421
795.60 33.92711
795.70 36.05078
795.80 37.42756
795.90 38.08917
796.00 38.11227
796.10 37.42016
796.20 36.18826
796.30 34.88027
796.40 33.95041
796.50 33.9277
796.60 35.1264
796.70 37.48396
796.80 40.7103
796.90 44.32664
797.00 47.76195
797.10 50.57362
797.20 52.52665
797.30 53.47677
797.40 53.43277
797.50 52.74255
797.60 51.71337
797.70 50.5087
797.80 49.39592
797.90 48.5053
798.00 47.97222
798.10 47.98637
798.20 48.54498
798.30 49.53448
798.40 50.78298
798.50 52.0896
798.60 53.09292
798.70 53.45834
798.80 53.097
798.90 52.09642
799.00 50.51593
799.10 48.43376
799.20 46.14287
799.30 44.1459
799.40 42.80737
799.50 42.19038
799.60 42.3126
799.70 43.05608
799.80 44.15476
799.90 45.36838
800.00 46.63566
800.10 47.89194
800.20 49.01156
800.30 49.79922
800.40 50.2009
800.50 50.4244
800.60 50.7133
800.70 51.12334
800.80 51.67972
800.90 52.5033
801.00 53.50618
801.10 54.41978
801.20 54.99848
801.30 55.16491
801.40 54.98082
801.50 54.55824
801.60 54.04079
801.70 53.69546
801.80 53.78665
801.90 54.33016
802.00 55.10613
802.10 55.87539
802.20 56.07455
802.30 54.9954
802.40 52.5192
802.50 49.23601
802.60 46.12392
802.70 43.94493
802.80 43.05776
802.90 43.4372
803.00 44.84807
803.10 47.09144
803.20 49.96773
803.30 53.13032
803.40 56.06178
803.50 58.21826
803.60 59.53733
803.70 60.38247
803.80 61.01509
803.90 61.44329
804.00 61.43288
804.10 60.87852
804.20 60.05822
804.30 59.51352
804.40 59.6524
804.50 60.57083
804.60 62.17989
804.70 64.27519
804.80 66.55864
804.90 68.75942
805.00 70.70537
805.10 72.2189
805.20 73.11099
805.30 73.2793
805.40 72.78759
805.50 71.77183
805.60 70.38332
805.70 68.75435
805.80 66.95162
805.90 65.00581
806.00 62.95781
806.10 61.06547
806.20 59.77903
806.30 59.44993
806.40 60.17138
806.50 61.81604
806.60 64.06435
806.70 66.4347
806.80 68.41954
806.90 69.61585
807.00 69.75725
807.10 68.9637
807.20 67.83073
807.30 67.09682
807.40 67.36391
807.50 68.7929
807.60 71.02153
807.70 73.37996
807.80 75.13651
807.90 75.66867
808.00 74.69223
808.10 72.43973
808.20 69.5526
808.30 66.81499
808.40 64.96107
808.50 64.45089
808.60 65.29294
808.70 67.15034
808.80 69.4984
808.90 71.73633
809.00 73.43717
809.10 74.36601
809.20 74.3798
809.30 73.55441
809.40 72.21183
809.50 70.63634
809.60 69.01571
809.70 67.60452
809.80 66.53652
809.90 65.81271
810.00 65.4546
810.10 65.39218
810.20 65.40959
810.30 65.36778
810.40 65.25978
810.50 65.22707
810.60 65.59672
810.70 66.52818
810.80 67.85545
810.90 69.42201
811.00 71.15418
811.10 72.95513
811.20 74.76266
811.30 76.60202
811.40 78.49159
811.50 80.36497
811.60 82.19397
811.70 83.93665
811.80 85.40284
811.90 86.31947
812.00 86.44011
812.10 85.80193
812.20 84.78205
812.30 83.78474
812.40 83.13835
812.50 83.09037
812.60 83.61548
812.70 84.4237
812.80 85.29783
812.90 86.05729
813.00 86.39533
813.10 86.07537
813.20 85.02786
813.30 83.53116
813.40 82.18367
813.50 81.42896
813.60 81.4241
813.70 82.1032
813.80 83.14746
813.90 84.03707
814.00 84.4012
814.10 84.0768
814.20 83.0084
814.30 81.61788
814.40 80.53126
814.50 80.15601
814.60 80.81173
814.70 82.50044
814.80 84.88281
814.90 87.62779
815.00 90.34356
815.10 92.61544
815.20 94.22825
815.30 95.18081
815.40 95.56134
815.50 95.53807
815.60 95.32716
815.70 94.9161
815.80 94.28553
815.90 93.61983
816.00 93.11769
816.10 92.9062
816.20 92.99453
816.30 93.31185
816.40 93.78902
816.50 94.42316
816.60 95.26299
816.70 96.30616
816.80 97.49145
816.90 98.7081
817.00 99.76331
817.10 100.4841
817.20 100.7719
817.30 100.5607
817.40 99.88015
817.50 98.88208
817.60 97.73007
817.70 96.5216
817.80 95.31659
817.90 94.15627
818.00 93.05449
818.10 92.03275
818.20 91.14962
818.30 90.4184
818.40 89.63493
818.50 88.46785
818.60 86.67447
818.70 84.25546
818.80 81.54974
818.90 78.93034
819.00 76.49303
819.10 74.35704
819.20 72.79158
819.30 72.06208
819.40 72.41067
819.50 73.78874
819.60 75.81075
819.70 78.07991
819.80 80.52968
819.90 83.27628
820.00 86.25633
820.10 89.28658
820.20 92.06276
820.30 94.42878
820.40 96.65067
820.50 98.90528
820.60 101.067
820.70 102.9053
820.80 104.1913
820.90 105.0208
821.00 105.663
821.10 106.1824
821.20 106.4812
821.30 106.5267
821.40 106.4583
821.50 106.3488
821.60 106.131
821.70 105.6108
821.80 104.6366
821.90 103.3505
822.00 102.0243
822.10 100.919
822.20 100.2763
822.30 100.238
822.40 100.939
822.50 102.5227
822.60 104.9161
822.70 107.8103
822.80 110.9099
822.90 113.861
823.00 116.1599
823.10 117.4594
823.20 117.6283
823.30 116.7072
823.40 115.0226
823.50 113.0708
823.60 111.296
823.70 110.0799
823.80 109.6371
823.90 109.8904
824.00 110.5761
824.10 111.1995
824.20 111.1467
824.30 110.1992
824.40 108.612
824.50 106.8726
824.60 105.573
824.70 105.2429
824.80 106.1495
824.90 108.1653
825.00 110.784
825.10 113.2702
825.20 114.9196
825.30 115.3004
825.40 114.2831
825.50 112.2451
825.60 109.9868
825.70 108.2564
825.80 107.6795
825.90 108.6256
826.00 110.841
826.10 113.7352
826.20 116.8018
826.30 119.6649
826.40 122.0822
826.50 123.7917
826.60 124.4618
826.70 123.968
826.80 122.5472
826.90 120.5906
827.00 118.5494
827.10 116.8519
827.20 115.7087
827.30 115.1457
827.40 115.1873
827.50 115.6268
827.60 115.7286
827.70 114.4558
827.80 111.151
827.90 106.0973
828.00 100.3028
828.10 95.0365
828.20 91.40566
828.30 89.8899
828.40 89.91613
828.50 90.23501
828.60 90.01697
828.70 89.04063
828.80 87.53862
828.90 86.14668
829.00 85.63019
829.10 86.84996
829.20 90.23027
829.30 95.16138
829.40 100.2503
829.50 103.7719
829.60 104.4421
829.70 102.0075
829.80 97.75476
829.90 93.9782
830.00 92.25584
830.10 93.14796
830.20 96.6163
830.30 102.0379
830.40 108.4343
830.50 114.4806
830.60 118.6931
830.70 120.1627
830.80 119.0585
830.90 116.5096
831.00 113.9129
831.10 112.325
831.20 112.0309
831.30 112.7089
831.40 113.9899
831.50 115.6126
831.60 117.3078
831.70 118.7396
831.80 119.7265
831.90 120.4394
832.00 121.328
832.10 122.8134
832.20 124.977
832.30 127.5105
832.40 129.8891
832.50 131.8049
832.60 133.2738
832.70 134.4316
832.80 135.4972
832.90 136.6221
833.00 137.7468
833.10 138.7213
833.20 139.4188
833.30 139.825
833.40 140.0526
833.50 140.2241
833.60 140.315
833.70 140.2614
833.80 140.0698
833.90 139.4587
834.00 137.4299
834.10 132.7652
834.20 125.3114
834.30 116.3773
834.40 108.0182
834.50 102.2178
834.60 100.296
834.70 102.505
834.80 108.0266
834.90 115.3732
835.00 123.0087
835.10 129.3587
835.20 132.9866
835.30 133.469
835.40 131.9729
835.50 130.5683
835.60 130.695
835.70 132.4681
835.80 135.0665
835.90 137.5459
836.00 139.3455
836.10 140.2578
836.20 140.3688
836.30 139.9795
836.40 139.3949
836.50 139.116
836.60 139.6863
836.70 141.2012
836.80 143.3044
836.90 145.4897
837.00 147.2748
837.10 148.3688
837.20 148.8117
837.30 148.6885
837.40 147.9542
837.50 146.7229
837.60 145.2683
837.70 143.6102
837.80 141.5985
837.90 139.1818
838.00 136.4919
838.10 133.8725
838.20 131.74
838.30 130.487
838.40 130.3377
838.50 131.2472
838.60 133.0061
838.70 135.3474
838.80 137.9825
838.90 140.6409
839.00 143.0048
839.10 144.8747
839.20 146.3856
839.30 147.7538
839.40 148.5717
839.50 147.8074
839.60 144.4592
839.70 138.0635
839.80 129.3977
839.90 120.278
840.00 112.5814
840.10 107.6987
840.20 106.2735
840.30 108.1508
840.40 112.6808
840.50 118.9745
840.60 125.8277
840.70 131.8875
840.80 136.4263
840.90 139.6619
841.00 142.4514
841.10 145.624
841.20 148.9748
841.30 151.6528
841.40 153.2692
841.50 153.9631
841.60 154.0896
841.70 154.0493
841.80 154.2148
841.90 154.692
842.00 155.2617
842.10 155.7785
842.20 156.3311
842.30 156.8898
842.40 157.0678
842.50 156.2474
842.60 154.3789
842.70 152.0914
842.80 149.8214
842.90 147.8442
843.00 146.5075
843.10 145.9489
843.20 146.0492
843.30 146.7068
843.40 147.9051
843.50 149.3241
843.60 150.3377
843.70 150.5046
843.80 149.7885
843.90 148.739
844.00 147.9782
844.10 147.6534
844.20 147.7284
844.30 147.9615
844.40 148.0188
844.50 147.8325
844.60 147.5999
844.70 147.6523
844.80 147.92
844.90 147.7539
845.00 146.7425
845.10 145.0217
845.20 142.9298
845.30 140.8833
845.40 139.3348
845.50 138.6199
845.60 138.8242
845.70 139.9811
845.80 142.0053
845.90 144.5326
846.00 147.0597
846.10 148.9788
846.20 149.4706
846.30 148.1271
846.40 145.3322
846.50 141.7989
846.60 138.3525
846.70 135.706
846.80 134.3617
846.90 134.571
847.00 136.2152
847.10 138.8636
847.20 141.9897
847.30 145.0635
847.40 147.416
847.50 148.4139
847.60 148.234
847.70 147.7097
847.80 147.3693
847.90 147.305
848.00 147.4527
848.10 147.7542
848.20 148.1912
848.30 148.787
848.40 149.6475
848.50 150.8184
848.60 152.1822
848.70 153.402
848.80 154.0433
848.90 153.8121
849.00 152.6362
849.10 150.5358
849.20 147.6158
849.30 144.3489
849.40 141.5068
849.50 139.6594
849.60 138.9166
849.70 139.2141
849.80 140.472
849.90 142.461
850.00 144.8045
850.10 147.1331
850.20 149.0989
850.30 150.4139
850.40 151.0984
850.50 151.2908
850.60 150.9012
850.70 149.6285
850.80 147.1743
850.90 143.7538
851.00 140.1026
851.10 136.8544
851.20 134.317
851.30 132.6577
851.40 131.7227
851.50 130.8533
851.60 129.2394
851.70 126.1546
851.80 121.0403
851.90 114.0221
852.00 106.0483
852.10 98.43639
852.20 92.59784
852.30 89.67778
852.40 90.19893
852.50 93.99891
852.60 100.3657
852.70 108.1338
852.80 116.1198
852.90 123.7136
853.00 130.8108
853.10 137.5126
853.20 143.8492
853.30 149.7076
853.40 155.0235
853.50 159.8383
853.60 164.0247
853.70 167.2505
853.80 169.245
853.90 170.0079
854.00 169.9391
854.10 169.6924
854.20 169.8032
854.30 170.3951
854.40 171.2681
854.50 171.9191
854.60 171.7868
854.70 170.5643
854.80 168.2673
854.90 165.2098
855.00 162.1356
855.10 159.9816
855.20 159.3581
855.30 160.4865
855.40 163.1823
855.50 166.8922
855.60 170.7862
855.70 173.9889
855.80 175.882
855.90 176.4797
856.00 176.3354
856.10 175.9802
856.20 175.8157
856.30 176.1709
856.40 176.9741
856.50 177.7921
856.60 178.3964
856.70 178.9077
856.80 179.5373
856.90 180.3692
857.00 181.3656
857.10 182.3562
857.20 183.0491
857.30 183.193
857.40 182.6133
857.50 181.3588
857.60 179.6564
857.70 177.6811
857.80 175.7032
857.90 174.1703
858.00 173.5195
858.10 173.9322
858.20 175.2044
858.30 176.9721
858.40 178.972
858.50 181.0949
858.60 183.1351
858.70 184.6784
858.80 185.4819
858.90 185.5498
859.00 184.8491
859.10 183.4512
859.20 181.6741
859.30 179.8438
859.40 178.0829
859.50 176.4745
859.60 175.3222
859.70 174.9446
859.80 175.4794
859.90 176.8887
860.00 179.0717
860.10 181.9873
860.20 185.4258
860.30 188.843
860.40 191.5787
860.50 192.9835
860.60 192.4923
860.70 189.8858
860.80 185.4221
860.90 179.5905
861.00 172.8605
861.10 165.6672
861.20 158.3711
861.30 151.1255
861.40 143.9061
861.50 136.7071
861.60 129.5927
861.70 122.6503
861.80 116.1257
861.90 110.3878
862.00 105.7722
862.10 102.5561
862.20 100.9048
862.30 100.7543
862.40 101.7699
862.50 103.3857
862.60 104.9093
862.70 105.7607
862.80 105.4718
862.90 103.7834
863.00 100.8529
863.10 97.39983
863.20 94.46241
863.30 92.94802
863.40 93.42677
863.50 95.98293
863.60 100.1644
863.70 105.1276
863.80 109.8832
863.90 113.3789
864.00 114.7482
864.10 113.8821
864.20 111.5893
864.30 108.9592
864.40 106.8645
864.50 105.7232
864.60 105.3956
864.70 105.3619
864.80 104.9662
864.90 103.8678
865.00 102.3159
865.10 100.709
865.20 99.30338
865.30 98.66194
865.40 99.62175
865.50 102.576
865.60 107.3159
865.70 112.9714
865.80 118.3081
865.90 122.3928
866.00 124.9288
866.10 126.3645
866.20 127.4853
866.30 128.7227
866.40 129.9797
866.50 131.244
866.60 132.6684
866.70 133.9823
866.80 134.5754
866.90 134.2146
867.00 133.2674
867.10 132.4221
867.20 132.2885
867.30 133.1835
867.40 135.0172
867.50 137.3169
867.60 139.4221
867.70 140.5263
867.80 139.9532
867.90 137.5116
868.00 133.5937
868.10 129.0788
868.20 125.1515
868.30 122.8105
868.40 122.4488
868.50 124.0317
868.60 127.2567
868.70 131.5315
868.80 135.9693
868.90 139.4064
869.00 140.7293
869.10 139.5332
869.20 136.2134
869.30 131.4032
869.40 125.8395
869.50 120.5759
869.60 116.6856
869.70 114.7647
869.80 114.8543
869.90 116.6304
870.00 119.5431
870.10 122.6763
870.20 124.9251
870.30 125.5591
870.40 124.5986
870.50 122.6569
870.60 120.4885
870.70 118.6784
870.80 117.6021
870.90 117.35
871.00 117.7179
871.10 118.3882
871.20 118.9761
871.30 119.2172
871.40 119.0328
871.50 118.522
871.60 117.9624
871.70 117.6878
871.80 117.8378
871.90 118.2358
872.00 118.5529
872.10 118.6575
872.20 118.6574
872.30 118.8261
872.40 119.4935
872.50 120.7607
872.60 122.4133
872.70 124.0674
872.80 125.3531
872.90 125.9999
873.00 125.9124
873.10 125.1226
873.20 123.8371
873.30 122.4142
873.40 121.2558
873.50 120.706
873.60 120.9296
873.70 121.8774
873.80 123.3912
873.90 125.3375
874.00 127.6739
874.10 130.253
874.20 132.8072
874.30 135.0139
874.40 136.5546
874.50 137.2943
874.60 137.2962
874.70 136.6396
874.80 135.4369
874.90 133.9512
875.00 132.3573
875.10 130.8687
875.20 129.7915
875.30 129.3452
875.40 129.7318
875.50 130.7977
875.60 131.6676
875.70 131.4495
875.80 129.9134
875.90 127.0944
876.00 123.3805
876.10 119.8694
876.20 117.7415
876.30 117.4586
876.40 118.0814
876.50 118.1016
876.60 116.9424
876.70 114.9511
876.80 113.1476
876.90 112.8661
877.00 115.4952
877.10 121.881
877.20 131.6885
877.30 143.7758
877.40 156.1078
877.50 165.9568
877.60 170.7853
877.70 169.5392
877.80 163.7951
877.90 156.3972
878.00 149.4501
878.10 144.0418
878.20 140.2881
878.30 137.9731
878.40 136.9144
878.50 136.7955
878.60 137.2678
878.70 137.9894
878.80 138.2799
878.90 137.3703
879.00 135.6286
879.10 134.0188
879.20 133.4859
879.30 134.7251
879.40 137.8121
879.50 142.3641
879.60 147.5029
879.70 152.049
879.80 154.968
879.90 155.6529
880.00 153.9284
880.10 150.0655
880.20 145.3204
880.30 141.5233
880.40 139.5278
880.50 139.1788
880.60 139.8812
880.70 140.9944
880.80 142.171
880.90 143.3179
881.00 144.748
881.10 147.0381
881.20 150.5841
881.30 155.3885
881.40 161.1284
881.50 167.2687
881.60 173.1058
881.70 177.7786
881.80 180.5305
881.90 180.9074
882.00 178.9532
882.10 175.3749
882.20 170.6443
882.30 164.1295
882.40 154.6241
882.50 142.1363
882.60 127.8942
882.70 113.3647
882.80 100.5321
882.90 91.41921
883.00 87.34114
883.10 88.8879
883.20 95.49151
883.30 105.4379
883.40 116.5713
883.50 126.5
883.60 133.783
883.70 138.9479
883.80 143.6667
883.90 148.6728
884.00 153.7649
884.10 158.8698
884.20 163.5328
884.30 167.0204
884.40 168.7051
884.50 167.9171
884.60 164.6491
884.70 160.2182
884.80 156.1635
884.90 153.4342
885.00 152.4949
885.10 153.4408
885.20 156.0087
885.30 159.7072
885.40 163.9032
885.50 167.7753
885.60 170.6197
885.70 172.078
885.80 172.2592
885.90 171.8935
886.00 171.8103
886.10 172.2448
886.20 173.0461
886.30 174.0221
886.40 174.8942
886.50 175.1532
886.60 174.372
886.70 172.4128
886.80 169.4237
886.90 165.7979
887.00 161.8031
887.10 157.9184
887.20 155.0381
887.30 153.9908
887.40 155.4641
887.50 159.9171
887.60 167.2233
887.70 176.5606
887.80 186.7338
887.90 196.3955
888.00 204.398
888.10 209.8419
888.20 211.787
888.30 210.17
888.40 206.4108
888.50 202.4091
888.60 199.5956
888.70 198.8458
888.80 200.2756
888.90 203.1238
889.00 206.3181
889.10 208.7784
889.20 209.1781
889.30 206.6964
889.40 201.3599
889.50 194.0851
889.60 186.8608
889.70 181.7121
889.80 179.5594
889.90 180.1582
890.00 182.5706
890.10 185.515
890.20 188.0663
890.30 189.7106
890.40 189.903
890.50 188.3574
890.60 185.5344
890.70 182.3303
890.80 179.6864
890.90 178.3563
891.00 178.6154
891.10 180.2437
891.20 182.8252
891.30 185.9746
891.40 189.5072
891.50 193.3527
891.60 196.753
891.70 197.4477
891.80 193.9324
891.90 187.249
892.00 179.2687
892.10 171.5404
892.20 165.1975
892.30 161.0371
892.40 159.4812
892.50 160.4997
892.60 163.6129
892.70 168.0641
892.80 172.8264
892.90 176.7931
893.00 179.5173
893.10 182.264
893.20 186.0784
893.30 190.0261
893.40 192.7653
893.50 193.6206
893.60 192.2921
893.70 188.4636
893.80 181.9597
893.90 172.7874
894.00 161.3205
894.10 148.4749
894.20 135.6701
894.30 124.4713
894.40 116.2574
894.50 112.0909
894.60 112.5269
894.70 117.5123
894.80 126.2695
894.90 137.3453
895.00 148.9585
895.10 159.6193
895.20 168.8074
895.30 176.6846
895.40 182.8828
895.50 186.9275
895.60 189.078
895.70 189.9105
895.80 190.0848
895.90 190.0595
896.00 190.0084
896.10 189.9604
896.20 189.877
896.30 189.7199
896.40 189.506
896.50 189.1517
896.60 188.3127
896.70 186.8005
896.80 185.3406
896.90 184.8745
897.00 185.6925
897.10 187.6683
897.20 190.3542
897.30 193.2547
897.40 196.033
897.50 198.4037
897.60 200.2642
897.70 201.6911
897.80 202.6174
897.90 203.0418
898.00 203.1713
898.10 203.4004
898.20 204.4611
898.30 207.0165
898.40 211.0086
898.50 215.6032
898.60 219.7351
898.70 222.2886
898.80 222.5665
898.90 220.7136
899.00 217.2725
899.10 212.8968
899.20 208.5133
899.30 204.8976
899.40 202.4356
899.50 201.4841
899.60 202.1041
899.70 203.6751
899.80 205.4586
899.90 207.7128
900.00 208.3975
900.10 209.0821
900.20 209.7668
900.30 210.4515
900.40 211.1362
900.50 211.8209
900.60 212.5056
900.70 213.1902
900.80 213.8749
900.90 214.9236
901.00 216.1599
901.10 217.3961
901.20 218.6324
901.30 219.8686
901.40 221.1049
901.50 222.3411
901.60 223.5774
901.70 224.8136
901.80 226.0498
901.90 227.2861
902.00 228.5223
902.10 229.7586
902.20 230.9948
902.30 232.2311
902.40 233.4673
902.50 234.7036
902.60 235.9398
902.70 237.176
902.80 238.4123
902.90 239.6485
903.00 240.8848
903.10 242.121
903.20 243.3573
903.30 244.5217
903.40 245.5785
903.50 246.6353
903.60 247.6921
903.70 248.7489
903.80 249.8057
903.90 250.8625
904.00 251.9193
904.10 252.9761
904.20 254.0329
904.30 255.0355
904.40 255.9816
904.50 256.9278
904.60 257.8739
904.70 258.8201
904.80 259.7662
904.90 260.7124
905.00 261.6585
905.10 262.6047
905.20 263.5508
905.30 264.497
905.40 265.4431
905.50 266.3893
905.60 267.3355
905.70 268.2816
905.80 269.2278
905.90 270.1739
906.00 271.1201
906.10 272.0662
906.20 273.0124
906.30 273.9585
906.40 274.9047
906.50 275.8508
906.60 276.797
906.70 277.6694
906.80 277.8788
906.90 278.0881
907.00 278.2975
907.10 278.5068
907.20 278.7162
907.30 278.9255
907.40 279.1349
907.50 279.3442
907.60 279.5536
907.70 279.6875
907.80 279.3583
907.90 279.029
908.00 278.6998
908.10 278.3705
908.20 278.0413
908.30 277.712
908.40 277.3828
908.50 277.0535
908.60 276.7243
908.70 276.395
908.80 276.0658
908.90 275.7365
909.00 275.4072
909.10 275.078
909.20 274.7487
909.30 274.4195
909.40 274.0902
909.50 273.761
909.60 273.4317
909.70 273.1025
909.80 272.7732
909.90 272.444
910.00 272.1147
910.10 271.7855
910.20 271.8322
910.30 272.1094
910.40 272.3867
910.50 272.6639
910.60 272.9411
910.70 273.2183
910.80 273.4955
910.90 273.7727
911.00 274.0499
911.10 274.3271
911.20 274.6601
911.30 275.0287
911.40 275.3974
911.50 275.766
911.60 276.1347
911.70 276.5033
911.80 276.872
911.90 277.2406
912.00 277.6092
912.10 277.9779
912.20 278.3465
912.30 278.7152
912.40 279.0838
912.50 279.4525
912.60 279.8211
912.70 280.1897
912.80 280.5584
912.90 280.927
913.00 281.2957
913.10 281.6643
913.20 282.0329
913.30 282.4016
913.40 282.7702
913.50 283.1389
913.60 283.5075
913.70 283.8255
913.80 284.1413
913.90 284.4571
914.00 284.773
914.10 285.0888
914.20 285.4047
914.30 285.7205
914.40 286.0363
914.50 286.3522
914.60 286.668
914.70 287.438
914.80 288.2642
914.90 289.0904
915.00 289.9165
915.10 290.7427
915.20 291.5688
915.30 292.395
915.40 293.2212
915.50 294.0473
915.60 294.8735
915.70 295.6996
915.80 296.5258
915.90 297.352
916.00 298.1781
916.10 299.0043
916.20 299.8304
916.30 300.6566
916.40 301.4827
916.50 302.3089
916.60 303.1351
916.70 303.9612
916.80 304.7874
916.90 305.6135
917.00 306.4397
917.10 307.2225
917.20 307.687
917.30 308.1515
917.40 308.616
917.50 309.0806
917.60 309.5451
917.70 310.0096
917.80 310.4741
917.90 310.9386
918.00 311.4032
918.10 311.8642
918.20 311.9758
918.30 312.0874
918.40 312.199
918.50 312.3107
918.60 312.4223
918.70 312.5339
918.80 312.6456
918.90 312.7572
919.00 312.8688
919.10 312.9804
919.20 313.0921
919.30 313.2037
919.40 313.3153
919.50 313.427
919.60 313.5386
919.70 313.6502
919.80 313.7619
919.90 313.8735
920.00 313.9851
920.10 314.0967
920.20 314.2084
920.30 314.32
920.40 314.4316
920.50 314.5433
920.60 314.6676
920.70 314.8947
920.80 315.1218
920.90 315.349
921.00 315.5761
921.10 315.8032
921.20 316.0304
921.30 316.2575
921.40 316.4846
921.50 316.7117
921.60 316.9389
921.70 317.088
921.80 317.2321
921.90 317.3762
922.00 317.5202
922.10 317.6643
922.20 317.8084
922.30 317.9525
922.40 318.0966
922.50 318.2407
922.60 318.3848
922.70 318.5289
922.80 318.673
922.90 318.8171
923.00 318.9612
923.10 319.1053
923.20 319.2494
923.30 319.3935
923.40 319.5376
923.50 319.6817
923.60 319.8258
923.70 319.9699
923.80 320.114
923.90 320.2581
924.00 320.4022
924.10 320.5463
924.20 320.5729
924.30 320.5893
924.40 320.6056
924.50 320.622
924.60 320.6384
924.70 320.6548
924.80 320.6711
924.90 320.6875
925.00 320.7039
925.10 320.7202
925.20 320.5336
925.30 320.26
925.40 319.9864
925.50 319.7128
925.60 319.4392
925.70 319.1656
925.80 318.892
925.90 318.6184
926.00 318.3448
926.10 318.0712
926.20 317.7977
926.30 317.5241
926.40 317.2505
926.50 316.9769
926.60 316.7033
926.70 316.4297
926.80 316.1561
926.90 315.8825
927.00 315.6089
927.10 315.3353
927.20 315.0617
927.30 314.7881
927.40 314.5145
927.50 314.2409
927.60 313.9673
927.70 313.9816
927.80 314.2315
927.90 314.4814
928.00 314.7313
928.10 314.9812
928.20 315.2311
928.30 315.481
928.40 315.7309
928.50 315.9808
928.60 316.2306
928.70 316.6774
928.80 317.6061
928.90 318.5348
929.00 319.4635
929.10 320.3922
929.20 321.3209
929.30 322.2496
929.40 323.1783
929.50 324.107
929.60 325.0357
929.70 325.9644
929.80 326.8931
929.90 327.8218
930.00 328.7505
930.10 329.6792
930.20 330.6079
930.30 331.5366
930.40 332.4653
930.50 333.394
930.60 334.3227
930.70 335.2514
930.80 336.1801
930.90 337.1089
931.00 338.0376
931.10 338.9663
931.20 339.889
931.30 340.5197
931.40 341.1505
931.50 341.7812
931.60 342.412
931.70 343.0427
931.80 343.6735
931.90 344.3042
932.00 344.9349
932.10 345.5657
932.20 346.1964
932.30 346.2225
932.40 345.9895
932.50 345.7565
932.60 345.5235
932.70 345.2904
932.80 345.0574
932.90 344.8244
933.00 344.5914
933.10 344.3584
933.20 344.1253
933.30 343.8923
933.40 343.6593
933.50 343.4263
933.60 343.1933
933.70 342.9602
933.80 342.7272
933.90 342.4942
934.00 342.2612
934.10 342.0282
934.20 341.7951
934.30 341.5621
934.40 341.3291
934.50 341.0961
934.60 340.8631
934.70 340.63
934.80 340.413
934.90 340.2313
935.00 340.0496
935.10 339.868
935.20 339.6863
935.30 339.5047
935.40 339.323
935.50 339.1413
935.60 338.9597
935.70 338.778
935.80 338.5964
935.90 339.0616
936.00 339.568
936.10 340.0745
936.20 340.581
936.30 341.0875
936.40 341.594
936.50 342.1004
936.60 342.6069
936.70 343.1134
936.80 343.6199
936.90 344.1263
937.00 344.6328
937.10 345.1393
937.20 345.6458
937.30 346.1523
937.40 346.6587
937.50 347.1652
937.60 347.6717
937.70 348.1782
937.80 348.6847
937.90 349.1911
938.00 349.6976
938.10 350.2041
938.20 350.7106
938.30 351.217
938.40 351.7615
938.50 352.3561
938.60 352.9508
938.70 353.5455
938.80 354.1402
938.90 354.7349
939.00 355.3296
939.10 355.9243
939.20 356.5189
939.30 357.1136
939.40 357.7068
939.50 358.2247
939.60 358.7427
939.70 359.2607
939.80 359.7787
939.90 360.2967
940.00 360.8146
940.10 361.3326
940.20 361.8506
940.30 362.3686
940.40 362.8865
940.50 363.4045
940.60 363.9225
940.70 364.4405
940.80 364.9585
940.90 365.4764
941.00 365.9944
941.10 366.5124
941.20 367.0304
941.30 367.5483
941.40 368.0663
941.50 368.5843
941.60 369.1023
941.70 369.6202
941.80 370.1382
941.90 370.6562
942.00 371.1534
942.10 371.6181
942.20 372.0827
942.30 372.5474
942.40 373.0121
942.50 373.4768
942.60 373.9414
942.70 374.4061
942.80 374.8708
942.90 375.3355
943.00 375.8001
943.10 376.6349
943.20 377.4976
943.30 378.3603
943.40 379.2229
943.50 380.0856
943.60 380.9483
943.70 381.8109
943.80 382.6736
943.90 383.5363
944.00 384.3989
944.10 385.2616
944.20 386.1243
944.30 386.9869
944.40 387.8496
944.50 388.7122
944.60 389.5749
944.70 390.4376
944.80 391.3002
944.90 392.1629
945.00 393.0256
945.10 393.8882
945.20 394.7509
945.30 395.6136
945.40 396.4762
945.50 397.3389
945.60 398.1323
945.70 398.6099
945.80 399.0876
945.90 399.5653
946.00 400.043
946.10 400.5207
946.20 400.9984
946.30 401.4761
946.40 401.9537
946.50 402.4314
946.60 402.9091
946.70 403.1411
946.80 403.2522
946.90 403.3632
947.00 403.4743
947.10 403.5853
947.20 403.6963
947.30 403.8074
947.40 403.9184
947.50 404.0295
947.60 404.1405
947.70 404.2515
947.80 404.3626
947.90 404.4736
948.00 404.5847
948.10 404.6957
948.20 404.8067
948.30 404.9178
948.40 405.0288
948.50 405.1399
948.60 405.2509
948.70 405.3619
948.80 405.473
948.90 405.584
949.00 405.6951
949.10 405.8061
949.20 405.9171
949.30 406.1063
949.40 406.3138
949.50 406.5214
949.60 406.7289
949.70 406.9364
949.80 407.1439
949.90 407.3514
950.00 407.559
950.10 407.7665
950.20 407.974
950.30 408.0889
950.40 407.9258
950.50 407.7627
950.60 407.5996
950.70 407.4365
950.80 407.2735
950.90 407.1104
951.00 406.9473
951.10 406.7842
951.20 406.6211
951.30 406.458
951.40 406.295
951.50 406.1319
951.60 405.9688
951.70 405.8057
951.80 405.6426
951.90 405.4796
952.00 405.3165
952.10 405.1534
952.20 404.9903
952.30 404.8272
952.40 404.6642
952.50 404.5011
952.60 404.338
952.70 404.1749
952.80 404.0118
952.90 403.8708
953.00 403.7895
953.10 403.7083
953.20 403.627
953.30 403.5457
953.40 403.4644
953.50 403.3831
953.60 403.3018
953.70 403.2206
953.80 403.1393
953.90 403.058
954.00 403.3468
954.10 403.8262
954.20 404.3056
954.30 404.785
954.40 405.2644
954.50 405.7438
954.60 406.2232
954.70 406.7026
954.80 407.182
954.90 407.6614
955.00 408.1409
955.10 408.6203
955.20 409.0997
955.30 409.5791
955.40 410.0585
955.50 410.5379
955.60 411.0173
955.70 411.4967
955.80 411.9761
955.90 412.4555
956.00 412.9349
956.10 413.4144
956.20 413.8938
956.30 414.3732
956.40 414.8526
956.50 415.332
956.60 415.8515
956.70 416.4012
956.80 416.9509
956.90 417.5006
957.00 418.0503
957.10 418.6
957.20 419.1496
957.30 419.6993
957.40 420.249
957.50 420.7987
957.60 421.3484
957.70 421.232
957.80 421.0577
957.90 420.8833
958.00 420.709
958.10 420.5346
958.20 420.3603
958.30 420.1859
958.40 420.0116
958.50 419.8372
958.60 419.6629
958.70 419.4886
958.80 419.3142
958.90 419.1399
959.00 418.9655
959.10 418.7912
959.20 418.6168
959.30 418.4425
959.40 418.2681
959.50 418.0938
959.60 417.9194
959.70 417.7451
959.80 417.5707
959.90 417.3964
960.00 417.2221
960.10 417.0477
960.20 416.8734
960.30 416.8724
960.40 416.9422
960.50 417.0121
960.60 417.0819
960.70 417.1518
960.80 417.2216
960.90 417.2914
961.00 417.3613
961.10 417.4311
961.20 417.501
961.30 417.5831
961.40 418.2687
961.50 418.9543
961.60 419.6398
961.70 420.3254
961.80 421.011
961.90 421.6965
962.00 422.3821
962.10 423.0677
962.20 423.7532
962.30 424.4388
962.40 425.1244
962.50 425.8099
962.60 426.4955
962.70 427.1811
962.80 427.8666
962.90 428.5522
963.00 429.2378
963.10 429.9233
963.20 430.6089
963.30 431.2945
963.40 431.98
963.50 432.6656
963.60 433.3512
963.70 434.0367
963.80 434.7223
963.90 435.4079
964.00 435.9142
964.10 436.3437
964.20 436.7731
964.30 437.2026
964.40 437.6321
964.50 438.0616
964.60 438.491
964.70 438.9205
964.80 439.35
964.90 439.7795
965.00 440.209
965.10 440.3777
965.20 440.5357
965.30 440.6936
965.40 440.8515
965.50 441.0095
965.60 441.1674
965.70 441.3253
965.80 441.4833
965.90 441.6412
966.00 441.7991
966.10 441.9571
966.20 442.115
966.30 442.2729
966.40 442.4309
966.50 442.5888
966.60 442.7467
966.70 442.9047
966.80 443.0626
966.90 443.2205
967.00 443.3785
967.10 443.5364
967.20 443.6943
967.30 443.8523
967.40 444.0102
967.50 444.1681
967.60 444.3261
967.70 444.5583
967.80 444.8565
967.90 445.1547
968.00 445.4529
968.10 445.7511
968.20 446.0493
968.30 446.3475
968.40 446.6457
968.50 446.9439
968.60 447.2421
968.70 447.5403
968.80 447.7755
968.90 447.9885
969.00 448.2015
969.10 448.4144
969.20 448.6274
969.30 448.8404
969.40 449.0534
969.50 449.2664
969.60 449.4794
969.70 449.6924
969.80 449.9054
969.90 450.1184
970.00 450.3313
970.10 450.5443
970.20 450.7573
970.30 450.9703
970.40 451.1833
970.50 451.3963
970.60 451.6093
970.70 451.8223
970.80 452.0352
970.90 452.2482
971.00 452.4612
971.10 452.6742
971.20 452.8872
971.30 453.1002
971.40 453.2891
971.50 453.3818
971.60 453.4745
971.70 453.5672
971.80 453.6599
971.90 453.7526
972.00 453.8453
972.10 453.938
972.20 454.0306
972.30 454.1233
972.40 454.216
972.50 454.4776
972.60 455.0267
972.70 455.5758
972.80 456.125
972.90 456.6741
973.00 457.2232
973.10 457.7724
973.20 458.3215
973.30 458.8706
973.40 459.4197
973.50 459.9689
973.60 460.518
973.70 461.0671
973.80 461.6162
973.90 462.1654
974.00 462.7145
974.10 463.2636
974.20 463.8127
974.30 464.3619
974.40 464.911
974.50 465.4601
974.60 466.0092
974.70 466.5584
974.80 467.1075
974.90 467.6566
975.00 468.2057
975.10 468.7549
975.20 469.2055
975.30 469.6177
975.40 470.03
975.50 470.4422
975.60 470.8545
975.70 471.2668
975.80 471.679
975.90 472.0913
976.00 472.5036
976.10 472.9158
976.20 473.3281
976.30 473.2406
976.40 473.065
976.50 472.8893
976.60 472.7137
976.70 472.538
976.80 472.3624
976.90 472.1868
977.00 472.0111
977.10 471.8355
977.20 471.6598
977.30 471.4842
977.40 471.3085
977.50 471.1329
977.60 470.9572
977.70 470.7816
977.80 470.6059
977.90 470.4303
978.00 470.2546
978.10 470.079
978.20 469.9034
978.30 469.7277
978.40 469.5521
978.50 469.3764
978.60 469.2008
978.70 469.0251
978.80 468.8495
978.90 468.6501
979.00 468.2369
979.10 467.8236
979.20 467.4104
979.30 466.9972
979.40 466.584
979.50 466.1708
979.60 465.7576
979.70 465.3444
979.80 464.9312
979.90 464.5179
980.00 464.2038
980.10 464.3407
980.20 464.4777
980.30 464.6146
980.40 464.7516
980.50 464.8886
980.60 465.0255
980.70 465.1625
980.80 465.2994
980.90 465.4364
981.00 465.5733
981.10 465.7103
981.20 465.8473
981.30 465.9842
981.40 466.1212
981.50 466.2581
981.60 466.3951
981.70 466.532
981.80 466.669
981.90 466.806
982.00 466.9429
982.10 467.0799
982.20 467.2168
982.30 467.3538
982.40 467.4907
982.50 467.6277
982.60 467.7647
982.70 467.8163
982.80 467.6865
982.90 467.5567
983.00 467.4269
983.10 467.2971
983.20 467.1674
983.30 467.0376
983.40 466.9078
983.50 466.778
983.60 466.6483
983.70 466.5185
983.80 466.1459
983.90 465.3416
984.00 464.5373
984.10 463.7331
984.20 462.9288
984.30 462.1245
984.40 461.3203
984.50 460.516
984.60 459.7117
984.70 458.9075
984.80 458.1032
984.90 457.2989
985.00 456.4946
985.10 455.6904
985.20 454.8861
985.30 454.0818
985.40 453.2776
985.50 452.4733
985.60 451.669
985.70 450.8648
985.80 450.0605
985.90 449.2562
986.00 448.4519
986.10 447.6477
986.20 446.8434
986.30 446.0391
986.40 445.2349
986.50 444.5088
986.60 443.9001
986.70 443.2913
986.80 442.6826
986.90 442.0738
987.00 441.4651
987.10 440.8563
987.20 440.2476
987.30 439.6389
987.40 439.0301
987.50 438.4214
987.60 437.953
987.70 437.6951
987.80 437.4372
987.90 437.1793
988.00 436.9214
988.10 436.6635
988.20 436.4056
988.30 436.1477
988.40 435.8898
988.50 435.6319
988.60 435.374
988.70 435.1161
988.80 434.8583
988.90 434.6004
989.00 434.3425
989.10 434.0846
989.20 433.8267
989.30 433.5688
989.40 433.3109
989.50 433.053
989.60 432.7951
989.70 432.5372
989.80 432.2793
989.90 432.0214
990.00 431.7635
990.10 431.5056
990.20 431.2478
990.30 430.9264
990.40 430.4761
990.50 430.0258
990.60 429.5755
990.70 429.1252
990.80 428.675
990.90 428.2247
991.00 427.7744
991.10 427.3241
991.20 426.8738
991.30 426.4235
991.40 425.9372
991.50 425.3624
991.60 424.7876
991.70 424.2128
991.80 423.6381
991.90 423.0633
992.00 422.4885
992.10 421.9138
992.20 421.339
992.30 420.7642
992.40 420.1895
992.50 419.6147
992.60 419.0399
992.70 418.4651
992.80 417.8904
992.90 417.3156
993.00 416.7408
993.10 416.1661
993.20 415.5913
993.30 415.0165
993.40 414.4417
993.50 413.867
993.60 413.2922
993.70 412.7174
993.80 412.1427
993.90 411.5679
994.00 410.9931
994.10 410.4598
994.20 410.2305
994.30 410.0013
994.40 409.772
994.50 409.5427
994.60 409.3135
994.70 409.0842
994.80 408.8549
994.90 408.6257
995.00 408.3964
995.10 408.1671
995.20 407.922
995.30 407.1634
995.40 406.4048
995.50 405.6461
995.60 404.8875
995.70 404.1289
995.80 403.3703
995.90 402.6117
996.00 401.853
996.10 401.0944
996.20 400.3358
996.30 399.5772
996.40 398.8186
996.50 398.06
996.60 397.3013
996.70 396.5427
996.80 395.7841
996.90 395.0255
997.00 394.2669
997.10 393.5082
997.20 392.7496
997.30 391.991
997.40 391.2324
997.50 390.4738
997.60 389.7152
997.70 388.9565
997.80 388.1979
997.90 387.4393
998.00 386.7209
998.10 386.0145
998.20 385.3081
998.30 384.6017
998.40 383.8953
998.50 383.1889
998.60 382.4825
998.70 381.7761
998.80 381.0696
998.90 380.3632
999.00 379.6568
999.10 379.2966
999.20 379.1311
999.30 378.9656
999.40 378.8001
999.50 378.6346
999.60 378.469
999.70 378.3035
999.80 378.138
999.90 377.9725
1000.00 377.807
1000.10 377.6415
1000.20 377.476
1000.30 377.3105
1000.40 377.145
1000.50 376.9794
1000.60 376.8139
1000.70 376.6484
1000.80 376.4829
1000.90 376.3174
1001.00 376.1519
1001.10 375.9864
1001.20 375.8209
1001.30 375.6553
1001.40 375.4898
1001.50 375.3243
1001.60 375.1588
1001.70 374.9933
1001.80 374.9594
1001.90 375.2325
1002.00 375.5056
1002.10 375.7787
1002.20 376.0518
1002.30 376.3249
1002.40 376.598
1002.50 376.8711
1002.60 377.1442
1002.70 377.4173
1002.80 377.6905
1002.90 377.9941
1003.00 378.5728
1003.10 379.1515
1003.20 379.7302
1003.30 380.3089
1003.40 380.8876
1003.50 381.4663
1003.60 382.045
1003.70 382.6237
1003.80 383.2024
1003.90 383.7811
1004.00 384.3598
1004.10 384.9385
1004.20 385.5172
1004.30 386.0958
1004.40 386.6745
1004.50 387.2532
1004.60 387.8319
1004.70 388.4106
1004.80 388.9893
1004.90 389.568
1005.00 390.1467
1005.10 390.7254
1005.20 391.3041
1005.30 391.8828
1005.40 392.4615
1005.50 393.0402
1005.60 393.6189
1005.70 394.1315
1005.80 394.6159
1005.90 395.1002
1006.00 395.5845
1006.10 396.0689
1006.20 396.5532
1006.30 397.0375
1006.40 397.5219
1006.50 398.0062
1006.60 398.4905
1006.70 398.9749
1006.80 399.5379
1006.90 400.2191
1007.00 400.9002
1007.10 401.5814
1007.20 402.2625
1007.30 402.9436
1007.40 403.6248
1007.50 404.3059
1007.60 404.9871
1007.70 405.6682
1007.80 406.3493
1007.90 407.0305
1008.00 407.7116
1008.10 408.3928
1008.20 409.0739
1008.30 409.755
1008.40 410.4362
1008.50 411.1173
1008.60 411.7984
1008.70 412.4796
1008.80 413.1607
1008.90 413.8419
1009.00 414.523
1009.10 415.2041
1009.20 415.8853
1009.30 416.5664
1009.40 417.2476
1009.50 417.9287
1009.60 418.578
1009.70 419.2237
1009.80 419.8694
1009.90 420.5151
1010.00 421.1608
1010.10 421.8065
1010.20 422.4522
1010.30 423.098
1010.40 423.7437
1010.50 424.3894
1010.60 425.0351
1010.70 425.386
1010.80 425.5405
1010.90 425.6949
1011.00 425.8493
1011.10 426.0037
1011.20 426.1581
1011.30 426.3125
1011.40 426.4669
1011.50 426.6214
1011.60 426.7758
1011.70 426.9302
1011.80 427.0846
1011.90 427.239
1012.00 427.3934
1012.10 427.5478
1012.20 427.7023
1012.30 427.8567
1012.40 428.0111
1012.50 428.1655
1012.60 428.3199
1012.70 428.4743
1012.80 428.6287
1012.90 428.7832
1013.00 428.9376
1013.10 429.092
1013.20 429.2464
1013.30 429.4008
1013.40 429.5552
1013.50 429.4119
1013.60 429.2685
1013.70 429.1252
1013.80 428.9818
1013.90 428.8385
1014.00 428.6951
1014.10 428.5517
1014.20 428.4084
1014.30 428.265
1014.40 428.1217
1014.50 427.9783
1014.60 428.1785
1014.70 428.526
1014.80 428.8734
1014.90 429.2209
1015.00 429.5683
1015.10 429.9158
1015.20 430.2632
1015.30 430.6107
1015.40 430.9582
1015.50 431.3056
1015.60 431.6531
1015.70 432.0005
1015.80 432.348
1015.90 432.6954
1016.00 433.0429
1016.10 433.3903
1016.20 433.7378
1016.30 434.0852
1016.40 434.4327
1016.50 434.7801
1016.60 435.1276
1016.70 435.475
1016.80 435.8225
1016.90 436.1699
1017.00 436.5174
1017.10 436.8648
1017.20 437.2123
1017.30 437.5597
1017.40 438.3032
1017.50 439.0467
1017.60 439.7901
1017.70 440.5336
1017.80 441.2771
1017.90 442.0205
1018.00 442.764
1018.10 443.5075
1018.20 444.2509
1018.30 444.9944
1018.40 445.7378
1018.50 446.2672
1018.60 446.6538
1018.70 447.0405
1018.80 447.4271
1018.90 447.8137
1019.00 448.2003
1019.10 448.587
1019.20 448.9736
1019.30 449.3602
1019.40 449.7469
1019.50 450.1335
1019.60 450.5201
1019.70 450.9067
1019.80 451.2934
1019.90 451.68
1020.00 452.0666
1020.10 452.4532
1020.20 452.8399
1020.30 453.2265
1020.40 453.6131
1020.50 453.9998
1020.60 454.3864
1020.70 454.773
1020.80 455.1596
1020.90 455.5463
1021.00 455.9329
1021.10 456.3195
1021.20 456.7061
1021.30 457.047
1021.40 457.3765
1021.50 457.706
1021.60 458.0354
1021.70 458.3649
1021.80 458.6943
1021.90 459.0238
1022.00 459.3533
1022.10 459.6827
1022.20 460.0122
1022.30 460.3416
1022.40 460.5831
1022.50 460.7366
1022.60 460.89
1022.70 461.0435
1022.80 461.1969
1022.90 461.3504
1023.00 461.5039
1023.10 461.6573
1023.20 461.8108
1023.30 461.9642
1023.40 462.1177
1023.50 462.2712
1023.60 462.4246
1023.70 462.5781
1023.80 462.7316
1023.90 462.885
1024.00 463.0385
1024.10 463.1919
1024.20 463.3454
1024.30 463.4989
1024.40 463.6523
1024.50 463.8058
1024.60 463.9592
1024.70 464.1127
1024.80 464.2662
1024.90 464.4196
1025.00 464.5731
1025.10 464.7265
1025.20 464.8787
1025.30 465.0297
1025.40 465.1806
1025.50 465.3316
1025.60 465.4825
1025.70 465.6335
1025.80 465.7844
1025.90 465.9354
1026.00 466.0863
1026.10 466.2373
1026.20 466.3882
1026.30 466.5658
1026.40 466.9834
1026.50 467.4009
1026.60 467.8185
1026.70 468.2361
1026.80 468.6536
1026.90 469.0712
1027.00 469.4888
1027.10 469.9063
1027.20 470.3239
1027.30 470.7415
1027.40 471.159
1027.50 471.5766
1027.60 471.9942
1027.70 472.4117
1027.80 472.8293
1027.90 473.2469
1028.00 473.6644
1028.10 474.082
1028.20 474.4996
1028.30 474.9171
1028.40 475.3347
1028.50 475.7523
1028.60 476.1698
1028.70 476.5874
1028.80 477.0049
1028.90 477.4225
1029.00 477.8401
1029.10 478.222
1029.20 478.2829
1029.30 478.3438
1029.40 478.4047
1029.50 478.4656
1029.60 478.5266
1029.70 478.5875
1029.80 478.6484
1029.90 478.7093
1030.00 478.7702
1030.10 478.8311
1030.20 478.8921
1030.30 478.9053
1030.40 478.8982
1030.50 478.891
1030.60 478.8839
1030.70 478.8768
1030.80 478.8696
1030.90 478.8625
1031.00 478.8553
1031.10 478.8482
1031.20 478.841
1031.30 478.8339
1031.40 478.8267
1031.50 478.8196
1031.60 478.8125
1031.70 478.8053
1031.80 478.7982
1031.90 478.791
1032.00 478.7839
1032.10 478.7767
1032.20 478.7696
1032.30 478.7625
1032.40 478.7553
1032.50 478.7482
1032.60 478.741
1032.70 478.7339
1032.80 478.7267
1032.90 478.7196
1033.00 478.7124
1033.10 479.1293
1033.20 479.8288
1033.30 480.5284
1033.40 481.2279
1033.50 481.9274
1033.60 482.6269
1033.70 483.3265
1033.80 484.026
1033.90 484.7255
1034.00 485.425
1034.10 486.1246
1034.20 486.8608
1034.30 487.9278
1034.40 488.9948
1034.50 490.0618
1034.60 491.1287
1034.70 492.1957
1034.80 493.2627
1034.90 494.3297
1035.00 495.3966
1035.10 496.4636
1035.20 497.5306
1035.30 498.5976
1035.40 499.6645
1035.50 500.7315
1035.60 501.7985
1035.70 502.8655
1035.80 503.9324
1035.90 504.9994
1036.00 506.0664
1036.10 507.1334
1036.20 508.2003
1036.30 509.2673
1036.40 510.3343
1036.50 511.4013
1036.60 512.4682
1036.70 513.5352
1036.80 514.6022
1036.90 515.6692
1037.00 516.7361
1037.10 517.4721
1037.20 518.1714
1037.30 518.8706
1037.40 519.5698
1037.50 520.269
1037.60 520.9682
1037.70 521.6675
1037.80 522.3667
1037.90 523.0659
1038.00 523.7651
1038.10 524.4643
1038.20 524.9533
1038.30 525.1269
1038.40 525.3005
1038.50 525.4742
1038.60 525.6478
1038.70 525.8214
1038.80 525.995
1038.90 526.1686
1039.00 526.3422
1039.10 526.5158
1039.20 526.6894
1039.30 526.8631
1039.40 527.0367
1039.50 527.2103
1039.60 527.3839
1039.70 527.5575
1039.80 527.7311
1039.90 527.9047
1040.00 528.0783
1040.10 528.252
1040.20 528.4256
1040.30 528.5992
1040.40 528.7728
1040.50 528.9464
1040.60 529.12
1040.70 529.2936
1040.80 529.4672
1040.90 529.6409
1041.00 529.7647
1041.10 529.6896
1041.20 529.6145
1041.30 529.5394
1041.40 529.4643
1041.50 529.3892
1041.60 529.3141
1041.70 529.239
1041.80 529.1639
1041.90 529.0888
1042.00 529.0137
1042.10 528.9386
1042.20 529.1481
1042.30 529.5472
1042.40 529.9464
1042.50 530.3456
1042.60 530.7448
1042.70 531.144
1042.80 531.5432
1042.90 531.9423
1043.00 532.3415
1043.10 532.7407
1043.20 533.1399
1043.30 533.5391
1043.40 533.9382
1043.50 534.3374
1043.60 534.7366
1043.70 535.1358
1043.80 535.535
1043.90 535.9341
1044.00 536.3333
1044.10 536.7325
1044.20 537.1317
1044.30 537.5309
1044.40 537.9301
1044.50 538.3292
1044.60 538.7284
1044.70 539.1276
1044.80 539.5268
1044.90 539.926
1045.00 540.4344
1045.10 541.1977
1045.20 541.961
1045.30 542.7244
1045.40 543.4877
1045.50 544.251
1045.60 545.0144
1045.70 545.7777
1045.80 546.541
1045.90 547.3043
1046.00 548.0677
1046.10 548.831
1046.20 549.2688
1046.30 549.567
1046.40 549.8652
1046.50 550.1634
1046.60 550.4617
1046.70 550.7599
1046.80 551.0581
1046.90 551.3564
1047.00 551.6546
1047.10 551.9528
1047.20 552.2511
1047.30 552.5493
1047.40 552.8475
1047.50 553.1457
1047.60 553.444
1047.70 553.7422
1047.80 554.0404
1047.90 554.3387
1048.00 554.6369
1048.10 554.9351
1048.20 555.2333
1048.30 555.5316
1048.40 555.8298
1048.50 556.128
1048.60 556.4263
1048.70 556.7245
1048.80 557.0227
1048.90 557.321
1049.00 557.5397
1049.10 557.5732
1049.20 557.6066
1049.30 557.64
1049.40 557.6734
1049.50 557.7069
1049.60 557.7403
1049.70 557.7737
1049.80 557.8071
1049.90 557.8406
1050.00 557.874
1050.10 557.9074
1050.20 558.033
1050.30 558.198
1050.40 558.363
1050.50 558.5281
1050.60 558.6931
1050.70 558.8581
1050.80 559.0231
1050.90 559.1882
1051.00 559.3532
1051.10 559.5182
1051.20 559.6832
1051.30 559.8483
1051.40 560.0133
1051.50 560.1783
1051.60 560.3434
1051.70 560.5084
1051.80 560.6734
1051.90 560.8384
1052.00 561.0035
1052.10 561.1685
1052.20 561.3335
1052.30 561.4986
1052.40 561.6636
1052.50 561.8286
1052.60 561.9936
1052.70 562.1587
1052.80 562.3237
1052.90 562.4887
1053.00 562.6824
1053.10 562.9906
1053.20 563.2988
1053.30 563.6071
1053.40 563.9153
1053.50 564.2235
1053.60 564.5317
1053.70 564.8399
1053.80 565.1482
1053.90 565.4564
1054.00 565.7646
1054.10 566.0728
1054.20 566.4177
1054.30 566.7992
1054.40 567.1807
1054.50 567.5622
1054.60 567.9436
1054.70 568.3251
1054.80 568.7066
1054.90 569.0881
1055.00 569.4696
1055.10 569.8511
1055.20 570.2326
1055.30 570.614
1055.40 570.9955
1055.50 571.377
1055.60 571.7585
1055.70 572.14
1055.80 572.5215
1055.90 572.903
1056.00 573.2845
1056.10 573.6659
1056.20 574.0474
1056.30 574.4289
1056.40 574.8104
1056.50 575.1919
1056.60 575.5734
1056.70 575.9549
1056.80 576.3363
1056.90 576.7178
1057.00 577.0993
1057.10 577.1322
1057.20 577.1263
1057.30 577.1204
1057.40 577.1145
1057.50 577.1086
1057.60 577.1027
1057.70 577.0968
1057.80 577.0909
1057.90 577.085
1058.00 577.0792
1058.10 577.0733
1058.20 577.0648
1058.30 577.0503
1058.40 577.0359
1058.50 577.0214
1058.60 577.007
1058.70 576.9925
1058.80 576.9781
1058.90 576.9636
1059.00 576.9491
1059.10 576.9347
1059.20 576.9202
1059.30 576.9058
1059.40 576.8913
1059.50 576.8768
1059.60 576.8624
1059.70 576.8479
1059.80 576.8335
1059.90 576.819
1060.00 576.8046
1060.10 576.7901
1060.20 576.7756
1060.30 576.7612
1060.40 576.7467
1060.50 576.7323
1060.60 576.7178
1060.70 576.7033
1060.80 576.6889
1060.90 576.6744
1061.00 576.66
1061.10 576.9242
1061.20 577.3743
1061.30 577.8243
1061.40 578.2743
1061.50 578.7244
1061.60 579.1744
1061.70 579.6245
1061.80 580.0745
1061.90 580.5246
1062.00 580.9746
1062.10 581.4247
1062.20 581.8747
1062.30 582.3546
1062.40 582.8378
1062.50 583.321
1062.60 583.8042
1062.70 584.2874
1062.80 584.7706
1062.90 585.2539
1063.00 585.7371
1063.10 586.2203
1063.20 586.7035
1063.30 587.1867
1063.40 587.6699
1063.50 588.1531
1063.60 588.6363
1063.70 589.1195
1063.80 589.6028
1063.90 590.086
1064.00 590.5692
1064.10 591.0524
1064.20 591.5356
1064.30 592.0188
1064.40 592.502
1064.50 592.9852
1064.60 593.4684
1064.70 593.9517
1064.80 594.4349
1064.90 594.9181
1065.00 595.4013
1065.10 595.8506
1065.20 596.1642
1065.30 596.4779
1065.40 596.7916
1065.50 597.1052
1065.60 597.4189
1065.70 597.7325
1065.80 598.0462
1065.90 598.3598
1066.00 598.6735
1066.10 598.9872
1066.20 599.3008
1066.30 599.6235
1066.40 599.9599
1066.50 600.2963
1066.60 600.6327
1066.70 600.969
1066.80 601.3054
1066.90 601.6418
1067.00 601.9781
1067.10 602.3145
1067.20 602.6509
1067.30 602.9872
1067.40 603.3236
1067.50 603.66
1067.60 603.9964
1067.70 604.3327
1067.80 604.6691
1067.90 605.0055
1068.00 605.3418
1068.10 605.6782
1068.20 606.0146
1068.30 606.3509
1068.40 606.6873
1068.50 607.0237
1068.60 607.3601
1068.70 607.6964
1068.80 608.0328
1068.90 608.3692
1069.00 608.7055
1069.10 609.0419
1069.20 609.4093
1069.30 609.7975
1069.40 610.1856
1069.50 610.5738
1069.60 610.962
1069.70 611.3501
1069.80 611.7383
1069.90 612.1264
1070.00 612.5146
1070.10 612.9027
1070.20 613.2909
1070.30 613.679
1070.40 614.0464
1070.50 614.4115
1070.60 614.7765
1070.70 615.1416
1070.80 615.5066
1070.90 615.8717
1071.00 616.2368
1071.10 616.6018
1071.20 616.9669
1071.30 617.332
1071.40 617.697
1071.50 618.0621
1071.60 618.4272
1071.70 618.7922
1071.80 619.1573
1071.90 619.5224
1072.00 619.8874
1072.10 620.2525
1072.20 620.6176
1072.30 620.9826
1072.40 621.3477
1072.50 621.7127
1072.60 622.0778
1072.70 622.4429
1072.80 622.8079
1072.90 623.173
1073.00 623.5381
1073.10 623.9031
1073.20 624.2682
1073.30 624.7784
1073.40 625.2887
1073.50 625.7989
1073.60 626.3091
1073.70 626.8193
1073.80 627.3296
1073.90 627.8398
1074.00 628.35
1074.10 628.8602
1074.20 629.3705
1074.30 629.8807
1074.40 630.3936
1074.50 630.917
1074.60 631.4405
1074.70 631.9639
1074.80 632.4874
1074.90 633.0109
1075.00 633.5343
1075.10 634.0578
1075.20 634.5812
1075.30 635.1047
1075.40 635.6281
1075.50 636.1516
1075.60 636.6751
1075.70 637.1985
1075.80 637.722
1075.90 638.2454
1076.00 638.7689
1076.10 639.2923
1076.20 639.8158
1076.30 640.3393
1076.40 640.8627
1076.50 641.3862
1076.60 641.9096
1076.70 642.4331
1076.80 642.9566
1076.90 643.48
1077.00 644.0035
1077.10 644.5269
1077.20 645.0504
1077.30 645.5508
1077.40 645.9592
1077.50 646.3675
1077.60 646.7758
1077.70 647.1842
1077.80 647.5925
1077.90 648.0009
1078.00 648.4092
1078.10 648.8175
1078.20 649.2259
1078.30 649.6342
1078.40 650.0426
1078.50 650.3812
1078.60 650.6153
1078.70 650.8494
1078.80 651.0836
1078.90 651.3177
1079.00 651.5518
1079.10 651.7859
1079.20 652.02
1079.30 652.2541
1079.40 652.4882
1079.50 652.7223
1079.60 652.9565
1079.70 653.1906
1079.80 653.4247
1079.90 653.6588
1080.00 653.8929
1080.10 654.127
1080.20 654.3611
1080.30 654.5952
1080.40 654.8293
1080.50 655.0635
1080.60 655.2976
1080.70 655.5317
1080.80 655.7658
1080.90 655.9999
1081.00 656.234
1081.10 656.4681
1081.20 656.7022
1081.30 656.9364
1081.40 656.9932
1081.50 656.7841
1081.60 656.575
1081.70 656.3659
1081.80 656.1568
1081.90 655.9477
1082.00 655.7386
1082.10 655.5295
1082.20 655.3205
1082.30 655.1114
1082.40 654.9023
1082.50 654.6932
1082.60 654.6791
1082.70 654.8602
1082.80 655.0412
1082.90 655.2222
1083.00 655.4032
1083.10 655.5842
1083.20 655.7652
1083.30 655.9463
1083.40 656.1273
1083.50 656.3083
1083.60 656.4893
1083.70 656.6703
1083.80 656.8514
1083.90 657.0324
1084.00 657.2134
1084.10 657.3944
1084.20 657.5754
1084.30 657.7564
1084.40 657.9375
1084.50 658.1185
1084.60 658.2995
1084.70 658.4805
1084.80 658.6615
1084.90 658.8426
1085.00 659.0236
1085.10 659.2046
1085.20 659.3856
1085.30 659.5666
1085.40 659.7476
1085.50 660.1125
1085.60 660.7532
1085.70 661.3939
1085.80 662.0346
1085.90 662.6753
1086.00 663.316
1086.10 663.9566
1086.20 664.5973
1086.30 665.238
1086.40 665.8787
1086.50 666.5194
1086.60 667.1601
1086.70 667.6726
1086.80 668.0998
1086.90 668.5269
1087.00 668.9541
1087.10 669.3812
1087.20 669.8084
1087.30 670.2355
1087.40 670.6627
1087.50 671.0898
1087.60 671.5169
1087.70 671.9441
1087.80 672.3712
1087.90 672.7984
1088.00 673.2255
1088.10 673.6527
1088.20 674.0798
1088.30 674.507
1088.40 674.9341
1088.50 675.3613
1088.60 675.7884
1088.70 676.2156
1088.80 676.6427
1088.90 677.0699
1089.00 677.497
1089.10 677.9242
1089.20 678.3513
1089.30 678.7784
1089.40 679.2056
1089.50 679.6327
1089.60 679.9151
1089.70 679.9801
1089.80 680.0452
1089.90 680.1103
1090.00 680.1754
1090.10 680.2405
1090.20 680.3056
1090.30 680.3706
1090.40 680.4357
1090.50 680.5008
1090.60 680.5659
1090.70 680.631
1090.80 680.5849
1090.90 680.4276
1091.00 680.2704
1091.10 680.1132
1091.20 679.9559
1091.30 679.7987
1091.40 679.6414
1091.50 679.4842
1091.60 679.3269
1091.70 679.1697
1091.80 679.0124
1091.90 678.8552
1092.00 678.6979
1092.10 678.5407
1092.20 678.3834
1092.30 678.2262
1092.40 678.0689
1092.50 677.9117
1092.60 677.7545
1092.70 677.5972
1092.80 677.44
1092.90 677.2827
1093.00 677.1255
1093.10 676.9682
1093.20 676.811
1093.30 676.6537
1093.40 676.4965
1093.50 676.3392
1093.60 676.182
1093.70 676.0267
1093.80 675.8758
1093.90 675.7249
1094.00 675.5741
1094.10 675.4232
1094.20 675.2723
1094.30 675.1215
1094.40 674.9706
1094.50 674.8197
1094.60 674.6689
1094.70 674.518
1094.80 674.3671
1094.90 674.3578
1095.00 674.5608
1095.10 674.7638
1095.20 674.9668
1095.30 675.1699
1095.40 675.3729
1095.50 675.5759
1095.60 675.7789
1095.70 675.9819
1095.80 676.1849
1095.90 676.3879
1096.00 676.5909
1096.10 676.7939
1096.20 676.9969
1096.30 677.1999
1096.40 677.403
1096.50 677.606
1096.60 677.809
1096.70 678.012
1096.80 678.215
1096.90 678.418
1097.00 678.621
1097.10 678.824
1097.20 679.027
1097.30 679.23
1097.40 679.433
1097.50 679.636
1097.60 679.8391
1097.70 680.0421
1097.80 680.2547
1097.90 680.5542
1098.00 680.8537
1098.10 681.1532
1098.20 681.4526
1098.30 681.7521
1098.40 682.0516
1098.50 682.3511
1098.60 682.6505
1098.70 682.95
1098.80 683.2495
1098.90 683.549
1099.00 683.8
1099.10 683.6144
1099.20 683.4289
1099.30 683.2433
1099.40 683.0578
1099.50 682.8722
1099.60 682.6867
1099.70 682.5011
1099.80 682.3156
1099.90 682.13
1100.00 681.9445
1100.10 681.7589
1100.20 681.5734
1100.30 681.3878
1100.40 681.2023
1100.50 681.0167
1100.60 680.8312
1100.70 680.6456
1100.80 680.4601
1100.90 680.2745
1101.00 680.089
1101.10 679.9035
1101.20 679.7179
1101.30 679.5324
1101.40 679.3468
1101.50 679.1613
1101.60 678.9757
1101.70 678.7902
1101.80 678.6046
1101.90 678.4191
1102.00 678.2084
1102.10 677.9915
1102.20 677.7745
1102.30 677.5576
1102.40 677.3406
1102.50 677.1237
1102.60 676.9068
1102.70 676.6898
1102.80 676.4729
1102.90 676.256
1103.00 676.039
1103.10 675.8221
1103.20 675.5998
1103.30 675.3761
1103.40 675.1525
1103.50 674.9288
1103.60 674.7052
1103.70 674.4815
1103.80 674.2579
1103.90 674.0342
1104.00 673.8106
1104.10 673.5869
1104.20 673.3633
1104.30 673.1396
1104.40 672.916
1104.50 672.6923
1104.60 672.4687
1104.70 672.245
1104.80 672.0214
1104.90 671.7977
1105.00 671.5741
1105.10 671.3504
1105.20 671.1267
1105.30 670.9031
1105.40 670.6794
1105.50 670.4558
1105.60 670.2321
1105.70 670.0085
1105.80 669.7848
1105.90 669.5612
1106.00 669.3375
1106.10 668.9902
1106.20 668.4575
1106.30 667.9247
1106.40 667.3919
1106.50 666.8592
1106.60 666.3264
1106.70 665.7936
1106.80 665.2609
1106.90 664.7281
1107.00 664.1953
1107.10 663.6626
1107.20 663.1298
1107.30 662.6292
1107.40 662.1769
1107.50 661.7245
1107.60 661.2722
1107.70 660.8198
1107.80 660.3675
1107.90 659.9152
1108.00 659.4628
1108.10 659.0105
1108.20 658.5582
1108.30 658.1058
1108.40 657.6535
1108.50 657.2011
1108.60 656.7488
1108.70 656.2965
1108.80 655.8441
1108.90 655.3918
1109.00 654.9394
1109.10 654.4871
1109.20 654.0348
1109.30 653.5824
1109.40 653.1301
1109.50 652.6777
1109.60 652.2254
1109.70 651.7731
1109.80 651.3207
1109.90 650.8684
1110.00 650.416
1110.10 649.9637
1110.20 649.5114
1110.30 649.2512
1110.40 649.0123
1110.50 648.7735
1110.60 648.5347
1110.70 648.2958
1110.80 648.057
1110.90 647.8182
1111.00 647.5793
1111.10 647.3405
1111.20 647.1017
1111.30 646.8628
1111.40 646.624
1111.50 646.2672
1111.60 645.8974
1111.70 645.5275
1111.80 645.1576
1111.90 644.7877
1112.00 644.4179
1112.10 644.048
1112.20 643.6781
1112.30 643.3083
1112.40 642.9384
1112.50 642.5685
1112.60 642.1987
1112.70 641.8288
1112.80 641.4589
1112.90 641.089
1113.00 640.7192
1113.10 640.3493
1113.20 639.9794
1113.30 639.6096
1113.40 639.2397
1113.50 638.8698
1113.60 638.5
1113.70 638.1301
1113.80 637.7602
1113.90 637.3904
1114.00 637.0205
1114.10 636.6506
1114.20 636.2807
1114.30 635.9109
1114.40 635.5946
1114.50 635.4033
1114.60 635.2121
1114.70 635.0208
1114.80 634.8295
1114.90 634.6383
1115.00 634.447
1115.10 634.2557
1115.20 634.0645
1115.30 633.8732
1115.40 633.6819
1115.50 633.4907
1115.60 633.4762
1115.70 633.8742
1115.80 634.2723
1115.90 634.6704
1116.00 635.0684
1116.10 635.4665
1116.20 635.8645
1116.30 636.2626
1116.40 636.6606
1116.50 637.0587
1116.60 637.4567
1116.70 637.8548
1116.80 638.2529
1116.90 638.6509
1117.00 639.049
1117.10 639.447
1117.20 639.8451
1117.30 640.2431
1117.40 640.6412
1117.50 641.0393
1117.60 641.4373
1117.70 641.8354
1117.80 642.2334
1117.90 642.6315
1118.00 643.0295
1118.10 643.4276
1118.20 643.8256
1118.30 644.2237
1118.40 644.6218
1118.50 645.0198
1118.60 645.4983
1118.70 646.0113
1118.80 646.5243
1118.90 647.0374
1119.00 647.5504
1119.10 648.0634
1119.20 648.5764
1119.30 649.0894
1119.40 649.6024
1119.50 650.1154
1119.60 650.6284
1119.70 651.1414
1119.80 651.4663
1119.90 651.6659
1120.00 651.8655
1120.10 652.065
1120.20 652.2646
1120.30 652.4642
1120.40 652.6637
1120.50 652.8633
1120.60 653.0628
1120.70 653.2624
1120.80 653.462
1120.90 653.6615
1121.00 653.8611
1121.10 654.0607
1121.20 654.2602
1121.30 654.4598
1121.40 654.6593
1121.50 654.8589
1121.60 655.0585
1121.70 655.258
1121.80 655.4576
1121.90 655.6572
1122.00 655.8567
1122.10 656.0563
1122.20 656.2558
1122.30 656.4554
1122.40 656.655
1122.50 656.8545
1122.60 657.0541
1122.70 657.2537
1122.80 656.9698
1122.90 656.686
1123.00 656.4022
1123.10 656.1183
1123.20 655.8345
1123.30 655.5506
1123.40 655.2668
1123.50 654.983
1123.60 654.6991
1123.70 654.4153
1123.80 654.1315
1123.90 653.8476
1124.00 653.4165
1124.10 652.9691
1124.20 652.5217
1124.30 652.0742
1124.40 651.6268
1124.50 651.1793
1124.60 650.7319
1124.70 650.2844
1124.80 649.837
1124.90 649.3896
1125.00 648.9421
1125.10 648.4947
1125.20 648.0472
1125.30 647.5998
1125.40 647.1524
1125.50 646.7049
1125.60 646.2575
1125.70 645.81
1125.80 645.3626
1125.90 644.9151
1126.00 644.4677
1126.10 644.0203
1126.20 643.5728
1126.30 643.1254
1126.40 642.6779
1126.50 642.2305
1126.60 641.783
1126.70 641.3356
1126.80 640.8882
1126.90 640.521
1127.00 640.4747
1127.10 640.4285
1127.20 640.3823
1127.30 640.3361
1127.40 640.2899
1127.50 640.2437
1127.60 640.1974
1127.70 640.1512
1127.80 640.105
1127.90 640.0588
1128.00 640.0126
1128.10 639.9695
1128.20 639.9542
1128.30 639.939
1128.40 639.9238
1128.50 639.9086
1128.60 639.8934
1128.70 639.8781
1128.80 639.8629
1128.90 639.8477
1129.00 639.8325
1129.10 639.8173
1129.20 639.8021
1129.30 639.7868
1129.40 639.7716
1129.50 639.7564
1129.60 639.7412
1129.70 639.726
1129.80 639.7107
1129.90 639.6955
1130.00 639.6803
1130.10 639.6651
1130.20 639.6499
1130.30 639.6346
1130.40 639.6194
1130.50 639.6042
1130.60 639.589
1130.70 639.5738
1130.80 639.5586
1130.90 639.5433
1131.00 639.5281
1131.10 639.4534
1131.20 639.2895
1131.30 639.1255
1131.40 638.9616
1131.50 638.7976
1131.60 638.6337
1131.70 638.4698
1131.80 638.3058
1131.90 638.1419
1132.00 637.9779
1132.10 637.814
1132.20 637.6501
1132.30 637.5983
1132.40 637.995
1132.50 638.3917
1132.60 638.7884
1132.70 639.1851
1132.80 639.5818
1132.90 639.9785
1133.00 640.3752
1133.10 640.772
1133.20 641.1687
1133.30 641.5654
1133.40 641.9621
1133.50 642.3588
1133.60 642.7555
1133.70 643.1522
1133.80 643.5489
1133.90 643.9457
1134.00 644.3424
1134.10 644.7391
1134.20 645.1358
1134.30 645.5325
1134.40 645.9292
1134.50 646.3259
1134.60 646.7227
1134.70 647.1194
1134.80 647.5161
1134.90 647.9128
1135.00 648.3095
1135.10 648.7062
1135.20 649.1029
1135.30 649.6116
1135.40 650.2882
1135.50 650.9648
1135.60 651.6414
1135.70 652.3179
1135.80 652.9945
1135.90 653.6711
1136.00 654.3477
1136.10 655.0243
1136.20 655.7009
1136.30 656.3775
1136.40 657.054
1136.50 657.4809
1136.60 657.3251
1136.70 657.1693
1136.80 657.0134
1136.90 656.8576
1137.00 656.7018
1137.10 656.546
1137.20 656.3902
1137.30 656.2343
1137.40 656.0785
1137.50 655.9227
1137.60 655.7669
1137.70 655.611
1137.80 655.4552
1137.90 655.2994
1138.00 655.1436
1138.10 654.9878
1138.20 654.8319
1138.30 654.6761
1138.40 654.5203
1138.50 654.3645
1138.60 654.2086
1138.70 654.0528
1138.80 653.897
1138.90 653.7412
1139.00 653.5854
1139.10 653.4295
1139.20 653.2737
1139.30 653.1179
1139.40 652.9621
1139.50 652.8025
1139.60 652.6372
1139.70 652.4719
1139.80 652.3066
1139.90 652.1413
1140.00 651.976
1140.10 651.8107
1140.20 651.6454
1140.30 651.4801
1140.40 651.3148
1140.50 651.1495
1140.60 650.9842
1140.70 650.8834
1140.80 650.9333
1140.90 650.9832
1141.00 651.0331
1141.10 651.083
1141.20 651.1329
1141.30 651.1828
1141.40 651.2327
1141.50 651.2825
1141.60 651.3324
1141.70 651.3823
1141.80 651.4322
1141.90 651.4821
1142.00 651.532
1142.10 651.5819
1142.20 651.6318
1142.30 651.6817
1142.40 651.7316
1142.50 651.7815
1142.60 651.8313
1142.70 651.8812
1142.80 651.9311
1142.90 651.981
1143.00 652.0309
1143.10 652.0808
1143.20 652.1307
1143.30 652.1806
1143.40 652.2305
1143.50 652.2804
1143.60 652.3303
1143.70 652.4119
1143.80 652.5413
1143.90 652.6707
1144.00 652.8001
1144.10 652.9295
1144.20 653.0588
1144.30 653.1882
1144.40 653.3176
1144.50 653.447
1144.60 653.5764
1144.70 653.7057
1144.80 653.8351
1144.90 654.0709
1145.00 654.7325
1145.10 655.3941
1145.20 656.0557
1145.30 656.7173
1145.40 657.3789
1145.50 658.0405
1145.60 658.7021
1145.70 659.3636
1145.80 660.0252
1145.90 660.6868
1146.00 661.3484
1146.10 662.01
1146.20 662.6716
1146.30 663.3332
1146.40 663.9948
1146.50 664.6563
1146.60 665.3179
1146.70 665.9795
1146.80 666.6411
1146.90 667.3027
1147.00 667.9643
1147.10 668.6259
1147.20 669.2874
1147.30 669.949
1147.40 670.6106
1147.50 671.2722
1147.60 671.9338
1147.70 672.5954
1147.80 673.257
1147.90 673.879
1148.00 674.3426
1148.10 674.8063
1148.20 675.2699
1148.30 675.7335
1148.40 676.1972
1148.50 676.6608
1148.60 677.1245
1148.70 677.5881
1148.80 678.0517
1148.90 678.5154
1149.00 678.979
1149.10 679.4427
1149.20 679.8879
1149.30 680.3332
1149.40 680.7784
1149.50 681.2237
1149.60 681.6689
1149.70 682.1142
1149.80 682.5595
1149.90 683.0047
1150.00 683.45
1150.10 683.8952
1150.20 684.3405
1150.30 684.7857
1150.40 685.231
1150.50 685.6762
1150.60 686.1215
1150.70 686.5667
1150.80 687.012
1150.90 687.4573
1151.00 687.9025
1151.10 688.3478
1151.20 688.793
1151.30 689.2383
1151.40 689.6835
1151.50 690.1288
1151.60 690.574
1151.70 691.0193
1151.80 691.4645
1151.90 691.9098
1152.00 692.3551
1152.10 692.7833
1152.20 693.0583
1152.30 693.3334
1152.40 693.6084
1152.50 693.8834
1152.60 694.1585
1152.70 694.4335
1152.80 694.7085
1152.90 694.9836
1153.00 695.2586
1153.10 695.5336
1153.20 695.8087
1153.30 696.0837
1153.40 696.0908
1153.50 696.031
1153.60 695.9711
1153.70 695.9112
1153.80 695.8514
1153.90 695.7915
1154.00 695.7317
1154.10 695.6718
1154.20 695.612
1154.30 695.5521
1154.40 695.4922
1154.50 695.4324
1154.60 695.3725
1154.70 695.3127
1154.80 695.2528
1154.90 695.193
1155.00 695.1331
1155.10 695.0732
1155.20 695.0134
1155.30 694.9535
1155.40 694.8937
1155.50 694.8338
1155.60 694.774
1155.70 694.7141
1155.80 694.6542
1155.90 694.5944
1156.00 694.5345
1156.10 694.4747
1156.20 694.4148
1156.30 694.355
1156.40 694.2816
1156.50 694.2049
1156.60 694.1282
1156.70 694.0515
1156.80 693.9747
1156.90 693.898
1157.00 693.8213
1157.10 693.7446
1157.20 693.6679
1157.30 693.5912
1157.40 693.5144
1157.50 693.4377
1157.60 693.4554
1157.70 693.5359
1157.80 693.6165
1157.90 693.6971
1158.00 693.7776
1158.10 693.8582
1158.20 693.9388
1158.30 694.0193
1158.40 694.0999
1158.50 694.1804
1158.60 694.261
1158.70 694.3416
1158.80 694.4221
1158.90 694.5027
1159.00 694.5832
1159.10 694.6638
1159.20 694.7444
1159.30 694.8249
1159.40 694.9055
1159.50 694.9861
1159.60 695.0666
1159.70 695.1472
1159.80 695.2277
1159.90 695.3083
1160.00 695.3889
1160.10 695.4694
1160.20 695.55
1160.30 695.6305
1160.40 695.7111
1160.50 695.7917
1160.60 695.7225
1160.70 695.5035
1160.80 695.2845
1160.90 695.0655
1161.00 694.8466
1161.10 694.6276
1161.20 694.4086
1161.30 694.1896
1161.40 693.9707
1161.50 693.7517
1161.60 693.5327
1161.70 693.3138
1161.80 693.0731
1161.90 692.746
1162.00 692.4189
1162.10 692.0917
1162.20 691.7646
1162.30 691.4374
1162.40 691.1103
1162.50 690.7831
1162.60 690.456
1162.70 690.1288
1162.80 689.8017
1162.90 689.4745
1163.00 689.1474
1163.10 688.8202
1163.20 688.4931
1163.30 688.166
1163.40 687.8388
1163.50 687.5117
1163.60 687.1845
1163.70 686.8574
1163.80 686.5302
1163.90 686.2031
1164.00 685.8759
1164.10 685.5488
1164.20 685.2216
1164.30 684.8945
1164.40 684.5673
1164.50 684.2402
1164.60 683.9131
1164.70 683.5859
1164.80 683.2887
1164.90 683.2609
1165.00 683.233
1165.10 683.2052
1165.20 683.1773
1165.30 683.1495
1165.40 683.1217
1165.50 683.0938
1165.60 683.066
1165.70 683.0382
1165.80 683.0103
1165.90 682.9825
1166.00 682.9546
1166.10 682.5118
1166.20 682.0229
1166.30 681.534
1166.40 681.0451
1166.50 680.5562
1166.60 680.0673
1166.70 679.5784
1166.80 679.0895
1166.90 678.6005
1167.00 678.1116
1167.10 677.6227
1167.20 677.1338
1167.30 676.6449
1167.40 676.156
1167.50 675.6671
1167.60 675.1782
1167.70 674.6892
1167.80 674.2003
1167.90 673.7114
1168.00 673.2225
1168.10 672.7336
1168.20 672.2447
1168.30 671.7558
1168.40 671.2669
1168.50 670.7779
1168.60 670.289
1168.70 669.8001
1168.80 669.3112
1168.90 668.8223
1169.00 668.3334
1169.10 668.0092
1169.20 667.7555
1169.30 667.5019
1169.40 667.2483
1169.50 666.9947
1169.60 666.741
1169.70 666.4874
1169.80 666.2338
1169.90 665.9802
1170.00 665.7265
1170.10 665.4729
1170.20 665.2193
1170.30 665.0117
1170.40 664.873
1170.50 664.7343
1170.60 664.5957
1170.70 664.457
1170.80 664.3183
1170.90 664.1797
1171.00 664.041
1171.10 663.9023
1171.20 663.7636
1171.30 663.625
1171.40 663.4863
1171.50 663.3476
1171.60 663.209
1171.70 663.0703
1171.80 662.9316
1171.90 662.793
1172.00 662.6543
1172.10 662.5156
1172.20 662.377
1172.30 662.2383
1172.40 662.0996
1172.50 661.961
1172.60 661.8223
1172.70 661.6836
1172.80 661.545
1172.90 661.4063
1173.00 661.2676
1173.10 661.129
1173.20 660.9903
1173.30 660.8423
1173.40 660.6572
1173.50 660.472
1173.60 660.2868
1173.70 660.1016
1173.80 659.9164
1173.90 659.7312
1174.00 659.546
1174.10 659.3609
1174.20 659.1757
1174.30 658.9905
1174.40 658.8053
1174.50 658.6201
1174.60 658.623
1174.70 658.6468
1174.80 658.6706
1174.90 658.6944
1175.00 658.7182
1175.10 658.742
1175.20 658.7658
1175.30 658.7896
1175.40 658.8133
1175.50 658.8371
1175.60 658.8609
1175.70 658.8847
1175.80 658.9085
1175.90 658.9323
1176.00 658.9561
1176.10 658.9799
1176.20 659.0037
1176.30 659.0275
1176.40 659.0513
1176.50 659.075
1176.60 659.0988
1176.70 659.1226
1176.80 659.1464
1176.90 659.1702
1177.00 659.194
1177.10 659.2178
1177.20 659.2416
1177.30 659.2654
1177.40 659.2892
1177.50 659.313
1177.60 659.5441
1177.70 659.8641
1177.80 660.1842
1177.90 660.5042
1178.00 660.8242
1178.10 661.1442
1178.20 661.4642
1178.30 661.7843
1178.40 662.1043
1178.50 662.4243
1178.60 662.7443
1178.70 663.0643
1178.80 663.4923
1178.90 664.0821
1179.00 664.672
1179.10 665.2618
1179.20 665.8517
1179.30 666.4415
1179.40 667.0314
1179.50 667.6212
1179.60 668.2111
1179.70 668.8009
1179.80 669.3907
1179.90 669.9806
1180.00 670.5704
1180.10 671.1603
1180.20 671.7501
1180.30 672.34
1180.40 672.9298
1180.50 673.5197
1180.60 674.1095
1180.70 674.6994
1180.80 675.2892
1180.90 675.8791
1181.00 676.4689
1181.10 677.0587
1181.20 677.6486
1181.30 678.2384
1181.40 678.8283
1181.50 679.4181
1181.60 680.008
1181.70 680.5978
1181.80 681.1759
1181.90 681.6477
1182.00 682.1196
1182.10 682.5914
1182.20 683.0632
1182.30 683.5351
1182.40 684.0069
1182.50 684.4788
1182.60 684.9506
1182.70 685.4225
1182.80 685.8943
1182.90 686.3661
1183.00 686.838
1183.10 687.0514
1183.20 687.2003
1183.30 687.3492
1183.40 687.498
1183.50 687.6469
1183.60 687.7957
1183.70 687.9446
1183.80 688.0935
1183.90 688.2423
1184.00 688.3912
1184.10 688.54
1184.20 688.6889
1184.30 688.8378
1184.40 688.9866
1184.50 689.1355
1184.60 689.2843
1184.70 689.4332
1184.80 689.5821
1184.90 689.7309
1185.00 689.8798
1185.10 690.0286
1185.20 690.1775
1185.30 690.3264
1185.40 690.4752
1185.50 690.6241
1185.60 690.7729
1185.70 690.9218
1185.80 691.0707
1185.90 691.2195
1186.00 691.3684
1186.10 691.4552
1186.20 691.48
1186.30 691.5048
1186.40 691.5297
1186.50 691.5545
1186.60 691.5793
1186.70 691.6041
1186.80 691.6289
1186.90 691.6537
1187.00 691.6785
1187.10 691.7033
1187.20 691.7281
1187.30 691.8564
1187.40 692.3984
1187.50 692.9404
1187.60 693.4825
1187.70 694.0245
1187.80 694.5665
1187.90 695.1086
1188.00 695.6506
1188.10 696.1926
1188.20 696.7347
1188.30 697.2767
1188.40 697.8187
1188.50 698.3607
1188.60 698.9028
1188.70 699.4448
1188.80 699.9868
1188.90 700.5289
1189.00 701.0709
1189.10 701.6129
1189.20 702.155
1189.30 702.697
1189.40 703.239
1189.50 703.7811
1189.60 704.3231
1189.70 704.8651
1189.80 705.4072
1189.90 705.9492
1190.00 706.4912
1190.10 707.0332
1190.20 707.5753
1190.30 708.1173
1190.40 708.5361
1190.50 708.9412
1190.60 709.3462
1190.70 709.7513
1190.80 710.1564
1190.90 710.5615
1191.00 710.9665
1191.10 711.3716
1191.20 711.7767
1191.30 712.1818
1191.40 712.5868
1191.50 712.9919
1191.60 713.2081
1191.70 713.2354
1191.80 713.2628
1191.90 713.2901
1192.00 713.3174
1192.10 713.3448
1192.20 713.3721
1192.30 713.3994
1192.40 713.4267
1192.50 713.4541
1192.60 713.4814
1192.70 713.5087
1192.80 713.5361
1192.90 713.5634
1193.00 713.5907
1193.10 713.618
1193.20 713.6454
1193.30 713.6727
1193.40 713.7
1193.50 713.7274
1193.60 713.7547
1193.70 713.782
1193.80 713.8093
1193.90 713.8367
1194.00 713.864
1194.10 713.8913
1194.20 713.9187
1194.30 713.946
1194.40 713.9733
1194.50 714.0006
1194.60 714.0364
1194.70 714.1484
1194.80 714.2604
1194.90 714.3724
1195.00 714.4844
1195.10 714.5964
1195.20 714.7084
1195.30 714.8204
1195.40 714.9323
1195.50 715.0443
1195.60 715.1563
1195.70 715.2683
1195.80 715.3803
1195.90 715.4764
1196.00 715.5685
1196.10 715.6607
1196.20 715.7528
1196.30 715.845
1196.40 715.9371
1196.50 716.0292
1196.60 716.1214
1196.70 716.2135
1196.80 716.3057
1196.90 716.3978
1197.00 716.4899
1197.10 716.5821
1197.20 716.6742
1197.30 716.7664
1197.40 716.8585
1197.50 716.9506
1197.60 717.0428
1197.70 717.1349
1197.80 717.2271
1197.90 717.3192
1198.00 717.4113
1198.10 717.5035
1198.20 717.5956
1198.30 717.6878
1198.40 717.7799
1198.50 717.872
1198.60 717.9642
1198.70 718.0563
1198.80 718.1485
1198.90 718.1685
1199.00 718.0804
1199.10 717.9923
1199.20 717.9042
1199.30 717.8161
1199.40 717.728
1199.50 717.6399
1199.60 717.5518
1199.70 717.4637
1199.80 717.3756
1199.90 717.2875
1200.00 717.1994
1200.10 717.1113
1200.20 716.7601
1200.30 716.4089
1200.40 716.0578
1200.50 715.7066
1200.60 715.3554
1200.70 715.0042
1200.80 714.6531
1200.90 714.3019
1201.00 713.9507
1201.10 713.5996
1201.20 713.2484
1201.30 712.8972
1201.40 712.546
1201.50 712.1949
1201.60 711.8437
1201.70 711.4925
1201.80 711.1414
1201.90 710.7902
1202.00 710.439
1202.10 710.0878
1202.20 709.7367
1202.30 709.3855
1202.40 709.0343
1202.50 708.6832
1202.60 708.332
1202.70 707.9808
1202.80 707.6296
1202.90 707.2785
1203.00 706.9273
1203.10 706.5761
1203.20 706.5721
1203.30 706.7996
1203.40 707.0271
1203.50 707.2546
1203.60 707.4821
1203.70 707.7096
1203.80 707.9371
1203.90 708.1646
1204.00 708.3921
1204.10 708.6196
1204.20 708.8471
1204.30 709.0746
1204.40 709.3918
1204.50 710.0681
1204.60 710.7443
1204.70 711.4206
1204.80 712.0968
1204.90 712.7731
1205.00 713.4493
1205.10 714.1256
1205.20 714.8018
1205.30 715.4781
1205.40 716.1543
1205.50 716.8305
1205.60 717.5068
1205.70 718.183
1205.80 718.8593
1205.90 719.5355
1206.00 720.2118
1206.10 720.888
1206.20 721.5643
1206.30 722.2405
1206.40 722.9168
1206.50 723.593
1206.60 724.2693
1206.70 724.9455
1206.80 725.6218
1206.90 726.298
1207.00 726.9743
1207.10 727.6505
1207.20 728.3268
1207.30 729.003
1207.40 729.6792
1207.50 730.1512
1207.60 730.5721
1207.70 730.993
1207.80 731.4139
1207.90 731.8348
1208.00 732.2557
1208.10 732.6766
1208.20 733.0975
1208.30 733.5184
1208.40 733.9393
1208.50 734.3602
1208.60 734.7811
1208.70 735.3153
1208.80 736.0194
1208.90 736.7236
1209.00 737.4277
1209.10 738.1318
1209.20 738.836
1209.30 739.5401
1209.40 740.2443
1209.50 740.9484
1209.60 741.6525
1209.70 742.3567
1209.80 743.0608
1209.90 743.765
1210.00 744.4691
1210.10 745.1732
1210.20 745.8774
1210.30 746.5815
1210.40 747.2857
1210.50 747.9898
1210.60 748.6939
1210.70 749.3981
1210.80 750.1022
1210.90 750.8064
1211.00 751.5105
1211.10 752.2146
1211.20 752.9188
1211.30 753.6229
1211.40 754.3271
1211.50 755.0312
1211.60 755.7353
1211.70 756.4395
1211.80 757.3159
1211.90 758.2114
1212.00 759.1069
1212.10 760.0025
1212.20 760.898
1212.30 761.7936
1212.40 762.6891
1212.50 763.5846
1212.60 764.4802
1212.70 765.3757
1212.80 766.2712
1212.90 767.1668
1213.00 767.8621
1213.10 768.3571
1213.20 768.8522
1213.30 769.3473
1213.40 769.8423
1213.50 770.3374
1213.60 770.8325
1213.70 771.3275
1213.80 771.8226
1213.90 772.3176
1214.00 772.8127
1214.10 773.3078
1214.20 773.8028
1214.30 774.2979
1214.40 774.793
1214.50 775.288
1214.60 775.7831
1214.70 776.2781
1214.80 776.7732
1214.90 777.2683
1215.00 777.7633
1215.10 778.2584
1215.20 778.7535
1215.30 779.2485
1215.40 779.7436
1215.50 780.2386
1215.60 780.7337
1215.70 781.2288
1215.80 781.7238
1215.90 782.2189
1216.00 782.714
1216.10 782.7082
1216.20 782.7025
1216.30 782.6967
1216.40 782.691
1216.50 782.6852
1216.60 782.6795
1216.70 782.6737
1216.80 782.668
1216.90 782.6622
1217.00 782.6565
1217.10 782.6507
1217.20 782.645
1217.30 782.655
1217.40 782.6755
1217.50 782.696
1217.60 782.7166
1217.70 782.7371
1217.80 782.7576
1217.90 782.7781
1218.00 782.7987
1218.10 782.8192
1218.20 782.8397
1218.30 782.8602
1218.40 782.8808
1218.50 782.9013
1218.60 782.9218
1218.70 782.9423
1218.80 782.9629
1218.90 782.9834
1219.00 783.0039
1219.10 783.0244
1219.20 783.045
1219.30 783.0655
1219.40 783.086
1219.50 783.1065
1219.60 783.1271
1219.70 783.1476
1219.80 783.1681
1219.90 783.1886
1220.00 783.2092
1220.10 783.2297
1220.20 783.2502
1220.30 783.3028
1220.40 783.6446
1220.50 783.9863
1220.60 784.328
1220.70 784.6697
1220.80 785.0114
1220.90 785.3531
1221.00 785.6948
1221.10 786.0365
1221.20 786.3782
1221.30 786.7199
1221.40 787.0616
1221.50 787.4033
1221.60 787.857
1221.70 788.3587
1221.80 788.8603
1221.90 789.362
1222.00 789.8637
1222.10 790.3653
1222.20 790.867
1222.30 791.3687
1222.40 791.8704
1222.50 792.372
1222.60 792.8737
1222.70 793.3754
1222.80 793.877
1222.90 794.3787
1223.00 794.8804
1223.10 795.382
1223.20 795.8837
1223.30 796.3854
1223.40 796.887
1223.50 797.3887
1223.60 797.8904
1223.70 798.392
1223.80 798.8937
1223.90 799.3954
1224.00 799.897
1224.10 800.3987
1224.20 800.9004
1224.30 801.402
1224.40 801.9037
1224.50 802.4054
1224.60 802.8581
1224.70 803.1154
1224.80 803.3726
1224.90 803.6299
1225.00 803.8871
1225.10 804.1444
1225.20 804.4016
1225.30 804.6589
1225.40 804.9161
1225.50 805.1734
1225.60 805.4306
1225.70 805.6879
1225.80 805.9451
1225.90 805.9828
1226.00 805.9263
1226.10 805.8699
1226.20 805.8134
1226.30 805.7569
1226.40 805.7005
1226.50 805.644
1226.60 805.5876
1226.70 805.5311
1226.80 805.4746
1226.90 805.4182
1227.00 805.3617
1227.10 805.3053
1227.20 805.2488
1227.30 805.1923
1227.40 805.1359
1227.50 805.0794
1227.60 805.023
1227.70 804.9665
1227.80 804.91
1227.90 804.8536
1228.00 804.7971
1228.10 804.7406
1228.20 804.6842
1228.30 804.6277
1228.40 804.5713
1228.50 804.5148
1228.60 804.4583
1228.70 804.4019
1228.80 804.3454
1228.90 804.2684
1229.00 804.109
1229.10 803.9497
1229.20 803.7903
1229.30 803.631
1229.40 803.4717
1229.50 803.3123
1229.60 803.153
1229.70 802.9936
1229.80 802.8343
1229.90 802.6749
1230.00 802.5156
1230.10 802.3562
1230.20 802.4515
1230.30 802.6104
1230.40 802.7692
1230.50 802.9281
1230.60 803.087
1230.70 803.2459
1230.80 803.4047
1230.90 803.5636
1231.00 803.7225
1231.10 803.8814
1231.20 804.0403
1231.30 804.1991
1231.40 804.358
1231.50 804.5169
1231.60 804.6758
1231.70 804.8347
1231.80 804.9935
1231.90 805.1524
1232.00 805.3113
1232.10 805.4702
1232.20 805.6291
1232.30 805.7879
1232.40 805.9468
1232.50 806.1057
1232.60 806.2646
1232.70 806.4235
1232.80 806.5823
1232.90 806.7412
1233.00 806.9001
1233.10 807.059
1233.20 807.2021
1233.30 807.2819
1233.40 807.3618
1233.50 807.4417
1233.60 807.5215
1233.70 807.6014
1233.80 807.6813
1233.90 807.7611
1234.00 807.841
1234.10 807.9209
1234.20 808.0007
1234.30 808.0806
1234.40 808.1605
1234.50 808.0947
1234.60 807.9665
1234.70 807.8384
1234.80 807.7102
1234.90 807.582
1235.00 807.4538
1235.10 807.3257
1235.20 807.1975
1235.30 807.0693
1235.40 806.9412
1235.50 806.813
1235.60 806.6848
1235.70 806.5566
1235.80 806.4285
1235.90 806.3003
1236.00 806.1721
1236.10 806.044
1236.20 805.9158
1236.30 805.7876
1236.40 805.6594
1236.50 805.5313
1236.60 805.4031
1236.70 805.2749
1236.80 805.1468
1236.90 805.0186
1237.00 804.8904
1237.10 804.7622
1237.20 804.6341
1237.30 804.5059
1237.40 804.3777
1237.50 804.2527
1237.60 804.1404
1237.70 804.0281
1237.80 803.9158
1237.90 803.8035
1238.00 803.6912
1238.10 803.5789
1238.20 803.4666
1238.30 803.3543
1238.40 803.242
1238.50 803.1297
1238.60 803.0174
1238.70 802.9051
1238.80 802.5734
1238.90 802.1477
1239.00 801.722
1239.10 801.2964
1239.20 800.8707
1239.30 800.445
1239.40 800.0193
1239.50 799.5936
1239.60 799.168
1239.70 798.7423
1239.80 798.3166
1239.90 797.8909
1240.00 797.4652
1240.10 797.0395
1240.20 796.6139
1240.30 796.1882
1240.40 795.7625
1240.50 795.3368
1240.60 794.9111
1240.70 794.4855
1240.80 794.0598
1240.90 793.6341
1241.00 793.2084
1241.10 792.7827
1241.20 792.3571
1241.30 791.9314
1241.40 791.5057
1241.50 791.08
1241.60 790.6543
1241.70 790.2286
1241.80 789.8272
1241.90 789.6434
1242.00 789.4597
1242.10 789.276
1242.20 789.0922
1242.30 788.9085
1242.40 788.7248
1242.50 788.5411
1242.60 788.3573
1242.70 788.1736
1242.80 787.9899
1242.90 787.8061
1243.00 787.6224
1243.10 787.6147
1243.20 787.6824
1243.30 787.7502
1243.40 787.8179
1243.50 787.8856
1243.60 787.9533
1243.70 788.0211
1243.80 788.0888
1243.90 788.1565
1244.00 788.2242
1244.10 788.292
1244.20 788.3597
1244.30 788.4274
1244.40 788.4951
1244.50 788.5628
1244.60 788.6306
1244.70 788.6983
1244.80 788.766
1244.90 788.8337
1245.00 788.9015
1245.10 788.9692
1245.20 789.0369
1245.30 789.1046
1245.40 789.1724
1245.50 789.2401
1245.60 789.3078
1245.70 789.3755
1245.80 789.4433
1245.90 789.511
1246.00 789.5787
1246.10 789.6464
1246.20 790.0887
1246.30 790.531
1246.40 790.9733
1246.50 791.4155
1246.60 791.8578
1246.70 792.3001
1246.80 792.7423
1246.90 793.1846
1247.00 793.6269
1247.10 794.0692
1247.20 794.5114
1247.30 794.9537
1247.40 795.3007
1247.50 795.5841
1247.60 795.8676
1247.70 796.151
1247.80 796.4345
1247.90 796.7179
1248.00 797.0013
1248.10 797.2848
1248.20 797.5682
1248.30 797.8517
1248.40 798.1351
1248.50 798.4185
1248.60 798.702
1248.70 798.9854
1248.80 799.2689
1248.90 799.5523
1249.00 799.8357
1249.10 800.1192
1249.20 800.4026
1249.30 800.6861
1249.40 800.9695
1249.50 801.2529
1249.60 801.5364
1249.70 801.8198
1249.80 802.1033
1249.90 802.3867
1250.00 802.6702
1250.10 802.9536
1250.20 803.237
1250.30 803.5205
1250.40 803.8039
1250.50 803.9717
1250.60 804.1396
1250.70 804.3074
1250.80 804.4752
1250.90 804.643
1251.00 804.8109
1251.10 804.9787
1251.20 805.1465
1251.30 805.3143
1251.40 805.4822
1251.50 805.65
1251.60 805.8178
1251.70 806.1395
1251.80 806.615
1251.90 807.0905
1252.00 807.566
1252.10 808.0416
1252.20 808.5171
1252.30 808.9926
1252.40 809.4681
1252.50 809.9436
1252.60 810.4192
1252.70 810.8947
1252.80 811.3702
1252.90 811.8457
1253.00 812.3213
1253.10 812.7968
1253.20 813.2723
1253.30 813.7478
1253.40 814.2233
1253.50 814.6989
1253.60 815.1744
1253.70 815.6499
1253.80 816.1254
1253.90 816.601
1254.00 817.0765
1254.10 817.552
1254.20 818.0275
1254.30 818.503
1254.40 818.9786
1254.50 819.4541
1254.60 819.9296
1254.70 820.4051
1254.80 820.7018
1254.90 820.9785
1255.00 821.2553
1255.10 821.532
1255.20 821.8088
1255.30 822.0855
1255.40 822.3623
1255.50 822.6391
1255.60 822.9158
1255.70 823.1926
1255.80 823.4693
1255.90 823.7461
1256.00 823.9598
1256.10 824.0789
1256.20 824.1979
1256.30 824.317
1256.40 824.4361
1256.50 824.5552
1256.60 824.6743
1256.70 824.7933
1256.80 824.9124
1256.90 825.0315
1257.00 825.1506
1257.10 825.2697
1257.20 825.3887
1257.30 825.5078
1257.40 825.6269
1257.50 825.746
1257.60 825.8651
1257.70 825.9841
1257.80 826.1032
1257.90 826.2223
1258.00 826.3414
1258.10 826.4605
1258.20 826.5795
1258.30 826.6986
1258.40 826.8177
1258.50 826.9368
1258.60 827.0559
1258.70 827.1749
1258.80 827.294
1258.90 827.4131
1259.00 827.5322
1259.10 828.0797
1259.20 828.8107
1259.30 829.5418
1259.40 830.2729
1259.50 831.004
1259.60 831.7351
1259.70 832.4662
1259.80 833.1972
1259.90 833.9283
1260.00 834.6594
1260.10 835.3905
1260.20 836.1216
1260.30 836.9557
1260.40 838.2019
1260.50 839.4481
1260.60 840.6943
1260.70 841.9405
1260.80 843.1867
1260.90 844.4329
1261.00 845.6791
1261.10 846.9253
1261.20 848.1715
1261.30 849.4177
1261.40 850.6639
1261.50 851.9101
1261.60 853.1563
1261.70 854.4025
1261.80 855.6487
1261.90 856.8949
1262.00 858.1412
1262.10 859.3874
1262.20 860.6336
1262.30 861.8798
1262.40 863.126
1262.50 864.3722
1262.60 865.6184
1262.70 866.8646
1262.80 868.1108
1262.90 869.357
1263.00 870.6032
1263.10 871.8494
1263.20 873.0956
1263.30 874.3418
1263.40 875.2015
1263.50 875.8036
1263.60 876.4057
1263.70 877.0077
1263.80 877.6098
1263.90 878.2119
1264.00 878.814
1264.10 879.416
1264.20 880.0181
1264.30 880.6202
1264.40 881.2222
1264.50 881.8243
1264.60 882.413
1264.70 882.8812
1264.80 883.3493
1264.90 883.8175
1265.00 884.2857
1265.10 884.7539
1265.20 885.222
1265.30 885.6902
1265.40 886.1584
1265.50 886.6266
1265.60 887.0947
1265.70 887.5629
1265.80 888.0311
1265.90 888.4993
1266.00 888.9674
1266.10 889.4356
1266.20 889.9038
1266.30 890.372
1266.40 890.8401
1266.50 891.3083
1266.60 891.7765
1266.70 892.2447
1266.80 892.7128
1266.90 893.181
1267.00 893.6492
1267.10 894.1174
1267.20 894.5855
1267.30 895.0537
1267.40 895.5219
1267.50 895.9901
1267.60 896.4582
1267.70 897.0056
1267.80 897.6716
1267.90 898.3376
1268.00 899.0037
1268.10 899.6697
1268.20 900.3357
1268.30 901.0017
1268.40 901.6678
1268.50 902.3338
1268.60 902.9998
1268.70 903.6659
1268.80 904.3319
1268.90 904.9979
1269.00 905.6231
1269.10 906.2483
1269.20 906.8734
1269.30 907.4986
1269.40 908.1237
1269.50 908.7489
1269.60 909.374
1269.70 909.9992
1269.80 910.6244
1269.90 911.2495
1270.00 911.8747
1270.10 912.4998
1270.20 913.125
1270.30 913.7501
1270.40 914.3753
1270.50 915.0004
1270.60 915.6256
1270.70 916.2508
1270.80 916.8759
1270.90 917.5011
1271.00 918.1262
1271.10 918.7514
1271.20 919.3765
1271.30 920.0017
1271.40 920.6269
1271.50 921.252
1271.60 921.8772
1271.70 922.5023
1271.80 923.1275
1271.90 923.7526
1272.00 924.1304
1272.10 923.9311
1272.20 923.7318
1272.30 923.5324
1272.40 923.3331
1272.50 923.1337
1272.60 922.9344
1272.70 922.735
1272.80 922.5357
1272.90 922.3363
1273.00 922.137
1273.10 921.9376
1273.20 921.7383
1273.30 921.4714
1273.40 921.1877
1273.50 920.9041
1273.60 920.6204
1273.70 920.3367
1273.80 920.053
1273.90 919.7693
1274.00 919.4856
1274.10 919.2019
1274.20 918.9182
1274.30 918.6345
1274.40 918.3508
1274.50 918.0671
1274.60 917.7834
1274.70 917.4997
1274.80 917.216
1274.90 916.9323
1275.00 916.6486
1275.10 916.3649
1275.20 916.0812
1275.30 915.7975
1275.40 915.5138
1275.50 915.2301
1275.60 914.9464
1275.70 914.6627
1275.80 914.379
1275.90 914.0953
1276.00 913.8116
1276.10 913.5279
1276.20 913.2442
1276.30 913.0376
1276.40 913.5241
1276.50 914.0106
1276.60 914.4972
1276.70 914.9837
1276.80 915.4702
1276.90 915.9568
1277.00 916.4433
1277.10 916.9299
1277.20 917.4164
1277.30 917.9029
1277.40 918.3895
1277.50 918.876
1277.60 919.2795
1277.70 919.6277
1277.80 919.976
1277.90 920.3242
1278.00 920.6724
1278.10 921.0206
1278.20 921.3688
1278.30 921.717
1278.40 922.0652
1278.50 922.4134
1278.60 922.7616
1278.70 923.1098
1278.80 923.458
1278.90 923.8063
1279.00 924.1545
1279.10 924.5027
1279.20 924.8509
1279.30 925.1991
1279.40 925.5473
1279.50 925.8955
1279.60 926.2437
1279.70 926.5919
1279.80 926.9401
1279.90 927.2883
1280.00 927.6366
1280.10 927.9848
1280.20 928.333
1280.30 928.6812
1280.40 929.0294
1280.50 929.3776
1280.60 929.7258
1280.70 929.7778
1280.80 929.8298
1280.90 929.8818
1281.00 929.9338
1281.10 929.9858
1281.20 930.0378
1281.30 930.0897
1281.40 930.1417
1281.50 930.1937
1281.60 930.2457
1281.70 930.2977
1281.80 930.3497
1281.90 930.2697
1282.00 930.0578
1282.10 929.8459
1282.20 929.634
1282.30 929.4221
1282.40 929.2102
1282.50 928.9983
1282.60 928.7864
1282.70 928.5745
1282.80 928.3626
1282.90 928.1507
1283.00 927.9388
1283.10 927.7269
1283.20 927.515
1283.30 927.3031
1283.40 927.0912
1283.50 926.8793
1283.60 926.6674
1283.70 926.4555
1283.80 926.2436
1283.90 926.0317
1284.00 925.8198
1284.10 925.6079
1284.20 925.3959
1284.30 925.184
1284.40 924.9721
1284.50 924.7602
1284.60 924.5483
1284.70 924.3364
1284.80 924.1245
1284.90 923.9126
1285.00 923.8225
1285.10 923.7627
1285.20 923.703
1285.30 923.6433
1285.40 923.5836
1285.50 923.5239
1285.60 923.4642
1285.70 923.4045
1285.80 923.3447
1285.90 923.285
1286.00 923.2253
1286.10 923.1656
1286.20 923.2035
1286.30 923.4692
1286.40 923.735
1286.50 924.0007
1286.60 924.2664
1286.70 924.5321
1286.80 924.7978
1286.90 925.0636
1287.00 925.3293
1287.10 925.595
1287.20 925.8607
1287.30 926.1264
1287.40 926.3922
1287.50 926.6579
1287.60 926.9236
1287.70 927.1893
1287.80 927.4551
1287.90 927.7208
1288.00 927.9865
1288.10 928.2522
1288.20 928.5179
1288.30 928.7837
1288.40 929.0494
1288.50 929.3151
1288.60 929.5808
1288.70 929.8465
1288.80 930.1123
1288.90 930.378
1289.00 930.6437
1289.10 930.9094
1289.20 931.1752
1289.30 931.3303
1289.40 931.4117
1289.50 931.4932
1289.60 931.5746
1289.70 931.656
1289.80 931.7374
1289.90 931.8189
1290.00 931.9003
1290.10 931.9817
1290.20 932.0632
1290.30 932.1446
1290.40 932.226
1290.50 932.2762
1290.60 932.0455
1290.70 931.8147
1290.80 931.5839
1290.90 931.3531
1291.00 931.1224
1291.10 930.8916
1291.20 930.6608
1291.30 930.43
1291.40 930.1993
1291.50 929.9685
1291.60 929.7377
1291.70 929.507
1291.80 929.2762
1291.90 929.0454
1292.00 928.8146
1292.10 928.5839
1292.20 928.3531
1292.30 928.1223
1292.40 927.8915
1292.50 927.6608
1292.60 927.43
1292.70 927.1992
1292.80 926.9684
1292.90 926.7377
1293.00 926.5069
1293.10 926.2761
1293.20 926.0454
1293.30 925.8146
1293.40 925.5838
1293.50 925.353
1293.60 925.1274
1293.70 924.9096
1293.80 924.6918
1293.90 924.474
1294.00 924.2561
1294.10 924.0383
1294.20 923.8205
1294.30 923.6027
1294.40 923.3849
1294.50 923.167
1294.60 922.9492
1294.70 922.7314
1294.80 922.5136
1294.90 922.5108
1295.00 922.532
1295.10 922.5532
1295.20 922.5744
1295.30 922.5956
1295.40 922.6168
1295.50 922.638
1295.60 922.6592
1295.70 922.6804
1295.80 922.7016
1295.90 922.7228
1296.00 922.744
1296.10 922.7652
1296.20 922.7863
1296.30 922.8075
1296.40 922.8287
1296.50 922.8499
1296.60 922.8711
1296.70 922.8923
1296.80 922.9135
1296.90 922.9347
1297.00 922.9559
1297.10 922.9771
1297.20 922.9983
1297.30 923.0195
1297.40 923.0406
1297.50 923.0618
1297.60 923.083
1297.70 923.1042
1297.80 923.1254
1297.90 923.1343
1298.00 923.094
1298.10 923.0537
1298.20 923.0134
1298.30 922.9731
1298.40 922.9328
1298.50 922.8925
1298.60 922.8523
1298.70 922.812
1298.80 922.7717
1298.90 922.7314
1299.00 922.6911
1299.10 922.6508
1299.20 922.3718
1299.30 921.9906
1299.40 921.6094
1299.50 921.2281
1299.60 920.8469
1299.70 920.4656
1299.80 920.0844
1299.90 919.7032
