# Version 2.1 - nm, norm@500 to 1, cut digits
# Wavelength(nm)  Flambda(ergs/cm^s/s/nm)
300.00 1.985202e-95
300.10 1.985202e-95
300.20 1.985202e-95
300.30 1.985202e-95
300.40 1.985202e-95
300.50 1.985202e-95
300.60 1.985202e-95
300.70 1.985202e-95
300.80 1.985202e-95
300.90 1.985202e-95
301.00 1.985202e-95
301.10 1.985202e-95
301.20 1.985202e-95
301.30 1.985202e-95
301.40 1.985202e-95
301.50 1.985202e-95
301.60 1.985202e-95
301.70 1.985202e-95
301.80 1.985202e-95
301.90 1.985202e-95
302.00 1.985202e-95
302.10 1.985202e-95
302.20 1.985202e-95
302.30 1.985202e-95
302.40 1.985202e-95
302.50 1.985202e-95
302.60 1.985202e-95
302.70 1.985202e-95
302.80 1.985202e-95
302.90 1.985202e-95
303.00 1.985202e-95
303.10 1.985202e-95
303.20 1.985202e-95
303.30 1.985202e-95
303.40 1.985202e-95
303.50 1.985202e-95
303.60 1.985202e-95
303.70 1.985202e-95
303.80 1.985202e-95
303.90 1.985202e-95
304.00 1.985202e-95
304.10 1.985202e-95
304.20 1.985202e-95
304.30 1.985202e-95
304.40 1.985202e-95
304.50 1.985202e-95
304.60 1.985202e-95
304.70 1.985202e-95
304.80 1.985202e-95
304.90 1.985202e-95
305.00 1.985202e-95
305.10 1.985202e-95
305.20 1.985202e-95
305.30 1.985202e-95
305.40 1.985202e-95
305.50 1.985202e-95
305.60 1.985202e-95
305.70 1.985202e-95
305.80 1.985202e-95
305.90 1.985202e-95
306.00 1.985202e-95
306.10 1.985202e-95
306.20 1.985202e-95
306.30 1.985202e-95
306.40 1.985202e-95
306.50 1.985202e-95
306.60 1.985202e-95
306.70 1.985202e-95
306.80 1.985202e-95
306.90 1.985202e-95
307.00 1.985202e-95
307.10 1.985202e-95
307.20 1.985202e-95
307.30 1.985202e-95
307.40 1.985202e-95
307.50 1.985202e-95
307.60 1.985202e-95
307.70 1.985202e-95
307.80 1.985202e-95
307.90 1.985202e-95
308.00 1.985202e-95
308.10 1.985202e-95
308.20 1.985202e-95
308.30 1.985202e-95
308.40 1.985202e-95
308.50 1.985202e-95
308.60 1.985202e-95
308.70 1.985202e-95
308.80 1.985202e-95
308.90 1.985202e-95
309.00 1.985202e-95
309.10 1.985202e-95
309.20 1.985202e-95
309.30 1.985202e-95
309.40 1.985202e-95
309.50 1.985202e-95
309.60 1.985202e-95
309.70 1.985202e-95
309.80 1.985202e-95
309.90 1.985202e-95
310.00 1.985202e-95
310.10 1.985202e-95
310.20 1.985202e-95
310.30 1.985202e-95
310.40 1.985202e-95
310.50 1.985202e-95
310.60 1.985202e-95
310.70 1.985202e-95
310.80 1.985202e-95
310.90 1.985202e-95
311.00 1.985202e-95
311.10 1.985202e-95
311.20 1.985202e-95
311.30 1.985202e-95
311.40 1.985202e-95
311.50 1.985202e-95
311.60 1.985202e-95
311.70 1.985202e-95
311.80 1.985202e-95
311.90 1.985202e-95
312.00 1.985202e-95
312.10 1.985202e-95
312.20 1.985202e-95
312.30 1.985202e-95
312.40 1.985202e-95
312.50 1.985202e-95
312.60 1.985202e-95
312.70 1.985202e-95
312.80 1.985202e-95
312.90 1.985202e-95
313.00 1.985202e-95
313.10 1.985202e-95
313.20 1.985202e-95
313.30 1.985202e-95
313.40 1.985202e-95
313.50 1.985202e-95
313.60 1.985202e-95
313.70 1.985202e-95
313.80 1.985202e-95
313.90 1.985202e-95
314.00 1.985202e-95
314.10 1.985202e-95
314.20 1.985202e-95
314.30 1.985202e-95
314.40 1.985202e-95
314.50 1.985202e-95
314.60 1.985202e-95
314.70 1.985202e-95
314.80 1.985202e-95
314.90 1.985202e-95
315.00 1.985202e-95
315.10 1.985202e-95
315.20 1.985202e-95
315.30 1.985202e-95
315.40 1.985202e-95
315.50 1.985202e-95
315.60 1.985202e-95
315.70 1.985202e-95
315.80 1.985202e-95
315.90 1.985202e-95
316.00 1.985202e-95
316.10 1.985202e-95
316.20 1.985202e-95
316.30 1.985202e-95
316.40 1.985202e-95
316.50 1.985202e-95
316.60 1.985202e-95
316.70 1.985202e-95
316.80 1.985202e-95
316.90 1.985202e-95
317.00 1.985202e-95
317.10 1.985202e-95
317.20 1.985202e-95
317.30 1.985202e-95
317.40 1.985202e-95
317.50 1.985202e-95
317.60 1.985202e-95
317.70 1.985202e-95
317.80 1.985202e-95
317.90 1.985202e-95
318.00 1.985202e-95
318.10 1.985202e-95
318.20 1.985202e-95
318.30 1.985202e-95
318.40 1.985202e-95
318.50 1.985202e-95
318.60 1.985202e-95
318.70 1.985202e-95
318.80 1.985202e-95
318.90 1.985202e-95
319.00 1.985202e-95
319.10 1.985202e-95
319.20 1.985202e-95
319.30 1.985202e-95
319.40 1.985202e-95
319.50 1.985202e-95
319.60 1.985202e-95
319.70 1.985202e-95
319.80 1.985202e-95
319.90 1.985202e-95
320.00 1.985202e-95
320.10 1.985202e-95
320.20 1.985202e-95
320.30 1.985202e-95
320.40 1.985202e-95
320.50 1.985202e-95
320.60 1.985202e-95
320.70 1.985202e-95
320.80 1.985202e-95
320.90 1.985202e-95
321.00 1.985202e-95
321.10 1.985202e-95
321.20 1.985202e-95
321.30 1.985202e-95
321.40 1.985202e-95
321.50 1.985202e-95
321.60 1.985202e-95
321.70 1.985202e-95
321.80 1.985202e-95
321.90 1.985202e-95
322.00 1.985202e-95
322.10 1.985202e-95
322.20 1.985202e-95
322.30 1.985202e-95
322.40 1.985202e-95
322.50 1.985202e-95
322.60 1.985202e-95
322.70 1.985202e-95
322.80 1.985202e-95
322.90 1.985202e-95
323.00 1.985202e-95
323.10 1.985202e-95
323.20 1.985202e-95
323.30 1.985202e-95
323.40 1.985202e-95
323.50 1.985202e-95
323.60 1.985202e-95
323.70 1.985202e-95
323.80 1.985202e-95
323.90 1.985202e-95
324.00 1.985202e-95
324.10 1.985202e-95
324.20 1.985202e-95
324.30 1.985202e-95
324.40 1.985202e-95
324.50 1.985202e-95
324.60 1.985202e-95
324.70 1.985202e-95
324.80 1.985202e-95
324.90 1.985202e-95
325.00 1.985202e-95
325.10 1.985202e-95
325.20 1.985202e-95
325.30 1.985202e-95
325.40 1.985202e-95
325.50 1.985202e-95
325.60 1.985202e-95
325.70 1.985202e-95
325.80 1.985202e-95
325.90 1.985202e-95
326.00 1.985202e-95
326.10 1.985202e-95
326.20 1.985202e-95
326.30 1.985202e-95
326.40 1.985202e-95
326.50 1.985202e-95
326.60 1.985202e-95
326.70 1.985202e-95
326.80 1.985202e-95
326.90 1.985202e-95
327.00 1.985202e-95
327.10 1.985202e-95
327.20 1.985202e-95
327.30 1.985202e-95
327.40 1.985202e-95
327.50 1.985202e-95
327.60 1.985202e-95
327.70 1.985202e-95
327.80 1.985202e-95
327.90 1.985202e-95
328.00 1.985202e-95
328.10 1.985202e-95
328.20 1.985202e-95
328.30 1.985202e-95
328.40 1.985202e-95
328.50 1.985202e-95
328.60 1.985202e-95
328.70 1.985202e-95
328.80 1.985202e-95
328.90 1.985202e-95
329.00 1.985202e-95
329.10 1.985202e-95
329.20 1.985202e-95
329.30 1.985202e-95
329.40 1.985202e-95
329.50 1.985202e-95
329.60 1.985202e-95
329.70 1.985202e-95
329.80 1.985202e-95
329.90 1.985202e-95
330.00 1.985202e-95
330.10 1.985202e-95
330.20 1.985202e-95
330.30 1.985202e-95
330.40 1.985202e-95
330.50 1.985202e-95
330.60 1.985202e-95
330.70 1.985202e-95
330.80 1.985202e-95
330.90 1.985202e-95
331.00 1.985202e-95
331.10 1.985202e-95
331.20 1.985202e-95
331.30 1.985202e-95
331.40 1.985202e-95
331.50 1.985202e-95
331.60 1.985202e-95
331.70 1.985202e-95
331.80 1.985202e-95
331.90 1.985202e-95
332.00 1.985202e-95
332.10 1.985202e-95
332.20 1.985202e-95
332.30 1.985202e-95
332.40 1.985202e-95
332.50 1.985202e-95
332.60 1.985202e-95
332.70 1.985202e-95
332.80 1.985202e-95
332.90 1.985202e-95
333.00 1.985202e-95
333.10 1.985202e-95
333.20 1.985202e-95
333.30 1.985202e-95
333.40 1.985202e-95
333.50 1.985202e-95
333.60 1.985202e-95
333.70 1.985202e-95
333.80 1.985202e-95
333.90 1.985202e-95
334.00 1.985202e-95
334.10 1.985202e-95
334.20 1.985202e-95
334.30 1.985202e-95
334.40 1.985202e-95
334.50 1.985202e-95
334.60 1.985202e-95
334.70 1.985202e-95
334.80 1.985202e-95
334.90 1.985202e-95
335.00 1.985202e-95
335.10 1.985202e-95
335.20 1.985202e-95
335.30 1.985202e-95
335.40 1.985202e-95
335.50 1.985202e-95
335.60 1.985202e-95
335.70 1.985202e-95
335.80 1.985202e-95
335.90 1.985202e-95
336.00 1.985202e-95
336.10 1.985202e-95
336.20 1.985202e-95
336.30 1.985202e-95
336.40 1.985202e-95
336.50 1.985202e-95
336.60 1.985202e-95
336.70 1.985202e-95
336.80 1.985202e-95
336.90 1.985202e-95
337.00 1.985202e-95
337.10 1.985202e-95
337.20 1.985202e-95
337.30 1.985202e-95
337.40 1.985202e-95
337.50 1.985202e-95
337.60 1.985202e-95
337.70 1.985202e-95
337.80 1.985202e-95
337.90 1.985202e-95
338.00 1.985202e-95
338.10 1.985202e-95
338.20 1.985202e-95
338.30 1.985202e-95
338.40 1.985202e-95
338.50 1.985202e-95
338.60 1.985202e-95
338.70 1.985202e-95
338.80 1.985202e-95
338.90 1.985202e-95
339.00 1.985202e-95
339.10 1.985202e-95
339.20 1.985202e-95
339.30 1.985202e-95
339.40 1.985202e-95
339.50 1.985202e-95
339.60 1.985202e-95
339.70 1.985202e-95
339.80 1.985202e-95
339.90 1.985202e-95
340.00 1.985202e-95
340.10 1.985202e-95
340.20 1.985202e-95
340.30 1.985202e-95
340.40 1.985202e-95
340.50 1.985202e-95
340.60 1.985202e-95
340.70 1.985202e-95
340.80 1.985202e-95
340.90 1.985202e-95
341.00 1.985202e-95
341.10 1.985202e-95
341.20 1.985202e-95
341.30 1.985202e-95
341.40 1.985202e-95
341.50 1.985202e-95
341.60 1.985202e-95
341.70 1.985202e-95
341.80 1.985202e-95
341.90 1.985202e-95
342.00 1.985202e-95
342.10 1.985202e-95
342.20 1.985202e-95
342.30 1.985202e-95
342.40 1.985202e-95
342.50 1.985202e-95
342.60 1.985202e-95
342.70 1.985202e-95
342.80 1.985202e-95
342.90 1.985202e-95
343.00 1.985202e-95
343.10 1.985202e-95
343.20 1.985202e-95
343.30 1.985202e-95
343.40 1.985202e-95
343.50 1.985202e-95
343.60 1.985202e-95
343.70 1.985202e-95
343.80 1.985202e-95
343.90 1.985202e-95
344.00 1.985202e-95
344.10 1.985202e-95
344.20 1.985202e-95
344.30 1.985202e-95
344.40 1.985202e-95
344.50 1.985202e-95
344.60 1.985202e-95
344.70 1.985202e-95
344.80 1.985202e-95
344.90 1.985202e-95
345.00 1.985202e-95
345.10 1.985202e-95
345.20 1.985202e-95
345.30 1.985202e-95
345.40 1.985202e-95
345.50 1.985202e-95
345.60 1.985202e-95
345.70 1.985202e-95
345.80 1.985202e-95
345.90 1.985202e-95
346.00 1.985202e-95
346.10 1.985202e-95
346.20 1.985202e-95
346.30 1.985202e-95
346.40 1.985202e-95
346.50 1.985202e-95
346.60 1.985202e-95
346.70 1.985202e-95
346.80 1.985202e-95
346.90 1.985202e-95
347.00 1.985202e-95
347.10 1.985202e-95
347.20 1.985202e-95
347.30 1.985202e-95
347.40 1.985202e-95
347.50 1.985202e-95
347.60 1.985202e-95
347.70 1.985202e-95
347.80 1.985202e-95
347.90 1.985202e-95
348.00 1.985202e-95
348.10 1.985202e-95
348.20 1.985202e-95
348.30 1.985202e-95
348.40 1.985202e-95
348.50 1.985202e-95
348.60 1.985202e-95
348.70 1.985202e-95
348.80 1.985202e-95
348.90 1.985202e-95
349.00 1.985202e-95
349.10 1.985202e-95
349.20 1.985202e-95
349.30 1.985202e-95
349.40 1.985202e-95
349.50 1.985202e-95
349.60 1.985202e-95
349.70 1.985202e-95
349.80 1.985202e-95
349.90 1.985202e-95
350.00 1.985202e-95
350.10 1.985202e-95
350.20 1.985202e-95
350.30 1.985202e-95
350.40 1.985202e-95
350.50 1.985202e-95
350.60 1.985202e-95
350.70 1.985202e-95
350.80 1.985202e-95
350.90 1.985202e-95
351.00 1.985202e-95
351.10 1.985202e-95
351.20 1.985202e-95
351.30 1.985202e-95
351.40 1.985202e-95
351.50 1.985202e-95
351.60 1.985202e-95
351.70 1.985202e-95
351.80 1.985202e-95
351.90 1.985202e-95
352.00 1.985202e-95
352.10 1.985202e-95
352.20 1.985202e-95
352.30 1.985202e-95
352.40 1.985202e-95
352.50 1.985202e-95
352.60 1.985202e-95
352.70 1.985202e-95
352.80 1.985202e-95
352.90 1.985202e-95
353.00 1.985202e-95
353.10 1.985202e-95
353.20 1.985202e-95
353.30 1.985202e-95
353.40 1.985202e-95
353.50 1.985202e-95
353.60 1.985202e-95
353.70 1.985202e-95
353.80 1.985202e-95
353.90 1.985202e-95
354.00 1.985202e-95
354.10 1.985202e-95
354.20 1.985202e-95
354.30 1.985202e-95
354.40 1.985202e-95
354.50 1.985202e-95
354.60 1.985202e-95
354.70 1.985202e-95
354.80 1.985202e-95
354.90 1.985202e-95
355.00 1.985202e-95
355.10 1.985202e-95
355.20 1.985202e-95
355.30 1.985202e-95
355.40 1.985202e-95
355.50 1.985202e-95
355.60 1.985202e-95
355.70 1.985202e-95
355.80 1.985202e-95
355.90 1.985202e-95
356.00 1.985202e-95
356.10 1.985202e-95
356.20 1.985202e-95
356.30 1.985202e-95
356.40 1.985202e-95
356.50 1.985202e-95
356.60 1.985202e-95
356.70 1.985202e-95
356.80 1.985202e-95
356.90 1.985202e-95
357.00 1.985202e-95
357.10 1.985202e-95
357.20 1.985202e-95
357.30 1.985202e-95
357.40 1.985202e-95
357.50 1.985202e-95
357.60 1.985202e-95
357.70 1.985202e-95
357.80 1.985202e-95
357.90 1.985202e-95
358.00 1.985202e-95
358.10 1.985202e-95
358.20 1.985202e-95
358.30 1.985202e-95
358.40 1.985202e-95
358.50 1.985202e-95
358.60 1.985202e-95
358.70 1.985202e-95
358.80 1.985202e-95
358.90 1.985202e-95
359.00 1.985202e-95
359.10 1.985202e-95
359.20 1.985202e-95
359.30 1.985202e-95
359.40 1.985202e-95
359.50 1.985202e-95
359.60 1.985202e-95
359.70 1.985202e-95
359.80 1.985202e-95
359.90 1.985202e-95
360.00 1.985202e-95
360.10 1.985202e-95
360.20 1.985202e-95
360.30 1.985202e-95
360.40 1.985202e-95
360.50 1.985202e-95
360.60 1.985202e-95
360.70 1.985202e-95
360.80 1.985202e-95
360.90 1.985202e-95
361.00 1.985202e-95
361.10 1.985202e-95
361.20 1.985202e-95
361.30 1.985202e-95
361.40 1.985202e-95
361.50 1.985202e-95
361.60 1.985202e-95
361.70 1.985202e-95
361.80 1.985202e-95
361.90 1.985202e-95
362.00 1.985202e-95
362.10 1.985202e-95
362.20 1.985202e-95
362.30 1.985202e-95
362.40 1.985202e-95
362.50 1.985202e-95
362.60 1.985202e-95
362.70 1.985202e-95
362.80 1.985202e-95
362.90 1.985202e-95
363.00 1.985202e-95
363.10 1.985202e-95
363.20 1.985202e-95
363.30 1.985202e-95
363.40 1.985202e-95
363.50 1.985202e-95
363.60 1.985202e-95
363.70 1.985202e-95
363.80 1.985202e-95
363.90 1.985202e-95
364.00 1.985202e-95
364.10 1.985202e-95
364.20 1.985202e-95
364.30 1.985202e-95
364.40 1.985202e-95
364.50 1.985202e-95
364.60 1.985202e-95
364.70 1.985202e-95
364.80 1.985202e-95
364.90 1.985202e-95
365.00 1.985202e-95
365.10 1.985202e-95
365.20 1.985202e-95
365.30 1.985202e-95
365.40 1.985202e-95
365.50 1.985202e-95
365.60 1.985202e-95
365.70 1.985202e-95
365.80 1.985202e-95
365.90 1.985202e-95
366.00 1.985202e-95
366.10 1.985202e-95
366.20 1.985202e-95
366.30 1.985202e-95
366.40 1.985202e-95
366.50 1.985202e-95
366.60 1.985202e-95
366.70 1.985202e-95
366.80 1.985202e-95
366.90 1.985202e-95
367.00 1.985202e-95
367.10 1.985202e-95
367.20 1.985202e-95
367.30 1.985202e-95
367.40 1.985202e-95
367.50 1.985202e-95
367.60 1.985202e-95
367.70 1.985202e-95
367.80 1.985202e-95
367.90 1.985202e-95
368.00 1.985202e-95
368.10 1.985202e-95
368.20 1.985202e-95
368.30 1.985202e-95
368.40 1.985202e-95
368.50 1.985202e-95
368.60 1.985202e-95
368.70 1.985202e-95
368.80 1.985202e-95
368.90 1.985202e-95
369.00 1.985202e-95
369.10 1.985202e-95
369.20 1.985202e-95
369.30 1.985202e-95
369.40 1.985202e-95
369.50 1.985202e-95
369.60 1.985202e-95
369.70 1.985202e-95
369.80 1.985202e-95
369.90 1.985202e-95
370.00 1.985202e-95
370.10 1.985202e-95
370.20 1.985202e-95
370.30 1.985202e-95
370.40 1.985202e-95
370.50 1.985202e-95
370.60 1.985202e-95
370.70 1.985202e-95
370.80 1.985202e-95
370.90 1.985202e-95
371.00 1.985202e-95
371.10 1.985202e-95
371.20 1.985202e-95
371.30 1.985202e-95
371.40 1.985202e-95
371.50 1.985202e-95
371.60 1.985202e-95
371.70 1.985202e-95
371.80 1.985202e-95
371.90 1.985202e-95
372.00 1.985202e-95
372.10 1.985202e-95
372.20 1.985202e-95
372.30 1.985202e-95
372.40 1.985202e-95
372.50 1.985202e-95
372.60 1.985202e-95
372.70 1.985202e-95
372.80 1.985202e-95
372.90 1.985202e-95
373.00 1.985202e-95
373.10 1.985202e-95
373.20 1.985202e-95
373.30 1.985202e-95
373.40 1.985202e-95
373.50 1.985202e-95
373.60 1.985202e-95
373.70 1.985202e-95
373.80 1.985202e-95
373.90 1.985202e-95
374.00 1.985202e-95
374.10 1.985202e-95
374.20 1.985202e-95
374.30 1.985202e-95
374.40 1.985202e-95
374.50 1.985202e-95
374.60 1.985202e-95
374.70 1.985202e-95
374.80 1.985202e-95
374.90 1.985202e-95
375.00 1.985202e-95
375.10 1.985202e-95
375.20 1.985202e-95
375.30 1.985202e-95
375.40 1.985202e-95
375.50 1.985202e-95
375.60 1.985202e-95
375.70 1.985202e-95
375.80 1.985202e-95
375.90 1.985202e-95
376.00 1.985202e-95
376.10 1.985202e-95
376.20 1.985202e-95
376.30 1.985202e-95
376.40 1.985202e-95
376.50 1.985202e-95
376.60 1.985202e-95
376.70 1.985202e-95
376.80 1.985202e-95
376.90 1.985202e-95
377.00 1.985202e-95
377.10 1.985202e-95
377.20 1.985202e-95
377.30 1.985202e-95
377.40 1.985202e-95
377.50 1.985202e-95
377.60 1.985202e-95
377.70 1.985202e-95
377.80 1.985202e-95
377.90 1.985202e-95
378.00 1.985202e-95
378.10 1.985202e-95
378.20 1.985202e-95
378.30 1.985202e-95
378.40 1.985202e-95
378.50 1.985202e-95
378.60 1.985202e-95
378.70 1.985202e-95
378.80 1.985202e-95
378.90 1.985202e-95
379.00 1.985202e-95
379.10 1.985202e-95
379.20 1.985202e-95
379.30 1.985202e-95
379.40 1.985202e-95
379.50 1.985202e-95
379.60 1.985202e-95
379.70 1.985202e-95
379.80 1.985202e-95
379.90 1.985202e-95
380.00 1.985202e-95
380.10 1.985202e-95
380.20 1.985202e-95
380.30 1.985202e-95
380.40 1.985202e-95
380.50 1.985202e-95
380.60 1.985202e-95
380.70 1.985202e-95
380.80 1.985202e-95
380.90 1.985202e-95
381.00 1.985202e-95
381.10 1.985202e-95
381.20 1.985202e-95
381.30 1.985202e-95
381.40 1.985202e-95
381.50 1.985202e-95
381.60 1.985202e-95
381.70 1.985202e-95
381.80 1.985202e-95
381.90 1.985202e-95
382.00 1.985202e-95
382.10 1.985202e-95
382.20 1.985202e-95
382.30 1.985202e-95
382.40 1.985202e-95
382.50 1.985202e-95
382.60 1.985202e-95
382.70 1.985202e-95
382.80 1.985202e-95
382.90 1.985202e-95
383.00 1.985202e-95
383.10 1.985202e-95
383.20 1.985202e-95
383.30 1.985202e-95
383.40 1.985202e-95
383.50 1.985202e-95
383.60 1.985202e-95
383.70 1.985202e-95
383.80 1.985202e-95
383.90 1.985202e-95
384.00 1.985202e-95
384.10 1.985202e-95
384.20 1.985202e-95
384.30 1.985202e-95
384.40 1.985202e-95
384.50 1.985202e-95
384.60 1.985202e-95
384.70 1.985202e-95
384.80 1.985202e-95
384.90 1.985202e-95
385.00 1.985202e-95
385.10 1.985202e-95
385.20 1.985202e-95
385.30 1.985202e-95
385.40 1.985202e-95
385.50 1.985202e-95
385.60 1.985202e-95
385.70 1.985202e-95
385.80 1.985202e-95
385.90 1.985202e-95
386.00 1.985202e-95
386.10 1.985202e-95
386.20 1.985202e-95
386.30 1.985202e-95
386.40 1.985202e-95
386.50 1.985202e-95
386.60 1.985202e-95
386.70 1.985202e-95
386.80 1.985202e-95
386.90 1.985202e-95
387.00 1.985202e-95
387.10 1.985202e-95
387.20 1.985202e-95
387.30 1.985202e-95
387.40 1.985202e-95
387.50 1.985202e-95
387.60 1.985202e-95
387.70 1.985202e-95
387.80 1.985202e-95
387.90 1.985202e-95
388.00 1.985202e-95
388.10 1.985202e-95
388.20 1.985202e-95
388.30 1.985202e-95
388.40 1.985202e-95
388.50 1.985202e-95
388.60 1.985202e-95
388.70 1.985202e-95
388.80 1.985202e-95
388.90 1.985202e-95
389.00 1.985202e-95
389.10 1.985202e-95
389.20 1.985202e-95
389.30 1.985202e-95
389.40 1.985202e-95
389.50 1.985202e-95
389.60 1.985202e-95
389.70 1.985202e-95
389.80 1.985202e-95
389.90 1.985202e-95
390.00 1.985202e-95
390.10 1.985202e-95
390.20 1.985202e-95
390.30 1.985202e-95
390.40 1.985202e-95
390.50 1.985202e-95
390.60 1.985202e-95
390.70 1.985202e-95
390.80 1.985202e-95
390.90 1.985202e-95
391.00 1.985202e-95
391.10 1.985202e-95
391.20 1.985202e-95
391.30 1.985202e-95
391.40 1.985202e-95
391.50 1.985202e-95
391.60 1.985202e-95
391.70 1.985202e-95
391.80 1.985202e-95
391.90 1.985202e-95
392.00 1.985202e-95
392.10 1.985202e-95
392.20 1.985202e-95
392.30 1.985202e-95
392.40 1.985202e-95
392.50 1.985202e-95
392.60 1.985202e-95
392.70 1.985202e-95
392.80 1.985202e-95
392.90 1.985202e-95
393.00 1.985202e-95
393.10 1.985202e-95
393.20 1.985202e-95
393.30 1.985202e-95
393.40 1.985202e-95
393.50 1.985202e-95
393.60 1.985202e-95
393.70 1.985202e-95
393.80 1.985202e-95
393.90 1.985202e-95
394.00 1.985202e-95
394.10 1.985202e-95
394.20 1.985202e-95
394.30 1.985202e-95
394.40 1.985202e-95
394.50 1.985202e-95
394.60 1.985202e-95
394.70 1.985202e-95
394.80 1.985202e-95
394.90 1.985202e-95
395.00 1.96535e-95
395.10 1.945498e-95
395.20 1.925646e-95
395.30 1.905794e-95
395.40 1.885941e-95
395.50 1.866089e-95
395.60 1.846237e-95
395.70 1.826385e-95
395.80 1.806533e-95
395.90 1.786681e-95
396.00 1.766829e-95
396.10 0.0001843016
396.20 0.01142631
396.30 0.02791131
396.40 0.0426071
396.50 0.05087686
396.60 0.05087686
396.70 0.05087686
396.80 0.05087686
396.90 0.05087686
397.00 0.05087686
397.10 0.05087686
397.20 0.05087686
397.30 0.05087686
397.40 0.05087686
397.50 0.05087686
397.60 0.05087686
397.70 0.05087686
397.80 0.06012268
397.90 0.1055714
398.00 0.1830064
398.10 0.280819
398.20 0.3851988
398.30 0.4829301
398.40 0.56152
398.50 0.6131352
398.60 0.6372843
398.70 0.6426911
398.80 0.6448693
398.90 0.6579804
399.00 0.6910649
399.10 0.746689
399.20 0.8201405
399.30 0.9030547
399.40 0.9885605
399.50 1.074078
399.60 1.159304
399.70 1.245489
399.80 1.336504
399.90 1.436806
400.00 1.548004
400.10 1.665198
400.20 1.778958
400.30 1.880389
400.40 1.964427
400.50 2.030707
400.60 2.081662
400.70 2.122607
400.80 2.159766
400.90 2.195482
401.00 2.229279
401.10 2.260452
401.20 2.28768
401.30 2.308071
401.40 2.318227
401.50 2.318227
401.60 2.318227
401.70 2.318227
401.80 2.318227
401.90 2.318227
402.00 2.318227
402.10 2.318227
402.20 2.318227
402.30 2.318227
402.40 2.318227
402.50 2.332903
402.60 2.385669
402.70 2.475636
402.80 2.596709
402.90 2.738547
403.00 2.885325
403.10 3.021793
403.20 3.138831
403.30 3.231271
403.40 3.29648
403.50 3.335766
403.60 3.354302
403.70 3.357657
403.80 3.357657
403.90 3.357657
404.00 3.357657
404.10 3.357657
404.20 3.357657
404.30 3.357657
404.40 3.357657
404.50 3.357657
404.60 3.357657
404.70 3.357657
404.80 3.357657
404.90 3.357657
405.00 3.357657
405.10 3.357657
405.20 3.357657
405.30 3.357657
405.40 3.357657
405.50 3.357657
405.60 3.359836
405.70 3.366403
405.80 3.377137
405.90 3.391952
406.00 3.410011
406.10 3.428587
406.20 3.433535
406.30 3.428374
406.40 3.41941
406.50 3.411168
406.60 3.411168
406.70 3.411168
406.80 3.411168
406.90 3.411168
407.00 3.411168
407.10 3.411168
407.20 3.414927
407.30 3.427256
407.40 3.445165
407.50 3.465452
407.60 3.484461
407.70 3.49655
407.80 3.487305
407.90 3.441856
408.00 3.364421
408.10 3.266608
408.20 3.162229
408.30 3.064497
408.40 2.985907
408.50 2.934292
408.60 2.910143
408.70 2.904736
408.80 2.909167
408.90 2.912631
409.00 2.902395
409.10 2.872434
409.20 2.825246
409.30 2.765372
409.40 2.694815
409.50 2.613253
409.60 2.528028
409.70 2.441842
409.80 2.350827
409.90 2.250526
410.00 2.139328
410.10 2.022134
410.20 1.908373
410.30 1.812208
410.40 1.752805
410.50 1.728386
410.60 1.730649
410.70 1.747458
410.80 1.768362
410.90 1.786626
411.00 1.798118
411.10 1.801833
411.20 1.801146
411.30 1.801781
411.40 1.80926
411.50 1.826083
411.60 1.844069
411.70 1.861509
411.80 1.874139
411.90 1.878071
412.00 1.878071
412.10 1.878071
412.20 1.878071
412.30 1.878071
412.40 1.878071
412.50 1.863396
412.60 1.810629
412.70 1.720662
412.80 1.59959
412.90 1.460977
413.00 1.326047
413.10 1.208556
413.20 1.116094
413.30 1.051538
413.40 1.013845
413.50 0.9980828
413.60 0.9961464
413.70 0.9996653
413.80 0.9996653
413.90 0.9996653
414.00 0.9996653
414.10 0.9996653
414.20 0.9996653
414.30 0.9996653
414.40 0.9996653
414.50 0.9996653
414.60 1.001592
414.70 1.007153
414.80 1.012091
414.90 1.012091
415.00 1.012091
415.10 1.012091
415.20 1.012091
415.30 1.012091
415.40 1.012091
415.50 1.012091
415.60 1.009912
415.70 1.003344
415.80 0.9926107
415.90 0.9860368
416.00 0.9836795
416.10 0.9826032
416.20 0.9804595
416.30 0.9752455
416.40 0.9695133
416.50 0.9694861
416.60 0.9694861
416.70 0.9694861
416.80 0.9694861
416.90 0.9694861
417.00 0.9694861
417.10 0.9694861
417.20 0.9657263
417.30 0.9533976
417.40 0.9354889
417.50 0.9170469
417.60 0.9126047
417.70 0.9258708
417.80 0.9579762
417.90 0.9922388
418.00 1.024125
418.10 1.049922
418.20 1.068825
418.30 1.085569
418.40 1.109278
418.50 1.148559
418.60 1.208134
418.70 1.287235
418.80 1.372559
418.90 1.449657
419.00 1.511793
419.10 1.555077
419.20 1.576714
419.30 1.577321
419.40 1.562934
419.50 1.558978
419.60 1.558978
419.70 1.558978
419.80 1.558978
419.90 1.558978
420.00 1.558978
420.10 1.558978
420.20 1.558978
420.30 1.553713
420.40 1.529078
420.50 1.487217
420.60 1.433999
420.70 1.376244
420.80 1.318181
420.90 1.264201
421.00 1.218913
421.10 1.184024
421.20 1.157484
421.30 1.136458
421.40 1.118822
421.50 1.101999
421.60 1.097545
421.70 1.106408
421.80 1.122658
421.90 1.143796
422.00 1.163191
422.10 1.176515
422.20 1.182853
422.30 1.182853
422.40 1.182853
422.50 1.182853
422.60 1.182853
422.70 1.182853
422.80 1.182853
422.90 1.179628
423.00 1.167779
423.10 1.148802
423.20 1.127743
423.30 1.110071
423.40 1.096916
423.50 1.089326
423.60 1.089815
423.70 1.103768
423.80 1.131658
423.90 1.168472
424.00 1.214199
424.10 1.266539
424.20 1.320459
424.30 1.369323
424.40 1.407285
424.50 1.431268
424.60 1.439259
424.70 1.433698
424.80 1.42876
424.90 1.42876
425.00 1.42876
425.10 1.42876
425.20 1.42876
425.30 1.42876
425.40 1.42876
425.50 1.42876
425.60 1.42876
425.70 1.42876
425.80 1.42876
425.90 1.420519
426.00 1.404818
426.10 1.387134
426.20 1.376818
426.30 1.387305
426.40 1.414052
426.50 1.446293
426.60 1.479787
426.70 1.51022
426.80 1.533301
426.90 1.545986
427.00 1.545986
427.10 1.545986
427.20 1.545986
427.30 1.545986
427.40 1.545986
427.50 1.544141
427.60 1.529574
427.70 1.507277
427.80 1.499364
427.90 1.506687
428.00 1.527801
428.10 1.558564
428.20 1.592008
428.30 1.617682
428.40 1.624373
428.50 1.605505
428.60 1.560156
428.70 1.492502
428.80 1.412274
428.90 1.331471
429.00 1.258599
429.10 1.19914
429.20 1.158838
429.30 1.1424
429.40 1.149343
429.50 1.158013
429.60 1.16834
429.70 1.179553
429.80 1.191005
429.90 1.202594
430.00 1.213438
430.10 1.221886
430.20 1.226318
430.30 1.227517
430.40 1.227517
430.50 1.227517
430.60 1.227517
430.70 1.227517
430.80 1.227517
430.90 1.227517
431.00 1.227517
431.10 1.227517
431.20 1.227517
431.30 1.227517
431.40 1.227517
431.50 1.227517
431.60 1.213984
431.70 1.187682
431.80 1.161822
431.90 1.142359
432.00 1.131554
432.10 1.129815
432.20 1.137
432.30 1.150392
432.40 1.161496
432.50 1.169237
432.60 1.173757
432.70 1.175246
432.80 1.175246
432.90 1.175246
433.00 1.175246
433.10 1.175246
433.20 1.17173
433.30 1.161518
433.40 1.147157
433.50 1.13563
433.60 1.132521
433.70 1.133269
433.80 1.131198
433.90 1.122026
434.00 1.10558
434.10 1.086308
434.20 1.072134
434.30 1.071658
434.40 1.090993
434.50 1.1315
434.60 1.189483
434.70 1.255517
434.80 1.314967
434.90 1.365682
435.00 1.408275
435.10 1.445856
435.20 1.483049
435.30 1.523341
435.40 1.566792
435.50 1.609646
435.60 1.646152
435.70 1.670786
435.80 1.680012
435.90 1.680012
436.00 1.680012
436.10 1.680012
436.20 1.676281
436.30 1.659684
436.40 1.632937
436.50 1.600696
436.60 1.567202
436.70 1.536769
436.80 1.513688
436.90 1.501003
437.00 1.501208
437.10 1.502676
437.20 1.502676
437.30 1.502676
437.40 1.502676
437.50 1.502676
437.60 1.502676
437.70 1.499618
437.80 1.485031
437.90 1.463714
438.00 1.440044
438.10 1.417869
438.20 1.39879
438.30 1.381954
438.40 1.363559
438.50 1.343146
438.60 1.328921
438.70 1.317474
438.80 1.305769
438.90 1.292899
439.00 1.280786
439.10 1.271298
439.20 1.263699
439.30 1.256491
439.40 1.248986
439.50 1.244344
439.60 1.241869
439.70 1.237031
439.80 1.226938
439.90 1.215349
440.00 1.204506
440.10 1.196057
440.20 1.191625
440.30 1.190426
440.40 1.190426
440.50 1.190426
440.60 1.190426
440.70 1.190426
440.80 1.190426
440.90 1.190426
441.00 1.190426
441.10 1.190426
441.20 1.190426
441.30 1.190426
441.40 1.190426
441.50 1.190426
441.60 1.190426
441.70 1.190426
441.80 1.187407
441.90 1.188625
442.00 1.1944
442.10 1.201657
442.20 1.20893
442.30 1.217176
442.40 1.227658
442.50 1.239894
442.60 1.252996
442.70 1.268085
442.80 1.284646
442.90 1.301225
443.00 1.31843
443.10 1.336105
443.20 1.352953
443.30 1.367813
443.40 1.379426
443.50 1.383227
443.60 1.37478
443.70 1.355325
443.80 1.329506
443.90 1.301865
444.00 1.272583
444.10 1.239515
444.20 1.199769
444.30 1.151381
444.40 1.094085
444.50 1.029594
444.60 0.9616931
444.70 0.8956595
444.80 0.855509
444.90 0.845528
445.00 0.8567708
445.10 0.8765962
445.20 0.8912699
445.30 0.8898938
445.40 0.8698877
445.50 0.8374425
445.60 0.8030994
445.70 0.7784651
445.80 0.7695268
445.90 0.7735644
446.00 0.7826652
446.10 0.7961172
446.20 0.8104953
446.30 0.822359
446.40 0.8295971
446.50 0.8308861
446.60 0.8308861
446.70 0.8308861
446.80 0.8308861
446.90 0.8308861
447.00 0.8367202
447.10 0.8501578
447.20 0.8752318
447.30 0.9116044
447.40 0.9600268
447.50 1.021401
447.60 1.096155
447.70 1.182943
447.80 1.268605
447.90 1.346589
448.00 1.41222
448.10 1.463663
448.20 1.502123
448.30 1.530691
448.40 1.554605
448.50 1.575201
448.60 1.585552
448.70 1.590864
448.80 1.594517
448.90 1.596239
449.00 1.596239
449.10 1.596239
449.20 1.596239
449.30 1.596239
449.40 1.596239
449.50 1.592211
449.60 1.584359
449.70 1.577983
449.80 1.576624
449.90 1.576624
450.00 1.576624
450.10 1.576624
450.20 1.576624
450.30 1.580992
450.40 1.597262
450.50 1.629121
450.60 1.676483
450.70 1.735875
450.80 1.801162
450.90 1.866347
451.00 1.926081
451.10 1.975578
451.20 2.0129
451.30 2.040209
451.40 2.0634
451.50 2.09016
451.60 2.126445
451.70 2.172286
451.80 2.222295
451.90 2.263646
452.00 2.290671
452.10 2.303398
452.20 2.304648
452.30 2.298294
452.40 2.289487
452.50 2.284865
452.60 2.288814
452.70 2.300885
452.80 2.318132
452.90 2.337153
453.00 2.353357
453.10 2.362471
453.20 2.362513
453.30 2.353874
453.40 2.342261
453.50 2.334053
453.60 2.32852
453.70 2.32762
453.80 2.333031
453.90 2.340476
454.00 2.347331
454.10 2.352918
454.20 2.357826
454.30 2.361736
454.40 2.364083
454.50 2.365898
454.60 2.36964
454.70 2.377586
454.80 2.371552
454.90 2.34968
455.00 2.320335
455.10 2.293119
455.20 2.27714
455.30 2.279307
455.40 2.299016
455.50 2.326852
455.60 2.35047
455.70 2.357786
455.80 2.357498
455.90 2.353461
456.00 2.34436
456.10 2.330908
456.20 2.31653
456.30 2.304666
456.40 2.297428
456.50 2.296139
456.60 2.296139
456.70 2.296139
456.80 2.296139
456.90 2.296139
457.00 2.2901
457.10 2.275194
457.20 2.25012
457.30 2.2151
457.40 2.167692
457.50 2.106318
457.60 2.031564
457.70 1.944776
457.80 1.849509
457.90 1.751257
458.00 1.656294
458.10 1.570466
458.20 1.498739
458.30 1.444588
458.40 1.408669
458.50 1.388074
458.60 1.377723
458.70 1.372411
458.80 1.368757
458.90 1.367036
459.00 1.367036
459.10 1.367036
459.20 1.367036
459.30 1.367036
459.40 1.367036
459.50 1.367036
459.60 1.36987
459.70 1.37349
459.80 1.375165
459.90 1.375165
460.00 1.375165
460.10 1.375165
460.20 1.375165
460.30 1.370797
460.40 1.354526
460.50 1.324619
460.60 1.292956
460.70 1.259041
460.80 1.223107
460.90 1.18453
461.00 1.142847
461.10 1.098845
461.20 1.061522
461.30 1.034213
461.40 1.011023
461.50 0.984262
461.60 0.9479771
461.70 0.9021367
461.80 0.852127
461.90 0.8039508
462.00 0.7625598
462.10 0.7309923
462.20 0.708945
462.30 0.6936614
462.40 0.6808832
462.50 0.668077
462.60 0.6500582
462.70 0.6220464
462.80 0.5882393
462.90 0.553312
463.00 0.5320815
463.10 0.5350905
463.20 0.5681567
463.30 0.6312208
463.40 0.7155444
463.50 0.8073913
463.60 0.8974094
463.70 0.974963
463.80 1.029701
463.90 1.061278
464.00 1.076057
464.10 1.083
464.20 1.089834
464.30 1.102691
464.40 1.126974
464.50 1.164876
464.60 1.213628
464.70 1.267184
464.80 1.31884
464.90 1.362302
465.00 1.392231
465.10 1.405327
465.20 1.401202
465.30 1.382301
465.40 1.354461
465.50 1.327231
465.60 1.310016
465.70 1.30866
465.80 1.310896
465.90 1.310896
466.00 1.310896
466.10 1.310896
466.20 1.312619
466.30 1.317255
466.40 1.326186
466.50 1.339998
466.60 1.358511
466.70 1.381133
466.80 1.406882
466.90 1.433726
467.00 1.45885
467.10 1.480849
467.20 1.499035
467.30 1.510382
467.40 1.515854
467.50 1.518328
467.60 1.520424
467.70 1.524345
467.80 1.530298
467.90 1.537219
468.00 1.543182
468.10 1.547352
468.20 1.549997
468.30 1.551436
468.40 1.552477
468.50 1.553693
468.60 1.554378
468.70 1.554378
468.80 1.554378
468.90 1.554378
469.00 1.554378
469.10 1.554378
469.20 1.554378
469.30 1.554378
469.40 1.554378
469.50 1.554378
469.60 1.551544
469.70 1.547924
469.80 1.546249
469.90 1.546249
470.00 1.546249
470.10 1.546249
470.20 1.546249
470.30 1.546249
470.40 1.546412
470.50 1.545426
470.60 1.530016
470.70 1.504538
470.80 1.475185
470.90 1.448578
471.00 1.430526
471.10 1.425032
471.20 1.425032
471.30 1.425032
471.40 1.425032
471.50 1.425032
471.60 1.425032
471.70 1.426568
471.80 1.431458
471.90 1.439423
472.00 1.449705
472.10 1.461136
472.20 1.471991
472.30 1.479915
472.40 1.4827
472.50 1.480151
472.60 1.476598
472.70 1.475961
472.80 1.475961
472.90 1.475287
473.00 1.464131
473.10 1.440374
473.20 1.399998
473.30 1.342241
473.40 1.271193
473.50 1.19614
473.60 1.128258
473.70 1.078324
473.80 1.054787
473.90 1.060575
474.00 1.090498
474.10 1.13061
474.20 1.164589
474.30 1.180529
474.40 1.170925
474.50 1.132393
474.60 1.079899
474.70 1.018397
474.80 0.9534743
474.90 0.8911511
475.00 0.8367321
475.10 0.7934447
475.20 0.7658282
475.30 0.755094
475.40 0.7543591
475.50 0.7581007
475.60 0.763203
475.70 0.7685236
475.80 0.7739402
475.90 0.7777137
476.00 0.7791253
476.10 0.7800303
476.20 0.7793611
476.30 0.7762059
476.40 0.76895
476.50 0.7551754
476.60 0.736662
476.70 0.7140398
476.80 0.6882909
476.90 0.6614469
477.00 0.6363227
477.10 0.6143241
477.20 0.5961382
477.30 0.5834378
477.40 0.5769516
477.50 0.578924
477.60 0.5909117
477.70 0.6084502
477.80 0.6276829
477.90 0.6469574
478.00 0.666799
478.10 0.6876168
478.20 0.7089273
478.30 0.7297246
478.40 0.7496339
478.50 0.7691768
478.60 0.7891912
478.70 0.8084765
478.80 0.8245982
478.90 0.8360545
479.00 0.8413489
479.10 0.8413489
479.20 0.8413489
479.30 0.8413489
479.40 0.8413489
479.50 0.8413489
479.60 0.8413489
479.70 0.8413489
479.80 0.8413489
479.90 0.8413489
480.00 0.8413489
480.10 0.8413489
480.20 0.8413489
480.30 0.8461387
480.40 0.8553372
480.50 0.8654309
480.60 0.8752942
480.70 0.8820838
480.80 0.8840385
480.90 0.8840385
481.00 0.8840385
481.10 0.8844009
481.20 0.8891934
481.30 0.8994652
481.40 0.9160586
481.50 0.9385937
481.60 0.9643628
481.70 0.9881586
481.80 1.003713
481.90 1.005989
482.00 0.9957076
482.10 0.9842764
482.20 0.9734221
482.30 0.9654979
482.40 0.9627128
482.50 0.9627128
482.60 0.9627128
482.70 0.9627128
482.80 0.9627128
482.90 0.9627128
483.00 0.9616915
483.10 0.9556494
483.20 0.9460699
483.30 0.934541
483.40 0.9212656
483.50 0.9044723
483.60 0.8823358
483.70 0.857891
483.80 0.8355202
483.90 0.8105897
484.00 0.7784096
484.10 0.7385829
484.20 0.6949812
484.30 0.6622737
484.40 0.645248
484.50 0.6440633
484.60 0.6440633
484.70 0.6440633
484.80 0.6440633
484.90 0.6440633
485.00 0.6501937
485.10 0.6620677
485.20 0.6733661
485.30 0.6793267
485.40 0.6811069
485.50 0.6788634
485.60 0.6724999
485.70 0.6633668
485.80 0.6557144
485.90 0.651941
486.00 0.6505294
486.10 0.6496244
486.20 0.64857
486.30 0.6470892
486.40 0.645414
486.50 0.6453771
486.60 0.6453771
486.70 0.6453771
486.80 0.6453771
486.90 0.6453771
487.00 0.6453771
487.10 0.6532755
487.20 0.6709266
487.30 0.6965072
487.40 0.7273617
487.50 0.7570534
487.60 0.7798953
487.70 0.7982561
487.80 0.8155295
487.90 0.8329595
488.00 0.8494048
488.10 0.8632184
488.20 0.8731347
488.30 0.877759
488.40 0.8740313
488.50 0.8591375
488.60 0.8384382
488.70 0.8191529
488.80 0.8030312
488.90 0.7915749
489.00 0.7862805
489.10 0.7862805
489.20 0.7890233
489.30 0.7930644
489.40 0.7947783
489.50 0.7947783
489.60 0.7947783
489.70 0.7947783
489.80 0.7947783
489.90 0.7947783
490.00 0.7947783
490.10 0.7947783
490.20 0.7947783
490.30 0.7931145
490.40 0.795109
490.50 0.8007505
490.60 0.8088963
490.70 0.8191074
490.80 0.8325113
490.90 0.8478734
491.00 0.8646657
491.10 0.8845217
491.20 0.906118
491.30 0.9295612
491.40 0.9531173
491.50 0.9742801
491.60 0.9914339
491.70 1.003716
491.80 1.012168
491.90 1.021008
492.00 1.031099
492.10 1.033979
492.20 1.033979
492.30 1.033979
492.40 1.035213
492.50 1.042351
492.60 1.054281
492.70 1.068785
492.80 1.083731
492.90 1.098463
493.00 1.113754
493.10 1.130192
493.20 1.147702
493.30 1.165814
493.40 1.184142
493.50 1.203554
493.60 1.225928
493.70 1.247743
493.80 1.262214
493.90 1.270915
494.00 1.277461
494.10 1.286061
494.20 1.299265
494.30 1.306593
494.40 1.306593
494.50 1.306593
494.60 1.306593
494.70 1.306593
494.80 1.306593
494.90 1.306593
495.00 1.300463
495.10 1.288589
495.20 1.273145
495.30 1.255736
495.40 1.239378
495.50 1.226864
495.60 1.21956
495.70 1.217412
495.80 1.220164
495.90 1.229382
496.00 1.245365
496.10 1.267663
496.20 1.295003
496.30 1.325166
496.40 1.354255
496.50 1.377612
496.60 1.391649
496.70 1.394429
496.80 1.394429
496.90 1.394429
497.00 1.394429
497.10 1.386531
497.20 1.36888
497.30 1.343299
497.40 1.312445
497.50 1.278306
497.60 1.241381
497.70 1.20441
497.80 1.1703
497.90 1.137845
498.00 1.106255
498.10 1.075461
498.20 1.0459
498.30 1.019606
498.40 1.002383
498.50 0.9965179
498.60 0.9965179
498.70 0.9965179
498.80 0.9965179
498.90 0.998042
499.00 1.001203
499.10 1.004201
499.20 1.00198
499.30 0.9979392
499.40 0.9962253
499.50 0.9962253
499.60 0.9962253
499.70 0.9962253
499.80 0.9962253
499.90 0.9962253
500.00 1
500.10 1.010119
500.20 1.025349
500.30 1.039247
500.40 1.042734
500.50 1.035161
500.60 1.017507
500.70 1.000506
500.80 0.9851472
500.90 0.9697852
501.00 0.9529929
501.10 0.9327745
501.20 0.9063857
501.30 0.8726707
501.40 0.8325212
501.50 0.7888232
501.60 0.7483685
501.70 0.7175983
501.80 0.6996107
501.90 0.6952242
502.00 0.7028333
502.10 0.7189559
502.20 0.7383315
502.30 0.7579819
502.40 0.7764045
502.50 0.7885361
502.60 0.7948537
502.70 0.7975228
502.80 0.7990306
502.90 0.7993136
503.00 0.796669
503.10 0.7901169
503.20 0.7789354
503.30 0.7621725
503.40 0.7438445
503.50 0.7244329
503.60 0.7020584
503.70 0.6758498
503.80 0.652742
503.90 0.6351908
504.00 0.622848
504.10 0.6140958
504.20 0.6077897
504.30 0.604658
504.40 0.604658
504.50 0.604658
504.60 0.604658
504.70 0.604658
504.80 0.604658
504.90 0.604658
505.00 0.604658
505.10 0.6051799
505.20 0.6051799
505.30 0.6051799
505.40 0.6051799
505.50 0.6051799
505.60 0.6051799
505.70 0.6051799
505.80 0.6024286
505.90 0.5932104
506.00 0.5772269
506.10 0.5586681
506.20 0.5473621
506.30 0.5433967
506.40 0.5466737
506.50 0.5576803
506.60 0.5760996
506.70 0.6005453
506.80 0.6206281
506.90 0.633793
507.00 0.6424275
507.10 0.6500513
507.20 0.6596
507.30 0.6718143
507.40 0.6854636
507.50 0.6984593
507.60 0.7090126
507.70 0.7139915
507.80 0.711621
507.90 0.704834
508.00 0.6959159
508.10 0.6879084
508.20 0.6835985
508.30 0.6830315
508.40 0.6830315
508.50 0.6830315
508.60 0.6830315
508.70 0.6830315
508.80 0.6830315
508.90 0.6815075
509.00 0.678347
509.10 0.6753484
509.20 0.6748264
509.30 0.6748264
509.40 0.6748264
509.50 0.6748264
509.60 0.6748264
509.70 0.6748264
509.80 0.6748264
509.90 0.6748264
510.00 0.6710517
510.10 0.6609326
510.20 0.6457027
510.30 0.6286787
510.40 0.6138352
510.50 0.6047088
510.60 0.6040651
510.70 0.6125083
510.80 0.6274699
510.90 0.6438759
511.00 0.6557169
511.10 0.6578711
511.20 0.6578711
511.30 0.6578711
511.40 0.6578711
511.50 0.6578711
511.60 0.655403
511.70 0.6485602
511.80 0.6376505
511.90 0.6229552
512.00 0.6061422
512.10 0.591727
512.20 0.5788466
512.30 0.5658208
512.40 0.5521466
512.50 0.5375752
512.60 0.5211152
512.70 0.5039422
512.80 0.4874889
512.90 0.4724736
513.00 0.4598269
513.10 0.4499412
513.20 0.4436127
513.30 0.4422631
513.40 0.4422631
513.50 0.4422631
513.60 0.4536897
513.70 0.4754773
513.80 0.4995738
513.90 0.523737
514.00 0.5484797
514.10 0.574985
514.20 0.6042684
514.30 0.6365915
514.40 0.670771
514.50 0.7022904
514.60 0.7319471
514.70 0.7619009
514.80 0.7941472
514.90 0.829022
515.00 0.8656571
515.10 0.9029688
515.20 0.941254
515.30 0.9786771
515.40 1.014314
515.50 1.048082
515.60 1.080057
515.70 1.109918
515.80 1.138294
515.90 1.167725
516.00 1.20025
516.10 1.232013
516.20 1.253353
516.30 1.265018
516.40 1.269084
516.50 1.266694
516.60 1.258341
516.70 1.245635
516.80 1.231144
516.90 1.217979
517.00 1.209345
517.10 1.201721
517.20 1.196404
517.30 1.195717
517.40 1.199308
517.50 1.20615
517.60 1.21417
517.70 1.219935
517.80 1.220767
517.90 1.217145
518.00 1.215402
518.10 1.215402
518.20 1.215402
518.30 1.215402
518.40 1.215402
518.50 1.215402
518.60 1.215402
518.70 1.215402
518.80 1.215402
518.90 1.215402
519.00 1.216415
519.10 1.229854
519.20 1.254174
519.30 1.285534
519.40 1.320008
519.50 1.355148
519.60 1.388027
519.70 1.415294
519.80 1.434646
519.90 1.445274
520.00 1.447313
520.10 1.447313
520.20 1.447313
520.30 1.447313
520.40 1.447313
520.50 1.447313
520.60 1.447313
520.70 1.43887
520.80 1.423908
520.90 1.407502
521.00 1.395661
521.10 1.394353
521.20 1.397493
521.30 1.40295
521.40 1.410138
521.50 1.417726
521.60 1.423573
521.70 1.426148
521.80 1.426148
521.90 1.426148
522.00 1.425261
522.10 1.420674
522.20 1.414178
522.30 1.407554
522.40 1.401571
522.50 1.396873
522.60 1.395085
522.70 1.395085
522.80 1.395085
522.90 1.395085
523.00 1.396666
523.10 1.403833
523.20 1.413966
523.30 1.423768
523.40 1.431315
523.50 1.437545
523.60 1.43381
523.70 1.424026
523.80 1.413651
523.90 1.408345
524.00 1.41179
524.10 1.42235
524.20 1.433184
524.30 1.435725
524.40 1.423549
524.50 1.394345
524.60 1.364688
524.70 1.334734
524.80 1.302488
524.90 1.267613
525.00 1.230978
525.10 1.193144
525.20 1.154859
525.30 1.117436
525.40 1.081799
525.50 1.048031
525.60 1.016056
525.70 0.9861947
525.80 0.964071
525.90 0.9472041
526.00 0.9298039
526.10 0.9084775
526.20 0.8814175
526.30 0.8475926
526.40 0.8111603
526.50 0.7791866
526.60 0.7550834
526.70 0.7405638
526.80 0.7424218
526.90 0.7580262
527.00 0.7800734
527.10 0.8038064
527.20 0.8183657
527.30 0.816425
527.40 0.7991847
527.50 0.7793466
527.60 0.7607737
527.70 0.7471801
527.80 0.7403688
527.90 0.7396089
528.00 0.7396089
528.10 0.7396089
528.20 0.7396089
528.30 0.7396089
528.40 0.7396089
528.50 0.7396089
528.60 0.7396089
528.70 0.7400784
528.80 0.742903
528.90 0.7493174
529.00 0.7595094
529.10 0.7625693
529.20 0.7609893
529.30 0.7590911
529.40 0.760157
529.50 0.7657471
529.60 0.777631
529.70 0.7972089
529.80 0.8243712
529.90 0.8577329
530.00 0.8953829
530.10 0.9299094
530.20 0.9589716
530.30 0.9811312
530.40 0.9944692
530.50 0.9983453
530.60 0.9983453
530.70 0.9983453
530.80 0.9983453
530.90 0.9983453
531.00 0.9983453
531.10 0.9974996
531.20 0.9943586
531.30 0.9889018
531.40 0.9817173
531.50 0.977288
531.60 0.9758794
531.70 0.9782813
531.80 0.9841011
531.90 0.9910201
532.00 0.9988456
532.10 1.006726
532.20 1.013221
532.30 1.017055
532.40 1.017676
532.50 1.017676
532.60 1.017676
532.70 1.017676
532.80 1.017676
532.90 1.017676
533.00 1.018198
533.10 1.018401
533.20 1.020669
533.30 1.026658
533.40 1.036073
533.50 1.045592
533.60 1.050335
533.70 1.045595
533.80 1.028116
533.90 0.9982309
534.00 0.9564621
534.10 0.9067355
534.20 0.8576003
534.30 0.8185392
534.40 0.7970086
534.50 0.7961327
534.60 0.7979168
534.70 0.8000435
534.80 0.8024612
534.90 0.8051934
535.00 0.808638
535.10 0.8135966
535.20 0.8201168
535.30 0.8276129
535.40 0.8357744
535.50 0.8444512
535.60 0.854056
535.70 0.8651937
535.80 0.8718632
535.90 0.8741331
536.00 0.8757651
536.10 0.8796343
536.20 0.8870765
536.30 0.8981438
536.40 0.908075
536.50 0.9106108
536.60 0.9106108
536.70 0.9106108
536.80 0.9031609
536.90 0.8875565
537.00 0.8655093
537.10 0.8417763
537.20 0.8229852
537.30 0.8133986
537.40 0.8133986
537.50 0.8133986
537.60 0.8133986
537.70 0.8133986
537.80 0.8133986
537.90 0.8133986
538.00 0.8133986
538.10 0.8133986
538.20 0.8133986
538.30 0.8133986
538.40 0.8133986
538.50 0.8133986
538.60 0.8133986
538.70 0.8129291
538.80 0.8101045
538.90 0.8036901
539.00 0.7924854
539.10 0.7773881
539.20 0.7592609
539.30 0.7372727
539.40 0.7127472
539.50 0.6875123
539.60 0.6634055
539.70 0.6423297
539.80 0.6251597
539.90 0.6115017
540.00 0.6011868
540.10 0.5945793
540.20 0.5920059
540.30 0.595214
540.40 0.6055684
540.50 0.6223073
540.60 0.639079
540.70 0.6520437
540.80 0.6621511
540.90 0.6703152
541.00 0.6765918
541.10 0.6811133
541.20 0.6847028
541.30 0.6880944
541.40 0.69171
541.50 0.6926135
541.60 0.6927692
541.70 0.6918938
541.80 0.688853
541.90 0.683613
542.00 0.6759681
542.10 0.6680882
542.20 0.6615932
542.30 0.6577583
542.40 0.6571375
542.50 0.6571375
542.60 0.6571375
542.70 0.6571375
542.80 0.6571375
542.90 0.6571375
543.00 0.655035
543.10 0.6476652
543.20 0.6352637
543.30 0.6194735
543.40 0.6025115
543.50 0.5868907
543.60 0.585
543.70 0.5968938
543.80 0.6215617
543.90 0.6547405
544.00 0.6937521
544.10 0.7369919
544.20 0.7818296
544.30 0.8262539
544.40 0.8695492
544.50 0.9114359
544.60 0.9529355
544.70 0.9945602
544.80 1.036301
544.90 1.077854
545.00 1.118882
545.10 1.159113
545.20 1.198091
545.30 1.234089
545.40 1.264162
545.50 1.285971
545.60 1.298988
545.70 1.303825
545.80 1.300648
545.90 1.289423
546.00 1.272667
546.10 1.254621
546.20 1.236866
546.30 1.221761
546.40 1.211829
546.50 1.209294
546.60 1.209294
546.70 1.209294
546.80 1.209294
546.90 1.209294
547.00 1.209294
547.10 1.209294
547.20 1.209294
547.30 1.209294
547.40 1.209294
547.50 1.209294
547.60 1.209294
547.70 1.209294
547.80 1.209294
547.90 1.209294
548.00 1.209294
548.10 1.209294
548.20 1.209294
548.30 1.209294
548.40 1.209294
548.50 1.209294
548.60 1.209294
548.70 1.209294
548.80 1.209294
548.90 1.209294
549.00 1.209294
549.10 1.207892
549.20 1.203279
549.30 1.195805
549.40 1.184791
549.50 1.169296
549.60 1.148639
549.70 1.12287
549.80 1.093526
549.90 1.063195
550.00 2.057338
550.10 2.057338
550.20 2.057338
550.30 2.057338
550.40 2.057338
550.50 2.057017
550.60 2.030657
550.70 1.982765
550.80 1.916474
550.90 1.833527
551.00 1.735998
551.10 1.627898
551.20 1.515804
551.30 1.404743
551.40 1.295324
551.50 1.187009
551.60 1.078799
551.70 0.9694212
551.80 0.8590247
551.90 0.7483116
552.00 0.6371296
552.10 0.5241557
552.20 0.4104095
552.30 0.3016751
552.40 0.2060884
552.50 0.129876
552.60 0.07332159
552.70 0.03338261
552.80 0.009024409
552.90 0
553.00 0
553.10 0
553.20 0
553.30 0.01959822
553.40 0.05566728
553.50 0.1038984
553.60 0.1611227
553.70 0.224378
553.80 0.292067
553.90 0.363749
554.00 0.4371241
554.10 0.5077962
554.20 0.5707885
554.30 0.6210419
554.40 0.6550913
554.50 0.6742149
554.60 0.6828994
554.70 0.6859007
554.80 0.6875873
554.90 0.6916499
555.00 0.6988095
555.10 0.6988095
555.20 0.6988095
555.30 0.6988095
555.40 0.6988095
555.50 0.6988095
555.60 0.6988095
555.70 0.6988095
555.80 0.6988095
555.90 0.6988095
556.00 0.6988095
556.10 0.7101327
556.20 0.7829266
556.30 0.8942447
556.40 1.017209
556.50 1.136911
556.60 1.255672
556.70 1.384154
556.80 1.530409
556.90 1.689915
557.00 1.85282
557.10 2.010816
557.20 2.156
557.30 2.262663
557.40 2.329727
557.50 2.358899
557.60 2.352903
557.70 2.3175
557.80 2.260216
557.90 2.189657
558.00 2.117045
558.10 2.053639
558.20 2.007462
558.30 1.98289
558.40 1.979487
558.50 1.98973
558.60 2.001603
558.70 2.002357
558.80 2.00067
558.90 1.996608
559.00 1.989448
559.10 1.989448
559.20 1.989448
559.30 1.989448
559.40 1.989448
559.50 1.989448
559.60 1.989448
559.70 1.989448
559.80 1.989448
559.90 1.989448
560.00 1.990647
560.10 1.991497
560.20 1.943686
560.30 1.868432
560.40 1.791041
560.50 1.726455
560.60 1.671281
560.70 1.611835
560.80 1.537544
560.90 1.452268
561.00 1.366002
561.10 1.286917
561.20 1.221662
561.30 1.174167
561.40 1.144996
561.50 1.131757
561.60 1.131769
561.70 1.144312
561.80 1.168977
561.90 1.204552
562.00 1.250314
562.10 1.304809
562.20 1.364305
562.30 1.423371
562.40 1.477822
562.50 1.526774
562.60 1.572857
562.70 1.621031
562.80 1.655816
562.90 1.672771
563.00 1.675693
563.10 1.675693
563.20 1.675693
563.30 1.679367
563.40 1.692658
563.50 1.715455
563.60 1.748228
563.70 1.79062
563.80 1.839957
563.90 1.893424
564.00 1.948321
564.10 1.994147
564.20 2.030091
564.30 2.059043
564.40 2.081055
564.50 2.091555
564.60 2.084516
564.70 2.052922
564.80 1.991378
564.90 1.917148
565.00 1.840509
565.10 1.761599
565.20 1.681669
565.30 1.602902
565.40 1.528941
565.50 1.464777
565.60 1.413537
565.70 1.373141
565.80 1.338071
565.90 1.301374
566.00 1.254849
566.10 1.193087
566.20 1.116775
566.30 1.032027
566.40 0.9469312
566.50 0.8686116
566.60 0.8019724
566.70 0.7500422
566.80 0.7152577
566.90 0.6983028
567.00 0.6998173
567.10 0.7192721
567.20 0.7560367
567.30 0.8047608
567.40 0.8558756
567.50 0.9036048
567.60 0.9403469
567.70 0.9616855
567.80 0.9684726
567.90 0.9632321
568.00 0.948492
568.10 0.9257432
568.20 0.8919792
568.30 0.8423565
568.40 0.7756633
568.50 0.7100475
568.60 0.653498
568.70 0.6160563
568.80 0.6056364
568.90 0.6056364
569.00 0.6056364
569.10 0.6056364
569.20 0.6056364
569.30 0.6056364
569.40 0.6056364
569.50 0.6058889
569.60 0.6177547
569.70 0.6488221
569.80 0.7024759
569.90 0.776622
570.00 0.8656586
570.10 0.9609164
570.20 1.049278
570.30 1.117806
570.40 1.158745
570.50 1.170084
570.60 1.170084
570.70 1.170084
570.80 1.170084
570.90 1.17663
571.00 1.207846
571.10 1.254534
571.20 1.310947
571.30 1.370821
571.40 1.425174
571.50 1.466796
571.60 1.494939
571.70 1.510777
571.80 1.514605
571.90 1.506422
572.00 1.485859
572.10 1.455003
572.20 1.427841
572.30 1.412447
572.40 1.411556
572.50 1.411556
572.60 1.411556
572.70 1.411556
572.80 1.411556
572.90 1.411556
573.00 1.411556
573.10 1.411556
573.20 1.411556
573.30 1.411556
573.40 1.411556
573.50 1.411304
573.60 1.403474
573.70 1.383154
573.80 1.338018
573.90 1.263872
574.00 1.174835
574.10 1.079578
574.20 0.9912159
574.30 0.9226883
574.40 0.8817491
574.50 0.8856852
574.60 0.9125309
574.70 0.9433179
574.80 0.9679624
574.90 0.9705823
575.00 0.9349302
575.10 0.8687872
575.20 0.7756096
575.30 0.6633369
575.40 0.5445783
575.50 0.4324306
575.60 0.3347721
575.70 0.2929602
575.80 0.3121985
575.90 0.3881737
576.00 0.5098147
576.10 0.6586155
576.20 0.8036268
576.30 0.9229361
576.40 1.003996
576.50 1.041497
576.60 1.041497
576.70 1.041497
576.80 1.041497
576.90 1.041497
577.00 1.041497
577.10 1.041497
577.20 1.041497
577.30 1.041497
577.40 1.041497
577.50 1.041497
577.60 1.03746
577.70 1.026713
577.80 1.018195
577.90 1.018195
578.00 1.018195
578.10 1.018195
578.20 1.018195
578.30 1.030397
578.40 1.056804
578.50 1.081685
578.60 1.105398
578.70 1.131836
578.80 1.165354
578.90 1.206707
579.00 1.242152
579.10 1.258943
579.20 1.259478
579.30 1.259478
579.40 1.259478
579.50 1.266562
579.60 1.296141
579.70 1.313641
579.80 1.312763
579.90 1.288154
580.00 1.234245
580.10 1.148996
580.20 1.039435
580.30 0.9218481
580.40 0.8407887
580.50 0.8032874
580.60 0.8032874
580.70 0.8032874
580.80 0.8143051
580.90 0.847772
581.00 0.8969526
581.10 0.9516509
581.20 0.9993331
581.30 1.029447
581.40 1.034832
581.50 1.034832
581.60 1.034832
581.70 1.034832
581.80 1.034832
581.90 1.034832
582.00 1.034832
582.10 1.034832
582.20 1.034832
582.30 1.022631
582.40 1.016433
582.50 1.025071
582.60 1.038262
582.70 1.042084
582.80 1.024332
582.90 0.9813408
583.00 0.945896
583.10 0.9291048
583.20 0.9285704
583.30 0.9285704
583.40 0.9285704
583.50 0.9214858
583.60 0.8919067
583.70 0.867705
583.80 0.8674882
583.90 0.9009446
584.00 0.9807051
584.10 1.116741
584.20 1.31104
584.30 1.551768
584.40 1.791612
584.50 2.017663
584.60 2.222763
584.70 2.399615
584.80 2.531285
584.90 2.604401
585.00 2.627626
585.10 2.616398
585.20 2.591775
585.30 2.572542
585.40 2.572532
585.50 2.578746
585.60 2.590765
585.70 2.611868
585.80 2.644871
585.90 2.691038
586.00 2.750776
586.10 2.827803
586.20 2.924831
586.30 3.036507
586.40 3.129384
586.50 3.180774
586.60 3.191456
586.70 3.1668
586.80 3.12639
586.90 3.118862
587.00 3.118862
587.10 3.118862
587.20 3.118862
587.30 3.118862
587.40 3.118862
587.50 3.118862
587.60 3.118862
587.70 3.087807
587.80 3.009711
587.90 2.884845
588.00 2.716559
588.10 2.512576
588.20 2.282828
588.30 2.067555
588.40 1.881748
588.50 1.729687
588.60 1.613159
588.70 1.527808
588.80 1.458577
588.90 1.383725
589.00 1.31132
589.10 1.267849
589.20 1.24479
589.30 1.233909
589.40 1.228534
589.50 1.22232
589.60 1.210301
589.70 1.189198
589.80 1.188556
589.90 1.209796
590.00 1.237168
590.10 1.250941
590.20 1.237151
590.30 1.195335
590.40 1.136018
590.50 1.072318
590.60 1.015995
590.70 0.9805919
590.80 0.9805919
590.90 0.9805919
591.00 0.9805919
591.10 0.9805919
591.20 0.9805919
591.30 0.9805919
591.40 0.9805919
591.50 0.9805919
591.60 0.9805919
591.70 0.9805919
591.80 0.9805919
591.90 0.99101
592.00 1.038845
592.10 1.093866
592.20 1.123364
592.30 1.096187
592.40 1.042149
592.50 0.9681592
592.60 0.8795878
592.70 0.7880871
592.80 0.7146307
592.90 0.682899
593.00 0.682899
593.10 0.682899
593.20 0.682899
593.30 0.682899
593.40 0.682899
593.50 0.682899
593.60 0.682899
593.70 0.682899
593.80 0.6505373
593.90 0.5831311
594.00 0.4960209
594.10 0.4052203
594.20 0.3219821
594.30 0.2521231
594.40 0.1983533
594.50 0.1618693
594.60 0.1437617
594.70 0.1427726
594.80 0.1427726
594.90 0.1427726
595.00 0.1427726
595.10 0.1698001
595.20 0.2261215
595.30 0.3081853
595.40 0.4135511
595.50 0.5380159
595.60 0.6750565
595.70 0.8153947
595.80 0.9464053
595.90 1.04239
596.00 1.06372
596.10 1.037291
596.20 1.007793
596.30 1.007793
596.40 1.007793
596.50 1.007793
596.60 1.007793
596.70 1.007793
596.80 1.007793
596.90 1.007793
597.00 1.007793
597.10 1.007793
597.20 1.007793
597.30 1.007793
597.40 1.007793
597.50 1.007793
597.60 1.007793
597.70 1.007793
597.80 1.007793
597.90 1.007793
598.00 1.007793
598.10 1.007793
598.20 1.007793
598.30 1.007793
598.40 1.007793
598.50 1.007793
598.60 1.007793
598.70 1.00947
598.80 1.018645
598.90 1.023969
599.00 1.023969
599.10 0.9969412
599.20 0.9406199
599.30 0.8585561
599.40 0.7721495
599.50 0.6960932
599.60 0.6409041
599.70 0.6160317
599.80 0.6300497
599.90 0.6871112
600.00 0
600.10 0
600.20 0
600.30 0
600.40 0
600.50 0
600.60 0
600.70 0.0670895
600.80 0.3669857
600.90 0.2129471
601.00 0
601.10 0
601.20 0
601.30 0
601.40 0.7583678
601.50 1.936342
601.60 3.274058
601.70 4.618636
601.80 5.801143
601.90 6.538562
602.00 6.552488
602.10 5.701773
602.20 3.885461
602.30 1.134348
602.40 0
602.50 0
602.60 0
602.70 0
602.80 0
602.90 0
603.00 0
603.10 0
603.20 0
603.30 0
603.40 0
603.50 0
603.60 0.1644482
603.70 0.8493034
603.80 1.418361
603.90 1.853028
604.00 2.029573
604.10 1.909498
604.20 1.467724
604.30 0.6894072
604.40 0
604.50 0
604.60 0
604.70 0
604.80 0
604.90 0
605.00 0
605.10 0
605.20 0
605.30 0
605.40 0
605.50 0
605.60 0
605.70 0
605.80 0
605.90 0
606.00 0
606.10 0
606.20 1.479746
606.30 2.917004
606.40 4.160474
606.50 5.125433
606.60 5.907828
606.70 6.668459
606.80 7.379131
606.90 7.899639
607.00 8.164899
607.10 8.185033
607.20 7.918569
607.30 7.2942
607.40 6.369676
607.50 5.197565
607.60 3.78266
607.70 2.186203
607.80 0.4978324
607.90 0
608.00 0
608.10 0
608.20 0
608.30 0
608.40 0
608.50 0
608.60 0
608.70 0.2119095
608.80 0.9765626
608.90 1.442794
609.00 1.712212
609.10 1.775096
609.20 1.566597
609.30 1.008237
609.40 0.1374276
609.50 0
609.60 0
609.70 0
609.80 0
609.90 0
610.00 0
610.10 0
610.20 0.4307401
610.30 1.079584
610.40 1.1346
610.50 0.4989801
610.60 0
610.70 0
610.80 0
610.90 0
611.00 0
611.10 0
611.20 0
611.30 0
611.40 0
611.50 0
611.60 0
611.70 0
611.80 0
611.90 0
612.00 0.108286
612.10 0.2725466
612.20 0.2771866
612.30 0.1338872
612.40 0
612.50 0
612.60 0
612.70 0
612.80 0
612.90 0
613.00 0
613.10 0
613.20 0
613.30 0
613.40 0
613.50 0
613.60 0.268039
613.70 0.7101879
613.80 1.149266
613.90 1.567207
614.00 1.917884
614.10 2.182662
614.20 2.369719
614.30 2.515098
614.40 2.639138
614.50 2.693688
614.60 2.58052
614.70 2.220545
614.80 1.620294
614.90 0.8879689
615.00 0.2448342
615.10 0
615.20 0
615.30 0.1922604
615.40 0.5387285
615.50 0.8443588
615.60 1.027915
615.70 0.9730941
615.80 0.5382106
615.90 0
616.00 0
616.10 0
616.20 0
616.30 0
616.40 0
616.50 0
616.60 0
616.70 0.4504793
616.80 0.7941148
616.90 0.8285609
617.00 0.547525
617.10 0.09013105
617.20 0
617.30 0
617.40 0
617.50 0
617.60 0
617.70 0
617.80 0.04118853
617.90 0.5147728
618.00 0.9160586
618.10 1.260071
618.20 1.660532
618.30 2.121879
618.40 2.483185
618.50 2.617719
618.60 2.599257
618.70 2.596407
618.80 2.73634
618.90 3.046183
619.00 3.497775
619.10 3.976024
619.20 4.36274
619.30 4.629887
619.40 4.778655
619.50 4.804008
619.60 4.690635
619.70 4.504719
619.80 4.365716
619.90 4.279625
620.00 4.032079
620.10 3.440106
620.20 2.505482
620.30 1.434594
620.40 0.5626482
620.50 0.1724445
620.60 0.420897
620.70 1.246516
620.80 2.447636
620.90 3.67518
621.00 4.453064
621.10 4.460148
621.20 3.672694
621.30 2.337097
621.40 0.9062597
621.50 0
621.60 0
621.70 0
621.80 0
621.90 0
622.00 0.1291896
622.10 0.7336327
622.20 1.324721
622.30 1.892479
622.40 2.540409
622.50 3.334293
622.60 4.17925
622.70 4.889627
622.80 5.300973
622.90 5.366114
623.00 5.177893
623.10 4.856642
623.20 4.476957
623.30 4.116268
623.40 3.967807
623.50 4.161868
623.60 4.622999
623.70 5.228553
623.80 5.825827
623.90 6.230802
624.00 6.239572
624.10 5.831908
624.20 5.185081
624.30 4.489208
624.40 3.846168
624.50 3.354048
624.60 3.105525
624.70 3.058852
624.80 2.993245
624.90 2.669347
625.00 2.046403
625.10 1.17276
625.20 0.137579
625.30 0
625.40 0
625.50 0
625.60 0
625.70 0
625.80 0
625.90 0
626.00 1.11216
626.10 2.305553
626.20 3.384735
626.30 4.341754
626.40 5.146499
626.50 5.776015
626.60 6.223487
626.70 6.432478
626.80 6.388861
626.90 6.061365
627.00 5.345677
627.10 4.177884
627.20 2.610036
627.30 0.8640503
627.40 0
627.50 0
627.60 0
627.70 0
627.80 0
627.90 0.4409026
628.00 2.382899
628.10 4.057
628.20 5.128094
628.30 5.501427
628.40 5.207717
628.50 4.33732
628.60 3.12232
628.70 1.893757
628.80 0.9482244
628.90 0.39159
629.00 0.2272793
629.10 0.4550201
629.20 1.111006
629.30 2.130339
629.40 3.178031
629.50 3.696009
629.60 3.050027
629.70 0.9022584
629.80 0
629.90 0
630.00 0
630.10 0
630.20 0
630.30 0
630.40 0
630.50 0
630.60 2.442001
630.70 5.480081
630.80 6.974561
630.90 7.008875
631.00 6.06852
631.10 4.810477
631.20 3.737533
631.30 3.045383
631.40 2.654043
631.50 2.40373
631.60 2.240979
631.70 2.112354
631.80 2.015121
631.90 2.019403
632.00 2.180835
632.10 2.450878
632.20 2.720615
632.30 2.988672
632.40 3.332013
632.50 3.669861
632.60 3.722611
632.70 3.379483
632.80 2.78632
632.90 2.118187
633.00 1.504985
633.10 1.135085
633.20 1.163714
633.30 1.568291
633.40 2.124623
633.50 2.652484
633.60 3.124388
633.70 3.52233
633.80 3.759828
633.90 3.776475
634.00 3.610225
634.10 3.283401
634.20 2.870646
634.30 2.427006
634.40 1.990247
634.50 1.642903
634.60 1.463664
634.70 1.578508
634.80 2.154544
634.90 3.192731
635.00 4.46285
635.10 5.627192
635.20 6.439753
635.30 6.832376
635.40 6.824779
635.50 6.411608
635.60 5.634309
635.70 4.693778
635.80 3.796037
635.90 3.057829
636.00 2.448282
636.10 1.792881
636.20 1.03305
636.30 0.3199954
636.40 0
636.50 0
636.60 0.1209985
636.70 0.6755473
636.80 1.280751
636.90 1.818111
637.00 2.181987
637.10 2.226704
637.20 1.904212
637.30 1.265435
637.40 0.5384807
637.50 0.002797486
637.60 0
637.70 0
637.80 0.3974053
637.90 1.323146
638.00 2.534416
638.10 3.839724
638.20 5.135018
638.30 6.285143
638.40 7.058926
638.50 7.334253
638.60 7.151942
638.70 6.681437
638.80 6.112541
638.90 5.656492
639.00 5.438859
639.10 5.420538
639.20 5.416607
639.30 5.240382
639.40 4.948843
639.50 4.710469
639.60 4.64453
639.70 4.809311
639.80 5.163195
639.90 5.560928
640.00 5.834265
640.10 5.86009
640.20 5.585034
640.30 5.00562
640.40 4.174161
640.50 3.249326
640.60 2.462449
640.70 1.993287
640.80 1.836689
640.90 1.829235
641.00 1.783057
641.10 1.640625
641.20 1.503235
641.30 1.538509
641.40 1.899614
641.50 2.622889
641.60 3.612523
641.70 4.729707
641.80 5.84771
641.90 6.717832
642.00 7.060164
642.10 6.849126
642.20 6.23513
642.30 5.438976
642.40 4.701761
642.50 4.205515
642.60 4.085557
642.70 4.373697
642.80 4.969937
642.90 5.739945
643.00 6.546542
643.10 7.211994
643.20 7.591699
643.30 7.730607
643.40 7.724339
643.50 7.54136
643.60 7.151681
643.70 6.648899
643.80 6.185122
643.90 5.863272
644.00 5.691305
644.10 5.625923
644.20 5.612032
644.30 5.588173
644.40 5.509935
644.50 5.340378
644.60 5.076493
644.70 4.762404
644.80 4.514521
644.90 4.371671
645.00 4.294706
645.10 4.26762
645.20 4.278704
645.30 4.319352
645.40 4.413251
645.50 4.661679
645.60 5.128985
645.70 5.769786
645.80 6.517508
645.90 7.38838
646.00 8.353368
646.10 9.130134
646.20 9.327249
646.30 8.828212
646.40 7.843871
646.50 6.721301
646.60 5.798144
646.70 5.296114
646.80 5.250071
646.90 5.438479
647.00 5.54924
647.10 5.465828
647.20 5.193214
647.30 4.638148
647.40 3.760803
647.50 2.819826
647.60 2.226226
647.70 2.237848
647.80 2.827895
647.90 3.7375
648.00 4.638224
648.10 5.304068
648.20 5.68645
648.30 5.903044
648.40 6.171634
648.50 6.593202
648.60 7.169794
648.70 7.9283
648.80 8.793534
648.90 9.592632
649.00 10.16625
649.10 10.42252
649.20 10.37987
649.30 10.12818
649.40 9.717225
649.50 9.181287
649.60 8.593709
649.70 8.052275
649.80 7.59933
649.90 7.239215
650.00 6.945309
650.10 6.719235
650.20 6.654948
650.30 6.829077
650.40 7.257332
650.50 7.920598
650.60 8.707046
650.70 9.407036
650.80 9.899459
650.90 10.13174
651.00 10.01613
651.10 9.515385
651.20 8.748928
651.30 7.887011
651.40 7.11627
651.50 6.665643
651.60 6.661681
651.70 7.077045
651.80 7.733313
651.90 8.393751
652.00 8.902756
652.10 9.204441
652.20 9.310882
652.30 9.255609
652.40 9.131826
652.50 9.02226
652.60 8.941792
652.70 8.881448
652.80 8.79106
652.90 8.542176
653.00 8.060694
653.10 7.394112
653.20 6.68421
653.30 6.099196
653.40 5.71645
653.50 5.54786
653.60 5.586732
653.70 5.81997
653.80 6.177214
653.90 6.618096
654.00 7.05248
654.10 7.389473
654.20 7.623348
654.30 7.749149
654.40 7.771828
654.50 7.778985
654.60 7.885716
654.70 8.143878
654.80 8.634453
654.90 9.391966
655.00 10.22226
655.10 10.83201
655.20 11.0509
655.30 10.80915
655.40 10.17502
655.50 9.27836
655.60 8.271405
655.70 7.442256
655.80 7.013314
655.90 6.961863
656.00 7.210135
656.10 7.666582
656.20 8.125126
656.30 8.470613
656.40 8.766004
656.50 9.08292
656.60 9.411332
656.70 9.68177
656.80 9.824979
656.90 9.778393
657.00 9.552428
657.10 9.174771
657.20 8.729005
657.30 8.390019
657.40 8.192971
657.50 8.093369
657.60 8.132585
657.70 8.320469
657.80 8.624327
657.90 9.012093
658.00 9.466822
658.10 10.00197
658.20 10.60982
658.30 11.26616
658.40 11.88349
658.50 12.32989
658.60 12.50068
658.70 12.261
658.80 11.57075
658.90 10.65148
659.00 9.816646
659.10 9.26632
659.20 9.069409
659.30 9.2827
659.40 9.935758
659.50 10.92726
659.60 12.07883
659.70 13.21723
659.80 14.1831
659.90 14.7664
660.00 14.83412
660.10 14.61
660.20 14.42189
660.30 14.33877
660.40 14.24667
660.50 14.03796
660.60 13.72567
660.70 13.37143
660.80 12.98647
660.90 12.563
661.00 12.12647
661.10 11.75964
661.20 11.53885
661.30 11.49979
661.40 11.62845
661.50 11.78652
661.60 11.83932
661.70 11.75286
661.80 11.56081
661.90 11.33787
662.00 11.17019
662.10 11.18528
662.20 11.51226
662.30 12.25549
662.40 13.44305
662.50 14.88899
662.60 16.23843
662.70 17.20481
662.80 17.6387
662.90 17.46279
663.00 16.67203
663.10 15.39101
663.20 13.8723
663.30 12.40357
663.40 11.22034
663.50 10.41652
663.60 9.968852
663.70 9.772431
663.80 9.688105
663.90 9.675147
664.00 9.75279
664.10 9.961108
664.20 10.32691
664.30 10.8373
664.40 11.48805
664.50 12.22399
664.60 12.95081
664.70 13.57278
664.80 13.93647
664.90 13.84261
665.00 13.20241
665.10 12.15292
665.20 10.94589
665.30 9.816431
665.40 8.956036
665.50 8.491899
665.60 8.501438
665.70 8.933139
665.80 9.623858
665.90 10.39355
666.00 11.05538
666.10 11.46937
666.20 11.6664
666.30 11.82179
666.40 12.04216
666.50 12.31116
666.60 12.56361
666.70 12.72964
666.80 12.79555
666.90 12.8004
667.00 12.76023
667.10 12.71069
667.20 12.72059
667.30 12.83376
667.40 13.11043
667.50 13.62835
667.60 14.30648
667.70 14.94746
667.80 15.42898
667.90 15.69726
668.00 15.75678
668.10 15.71026
668.20 15.72745
668.30 15.9143
668.40 16.24337
668.50 16.62045
668.60 16.93957
668.70 17.12446
668.80 17.01052
668.90 16.40878
669.00 15.39329
669.10 14.26353
669.20 13.33855
669.30 12.77776
669.40 12.59307
669.50 12.71671
669.60 13.00024
669.70 13.31179
669.80 13.61135
669.90 13.86252
670.00 14.03307
670.10 14.12383
670.20 14.21844
670.30 14.41784
670.40 14.72508
670.50 15.09914
670.60 15.46507
670.70 15.75356
670.80 15.91258
670.90 15.92102
671.00 15.84
671.10 15.72579
671.20 15.60605
671.30 15.57582
671.40 15.70984
671.50 16.01537
671.60 16.42707
671.70 16.8461
671.80 17.16818
671.90 17.26185
672.00 17.07048
672.10 16.68692
672.20 16.26438
672.30 15.93928
672.40 15.81204
672.50 15.93257
672.60 16.25919
672.70 16.66745
672.80 17.04212
672.90 17.28306
673.00 17.37715
673.10 17.36617
673.20 17.25815
673.30 17.02683
673.40 16.61565
673.50 15.99706
673.60 15.24414
673.70 14.45146
673.80 13.62857
673.90 12.83796
674.00 12.28172
674.10 12.18341
674.20 12.67927
674.30 13.75651
674.40 15.12215
674.50 16.37619
674.60 17.27574
674.70 17.68802
674.80 17.58284
674.90 17.03493
675.00 16.18416
675.10 15.25769
675.20 14.57521
675.30 14.38514
675.40 14.72894
675.50 15.45449
675.60 16.30033
675.70 17.01514
675.80 17.51163
675.90 17.80782
676.00 17.87356
676.10 17.7146
676.20 17.45403
676.30 17.2879
676.40 17.29745
676.50 17.41021
676.60 17.53732
676.70 17.61762
676.80 17.64085
676.90 17.6319
677.00 17.58135
677.10 17.44816
677.20 17.26811
677.30 17.18554
677.40 17.34753
677.50 17.83006
677.60 18.558
677.70 19.2617
677.80 19.75012
677.90 20.03354
678.00 20.15999
678.10 20.12618
678.20 19.86633
678.30 19.35257
678.40 18.66458
678.50 17.95314
678.60 17.27391
678.70 16.58346
678.80 15.88575
678.90 15.24992
679.00 14.79303
679.10 14.66766
679.20 14.95225
679.30 15.53763
679.40 16.18666
679.50 16.68377
679.60 16.91397
679.70 16.85889
679.80 16.56817
679.90 16.11813
680.00 15.63987
680.10 15.23105
680.20 14.92176
680.30 14.76674
680.40 14.80396
680.50 15.03173
680.60 15.40209
680.70 15.87792
680.80 16.50106
680.90 17.31212
681.00 18.27937
681.10 19.25774
681.20 20.03797
681.30 20.45048
681.40 20.42809
681.50 20.04668
681.60 19.51226
681.70 19.00593
681.80 18.6158
681.90 18.42374
682.00 18.48493
682.10 18.78306
682.20 19.21638
682.30 19.63884
682.40 19.93354
682.50 20.03785
682.60 19.95386
682.70 19.77163
682.80 19.57768
682.90 19.38579
683.00 19.12474
683.10 18.7203
683.20 18.20431
683.30 17.6622
683.40 17.19695
683.50 16.91326
683.60 16.83804
683.70 16.87342
683.80 16.84413
683.90 16.66409
684.00 16.3664
684.10 15.9794
684.20 15.55278
684.30 15.173
684.40 14.97533
684.50 15.10368
684.60 15.61501
684.70 16.4352
684.80 17.36051
684.90 18.10918
685.00 18.42451
685.10 18.23842
685.20 17.65859
685.30 16.84299
685.40 15.94469
685.50 15.10485
685.60 14.47128
685.70 14.19101
685.80 14.2936
685.90 14.64301
686.00 14.9635
686.10 14.91954
686.20 14.34731
686.30 13.39813
686.40 12.37492
686.50 11.50389
686.60 10.96572
686.70 10.88726
686.80 11.29853
686.90 12.14777
687.00 13.27451
687.10 14.41985
687.20 15.29692
687.30 15.7139
687.40 15.68444
687.50 15.37336
687.60 14.99235
687.70 14.63137
687.80 14.31402
687.90 14.14687
688.00 14.17646
688.10 14.39154
688.20 14.71908
688.30 15.05986
688.40 15.34171
688.50 15.46432
688.60 15.35661
688.70 15.02401
688.80 14.57909
688.90 14.2656
689.00 14.22906
689.10 14.47383
689.20 14.94797
689.30 15.48933
689.40 15.97359
689.50 16.35881
689.60 16.64582
689.70 16.85827
689.80 17.03738
689.90 17.28372
690.00 17.68137
690.10 18.21708
690.20 18.74349
690.30 19.00322
690.40 18.87671
690.50 18.43723
690.60 17.77551
690.70 17.0783
690.80 16.5493
690.90 16.23812
691.00 16.12142
691.10 16.17595
691.20 16.37479
691.30 16.64354
691.40 16.83445
691.50 16.84605
691.60 16.72906
691.70 16.68268
691.80 16.83631
691.90 17.1387
692.00 17.55358
692.10 18.00491
692.20 18.3936
692.30 18.64889
692.40 18.69012
692.50 18.47064
692.60 17.97681
692.70 17.27772
692.80 16.59486
692.90 16.21584
693.00 16.29934
693.10 16.70921
693.20 17.12725
693.30 17.35303
693.40 17.2982
693.50 16.91244
693.60 16.11382
693.70 14.94243
693.80 13.7341
693.90 12.87113
694.00 12.5855
694.10 12.94366
694.20 13.85044
694.30 15.07084
694.40 16.29569
694.50 17.23165
694.60 17.6894
694.70 17.62355
694.80 17.18281
694.90 16.66994
695.00 16.39832
695.10 16.53222
695.20 17.00711
695.30 17.66907
695.40 18.40736
695.50 19.13894
695.60 19.75894
695.70 20.13555
695.80 20.15009
695.90 19.84655
696.00 19.46495
696.10 19.23207
696.20 19.19644
696.30 19.26101
696.40 19.34722
696.50 19.38653
696.60 19.31323
696.70 19.11115
696.80 18.74886
696.90 18.20918
697.00 17.50663
697.10 16.67134
697.20 15.76291
697.30 14.89148
697.40 14.12204
697.50 13.49311
697.60 13.07323
697.70 12.90791
697.80 13.03284
697.90 13.48211
698.00 14.20222
698.10 15.02587
698.20 15.76727
698.30 16.2579
698.40 16.45862
698.50 16.44015
698.60 16.29725
698.70 16.09778
698.80 15.91068
698.90 15.74495
699.00 15.52939
699.10 15.23224
699.20 14.88382
699.30 14.56499
699.40 14.31464
699.50 14.18154
699.60 14.34664
699.70 14.98554
699.80 16.07872
699.90 17.49141
700.00 19.02098
700.10 20.39374
700.20 21.34238
700.30 21.69915
700.40 21.44186
700.50 20.66111
700.60 19.52294
700.70 18.24814
700.80 17.09291
700.90 16.23665
701.00 15.673
701.10 15.34669
701.20 15.25634
701.30 15.38317
701.40 15.69113
701.50 16.12381
701.60 16.61101
701.70 17.13605
701.80 17.69921
701.90 18.26182
702.00 18.73597
702.10 19.01649
702.20 19.06565
702.30 18.95542
702.40 18.7804
702.50 18.56403
702.60 18.33708
702.70 18.15724
702.80 18.08489
702.90 18.21943
703.00 18.62686
703.10 19.23134
703.20 19.87726
703.30 20.42519
703.40 20.78252
703.50 20.92046
703.60 20.84761
703.70 20.54641
703.80 20.02545
703.90 19.40533
704.00 18.80688
704.10 18.28136
704.20 17.89591
704.30 17.74524
704.40 17.90308
704.50 18.37748
704.60 19.07278
704.70 19.8046
704.80 20.37561
704.90 20.64219
705.00 20.54804
705.10 20.14157
705.20 19.58037
705.30 19.03083
705.40 18.58169
705.50 18.23024
705.60 17.8929
705.70 17.525
705.80 17.15095
705.90 16.80406
706.00 16.54522
706.10 16.52412
706.20 16.8882
706.30 17.64696
706.40 18.65456
706.50 19.7858
706.60 20.922
706.70 21.8608
706.80 22.48347
706.90 22.84119
707.00 23.05307
707.10 23.12611
707.20 22.96757
707.30 22.56889
707.40 22.04856
707.50 21.52127
707.60 21.04414
707.70 20.67515
707.80 20.52208
707.90 20.60572
708.00 20.85607
708.10 21.22882
708.20 21.6013
708.30 21.8332
708.40 21.87005
708.50 21.69853
708.60 21.40751
708.70 21.1309
708.80 20.92991
708.90 20.83065
709.00 20.84744
709.10 20.99511
709.20 21.31877
709.30 21.83114
709.40 22.44076
709.50 22.99773
709.60 23.42785
709.70 23.70167
709.80 23.80189
709.90 23.7904
710.00 23.73994
710.10 23.69674
710.20 23.70625
710.30 23.85336
710.40 24.24965
710.50 24.93967
710.60 25.81201
710.70 26.64952
710.80 27.26201
710.90 27.55585
711.00 27.50671
711.10 27.15137
711.20 26.54545
711.30 25.72772
711.40 24.7886
711.50 23.87921
711.60 23.18627
711.70 22.83061
711.80 22.85876
711.90 23.26235
712.00 23.95598
712.10 24.78028
712.20 25.51902
712.30 25.97205
712.40 26.09557
712.50 25.95409
712.60 25.58326
712.70 25.07645
712.80 24.57244
712.90 24.148
713.00 23.81897
713.10 23.56155
713.20 23.33236
713.30 23.08886
713.40 22.81044
713.50 22.55035
713.60 22.41578
713.70 22.50326
713.80 22.75227
713.90 23.00155
714.00 23.13186
714.10 23.0329
714.20 22.65849
714.30 22.06829
714.40 21.36963
714.50 20.67629
714.60 20.04937
714.70 19.5226
714.80 19.16036
714.90 19.01645
715.00 19.0958
715.10 19.33441
715.20 19.78402
715.30 20.54291
715.40 21.56888
715.50 22.72943
715.60 23.7918
715.70 24.55265
715.80 24.90542
715.90 24.83698
716.00 24.44832
716.10 23.90144
716.20 23.39175
716.30 23.08221
716.40 23.06831
716.50 23.4034
716.60 23.93338
716.70 24.38051
716.80 24.6258
716.90 24.67104
717.00 24.56552
717.10 24.35878
717.20 24.1778
717.30 24.18565
717.40 24.46364
717.50 25.00752
717.60 25.71083
717.70 26.41527
717.80 26.98329
717.90 27.26782
718.00 27.06946
718.10 26.30401
718.20 25.09534
718.30 23.70405
718.40 22.45233
718.50 21.64182
718.60 21.37408
718.70 21.51481
718.80 21.90866
718.90 22.4877
719.00 23.26235
719.10 24.20801
719.20 25.18743
719.30 26.06208
719.40 26.78082
719.50 27.28838
719.60 27.47015
719.70 27.21955
719.80 26.48985
719.90 25.31622
720.00 23.86146
720.10 22.47636
720.20 21.54362
720.30 21.31302
720.40 21.78295
720.50 22.73209
720.60 23.9077
720.70 25.07523
720.80 26.04502
720.90 26.67927
721.00 26.88848
721.10 26.66363
721.20 26.10191
721.30 25.38334
721.40 24.70781
721.50 24.23815
721.60 24.00958
721.70 23.89445
721.80 23.77331
721.90 23.67845
722.00 23.72938
722.10 24.0019
722.20 24.52745
722.30 25.27574
722.40 26.13824
722.50 27.02622
722.60 27.87857
722.70 28.61776
722.80 29.12815
722.90 29.27963
723.00 29.0419
723.10 28.53612
723.20 27.96738
723.30 27.48089
723.40 27.11106
723.50 26.8237
723.60 26.50435
723.70 26.02808
723.80 25.47944
723.90 25.00131
724.00 24.52396
724.10 23.8691
724.20 23.03402
724.30 22.21925
724.40 21.61761
724.50 21.37208
724.60 21.49555
724.70 21.88718
724.80 22.32606
724.90 22.61867
725.00 22.81362
725.10 23.11369
725.20 23.51982
725.30 23.86049
725.40 24.17287
725.50 24.74194
725.60 25.71494
725.70 26.87411
725.80 27.88663
725.90 28.42051
726.00 28.29947
726.10 27.64081
726.20 26.86632
726.30 26.4208
726.40 26.42485
726.50 26.75755
726.60 27.26815
726.70 27.8305
726.80 28.29239
726.90 28.4391
727.00 28.11697
727.10 27.35267
727.20 26.33533
727.30 25.281
727.40 24.36312
727.50 23.79479
727.60 23.70217
727.70 24.04927
727.80 24.72423
727.90 25.56824
728.00 26.31851
728.10 26.65788
728.20 26.432
728.30 25.68871
728.40 24.59564
728.50 23.38398
728.60 22.2541
728.70 21.47633
728.80 21.27287
728.90 21.53649
729.00 21.9217
729.10 22.08821
729.20 21.89171
729.30 21.34931
729.40 20.66605
729.50 20.18709
729.60 20.13324
729.70 20.52951
729.80 21.2752
729.90 22.26746
730.00 23.37558
730.10 24.35284
730.20 24.91042
730.30 24.87881
730.40 24.33484
730.50 23.49489
730.60 22.5673
730.70 21.75456
730.80 21.29316
730.90 21.35888
731.00 21.88136
731.10 22.53482
731.20 22.85336
731.30 22.47308
731.40 21.37615
731.50 19.89096
731.60 18.53903
731.70 17.78368
731.80 17.82923
731.90 18.66785
732.00 20.1834
732.10 22.14249
732.20 24.12394
732.30 25.56737
732.40 26.05796
732.50 25.53461
732.60 24.3311
732.70 22.9096
732.80 21.60504
732.90 20.61613
733.00 20.02249
733.10 19.83798
733.20 20.04929
733.30 20.54914
733.40 21.15362
733.50 21.63465
733.60 21.71129
733.70 21.29501
733.80 20.64541
733.90 20.14413
734.00 20.02921
734.10 20.29927
734.20 20.8628
734.30 21.60791
734.40 22.33354
734.50 22.84947
734.60 23.06369
734.70 23.03527
734.80 22.848
734.90 22.59752
735.00 22.50497
735.10 22.78024
735.20 23.43967
735.30 24.31961
735.40 25.14801
735.50 25.68673
735.60 25.7219
735.70 25.14767
735.80 24.13584
735.90 22.96481
736.00 21.85856
736.10 20.97108
736.20 20.45639
736.30 20.46866
736.40 21.01876
736.50 21.7492
736.60 21.9107
736.70 20.97783
736.80 19.19404
736.90 17.25873
737.00 15.8304
737.10 15.27401
737.20 15.64326
737.30 16.76679
737.40 18.33548
737.50 19.96455
737.60 21.23561
737.70 21.77739
737.80 21.38329
737.90 20.2625
738.00 19.02025
738.10 18.14999
738.20 17.72782
738.30 17.68234
738.40 18.05444
738.50 18.88215
738.60 20.14286
738.70 21.75377
738.80 23.52244
738.90 25.19851
739.00 26.54994
739.10 27.38464
739.20 27.58336
739.30 27.02203
739.40 25.7137
739.50 23.95963
739.60 22.16447
739.70 20.58705
739.80 19.3243
739.90 18.47094
740.00 18.03259
740.10 17.91664
740.20 18.03664
740.30 18.29849
740.40 18.58264
740.50 18.77174
740.60 18.79557
740.70 18.78501
740.80 18.94544
740.90 19.29433
741.00 19.68145
741.10 19.98102
741.20 20.17481
741.30 20.25437
741.40 20.19623
741.50 20.00226
741.60 19.74318
741.70 19.5575
741.80 19.53816
741.90 19.67935
742.00 19.9215
742.10 20.14706
742.20 20.2516
742.30 20.20046
742.40 20.09141
742.50 20.08175
742.60 20.19345
742.70 20.38809
742.80 20.67299
742.90 21.03632
743.00 21.39633
743.10 21.61193
743.20 21.59896
743.30 21.40607
743.40 21.17969
743.50 21.09585
743.60 21.23304
743.70 21.60428
743.80 22.06845
743.90 22.37073
744.00 22.31634
744.10 21.68708
744.20 20.39354
744.30 18.65013
744.40 16.79424
744.50 15.1199
744.60 13.84493
744.70 13.09271
744.80 12.88995
744.90 13.15019
745.00 13.75817
745.10 14.56692
745.20 15.43235
745.30 16.24517
745.40 16.9576
745.50 17.6683
745.60 18.42505
745.70 19.04782
745.80 19.38886
745.90 19.47166
746.00 19.27705
746.10 18.73704
746.20 17.83551
746.30 16.61809
746.40 15.17086
746.50 13.61549
746.60 12.11613
746.70 10.80408
746.80 9.863232
746.90 9.669244
747.00 10.44183
747.10 12.11519
747.20 14.42566
747.30 16.906
747.40 19.11223
747.50 20.66265
747.60 21.17736
747.70 20.50351
747.80 18.82672
747.90 16.5574
748.00 14.2067
748.10 12.3792
748.20 11.51244
748.30 11.55135
748.40 12.28177
748.50 13.43551
748.60 14.56216
748.70 15.24767
748.80 15.22533
748.90 14.47587
749.00 13.29036
749.10 12.02628
749.20 10.98626
749.30 10.4199
749.40 10.46699
749.50 11.08733
749.60 12.08928
749.70 13.16569
749.80 13.94818
749.90 14.20011
750.00 13.89261
750.10 13.19383
750.20 12.39421
750.30 11.71208
750.40 11.21694
750.50 10.97517
750.60 11.07888
750.70 11.5616
750.80 12.36186
750.90 13.34917
751.00 14.38043
751.10 15.32267
751.20 16.05174
751.30 16.44173
751.40 16.4098
751.50 15.90364
751.60 14.92061
751.70 13.58137
751.80 12.1364
751.90 10.78362
752.00 9.511644
752.10 8.226432
752.20 7.03954
752.30 6.207068
752.40 5.823668
752.50 5.876734
752.60 6.241236
752.70 6.79106
752.80 7.4632
752.90 8.099973
753.00 8.531098
753.10 8.693394
753.20 8.61654
753.30 8.414297
753.40 8.345357
753.50 8.686244
753.60 9.422528
753.70 10.27886
753.80 10.99027
753.90 11.36352
754.00 11.38436
754.10 11.16763
754.20 10.82967
754.30 10.52648
754.40 10.40651
754.50 10.57939
754.60 11.06596
754.70 11.79081
754.80 12.59307
754.90 13.27235
755.00 13.66137
755.10 13.6616
755.20 13.28914
755.30 12.58289
755.40 11.59682
755.50 10.45164
755.60 9.318931
755.70 8.422286
755.80 8.035672
755.90 8.287092
756.00 9.04094
756.10 10.03205
756.20 11.03
756.30 11.87928
756.40 12.48028
756.50 12.83506
756.60 12.97307
756.70 12.89309
756.80 12.51317
756.90 11.8016
757.00 10.84969
757.10 9.895547
757.20 9.154371
757.30 8.693088
757.40 8.578308
757.50 8.793606
757.60 9.218799
757.70 9.669276
757.80 9.931539
757.90 9.800769
758.00 9.094178
758.10 7.812137
758.20 6.240562
758.30 4.739128
758.40 3.605861
758.50 2.992903
758.60 2.937673
758.70 3.402944
758.80 4.282696
758.90 5.52713
759.00 7.008142
759.10 8.476905
759.20 9.699925
759.30 10.38517
759.40 10.32573
759.50 9.566443
759.60 8.359468
759.70 7.015031
759.80 5.719702
759.90 4.648572
760.00 3.925837
760.10 3.49648
760.20 3.275192
760.30 3.28711
760.40 3.56773
760.50 4.031482
760.60 4.530815
760.70 5.050682
760.80 5.69582
760.90 6.424745
761.00 6.965695
761.10 7.059274
761.20 6.715417
761.30 5.99624
761.40 4.982639
761.50 4.017051
761.60 3.471774
761.70 3.467513
761.80 3.919302
761.90 4.645609
762.00 5.373959
762.10 5.827448
762.20 5.761637
762.30 5.113496
762.40 4.036417
762.50 2.533571
762.60 0.5481194
762.70 0
762.80 0
762.90 0
763.00 0
763.10 0
763.20 0
763.30 0
763.40 1.381496
763.50 2.843675
763.60 3.710354
763.70 3.856302
763.80 3.313874
763.90 2.518876
764.00 2.043405
764.10 2.112543
764.20 2.571072
764.30 3.146917
764.40 3.596225
764.50 3.713556
764.60 3.423706
764.70 2.824649
764.80 2.150984
764.90 1.611412
765.00 1.298418
765.10 1.271319
765.20 1.5279
765.30 1.886088
765.40 2.029482
765.50 1.732435
765.60 0.9384447
765.70 0
765.80 0
765.90 0
766.00 0
766.10 0
766.20 0
766.30 0
766.40 0
766.50 0
766.60 0.7636809
766.70 1.806901
766.80 2.483783
766.90 2.72135
767.00 2.541712
767.10 2.03184
767.20 1.262875
767.30 0.3538698
767.40 0
767.50 0
767.60 0
767.70 0
767.80 0
767.90 0
768.00 0
768.10 0
768.20 0.4289205
768.30 1.864207
768.40 3.029301
768.50 3.714806
768.60 3.852735
768.70 3.550376
768.80 2.999645
768.90 2.436741
769.00 2.025293
769.10 1.811127
769.20 1.856331
769.30 2.175996
769.40 2.583028
769.50 2.811678
769.60 2.774273
769.70 2.533131
769.80 2.204804
769.90 1.950052
770.00 1.875324
770.10 2.015458
770.20 2.341272
770.30 2.737645
770.40 3.070531
770.50 3.266672
770.60 3.127777
770.70 2.376289
770.80 0.9385016
770.90 0
771.00 0
771.10 0
771.20 0
771.30 0
771.40 0
771.50 0
771.60 0
771.70 0
771.80 0
771.90 0
772.00 0
772.10 0
772.20 0
772.30 0
772.40 0
772.50 0
772.60 0
772.70 0
772.80 0
772.90 0
773.00 0.1586299
773.10 1.830342
773.20 3.457342
773.30 4.779389
773.40 5.693086
773.50 6.38025
773.60 7.056261
773.70 7.711044
773.80 8.240177
773.90 8.549324
774.00 8.518382
774.10 8.05076
774.20 7.159292
774.30 6.035393
774.40 4.991389
774.50 4.093572
774.60 2.918226
774.70 0.8799988
774.80 0
774.90 0
775.00 0
775.10 0
775.20 0
775.30 0
775.40 0
775.50 0
775.60 0
775.70 2.349548
775.80 4.337277
775.90 4.650951
776.00 3.775548
776.10 2.642594
776.20 1.998722
776.30 2.054533
776.40 2.631079
776.50 3.513013
776.60 4.525967
776.70 5.512985
776.80 6.382545
776.90 7.103013
777.00 7.573665
777.10 7.666319
777.20 7.417616
777.30 6.997417
777.40 6.622955
777.50 6.461832
777.60 6.636532
777.70 7.201244
777.80 8.002344
777.90 8.813861
778.00 9.462184
778.10 9.79626
778.20 9.735597
778.30 9.32298
778.40 8.801293
778.50 8.425656
778.60 8.209289
778.70 8.096696
778.80 8.104888
778.90 8.198
779.00 7.97963
779.10 6.92785
779.20 5.041989
779.30 2.705296
779.40 0.3326382
779.50 0
779.60 0
779.70 0
779.80 0
779.90 0
780.00 2.212468
780.10 4.814878
780.20 7.077046
780.30 8.477679
780.40 8.875729
780.50 8.422736
780.60 7.319839
780.70 5.895701
780.80 4.621071
780.90 4.021692
781.00 4.391153
781.10 5.763513
781.20 8.02017
781.30 10.88266
781.40 14.01284
781.50 16.79955
781.60 18.38352
781.70 18.08359
781.80 15.73082
781.90 11.83662
782.00 7.356246
782.10 3.395353
782.20 0.9378913
782.30 0.4722762
782.40 1.993408
782.50 5.144831
782.60 9.233204
782.70 13.29903
782.80 16.34529
782.90 17.77644
783.00 17.70652
783.10 16.68882
783.20 15.37112
783.30 14.31119
783.40 13.79661
783.50 13.78081
783.60 14.07166
783.70 14.45292
783.80 14.65698
783.90 14.57454
784.00 14.29695
784.10 14.0349
784.20 13.96567
784.30 14.09834
784.40 14.37038
784.50 14.81746
784.60 15.61455
784.70 16.8058
784.80 18.15676
784.90 19.24333
785.00 19.55996
785.10 19.04263
785.20 18.2329
785.30 17.63306
785.40 17.45795
785.50 17.77118
785.60 18.54226
785.70 19.58038
785.80 20.55882
785.90 21.20796
786.00 21.29548
786.10 20.7102
786.20 19.63122
786.30 18.48177
786.40 17.80934
786.50 17.87605
786.60 18.30346
786.70 18.58579
786.80 18.58118
786.90 18.40056
787.00 18.29502
787.10 18.56776
787.20 19.31229
787.30 20.37269
787.40 21.54961
787.50 22.63178
787.60 23.42252
787.70 23.89697
787.80 24.1606
787.90 24.27087
788.00 24.43887
788.10 24.98721
788.20 26.04878
788.30 27.45576
788.40 28.81694
788.50 29.80273
788.60 30.27685
788.70 30.176
788.80 29.52443
788.90 28.52613
789.00 27.44598
789.10 26.40346
789.20 25.40521
789.30 24.57816
789.40 24.10122
789.50 24.01165
789.60 24.21736
789.70 24.56399
789.80 24.90668
789.90 25.18189
790.00 25.37693
790.10 25.48367
790.20 25.49416
790.30 25.40665
790.40 25.26133
790.50 25.17998
790.60 25.38404
790.70 25.88601
790.80 26.18238
790.90 25.49133
791.00 23.14708
791.10 19.23019
791.20 14.6196
791.30 10.34727
791.40 7.351713
791.50 6.279746
791.60 7.310634
791.70 10.15402
791.80 14.16918
791.90 18.49953
792.00 22.19455
792.10 24.56713
792.20 25.62034
792.30 25.95165
792.40 26.38365
792.50 27.31196
792.60 28.49091
792.70 29.51401
792.80 29.96658
792.90 29.58929
793.00 28.44573
793.10 26.8126
793.20 25.11132
793.30 23.77389
793.40 23.07546
793.50 23.18829
793.60 24.11063
793.70 25.64676
793.80 27.43406
793.90 29.02098
794.00 30.03039
794.10 30.28665
794.20 29.78709
794.30 28.51698
794.40 26.46024
794.50 23.79295
794.60 20.83111
794.70 17.97445
794.80 15.71198
794.90 14.45877
795.00 14.43179
795.10 15.56686
795.20 17.59901
795.30 20.18718
795.40 22.98658
795.50 25.64489
795.60 27.90631
795.70 29.63041
795.80 30.72359
795.90 31.23557
796.00 31.26649
796.10 30.80508
796.20 30.00778
796.30 29.19809
796.40 28.68565
796.50 28.85303
796.60 29.93427
796.70 31.8903
796.80 34.49481
796.90 37.36698
797.00 40.06023
797.10 42.2336
797.20 43.71546
797.30 44.3902
797.40 44.23868
797.50 43.49907
797.60 42.41276
797.70 41.15553
797.80 39.97824
797.90 39.0151
798.00 38.38237
798.10 38.22315
798.20 38.55202
798.30 39.30403
798.40 40.3416
798.50 41.47921
798.60 42.41346
798.70 42.87441
798.80 42.78793
798.90 42.21879
799.00 41.19139
799.10 39.72127
799.20 38.02201
799.30 36.50875
799.40 35.4788
799.50 34.96313
799.60 34.95149
799.70 35.3637
799.80 36.05205
799.90 36.90206
800.00 37.90337
800.10 39.00016
800.20 40.06451
800.30 40.90432
800.40 41.43658
800.50 41.79302
800.60 42.1205
800.70 42.41103
800.80 42.69281
800.90 43.1268
801.00 43.7114
801.10 44.27269
801.20 44.6335
801.30 44.72908
801.40 44.58319
801.50 44.26784
801.60 43.89062
801.70 43.64038
801.80 43.68618
801.90 44.02092
802.00 44.48664
802.10 44.94819
802.20 45.02363
802.30 44.22119
802.40 42.49042
802.50 40.29106
802.60 38.33468
802.70 37.12536
802.80 36.86823
802.90 37.47686
803.00 38.71742
803.10 40.42381
803.20 42.46139
803.30 44.60893
803.40 46.53522
803.50 47.87438
803.60 48.63174
803.70 49.12336
803.80 49.55266
803.90 49.90027
804.00 49.93833
804.10 49.5553
804.20 48.95702
804.30 48.56965
804.40 48.71617
804.50 49.47394
804.60 50.79595
804.70 52.54247
804.80 54.47333
804.90 56.35329
805.00 58.00767
805.10 59.25537
805.20 59.93064
805.30 59.9709
805.40 59.46822
805.50 58.56448
805.60 57.37975
805.70 56.01846
805.80 54.55497
805.90 53.02962
806.00 51.46616
806.10 50.04153
806.20 49.08541
806.30 48.85806
806.40 49.41531
806.50 50.64087
806.60 52.29091
806.70 54.00676
806.80 55.40285
806.90 56.19085
807.00 56.22187
807.10 55.63212
807.20 54.88498
807.30 54.52685
807.40 54.97624
807.50 56.30626
807.60 58.18957
807.70 60.0776
807.80 61.40701
807.90 61.72579
808.00 60.85415
808.10 59.02261
808.20 56.77948
808.30 54.74704
808.40 53.46455
808.50 53.24197
808.60 54.0508
808.70 55.62308
808.80 57.54749
808.90 59.34423
809.00 60.67482
809.10 61.3601
809.20 61.30007
809.30 60.56941
809.40 59.4259
809.50 58.08446
809.60 56.68709
809.70 55.45798
809.80 54.53822
809.90 53.93747
810.00 53.65615
810.10 53.61239
810.20 53.63835
810.30 53.65105
810.40 53.66088
810.50 53.77058
810.60 54.20922
810.70 55.07012
810.80 56.19665
810.90 57.43692
811.00 58.71865
811.10 59.97765
811.20 61.18871
811.30 62.40622
811.40 63.67417
811.50 64.95384
811.60 66.2266
811.70 67.46072
811.80 68.51147
811.90 69.17609
812.00 69.26252
812.10 68.78737
812.20 68.04471
812.30 67.37049
812.40 67.02701
812.50 67.17913
812.60 67.76474
812.70 68.53674
812.80 69.3289
812.90 70.01137
813.00 70.35408
813.10 70.16291
813.20 69.3694
813.30 68.19346
813.40 67.12057
813.50 66.51766
813.60 66.50983
813.70 67.03327
813.80 67.841
813.90 68.53348
814.00 68.81419
814.10 68.52491
814.20 67.58909
814.30 66.32462
814.40 65.23845
814.50 64.70469
814.60 65.028
814.70 66.22967
814.80 68.05588
814.90 70.26503
815.00 72.54886
815.10 74.55153
815.20 76.05302
815.30 77.00054
815.40 77.42694
815.50 77.45854
815.60 77.28448
815.70 76.91937
815.80 76.35861
815.90 75.75816
816.00 75.30543
816.10 75.13298
816.20 75.24783
816.30 75.56215
816.40 75.99705
816.50 76.53851
816.60 77.21448
816.70 78.03197
816.80 78.96558
816.90 79.94188
817.00 80.80999
817.10 81.42981
817.20 81.72802
817.30 81.65517
817.40 81.21967
817.50 80.51629
817.60 79.66758
817.70 78.76142
817.80 77.85526
817.90 77.00198
818.00 76.23461
818.10 75.55221
818.20 74.95545
818.30 74.42449
818.40 73.79951
818.50 72.85099
818.60 71.42354
818.70 69.53994
818.80 67.47604
818.90 65.52641
819.00 63.75183
819.10 62.20866
819.20 61.05548
819.30 60.4444
819.40 60.52199
819.50 61.27681
819.60 62.52237
819.70 64.0814
819.80 65.98369
819.90 68.32079
820.00 70.99854
820.10 73.81335
820.20 76.44232
820.30 78.67594
820.40 80.64924
820.50 82.44743
820.60 83.96385
820.70 85.07823
820.80 85.71479
820.90 86.02402
821.00 86.2484
821.10 86.45616
821.20 86.57833
821.30 86.5858
821.40 86.55843
821.50 86.49678
821.60 86.30435
821.70 85.80595
821.80 84.87648
821.90 83.65348
822.00 82.40141
822.10 81.36284
822.20 80.75367
822.30 80.71526
822.40 81.35416
822.50 82.74823
822.60 84.80816
822.70 87.26927
822.80 89.86865
822.90 92.29011
823.00 94.1062
823.10 95.03996
823.20 95.02791
823.30 94.16466
823.40 92.76123
823.50 91.23033
823.60 89.9187
823.70 89.11787
823.80 88.98432
823.90 89.44402
824.00 90.25435
824.10 90.96748
824.20 91.05583
824.30 90.33071
824.40 89.0061
824.50 87.50393
824.60 86.33035
824.70 85.92965
824.80 86.5272
824.90 88.04707
825.00 90.11091
825.10 92.13271
825.20 93.54504
825.30 93.98815
825.40 93.33195
825.50 91.84754
825.60 90.13865
825.70 88.77564
825.80 88.26661
825.90 88.92946
826.00 90.5872
826.10 92.79977
826.20 95.17739
826.30 97.4182
826.40 99.32372
826.50 100.6761
826.60 101.1753
826.70 100.6825
826.80 99.38582
826.90 97.63073
827.00 95.82181
827.10 94.34075
827.20 93.37474
827.30 92.9369
827.40 93.02131
827.50 93.43031
827.60 93.58177
827.70 92.70877
827.80 90.32887
827.90 86.626
828.00 82.32919
828.10 78.37512
828.20 75.57741
828.30 74.31519
828.40 74.2314
828.50 74.46761
828.60 74.46705
828.70 74.11039
828.80 73.56341
828.90 73.24701
829.00 73.62
829.10 75.15157
829.20 78.00898
829.30 81.69778
829.40 85.24667
829.50 87.48568
829.60 87.5599
829.70 85.35318
829.80 81.87805
829.90 78.88178
830.00 77.50806
830.10 78.08909
830.20 80.54274
830.30 84.38234
830.40 88.88743
830.50 93.12037
830.60 96.04968
830.70 97.04336
830.80 96.20509
830.90 94.3512
831.00 92.53616
831.10 91.55926
831.20 91.61816
831.30 92.43593
831.40 93.71182
831.50 95.22337
831.60 96.72383
831.70 97.9437
831.80 98.77296
831.90 99.36691
832.00 100.0791
832.10 101.2518
832.20 102.993
832.30 105.0954
832.40 107.128
832.50 108.7778
832.60 109.9678
832.70 110.753
832.80 111.2968
832.90 111.7515
833.00 112.1374
833.10 112.4001
833.20 112.4857
833.30 112.4136
833.40 112.3046
833.50 112.2953
833.60 112.3773
833.70 112.4454
833.80 112.4274
833.90 112.0634
834.00 110.6102
834.10 107.2054
834.20 101.7717
834.30 95.29255
834.40 89.32332
834.50 85.36195
834.60 84.35139
834.70 86.41922
834.80 90.88307
834.90 96.54721
835.00 102.2105
835.10 106.6926
835.20 109.0092
835.30 108.9831
835.40 107.5508
835.50 106.2605
835.60 106.1924
835.70 107.4613
835.80 109.4556
835.90 111.4311
836.00 112.9366
836.10 113.7835
836.20 113.9929
836.30 113.7536
836.40 113.2981
836.50 113.0534
836.60 113.4524
836.70 114.5603
836.80 116.1311
836.90 117.8077
837.00 119.2308
837.10 120.1601
837.20 120.5711
837.30 120.4797
837.40 119.8547
837.50 118.8299
837.60 117.6791
837.70 116.4833
837.80 115.1489
837.90 113.603
838.00 111.8962
838.10 110.2299
838.20 108.8596
838.30 108.0481
838.40 107.9483
838.50 108.524
838.60 109.6405
838.70 111.1346
838.80 112.8285
838.90 114.5415
839.00 116.0279
839.10 117.1334
839.20 117.9889
839.30 118.7969
839.40 119.2992
839.50 118.7797
839.60 116.4996
839.70 112.0543
839.80 105.968
839.90 99.56507
840.00 94.18281
840.10 90.78713
840.20 89.83536
840.30 91.22934
840.40 94.54325
840.50 99.19767
840.60 104.3615
840.70 109.0577
840.80 112.6887
840.90 115.3221
841.00 117.5631
841.10 120.0091
841.20 122.4311
841.30 124.1231
841.40 124.8364
841.50 124.8053
841.60 124.4211
841.70 124.0654
841.80 124.0436
841.90 124.4051
842.00 124.9144
842.10 125.4131
842.20 125.9882
842.30 126.6411
842.40 127.0588
842.50 126.767
842.60 125.7666
842.70 124.544
842.80 123.3585
842.90 122.3092
843.00 121.5492
843.10 121.0998
843.20 120.854
843.30 120.7905
843.40 121.0167
843.50 121.4215
843.60 121.6346
843.70 121.4102
843.80 120.7714
843.90 120.1239
844.00 119.8653
844.10 120.0226
844.20 120.5146
844.30 121.1139
844.40 121.5238
844.50 121.6616
844.60 121.6607
844.70 121.7706
844.80 121.9384
844.90 121.67
845.00 120.6573
845.10 119.0145
845.20 117.0351
845.30 115.095
845.40 113.5992
845.50 112.8359
845.60 112.8623
845.70 113.6861
845.80 115.2277
845.90 117.1991
846.00 119.221
846.10 120.8211
846.20 121.3449
846.30 120.4508
846.40 118.413
846.50 115.7758
846.60 113.1767
846.70 111.1658
846.80 110.1262
846.90 110.2441
847.00 111.45
847.10 113.4444
847.20 115.8638
847.30 118.3383
847.40 120.3148
847.50 121.2405
847.60 121.2224
847.70 120.9022
847.80 120.689
847.90 120.6438
848.00 120.6944
848.10 120.79
848.20 120.9572
848.30 121.2783
848.40 121.8735
848.50 122.7845
848.60 123.8855
848.70 124.8754
848.80 125.42
848.90 125.3093
849.00 124.5022
849.10 123.0151
849.20 120.9058
849.30 118.513
849.40 116.426
849.50 115.0781
849.60 114.5306
849.70 114.7261
849.80 115.6315
849.90 117.1122
850.00 118.9076
850.10 120.7095
850.20 122.1941
850.30 123.1177
850.40 123.5056
850.50 123.5008
850.60 123.1129
850.70 122.186
850.80 120.5124
850.90 118.2295
851.00 115.845
851.10 113.7556
851.20 112.085
851.30 110.8777
851.40 109.9952
851.50 108.9982
851.60 107.3838
851.70 104.6705
851.80 100.4303
851.90 94.72299
852.00 88.23751
852.10 81.96907
852.20 77.0325
852.30 74.38617
852.40 74.52286
852.50 77.39228
852.60 82.4887
852.70 88.89622
852.80 95.63026
852.90 102.1271
853.00 108.2195
853.10 113.919
853.20 119.2172
853.30 124.0251
853.40 128.3002
853.50 132.0933
853.60 135.3323
853.70 137.775
853.80 139.2273
853.90 139.7211
854.00 139.5779
854.10 139.2972
854.20 139.2878
854.30 139.6303
854.40 140.1381
854.50 140.4064
854.60 140.0103
854.70 138.7609
854.80 136.7513
854.90 134.2935
855.00 131.9983
855.10 130.5854
855.20 130.4788
855.30 131.7635
855.40 134.2247
855.50 137.3973
855.60 140.6229
855.70 143.2208
855.80 144.7201
855.90 145.1514
856.00 144.9822
856.10 144.6568
856.20 144.5066
856.30 144.8111
856.40 145.534
856.50 146.3497
856.60 147.073
856.70 147.7773
856.80 148.6056
856.90 149.5733
857.00 150.5493
857.10 151.3086
857.20 151.6021
857.30 151.2704
857.40 150.2477
857.50 148.6624
857.60 146.7854
857.70 144.8252
857.80 143.0332
857.90 141.7681
858.00 141.3466
858.10 141.8608
858.20 143.078
858.30 144.6279
858.40 146.2569
858.50 147.8726
858.60 149.3328
858.70 150.3481
858.80 150.7449
858.90 150.5299
859.00 149.6907
859.10 148.3011
859.20 146.6181
859.30 144.905
859.40 143.308
859.50 141.9408
859.60 141.056
859.70 140.9106
859.80 141.607
859.90 143.0763
860.00 145.1614
860.10 147.7503
860.20 150.6392
860.30 153.4125
860.40 155.5873
860.50 156.6944
860.60 156.3344
860.70 154.3687
860.80 150.9748
860.90 146.4827
861.00 141.2175
861.10 135.4972
861.20 129.6109
861.30 123.7194
861.40 117.8792
861.50 112.1642
861.60 106.6658
861.70 101.4147
861.80 96.52745
861.90 92.23658
862.00 88.76145
862.10 86.28754
862.20 84.94803
862.30 84.72188
862.40 85.36923
862.50 86.47069
862.60 87.51097
862.70 88.01788
862.80 87.55474
862.90 85.88316
863.00 83.19954
863.10 80.21504
863.20 77.86017
863.30 76.89777
863.40 77.78337
863.50 80.52485
863.60 84.62703
863.70 89.26212
863.80 93.52767
863.90 96.52534
864.00 97.56391
864.10 96.62302
864.20 94.46658
864.30 92.05919
864.40 90.10901
864.50 88.91896
864.60 88.3627
864.70 88.04637
864.80 87.49117
864.90 86.46642
865.00 85.19802
865.10 84.0161
865.20 83.11365
865.30 82.87534
865.40 83.85801
865.50 86.29294
865.60 89.98895
865.70 94.29724
865.80 98.33793
865.90 101.456
866.00 103.4547
866.10 104.6851
866.20 105.7333
866.30 106.9156
866.40 108.1618
866.50 109.4457
866.60 110.8298
866.70 112.0415
866.80 112.5746
866.90 112.2882
867.00 111.5596
867.10 110.9602
867.20 110.9246
867.30 111.6765
867.40 113.1665
867.50 115.0453
867.60 116.8042
867.70 117.7765
867.80 117.3386
867.90 115.2752
868.00 111.9053
868.10 107.9876
868.20 104.5348
868.30 102.3823
868.40 101.863
868.50 102.9861
868.60 105.5456
868.70 109.0561
868.80 112.7519
868.90 115.6385
869.00 116.767
869.10 115.7846
869.20 113.0426
869.30 109.1056
869.40 104.6088
869.50 100.4369
869.60 97.49441
869.70 96.25156
869.80 96.64139
869.90 98.29992
870.00 100.7352
870.10 103.2037
870.20 104.8288
870.30 105.0238
870.40 103.8037
870.50 101.7356
870.60 99.55881
870.70 97.84466
870.80 96.94987
870.90 96.94995
871.00 97.6421
871.10 98.70823
871.20 99.75962
871.30 100.5069
871.40 100.8256
871.50 100.7478
871.60 100.4685
871.70 100.2774
871.80 100.3389
871.90 100.5228
872.00 100.5541
872.10 100.3551
872.20 100.0603
872.30 99.93433
872.40 100.2484
872.50 101.0916
872.60 102.3624
872.70 103.784
872.80 105.017
872.90 105.7853
873.00 105.9531
873.10 105.4829
873.20 104.4986
873.30 103.283
873.40 102.1624
873.50 101.439
873.60 101.2941
873.70 101.7404
873.80 102.7026
873.90 104.0905
874.00 105.8219
874.10 107.7314
874.20 109.6143
874.30 111.2524
874.40 112.4343
874.50 113.0791
874.60 113.239
874.70 112.9556
874.80 112.2675
874.90 111.338
875.00 110.3065
875.10 109.3317
875.20 108.606
875.30 108.2739
875.40 108.5163
875.50 109.2639
875.60 109.8825
875.70 109.7073
875.80 108.5808
875.90 106.5553
876.00 103.9194
876.10 101.4792
876.20 100.124
876.30 100.1667
876.40 100.8712
876.50 101.1171
876.60 100.457
876.70 99.13439
876.80 97.9354
876.90 97.87353
877.00 99.98166
877.10 104.8966
877.20 112.381
877.30 121.5901
877.40 131.0025
877.50 138.5304
877.60 142.1922
877.70 141.1591
877.80 136.5421
877.90 130.4442
878.00 124.5745
878.10 119.9064
878.20 116.6087
878.30 114.5766
878.40 113.6869
878.50 113.6475
878.60 114.106
878.70 114.6948
878.80 114.8466
878.90 114.0363
879.00 112.641
879.10 111.4701
879.20 111.3009
879.30 112.6578
879.40 115.514
879.50 119.4504
879.60 123.6746
879.70 127.2048
879.80 129.2518
879.90 129.437
880.00 127.7419
880.10 124.4921
880.20 120.7221
880.30 117.8409
880.40 116.4905
880.50 116.5201
880.60 117.4142
880.70 118.6058
880.80 119.7552
880.90 120.764
881.00 121.8876
881.10 123.5947
881.20 126.1969
881.30 129.6993
881.40 133.8898
881.50 138.4146
881.60 142.7757
881.70 146.3094
881.80 148.3793
881.90 148.5642
882.00 146.8736
882.10 143.9083
882.20 140.24
882.30 135.6792
882.40 129.4533
882.50 121.4754
882.60 112.4163
882.70 103.0427
882.80 94.48918
882.90 88.00497
883.00 84.45059
883.10 84.32942
883.20 87.48988
883.30 93.04433
883.40 99.80187
883.50 106.302
883.60 111.5303
883.70 115.6995
883.80 119.8237
883.90 124.253
884.00 128.6866
884.10 132.992
884.20 136.7799
884.30 139.4274
884.40 140.4597
884.50 139.4982
884.60 136.6989
884.70 133.1685
884.80 130.1175
884.90 128.2642
885.00 127.9229
885.10 129.104
885.20 131.5216
885.30 134.6818
885.40 137.9887
885.50 140.7538
885.60 142.4788
885.70 143.0278
885.80 142.6195
885.90 141.8765
886.00 141.4638
886.10 141.6094
886.20 142.2282
886.30 143.1412
886.40 144.0533
886.50 144.4574
886.60 143.9356
886.70 142.3794
886.80 139.957
886.90 137.0333
887.00 133.8623
887.10 130.8434
887.20 128.6702
887.30 127.954
887.40 129.165
887.50 132.6083
887.60 138.163
887.70 145.18
887.80 152.7207
887.90 159.7849
888.00 165.5697
888.10 169.4132
888.20 170.5497
888.30 168.9053
888.40 165.6491
888.50 162.3801
888.60 160.337
888.70 160.2523
888.80 162.162
888.90 165.3379
889.00 168.7626
889.10 171.4332
889.20 172.2651
889.30 170.611
889.40 166.4828
889.50 160.6723
889.60 154.9158
889.70 150.9435
889.80 149.4928
889.90 150.3125
890.00 152.5616
890.10 155.1398
890.20 157.2678
890.30 158.5271
890.40 158.5068
890.50 157.0076
890.60 154.4141
890.70 151.4653
890.80 148.9496
890.90 147.5046
891.00 147.364
891.10 148.3526
891.20 150.1507
891.30 152.4612
891.40 155.1261
891.50 158.0419
891.60 160.515
891.70 160.673
891.80 157.2937
891.90 151.2614
892.00 144.2024
892.10 137.516
892.20 132.2387
892.30 129.0314
892.40 128.1682
892.50 129.5249
892.60 132.5887
892.70 136.6023
892.80 140.6383
892.90 143.7945
893.00 145.7971
893.10 147.8009
893.20 150.8078
893.30 154.2174
893.40 156.988
893.50 158.473
893.60 158.2641
893.70 156.0084
893.80 151.5219
893.90 144.72
894.00 135.7667
894.10 125.3131
894.20 114.5088
894.30 104.7463
894.40 97.36848
894.50 93.42804
894.60 93.46651
894.70 97.42429
894.80 104.5932
894.90 113.7297
895.00 123.3613
895.10 132.234
895.20 139.8382
895.30 146.2209
895.40 151.1219
895.50 154.2619
895.60 155.8886
895.70 156.4388
895.80 156.3855
895.90 156.0851
896.00 155.7088
896.10 155.345
896.20 155.0362
896.30 154.8003
896.40 154.6705
896.50 154.5646
896.60 154.1595
896.70 153.2816
896.80 152.4575
896.90 152.3561
897.00 153.1761
897.10 154.832
897.20 157.0344
897.30 159.4599
897.40 161.8723
897.50 164.0315
897.60 165.8285
897.70 167.2956
897.80 168.3218
897.90 168.8263
898.00 168.9304
898.10 168.962
898.20 169.566
898.30 171.37
898.40 174.3677
898.50 177.7964
898.60 180.6548
898.70 181.9996
898.80 181.3648
898.90 179.0151
899.00 175.5404
899.10 171.5973
899.20 168.0099
899.30 165.4475
899.40 164.1981
899.50 164.4204
899.60 165.9462
899.70 167.9868
899.80 169.7758
899.90 171.6182
900.00 172.087
900.10 172.5558
900.20 173.0245
900.30 173.4933
900.40 173.9621
900.50 174.4309
900.60 174.8997
900.70 175.3685
900.80 175.8372
900.90 176.7074
901.00 177.7844
901.10 178.8613
901.20 179.9383
901.30 181.0153
901.40 182.0922
901.50 183.1692
901.60 184.2461
901.70 185.3231
901.80 186.4001
901.90 187.477
902.00 188.554
902.10 189.631
902.20 190.7079
902.30 191.7849
902.40 192.8618
902.50 193.9388
902.60 195.0158
902.70 196.0927
902.80 197.1697
902.90 198.2466
903.00 199.3236
903.10 200.4006
903.20 201.4775
903.30 202.5036
903.40 203.4534
903.50 204.4031
903.60 205.3529
903.70 206.3026
903.80 207.2524
903.90 208.2022
904.00 209.1519
904.10 210.1017
904.20 211.0514
904.30 211.9414
904.40 212.7692
904.50 213.5969
904.60 214.4247
904.70 215.2525
904.80 216.0802
904.90 216.908
905.00 217.7357
905.10 218.5635
905.20 219.3912
905.30 220.219
905.40 221.0468
905.50 221.8745
905.60 222.7023
905.70 223.53
905.80 224.3578
905.90 225.1856
906.00 226.0133
906.10 226.8411
906.20 227.6688
906.30 228.4966
906.40 229.3244
906.50 230.1521
906.60 230.9799
906.70 231.7554
906.80 232.0609
906.90 232.3664
907.00 232.6718
907.10 232.9773
907.20 233.2828
907.30 233.5883
907.40 233.8937
907.50 234.1992
907.60 234.5047
907.70 234.727
907.80 234.4386
907.90 234.1502
908.00 233.8618
908.10 233.5734
908.20 233.285
908.30 232.9966
908.40 232.7081
908.50 232.4197
908.60 232.1313
908.70 231.8429
908.80 231.5545
908.90 231.2661
909.00 230.9777
909.10 230.6893
909.20 230.4009
909.30 230.1124
909.40 229.824
909.50 229.5356
909.60 229.2472
909.70 228.9588
909.80 228.6704
909.90 228.382
910.00 228.0936
910.10 227.8052
910.20 227.7833
910.30 227.9248
910.40 228.0662
910.50 228.2077
910.60 228.3492
910.70 228.4907
910.80 228.6321
910.90 228.7736
911.00 228.9151
911.10 229.0566
911.20 229.2596
911.30 229.5019
911.40 229.7442
911.50 229.9864
911.60 230.2287
911.70 230.471
911.80 230.7133
911.90 230.9556
912.00 231.1979
912.10 231.4402
912.20 231.6825
912.30 231.9248
912.40 232.1671
912.50 232.4094
912.60 232.6517
912.70 232.894
912.80 233.1363
912.90 233.3786
913.00 233.6209
913.10 233.8632
913.20 234.1055
913.30 234.3478
913.40 234.5901
913.50 234.8324
913.60 235.0747
913.70 235.281
913.80 235.4859
913.90 235.6908
914.00 235.8956
914.10 236.1005
914.20 236.3054
914.30 236.5102
914.40 236.7151
914.50 236.92
914.60 237.1248
914.70 237.8305
914.80 238.5981
914.90 239.3657
915.00 240.1332
915.10 240.9008
915.20 241.6684
915.30 242.4359
915.40 243.2035
915.50 243.9711
915.60 244.7387
915.70 245.5062
915.80 246.2738
915.90 247.0414
916.00 247.809
916.10 248.5765
916.20 249.3441
916.30 250.1117
916.40 250.8792
916.50 251.6468
916.60 252.4144
916.70 253.182
916.80 253.9495
916.90 254.7171
917.00 255.4847
917.10 256.2215
917.20 256.7327
917.30 257.2439
917.40 257.7552
917.50 258.2664
917.60 258.7776
917.70 259.2889
917.80 259.8001
917.90 260.3113
918.00 260.8225
918.10 261.3299
918.20 261.452
918.30 261.5741
918.40 261.6962
918.50 261.8183
918.60 261.9404
918.70 262.0625
918.80 262.1846
918.90 262.3067
919.00 262.4289
919.10 262.551
919.20 262.6731
919.30 262.7952
919.40 262.9173
919.50 263.0394
919.60 263.1615
919.70 263.2836
919.80 263.4057
919.90 263.5278
920.00 263.6499
920.10 263.7721
920.20 263.8942
920.30 264.0163
920.40 264.1384
920.50 264.2605
920.60 264.3916
920.70 264.5956
920.80 264.7996
920.90 265.0035
921.00 265.2075
921.10 265.4115
921.20 265.6155
921.30 265.8195
921.40 266.0234
921.50 266.2274
921.60 266.4314
921.70 266.5493
921.80 266.6618
921.90 266.7742
922.00 266.8866
922.10 266.999
922.20 267.1115
922.30 267.2239
922.40 267.3363
922.50 267.4488
922.60 267.5612
922.70 267.6736
922.80 267.786
922.90 267.8985
923.00 268.0109
923.10 268.1233
923.20 268.2357
923.30 268.3482
923.40 268.4606
923.50 268.573
923.60 268.6855
923.70 268.7979
923.80 268.9103
923.90 269.0227
924.00 269.1352
924.10 269.2476
924.20 269.2767
924.30 269.2986
924.40 269.3205
924.50 269.3424
924.60 269.3643
924.70 269.3862
924.80 269.408
924.90 269.4299
925.00 269.4518
925.10 269.4737
925.20 269.2718
925.30 268.9739
925.40 268.6761
925.50 268.3782
925.60 268.0804
925.70 267.7826
925.80 267.4847
925.90 267.1869
926.00 266.889
926.10 266.5912
926.20 266.2933
926.30 265.9955
926.40 265.6976
926.50 265.3998
926.60 265.102
926.70 264.8041
926.80 264.5063
926.90 264.2084
927.00 263.9106
927.10 263.6127
927.20 263.3149
927.30 263.0171
927.40 262.7192
927.50 262.4214
927.60 262.1235
927.70 262.0298
927.80 262.103
927.90 262.1762
928.00 262.2495
928.10 262.3227
928.20 262.3959
928.30 262.4691
928.40 262.5424
928.50 262.6156
928.60 262.6888
928.70 262.9791
928.80 263.8008
928.90 264.6226
929.00 265.4443
929.10 266.266
929.20 267.0877
929.30 267.9094
929.40 268.7312
929.50 269.5529
929.60 270.3746
929.70 271.1963
929.80 272.0181
929.90 272.8398
930.00 273.6615
930.10 274.4832
930.20 275.3049
930.30 276.1267
930.40 276.9484
930.50 277.7701
930.60 278.5918
930.70 279.4136
930.80 280.2353
930.90 281.057
931.00 281.8787
931.10 282.7004
931.20 283.5179
931.30 284.1285
931.40 284.739
931.50 285.3495
931.60 285.96
931.70 286.5705
931.80 287.181
931.90 287.7915
932.00 288.402
932.10 289.0126
932.20 289.6231
932.30 289.5669
932.40 289.225
932.50 288.8831
932.60 288.5411
932.70 288.1992
932.80 287.8573
932.90 287.5154
933.00 287.1735
933.10 286.8316
933.20 286.4897
933.30 286.1477
933.40 285.8058
933.50 285.4639
933.60 285.122
933.70 284.7801
933.80 284.4382
933.90 284.0962
934.00 283.7543
934.10 283.4124
934.20 283.0705
934.30 282.7286
934.40 282.3867
934.50 282.0448
934.60 281.7028
934.70 281.3609
934.80 281.0303
934.90 280.7248
935.00 280.4193
935.10 280.1138
935.20 279.8083
935.30 279.5028
935.40 279.1973
935.50 278.8917
935.60 278.5862
935.70 278.2807
935.80 277.9752
935.90 278.383
936.00 278.8362
936.10 279.2895
936.20 279.7428
936.30 280.196
936.40 280.6493
936.50 281.1026
936.60 281.5558
936.70 282.0091
936.80 282.4624
936.90 282.9156
937.00 283.3689
937.10 283.8222
937.20 284.2754
937.30 284.7287
937.40 285.182
937.50 285.6353
937.60 286.0885
937.70 286.5418
937.80 286.9951
937.90 287.4483
938.00 287.9016
938.10 288.3549
938.20 288.8081
938.30 289.2614
938.40 289.7416
938.50 290.2573
938.60 290.7731
938.70 291.2889
938.80 291.8047
938.90 292.3205
939.00 292.8363
939.10 293.3521
939.20 293.8679
939.30 294.3837
939.40 294.8978
939.50 295.329
939.60 295.7602
939.70 296.1914
939.80 296.6226
939.90 297.0538
940.00 297.4851
940.10 297.9163
940.20 298.3475
940.30 298.7787
940.40 299.2099
940.50 299.6411
940.60 300.0723
940.70 300.5035
940.80 300.9347
940.90 301.366
941.00 301.7972
941.10 302.2284
941.20 302.6596
941.30 303.0908
941.40 303.522
941.50 303.9532
941.60 304.3844
941.70 304.8156
941.80 305.2468
941.90 305.6781
942.00 306.0945
942.10 306.488
942.20 306.8814
942.30 307.2748
942.40 307.6682
942.50 308.0617
942.60 308.4551
942.70 308.8485
942.80 309.242
942.90 309.6354
943.00 310.0288
943.10 310.8304
943.20 311.6626
943.30 312.4949
943.40 313.3272
943.50 314.1594
943.60 314.9917
943.70 315.824
943.80 316.6563
943.90 317.4885
944.00 318.3208
944.10 319.1531
944.20 319.9854
944.30 320.8176
944.40 321.6499
944.50 322.4822
944.60 323.3144
944.70 324.1467
944.80 324.979
944.90 325.8113
945.00 326.6435
945.10 327.4758
945.20 328.3081
945.30 329.1403
945.40 329.9726
945.50 330.8049
945.60 331.588
945.70 332.1474
945.80 332.7068
945.90 333.2662
946.00 333.8256
946.10 334.3849
946.20 334.9443
946.30 335.5037
946.40 336.0631
946.50 336.6225
946.60 337.1818
946.70 337.4703
946.80 337.6254
946.90 337.7805
947.00 337.9356
947.10 338.0907
947.20 338.2458
947.30 338.4009
947.40 338.556
947.50 338.7111
947.60 338.8662
947.70 339.0213
947.80 339.1764
947.90 339.3315
948.00 339.4866
948.10 339.6417
948.20 339.7968
948.30 339.9519
948.40 340.107
948.50 340.2621
948.60 340.4172
948.70 340.5723
948.80 340.7274
948.90 340.8825
949.00 341.0376
949.10 341.1927
949.20 341.3478
949.30 341.5583
949.40 341.7818
949.50 342.0052
949.60 342.2287
949.70 342.4522
949.80 342.6757
949.90 342.8992
950.00 343.1227
950.10 343.3462
950.20 343.5696
950.30 343.691
950.40 343.5058
950.50 343.3207
950.60 343.1355
950.70 342.9503
950.80 342.7652
950.90 342.58
951.00 342.3949
951.10 342.2097
951.20 342.0246
951.30 341.8394
951.40 341.6543
951.50 341.4691
951.60 341.2839
951.70 341.0988
951.80 340.9136
951.90 340.7285
952.00 340.5433
952.10 340.3582
952.20 340.173
952.30 339.9878
952.40 339.8027
952.50 339.6175
952.60 339.4324
952.70 339.2472
952.80 339.0621
952.90 338.8926
953.00 338.7654
953.10 338.6382
953.20 338.511
953.30 338.3839
953.40 338.2567
953.50 338.1295
953.60 338.0023
953.70 337.8752
953.80 337.748
953.90 337.6208
954.00 337.9017
954.10 338.3928
954.20 338.8838
954.30 339.3749
954.40 339.866
954.50 340.3571
954.60 340.8481
954.70 341.3392
954.80 341.8303
954.90 342.3214
955.00 342.8124
955.10 343.3035
955.20 343.7946
955.30 344.2857
955.40 344.7767
955.50 345.2678
955.60 345.7589
955.70 346.25
955.80 346.741
955.90 347.2321
956.00 347.7232
956.10 348.2143
956.20 348.7053
956.30 349.1964
956.40 349.6875
956.50 350.1786
956.60 350.698
956.70 351.2389
956.80 351.7798
956.90 352.3207
957.00 352.8616
957.10 353.4025
957.20 353.9434
957.30 354.4843
957.40 355.0252
957.50 355.5661
957.60 356.107
957.70 355.9134
957.80 355.656
957.90 355.3985
958.00 355.141
958.10 354.8835
958.20 354.6261
958.30 354.3686
958.40 354.1111
958.50 353.8537
958.60 353.5962
958.70 353.3387
958.80 353.0813
958.90 352.8238
959.00 352.5663
959.10 352.3089
959.20 352.0514
959.30 351.7939
959.40 351.5365
959.50 351.279
959.60 351.0215
959.70 350.7641
959.80 350.5066
959.90 350.2491
960.00 349.9916
960.10 349.7342
960.20 349.4767
960.30 349.3421
960.40 349.2578
960.50 349.1734
960.60 349.089
960.70 349.0046
960.80 348.9203
960.90 348.8359
961.00 348.7515
961.10 348.6671
961.20 348.5827
961.30 348.5119
961.40 349.1065
961.50 349.7011
961.60 350.2956
961.70 350.8902
961.80 351.4847
961.90 352.0793
962.00 352.6738
962.10 353.2684
962.20 353.8629
962.30 354.4575
962.40 355.052
962.50 355.6466
962.60 356.2412
962.70 356.8357
962.80 357.4303
962.90 358.0248
963.00 358.6194
963.10 359.2139
963.20 359.8085
963.30 360.403
963.40 360.9976
963.50 361.5922
963.60 362.1867
963.70 362.7813
963.80 363.3758
963.90 363.9704
964.00 364.4379
964.10 364.8509
964.20 365.2639
964.30 365.6769
964.40 366.09
964.50 366.503
964.60 366.916
964.70 367.329
964.80 367.7421
964.90 368.1551
965.00 368.5681
965.10 368.6937
965.20 368.8073
965.30 368.9209
965.40 369.0345
965.50 369.1481
965.60 369.2617
965.70 369.3753
965.80 369.4889
965.90 369.6025
966.00 369.7161
966.10 369.8298
966.20 369.9434
966.30 370.057
966.40 370.1706
966.50 370.2842
966.60 370.3978
966.70 370.5114
966.80 370.625
966.90 370.7386
967.00 370.8522
967.10 370.9658
967.20 371.0794
967.30 371.193
967.40 371.3066
967.50 371.4202
967.60 371.5339
967.70 371.7002
967.80 371.9132
967.90 372.1262
968.00 372.3393
968.10 372.5523
968.20 372.7653
968.30 372.9784
968.40 373.1914
968.50 373.4044
968.60 373.6175
968.70 373.8305
968.80 373.974
968.90 374.0931
969.00 374.2122
969.10 374.3312
969.20 374.4503
969.30 374.5694
969.40 374.6885
969.50 374.8075
969.60 374.9266
969.70 375.0457
969.80 375.1648
969.90 375.2838
970.00 375.4029
970.10 375.522
970.20 375.6411
970.30 375.7601
970.40 375.8792
970.50 375.9983
970.60 376.1174
970.70 376.2365
970.80 376.3555
970.90 376.4746
971.00 376.5937
971.10 376.7128
971.20 376.8318
971.30 376.9509
971.40 377.0529
971.50 377.0867
971.60 377.1205
971.70 377.1543
971.80 377.1881
971.90 377.2219
972.00 377.2557
972.10 377.2895
972.20 377.3233
972.30 377.3572
972.40 377.391
972.50 377.611
972.60 378.1481
972.70 378.6852
972.80 379.2223
972.90 379.7593
973.00 380.2964
973.10 380.8335
973.20 381.3706
973.30 381.9077
973.40 382.4448
973.50 382.9819
973.60 383.519
973.70 384.0561
973.80 384.5932
973.90 385.1303
974.00 385.6674
974.10 386.2044
974.20 386.7415
974.30 387.2786
974.40 387.8157
974.50 388.3528
974.60 388.8899
974.70 389.427
974.80 389.9641
974.90 390.5012
975.00 391.0383
975.10 391.5754
975.20 392.0426
975.30 392.4827
975.40 392.9228
975.50 393.3628
975.60 393.8029
975.70 394.243
975.80 394.6831
975.90 395.1232
976.00 395.5632
976.10 396.0033
976.20 396.4434
976.30 396.3324
976.40 396.1243
976.50 395.9161
976.60 395.7079
976.70 395.4997
976.80 395.2915
976.90 395.0834
977.00 394.8752
977.10 394.667
977.20 394.4588
977.30 394.2506
977.40 394.0424
977.50 393.8343
977.60 393.6261
977.70 393.4179
977.80 393.2097
977.90 393.0015
978.00 392.7934
978.10 392.5852
978.20 392.377
978.30 392.1688
978.40 391.9606
978.50 391.7524
978.60 391.5443
978.70 391.3361
978.80 391.1279
978.90 390.9029
979.00 390.5263
979.10 390.1497
979.20 389.7731
979.30 389.3966
979.40 389.02
979.50 388.6434
979.60 388.2668
979.70 387.8902
979.80 387.5137
979.90 387.1371
980.00 386.8697
980.10 387.0998
980.20 387.3298
980.30 387.5599
980.40 387.7899
980.50 388.02
980.60 388.2501
980.70 388.4801
980.80 388.7102
980.90 388.9403
981.00 389.1703
981.10 389.4004
981.20 389.6305
981.30 389.8605
981.40 390.0906
981.50 390.3207
981.60 390.5507
981.70 390.7808
981.80 391.0109
981.90 391.2409
982.00 391.471
982.10 391.7011
982.20 391.9311
982.30 392.1612
982.40 392.3913
982.50 392.6213
982.60 392.8514
982.70 393.0209
982.80 393.0619
982.90 393.1029
983.00 393.1439
983.10 393.1849
983.20 393.2259
983.30 393.2669
983.40 393.3079
983.50 393.3489
983.60 393.3899
983.70 393.4309
983.80 393.2041
983.90 392.5014
984.00 391.7986
984.10 391.0959
984.20 390.3931
984.30 389.6904
984.40 388.9877
984.50 388.2849
984.60 387.5822
984.70 386.8795
984.80 386.1767
984.90 385.474
985.00 384.7712
985.10 384.0685
985.20 383.3658
985.30 382.663
985.40 381.9603
985.50 381.2575
985.60 380.5548
985.70 379.8521
985.80 379.1493
985.90 378.4466
986.00 377.7438
986.10 377.0411
986.20 376.3384
986.30 375.6356
986.40 374.9329
986.50 374.2856
986.60 373.7214
986.70 373.1573
986.80 372.5932
986.90 372.029
987.00 371.4649
987.10 370.9007
987.20 370.3366
987.30 369.7725
987.40 369.2083
987.50 368.6442
987.60 368.2348
987.70 368.0575
987.80 367.8802
987.90 367.703
988.00 367.5257
988.10 367.3484
988.20 367.1711
988.30 366.9939
988.40 366.8166
988.50 366.6393
988.60 366.462
988.70 366.2848
988.80 366.1075
988.90 365.9302
989.00 365.7529
989.10 365.5757
989.20 365.3984
989.30 365.2211
989.40 365.0438
989.50 364.8666
989.60 364.6893
989.70 364.512
989.80 364.3347
989.90 364.1575
990.00 363.9802
990.10 363.8029
990.20 363.6256
990.30 363.4034
990.40 363.0897
990.50 362.7761
990.60 362.4624
990.70 362.1488
990.80 361.8351
990.90 361.5215
991.00 361.2078
991.10 360.8942
991.20 360.5805
991.30 360.2669
991.40 359.9134
991.50 359.4625
991.60 359.0116
991.70 358.5606
991.80 358.1097
991.90 357.6588
992.00 357.2079
992.10 356.757
992.20 356.3061
992.30 355.8551
992.40 355.4042
992.50 354.9533
992.60 354.5024
992.70 354.0515
992.80 353.6006
992.90 353.1496
993.00 352.6987
993.10 352.2478
993.20 351.7969
993.30 351.346
993.40 350.8951
993.50 350.4441
993.60 349.9932
993.70 349.5423
993.80 349.0914
993.90 348.6405
994.00 348.1895
994.10 347.768
994.20 347.562
994.30 347.356
994.40 347.15
994.50 346.944
994.60 346.738
994.70 346.532
994.80 346.326
994.90 346.12
995.00 345.914
995.10 345.7079
995.20 345.4844
995.30 344.6947
995.40 343.905
995.50 343.1153
995.60 342.3256
995.70 341.5359
995.80 340.7462
995.90 339.9565
996.00 339.1668
996.10 338.3771
996.20 337.5874
996.30 336.7977
996.40 336.008
996.50 335.2183
996.60 334.4287
996.70 333.639
996.80 332.8493
996.90 332.0596
997.00 331.2699
997.10 330.4802
997.20 329.6905
997.30 328.9008
997.40 328.1111
997.50 327.3214
997.60 326.5317
997.70 325.742
997.80 324.9523
997.90 324.1626
998.00 323.4014
998.10 322.6487
998.20 321.896
998.30 321.1433
998.40 320.3906
998.50 319.6379
998.60 318.8853
998.70 318.1326
998.80 317.3799
998.90 316.6272
999.00 315.8745
999.10 315.5035
999.20 315.3473
999.30 315.191
999.40 315.0347
999.50 314.8784
999.60 314.7222
999.70 314.5659
999.80 314.4096
999.90 314.2534
1000.00 314.0971
1000.10 313.9408
1000.20 313.7846
1000.30 313.6283
1000.40 313.472
1000.50 313.3157
1000.60 313.1595
1000.70 313.0032
1000.80 312.8469
1000.90 312.6907
1001.00 312.5344
1001.10 312.3781
1001.20 312.2218
1001.30 312.0656
1001.40 311.9093
1001.50 311.753
1001.60 311.5968
1001.70 311.4405
1001.80 311.3775
1001.90 311.5321
1002.00 311.6868
1002.10 311.8414
1002.20 311.9961
1002.30 312.1507
1002.40 312.3054
1002.50 312.46
1002.60 312.6147
1002.70 312.7693
1002.80 312.9239
1002.90 313.1123
1003.00 313.6039
1003.10 314.0955
1003.20 314.5871
1003.30 315.0787
1003.40 315.5703
1003.50 316.0619
1003.60 316.5535
1003.70 317.0451
1003.80 317.5367
1003.90 318.0283
1004.00 318.5199
1004.10 319.0115
1004.20 319.5031
1004.30 319.9947
1004.40 320.4863
1004.50 320.9779
1004.60 321.4695
1004.70 321.9611
1004.80 322.4527
1004.90 322.9443
1005.00 323.4359
1005.10 323.9275
1005.20 324.4191
1005.30 324.9107
1005.40 325.4023
1005.50 325.8939
1005.60 326.3855
1005.70 326.8302
1005.80 327.255
1005.90 327.6797
1006.00 328.1044
1006.10 328.5291
1006.20 328.9538
1006.30 329.3785
1006.40 329.8032
1006.50 330.228
1006.60 330.6527
1006.70 331.0774
1006.80 331.5889
1006.90 332.2306
1007.00 332.8723
1007.10 333.5141
1007.20 334.1558
1007.30 334.7975
1007.40 335.4392
1007.50 336.0809
1007.60 336.7227
1007.70 337.3644
1007.80 338.0061
1007.90 338.6478
1008.00 339.2895
1008.10 339.9313
1008.20 340.573
1008.30 341.2147
1008.40 341.8564
1008.50 342.4981
1008.60 343.1399
1008.70 343.7816
1008.80 344.4233
1008.90 345.065
1009.00 345.7067
1009.10 346.3485
1009.20 346.9902
1009.30 347.6319
1009.40 348.2736
1009.50 348.9153
1009.60 349.5345
1009.70 350.1511
1009.80 350.7677
1009.90 351.3843
1010.00 352.0009
1010.10 352.6175
1010.20 353.2341
1010.30 353.8507
1010.40 354.4673
1010.50 355.0839
1010.60 355.7005
1010.70 355.9921
1010.80 356.067
1010.90 356.1419
1011.00 356.2167
1011.10 356.2916
1011.20 356.3665
1011.30 356.4414
1011.40 356.5162
1011.50 356.5911
1011.60 356.666
1011.70 356.7409
1011.80 356.8157
1011.90 356.8906
1012.00 356.9655
1012.10 357.0404
1012.20 357.1152
1012.30 357.1901
1012.40 357.265
1012.50 357.3399
1012.60 357.4147
1012.70 357.4896
1012.80 357.5645
1012.90 357.6394
1013.00 357.7142
1013.10 357.7891
1013.20 357.864
1013.30 357.9389
1013.40 358.0137
1013.50 357.8776
1013.60 357.7414
1013.70 357.6052
1013.80 357.469
1013.90 357.3328
1014.00 357.1966
1014.10 357.0604
1014.20 356.9242
1014.30 356.788
1014.40 356.6518
1014.50 356.5156
1014.60 356.7582
1014.70 357.1632
1014.80 357.5682
1014.90 357.9732
1015.00 358.3782
1015.10 358.7832
1015.20 359.1882
1015.30 359.5932
1015.40 359.9982
1015.50 360.4031
1015.60 360.8081
1015.70 361.2131
1015.80 361.6181
1015.90 362.0231
1016.00 362.4281
1016.10 362.8331
1016.20 363.2381
1016.30 363.6431
1016.40 364.0481
1016.50 364.4531
1016.60 364.8581
1016.70 365.263
1016.80 365.668
1016.90 366.073
1017.00 366.478
1017.10 366.883
1017.20 367.288
1017.30 367.693
1017.40 368.3787
1017.50 369.0644
1017.60 369.7501
1017.70 370.4358
1017.80 371.1215
1017.90 371.8072
1018.00 372.4929
1018.10 373.1786
1018.20 373.8643
1018.30 374.55
1018.40 375.2357
1018.50 375.6854
1018.60 375.9776
1018.70 376.2698
1018.80 376.5621
1018.90 376.8543
1019.00 377.1465
1019.10 377.4388
1019.20 377.731
1019.30 378.0233
1019.40 378.3155
1019.50 378.6077
1019.60 378.9
1019.70 379.1922
1019.80 379.4844
1019.90 379.7767
1020.00 380.0689
1020.10 380.3611
1020.20 380.6534
1020.30 380.9456
1020.40 381.2379
1020.50 381.5301
1020.60 381.8223
1020.70 382.1146
1020.80 382.4068
1020.90 382.699
1021.00 382.9913
1021.10 383.2835
1021.20 383.5758
1021.30 383.8356
1021.40 384.0873
1021.50 384.339
1021.60 384.5907
1021.70 384.8424
1021.80 385.0941
1021.90 385.3459
1022.00 385.5976
1022.10 385.8493
1022.20 386.101
1022.30 386.3527
1022.40 386.5074
1022.50 386.565
1022.60 386.6227
1022.70 386.6803
1022.80 386.738
1022.90 386.7956
1023.00 386.8533
1023.10 386.9109
1023.20 386.9686
1023.30 387.0262
1023.40 387.0839
1023.50 387.1415
1023.60 387.1992
1023.70 387.2568
1023.80 387.3145
1023.90 387.3721
1024.00 387.4298
1024.10 387.4874
1024.20 387.5451
1024.30 387.6027
1024.40 387.6604
1024.50 387.718
1024.60 387.7757
1024.70 387.8333
1024.80 387.8909
1024.90 387.9486
1025.00 388.0062
1025.10 388.0639
1025.20 388.1206
1025.30 388.1765
1025.40 388.2324
1025.50 388.2882
1025.60 388.3441
1025.70 388.4
1025.80 388.4558
1025.90 388.5117
1026.00 388.5676
1026.10 388.6234
1026.20 388.6793
1026.30 388.7646
1026.40 389.1144
1026.50 389.4643
1026.60 389.8141
1026.70 390.164
1026.80 390.5138
1026.90 390.8637
1027.00 391.2135
1027.10 391.5634
1027.20 391.9132
1027.30 392.2631
1027.40 392.613
1027.50 392.9628
1027.60 393.3127
1027.70 393.6625
1027.80 394.0124
1027.90 394.3622
1028.00 394.7121
1028.10 395.0619
1028.20 395.4118
1028.30 395.7616
1028.40 396.1115
1028.50 396.4614
1028.60 396.8112
1028.70 397.1611
1028.80 397.5109
1028.90 397.8608
1029.00 398.2106
1029.10 398.5352
1029.20 398.6322
1029.30 398.7293
1029.40 398.8263
1029.50 398.9234
1029.60 399.0204
1029.70 399.1175
1029.80 399.2145
1029.90 399.3115
1030.00 399.4086
1030.10 399.5056
1030.20 399.6027
1030.30 399.6472
1030.40 399.6692
1030.50 399.6912
1030.60 399.7132
1030.70 399.7352
1030.80 399.7572
1030.90 399.7792
1031.00 399.8012
1031.10 399.8232
1031.20 399.8452
1031.30 399.8672
1031.40 399.8892
1031.50 399.9112
1031.60 399.9332
1031.70 399.9552
1031.80 399.9772
1031.90 399.9992
1032.00 400.0212
1032.10 400.0431
1032.20 400.0651
1032.30 400.0871
1032.40 400.1091
1032.50 400.1311
1032.60 400.1531
1032.70 400.1751
1032.80 400.1971
1032.90 400.2191
1033.00 400.2411
1033.10 400.5637
1033.20 401.0866
1033.30 401.6095
1033.40 402.1324
1033.50 402.6554
1033.60 403.1783
1033.70 403.7012
1033.80 404.2241
1033.90 404.747
1034.00 405.27
1034.10 405.7929
1034.20 406.3563
1034.30 407.2844
1034.40 408.2125
1034.50 409.1406
1034.60 410.0687
1034.70 410.9967
1034.80 411.9248
1034.90 412.8529
1035.00 413.781
1035.10 414.7091
1035.20 415.6372
1035.30 416.5653
1035.40 417.4934
1035.50 418.4214
1035.60 419.3495
1035.70 420.2776
1035.80 421.2057
1035.90 422.1338
1036.00 423.0619
1036.10 423.99
1036.20 424.918
1036.30 425.8461
1036.40 426.7742
1036.50 427.7023
1036.60 428.6304
1036.70 429.5585
1036.80 430.4866
1036.90 431.4147
1037.00 432.3427
1037.10 433.0362
1037.20 433.7036
1037.30 434.371
1037.40 435.0384
1037.50 435.7058
1037.60 436.3732
1037.70 437.0406
1037.80 437.708
1037.90 438.3755
1038.00 439.0429
1038.10 439.7103
1038.20 440.1458
1038.30 440.2337
1038.40 440.3215
1038.50 440.4094
1038.60 440.4972
1038.70 440.5851
1038.80 440.6729
1038.90 440.7607
1039.00 440.8486
1039.10 440.9364
1039.20 441.0243
1039.30 441.1121
1039.40 441.1999
1039.50 441.2878
1039.60 441.3756
1039.70 441.4635
1039.80 441.5513
1039.90 441.6392
1040.00 441.727
1040.10 441.8148
1040.20 441.9027
1040.30 441.9905
1040.40 442.0784
1040.50 442.1662
1040.60 442.2541
1040.70 442.3419
1040.80 442.4297
1040.90 442.5176
1041.00 442.5702
1041.10 442.4817
1041.20 442.3932
1041.30 442.3048
1041.40 442.2163
1041.50 442.1279
1041.60 442.0394
1041.70 441.9509
1041.80 441.8625
1041.90 441.774
1042.00 441.6856
1042.10 441.5971
1042.20 441.8224
1042.30 442.2569
1042.40 442.6915
1042.50 443.126
1042.60 443.5605
1042.70 443.995
1042.80 444.4295
1042.90 444.864
1043.00 445.2985
1043.10 445.733
1043.20 446.1675
1043.30 446.602
1043.40 447.0366
1043.50 447.4711
1043.60 447.9056
1043.70 448.3401
1043.80 448.7746
1043.90 449.2091
1044.00 449.6436
1044.10 450.0781
1044.20 450.5126
1044.30 450.9472
1044.40 451.3817
1044.50 451.8162
1044.60 452.2507
1044.70 452.6852
1044.80 453.1197
1044.90 453.5542
1045.00 454.0662
1045.10 454.7588
1045.20 455.4514
1045.30 456.1441
1045.40 456.8367
1045.50 457.5294
1045.60 458.222
1045.70 458.9146
1045.80 459.6073
1045.90 460.2999
1046.00 460.9925
1046.10 461.6852
1046.20 462.0188
1046.30 462.1986
1046.40 462.3784
1046.50 462.5582
1046.60 462.738
1046.70 462.9178
1046.80 463.0976
1046.90 463.2774
1047.00 463.4572
1047.10 463.637
1047.20 463.8167
1047.30 463.9965
1047.40 464.1763
1047.50 464.3561
1047.60 464.5359
1047.70 464.7157
1047.80 464.8955
1047.90 465.0753
1048.00 465.2551
1048.10 465.4349
1048.20 465.6147
1048.30 465.7945
1048.40 465.9743
1048.50 466.1541
1048.60 466.3339
1048.70 466.5137
1048.80 466.6934
1048.90 466.8732
1049.00 466.9967
1049.10 466.9888
1049.20 466.9809
1049.30 466.973
1049.40 466.9651
1049.50 466.9572
1049.60 466.9492
1049.70 466.9413
1049.80 466.9334
1049.90 466.9255
1050.00 466.9176
1050.10 466.9097
1050.20 467.0034
1050.30 467.1406
1050.40 467.2778
1050.50 467.415
1050.60 467.5522
1050.70 467.6894
1050.80 467.8266
1050.90 467.9637
1051.00 468.1009
1051.10 468.2381
1051.20 468.3753
1051.30 468.5125
1051.40 468.6497
1051.50 468.7869
1051.60 468.9241
1051.70 469.0613
1051.80 469.1985
1051.90 469.3357
1052.00 469.4729
1052.10 469.6101
1052.20 469.7473
1052.30 469.8845
1052.40 470.0217
1052.50 470.1589
1052.60 470.2961
1052.70 470.4333
1052.80 470.5705
1052.90 470.7077
1053.00 470.8652
1053.10 471.1039
1053.20 471.3426
1053.30 471.5814
1053.40 471.8201
1053.50 472.0588
1053.60 472.2975
1053.70 472.5362
1053.80 472.7749
1053.90 473.0136
1054.00 473.2523
1054.10 473.491
1054.20 473.7701
1054.30 474.0896
1054.40 474.409
1054.50 474.7285
1054.60 475.048
1054.70 475.3675
1054.80 475.687
1054.90 476.0065
1055.00 476.326
1055.10 476.6455
1055.20 476.9649
1055.30 477.2844
1055.40 477.6039
1055.50 477.9234
1055.60 478.2429
1055.70 478.5624
1055.80 478.8819
1055.90 479.2014
1056.00 479.5208
1056.10 479.8403
1056.20 480.1598
1056.30 480.4793
1056.40 480.7988
1056.50 481.1183
1056.60 481.4378
1056.70 481.7572
1056.80 482.0767
1056.90 482.3962
1057.00 482.7157
1057.10 482.7881
1057.20 482.833
1057.30 482.8779
1057.40 482.9228
1057.50 482.9677
1057.60 483.0125
1057.70 483.0574
1057.80 483.1023
1057.90 483.1472
1058.00 483.1921
1058.10 483.237
1058.20 483.2791
1058.30 483.3145
1058.40 483.35
1058.50 483.3854
1058.60 483.4209
1058.70 483.4563
1058.80 483.4918
1058.90 483.5272
1059.00 483.5627
1059.10 483.5981
1059.20 483.6336
1059.30 483.669
1059.40 483.7045
1059.50 483.7399
1059.60 483.7754
1059.70 483.8108
1059.80 483.8463
1059.90 483.8817
1060.00 483.9172
1060.10 483.9526
1060.20 483.9881
1060.30 484.0235
1060.40 484.0589
1060.50 484.0944
1060.60 484.1298
1060.70 484.1653
1060.80 484.2007
1060.90 484.2362
1061.00 484.2716
1061.10 484.5046
1061.20 484.8693
1061.30 485.2341
1061.40 485.5988
1061.50 485.9635
1061.60 486.3282
1061.70 486.6929
1061.80 487.0576
1061.90 487.4223
1062.00 487.787
1062.10 488.1517
1062.20 488.5164
1062.30 488.9141
1062.40 489.3154
1062.50 489.7166
1062.60 490.1179
1062.70 490.5192
1062.80 490.9205
1062.90 491.3218
1063.00 491.723
1063.10 492.1243
1063.20 492.5256
1063.30 492.9269
1063.40 493.3282
1063.50 493.7294
1063.60 494.1307
1063.70 494.532
1063.80 494.9333
1063.90 495.3346
1064.00 495.7358
1064.10 496.1371
1064.20 496.5384
1064.30 496.9397
1064.40 497.341
1064.50 497.7422
1064.60 498.1435
1064.70 498.5448
1064.80 498.9461
1064.90 499.3474
1065.00 499.7487
1065.10 500.1259
1065.20 500.407
1065.30 500.6881
1065.40 500.9692
1065.50 501.2503
1065.60 501.5314
1065.70 501.8124
1065.80 502.0935
1065.90 502.3746
1066.00 502.6557
1066.10 502.9368
1066.20 503.2179
1066.30 503.509
1066.40 503.8152
1066.50 504.1213
1066.60 504.4274
1066.70 504.7336
1066.80 505.0397
1066.90 505.3458
1067.00 505.652
1067.10 505.9581
1067.20 506.2643
1067.30 506.5704
1067.40 506.8765
1067.50 507.1827
1067.60 507.4888
1067.70 507.7949
1067.80 508.1011
1067.90 508.4072
1068.00 508.7134
1068.10 509.0195
1068.20 509.3256
1068.30 509.6318
1068.40 509.9379
1068.50 510.244
1068.60 510.5502
1068.70 510.8563
1068.80 511.1625
1068.90 511.4686
1069.00 511.7747
1069.10 512.0809
1069.20 512.409
1069.30 512.7519
1069.40 513.0947
1069.50 513.4376
1069.60 513.7804
1069.70 514.1232
1069.80 514.4661
1069.90 514.8089
1070.00 515.1518
1070.10 515.4946
1070.20 515.8375
1070.30 516.1803
1070.40 516.5002
1070.50 516.8176
1070.60 517.135
1070.70 517.4524
1070.80 517.7698
1070.90 518.0872
1071.00 518.4046
1071.10 518.7219
1071.20 519.0393
1071.30 519.3567
1071.40 519.6741
1071.50 519.9915
1071.60 520.3089
1071.70 520.6263
1071.80 520.9436
1071.90 521.261
1072.00 521.5784
1072.10 521.8958
1072.20 522.2132
1072.30 522.5306
1072.40 522.848
1072.50 523.1653
1072.60 523.4827
1072.70 523.8001
1072.80 524.1175
1072.90 524.4349
1073.00 524.7523
1073.10 525.0697
1073.20 525.387
1073.30 525.8073
1073.40 526.2276
1073.50 526.6479
1073.60 527.0682
1073.70 527.4885
1073.80 527.9087
1073.90 528.329
1074.00 528.7493
1074.10 529.1696
1074.20 529.5899
1074.30 530.0102
1074.40 530.4334
1074.50 530.8682
1074.60 531.3031
1074.70 531.738
1074.80 532.1729
1074.90 532.6077
1075.00 533.0426
1075.10 533.4775
1075.20 533.9124
1075.30 534.3472
1075.40 534.7821
1075.50 535.217
1075.60 535.6518
1075.70 536.0867
1075.80 536.5216
1075.90 536.9565
1076.00 537.3913
1076.10 537.8262
1076.20 538.2611
1076.30 538.696
1076.40 539.1308
1076.50 539.5657
1076.60 540.0006
1076.70 540.4355
1076.80 540.8703
1076.90 541.3052
1077.00 541.7401
1077.10 542.1749
1077.20 542.6098
1077.30 543.0284
1077.40 543.3816
1077.50 543.7349
1077.60 544.0882
1077.70 544.4415
1077.80 544.7947
1077.90 545.148
1078.00 545.5013
1078.10 545.8546
1078.20 546.2078
1078.30 546.5611
1078.40 546.9144
1078.50 547.1908
1078.60 547.352
1078.70 547.5131
1078.80 547.6743
1078.90 547.8354
1079.00 547.9966
1079.10 548.1578
1079.20 548.3189
1079.30 548.4801
1079.40 548.6412
1079.50 548.8024
1079.60 548.9635
1079.70 549.1247
1079.80 549.2859
1079.90 549.447
1080.00 549.6082
1080.10 549.7693
1080.20 549.9305
1080.30 550.0917
1080.40 550.2528
1080.50 550.414
1080.60 550.5751
1080.70 550.7363
1080.80 550.8975
1080.90 551.0586
1081.00 551.2198
1081.10 551.3809
1081.20 551.5421
1081.30 551.7033
1081.40 551.7387
1081.50 551.5857
1081.60 551.4327
1081.70 551.2797
1081.80 551.1267
1081.90 550.9737
1082.00 550.8207
1082.10 550.6677
1082.20 550.5147
1082.30 550.3617
1082.40 550.2087
1082.50 550.0557
1082.60 550.1178
1082.70 550.3949
1082.80 550.6721
1082.90 550.9492
1083.00 551.2264
1083.10 551.5035
1083.20 551.7807
1083.30 552.0578
1083.40 552.335
1083.50 552.6121
1083.60 552.8893
1083.70 553.1664
1083.80 553.4436
1083.90 553.7207
1084.00 553.9979
1084.10 554.275
1084.20 554.5522
1084.30 554.8293
1084.40 555.1065
1084.50 555.3836
1084.60 555.6608
1084.70 555.9379
1084.80 556.2151
1084.90 556.4922
1085.00 556.7694
1085.10 557.0465
1085.20 557.3237
1085.30 557.6008
1085.40 557.878
1085.50 558.2855
1085.60 558.8885
1085.70 559.4914
1085.80 560.0944
1085.90 560.6974
1086.00 561.3004
1086.10 561.9034
1086.20 562.5064
1086.30 563.1093
1086.40 563.7123
1086.50 564.3153
1086.60 564.9183
1086.70 565.38
1086.80 565.7475
1086.90 566.1151
1087.00 566.4826
1087.10 566.8501
1087.20 567.2176
1087.30 567.5852
1087.40 567.9527
1087.50 568.3202
1087.60 568.6877
1087.70 569.0553
1087.80 569.4228
1087.90 569.7903
1088.00 570.1578
1088.10 570.5254
1088.20 570.8929
1088.30 571.2604
1088.40 571.628
1088.50 571.9955
1088.60 572.363
1088.70 572.7305
1088.80 573.0981
1088.90 573.4656
1089.00 573.8331
1089.10 574.2006
1089.20 574.5682
1089.30 574.9357
1089.40 575.3032
1089.50 575.6708
1089.60 575.9356
1089.70 576.0465
1089.80 576.1574
1089.90 576.2683
1090.00 576.3791
1090.10 576.49
1090.20 576.6009
1090.30 576.7118
1090.40 576.8226
1090.50 576.9335
1090.60 577.0444
1090.70 577.1553
1090.80 577.1436
1090.90 577.0093
1091.00 576.875
1091.10 576.7408
1091.20 576.6065
1091.30 576.4722
1091.40 576.3379
1091.50 576.2037
1091.60 576.0694
1091.70 575.9351
1091.80 575.8008
1091.90 575.6666
1092.00 575.5323
1092.10 575.398
1092.20 575.2638
1092.30 575.1295
1092.40 574.9952
1092.50 574.8609
1092.60 574.7267
1092.70 574.5924
1092.80 574.4581
1092.90 574.3238
1093.00 574.1896
1093.10 574.0553
1093.20 573.921
1093.30 573.7867
1093.40 573.6525
1093.50 573.5182
1093.60 573.3839
1093.70 573.251
1093.80 573.1213
1093.90 572.9915
1094.00 572.8618
1094.10 572.732
1094.20 572.6023
1094.30 572.4725
1094.40 572.3428
1094.50 572.213
1094.60 572.0833
1094.70 571.9535
1094.80 571.8238
1094.90 571.8501
1095.00 572.1105
1095.10 572.371
1095.20 572.6314
1095.30 572.8919
1095.40 573.1523
1095.50 573.4128
1095.60 573.6732
1095.70 573.9337
1095.80 574.1941
1095.90 574.4546
1096.00 574.715
1096.10 574.9755
1096.20 575.2359
1096.30 575.4964
1096.40 575.7568
1096.50 576.0173
1096.60 576.2777
1096.70 576.5382
1096.80 576.7986
1096.90 577.0591
1097.00 577.3195
1097.10 577.58
1097.20 577.8404
1097.30 578.1009
1097.40 578.3613
1097.50 578.6218
1097.60 578.8822
1097.70 579.1427
1097.80 579.41
1097.90 579.7388
1098.00 580.0676
1098.10 580.3964
1098.20 580.7253
1098.30 581.0541
1098.40 581.3829
1098.50 581.7118
1098.60 582.0406
1098.70 582.3694
1098.80 582.6983
1098.90 583.0271
1099.00 583.3025
1099.10 583.0965
1099.20 582.8905
1099.30 582.6845
1099.40 582.4785
1099.50 582.2725
1099.60 582.0665
1099.70 581.8606
1099.80 581.6546
1099.90 581.4486
1100.00 581.2426
1100.10 581.0366
1100.20 580.8306
1100.30 580.6247
1100.40 580.4187
1100.50 580.2127
1100.60 580.0067
1100.70 579.8007
1100.80 579.5947
1100.90 579.3888
1101.00 579.1828
1101.10 578.9768
1101.20 578.7708
1101.30 578.5648
1101.40 578.3588
1101.50 578.1529
1101.60 577.9469
1101.70 577.7409
1101.80 577.5349
1101.90 577.3289
1102.00 577.1051
1102.10 576.8769
1102.20 576.6487
1102.30 576.4204
1102.40 576.1922
1102.50 575.964
1102.60 575.7357
1102.70 575.5075
1102.80 575.2793
1102.90 575.051
1103.00 574.8228
1103.10 574.5946
1103.20 574.3604
1103.30 574.1248
1103.40 573.8891
1103.50 573.6535
1103.60 573.4179
1103.70 573.1822
1103.80 572.9466
1103.90 572.7109
1104.00 572.4753
1104.10 572.2397
1104.20 572.004
1104.30 571.7684
1104.40 571.5328
1104.50 571.2971
1104.60 571.0615
1104.70 570.8259
1104.80 570.5902
1104.90 570.3546
1105.00 570.119
1105.10 569.8833
1105.20 569.6477
1105.30 569.412
1105.40 569.1764
1105.50 568.9408
1105.60 568.7051
1105.70 568.4695
1105.80 568.2339
1105.90 567.9982
1106.00 567.7626
1106.10 567.4393
1106.20 566.9846
1106.30 566.5298
1106.40 566.0751
1106.50 565.6203
1106.60 565.1655
1106.70 564.7108
1106.80 564.256
1106.90 563.8013
1107.00 563.3465
1107.10 562.8918
1107.20 562.437
1107.30 562.0178
1107.40 561.6517
1107.50 561.2856
1107.60 560.9195
1107.70 560.5535
1107.80 560.1874
1107.90 559.8213
1108.00 559.4553
1108.10 559.0892
1108.20 558.7231
1108.30 558.3571
1108.40 557.991
1108.50 557.6249
1108.60 557.2589
1108.70 556.8928
1108.80 556.5267
1108.90 556.1607
1109.00 555.7946
1109.10 555.4285
1109.20 555.0625
1109.30 554.6964
1109.40 554.3303
1109.50 553.9642
1109.60 553.5982
1109.70 553.2321
1109.80 552.866
1109.90 552.5
1110.00 552.1339
1110.10 551.7678
1110.20 551.4018
1110.30 551.1719
1110.40 550.9572
1110.50 550.7425
1110.60 550.5277
1110.70 550.313
1110.80 550.0983
1110.90 549.8836
1111.00 549.6688
1111.10 549.4541
1111.20 549.2394
1111.30 549.0246
1111.40 548.8099
1111.50 548.4652
1111.60 548.1059
1111.70 547.7467
1111.80 547.3875
1111.90 547.0283
1112.00 546.6691
1112.10 546.3099
1112.20 545.9507
1112.30 545.5915
1112.40 545.2323
1112.50 544.873
1112.60 544.5138
1112.70 544.1546
1112.80 543.7954
1112.90 543.4362
1113.00 543.077
1113.10 542.7178
1113.20 542.3586
1113.30 541.9993
1113.40 541.6401
1113.50 541.2809
1113.60 540.9217
1113.70 540.5625
1113.80 540.2033
1113.90 539.8441
1114.00 539.4849
1114.10 539.1257
1114.20 538.7664
1114.30 538.4072
1114.40 538.086
1114.50 537.8534
1114.60 537.6208
1114.70 537.3882
1114.80 537.1556
1114.90 536.923
1115.00 536.6903
1115.10 536.4577
1115.20 536.2251
1115.30 535.9925
1115.40 535.7599
1115.50 535.5273
1115.60 535.4896
1115.70 535.9068
1115.80 536.3241
1115.90 536.7413
1116.00 537.1585
1116.10 537.5757
1116.20 537.9929
1116.30 538.4101
1116.40 538.8273
1116.50 539.2445
1116.60 539.6617
1116.70 540.0789
1116.80 540.4961
1116.90 540.9133
1117.00 541.3305
1117.10 541.7478
1117.20 542.165
1117.30 542.5822
1117.40 542.9994
1117.50 543.4166
1117.60 543.8338
1117.70 544.251
1117.80 544.6682
1117.90 545.0854
1118.00 545.5026
1118.10 545.9198
1118.20 546.337
1118.30 546.7543
1118.40 547.1715
1118.50 547.5887
1118.60 548.0629
1118.70 548.5616
1118.80 549.0603
1118.90 549.559
1119.00 550.0577
1119.10 550.5564
1119.20 551.0551
1119.30 551.5537
1119.40 552.0524
1119.50 552.5511
1119.60 553.0498
1119.70 553.5485
1119.80 553.8398
1119.90 553.9929
1120.00 554.146
1120.10 554.299
1120.20 554.4521
1120.30 554.6052
1120.40 554.7583
1120.50 554.9113
1120.60 555.0644
1120.70 555.2175
1120.80 555.3705
1120.90 555.5236
1121.00 555.6767
1121.10 555.8298
1121.20 555.9828
1121.30 556.1359
1121.40 556.289
1121.50 556.442
1121.60 556.5951
1121.70 556.7482
1121.80 556.9013
1121.90 557.0543
1122.00 557.2074
1122.10 557.3605
1122.20 557.5135
1122.30 557.6666
1122.40 557.8197
1122.50 557.9728
1122.60 558.1258
1122.70 558.2789
1122.80 558.0893
1122.90 557.8997
1123.00 557.7102
1123.10 557.5206
1123.20 557.331
1123.30 557.1414
1123.40 556.9518
1123.50 556.7622
1123.60 556.5726
1123.70 556.3831
1123.80 556.1935
1123.90 556.0039
1124.00 555.6519
1124.10 555.282
1124.20 554.912
1124.30 554.542
1124.40 554.172
1124.50 553.802
1124.60 553.432
1124.70 553.062
1124.80 552.6921
1124.90 552.3221
1125.00 551.9521
1125.10 551.5821
1125.20 551.2121
1125.30 550.8421
1125.40 550.4722
1125.50 550.1022
1125.60 549.7322
1125.70 549.3622
1125.80 548.9922
1125.90 548.6222
1126.00 548.2522
1126.10 547.8823
1126.20 547.5123
1126.30 547.1423
1126.40 546.7723
1126.50 546.4023
1126.60 546.0323
1126.70 545.6623
1126.80 545.2924
1126.90 544.9793
1127.00 544.8937
1127.10 544.8081
1127.20 544.7225
1127.30 544.6369
1127.40 544.5514
1127.50 544.4658
1127.60 544.3802
1127.70 544.2946
1127.80 544.2091
1127.90 544.1235
1128.00 544.0379
1128.10 543.9557
1128.20 543.9043
1128.30 543.8529
1128.40 543.8016
1128.50 543.7502
1128.60 543.6988
1128.70 543.6474
1128.80 543.596
1128.90 543.5446
1129.00 543.4932
1129.10 543.4418
1129.20 543.3904
1129.30 543.339
1129.40 543.2876
1129.50 543.2362
1129.60 543.1848
1129.70 543.1334
1129.80 543.082
1129.90 543.0306
1130.00 542.9792
1130.10 542.9278
1130.20 542.8764
1130.30 542.825
1130.40 542.7736
1130.50 542.7222
1130.60 542.6708
1130.70 542.6194
1130.80 542.568
1130.90 542.5166
1131.00 542.4652
1131.10 542.3717
1131.20 542.2148
1131.30 542.058
1131.40 541.9012
1131.50 541.7444
1131.60 541.5876
1131.70 541.4307
1131.80 541.2739
1131.90 541.1171
1132.00 540.9603
1132.10 540.8035
1132.20 540.6467
1132.30 540.6135
1132.40 541.0749
1132.50 541.5363
1132.60 541.9976
1132.70 542.459
1132.80 542.9204
1132.90 543.3818
1133.00 543.8432
1133.10 544.3046
1133.20 544.766
1133.30 545.2273
1133.40 545.6887
1133.50 546.1501
1133.60 546.6115
1133.70 547.0729
1133.80 547.5343
1133.90 547.9957
1134.00 548.4571
1134.10 548.9184
1134.20 549.3798
1134.30 549.8412
1134.40 550.3026
1134.50 550.764
1134.60 551.2254
1134.70 551.6868
1134.80 552.1481
1134.90 552.6095
1135.00 553.0709
1135.10 553.5323
1135.20 553.9937
1135.30 554.5344
1135.40 555.1942
1135.50 555.854
1135.60 556.5138
1135.70 557.1735
1135.80 557.8333
1135.90 558.4931
1136.00 559.1529
1136.10 559.8126
1136.20 560.4724
1136.30 561.1322
1136.40 561.792
1136.50 562.1764
1136.60 561.9183
1136.70 561.6602
1136.80 561.4021
1136.90 561.144
1137.00 560.886
1137.10 560.6279
1137.20 560.3698
1137.30 560.1117
1137.40 559.8536
1137.50 559.5956
1137.60 559.3375
1137.70 559.0794
1137.80 558.8213
1137.90 558.5632
1138.00 558.3051
1138.10 558.0471
1138.20 557.789
1138.30 557.5309
1138.40 557.2728
1138.50 557.0147
1138.60 556.7566
1138.70 556.4986
1138.80 556.2405
1138.90 555.9824
1139.00 555.7243
1139.10 555.4662
1139.20 555.2082
1139.30 554.9501
1139.40 554.692
1139.50 554.4312
1139.60 554.1664
1139.70 553.9016
1139.80 553.6368
1139.90 553.372
1140.00 553.1072
1140.10 552.8424
1140.20 552.5776
1140.30 552.3128
1140.40 552.048
1140.50 551.7832
1140.60 551.5184
1140.70 551.3248
1140.80 551.2973
1140.90 551.2698
1141.00 551.2422
1141.10 551.2147
1141.20 551.1872
1141.30 551.1597
1141.40 551.1322
1141.50 551.1046
1141.60 551.0771
1141.70 551.0496
1141.80 551.0221
1141.90 550.9946
1142.00 550.967
1142.10 550.9395
1142.20 550.912
1142.30 550.8845
1142.40 550.857
1142.50 550.8294
1142.60 550.8019
1142.70 550.7744
1142.80 550.7469
1142.90 550.7194
1143.00 550.6918
1143.10 550.6643
1143.20 550.6368
1143.30 550.6093
1143.40 550.5818
1143.50 550.5542
1143.60 550.5267
1143.70 550.5217
1143.80 550.5506
1143.90 550.5794
1144.00 550.6082
1144.10 550.637
1144.20 550.6659
1144.30 550.6947
1144.40 550.7235
1144.50 550.7523
1144.60 550.7812
1144.70 550.81
1144.80 550.8388
1144.90 550.985
1145.00 551.6007
1145.10 552.2163
1145.20 552.832
1145.30 553.4477
1145.40 554.0633
1145.50 554.679
1145.60 555.2947
1145.70 555.9103
1145.80 556.526
1145.90 557.1416
1146.00 557.7573
1146.10 558.373
1146.20 558.9886
1146.30 559.6043
1146.40 560.22
1146.50 560.8356
1146.60 561.4513
1146.70 562.067
1146.80 562.6826
1146.90 563.2983
1147.00 563.914
1147.10 564.5296
1147.20 565.1453
1147.30 565.761
1147.40 566.3766
1147.50 566.9923
1147.60 567.6079
1147.70 568.2236
1147.80 568.8393
1147.90 569.4269
1148.00 569.9022
1148.10 570.3776
1148.20 570.8529
1148.30 571.3283
1148.40 571.8036
1148.50 572.279
1148.60 572.7543
1148.70 573.2297
1148.80 573.705
1148.90 574.1804
1149.00 574.6557
1149.10 575.1311
1149.20 575.5862
1149.30 576.0412
1149.40 576.4963
1149.50 576.9514
1149.60 577.4065
1149.70 577.8616
1149.80 578.3166
1149.90 578.7717
1150.00 579.2268
1150.10 579.6819
1150.20 580.1369
1150.30 580.592
1150.40 581.0471
1150.50 581.5022
1150.60 581.9572
1150.70 582.4123
1150.80 582.8674
1150.90 583.3225
1151.00 583.7775
1151.10 584.2326
1151.20 584.6877
1151.30 585.1428
1151.40 585.5979
1151.50 586.0529
1151.60 586.508
1151.70 586.9631
1151.80 587.4182
1151.90 587.8732
1152.00 588.3283
1152.10 588.7713
1152.20 589.1057
1152.30 589.4402
1152.40 589.7746
1152.50 590.109
1152.60 590.4434
1152.70 590.7778
1152.80 591.1122
1152.90 591.4467
1153.00 591.7811
1153.10 592.1155
1153.20 592.4499
1153.30 592.7843
1153.40 592.8233
1153.50 592.7885
1153.60 592.7536
1153.70 592.7188
1153.80 592.6839
1153.90 592.6491
1154.00 592.6142
1154.10 592.5794
1154.20 592.5445
1154.30 592.5096
1154.40 592.4748
1154.50 592.4399
1154.60 592.4051
1154.70 592.3702
1154.80 592.3354
1154.90 592.3005
1155.00 592.2657
1155.10 592.2308
1155.20 592.196
1155.30 592.1611
1155.40 592.1263
1155.50 592.0914
1155.60 592.0566
1155.70 592.0217
1155.80 591.9869
1155.90 591.952
1156.00 591.9172
1156.10 591.8823
1156.20 591.8475
1156.30 591.8126
1156.40 591.7682
1156.50 591.7214
1156.60 591.6746
1156.70 591.6278
1156.80 591.581
1156.90 591.5342
1157.00 591.4874
1157.10 591.4406
1157.20 591.3938
1157.30 591.347
1157.40 591.3002
1157.50 591.2534
1157.60 591.3106
1157.70 591.4372
1157.80 591.5639
1157.90 591.6905
1158.00 591.8171
1158.10 591.9437
1158.20 592.0703
1158.30 592.197
1158.40 592.3236
1158.50 592.4502
1158.60 592.5768
1158.70 592.7034
1158.80 592.8301
1158.90 592.9567
1159.00 593.0833
1159.10 593.2099
1159.20 593.3365
1159.30 593.4632
1159.40 593.5898
1159.50 593.7164
1159.60 593.843
1159.70 593.9696
1159.80 594.0963
1159.90 594.2229
1160.00 594.3495
1160.10 594.4761
1160.20 594.6027
1160.30 594.7294
1160.40 594.856
1160.50 594.9826
1160.60 595.0031
1160.70 594.9174
1160.80 594.8317
1160.90 594.746
1161.00 594.6602
1161.10 594.5745
1161.20 594.4888
1161.30 594.4031
1161.40 594.3174
1161.50 594.2317
1161.60 594.146
1161.70 594.0603
1161.80 593.9508
1161.90 593.7458
1162.00 593.5408
1162.10 593.3358
1162.20 593.1308
1162.30 592.9259
1162.40 592.7209
1162.50 592.5159
1162.60 592.3109
1162.70 592.1059
1162.80 591.9009
1162.90 591.696
1163.00 591.491
1163.10 591.286
1163.20 591.081
1163.30 590.876
1163.40 590.6711
1163.50 590.4661
1163.60 590.2611
1163.70 590.0561
1163.80 589.8511
1163.90 589.6461
1164.00 589.4412
1164.10 589.2362
1164.20 589.0312
1164.30 588.8262
1164.40 588.6212
1164.50 588.4163
1164.60 588.2113
1164.70 588.0063
1164.80 587.8225
1164.90 587.8297
1165.00 587.8369
1165.10 587.8441
1165.20 587.8513
1165.30 587.8584
1165.40 587.8656
1165.50 587.8728
1165.60 587.88
1165.70 587.8872
1165.80 587.8944
1165.90 587.9015
1166.00 587.9087
1166.10 587.4583
1166.20 586.9571
1166.30 586.4559
1166.40 585.9547
1166.50 585.4535
1166.60 584.9522
1166.70 584.451
1166.80 583.9498
1166.90 583.4486
1167.00 582.9473
1167.10 582.4461
1167.20 581.9449
1167.30 581.4437
1167.40 580.9425
1167.50 580.4412
1167.60 579.94
1167.70 579.4388
1167.80 578.9376
1167.90 578.4363
1168.00 577.9351
1168.10 577.4339
1168.20 576.9327
1168.30 576.4315
1168.40 575.9302
1168.50 575.429
1168.60 574.9278
1168.70 574.4266
1168.80 573.9253
1168.90 573.4241
1169.00 572.9229
1169.10 572.5384
1169.20 572.204
1169.30 571.8695
1169.40 571.5351
1169.50 571.2007
1169.60 570.8662
1169.70 570.5318
1169.80 570.1973
1169.90 569.8629
1170.00 569.5285
1170.10 569.194
1170.20 568.8596
1170.30 568.5758
1170.40 568.3682
1170.50 568.1605
1170.60 567.9528
1170.70 567.7451
1170.80 567.5374
1170.90 567.3298
1171.00 567.1221
1171.10 566.9144
1171.20 566.7067
1171.30 566.499
1171.40 566.2914
1171.50 566.0837
1171.60 565.876
1171.70 565.6683
1171.80 565.4606
1171.90 565.253
1172.00 565.0453
1172.10 564.8376
1172.20 564.6299
1172.30 564.4222
1172.40 564.2145
1172.50 564.0069
1172.60 563.7992
1172.70 563.5915
1172.80 563.3838
1172.90 563.1761
1173.00 562.9685
1173.10 562.7608
1173.20 562.5531
1173.30 562.3388
1173.40 562.0982
1173.50 561.8575
1173.60 561.6169
1173.70 561.3762
1173.80 561.1355
1173.90 560.8949
1174.00 560.6542
1174.10 560.4136
1174.20 560.1729
1174.30 559.9323
1174.40 559.6916
1174.50 559.451
1174.60 559.4177
1174.70 559.4075
1174.80 559.3972
1174.90 559.387
1175.00 559.3768
1175.10 559.3666
1175.20 559.3563
1175.30 559.3461
1175.40 559.3359
1175.50 559.3256
1175.60 559.3154
1175.70 559.3052
1175.80 559.295
1175.90 559.2847
1176.00 559.2745
1176.10 559.2643
1176.20 559.2541
1176.30 559.2438
1176.40 559.2336
1176.50 559.2234
1176.60 559.2132
1176.70 559.2029
1176.80 559.1927
1176.90 559.1825
1177.00 559.1722
1177.10 559.162
1177.20 559.1518
1177.30 559.1416
1177.40 559.1313
1177.50 559.1211
1177.60 559.2579
1177.70 559.4576
1177.80 559.6574
1177.90 559.8571
1178.00 560.0569
1178.10 560.2566
1178.20 560.4564
1178.30 560.6562
1178.40 560.8559
1178.50 561.0557
1178.60 561.2554
1178.70 561.4552
1178.80 561.7739
1178.90 562.2712
1179.00 562.7685
1179.10 563.2658
1179.20 563.763
1179.30 564.2603
1179.40 564.7576
1179.50 565.2549
1179.60 565.7522
1179.70 566.2494
1179.80 566.7467
1179.90 567.244
1180.00 567.7413
1180.10 568.2386
1180.20 568.7358
1180.30 569.2331
1180.40 569.7304
1180.50 570.2277
1180.60 570.7249
1180.70 571.2222
1180.80 571.7195
1180.90 572.2168
1181.00 572.7141
1181.10 573.2113
1181.20 573.7086
1181.30 574.2059
1181.40 574.7032
1181.50 575.2005
1181.60 575.6977
1181.70 576.195
1181.80 576.6839
1181.90 577.0976
1182.00 577.5112
1182.10 577.9248
1182.20 578.3384
1182.30 578.7521
1182.40 579.1657
1182.50 579.5793
1182.60 579.993
1182.70 580.4066
1182.80 580.8202
1182.90 581.2339
1183.00 581.6475
1183.10 581.7762
1183.20 581.8337
1183.30 581.8912
1183.40 581.9487
1183.50 582.0062
1183.60 582.0637
1183.70 582.1212
1183.80 582.1787
1183.90 582.2362
1184.00 582.2937
1184.10 582.3512
1184.20 582.4087
1184.30 582.4662
1184.40 582.5237
1184.50 582.5812
1184.60 582.6386
1184.70 582.6961
1184.80 582.7536
1184.90 582.8111
1185.00 582.8686
1185.10 582.9261
1185.20 582.9836
1185.30 583.0411
1185.40 583.0986
1185.50 583.1561
1185.60 583.2136
1185.70 583.2711
1185.80 583.3286
1185.90 583.3861
1186.00 583.4436
1186.10 583.4571
1186.20 583.4267
1186.30 583.3962
1186.40 583.3658
1186.50 583.3353
1186.60 583.3049
1186.70 583.2745
1186.80 583.244
1186.90 583.2136
1187.00 583.1832
1187.10 583.1527
1187.20 583.1223
1187.30 583.2059
1187.40 583.7458
1187.50 584.2857
1187.60 584.8255
1187.70 585.3654
1187.80 585.9053
1187.90 586.4452
1188.00 586.985
1188.10 587.5249
1188.20 588.0648
1188.30 588.6047
1188.40 589.1446
1188.50 589.6844
1188.60 590.2243
1188.70 590.7642
1188.80 591.3041
1188.90 591.8439
1189.00 592.3838
1189.10 592.9237
1189.20 593.4636
1189.30 594.0034
1189.40 594.5433
1189.50 595.0832
1189.60 595.6231
1189.70 596.163
1189.80 596.7028
1189.90 597.2427
1190.00 597.7826
1190.10 598.3225
1190.20 598.8623
1190.30 599.4022
1190.40 599.8547
1190.50 600.2975
1190.60 600.7403
1190.70 601.1831
1190.80 601.6259
1190.90 602.0687
1191.00 602.5115
1191.10 602.9543
1191.20 603.3971
1191.30 603.8399
1191.40 604.2827
1191.50 604.7255
1191.60 604.96
1191.70 604.9863
1191.80 605.0126
1191.90 605.0388
1192.00 605.0651
1192.10 605.0914
1192.20 605.1177
1192.30 605.1439
1192.40 605.1702
1192.50 605.1965
1192.60 605.2228
1192.70 605.249
1192.80 605.2753
1192.90 605.3016
1193.00 605.3279
1193.10 605.3541
1193.20 605.3804
1193.30 605.4067
1193.40 605.433
1193.50 605.4592
1193.60 605.4855
1193.70 605.5118
1193.80 605.5381
1193.90 605.5643
1194.00 605.5906
1194.10 605.6169
1194.20 605.6431
1194.30 605.6694
1194.40 605.6957
1194.50 605.722
1194.60 605.7542
1194.70 605.8405
1194.80 605.9268
1194.90 606.0131
1195.00 606.0994
1195.10 606.1857
1195.20 606.272
1195.30 606.3582
1195.40 606.4445
1195.50 606.5308
1195.60 606.6171
1195.70 606.7034
1195.80 606.7897
1195.90 606.8584
1196.00 606.9228
1196.10 606.9872
1196.20 607.0516
1196.30 607.116
1196.40 607.1804
1196.50 607.2448
1196.60 607.3092
1196.70 607.3736
1196.80 607.438
1196.90 607.5024
1197.00 607.5668
1197.10 607.6312
1197.20 607.6956
1197.30 607.76
1197.40 607.8244
1197.50 607.8888
1197.60 607.9532
1197.70 608.0176
1197.80 608.082
1197.90 608.1464
1198.00 608.2108
1198.10 608.2752
1198.20 608.3396
1198.30 608.404
1198.40 608.4684
1198.50 608.5328
1198.60 608.5972
1198.70 608.6616
1198.80 608.726
1198.90 608.7393
1199.00 608.6759
1199.10 608.6126
1199.20 608.5492
1199.30 608.4858
1199.40 608.4225
1199.50 608.3591
1199.60 608.2957
1199.70 608.2324
1199.80 608.169
1199.90 608.1056
1200.00 608.0423
1200.10 607.9789
1200.20 607.6255
1200.30 607.272
1200.40 606.9186
1200.50 606.5651
1200.60 606.2117
1200.70 605.8583
1200.80 605.5048
1200.90 605.1514
1201.00 604.798
1201.10 604.4445
1201.20 604.0911
1201.30 603.7376
1201.40 603.3842
1201.50 603.0308
1201.60 602.6773
1201.70 602.3239
1201.80 601.9704
1201.90 601.617
1202.00 601.2636
1202.10 600.9101
1202.20 600.5567
1202.30 600.2032
1202.40 599.8498
1202.50 599.4964
1202.60 599.1429
1202.70 598.7895
1202.80 598.436
1202.90 598.0826
1203.00 597.7292
1203.10 597.3757
1203.20 597.2684
1203.30 597.3251
1203.40 597.3819
1203.50 597.4386
1203.60 597.4954
1203.70 597.5521
1203.80 597.6089
1203.90 597.6656
1204.00 597.7224
1204.10 597.7791
1204.20 597.8359
1204.30 597.8926
1204.40 598.0483
1204.50 598.5999
1204.60 599.1514
1204.70 599.703
1204.80 600.2546
1204.90 600.8061
1205.00 601.3577
1205.10 601.9093
1205.20 602.4608
1205.30 603.0124
1205.40 603.564
1205.50 604.1155
1205.60 604.6671
1205.70 605.2187
1205.80 605.7702
1205.90 606.3218
1206.00 606.8734
1206.10 607.4249
1206.20 607.9765
1206.30 608.5281
1206.40 609.0796
1206.50 609.6312
1206.60 610.1828
1206.70 610.7343
1206.80 611.2859
1206.90 611.8375
1207.00 612.389
1207.10 612.9406
1207.20 613.4921
1207.30 614.0437
1207.40 614.5953
1207.50 615.002
1207.60 615.3726
1207.70 615.7432
1207.80 616.1137
1207.90 616.4843
1208.00 616.8548
1208.10 617.2254
1208.20 617.596
1208.30 617.9665
1208.40 618.3371
1208.50 618.7077
1208.60 619.0782
1208.70 619.5737
1208.80 620.2566
1208.90 620.9395
1209.00 621.6223
1209.10 622.3052
1209.20 622.9881
1209.30 623.671
1209.40 624.3539
1209.50 625.0367
1209.60 625.7196
1209.70 626.4025
1209.80 627.0854
1209.90 627.7682
1210.00 628.4511
1210.10 629.134
1210.20 629.8169
1210.30 630.4998
1210.40 631.1826
1210.50 631.8655
1210.60 632.5484
1210.70 633.2313
1210.80 633.9142
1210.90 634.597
1211.00 635.2799
1211.10 635.9628
1211.20 636.6457
1211.30 637.3285
1211.40 638.0114
1211.50 638.6943
1211.60 639.3772
1211.70 640.0601
1211.80 640.865
1211.90 641.6836
1212.00 642.5021
1212.10 643.3207
1212.20 644.1392
1212.30 644.9578
1212.40 645.7763
1212.50 646.5949
1212.60 647.4134
1212.70 648.232
1212.80 649.0505
1212.90 649.8691
1213.00 650.4668
1213.10 650.8438
1213.20 651.2208
1213.30 651.5977
1213.40 651.9747
1213.50 652.3517
1213.60 652.7286
1213.70 653.1056
1213.80 653.4826
1213.90 653.8595
1214.00 654.2365
1214.10 654.6135
1214.20 654.9904
1214.30 655.3674
1214.40 655.7444
1214.50 656.1213
1214.60 656.4983
1214.70 656.8753
1214.80 657.2522
1214.90 657.6292
1215.00 658.0062
1215.10 658.3831
1215.20 658.7601
1215.30 659.1371
1215.40 659.514
1215.50 659.891
1215.60 660.268
1215.70 660.6449
1215.80 661.0219
1215.90 661.3989
1216.00 661.7758
1216.10 661.7978
1216.20 661.8198
1216.30 661.8417
1216.40 661.8637
1216.50 661.8857
1216.60 661.9076
1216.70 661.9296
1216.80 661.9516
1216.90 661.9735
1217.00 661.9955
1217.10 662.0175
1217.20 662.0394
1217.30 662.0788
1217.40 662.1297
1217.50 662.1807
1217.60 662.2316
1217.70 662.2825
1217.80 662.3335
1217.90 662.3844
1218.00 662.4353
1218.10 662.4863
1218.20 662.5372
1218.30 662.5882
1218.40 662.6391
1218.50 662.69
1218.60 662.741
1218.70 662.7919
1218.80 662.8428
1218.90 662.8938
1219.00 662.9447
1219.10 662.9957
1219.20 663.0466
1219.30 663.0975
1219.40 663.1485
1219.50 663.1994
1219.60 663.2503
1219.70 663.3013
1219.80 663.3522
1219.90 663.4032
1220.00 663.4541
1220.10 663.505
1220.20 663.556
1220.30 663.6297
1220.40 663.9083
1220.50 664.1869
1220.60 664.4655
1220.70 664.7441
1220.80 665.0227
1220.90 665.3013
1221.00 665.5799
1221.10 665.8585
1221.20 666.1371
1221.30 666.4158
1221.40 666.6944
1221.50 666.973
1221.60 667.375
1221.70 667.83
1221.80 668.285
1221.90 668.74
1222.00 669.195
1222.10 669.65
1222.20 670.105
1222.30 670.56
1222.40 671.0149
1222.50 671.4699
1222.60 671.9249
1222.70 672.3799
1222.80 672.8349
1222.90 673.2899
1223.00 673.7449
1223.10 674.1999
1223.20 674.6548
1223.30 675.1098
1223.40 675.5648
1223.50 676.0198
1223.60 676.4748
1223.70 676.9298
1223.80 677.3848
1223.90 677.8398
1224.00 678.2947
1224.10 678.7497
1224.20 679.2047
1224.30 679.6597
1224.40 680.1147
1224.50 680.5697
1224.60 680.99
1224.70 681.2718
1224.80 681.5535
1224.90 681.8352
1225.00 682.1169
1225.10 682.3987
1225.20 682.6804
1225.30 682.9621
1225.40 683.2439
1225.50 683.5256
1225.60 683.8073
1225.70 684.0891
1225.80 684.3708
1225.90 684.4104
1226.00 684.3462
1226.10 684.282
1226.20 684.2179
1226.30 684.1537
1226.40 684.0895
1226.50 684.0253
1226.60 683.9611
1226.70 683.897
1226.80 683.8328
1226.90 683.7686
1227.00 683.7044
1227.10 683.6402
1227.20 683.5761
1227.30 683.5119
1227.40 683.4477
1227.50 683.3835
1227.60 683.3193
1227.70 683.2552
1227.80 683.191
1227.90 683.1268
1228.00 683.0626
1228.10 682.9984
1228.20 682.9343
1228.30 682.8701
1228.40 682.8059
1228.50 682.7417
1228.60 682.6775
1228.70 682.6133
1228.80 682.5492
1228.90 682.4704
1229.00 682.3333
1229.10 682.1962
1229.20 682.0591
1229.30 681.922
1229.40 681.7849
1229.50 681.6477
1229.60 681.5106
1229.70 681.3735
1229.80 681.2364
1229.90 681.0993
1230.00 680.9622
1230.10 680.8251
1230.20 680.9687
1230.30 681.1825
1230.40 681.3962
1230.50 681.61
1230.60 681.8238
1230.70 682.0376
1230.80 682.2514
1230.90 682.4652
1231.00 682.6789
1231.10 682.8927
1231.20 683.1065
1231.30 683.3203
1231.40 683.5341
1231.50 683.7478
1231.60 683.9616
1231.70 684.1754
1231.80 684.3892
1231.90 684.603
1232.00 684.8167
1232.10 685.0305
1232.20 685.2443
1232.30 685.4581
1232.40 685.6719
1232.50 685.8857
1232.60 686.0994
1232.70 686.3132
1232.80 686.527
1232.90 686.7408
1233.00 686.9546
1233.10 687.1683
1233.20 687.3709
1233.30 687.5287
1233.40 687.6865
1233.50 687.8442
1233.60 688.002
1233.70 688.1598
1233.80 688.3176
1233.90 688.4753
1234.00 688.6331
1234.10 688.7909
1234.20 688.9487
1234.30 689.1064
1234.40 689.2642
1234.50 689.2614
1234.60 689.1898
1234.70 689.1182
1234.80 689.0465
1234.90 688.9749
1235.00 688.9033
1235.10 688.8317
1235.20 688.7601
1235.30 688.6884
1235.40 688.6168
1235.50 688.5452
1235.60 688.4736
1235.70 688.402
1235.80 688.3303
1235.90 688.2587
1236.00 688.1871
1236.10 688.1155
1236.20 688.0439
1236.30 687.9722
1236.40 687.9006
1236.50 687.829
1236.60 687.7574
1236.70 687.6858
1236.80 687.6141
1236.90 687.5425
1237.00 687.4709
1237.10 687.3993
1237.20 687.3277
1237.30 687.256
1237.40 687.1844
1237.50 687.115
1237.60 687.0547
1237.70 686.9943
1237.80 686.9339
1237.90 686.8736
1238.00 686.8132
1238.10 686.7528
1238.20 686.6924
1238.30 686.6321
1238.40 686.5717
1238.50 686.5113
1238.60 686.4509
1238.70 686.3906
1238.80 686.0883
1238.90 685.6824
1239.00 685.2765
1239.10 684.8706
1239.20 684.4646
1239.30 684.0587
1239.40 683.6528
1239.50 683.2469
1239.60 682.841
1239.70 682.435
1239.80 682.0291
1239.90 681.6232
1240.00 681.2173
1240.10 680.8114
1240.20 680.4055
1240.30 679.9995
1240.40 679.5936
1240.50 679.1877
1240.60 678.7818
1240.70 678.3759
1240.80 677.9699
1240.90 677.564
1241.00 677.1581
1241.10 676.7522
1241.20 676.3463
1241.30 675.9403
1241.40 675.5344
1241.50 675.1285
1241.60 674.7226
1241.70 674.3167
1241.80 673.9279
1241.90 673.6935
1242.00 673.4591
1242.10 673.2247
1242.20 672.9903
1242.30 672.7558
1242.40 672.5214
1242.50 672.287
1242.60 672.0526
1242.70 671.8182
1242.80 671.5838
1242.90 671.3494
1243.00 671.115
1243.10 671.0746
1243.20 671.1175
1243.30 671.1604
1243.40 671.2032
1243.50 671.2461
1243.60 671.2889
1243.70 671.3318
1243.80 671.3746
1243.90 671.4175
1244.00 671.4603
1244.10 671.5032
1244.20 671.546
1244.30 671.5889
1244.40 671.6317
1244.50 671.6746
1244.60 671.7175
1244.70 671.7603
1244.80 671.8032
1244.90 671.846
1245.00 671.8889
1245.10 671.9317
1245.20 671.9746
1245.30 672.0174
1245.40 672.0603
1245.50 672.1031
1245.60 672.146
1245.70 672.1888
1245.80 672.2317
1245.90 672.2745
1246.00 672.3174
1246.10 672.3603
1246.20 672.6686
1246.30 672.977
1246.40 673.2853
1246.50 673.5937
1246.60 673.902
1246.70 674.2104
1246.80 674.5187
1246.90 674.8271
1247.00 675.1354
1247.10 675.4438
1247.20 675.7521
1247.30 676.0605
1247.40 676.2637
1247.50 676.397
1247.60 676.5302
1247.70 676.6634
1247.80 676.7966
1247.90 676.9298
1248.00 677.063
1248.10 677.1963
1248.20 677.3295
1248.30 677.4627
1248.40 677.5959
1248.50 677.7291
1248.60 677.8623
1248.70 677.9955
1248.80 678.1288
1248.90 678.262
1249.00 678.3952
1249.10 678.5284
1249.20 678.6616
1249.30 678.7948
1249.40 678.9281
1249.50 679.0613
1249.60 679.1945
1249.70 679.3277
1249.80 679.4609
1249.90 679.5941
1250.00 679.7273
1250.10 679.8606
1250.20 679.9938
1250.30 680.127
1250.40 680.2602
1250.50 680.3115
1250.60 680.3627
1250.70 680.414
1250.80 680.4652
1250.90 680.5165
1251.00 680.5678
1251.10 680.619
1251.20 680.6703
1251.30 680.7215
1251.40 680.7728
1251.50 680.8241
1251.60 680.8753
1251.70 681.0962
1251.80 681.4868
1251.90 681.8773
1252.00 682.2679
1252.10 682.6584
1252.20 683.0489
1252.30 683.4395
1252.40 683.83
1252.50 684.2206
1252.60 684.6111
1252.70 685.0017
1252.80 685.3922
1252.90 685.7828
1253.00 686.1733
1253.10 686.5638
1253.20 686.9544
1253.30 687.3449
1253.40 687.7355
1253.50 688.126
1253.60 688.5166
1253.70 688.9071
1253.80 689.2977
1253.90 689.6882
1254.00 690.0788
1254.10 690.4693
1254.20 690.8598
1254.30 691.2504
1254.40 691.6409
1254.50 692.0315
1254.60 692.422
1254.70 692.8126
1254.80 693.0763
1254.90 693.326
1255.00 693.5756
1255.10 693.8253
1255.20 694.0749
1255.30 694.3246
1255.40 694.5742
1255.50 694.8239
1255.60 695.0735
1255.70 695.3232
1255.80 695.5728
1255.90 695.8225
1256.00 696.0026
1256.10 696.0783
1256.20 696.1541
1256.30 696.2299
1256.40 696.3057
1256.50 696.3815
1256.60 696.4573
1256.70 696.5331
1256.80 696.6089
1256.90 696.6847
1257.00 696.7604
1257.10 696.8362
1257.20 696.912
1257.30 696.9878
1257.40 697.0636
1257.50 697.1394
1257.60 697.2152
1257.70 697.291
1257.80 697.3667
1257.90 697.4425
1258.00 697.5183
1258.10 697.5941
1258.20 697.6699
1258.30 697.7457
1258.40 697.8215
1258.50 697.8973
1258.60 697.9731
1258.70 698.0488
1258.80 698.1246
1258.90 698.2004
1259.00 698.2762
1259.10 698.6557
1259.20 699.1653
1259.30 699.6749
1259.40 700.1845
1259.50 700.6941
1259.60 701.2037
1259.70 701.7133
1259.80 702.2229
1259.90 702.7325
1260.00 703.2421
1260.10 703.7517
1260.20 704.2613
1260.30 704.8845
1260.40 705.9621
1260.50 707.0397
1260.60 708.1173
1260.70 709.1949
1260.80 710.2725
1260.90 711.3502
1261.00 712.4278
1261.10 713.5054
1261.20 714.583
1261.30 715.6606
1261.40 716.7382
1261.50 717.8158
1261.60 718.8934
1261.70 719.971
1261.80 721.0486
1261.90 722.1262
1262.00 723.2038
1262.10 724.2814
1262.20 725.359
1262.30 726.4366
1262.40 727.5142
1262.50 728.5918
1262.60 729.6694
1262.70 730.747
1262.80 731.8246
1262.90 732.9022
1263.00 733.9798
1263.10 735.0574
1263.20 736.135
1263.30 737.2127
1263.40 738.0163
1263.50 738.6373
1263.60 739.2583
1263.70 739.8793
1263.80 740.5003
1263.90 741.1214
1264.00 741.7424
1264.10 742.3634
1264.20 742.9844
1264.30 743.6054
1264.40 744.2264
1264.50 744.8474
1264.60 745.4537
1264.70 745.9271
1264.80 746.4004
1264.90 746.8738
1265.00 747.3472
1265.10 747.8205
1265.20 748.2939
1265.30 748.7673
1265.40 749.2407
1265.50 749.714
1265.60 750.1874
1265.70 750.6608
1265.80 751.1341
1265.90 751.6075
1266.00 752.0809
1266.10 752.5542
1266.20 753.0276
1266.30 753.501
1266.40 753.9744
1266.50 754.4477
1266.60 754.9211
1266.70 755.3945
1266.80 755.8678
1266.90 756.3412
1267.00 756.8146
1267.10 757.288
1267.20 757.7613
1267.30 758.2347
1267.40 758.7081
1267.50 759.1814
1267.60 759.6548
1267.70 760.1843
1267.80 760.7979
1267.90 761.4115
1268.00 762.0252
1268.10 762.6388
1268.20 763.2524
1268.30 763.866
1268.40 764.4796
1268.50 765.0933
1268.60 765.7069
1268.70 766.3205
1268.80 766.9341
1268.90 767.5478
1269.00 768.1163
1269.10 768.6849
1269.20 769.2534
1269.30 769.822
1269.40 770.3905
1269.50 770.9591
1269.60 771.5276
1269.70 772.0962
1269.80 772.6647
1269.90 773.2333
1270.00 773.8018
1270.10 774.3704
1270.20 774.9389
1270.30 775.5075
1270.40 776.076
1270.50 776.6446
1270.60 777.2131
1270.70 777.7817
1270.80 778.3502
1270.90 778.9188
1271.00 779.4873
1271.10 780.0559
1271.20 780.6244
1271.30 781.193
1271.40 781.7615
1271.50 782.3301
1271.60 782.8986
1271.70 783.4672
1271.80 784.0357
1271.90 784.6043
1272.00 784.9975
1272.10 784.9816
1272.20 784.9657
1272.30 784.9498
1272.40 784.9339
1272.50 784.918
1272.60 784.9021
1272.70 784.8862
1272.80 784.8703
1272.90 784.8544
1273.00 784.8385
1273.10 784.8226
1273.20 784.8067
1273.30 784.7164
1273.40 784.6075
1273.50 784.4986
1273.60 784.3897
1273.70 784.2808
1273.80 784.1719
1273.90 784.063
1274.00 783.9541
1274.10 783.8452
1274.20 783.7363
1274.30 783.6274
1274.40 783.5185
1274.50 783.4096
1274.60 783.3006
1274.70 783.1917
1274.80 783.0828
1274.90 782.9739
1275.00 782.865
1275.10 782.7561
1275.20 782.6472
1275.30 782.5383
1275.40 782.4294
1275.50 782.3205
1275.60 782.2116
1275.70 782.1027
1275.80 781.9938
1275.90 781.8849
1276.00 781.776
1276.10 781.6671
1276.20 781.5582
1276.30 781.5039
1276.40 781.9409
1276.50 782.378
1276.60 782.8151
1276.70 783.2522
1276.80 783.6892
1276.90 784.1263
1277.00 784.5634
1277.10 785.0004
1277.20 785.4375
1277.30 785.8746
1277.40 786.3117
1277.50 786.7487
1277.60 787.0943
1277.70 787.3788
1277.80 787.6634
1277.90 787.9479
1278.00 788.2325
1278.10 788.517
1278.20 788.8016
1278.30 789.0861
1278.40 789.3707
1278.50 789.6552
1278.60 789.9398
1278.70 790.2243
1278.80 790.5088
1278.90 790.7934
1279.00 791.0779
1279.10 791.3625
1279.20 791.647
1279.30 791.9316
1279.40 792.2161
1279.50 792.5007
1279.60 792.7852
1279.70 793.0698
1279.80 793.3543
1279.90 793.6389
1280.00 793.9234
1280.10 794.2079
1280.20 794.4925
1280.30 794.777
1280.40 795.0616
1280.50 795.3461
1280.60 795.6307
1280.70 795.7052
1280.80 795.7798
1280.90 795.8544
1281.00 795.929
1281.10 796.0035
1281.20 796.0781
1281.30 796.1527
1281.40 796.2273
1281.50 796.3018
1281.60 796.3764
1281.70 796.451
1281.80 796.5255
1281.90 796.4546
1282.00 796.2382
1282.10 796.0218
1282.20 795.8054
1282.30 795.589
1282.40 795.3726
1282.50 795.1562
1282.60 794.9397
1282.70 794.7233
1282.80 794.5069
1282.90 794.2905
1283.00 794.0741
1283.10 793.8577
1283.20 793.6413
1283.30 793.4249
1283.40 793.2084
1283.50 792.992
1283.60 792.7756
1283.70 792.5592
1283.80 792.3428
1283.90 792.1264
1284.00 791.91
1284.10 791.6936
1284.20 791.4771
1284.30 791.2607
1284.40 791.0443
1284.50 790.8279
1284.60 790.6115
1284.70 790.3951
1284.80 790.1787
1284.90 789.9623
1285.00 789.8321
1285.10 789.7236
1285.20 789.6151
1285.30 789.5065
1285.40 789.398
1285.50 789.2895
1285.60 789.1809
1285.70 789.0724
1285.80 788.9639
1285.90 788.8553
1286.00 788.7468
1286.10 788.6383
1286.20 788.6374
1286.30 788.8877
1286.40 789.138
1286.50 789.3883
1286.60 789.6386
1286.70 789.889
1286.80 790.1393
1286.90 790.3896
1287.00 790.6399
1287.10 790.8902
1287.20 791.1405
1287.30 791.3908
1287.40 791.6411
1287.50 791.8914
1287.60 792.1417
1287.70 792.3921
1287.80 792.6424
1287.90 792.8927
1288.00 793.143
1288.10 793.3933
1288.20 793.6436
1288.30 793.8939
1288.40 794.1442
1288.50 794.3945
1288.60 794.6448
1288.70 794.8952
1288.80 795.1455
1288.90 795.3958
1289.00 795.6461
1289.10 795.8964
1289.20 796.1467
1289.30 796.3186
1289.40 796.4383
1289.50 796.558
1289.60 796.6777
1289.70 796.7973
1289.80 796.917
1289.90 797.0367
1290.00 797.1564
1290.10 797.276
1290.20 797.3957
1290.30 797.5154
1290.40 797.6351
1290.50 797.7203
1290.60 797.4957
1290.70 797.2712
1290.80 797.0466
1290.90 796.822
1291.00 796.5974
1291.10 796.3729
1291.20 796.1483
1291.30 795.9237
1291.40 795.6991
1291.50 795.4746
1291.60 795.25
1291.70 795.0254
1291.80 794.8008
1291.90 794.5763
1292.00 794.3517
1292.10 794.1271
1292.20 793.9025
1292.30 793.678
1292.40 793.4534
1292.50 793.2288
1292.60 793.0042
1292.70 792.7797
1292.80 792.5551
1292.90 792.3305
1293.00 792.1059
1293.10 791.8814
1293.20 791.6568
1293.30 791.4322
1293.40 791.2076
1293.50 790.9831
1293.60 790.7621
1293.70 790.5468
1293.80 790.3314
1293.90 790.116
1294.00 789.9006
1294.10 789.6852
1294.20 789.4698
1294.30 789.2544
1294.40 789.039
1294.50 788.8236
1294.60 788.6082
1294.70 788.3928
1294.80 788.1774
1294.90 788.1992
1295.00 788.2473
1295.10 788.2955
1295.20 788.3437
1295.30 788.3918
1295.40 788.44
1295.50 788.4881
1295.60 788.5363
1295.70 788.5844
1295.80 788.6326
1295.90 788.6807
1296.00 788.7289
1296.10 788.7771
1296.20 788.8252
1296.30 788.8734
1296.40 788.9215
1296.50 788.9697
1296.60 789.0178
1296.70 789.066
1296.80 789.1141
1296.90 789.1623
1297.00 789.2104
1297.10 789.2586
1297.20 789.3068
1297.30 789.3549
1297.40 789.4031
1297.50 789.4512
1297.60 789.4994
1297.70 789.5475
1297.80 789.5957
1297.90 789.6351
1298.00 789.6397
1298.10 789.6443
1298.20 789.6488
1298.30 789.6534
1298.40 789.658
1298.50 789.6626
1298.60 789.6671
1298.70 789.6717
1298.80 789.6763
1298.90 789.6808
1299.00 789.6854
1299.10 789.69
1299.20 789.4314
1299.30 789.06
1299.40 788.6886
1299.50 788.3173
1299.60 787.9459
1299.70 787.5745
1299.80 787.2032
1299.90 786.8318
