# Version 2.1 - nm, norm@500 to 1, cut digits
# Wavelength(nm)  Flambda(ergs/cm^s/s/nm)
300.00 1.321276e-95
300.10 1.321276e-95
300.20 1.321276e-95
300.30 1.321276e-95
300.40 1.321276e-95
300.50 1.321276e-95
300.60 1.321276e-95
300.70 1.321276e-95
300.80 1.321276e-95
300.90 1.321276e-95
301.00 1.321276e-95
301.10 1.321276e-95
301.20 1.321276e-95
301.30 1.321276e-95
301.40 1.321276e-95
301.50 1.321276e-95
301.60 1.321276e-95
301.70 1.321276e-95
301.80 1.321276e-95
301.90 1.321276e-95
302.00 1.321276e-95
302.10 1.321276e-95
302.20 1.321276e-95
302.30 1.321276e-95
302.40 1.321276e-95
302.50 1.321276e-95
302.60 1.321276e-95
302.70 1.321276e-95
302.80 1.321276e-95
302.90 1.321276e-95
303.00 1.321276e-95
303.10 1.321276e-95
303.20 1.321276e-95
303.30 1.321276e-95
303.40 1.321276e-95
303.50 1.321276e-95
303.60 1.321276e-95
303.70 1.321276e-95
303.80 1.321276e-95
303.90 1.321276e-95
304.00 1.321276e-95
304.10 1.321276e-95
304.20 1.321276e-95
304.30 1.321276e-95
304.40 1.321276e-95
304.50 1.321276e-95
304.60 1.321276e-95
304.70 1.321276e-95
304.80 1.321276e-95
304.90 1.321276e-95
305.00 1.321276e-95
305.10 1.321276e-95
305.20 1.321276e-95
305.30 1.321276e-95
305.40 1.321276e-95
305.50 1.321276e-95
305.60 1.321276e-95
305.70 1.321276e-95
305.80 1.321276e-95
305.90 1.321276e-95
306.00 1.321276e-95
306.10 1.321276e-95
306.20 1.321276e-95
306.30 1.321276e-95
306.40 1.321276e-95
306.50 1.321276e-95
306.60 1.321276e-95
306.70 1.321276e-95
306.80 1.321276e-95
306.90 1.321276e-95
307.00 1.321276e-95
307.10 1.321276e-95
307.20 1.321276e-95
307.30 1.321276e-95
307.40 1.321276e-95
307.50 1.321276e-95
307.60 1.321276e-95
307.70 1.321276e-95
307.80 1.321276e-95
307.90 1.321276e-95
308.00 1.321276e-95
308.10 1.321276e-95
308.20 1.321276e-95
308.30 1.321276e-95
308.40 1.321276e-95
308.50 1.321276e-95
308.60 1.321276e-95
308.70 1.321276e-95
308.80 1.321276e-95
308.90 1.321276e-95
309.00 1.321276e-95
309.10 1.321276e-95
309.20 1.321276e-95
309.30 1.321276e-95
309.40 1.321276e-95
309.50 1.321276e-95
309.60 1.321276e-95
309.70 1.321276e-95
309.80 1.321276e-95
309.90 1.321276e-95
310.00 1.321276e-95
310.10 1.321276e-95
310.20 1.321276e-95
310.30 1.321276e-95
310.40 1.321276e-95
310.50 1.321276e-95
310.60 1.321276e-95
310.70 1.321276e-95
310.80 1.321276e-95
310.90 1.321276e-95
311.00 1.321276e-95
311.10 1.321276e-95
311.20 1.321276e-95
311.30 1.321276e-95
311.40 1.321276e-95
311.50 1.321276e-95
311.60 1.321276e-95
311.70 1.321276e-95
311.80 1.321276e-95
311.90 1.321276e-95
312.00 1.321276e-95
312.10 1.321276e-95
312.20 1.321276e-95
312.30 1.321276e-95
312.40 1.321276e-95
312.50 1.321276e-95
312.60 1.321276e-95
312.70 1.321276e-95
312.80 1.321276e-95
312.90 1.321276e-95
313.00 1.321276e-95
313.10 1.321276e-95
313.20 1.321276e-95
313.30 1.321276e-95
313.40 1.321276e-95
313.50 1.321276e-95
313.60 1.321276e-95
313.70 1.321276e-95
313.80 1.321276e-95
313.90 1.321276e-95
314.00 1.321276e-95
314.10 1.321276e-95
314.20 1.321276e-95
314.30 1.321276e-95
314.40 1.321276e-95
314.50 1.321276e-95
314.60 1.321276e-95
314.70 1.321276e-95
314.80 1.321276e-95
314.90 1.321276e-95
315.00 1.321276e-95
315.10 1.321276e-95
315.20 1.321276e-95
315.30 1.321276e-95
315.40 1.321276e-95
315.50 1.321276e-95
315.60 1.321276e-95
315.70 1.321276e-95
315.80 1.321276e-95
315.90 1.321276e-95
316.00 1.321276e-95
316.10 1.321276e-95
316.20 1.321276e-95
316.30 1.321276e-95
316.40 1.321276e-95
316.50 1.321276e-95
316.60 1.321276e-95
316.70 1.321276e-95
316.80 1.321276e-95
316.90 1.321276e-95
317.00 1.321276e-95
317.10 1.321276e-95
317.20 1.321276e-95
317.30 1.321276e-95
317.40 1.321276e-95
317.50 1.321276e-95
317.60 1.321276e-95
317.70 1.321276e-95
317.80 1.321276e-95
317.90 1.321276e-95
318.00 1.321276e-95
318.10 1.321276e-95
318.20 1.321276e-95
318.30 1.321276e-95
318.40 1.321276e-95
318.50 1.321276e-95
318.60 1.321276e-95
318.70 1.321276e-95
318.80 1.321276e-95
318.90 1.321276e-95
319.00 1.321276e-95
319.10 1.321276e-95
319.20 1.321276e-95
319.30 1.321276e-95
319.40 1.321276e-95
319.50 1.321276e-95
319.60 1.321276e-95
319.70 1.321276e-95
319.80 1.321276e-95
319.90 1.321276e-95
320.00 1.321276e-95
320.10 1.321276e-95
320.20 1.321276e-95
320.30 1.321276e-95
320.40 1.321276e-95
320.50 1.321276e-95
320.60 1.321276e-95
320.70 1.321276e-95
320.80 1.321276e-95
320.90 1.321276e-95
321.00 1.321276e-95
321.10 1.321276e-95
321.20 1.321276e-95
321.30 1.321276e-95
321.40 1.321276e-95
321.50 1.321276e-95
321.60 1.321276e-95
321.70 1.321276e-95
321.80 1.321276e-95
321.90 1.321276e-95
322.00 1.321276e-95
322.10 1.321276e-95
322.20 1.321276e-95
322.30 1.321276e-95
322.40 1.321276e-95
322.50 1.321276e-95
322.60 1.321276e-95
322.70 1.321276e-95
322.80 1.321276e-95
322.90 1.321276e-95
323.00 1.321276e-95
323.10 1.321276e-95
323.20 1.321276e-95
323.30 1.321276e-95
323.40 1.321276e-95
323.50 1.321276e-95
323.60 1.321276e-95
323.70 1.321276e-95
323.80 1.321276e-95
323.90 1.321276e-95
324.00 1.321276e-95
324.10 1.321276e-95
324.20 1.321276e-95
324.30 1.321276e-95
324.40 1.321276e-95
324.50 1.321276e-95
324.60 1.321276e-95
324.70 1.321276e-95
324.80 1.321276e-95
324.90 1.321276e-95
325.00 1.321276e-95
325.10 1.321276e-95
325.20 1.321276e-95
325.30 1.321276e-95
325.40 1.321276e-95
325.50 1.321276e-95
325.60 1.321276e-95
325.70 1.321276e-95
325.80 1.321276e-95
325.90 1.321276e-95
326.00 1.321276e-95
326.10 1.321276e-95
326.20 1.321276e-95
326.30 1.321276e-95
326.40 1.321276e-95
326.50 1.321276e-95
326.60 1.321276e-95
326.70 1.321276e-95
326.80 1.321276e-95
326.90 1.321276e-95
327.00 1.321276e-95
327.10 1.321276e-95
327.20 1.321276e-95
327.30 1.321276e-95
327.40 1.321276e-95
327.50 1.321276e-95
327.60 1.321276e-95
327.70 1.321276e-95
327.80 1.321276e-95
327.90 1.321276e-95
328.00 1.321276e-95
328.10 1.321276e-95
328.20 1.321276e-95
328.30 1.321276e-95
328.40 1.321276e-95
328.50 1.321276e-95
328.60 1.321276e-95
328.70 1.321276e-95
328.80 1.321276e-95
328.90 1.321276e-95
329.00 1.321276e-95
329.10 1.321276e-95
329.20 1.321276e-95
329.30 1.321276e-95
329.40 1.321276e-95
329.50 1.321276e-95
329.60 1.321276e-95
329.70 1.321276e-95
329.80 1.321276e-95
329.90 1.321276e-95
330.00 1.321276e-95
330.10 1.321276e-95
330.20 1.321276e-95
330.30 1.321276e-95
330.40 1.321276e-95
330.50 1.321276e-95
330.60 1.321276e-95
330.70 1.321276e-95
330.80 1.321276e-95
330.90 1.321276e-95
331.00 1.321276e-95
331.10 1.321276e-95
331.20 1.321276e-95
331.30 1.321276e-95
331.40 1.321276e-95
331.50 1.321276e-95
331.60 1.321276e-95
331.70 1.321276e-95
331.80 1.321276e-95
331.90 1.321276e-95
332.00 1.321276e-95
332.10 1.321276e-95
332.20 1.321276e-95
332.30 1.321276e-95
332.40 1.321276e-95
332.50 1.321276e-95
332.60 1.321276e-95
332.70 1.321276e-95
332.80 1.321276e-95
332.90 1.321276e-95
333.00 1.321276e-95
333.10 1.321276e-95
333.20 1.321276e-95
333.30 1.321276e-95
333.40 1.321276e-95
333.50 1.321276e-95
333.60 1.321276e-95
333.70 1.321276e-95
333.80 1.321276e-95
333.90 1.321276e-95
334.00 1.321276e-95
334.10 1.321276e-95
334.20 1.321276e-95
334.30 1.321276e-95
334.40 1.321276e-95
334.50 1.321276e-95
334.60 1.321276e-95
334.70 1.321276e-95
334.80 1.321276e-95
334.90 1.321276e-95
335.00 1.321276e-95
335.10 1.321276e-95
335.20 1.321276e-95
335.30 1.321276e-95
335.40 1.321276e-95
335.50 1.321276e-95
335.60 1.321276e-95
335.70 1.321276e-95
335.80 1.321276e-95
335.90 1.321276e-95
336.00 1.321276e-95
336.10 1.321276e-95
336.20 1.321276e-95
336.30 1.321276e-95
336.40 1.321276e-95
336.50 1.321276e-95
336.60 1.321276e-95
336.70 1.321276e-95
336.80 1.321276e-95
336.90 1.321276e-95
337.00 1.321276e-95
337.10 1.321276e-95
337.20 1.321276e-95
337.30 1.321276e-95
337.40 1.321276e-95
337.50 1.321276e-95
337.60 1.321276e-95
337.70 1.321276e-95
337.80 1.321276e-95
337.90 1.321276e-95
338.00 1.321276e-95
338.10 1.321276e-95
338.20 1.321276e-95
338.30 1.321276e-95
338.40 1.321276e-95
338.50 1.321276e-95
338.60 1.321276e-95
338.70 1.321276e-95
338.80 1.321276e-95
338.90 1.321276e-95
339.00 1.321276e-95
339.10 1.321276e-95
339.20 1.321276e-95
339.30 1.321276e-95
339.40 1.321276e-95
339.50 1.321276e-95
339.60 1.321276e-95
339.70 1.321276e-95
339.80 1.321276e-95
339.90 1.321276e-95
340.00 1.321276e-95
340.10 1.321276e-95
340.20 1.321276e-95
340.30 1.321276e-95
340.40 1.321276e-95
340.50 1.321276e-95
340.60 1.321276e-95
340.70 1.321276e-95
340.80 1.321276e-95
340.90 1.321276e-95
341.00 1.321276e-95
341.10 1.321276e-95
341.20 1.321276e-95
341.30 1.321276e-95
341.40 1.321276e-95
341.50 1.321276e-95
341.60 1.321276e-95
341.70 1.321276e-95
341.80 1.321276e-95
341.90 1.321276e-95
342.00 1.321276e-95
342.10 1.321276e-95
342.20 1.321276e-95
342.30 1.321276e-95
342.40 1.321276e-95
342.50 1.321276e-95
342.60 1.321276e-95
342.70 1.321276e-95
342.80 1.321276e-95
342.90 1.321276e-95
343.00 1.321276e-95
343.10 1.321276e-95
343.20 1.321276e-95
343.30 1.321276e-95
343.40 1.321276e-95
343.50 1.321276e-95
343.60 1.321276e-95
343.70 1.321276e-95
343.80 1.321276e-95
343.90 1.321276e-95
344.00 1.321276e-95
344.10 1.321276e-95
344.20 1.321276e-95
344.30 1.321276e-95
344.40 1.321276e-95
344.50 1.321276e-95
344.60 1.321276e-95
344.70 1.321276e-95
344.80 1.321276e-95
344.90 1.321276e-95
345.00 1.321276e-95
345.10 1.321276e-95
345.20 1.321276e-95
345.30 1.321276e-95
345.40 1.321276e-95
345.50 1.321276e-95
345.60 1.321276e-95
345.70 1.321276e-95
345.80 1.321276e-95
345.90 1.321276e-95
346.00 1.321276e-95
346.10 1.321276e-95
346.20 1.321276e-95
346.30 1.321276e-95
346.40 1.321276e-95
346.50 1.321276e-95
346.60 1.321276e-95
346.70 1.321276e-95
346.80 1.321276e-95
346.90 1.321276e-95
347.00 1.321276e-95
347.10 1.321276e-95
347.20 1.321276e-95
347.30 1.321276e-95
347.40 1.321276e-95
347.50 1.321276e-95
347.60 1.321276e-95
347.70 1.321276e-95
347.80 1.321276e-95
347.90 1.321276e-95
348.00 1.321276e-95
348.10 1.321276e-95
348.20 1.321276e-95
348.30 1.321276e-95
348.40 1.321276e-95
348.50 1.321276e-95
348.60 1.321276e-95
348.70 1.321276e-95
348.80 1.321276e-95
348.90 1.321276e-95
349.00 1.321276e-95
349.10 1.321276e-95
349.20 1.321276e-95
349.30 1.321276e-95
349.40 1.321276e-95
349.50 1.321276e-95
349.60 1.321276e-95
349.70 1.321276e-95
349.80 1.321276e-95
349.90 1.321276e-95
350.00 1.321276e-95
350.10 1.321276e-95
350.20 1.321276e-95
350.30 1.321276e-95
350.40 1.321276e-95
350.50 1.321276e-95
350.60 1.321276e-95
350.70 1.321276e-95
350.80 1.321276e-95
350.90 1.321276e-95
351.00 1.321276e-95
351.10 1.321276e-95
351.20 1.321276e-95
351.30 1.321276e-95
351.40 1.321276e-95
351.50 1.321276e-95
351.60 1.321276e-95
351.70 1.321276e-95
351.80 1.321276e-95
351.90 1.321276e-95
352.00 1.321276e-95
352.10 1.321276e-95
352.20 1.321276e-95
352.30 1.321276e-95
352.40 1.321276e-95
352.50 1.321276e-95
352.60 1.321276e-95
352.70 1.321276e-95
352.80 1.321276e-95
352.90 1.321276e-95
353.00 1.321276e-95
353.10 1.321276e-95
353.20 1.321276e-95
353.30 1.321276e-95
353.40 1.321276e-95
353.50 1.321276e-95
353.60 1.321276e-95
353.70 1.321276e-95
353.80 1.321276e-95
353.90 1.321276e-95
354.00 1.321276e-95
354.10 1.321276e-95
354.20 1.321276e-95
354.30 1.321276e-95
354.40 1.321276e-95
354.50 1.321276e-95
354.60 1.321276e-95
354.70 1.321276e-95
354.80 1.321276e-95
354.90 1.321276e-95
355.00 1.321276e-95
355.10 1.321276e-95
355.20 1.321276e-95
355.30 1.321276e-95
355.40 1.321276e-95
355.50 1.321276e-95
355.60 1.321276e-95
355.70 1.321276e-95
355.80 1.321276e-95
355.90 1.321276e-95
356.00 1.321276e-95
356.10 1.321276e-95
356.20 1.321276e-95
356.30 1.321276e-95
356.40 1.321276e-95
356.50 1.321276e-95
356.60 1.321276e-95
356.70 1.321276e-95
356.80 1.321276e-95
356.90 1.321276e-95
357.00 1.321276e-95
357.10 1.321276e-95
357.20 1.321276e-95
357.30 1.321276e-95
357.40 1.321276e-95
357.50 1.321276e-95
357.60 1.321276e-95
357.70 1.321276e-95
357.80 1.321276e-95
357.90 1.321276e-95
358.00 1.321276e-95
358.10 1.321276e-95
358.20 1.321276e-95
358.30 1.321276e-95
358.40 1.321276e-95
358.50 1.321276e-95
358.60 1.321276e-95
358.70 1.321276e-95
358.80 1.321276e-95
358.90 1.321276e-95
359.00 1.321276e-95
359.10 1.321276e-95
359.20 1.321276e-95
359.30 1.321276e-95
359.40 1.321276e-95
359.50 1.321276e-95
359.60 1.321276e-95
359.70 1.321276e-95
359.80 1.321276e-95
359.90 1.321276e-95
360.00 1.321276e-95
360.10 1.321276e-95
360.20 1.321276e-95
360.30 1.321276e-95
360.40 1.321276e-95
360.50 1.321276e-95
360.60 1.321276e-95
360.70 1.321276e-95
360.80 1.321276e-95
360.90 1.321276e-95
361.00 1.321276e-95
361.10 1.321276e-95
361.20 1.321276e-95
361.30 1.321276e-95
361.40 1.321276e-95
361.50 1.321276e-95
361.60 1.321276e-95
361.70 1.321276e-95
361.80 1.321276e-95
361.90 1.321276e-95
362.00 1.321276e-95
362.10 1.321276e-95
362.20 1.321276e-95
362.30 1.321276e-95
362.40 1.321276e-95
362.50 1.321276e-95
362.60 1.321276e-95
362.70 1.321276e-95
362.80 1.321276e-95
362.90 1.321276e-95
363.00 1.321276e-95
363.10 1.321276e-95
363.20 1.321276e-95
363.30 1.321276e-95
363.40 1.321276e-95
363.50 1.321276e-95
363.60 1.321276e-95
363.70 1.321276e-95
363.80 1.321276e-95
363.90 1.321276e-95
364.00 1.321276e-95
364.10 1.321276e-95
364.20 1.321276e-95
364.30 1.321276e-95
364.40 1.321276e-95
364.50 1.321276e-95
364.60 1.321276e-95
364.70 1.321276e-95
364.80 1.321276e-95
364.90 1.321276e-95
365.00 1.321276e-95
365.10 1.321276e-95
365.20 1.321276e-95
365.30 1.321276e-95
365.40 1.321276e-95
365.50 1.321276e-95
365.60 1.321276e-95
365.70 1.321276e-95
365.80 1.321276e-95
365.90 1.321276e-95
366.00 1.321276e-95
366.10 1.321276e-95
366.20 1.321276e-95
366.30 1.321276e-95
366.40 1.321276e-95
366.50 1.321276e-95
366.60 1.321276e-95
366.70 1.321276e-95
366.80 1.321276e-95
366.90 1.321276e-95
367.00 1.321276e-95
367.10 1.321276e-95
367.20 1.321276e-95
367.30 1.321276e-95
367.40 1.321276e-95
367.50 1.321276e-95
367.60 1.321276e-95
367.70 1.321276e-95
367.80 1.321276e-95
367.90 1.321276e-95
368.00 1.321276e-95
368.10 1.321276e-95
368.20 1.321276e-95
368.30 1.321276e-95
368.40 1.321276e-95
368.50 1.321276e-95
368.60 1.321276e-95
368.70 1.321276e-95
368.80 1.321276e-95
368.90 1.321276e-95
369.00 1.321276e-95
369.10 1.321276e-95
369.20 1.321276e-95
369.30 1.321276e-95
369.40 1.321276e-95
369.50 1.321276e-95
369.60 1.321276e-95
369.70 1.321276e-95
369.80 1.321276e-95
369.90 1.321276e-95
370.00 1.321276e-95
370.10 1.321276e-95
370.20 1.321276e-95
370.30 1.321276e-95
370.40 1.321276e-95
370.50 1.321276e-95
370.60 1.321276e-95
370.70 1.321276e-95
370.80 1.321276e-95
370.90 1.321276e-95
371.00 1.321276e-95
371.10 1.321276e-95
371.20 1.321276e-95
371.30 1.321276e-95
371.40 1.321276e-95
371.50 1.321276e-95
371.60 1.321276e-95
371.70 1.321276e-95
371.80 1.321276e-95
371.90 1.321276e-95
372.00 1.321276e-95
372.10 1.321276e-95
372.20 1.321276e-95
372.30 1.321276e-95
372.40 1.321276e-95
372.50 1.321276e-95
372.60 1.321276e-95
372.70 1.321276e-95
372.80 1.321276e-95
372.90 1.321276e-95
373.00 1.321276e-95
373.10 1.321276e-95
373.20 1.321276e-95
373.30 1.321276e-95
373.40 1.321276e-95
373.50 1.321276e-95
373.60 1.321276e-95
373.70 1.321276e-95
373.80 1.321276e-95
373.90 1.321276e-95
374.00 1.321276e-95
374.10 1.321276e-95
374.20 1.321276e-95
374.30 1.321276e-95
374.40 1.321276e-95
374.50 1.321276e-95
374.60 1.321276e-95
374.70 1.321276e-95
374.80 1.321276e-95
374.90 1.321276e-95
375.00 1.321276e-95
375.10 1.321276e-95
375.20 1.321276e-95
375.30 1.321276e-95
375.40 1.321276e-95
375.50 1.321276e-95
375.60 1.321276e-95
375.70 1.321276e-95
375.80 1.321276e-95
375.90 1.321276e-95
376.00 1.321276e-95
376.10 1.321276e-95
376.20 1.321276e-95
376.30 1.321276e-95
376.40 1.321276e-95
376.50 1.321276e-95
376.60 1.321276e-95
376.70 1.321276e-95
376.80 1.321276e-95
376.90 1.321276e-95
377.00 1.321276e-95
377.10 1.321276e-95
377.20 1.321276e-95
377.30 1.321276e-95
377.40 1.321276e-95
377.50 1.321276e-95
377.60 1.321276e-95
377.70 1.321276e-95
377.80 1.321276e-95
377.90 1.321276e-95
378.00 1.321276e-95
378.10 1.321276e-95
378.20 1.321276e-95
378.30 1.321276e-95
378.40 1.321276e-95
378.50 1.321276e-95
378.60 1.321276e-95
378.70 1.321276e-95
378.80 1.321276e-95
378.90 1.321276e-95
379.00 1.321276e-95
379.10 1.321276e-95
379.20 1.321276e-95
379.30 1.321276e-95
379.40 1.321276e-95
379.50 1.321276e-95
379.60 1.321276e-95
379.70 1.321276e-95
379.80 1.321276e-95
379.90 1.321276e-95
380.00 1.321276e-95
380.10 1.321276e-95
380.20 1.321276e-95
380.30 1.321276e-95
380.40 1.321276e-95
380.50 1.321276e-95
380.60 1.321276e-95
380.70 1.321276e-95
380.80 1.321276e-95
380.90 1.321276e-95
381.00 1.321276e-95
381.10 1.321276e-95
381.20 1.321276e-95
381.30 1.321276e-95
381.40 1.321276e-95
381.50 1.321276e-95
381.60 1.321276e-95
381.70 1.321276e-95
381.80 1.321276e-95
381.90 1.321276e-95
382.00 1.321276e-95
382.10 1.321276e-95
382.20 1.321276e-95
382.30 1.321276e-95
382.40 1.321276e-95
382.50 1.321276e-95
382.60 1.321276e-95
382.70 1.321276e-95
382.80 1.321276e-95
382.90 1.321276e-95
383.00 1.321276e-95
383.10 1.321276e-95
383.20 1.321276e-95
383.30 1.321276e-95
383.40 1.321276e-95
383.50 1.321276e-95
383.60 1.321276e-95
383.70 1.321276e-95
383.80 1.321276e-95
383.90 1.321276e-95
384.00 1.321276e-95
384.10 1.321276e-95
384.20 1.321276e-95
384.30 1.321276e-95
384.40 1.321276e-95
384.50 1.321276e-95
384.60 1.321276e-95
384.70 1.321276e-95
384.80 1.321276e-95
384.90 1.321276e-95
385.00 1.321276e-95
385.10 1.321276e-95
385.20 1.321276e-95
385.30 1.321276e-95
385.40 1.321276e-95
385.50 1.321276e-95
385.60 1.321276e-95
385.70 1.321276e-95
385.80 1.321276e-95
385.90 1.321276e-95
386.00 1.321276e-95
386.10 1.321276e-95
386.20 1.321276e-95
386.30 1.321276e-95
386.40 1.321276e-95
386.50 1.321276e-95
386.60 1.321276e-95
386.70 1.321276e-95
386.80 1.321276e-95
386.90 1.321276e-95
387.00 1.321276e-95
387.10 1.321276e-95
387.20 1.321276e-95
387.30 1.321276e-95
387.40 1.321276e-95
387.50 1.321276e-95
387.60 1.321276e-95
387.70 1.321276e-95
387.80 1.321276e-95
387.90 1.321276e-95
388.00 1.321276e-95
388.10 1.321276e-95
388.20 1.321276e-95
388.30 1.321276e-95
388.40 1.321276e-95
388.50 1.321276e-95
388.60 1.321276e-95
388.70 1.321276e-95
388.80 1.321276e-95
388.90 1.321276e-95
389.00 1.321276e-95
389.10 1.321276e-95
389.20 1.321276e-95
389.30 1.321276e-95
389.40 1.321276e-95
389.50 1.321276e-95
389.60 1.321276e-95
389.70 1.321276e-95
389.80 1.321276e-95
389.90 1.321276e-95
390.00 1.321276e-95
390.10 1.321276e-95
390.20 1.321276e-95
390.30 1.321276e-95
390.40 1.321276e-95
390.50 1.321276e-95
390.60 1.321276e-95
390.70 1.321276e-95
390.80 1.321276e-95
390.90 1.321276e-95
391.00 1.321276e-95
391.10 1.321276e-95
391.20 1.321276e-95
391.30 1.321276e-95
391.40 1.321276e-95
391.50 1.321276e-95
391.60 1.321276e-95
391.70 1.321276e-95
391.80 1.321276e-95
391.90 1.321276e-95
392.00 1.321276e-95
392.10 1.321276e-95
392.20 1.321276e-95
392.30 1.321276e-95
392.40 1.321276e-95
392.50 1.321276e-95
392.60 1.321276e-95
392.70 1.321276e-95
392.80 1.321276e-95
392.90 1.321276e-95
393.00 1.321276e-95
393.10 1.321276e-95
393.20 1.321276e-95
393.30 1.321276e-95
393.40 1.321276e-95
393.50 1.321276e-95
393.60 1.321276e-95
393.70 1.321276e-95
393.80 1.321276e-95
393.90 1.321276e-95
394.00 1.321276e-95
394.10 1.321276e-95
394.20 1.321276e-95
394.30 1.321276e-95
394.40 1.321276e-95
394.50 1.321276e-95
394.60 1.321276e-95
394.70 1.321276e-95
394.80 1.321276e-95
394.90 1.321276e-95
395.00 1.308064e-95
395.10 1.294851e-95
395.20 1.281638e-95
395.30 1.268425e-95
395.40 1.255213e-95
395.50 1.242e-95
395.60 1.228787e-95
395.70 1.215574e-95
395.80 1.202362e-95
395.90 1.189149e-95
396.00 1.175936e-95
396.10 1.162723e-95
396.20 0.003299933
396.30 0.009534368
396.40 0.01489849
396.50 0.01610817
396.60 0.01610817
396.70 0.01610817
396.80 0.01610817
396.90 0.01610817
397.00 0.01610817
397.10 0.01610817
397.20 0.01610817
397.30 0.01610817
397.40 0.01610817
397.50 0.01610817
397.60 0.01610817
397.70 0.01610817
397.80 0.01670184
397.90 0.03964501
398.00 0.08108354
398.10 0.1324899
398.20 0.18433
398.30 0.2280371
398.40 0.2561203
398.50 0.2650725
398.60 0.2650725
398.70 0.2650725
398.80 0.2650725
398.90 0.2665376
399.00 0.287544
399.10 0.328079
399.20 0.3833011
399.30 0.4463375
399.40 0.511449
399.50 0.5754963
399.60 0.6367859
399.70 0.6956673
399.80 0.7557537
399.90 0.8211182
400.00 0.8929544
400.10 0.9677789
400.20 1.03913
400.30 1.101089
400.40 1.150983
400.50 1.18978
400.60 1.220127
400.70 1.246316
400.80 1.273197
400.90 1.303538
401.00 1.33812
401.10 1.376341
401.20 1.415835
401.30 1.452168
401.40 1.480185
401.50 1.496294
401.60 1.49967
401.70 1.49967
401.80 1.49967
401.90 1.49967
402.00 1.49967
402.10 1.49967
402.20 1.49967
402.30 1.49967
402.40 1.500506
402.50 1.526603
402.60 1.579423
402.70 1.655818
402.80 1.750341
402.90 1.855684
403.00 1.961736
403.10 2.060159
403.20 2.147218
403.30 2.221016
403.40 2.280047
403.50 2.324307
403.60 2.355875
403.70 2.376584
403.80 2.385247
403.90 2.385247
404.00 2.385247
404.10 2.385247
404.20 2.385247
404.30 2.385247
404.40 2.385247
404.50 2.385247
404.60 2.385247
404.70 2.385247
404.80 2.385247
404.90 2.385247
405.00 2.385247
405.10 2.385247
405.20 2.385247
405.30 2.385247
405.40 2.385247
405.50 2.385247
405.60 2.386628
405.70 2.39274
405.80 2.403245
405.90 2.41718
406.00 2.432216
406.10 2.444767
406.20 2.447849
406.30 2.441614
406.40 2.43625
406.50 2.43504
406.60 2.43504
406.70 2.43504
406.80 2.43504
406.90 2.43504
407.00 2.43504
407.10 2.43504
407.20 2.43504
407.30 2.43504
407.40 2.43504
407.50 2.435735
407.60 2.43733
407.70 2.43733
407.80 2.436736
407.90 2.413793
408.00 2.372354
408.10 2.320948
408.20 2.269108
408.30 2.225401
408.40 2.197318
408.50 2.188365
408.60 2.188365
408.70 2.188365
408.80 2.193847
408.90 2.206349
409.00 2.204418
409.10 2.185101
409.20 2.151555
409.30 2.108538
409.40 2.059465
409.50 2.005654
409.60 1.946934
409.70 1.888053
409.80 1.827966
409.90 1.762602
410.00 1.690766
410.10 1.615941
410.20 1.54459
410.30 1.482631
410.40 1.441647
410.50 1.425518
410.60 1.428743
410.70 1.442079
410.80 1.45667
410.90 1.465749
411.00 1.464689
411.10 1.452765
411.20 1.434112
411.30 1.415698
411.40 1.404576
411.50 1.406233
411.60 1.422503
411.70 1.442059
411.80 1.457724
411.90 1.46593
412.00 1.46593
412.10 1.46593
412.20 1.46593
412.30 1.46593
412.40 1.465094
412.50 1.438996
412.60 1.386177
412.70 1.309781
412.80 1.215259
412.90 1.114624
413.00 1.02105
413.10 0.9416581
413.20 0.8782469
413.30 0.8299173
413.40 0.7943413
413.50 0.7679969
413.60 0.7462824
413.70 0.7255736
413.80 0.7169105
413.90 0.7169105
414.00 0.7169105
414.10 0.7169105
414.20 0.7169105
414.30 0.7169105
414.40 0.7169105
414.50 0.7169105
414.60 0.7169105
414.70 0.7175792
414.80 0.7175792
414.90 0.7175792
415.00 0.7175792
415.10 0.7175792
415.20 0.7175792
415.30 0.7175792
415.40 0.7175792
415.50 0.7175792
415.60 0.7161984
415.70 0.7100866
415.80 0.699582
415.90 0.6856467
416.00 0.6732481
416.10 0.6656551
416.20 0.6624247
416.30 0.6624247
416.40 0.6624247
416.50 0.6624247
416.60 0.6624247
416.70 0.6624247
416.80 0.6624247
416.90 0.6624247
417.00 0.6624247
417.10 0.6624247
417.20 0.6624247
417.30 0.6624247
417.40 0.6624247
417.50 0.6617301
417.60 0.6708818
417.70 0.6941188
417.80 0.7269802
417.90 0.7659591
418.00 0.8067795
418.10 0.8451266
418.20 0.8788375
418.30 0.9102724
418.40 0.9456651
418.50 0.9913271
418.60 1.051163
418.70 1.125045
418.80 1.202341
418.90 1.271213
419.00 1.326345
419.10 1.364317
419.20 1.382542
419.30 1.380263
419.40 1.364225
419.50 1.353988
419.60 1.351419
419.70 1.351419
419.80 1.351419
419.90 1.351419
420.00 1.351419
420.10 1.351419
420.20 1.351419
420.30 1.351639
420.40 1.353854
420.50 1.348219
420.60 1.328952
420.70 1.293647
420.80 1.252174
420.90 1.212754
421.00 1.179232
421.10 1.152935
421.20 1.132094
421.30 1.114176
421.40 1.09728
421.50 1.086926
421.60 1.08789
421.70 1.095633
421.80 1.106455
421.90 1.118525
422.00 1.130677
422.10 1.134657
422.20 1.134657
422.30 1.134657
422.40 1.134657
422.50 1.134657
422.60 1.134657
422.70 1.134657
422.80 1.134657
422.90 1.129949
423.00 1.117471
423.10 1.09844
423.20 1.074792
423.30 1.049905
423.40 1.032165
423.50 1.023092
423.60 1.025085
423.70 1.042416
423.80 1.068051
423.90 1.103137
424.00 1.147188
424.10 1.197808
424.20 1.249947
424.30 1.296933
424.40 1.332879
424.50 1.354664
424.60 1.362205
424.70 1.361536
424.80 1.361536
424.90 1.361536
425.00 1.361536
425.10 1.361536
425.20 1.361536
425.30 1.361536
425.40 1.361536
425.50 1.361536
425.60 1.361536
425.70 1.361536
425.80 1.361536
425.90 1.361536
426.00 1.358898
426.10 1.35394
426.20 1.350789
426.30 1.353545
426.40 1.363016
426.50 1.377602
426.60 1.39557
426.70 1.414324
426.80 1.430746
426.90 1.441996
427.00 1.444937
427.10 1.444937
427.20 1.444937
427.30 1.444937
427.40 1.444937
427.50 1.444937
427.60 1.434191
427.70 1.418197
427.80 1.411832
427.90 1.414713
428.00 1.424811
428.10 1.438195
428.20 1.448879
428.30 1.449026
428.40 1.431126
428.50 1.392098
428.60 1.333196
428.70 1.259315
428.80 1.17867
428.90 1.101536
429.00 1.034594
429.10 0.9817935
429.20 0.9471975
429.30 0.9346314
429.40 0.9403468
429.50 0.9475583
429.60 0.9569712
429.70 0.9679402
429.80 0.979712
429.90 0.991945
430.00 1.00348
430.10 1.012591
430.20 1.017832
430.30 1.019796
430.40 1.010321
430.50 0.9955863
430.60 0.9828389
430.70 0.9786197
430.80 0.9786197
430.90 0.9786197
431.00 0.9786197
431.10 0.9786197
431.20 0.9786197
431.30 0.9786197
431.40 0.9786197
431.50 0.9712081
431.60 0.9505975
431.70 0.9232981
431.80 0.8983537
431.90 0.8823031
432.00 0.876922
432.10 0.8819384
432.20 0.892052
432.30 0.9012924
432.40 0.9077129
432.50 0.9103087
432.60 0.9103087
432.70 0.9103087
432.80 0.9103087
432.90 0.9103087
433.00 0.9103087
433.10 0.9103087
433.20 0.9103087
433.30 0.9097272
433.40 0.9040126
433.50 0.8951703
433.60 0.8840804
433.70 0.874859
433.80 0.8621648
433.90 0.8430906
434.00 0.8175358
434.10 0.7887932
434.20 0.7638846
434.30 0.7510507
434.40 0.7564392
434.50 0.7820565
434.60 0.8259773
434.70 0.878562
434.80 0.9291678
434.90 0.9761255
435.00 1.019465
435.10 1.060843
435.20 1.102791
435.30 1.146867
435.40 1.192562
435.50 1.23681
435.60 1.274656
435.70 1.301135
435.80 1.313141
435.90 1.313141
436.00 1.313141
436.10 1.313141
436.20 1.313141
436.30 1.310385
436.40 1.300914
436.50 1.286328
436.60 1.26836
436.70 1.249605
436.80 1.233184
436.90 1.221934
437.00 1.218993
437.10 1.218993
437.20 1.218993
437.30 1.218993
437.40 1.218993
437.50 1.218993
437.60 1.218993
437.70 1.214926
437.80 1.200787
437.90 1.180045
438.00 1.157042
438.10 1.136104
438.20 1.120296
438.30 1.110412
438.40 1.103924
438.50 1.09729
438.60 1.096355
438.70 1.096355
438.80 1.094222
438.90 1.088517
439.00 1.081252
439.10 1.074863
439.20 1.069558
439.30 1.064383
439.40 1.058667
439.50 1.051456
439.60 1.043946
439.70 1.040099
439.80 1.038536
439.90 1.037375
440.00 1.035168
440.10 1.031765
440.20 1.028493
440.30 1.02647
440.40 1.025649
440.50 1.025447
440.60 1.026661
440.70 1.029517
440.80 1.031089
440.90 1.031089
441.00 1.031089
441.10 1.031089
441.20 1.031089
441.30 1.031089
441.40 1.031089
441.50 1.031089
441.60 1.031089
441.70 1.031089
441.80 1.036327
441.90 1.047225
442.00 1.061429
442.10 1.076198
442.20 1.090296
442.30 1.104908
442.40 1.121636
442.50 1.140681
442.60 1.160438
442.70 1.179456
442.80 1.19861
442.90 1.217821
443.00 1.237569
443.10 1.258003
443.20 1.278555
443.30 1.29862
443.40 1.317046
443.50 1.33318
443.60 1.346342
443.70 1.349085
443.80 1.342591
443.90 1.327597
444.00 1.309101
444.10 1.287223
444.20 1.259993
444.30 1.225841
444.40 1.184507
444.50 1.137104
444.60 1.08758
444.70 1.052459
444.80 1.035999
444.90 1.036885
445.00 1.04837
445.10 1.061498
445.20 1.067254
445.30 1.058769
445.40 1.034506
445.50 0.9995519
445.60 0.9632973
445.70 0.9368178
445.80 0.9249034
445.90 0.9286618
446.00 0.9374179
446.10 0.9504889
446.20 0.9644375
446.30 0.975732
446.40 0.982091
446.50 0.982091
446.60 0.982091
446.70 0.982091
446.80 0.982091
446.90 0.982091
447.00 0.982091
447.10 0.9868414
447.20 1.000759
447.30 1.025255
447.40 1.06098
447.50 1.108398
447.60 1.167719
447.70 1.234575
447.80 1.299929
447.90 1.359763
448.00 1.411077
448.10 1.452931
448.20 1.485896
448.30 1.511059
448.40 1.531378
448.50 1.549841
448.60 1.559817
448.70 1.565547
448.80 1.569805
448.90 1.572782
449.00 1.572782
449.10 1.572782
449.20 1.572782
449.30 1.572782
449.40 1.572782
449.50 1.572782
449.60 1.570879
449.70 1.563757
449.80 1.553548
449.90 1.542477
450.00 1.533149
450.10 1.52744
450.20 1.525472
450.30 1.52531
450.40 1.524482
450.50 1.525474
450.60 1.536991
450.70 1.558438
450.80 1.587734
450.90 1.621648
451.00 1.655638
451.10 1.686771
451.20 1.713453
451.30 1.736715
451.40 1.760181
451.50 1.788798
451.60 1.826481
451.70 1.873749
451.80 1.920693
451.90 1.961032
452.00 1.992305
452.10 2.013784
452.20 2.02639
452.30 2.031403
452.40 2.031446
452.50 2.031128
452.60 2.034141
452.70 2.04085
452.80 2.049933
452.90 2.059849
453.00 2.067786
453.10 2.070174
453.20 2.064499
453.30 2.050389
453.40 2.031963
453.50 2.015828
453.60 2.001908
453.70 1.994185
453.80 1.995763
453.90 2.005735
454.00 2.017267
454.10 2.027844
454.20 2.036336
454.30 2.040947
454.40 2.040947
454.50 2.040947
454.60 2.039009
454.70 2.021546
454.80 1.9874
454.90 1.944191
455.00 1.901293
455.10 1.867072
455.20 1.848654
455.30 1.850677
455.40 1.871117
455.50 1.90046
455.60 1.92672
455.70 1.938016
455.80 1.937925
455.90 1.934167
456.00 1.92541
456.10 1.912339
456.20 1.898391
456.30 1.887096
456.40 1.880737
456.50 1.880737
456.60 1.880737
456.70 1.880737
456.80 1.880737
456.90 1.880737
457.00 1.882976
457.10 1.887476
457.20 1.886698
457.30 1.876829
457.40 1.854942
457.50 1.818456
457.60 1.76538
457.70 1.695348
457.80 1.617636
457.90 1.536685
458.00 1.457455
458.10 1.384808
458.20 1.323256
458.30 1.276395
458.40 1.245072
458.50 1.226608
458.60 1.216632
458.70 1.210903
458.80 1.206644
458.90 1.203667
459.00 1.203667
459.10 1.203667
459.20 1.203667
459.30 1.203667
459.40 1.203667
459.50 1.207569
459.60 1.213936
459.70 1.220274
459.80 1.2239
459.90 1.2239
460.00 1.2239
460.10 1.2239
460.20 1.2239
460.30 1.2239
460.40 1.2239
460.50 1.220907
460.60 1.215818
460.70 1.207732
460.80 1.196586
460.90 1.181783
461.00 1.162699
461.10 1.139709
461.20 1.113027
461.30 1.089765
461.40 1.066299
461.50 1.037682
461.60 0.999999
461.70 0.9527309
461.80 0.8990067
461.90 0.8435444
462.00 0.7912968
462.10 0.7460521
462.20 0.7092337
462.30 0.680393
462.40 0.6647249
462.50 0.6552864
462.60 0.64464
462.70 0.6281095
462.80 0.6054265
462.90 0.5811607
463.00 0.5626842
463.10 0.5575543
463.20 0.5712261
463.30 0.6055282
463.40 0.6564698
463.50 0.7147636
463.60 0.7749175
463.70 0.8271731
463.80 0.8639699
463.90 0.8846946
464.00 0.8936456
464.10 0.8971656
464.20 0.9016134
464.30 0.9128996
464.40 0.9355052
464.50 0.9676176
464.60 1.009119
464.70 1.056942
464.80 1.106701
464.90 1.149216
465.00 1.178009
465.10 1.189954
465.20 1.184487
465.30 1.163997
465.40 1.134659
465.50 1.105884
465.60 1.08708
465.70 1.084825
465.80 1.093566
465.90 1.102801
466.00 1.114139
466.10 1.128394
466.20 1.145212
466.30 1.164063
466.40 1.184825
466.50 1.207022
466.60 1.229944
466.70 1.252963
466.80 1.27573
466.90 1.297882
467.00 1.316131
467.10 1.325239
467.20 1.32836
467.30 1.326834
467.40 1.32235
467.50 1.318845
467.60 1.320946
467.70 1.331819
467.80 1.345137
467.90 1.359459
468.00 1.372635
468.10 1.383621
468.20 1.392336
468.30 1.3987
468.40 1.40314
468.50 1.406096
468.60 1.407017
468.70 1.407017
468.80 1.407017
468.90 1.407017
469.00 1.407017
469.10 1.407017
469.20 1.407017
469.30 1.407017
469.40 1.407017
469.50 1.403116
469.60 1.396749
469.70 1.394264
469.80 1.396938
469.90 1.402605
470.00 1.405703
470.10 1.406372
470.20 1.406372
470.30 1.406372
470.40 1.406936
470.50 1.407997
470.60 1.399775
470.70 1.383798
470.80 1.364076
470.90 1.344965
471.00 1.330059
471.10 1.321916
471.20 1.32211
471.30 1.323899
471.40 1.32753
471.50 1.333435
471.60 1.342342
471.70 1.354917
471.80 1.371096
471.90 1.390181
472.00 1.410827
472.10 1.431319
472.20 1.449506
472.30 1.462991
472.40 1.462443
472.50 1.450558
472.60 1.438435
472.70 1.429238
472.80 1.423684
472.90 1.418823
473.00 1.409615
473.10 1.393304
473.20 1.369783
473.30 1.337527
473.40 1.297441
473.50 1.25353
473.60 1.211975
473.70 1.180141
473.80 1.164639
473.90 1.168768
474.00 1.190094
474.10 1.219825
474.20 1.246958
474.30 1.262941
474.40 1.262014
474.50 1.2408
474.60 1.200088
474.70 1.152265
474.80 1.102505
474.90 1.055356
475.00 1.014636
475.10 0.9876221
475.20 0.9763262
475.30 0.9773651
475.40 0.9847727
475.50 0.9934187
475.60 0.9995558
475.70 1.000842
475.80 0.9966748
475.90 0.9874401
476.00 0.9761018
476.10 0.961847
476.20 0.9450287
476.30 0.9261781
476.40 0.9075961
476.50 0.8893007
476.60 0.8698567
476.70 0.8475401
476.80 0.8247733
476.90 0.8026214
477.00 0.7821335
477.10 0.7637751
477.20 0.7475141
477.30 0.7344146
477.40 0.7260414
477.50 0.7263457
477.60 0.7328081
477.70 0.7425992
477.80 0.7532955
477.90 0.7642424
478.00 0.7765618
478.10 0.7913244
478.20 0.8085833
478.30 0.8276323
478.40 0.8482108
478.50 0.870666
478.60 0.8952813
478.70 0.9190635
478.80 0.9388315
478.90 0.9527558
479.00 0.9592887
479.10 0.9592887
479.20 0.9592887
479.30 0.9592887
479.40 0.9592887
479.50 0.9592887
479.60 0.9592887
479.70 0.9554351
479.80 0.9491357
479.90 0.943468
480.00 0.9403703
480.10 0.9397014
480.20 0.9397014
480.30 0.9406613
480.40 0.9479627
480.50 0.9588914
480.60 0.9713084
480.70 0.9825915
480.80 0.9891149
480.90 0.9891161
481.00 0.9891161
481.10 0.9891161
481.20 0.9889227
481.30 0.9871341
481.40 0.9835029
481.50 0.9775972
481.60 0.9707021
481.70 0.9641993
481.80 0.9554283
481.90 0.9409272
482.00 0.9202809
482.10 0.8997886
482.20 0.8816017
482.30 0.8680932
482.40 0.8611178
482.50 0.8611178
482.60 0.8611178
482.70 0.8611178
482.80 0.8611178
482.90 0.8611178
483.00 0.8611178
483.10 0.8597364
483.20 0.8547084
483.30 0.8467086
483.40 0.8358529
483.50 0.8214701
483.60 0.8028706
483.70 0.7797973
483.80 0.7589441
483.90 0.7365461
484.00 0.7086379
484.10 0.6745339
484.20 0.6367839
484.30 0.6049041
484.40 0.5832255
484.50 0.5723269
484.60 0.5715379
484.70 0.5715379
484.80 0.5715379
484.90 0.5723204
485.00 0.580277
485.10 0.5876844
485.20 0.5908293
485.30 0.5901598
485.40 0.5871705
485.50 0.582754
485.60 0.5776316
485.70 0.5733402
485.80 0.5718762
485.90 0.5733928
486.00 0.5739952
486.10 0.5739952
486.20 0.5739952
486.30 0.5739952
486.40 0.571815
486.50 0.5679131
486.60 0.5644355
486.70 0.5637324
486.80 0.5637324
486.90 0.5637324
487.00 0.5637324
487.10 0.5674857
487.20 0.582612
487.30 0.6071792
487.40 0.637287
487.50 0.6648268
487.60 0.6886871
487.70 0.7102085
487.80 0.731784
487.90 0.7539542
488.00 0.7748937
488.10 0.7919345
488.20 0.8029128
488.30 0.8061881
488.40 0.7990458
488.50 0.7792743
488.60 0.7537381
488.70 0.7299558
488.80 0.7101878
488.90 0.6962635
489.00 0.6897306
489.10 0.694181
489.20 0.7046174
489.30 0.7172929
489.40 0.7275969
489.50 0.7308976
489.60 0.7308976
489.70 0.7308976
489.80 0.7308976
489.90 0.7308976
490.00 0.7308976
490.10 0.7308976
490.20 0.7308976
490.30 0.7300695
490.40 0.7312931
490.50 0.7343846
490.60 0.7384961
490.70 0.7438793
490.80 0.7531561
490.90 0.769217
491.00 0.7867908
491.10 0.8069624
491.20 0.8307894
491.30 0.8580622
491.40 0.8872011
491.50 0.9158742
491.60 0.9394591
491.70 0.9535247
491.80 0.9595194
491.90 0.9621626
492.00 0.9648309
492.10 0.9648309
492.20 0.9648309
492.30 0.9648309
492.40 0.9667877
492.50 0.9728278
492.60 0.9820245
492.70 0.9928186
492.80 1.004017
492.90 1.015544
493.00 1.028273
493.10 1.043059
493.20 1.060208
493.30 1.079451
493.40 1.100454
493.50 1.12384
493.60 1.150663
493.70 1.180291
493.80 1.203529
493.90 1.220994
494.00 1.235014
494.10 1.248723
494.20 1.264112
494.30 1.274516
494.40 1.276553
494.50 1.276553
494.60 1.276553
494.70 1.276553
494.80 1.276553
494.90 1.275771
495.00 1.267814
495.10 1.255191
495.20 1.239523
495.30 1.22203
495.40 1.205079
495.50 1.190987
495.60 1.180925
495.70 1.174888
495.80 1.171779
495.90 1.173998
496.00 1.184209
496.10 1.201868
496.20 1.225249
496.30 1.252282
496.40 1.279511
496.50 1.302891
496.60 1.319165
496.70 1.326378
496.80 1.326378
496.90 1.326378
497.00 1.326378
497.10 1.322625
497.20 1.307498
497.30 1.282931
497.40 1.251842
497.50 1.216571
497.60 1.177902
497.70 1.138752
497.80 1.101566
497.90 1.065883
498.00 1.032266
498.10 1.001898
498.20 0.9759991
498.30 0.9566935
498.40 0.9468052
498.50 0.9488779
498.60 0.9577651
498.70 0.9687394
498.80 0.9817016
498.90 0.9957552
499.00 1.009414
499.10 1.016121
499.20 1.012438
499.30 1.001591
499.40 0.9912866
499.50 0.9879858
499.60 0.9879858
499.70 0.9879858
499.80 0.9879858
499.90 0.9913878
500.00 1
500.10 1.013912
500.20 1.031679
500.30 1.049925
500.40 1.05621
500.50 1.050402
500.60 1.033824
500.70 1.016918
500.80 1.001118
500.90 0.9850554
501.00 0.9674816
501.10 0.94731
501.20 0.9234831
501.30 0.8962102
501.40 0.8670713
501.50 0.8383982
501.60 0.8134412
501.70 0.7975146
501.80 0.7912607
501.90 0.7936887
502.00 0.8027385
502.10 0.8155003
502.20 0.8288969
502.30 0.843176
502.40 0.8563446
502.50 0.8659496
502.60 0.8721845
502.70 0.8763034
502.80 0.8795015
502.90 0.880654
503.00 0.8773255
503.10 0.8679184
503.20 0.8514499
503.30 0.8322064
503.40 0.8112031
503.50 0.7878177
503.60 0.7609942
503.70 0.7308888
503.80 0.6991843
503.90 0.6701886
504.00 0.6478284
504.10 0.6301991
504.20 0.615806
504.30 0.6054023
504.40 0.6033651
504.50 0.6033651
504.60 0.6033651
504.70 0.6033651
504.80 0.6033651
504.90 0.6033651
505.00 0.6033651
505.10 0.603737
505.20 0.603737
505.30 0.603737
505.40 0.603737
505.50 0.603737
505.60 0.603737
505.70 0.603737
505.80 0.603737
505.90 0.6000015
506.00 0.5891876
506.10 0.5735133
506.20 0.5599589
506.30 0.5482596
506.40 0.5385827
506.50 0.5323333
506.60 0.530894
506.70 0.5349515
506.80 0.542243
506.90 0.5463155
507.00 0.5492147
507.10 0.5534625
507.20 0.5608661
507.30 0.5716173
507.40 0.5843599
507.50 0.596786
507.60 0.6069234
507.70 0.6114337
507.80 0.6089463
507.90 0.6022364
508.00 0.5932828
508.10 0.582458
508.20 0.5714039
508.30 0.5620209
508.40 0.5540332
508.50 0.5463209
508.60 0.5374337
508.70 0.5264594
508.80 0.5134971
508.90 0.4994436
509.00 0.485785
509.10 0.4746277
509.20 0.4678738
509.30 0.466046
509.40 0.466046
509.50 0.466046
509.60 0.466046
509.70 0.466046
509.80 0.466046
509.90 0.462644
510.00 0.4540318
510.10 0.4401199
510.20 0.422353
510.30 0.4039748
510.40 0.3886014
510.50 0.3821038
510.60 0.3922909
510.70 0.4089656
510.80 0.4278771
510.90 0.4455939
511.00 0.4585223
511.10 0.4640959
511.20 0.4640959
511.30 0.4640959
511.40 0.4640959
511.50 0.4640959
511.60 0.4634567
511.70 0.4592456
511.80 0.4531369
511.90 0.4475795
512.00 0.4415642
512.10 0.4352352
512.20 0.4283283
512.30 0.4200907
512.40 0.4104835
512.50 0.3994976
512.60 0.3864978
512.70 0.3715848
512.80 0.3571882
512.90 0.3445092
513.00 0.3351083
513.10 0.3297293
513.20 0.3290493
513.30 0.3290493
513.40 0.3290493
513.50 0.3290493
513.60 0.3376112
513.70 0.352733
513.80 0.3717213
513.90 0.3906992
514.00 0.4066487
514.10 0.4223193
514.20 0.4405942
514.30 0.463093
514.40 0.4870064
514.50 0.5121871
514.60 0.5382635
514.70 0.5649003
514.80 0.5915594
514.90 0.6173208
515.00 0.641473
515.10 0.6640828
515.20 0.6866591
515.30 0.7092234
515.40 0.7324207
515.50 0.7572039
515.60 0.7839248
515.70 0.811784
515.80 0.8403535
515.90 0.8706181
516.00 0.9033467
516.10 0.9360778
516.20 0.9619182
516.30 0.9820509
516.40 0.9981363
516.50 1.010111
516.60 1.016756
516.70 1.017794
516.80 1.014284
516.90 1.010212
517.00 1.007313
517.10 1.003065
517.20 0.9976102
517.30 0.9953662
517.40 0.9966062
517.50 1.001362
517.60 1.008685
517.70 1.016435
517.80 1.022945
517.90 1.028504
518.00 1.034359
518.10 1.041171
518.20 1.047229
518.30 1.049894
518.40 1.049894
518.50 1.049894
518.60 1.049894
518.70 1.049894
518.80 1.049894
518.90 1.049894
519.00 1.054667
519.10 1.068746
519.20 1.091808
519.30 1.121631
519.40 1.155153
519.50 1.189844
519.60 1.222855
519.70 1.251069
519.80 1.272251
519.90 1.285553
520.00 1.29097
520.10 1.29097
520.20 1.29097
520.30 1.29097
520.40 1.29097
520.50 1.288097
520.60 1.276982
520.70 1.260307
520.80 1.241396
520.90 1.223679
521.00 1.210751
521.10 1.20559
521.20 1.208158
521.30 1.212894
521.40 1.219264
521.50 1.226033
521.60 1.231465
521.70 1.234662
521.80 1.234953
521.90 1.231835
522.00 1.228535
522.10 1.22661
522.20 1.226019
522.30 1.225958
522.40 1.224938
522.50 1.222138
522.60 1.219706
522.70 1.219706
522.80 1.220089
522.90 1.224328
523.00 1.233886
523.10 1.247878
523.20 1.263163
523.30 1.276162
523.40 1.284931
523.50 1.290355
523.60 1.286598
523.70 1.278689
523.80 1.272398
523.90 1.27307
524.00 1.284348
524.10 1.305286
524.20 1.329788
524.30 1.349373
524.40 1.357151
524.50 1.349944
524.60 1.327911
524.70 1.301275
524.80 1.274615
524.90 1.248854
525.00 1.224702
525.10 1.20172
525.20 1.179144
525.30 1.15658
525.40 1.133382
525.50 1.108599
525.60 1.081878
525.70 1.057156
525.80 1.039296
525.90 1.025163
526.00 1.01038
526.10 0.9924632
526.20 0.970145
526.30 0.9426587
526.40 0.911598
526.50 0.882494
526.60 0.8611591
526.70 0.8523536
526.80 0.8574348
526.90 0.8720489
527.00 0.890915
527.10 0.9107012
527.20 0.9252284
527.30 0.927446
527.40 0.9181085
527.50 0.9009271
527.60 0.8834662
527.70 0.8681703
527.80 0.8557439
527.90 0.8451392
528.00 0.835419
528.10 0.8270113
528.20 0.8210277
528.30 0.8199967
528.40 0.82242
528.50 0.8250805
528.60 0.8283119
528.70 0.8326915
528.80 0.8388224
528.90 0.8479735
529.00 0.8564142
529.10 0.859782
529.20 0.8589828
529.30 0.8566275
529.40 0.8552619
529.50 0.8567683
529.60 0.8631659
529.70 0.8760637
529.80 0.8957865
529.90 0.9214381
530.00 0.9514075
530.10 0.9822378
530.20 1.00802
530.30 1.027723
530.40 1.040286
530.50 1.045541
530.60 1.045541
530.70 1.045541
530.80 1.045541
530.90 1.045541
531.00 1.045541
531.10 1.045128
531.20 1.04256
531.30 1.037824
531.40 1.031454
531.50 1.026507
531.60 1.024284
531.70 1.025247
531.80 1.029178
531.90 1.034724
532.00 1.039868
532.10 1.043047
532.20 1.043771
532.30 1.042503
532.40 1.040413
532.50 1.038599
532.60 1.038599
532.70 1.038599
532.80 1.038216
532.90 1.034288
533.00 1.02852
533.10 1.022481
533.20 1.019385
533.30 1.021876
533.40 1.030358
533.50 1.04215
533.60 1.052663
533.70 1.056827
533.80 1.050889
533.90 1.032709
534.00 1.00151
534.10 0.9601479
534.20 0.9153401
534.30 0.8751749
534.40 0.8463331
534.50 0.8319251
534.60 0.831693
534.70 0.8356391
534.80 0.8396096
534.90 0.8436169
535.00 0.8481045
535.10 0.8539751
535.20 0.8614065
535.30 0.8698809
535.40 0.8789829
535.50 0.8883669
535.60 0.898291
535.70 0.9061888
535.80 0.9079737
535.90 0.9060234
536.00 0.9039981
536.10 0.9043523
536.20 0.9081111
536.30 0.9152174
536.40 0.9234959
536.50 0.9280204
536.60 0.9278745
536.70 0.9243719
536.80 0.9155087
536.90 0.9008946
537.00 0.8820285
537.10 0.8622423
537.20 0.8457662
537.30 0.8350414
537.40 0.8303963
537.50 0.8303963
537.60 0.8303963
537.70 0.8303963
537.80 0.8303963
537.90 0.8303963
538.00 0.8303963
538.10 0.8303963
538.20 0.8303218
538.30 0.8286881
538.40 0.8262649
538.50 0.8236043
538.60 0.8203729
538.70 0.8159933
538.80 0.8098625
538.90 0.8007113
539.00 0.7874972
539.10 0.773036
539.20 0.7577029
539.30 0.7406735
539.40 0.7229319
539.50 0.7057833
539.60 0.6904408
539.70 0.6781091
539.80 0.6689656
539.90 0.6620768
540.00 0.6571375
540.10 0.6547399
540.20 0.6555887
540.30 0.6609593
540.40 0.6714617
540.50 0.6864075
540.60 0.7034355
540.70 0.7176476
540.80 0.730138
540.90 0.7421243
541.00 0.7541069
541.10 0.7663293
541.20 0.779327
541.30 0.7932134
541.40 0.8075831
541.50 0.8199306
541.60 0.829952
541.70 0.8369
541.80 0.8398759
541.90 0.8388575
542.00 0.8339768
542.10 0.82629
542.20 0.8196678
542.30 0.8149547
542.40 0.8125468
542.50 0.8125023
542.60 0.8125023
542.70 0.8125023
542.80 0.8125023
542.90 0.8121905
543.00 0.8084009
543.10 0.8004481
543.20 0.7882583
543.30 0.7727686
543.40 0.7555179
543.50 0.7431175
543.60 0.7410196
543.70 0.7504109
543.80 0.7710559
543.90 0.8011965
544.00 0.8386287
544.10 0.8806755
544.20 0.924062
544.30 0.9662019
544.40 1.005741
544.50 1.042136
544.60 1.075729
544.70 1.107135
544.80 1.136898
544.90 1.165664
545.00 1.194334
545.10 1.223885
545.20 1.25479
545.30 1.285801
545.40 1.313985
545.50 1.336489
545.60 1.35174
545.70 1.359225
545.80 1.358592
545.90 1.349994
546.00 1.33514
546.10 1.317987
546.20 1.300879
546.30 1.285792
546.40 1.274937
546.50 1.270413
546.60 1.270413
546.70 1.270413
546.80 1.270413
546.90 1.270413
547.00 1.270413
547.10 1.270413
547.20 1.270413
547.30 1.270413
547.40 1.270413
547.50 1.270413
547.60 1.270413
547.70 1.270413
547.80 1.270413
547.90 1.270413
548.00 1.270413
548.10 1.270413
548.20 1.270413
548.30 1.270413
548.40 1.270413
548.50 1.270413
548.60 1.270413
548.70 1.270413
548.80 1.270413
548.90 1.270413
549.00 1.270413
549.10 1.267427
549.20 1.260498
549.30 1.250059
549.40 1.235644
549.50 1.216596
549.60 1.192529
549.70 1.16375
549.80 1.131988
549.90 1.099923
550.00 1.924945
550.10 1.924945
550.20 1.924945
550.30 1.924945
550.40 1.924945
550.50 1.912906
550.60 1.879857
550.70 1.827936
550.80 1.759426
550.90 1.675615
551.00 1.578059
551.10 1.470318
551.20 1.35863
551.30 1.248484
551.40 1.142512
551.50 1.042609
551.60 0.9490984
551.70 0.860719
551.80 0.7763856
551.90 0.6944528
552.00 0.6115574
552.10 0.5230041
552.20 0.4271625
552.30 0.3284494
552.40 0.2352341
552.50 0.155515
552.60 0.0925765
552.70 0.04627622
552.80 0.01662145
552.90 0.002662815
553.00 0
553.10 0.005037583
553.20 0.02955455
553.30 0.06874827
553.40 0.1180736
553.50 0.1739864
553.60 0.2350345
553.70 0.300516
553.80 0.3695447
553.90 0.4408794
554.00 0.5119684
554.10 0.5793635
554.20 0.6400997
554.30 0.691176
554.40 0.7304826
554.50 0.7590815
554.60 0.77969
554.70 0.7947351
554.80 0.8062236
554.90 0.8159349
555.00 0.8235221
555.10 0.8235221
555.20 0.8235221
555.30 0.8235221
555.40 0.8235221
555.50 0.8235221
555.60 0.8235221
555.70 0.8235221
555.80 0.8235221
555.90 0.8235221
556.00 0.8744981
556.10 0.983027
556.20 1.128547
556.30 1.284748
556.40 1.42678
556.50 1.54676
556.60 1.657644
556.70 1.776434
556.80 1.911391
556.90 2.057992
557.00 2.206869
557.10 2.345407
557.20 2.452061
557.30 2.52599
557.40 2.567606
557.50 2.577858
557.60 2.557981
557.70 2.511292
557.80 2.443787
557.90 2.372452
558.00 2.301363
558.10 2.233968
558.20 2.17729
558.30 2.139416
558.40 2.119535
558.50 2.111172
558.60 2.104844
558.70 2.09086
558.80 2.079371
558.90 2.06966
559.00 2.062073
559.10 2.062073
559.20 2.062073
559.30 2.062073
559.40 2.062073
559.50 2.062073
559.60 2.062073
559.70 2.062073
559.80 2.066583
559.90 2.072925
560.00 2.028418
560.10 1.927273
560.20 1.791296
560.30 1.646809
560.40 1.519842
560.50 1.421189
560.60 1.340042
560.70 1.259922
560.80 1.173258
560.90 1.085851
561.00 1.007442
561.10 0.9438249
561.20 0.897676
561.30 0.8691392
561.40 0.8575993
561.50 0.8616116
561.60 0.8791901
561.70 0.9102247
561.80 0.9550415
561.90 1.002542
562.00 1.054406
562.10 1.11081
562.20 1.163881
562.30 1.202287
562.40 1.223624
562.50 1.231758
562.60 1.235716
562.70 1.246257
562.80 1.253238
562.90 1.256343
563.00 1.257615
563.10 1.259481
563.20 1.263975
563.30 1.273647
563.40 1.289606
563.50 1.312343
563.60 1.343038
563.70 1.381902
563.80 1.422154
563.90 1.462792
564.00 1.502268
564.10 1.537946
564.20 1.569545
564.30 1.599232
564.40 1.626138
564.50 1.645249
564.60 1.65035
564.70 1.635205
564.80 1.595475
564.90 1.536282
565.00 1.465813
565.10 1.385855
565.20 1.300833
565.30 1.216404
565.40 1.149185
565.50 1.099046
565.60 1.059929
565.70 1.020645
565.80 0.9743051
565.90 0.9268051
566.00 0.8749405
566.10 0.8185362
566.20 0.7614071
566.30 0.7097985
566.40 0.6690363
566.50 0.6406667
566.60 0.6224285
566.70 0.6117171
566.80 0.6124237
566.90 0.6225802
567.00 0.6417902
567.10 0.6712613
567.20 0.7107011
567.30 0.7562783
567.40 0.8045402
567.50 0.8510046
567.60 0.8891851
567.70 0.9147713
567.80 0.9277513
567.90 0.9309962
568.00 0.9284222
568.10 0.922399
568.20 0.909847
568.30 0.8847402
568.40 0.8436678
568.50 0.8032295
568.60 0.7683906
568.70 0.7448663
568.80 0.7363029
568.90 0.7363029
569.00 0.7363029
569.10 0.7363029
569.20 0.7363029
569.30 0.7361459
569.40 0.7267774
569.50 0.7186447
569.60 0.725279
569.70 0.760673
569.80 0.8276288
569.90 0.9120444
570.00 1.007329
570.10 1.104535
570.20 1.191092
570.30 1.255454
570.40 1.292455
570.50 1.303247
570.60 1.303247
570.70 1.302357
570.80 1.294669
570.90 1.293119
571.00 1.311705
571.10 1.347579
571.20 1.395564
571.30 1.449677
571.40 1.500643
571.50 1.540162
571.60 1.56617
571.70 1.579594
571.80 1.581524
571.90 1.573189
572.00 1.555862
572.10 1.532933
572.20 1.511297
572.30 1.498168
572.40 1.498615
572.50 1.499953
572.60 1.500857
572.70 1.500857
572.80 1.500857
572.90 1.500857
573.00 1.500857
573.10 1.500857
573.20 1.500857
573.30 1.500857
573.40 1.504228
573.50 1.511668
573.60 1.513388
573.70 1.495725
573.80 1.448153
573.90 1.367927
574.00 1.272642
574.10 1.175437
574.20 1.088879
574.30 1.024517
574.40 0.9875158
574.50 0.983211
574.60 1.001135
574.70 1.023639
574.80 1.04139
574.90 1.034016
575.00 0.9949474
575.10 0.9277359
575.20 0.8358167
575.30 0.7264551
575.40 0.611269
575.50 0.5025476
575.60 0.4076644
575.70 0.3563297
575.80 0.3595612
575.90 0.4137279
576.00 0.5084753
576.10 0.6265281
576.20 0.7462725
576.30 0.8480929
576.40 0.9178379
576.50 0.9484511
576.60 0.9475469
576.70 0.9475469
576.80 0.9475469
576.90 0.9475469
577.00 0.9475469
577.10 0.9475469
577.20 0.9475469
577.30 0.9515296
577.40 0.9482384
577.50 0.9288939
577.60 0.9009074
577.70 0.8726323
577.80 0.8532482
577.90 0.8490592
578.00 0.8490592
578.10 0.8490592
578.20 0.849893
578.30 0.862664
578.40 0.8884347
578.50 0.9198935
578.60 0.9486678
578.70 0.9787078
578.80 1.016544
578.90 1.066763
579.00 1.11678
579.10 1.1606
579.20 1.200069
579.30 1.239527
579.40 1.284966
579.50 1.342718
579.60 1.416093
579.70 1.477993
579.80 1.514709
579.90 1.522292
580.00 1.499526
580.10 1.448544
580.20 1.377956
580.30 1.303012
580.40 1.241398
580.50 1.209606
580.60 1.214157
580.70 1.233376
580.80 1.270318
580.90 1.321867
581.00 1.381436
581.10 1.440504
581.20 1.489326
581.30 1.515496
581.40 1.518421
581.50 1.518421
581.60 1.518421
581.70 1.518421
581.80 1.518421
581.90 1.518421
582.00 1.518421
582.10 1.518421
582.20 1.517587
582.30 1.504816
582.40 1.492098
582.50 1.494657
582.60 1.504553
582.70 1.510075
582.80 1.500212
582.90 1.470501
583.00 1.422346
583.10 1.378525
583.20 1.339057
583.30 1.299599
583.40 1.25416
583.50 1.202906
583.60 1.164883
583.70 1.144771
583.80 1.147635
583.90 1.181231
584.00 1.254084
584.10 1.372361
584.20 1.535534
584.30 1.732112
584.40 1.942073
584.50 2.143404
584.60 2.315769
584.70 2.443615
584.80 2.521155
584.90 2.552547
585.00 2.548515
585.10 2.523916
585.20 2.496393
585.30 2.481031
585.40 2.488215
585.50 2.503486
585.60 2.523735
585.70 2.549989
585.80 2.582254
585.90 2.618535
586.00 2.656451
586.10 2.697565
586.20 2.744398
586.30 2.79467
586.40 2.828685
586.50 2.826325
586.60 2.794208
586.70 2.740669
586.80 2.694945
586.90 2.6701
587.00 2.668239
587.10 2.668239
587.20 2.668239
587.30 2.668239
587.40 2.668239
587.50 2.66174
587.60 2.626388
587.70 2.558062
587.80 2.455576
587.90 2.318342
588.00 2.147463
588.10 1.948005
588.20 1.737896
588.30 1.528387
588.40 1.328965
588.50 1.152375
588.60 1.008086
588.70 0.8994975
588.80 0.8210493
588.90 0.7601442
589.00 0.7049541
589.10 0.6704857
589.20 0.6491869
589.30 0.6343953
589.40 0.6213919
589.50 0.6061209
589.60 0.5858719
589.70 0.5864325
589.80 0.608848
589.90 0.6481976
590.00 0.6966071
590.10 0.7410692
590.20 0.7694227
590.30 0.7774593
590.40 0.769095
590.50 0.7516206
590.60 0.7333417
590.70 0.7288142
590.80 0.7288142
590.90 0.7288142
591.00 0.7288142
591.10 0.7288142
591.20 0.7288142
591.30 0.7288142
591.40 0.7288142
591.50 0.7288142
591.60 0.7288142
591.70 0.7288142
591.80 0.7288142
591.90 0.7288142
592.00 0.7476814
592.10 0.7729612
592.20 0.7733591
592.30 0.7562469
592.40 0.736232
592.50 0.711333
592.60 0.6787053
592.70 0.6402286
592.80 0.6041947
592.90 0.5821593
593.00 0.5818125
593.10 0.5818125
593.20 0.5818125
593.30 0.5818125
593.40 0.5818125
593.50 0.5818125
593.60 0.5831922
593.70 0.5605667
593.80 0.5105532
593.90 0.4349229
594.00 0.3485975
594.10 0.2630209
594.20 0.1878342
594.30 0.129526
594.40 0.09082301
594.50 0.07015211
594.60 0.06395388
594.70 0.06395388
594.80 0.06395388
594.90 0.07762407
595.00 0.1234758
595.10 0.2000555
595.20 0.3021509
595.30 0.4242038
595.40 0.5609209
595.50 0.7058101
595.60 0.8512173
595.70 0.9889097
595.80 1.110182
595.90 1.206091
596.00 1.251182
596.10 1.258058
596.20 1.253538
596.30 1.253538
596.40 1.253538
596.50 1.253538
596.60 1.253538
596.70 1.253538
596.80 1.253538
596.90 1.253538
597.00 1.253538
597.10 1.253538
597.20 1.253538
597.30 1.253538
597.40 1.253538
597.50 1.253538
597.60 1.252158
597.70 1.247969
597.80 1.243302
597.90 1.243302
598.00 1.243302
598.10 1.243302
598.20 1.243302
598.30 1.243302
598.40 1.243302
598.50 1.243302
598.60 1.243302
598.70 1.251786
598.80 1.263134
598.90 1.256856
599.00 1.211004
599.10 1.134425
599.20 1.032329
599.30 0.9208108
599.40 0.8166868
599.50 0.732067
599.60 0.6759434
599.70 0.6540309
599.80 0.6691504
599.90 0.71954
600.00 0
600.10 0
600.20 0
600.30 0
600.40 0
600.50 0
600.60 0
600.70 0.3393519
600.80 0.4539067
600.90 0.2957028
601.00 0
601.10 0
601.20 0
601.30 0.4213823
601.40 1.303724
601.50 2.410777
601.60 3.571344
601.70 4.631195
601.80 5.455665
601.90 5.851944
602.00 5.656898
602.10 4.831386
602.20 3.393505
602.30 1.449271
602.40 0
602.50 0
602.60 0
602.70 0
602.80 0
602.90 0
603.00 0
603.10 0
603.20 0
603.30 0
603.40 0
603.50 0.3525493
603.60 0.9342016
603.70 1.440656
603.80 1.86075
603.90 2.111582
604.00 2.086964
604.10 1.776761
604.20 1.217734
604.30 0.4638722
604.40 0
604.50 0
604.60 0
604.70 0
604.80 0
604.90 0
605.00 0
605.10 0
605.20 0
605.30 0
605.40 0
605.50 0
605.60 0
605.70 0
605.80 0
605.90 0
606.00 0
606.10 0
606.20 0.2060436
606.30 1.413205
606.40 2.59939
606.50 3.683559
606.60 4.666055
606.70 5.566996
606.80 6.303228
606.90 6.747835
607.00 6.868809
607.10 6.721003
607.20 6.33047
607.30 5.683674
607.40 4.845522
607.50 3.906466
607.60 2.926825
607.70 1.941854
607.80 0.9598413
607.90 0.0538427
608.00 0
608.10 0
608.20 0
608.30 0
608.40 0
608.50 0
608.60 0.336488
608.70 0.967419
608.80 1.42142
608.90 1.716279
609.00 1.891921
609.10 1.968775
609.20 1.971243
609.30 1.863584
609.40 1.610634
609.50 1.280418
609.60 0.9613823
609.70 0.6857571
609.80 0.4377657
609.90 0.2798868
610.00 0.3184352
610.10 0.5640463
610.20 0.9037326
610.30 1.140652
610.40 1.101015
610.50 0.7071085
610.60 0.04029071
610.70 0
610.80 0
610.90 0
611.00 0
611.10 0
611.20 0
611.30 0
611.40 0.634302
611.50 1.051614
611.60 1.172506
611.70 1.063878
611.80 0.8435541
611.90 0.6375053
612.00 0.4948635
612.10 0.3707384
612.20 0.2007432
612.30 0
612.40 0
612.50 0
612.60 0
612.70 0
612.80 0
612.90 0
613.00 0
613.10 0
613.20 0
613.30 0
613.40 0
613.50 0
613.60 0
613.70 0
613.80 0.1902231
613.90 0.5635001
614.00 0.9437527
614.10 1.298775
614.20 1.607375
614.30 1.863725
614.40 2.087688
614.50 2.286046
614.60 2.424588
614.70 2.457027
614.80 2.381597
614.90 2.24581
615.00 2.113147
615.10 2.014751
615.20 1.948925
615.30 1.89162
615.40 1.794109
615.50 1.626611
615.60 1.381747
615.70 1.045748
615.80 0.5560548
615.90 0
616.00 0
616.10 0
616.20 0
616.30 0
616.40 0
616.50 0
616.60 0
616.70 0.4425948
616.80 0.739448
616.90 0.7490533
617.00 0.4939782
617.10 0.1093897
617.20 0
617.30 0
617.40 0
617.50 0
617.60 0
617.70 0.1356086
617.80 0.4998887
617.90 0.8331499
618.00 1.085496
618.10 1.279598
618.20 1.487835
618.30 1.715576
618.40 1.866714
618.50 1.866367
618.60 1.787695
618.70 1.790936
618.80 2.012136
618.90 2.482649
619.00 3.151851
619.10 3.862809
619.20 4.441505
619.30 4.81324
619.40 4.958456
619.50 4.903566
619.60 4.699242
619.70 4.450329
619.80 4.294917
619.90 4.286358
620.00 4.311986
620.10 4.215483
620.20 3.908735
620.30 3.439472
620.40 2.9502
620.50 2.607727
620.60 2.560738
620.70 2.810523
620.80 3.261221
620.90 3.741519
621.00 3.998425
621.10 3.846547
621.20 3.264907
621.30 2.386923
621.40 1.462381
621.50 0.7214831
621.60 0.297676
621.70 0.2358622
621.80 0.4933136
621.90 0.9729913
622.00 1.53494
622.10 2.091008
622.20 2.600008
622.30 3.026122
622.40 3.416079
622.50 3.820775
622.60 4.212676
622.70 4.518268
622.80 4.66709
622.90 4.639591
623.00 4.458921
623.10 4.147009
623.20 3.742667
623.30 3.329053
623.40 3.053867
623.50 3.008252
623.60 3.16952
623.70 3.494266
623.80 3.902223
623.90 4.269183
624.00 4.420056
624.10 4.285119
624.20 3.954007
624.30 3.548484
624.40 3.133554
624.50 2.753993
624.60 2.454297
624.70 2.20506
624.80 1.910126
624.90 1.480057
625.00 0.9062467
625.10 0.2164642
625.20 0
625.30 0
625.40 0
625.50 0
625.60 0
625.70 0
625.80 0
625.90 0.8418822
626.00 1.908372
626.10 2.849733
626.20 3.591336
626.30 4.129368
626.40 4.496911
626.50 4.756724
626.60 4.977592
626.70 5.147451
626.80 5.220066
626.90 5.112205
627.00 4.713181
627.10 3.970412
627.20 2.905597
627.30 1.661203
627.40 0.4295735
627.50 0
627.60 0
627.70 0
627.80 0
627.90 1.230302
628.00 2.622838
628.10 3.856979
628.20 4.745403
628.30 5.246712
628.40 5.352372
628.50 5.040714
628.60 4.40637
628.70 3.652609
628.80 2.973408
628.90 2.424272
629.00 2.011503
629.10 1.781931
629.20 1.804431
629.30 2.091869
629.40 2.486063
629.50 2.694082
629.60 2.404183
629.70 1.447467
629.80 0
629.90 0
630.00 0
630.10 0
630.20 0
630.30 0
630.40 0
630.50 1.098123
630.60 2.999411
630.70 4.279476
630.80 4.813849
630.90 4.681861
631.00 4.101169
631.10 3.373536
631.20 2.751193
631.30 2.346245
631.40 2.120785
631.50 1.975547
631.60 1.861424
631.70 1.751644
631.80 1.674188
631.90 1.697635
632.00 1.851918
632.10 2.072453
632.20 2.265069
632.30 2.429057
632.40 2.627031
632.50 2.828679
632.60 2.905091
632.70 2.836461
632.80 2.708956
632.90 2.598345
633.00 2.546743
633.10 2.597844
633.20 2.781697
633.30 3.055045
633.40 3.290712
633.50 3.408539
633.60 3.422648
633.70 3.352309
633.80 3.166967
633.90 2.839581
634.00 2.418933
634.10 1.955422
634.20 1.52235
634.30 1.17095
634.40 0.9162359
634.50 0.7964664
634.60 0.8497842
634.70 1.120543
634.80 1.663997
634.90 2.461128
635.00 3.369272
635.10 4.182532
635.20 4.756631
635.30 5.061263
635.40 5.095977
635.50 4.825511
635.60 4.253081
635.70 3.503721
635.80 2.738086
635.90 2.066777
636.00 1.509088
636.10 1.014083
636.20 0.5883663
636.30 0.3250282
636.40 0.3284385
636.50 0.6380673
636.60 1.17654
636.70 1.796142
636.80 2.33481
636.90 2.697505
637.00 2.827661
637.10 2.671601
637.20 2.243973
637.30 1.627203
637.40 1.003019
637.50 0.5852855
637.60 0.4681782
637.70 0.650278
637.80 1.140306
637.90 1.915354
638.00 2.866413
638.10 3.850852
638.20 4.781799
638.30 5.577653
638.40 6.129635
638.50 6.383862
638.60 6.370761
638.70 6.191498
638.80 5.946189
638.90 5.716495
639.00 5.541871
639.10 5.387186
639.20 5.140306
639.30 4.712493
639.40 4.182673
639.50 3.707995
639.60 3.396555
639.70 3.290163
639.80 3.359066
639.90 3.503461
640.00 3.599646
640.10 3.555129
640.20 3.328719
640.30 2.904107
640.40 2.302576
640.50 1.639061
640.60 1.095887
640.70 0.8180822
640.80 0.8052219
640.90 0.9426589
641.00 1.100479
641.10 1.215701
641.20 1.313845
641.30 1.478697
641.40 1.79496
641.50 2.286834
641.60 2.905613
641.70 3.582853
641.80 4.258235
641.90 4.78639
642.00 4.984701
642.10 4.808384
642.20 4.339052
642.30 3.71496
642.40 3.097869
642.50 2.626702
642.60 2.413541
642.70 2.502917
642.80 2.860801
642.90 3.414449
643.00 4.061864
643.10 4.659444
643.20 5.078816
643.30 5.317438
643.40 5.416534
643.50 5.357497
643.60 5.134282
643.70 4.829168
643.80 4.563006
643.90 4.42067
644.00 4.409298
644.10 4.480236
644.20 4.553776
644.30 4.545319
644.40 4.402906
644.50 4.112009
644.60 3.714135
644.70 3.286963
644.80 2.945813
644.90 2.763817
645.00 2.742595
645.10 2.840481
645.20 3.005931
645.30 3.194562
645.40 3.389832
645.50 3.645785
645.60 4.007335
645.70 4.452204
645.80 4.959841
645.90 5.545199
646.00 6.160147
646.10 6.629605
646.20 6.744185
646.30 6.438463
646.40 5.820301
646.50 5.094873
646.60 4.467951
646.70 4.074519
646.80 3.934767
646.90 3.907774
647.00 3.832919
647.10 3.686718
647.20 3.481438
647.30 3.161222
647.40 2.705189
647.50 2.239716
647.60 1.978947
647.70 2.057815
647.80 2.450449
647.90 3.003536
648.00 3.518684
648.10 3.868366
648.20 4.054708
648.30 4.197166
648.40 4.447054
648.50 4.856159
648.60 5.397093
648.70 6.040228
648.80 6.709457
648.90 7.27368
649.00 7.614726
649.10 7.679938
649.20 7.519715
649.30 7.240056
649.40 6.903872
649.50 6.527184
649.60 6.121162
649.70 5.717146
649.80 5.317658
649.90 4.914549
650.00 4.532799
650.10 4.230224
650.20 4.104827
650.30 4.240484
650.40 4.66492
650.50 5.360003
650.60 6.188852
650.70 6.922287
650.80 7.420299
650.90 7.628633
651.00 7.512896
651.10 7.083094
651.20 6.452955
651.30 5.762836
651.40 5.146156
651.50 4.784532
651.60 4.781954
651.70 5.098284
651.80 5.57998
651.90 6.030491
652.00 6.33852
652.10 6.492812
652.20 6.530688
652.30 6.49806
652.40 6.459835
652.50 6.458741
652.60 6.490862
652.70 6.551296
652.80 6.609536
652.90 6.579075
653.00 6.434635
653.10 6.242815
653.20 6.075896
653.30 5.977604
653.40 5.93443
653.50 5.901916
653.60 5.8585
653.70 5.810744
653.80 5.7626
653.90 5.781041
654.00 5.903665
654.10 6.104911
654.20 6.361406
654.30 6.619273
654.40 6.798386
654.50 6.856327
654.60 6.826149
654.70 6.780793
654.80 6.845133
654.90 7.10919
655.00 7.485978
655.10 7.819878
655.20 8.014978
655.30 7.980994
655.40 7.692231
655.50 7.204801
655.60 6.61182
655.70 6.092999
655.80 5.773365
655.90 5.629428
656.00 5.634942
656.10 5.751207
656.20 5.863739
656.30 5.909103
656.40 5.940672
656.50 6.02626
656.60 6.175024
656.70 6.35644
656.80 6.532291
656.90 6.659749
657.00 6.734059
657.10 6.732238
657.20 6.672249
657.30 6.639801
657.40 6.61163
657.50 6.519603
657.60 6.364532
657.70 6.178134
657.80 6.011939
657.90 5.911443
658.00 5.907208
658.10 6.050408
658.20 6.375803
658.30 6.850571
658.40 7.376896
658.50 7.837328
658.60 8.112071
658.70 8.076502
658.80 7.704756
658.90 7.16634
659.00 6.71273
659.10 6.500814
659.20 6.562143
659.30 6.917211
659.40 7.589463
659.50 8.491027
659.60 9.458602
659.70 10.35057
659.80 11.05057
659.90 11.41803
660.00 11.38841
660.10 11.13681
660.20 10.88865
660.30 10.68997
660.40 10.46044
660.50 10.13568
660.60 9.741994
660.70 9.340468
660.80 8.956163
660.90 8.602477
661.00 8.304493
661.10 8.104272
661.20 8.031256
661.30 8.090915
661.40 8.2574
661.50 8.421949
661.60 8.47689
661.70 8.387082
661.80 8.177506
661.90 7.917255
662.00 7.700078
662.10 7.633811
662.20 7.804427
662.30 8.265862
662.40 9.025519
662.50 9.970262
662.60 10.8687
662.70 11.51868
662.80 11.83053
662.90 11.7773
663.00 11.3669
663.10 10.6726
663.20 9.829299
663.30 8.986103
663.40 8.255424
663.50 7.674027
663.60 7.249957
663.70 6.975565
663.80 6.807637
663.90 6.73754
664.00 6.781307
664.10 6.976502
664.20 7.327861
664.30 7.787019
664.40 8.318431
664.50 8.866629
664.60 9.367948
664.70 9.762311
664.80 9.9652
664.90 9.886354
665.00 9.491468
665.10 8.847235
665.20 8.085599
665.30 7.344653
665.40 6.754362
665.50 6.406331
665.60 6.380051
665.70 6.685224
665.80 7.235915
665.90 7.894545
666.00 8.483662
666.10 8.863855
666.20 9.030694
666.30 9.072375
666.40 9.023977
666.50 8.901511
666.60 8.743198
666.70 8.573587
666.80 8.428173
666.90 8.35567
667.00 8.351033
667.10 8.387833
667.20 8.466284
667.30 8.61393
667.40 8.891564
667.50 9.336284
667.60 9.854474
667.70 10.30062
667.80 10.6218
667.90 10.79115
668.00 10.81086
668.10 10.77211
668.20 10.82133
668.30 11.05793
668.40 11.47145
668.50 11.97824
668.60 12.46422
668.70 12.80558
668.80 12.84493
668.90 12.46986
669.00 11.74932
669.10 10.88921
669.20 10.11335
669.30 9.57597
669.40 9.335952
669.50 9.361121
669.60 9.537039
669.70 9.751801
669.80 9.960322
669.90 10.1155
670.00 10.17568
670.10 10.14921
670.20 10.09662
670.30 10.10047
670.40 10.21283
670.50 10.46176
670.60 10.8168
670.70 11.18982
670.80 11.49401
670.90 11.67806
671.00 11.7387
671.10 11.66555
671.20 11.45874
671.30 11.22159
671.40 11.0618
671.50 11.03069
671.60 11.12731
671.70 11.30484
671.80 11.48901
671.90 11.56393
672.00 11.46623
672.10 11.25768
672.20 11.02707
672.30 10.85759
672.40 10.83677
672.50 11.00959
672.60 11.3271
672.70 11.66868
672.80 11.94065
672.90 12.07768
673.00 12.09628
673.10 12.05278
673.20 11.9551
673.30 11.78961
673.40 11.51952
673.50 11.10328
673.60 10.56547
673.70 9.954604
673.80 9.276612
673.90 8.596635
674.00 8.080618
674.10 7.908241
674.20 8.187429
674.30 8.91971
674.40 9.916158
674.50 10.89842
674.60 11.68217
674.70 12.13438
674.80 12.18051
674.90 11.84468
675.00 11.22478
675.10 10.48982
675.20 9.869327
675.30 9.56182
675.40 9.645144
675.50 10.0497
675.60 10.61193
675.70 11.15442
675.80 11.57844
675.90 11.85631
676.00 11.94413
676.10 11.83833
676.20 11.63074
676.30 11.46023
676.40 11.37646
676.50 11.33944
676.60 11.33246
676.70 11.34762
676.80 11.3825
676.90 11.45318
677.00 11.53661
677.10 11.56755
677.20 11.54585
677.30 11.55734
677.40 11.69608
677.50 12.0258
677.60 12.51337
677.70 13.01029
677.80 13.42672
677.90 13.77851
678.00 14.07178
678.10 14.25062
678.20 14.20976
678.30 13.88195
678.40 13.30899
678.50 12.61906
678.60 11.88916
678.70 11.13912
678.80 10.42943
678.90 9.854818
679.00 9.518497
679.10 9.503211
679.20 9.826928
679.30 10.39301
679.40 11.00116
679.50 11.46785
679.60 11.70026
679.70 11.69667
679.80 11.51054
679.90 11.20177
680.00 10.85228
680.10 10.52659
680.20 10.25321
680.30 10.07089
680.40 10.02356
680.50 10.14484
680.60 10.4113
680.70 10.76733
680.80 11.2138
680.90 11.75447
681.00 12.33446
681.10 12.84059
681.20 13.15003
681.30 13.19677
681.40 12.99547
681.50 12.63959
681.60 12.28306
681.70 12.05127
681.80 11.98622
681.90 12.09387
682.00 12.35993
682.10 12.74044
682.20 13.14453
682.30 13.48927
682.40 13.75321
682.50 13.92341
682.60 13.98596
682.70 13.95689
682.80 13.85273
682.90 13.68853
683.00 13.44448
683.10 13.08045
683.20 12.6163
683.30 12.13382
683.40 11.74903
683.50 11.56733
683.60 11.60999
683.70 11.77731
683.80 11.90021
683.90 11.87635
684.00 11.70406
684.10 11.41079
684.20 11.05901
684.30 10.7253
684.40 10.52564
684.50 10.59643
684.60 10.98937
684.70 11.64038
684.80 12.38044
684.90 12.97407
685.00 13.2226
685.10 13.07126
685.20 12.58479
685.30 11.88601
685.40 11.11346
685.50 10.39813
685.60 9.864772
685.70 9.621774
685.80 9.687778
685.90 9.975486
686.00 10.34677
686.10 10.60287
686.20 10.57624
686.30 10.30359
686.40 9.929315
686.50 9.542615
686.60 9.234198
686.70 9.088853
686.80 9.158293
686.90 9.467398
687.00 9.970622
687.10 10.53548
687.20 10.98391
687.30 11.18039
687.40 11.09571
687.50 10.81702
687.60 10.52438
687.70 10.32119
687.80 10.23513
687.90 10.32522
688.00 10.5831
688.10 10.94679
688.20 11.32023
688.30 11.59971
688.40 11.72112
688.50 11.6426
688.60 11.36467
688.70 10.9299
688.80 10.41816
688.90 9.971967
689.00 9.685429
689.10 9.567769
689.20 9.603783
689.30 9.739384
689.40 9.950952
689.50 10.23225
689.60 10.56512
689.70 10.92601
689.80 11.27783
689.90 11.60767
690.00 11.91808
690.10 12.19744
690.20 12.40112
690.30 12.43474
690.40 12.28885
690.50 12.07233
690.60 11.86861
690.70 11.7669
690.80 11.82759
690.90 12.00881
691.00 12.2254
691.10 12.42111
691.20 12.58431
691.30 12.68989
691.40 12.67174
691.50 12.48687
691.60 12.17385
691.70 11.86607
691.80 11.67097
691.90 11.6037
692.00 11.69126
692.10 11.91083
692.20 12.21513
692.30 12.54823
692.40 12.81185
692.50 12.91964
692.60 12.80844
692.70 12.48496
692.80 12.0717
692.90 11.76167
693.00 11.69779
693.10 11.84245
693.20 12.01107
693.30 12.064
693.40 11.93913
693.50 11.61924
693.60 11.05579
693.70 10.27018
693.80 9.476975
693.90 8.914625
694.00 8.730757
694.10 8.965382
694.20 9.550233
694.30 10.33669
694.40 11.15165
694.50 11.83365
694.60 12.26813
694.70 12.41463
694.80 12.33396
694.90 12.17528
695.00 12.10578
695.10 12.21735
695.20 12.48151
695.30 12.8194
695.40 13.17389
695.50 13.52448
695.60 13.84034
695.70 14.04494
695.80 14.04096
695.90 13.84197
696.00 13.60895
696.10 13.47991
696.20 13.45776
696.30 13.46417
696.40 13.44867
696.50 13.36391
696.60 13.17589
696.70 12.90091
696.80 12.54809
696.90 12.1212
697.00 11.63705
697.10 11.13355
697.20 10.66567
697.30 10.3168
697.40 10.10682
697.50 10.00793
697.60 10.03163
697.70 10.17208
697.80 10.41435
697.90 10.76737
698.00 11.19127
698.10 11.58199
698.20 11.84109
698.30 11.88943
698.40 11.73577
698.50 11.45547
698.60 11.13164
698.70 10.80029
698.80 10.49145
698.90 10.2135
699.00 9.921346
699.10 9.598482
699.20 9.280375
699.30 9.038929
699.40 8.893096
699.50 8.855029
699.60 9.025607
699.70 9.501803
699.80 10.26364
699.90 11.23283
700.00 12.286
700.10 13.25102
700.20 13.96218
700.30 14.31021
700.40 14.26995
700.50 13.88124
700.60 13.22641
700.70 12.42698
700.80 11.66533
700.90 11.08381
701.00 10.695
701.10 10.48741
701.20 10.47728
701.30 10.64843
701.40 10.95664
701.50 11.33659
701.60 11.7121
701.70 12.04146
701.80 12.32138
701.90 12.5645
702.00 12.75782
702.10 12.86613
702.20 12.87257
702.30 12.81174
702.40 12.7261
702.50 12.60508
702.60 12.45493
702.70 12.30909
702.80 12.20724
702.90 12.22092
703.00 12.40421
703.10 12.73959
703.20 13.14809
703.30 13.53009
703.40 13.80037
703.50 13.9182
703.60 13.89645
703.70 13.74262
703.80 13.46547
703.90 13.13964
704.00 12.82473
704.10 12.53422
704.20 12.30714
704.30 12.21303
704.40 12.32562
704.50 12.67924
704.60 13.22823
704.70 13.84109
704.80 14.35967
704.90 14.6559
705.00 14.64843
705.10 14.33591
705.20 13.82658
705.30 13.25691
705.40 12.71163
705.50 12.23295
705.60 11.847
705.70 11.57856
705.80 11.42816
705.90 11.36415
706.00 11.3634
706.10 11.4889
706.20 11.83941
706.30 12.42394
706.40 13.12714
706.50 13.85613
706.60 14.55548
706.70 15.11916
706.80 15.50297
706.90 15.75163
707.00 15.89915
707.10 15.91938
707.20 15.7566
707.30 15.42151
707.40 15.01971
707.50 14.64251
707.60 14.32396
707.70 14.10559
707.80 14.07192
707.90 14.23038
708.00 14.50331
708.10 14.83048
708.20 15.11177
708.30 15.24677
708.40 15.20508
708.50 14.99026
708.60 14.6884
708.70 14.42274
708.80 14.24533
708.90 14.16221
709.00 14.16248
709.10 14.23885
709.20 14.42608
709.30 14.76502
709.40 15.21321
709.50 15.6593
709.60 16.03378
709.70 16.29779
709.80 16.43255
709.90 16.48323
710.00 16.49657
710.10 16.49354
710.20 16.50385
710.30 16.58956
710.40 16.82859
710.50 17.25432
710.60 17.79357
710.70 18.288
710.80 18.59855
710.90 18.67935
711.00 18.54278
711.10 18.24337
711.20 17.83131
711.30 17.31479
711.40 16.73004
711.50 16.16568
711.60 15.7452
711.70 15.54755
711.80 15.58192
711.90 15.81914
712.00 16.19657
712.10 16.61869
712.20 16.96633
712.30 17.12894
712.40 17.10033
712.50 16.95154
712.60 16.73819
712.70 16.54119
712.80 16.4361
712.90 16.41895
713.00 16.42919
713.10 16.42572
713.20 16.39675
713.30 16.32349
713.40 16.19495
713.50 16.0449
713.60 15.94589
713.70 15.9599
713.80 16.04194
713.90 16.08351
714.00 16.00423
714.10 15.75134
714.20 15.32394
714.30 14.78693
714.40 14.22808
714.50 13.69883
714.60 13.20309
714.70 12.75389
714.80 12.40335
714.90 12.20475
715.00 12.17688
715.10 12.30096
715.20 12.61619
715.30 13.15869
715.40 13.87253
715.50 14.64682
715.60 15.321
715.70 15.77342
715.80 15.95246
715.90 15.87735
716.00 15.64124
716.10 15.35588
716.20 15.13092
716.30 15.04119
716.40 15.11606
716.50 15.36755
716.60 15.69437
716.70 15.93531
716.80 16.03223
716.90 16.00051
717.00 15.88253
717.10 15.72302
717.20 15.61995
717.30 15.68554
717.40 15.97643
717.50 16.48089
717.60 17.09683
717.70 17.6918
717.80 18.1567
717.90 18.38966
718.00 18.28475
718.10 17.81094
718.20 17.05025
718.30 16.17448
718.40 15.40648
718.50 14.95203
718.60 14.88082
718.70 15.10474
718.80 15.51525
718.90 16.06437
719.00 16.74684
719.10 17.52855
719.20 18.31202
719.30 18.98508
719.40 19.46929
719.50 19.70036
719.60 19.62403
719.70 19.2239
719.80 18.52898
719.90 17.61015
720.00 16.59895
720.10 15.7152
720.20 15.17619
720.30 15.0878
720.40 15.39761
720.50 15.93619
720.60 16.52946
720.70 17.05009
720.80 17.42032
720.90 17.60263
721.00 17.57847
721.10 17.34774
721.20 16.9582
721.30 16.50597
721.40 16.09757
721.50 15.81843
721.60 15.66464
721.70 15.53696
721.80 15.37101
721.90 15.22367
722.00 15.22098
722.10 15.42806
722.20 15.83301
722.30 16.3795
722.40 16.9811
722.50 17.57088
722.60 18.09483
722.70 18.48813
722.80 18.67618
722.90 18.59678
723.00 18.27001
723.10 17.82409
723.20 17.41968
723.30 17.12869
723.40 16.90494
723.50 16.69457
723.60 16.48021
723.70 16.23977
723.80 16.04602
723.90 16.01406
724.00 16.12892
724.10 16.2857
724.20 16.45604
724.30 16.67195
724.40 16.91728
724.50 17.1678
724.60 17.36018
724.70 17.40408
724.80 17.20735
724.90 16.73832
725.00 16.1368
725.10 15.65081
725.20 15.36982
725.30 15.23666
725.40 15.28736
725.50 15.67215
725.60 16.42266
725.70 17.36647
725.80 18.27219
725.90 18.87747
726.00 19.01605
726.10 18.73521
726.20 18.29445
726.30 17.98487
726.40 17.88408
726.50 17.91031
726.60 18.00099
726.70 18.12716
726.80 18.22689
726.90 18.19165
727.00 17.96724
727.10 17.62044
727.20 17.29737
727.30 17.12716
727.40 17.15939
727.50 17.42977
727.60 17.91052
727.70 18.46879
727.80 18.95267
727.90 19.25656
728.00 19.30987
728.10 19.074
728.20 18.59765
728.30 17.9894
728.40 17.34551
728.50 16.72615
728.60 16.16347
728.70 15.74659
728.80 15.55446
728.90 15.48387
729.00 15.30741
729.10 14.84666
729.20 14.09628
729.30 13.20021
729.40 12.38449
729.50 11.88148
729.60 11.83183
729.70 12.24917
729.80 13.03249
729.90 14.01713
730.00 14.98118
730.10 15.66177
730.20 15.85322
730.30 15.51014
730.40 14.78922
730.50 13.94829
730.60 13.21014
730.70 12.72686
730.80 12.61911
730.90 12.94127
731.00 13.58775
731.10 14.31644
731.20 14.83218
731.30 14.91953
731.40 14.56119
731.50 13.94955
731.60 13.39863
731.70 13.1727
731.80 13.36922
731.90 13.95794
732.00 14.85236
732.10 15.90121
732.20 16.8612
732.30 17.44381
732.40 17.48425
732.50 17.01558
732.60 16.25531
732.70 15.45929
732.80 14.79541
732.90 14.35067
733.00 14.11352
733.10 14.02367
733.20 14.04645
733.30 14.13995
733.40 14.24072
733.50 14.26144
733.60 14.07094
733.70 13.63445
733.80 13.12186
733.90 12.77604
734.00 12.73973
734.10 13.03214
734.20 13.61054
734.30 14.35124
734.40 15.04597
734.50 15.50817
734.60 15.63215
734.70 15.43355
734.80 14.99413
734.90 14.4613
735.00 14.08902
735.10 14.09536
735.20 14.48747
735.30 15.10446
735.40 15.72968
735.50 16.17449
735.60 16.28159
735.70 15.99061
735.80 15.43309
735.90 14.80884
736.00 14.25675
736.10 13.82519
736.20 13.54931
736.30 13.48541
736.40 13.636
736.50 13.85069
736.60 13.79085
736.70 13.20666
736.80 12.22261
736.90 11.19657
737.00 10.46597
737.10 10.19998
737.20 10.4046
737.30 10.98259
737.40 11.79741
737.50 12.70599
737.60 13.53004
737.70 14.06245
737.80 14.13717
737.90 13.77964
738.00 13.24197
738.10 12.77229
738.20 12.44208
738.30 12.25895
738.40 12.29803
738.50 12.63595
738.60 13.29953
738.70 14.26602
738.80 15.41747
738.90 16.58519
739.00 17.6149
739.10 18.36885
739.20 18.73404
739.30 18.59108
739.40 17.90616
739.50 16.82409
739.60 15.60085
739.70 14.45004
739.80 13.48685
739.90 12.79854
740.00 12.38699
740.10 12.1758
740.20 12.10473
740.30 12.12938
740.40 12.18775
740.50 12.20832
740.60 12.15767
740.70 12.12137
740.80 12.22377
740.90 12.48377
741.00 12.78792
741.10 13.00179
741.20 13.05993
741.30 12.93383
741.40 12.63825
741.50 12.23333
741.60 11.81506
741.70 11.49954
741.80 11.36703
741.90 11.44545
742.00 11.71447
742.10 12.08304
742.20 12.43754
742.30 12.69595
742.40 12.87107
742.50 13.0383
742.60 13.21478
742.70 13.40389
742.80 13.64495
742.90 13.93848
743.00 14.20989
743.10 14.35516
743.20 14.32454
743.30 14.161
743.40 13.98721
743.50 13.96219
743.60 14.1665
743.70 14.61227
743.80 15.17599
743.90 15.6331
744.00 15.8188
744.10 15.56433
744.20 14.77778
744.30 13.59994
744.40 12.30085
744.50 11.11997
744.60 10.2184
744.70 9.66835
744.80 9.459655
744.90 9.502713
745.00 9.709743
745.10 9.98811
745.20 10.26778
745.30 10.52746
745.40 10.76973
745.50 11.07887
745.60 11.50044
745.70 11.90233
745.80 12.14073
745.90 12.18003
746.00 11.97538
746.10 11.49296
746.20 10.77876
746.30 9.927519
746.40 9.043392
746.50 8.226008
746.60 7.56321
746.70 7.097721
746.80 6.880553
746.90 7.049599
747.00 7.686713
747.10 8.764414
747.20 10.14225
747.30 11.55738
747.40 12.78624
747.50 13.65196
747.60 13.95488
747.70 13.59628
747.80 12.64166
747.90 11.29757
748.00 9.878996
748.10 8.762314
748.20 8.21425
748.30 8.223959
748.40 8.660481
748.50 9.335669
748.60 9.974018
748.70 10.32646
748.80 10.23572
748.90 9.688785
749.00 8.845102
749.10 7.922618
749.20 7.146333
749.30 6.71162
749.40 6.711309
749.50 7.107779
749.60 7.773155
749.70 8.504086
749.80 9.043638
749.90 9.210704
750.00 8.976459
750.10 8.469433
750.20 7.89852
750.30 7.409577
750.40 7.046723
750.50 6.84696
750.60 6.85873
750.70 7.091959
750.80 7.505744
750.90 8.027021
751.00 8.578664
751.10 9.088229
751.20 9.489664
751.30 9.720335
751.40 9.729094
751.50 9.46198
751.60 8.887998
751.70 8.061241
751.80 7.152948
751.90 6.350853
752.00 5.700263
752.10 5.153086
752.20 4.769126
752.30 4.674884
752.40 4.858137
752.50 5.229444
752.60 5.676959
752.70 6.103895
752.80 6.457799
752.90 6.673944
753.00 6.706155
753.10 6.581757
753.20 6.367467
753.30 6.14142
753.40 6.068182
753.50 6.323683
753.60 6.867446
753.70 7.46901
753.80 7.916619
753.90 8.067379
754.00 7.891278
754.10 7.472205
754.20 6.936301
754.30 6.424983
754.40 6.070457
754.50 5.985787
754.60 6.210502
754.70 6.696036
754.80 7.317821
754.90 7.912961
755.00 8.334148
755.10 8.48439
755.20 8.358487
755.30 7.999628
755.40 7.47893
755.50 6.886676
755.60 6.329222
755.70 5.946392
755.80 5.880778
755.90 6.176623
756.00 6.735652
756.10 7.383259
756.20 7.977242
756.30 8.43529
756.40 8.72461
756.50 8.897053
756.60 9.018904
756.70 9.106875
756.80 9.107942
756.90 8.974111
757.00 8.70651
757.10 8.374473
757.20 8.058626
757.30 7.781475
757.40 7.572542
757.50 7.435636
757.60 7.341391
757.70 7.246729
757.80 7.078971
757.90 6.748968
758.00 6.157061
758.10 5.296627
758.20 4.323447
758.30 3.433788
758.40 2.790207
758.50 2.476508
758.60 2.496745
758.70 2.79964
758.80 3.31255
758.90 4.009986
759.00 4.821951
759.10 5.612587
759.20 6.289981
759.30 6.752619
759.40 6.968831
759.50 7.002482
759.60 6.93425
759.70 6.833039
759.80 6.711769
759.90 6.586029
760.00 6.438531
760.10 6.164906
760.20 5.679756
760.30 5.043393
760.40 4.383573
760.50 3.78947
760.60 3.317476
760.70 3.064401
760.80 3.129027
760.90 3.485803
761.00 3.962713
761.10 4.349268
761.20 4.515202
761.30 4.369877
761.40 3.913236
761.50 3.364315
761.60 3.01008
761.70 2.996915
761.80 3.335123
761.90 3.95059
762.00 4.677845
762.10 5.292438
762.20 5.542786
762.30 5.313122
762.40 4.677535
762.50 3.660128
762.60 2.275967
762.70 0.7246575
762.80 0
762.90 0
763.00 0
763.10 0
763.20 0
763.30 0.5197557
763.40 1.580491
763.50 2.442398
763.60 2.96246
763.70 3.042471
763.80 2.65652
763.90 2.060082
764.00 1.630344
764.10 1.543119
764.20 1.746396
764.30 2.105597
764.40 2.473686
764.50 2.691013
764.60 2.661153
764.70 2.405944
764.80 2.043355
764.90 1.704201
765.00 1.477933
765.10 1.438286
765.20 1.601561
765.30 1.837646
765.40 1.919768
765.50 1.709966
765.60 1.192261
765.70 0.4200873
765.80 0
765.90 0
766.00 0
766.10 0
766.20 0
766.30 0
766.40 0
766.50 0.7384865
766.60 1.469916
766.70 1.950651
766.80 2.152071
766.90 2.074833
767.00 1.755959
767.10 1.28397
767.20 0.7330688
767.30 0.1932906
767.40 0
767.50 0
767.60 0
767.70 0
767.80 0
767.90 0
768.00 0.3444143
768.10 1.149341
768.20 2.056592
768.30 2.891034
768.40 3.515754
768.50 3.833658
768.60 3.838607
768.70 3.618984
768.80 3.285047
768.90 2.950777
769.00 2.683396
769.10 2.489177
769.20 2.415088
769.30 2.506197
769.40 2.658626
769.50 2.704974
769.60 2.595315
769.70 2.361366
769.80 2.079144
769.90 1.863155
770.00 1.786065
770.10 1.874629
770.20 2.112752
770.30 2.408755
770.40 2.645134
770.50 2.733621
770.60 2.480366
770.70 1.639212
770.80 0.1693597
770.90 0
771.00 0
771.10 0
771.20 0
771.30 0
771.40 0
771.50 0
771.60 0
771.70 0
771.80 0
771.90 0
772.00 0
772.10 0
772.20 0.2766825
772.30 0.4055748
772.40 0.1596024
772.50 0
772.60 0
772.70 0
772.80 0
772.90 0
773.00 0.6738179
773.10 1.949441
773.20 3.140469
773.30 4.041684
773.40 4.579488
773.50 4.87957
773.60 5.095565
773.70 5.266103
773.80 5.377564
773.90 5.407644
774.00 5.294761
774.10 4.984362
774.20 4.464258
774.30 3.809327
774.40 3.171339
774.50 2.609372
774.60 2.01658
774.70 1.187484
774.80 0.02974032
774.90 0
775.00 0
775.10 0
775.20 0
775.30 0
775.40 0
775.50 0.7765685
775.60 2.173383
775.70 2.990672
775.80 3.04817
775.90 2.410308
776.00 1.366737
776.10 0.3997738
776.20 0
776.30 0.03805533
776.40 0.623046
776.50 1.4947
776.60 2.48624
776.70 3.392739
776.80 4.074822
776.90 4.549072
777.00 4.838799
777.10 4.913646
777.20 4.812222
777.30 4.655935
777.40 4.599129
777.50 4.738618
777.60 5.123048
777.70 5.751128
777.80 6.461077
777.90 7.045602
778.00 7.366441
778.10 7.375123
778.20 7.097249
778.30 6.594374
778.40 6.043816
778.50 5.630736
778.60 5.35832
778.70 5.149492
778.80 5.018105
778.90 5.035641
779.00 5.050109
779.10 4.794805
779.20 4.271358
779.30 3.633488
779.40 2.995678
779.50 2.449901
779.60 2.129392
779.70 2.096304
779.80 2.280416
779.90 2.651289
780.00 3.227926
780.10 3.995616
780.20 4.779537
780.30 5.272022
780.40 5.339771
780.50 5.023779
780.60 4.387409
780.70 3.572636
780.80 2.8183
780.90 2.429857
781.00 2.613202
781.10 3.425857
781.20 4.807747
781.30 6.573912
781.40 8.486429
781.50 10.17365
781.60 11.16049
781.70 11.10263
781.80 9.928716
781.90 7.909548
782.00 5.563037
782.10 3.498369
782.20 2.273777
782.30 2.157382
782.40 3.12451
782.50 4.96364
782.60 7.284034
782.70 9.56292
782.80 11.25447
782.90 12.03751
783.00 11.99098
783.10 11.41964
783.20 10.65864
783.30 9.998286
783.40 9.604013
783.50 9.476963
783.60 9.527104
783.70 9.680956
783.80 9.848943
783.90 9.96927
784.00 10.06024
784.10 10.18476
784.20 10.38135
784.30 10.5956
784.40 10.75107
784.50 10.86347
784.60 11.03577
784.70 11.32342
784.80 11.6629
784.90 11.95848
785.00 12.16862
785.10 12.38704
785.20 12.84567
785.30 13.66394
785.40 14.74115
785.50 15.899
785.60 16.97253
785.70 17.78766
785.80 18.15905
785.90 17.98735
786.00 17.27527
786.10 16.13825
786.20 14.84323
786.30 13.70586
786.40 12.94922
786.50 12.62854
786.60 12.56276
786.70 12.56316
786.80 12.61322
786.90 12.76922
787.00 13.11041
787.10 13.68458
787.20 14.38425
787.30 15.01792
787.40 15.46372
787.50 15.64186
787.60 15.52192
787.70 15.23748
787.80 15.01238
787.90 14.95555
788.00 15.16279
788.10 15.73405
788.20 16.64226
788.30 17.67282
788.40 18.52391
788.50 19.0167
788.60 19.15688
788.70 18.9998
788.80 18.60891
788.90 18.13003
789.00 17.71446
789.10 17.34933
789.20 16.92941
789.30 16.49085
789.40 16.13413
789.50 15.88469
789.60 15.74431
789.70 15.73536
789.80 15.85622
789.90 16.06902
790.00 16.32723
790.10 16.58731
790.20 16.80108
790.30 16.92587
790.40 16.96139
790.50 16.98292
790.60 17.12073
790.70 17.37412
790.80 17.46739
790.90 17.02347
791.00 15.79984
791.10 13.8835
791.20 11.65782
791.30 9.606485
791.40 8.178008
791.50 7.649136
791.60 8.093952
791.70 9.383191
791.80 11.23167
791.90 13.25669
792.00 15.0255
792.10 16.22414
792.20 16.88747
792.30 17.30106
792.40 17.7791
792.50 18.44201
792.60 19.13464
792.70 19.58119
792.80 19.51001
792.90 18.81107
793.00 17.60998
793.10 16.15132
793.20 14.75436
793.30 13.71634
793.40 13.20316
793.50 13.32842
793.60 14.08524
793.70 15.3046
793.80 16.68138
793.90 17.87699
794.00 18.64892
794.10 18.9235
794.20 18.73162
794.30 18.04863
794.40 16.82195
794.50 15.14349
794.60 13.2039
794.70 11.26889
794.80 9.710418
794.90 8.846818
795.00 8.840999
795.10 9.66864
795.20 11.15566
795.30 13.03424
795.40 15.02647
795.50 16.86546
795.60 18.37236
795.70 19.47707
795.80 20.1442
795.90 20.43816
796.00 20.47447
796.10 20.31506
796.20 20.0792
796.30 19.90236
796.40 19.9028
796.50 20.26202
796.60 21.10135
796.70 22.41167
796.80 24.06043
796.90 25.8143
797.00 27.41021
797.10 28.65459
797.20 29.46344
797.30 29.76476
797.40 29.51068
797.50 28.79372
797.60 27.75763
797.70 26.57347
797.80 25.44777
797.90 24.50511
798.00 23.82857
798.10 23.49507
798.20 23.53679
798.30 23.94905
798.40 24.64637
798.50 25.47946
798.60 26.24038
798.70 26.7585
798.80 26.9836
798.90 26.94867
799.00 26.63713
799.10 25.99386
799.20 25.12283
799.30 24.29963
799.40 23.71664
799.50 23.36621
799.60 23.20842
799.70 23.21303
799.80 23.37801
799.90 23.73921
800.00 24.34348
800.10 25.15047
800.20 26.04314
800.30 26.8529
800.40 27.47348
800.50 27.93914
800.60 28.27498
800.70 28.40371
800.80 28.35386
800.90 28.31378
801.00 28.37705
801.10 28.49205
801.20 28.57543
801.30 28.58307
801.40 28.49443
801.50 28.32996
801.60 28.14638
801.70 28.02687
801.80 28.01795
801.90 28.08801
802.00 28.1637
802.10 28.23844
802.20 28.16983
802.30 27.75557
802.40 27.02563
802.50 26.24841
802.60 25.768
802.70 25.75205
802.80 26.21527
802.90 27.0128
803.00 27.9367
803.10 28.87427
803.20 29.77638
803.30 30.5829
803.40 31.20207
803.50 31.50204
803.60 31.56218
803.70 31.61345
803.80 31.77423
803.90 31.99692
804.00 32.08437
804.10 31.92984
804.20 31.63827
804.30 31.46443
804.40 31.6041
804.50 32.1061
804.60 32.97444
804.70 34.15514
804.80 35.49678
804.90 36.8278
805.00 37.98893
805.10 38.81406
805.20 39.18033
805.30 39.07543
805.40 38.61302
805.50 37.92672
805.60 37.08968
805.70 36.16482
805.80 35.22719
805.90 34.32354
806.00 33.45628
806.10 32.69489
806.20 32.20195
806.30 32.11029
806.40 32.42875
806.50 33.06534
806.60 33.88496
806.70 34.70163
806.80 35.30421
806.90 35.56067
807.00 35.46697
807.10 35.16298
807.20 34.91837
807.30 35.01121
807.40 35.61448
807.50 36.69703
807.60 38.00408
807.70 39.17767
807.80 39.89844
807.90 39.94911
808.00 39.28362
808.10 38.10622
808.20 36.80563
808.30 35.7611
808.40 35.24121
808.50 35.35842
808.60 36.04643
808.70 37.1411
808.80 38.39876
808.90 39.52272
809.00 40.30715
809.10 40.65296
809.20 40.51793
809.30 39.96763
809.40 39.16235
809.50 38.21824
809.60 37.21215
809.70 36.3115
809.80 35.6507
809.90 35.24798
810.00 35.08048
810.10 35.06182
810.20 35.0945
810.30 35.16587
810.40 35.30439
810.50 35.55944
810.60 36.02834
810.70 36.72192
810.80 37.51015
810.90 38.26208
811.00 38.91447
811.10 39.44577
811.20 39.8741
811.30 40.28027
811.40 40.73188
811.50 41.22473
811.60 41.75263
811.70 42.29838
811.80 42.78238
811.90 43.10038
812.00 43.14015
812.10 42.89395
812.20 42.5338
812.30 42.28546
812.40 42.31119
812.50 42.66774
812.60 43.25897
812.70 43.9107
812.80 44.53014
812.90 45.05678
813.00 45.36894
813.10 45.33945
813.20 44.90819
813.30 44.20781
813.40 43.54894
813.50 43.17591
813.60 43.16563
813.70 43.46321
813.80 43.92644
813.90 44.32981
814.00 44.48945
814.10 44.26897
814.20 43.57654
814.30 42.58251
814.40 41.60995
814.50 40.95728
814.60 40.881
814.70 41.42138
814.80 42.44518
814.90 43.83442
815.00 45.40493
815.10 46.90269
815.20 48.12526
815.30 48.96856
815.40 49.40105
815.50 49.48977
815.60 49.37441
815.70 49.0979
815.80 48.67238
815.90 48.20629
816.00 47.8551
816.10 47.74359
816.20 47.87566
816.30 48.15394
816.40 48.49703
816.50 48.88008
816.60 49.30527
816.70 49.78921
816.80 50.34853
816.90 50.95858
817.00 51.53031
817.10 51.9744
817.20 52.25306
817.30 52.34007
817.40 52.21971
817.50 51.91397
817.60 51.48753
817.70 51.00851
817.80 50.52571
817.90 50.09929
818.00 49.77995
818.10 49.54217
818.20 49.3228
818.30 49.0676
818.40 48.68217
818.50 48.07302
818.60 47.19703
818.70 46.09899
818.80 44.95655
818.90 43.94726
819.00 43.08702
819.10 42.35714
819.20 41.77789
819.30 41.36081
819.40 41.132
819.50 41.12213
819.60 41.38324
819.70 41.99819
819.80 43.09969
819.90 44.74264
820.00 46.80875
820.10 49.09326
820.20 51.2864
820.30 53.14167
820.40 54.63582
820.50 55.74433
820.60 56.39248
820.70 56.59383
820.80 56.44918
820.90 56.15354
821.00 55.89462
821.10 55.73762
821.20 55.6527
821.30 55.61751
821.40 55.63814
821.50 55.63563
821.60 55.49108
821.70 55.06866
821.80 54.28522
821.90 53.25897
822.00 52.21891
822.10 51.36194
822.20 50.85319
822.30 50.81865
822.40 51.3226
822.50 52.36275
822.60 53.84104
822.70 55.56917
822.80 57.34721
822.90 58.93339
823.00 60.02888
823.10 60.46287
823.20 60.25279
823.30 59.54312
823.40 58.5954
823.50 57.6873
823.60 57.02204
823.70 56.76176
823.80 56.98257
823.90 57.62162
824.00 58.48473
824.10 59.22246
824.20 59.45692
824.30 59.05215
824.40 58.15451
824.50 57.06992
824.60 56.15728
824.70 55.72063
824.80 55.9157
824.90 56.73137
825.00 57.96953
825.10 59.26957
825.20 60.2738
825.30 60.73943
825.40 60.54904
825.50 59.82858
825.60 58.90241
825.70 58.0858
825.80 57.70449
825.90 57.98656
826.00 58.85779
826.10 60.08951
826.20 61.4611
826.30 62.78359
826.40 63.92724
826.50 64.74575
826.60 65.00479
826.70 64.56433
826.80 63.53941
826.90 62.18888
827.00 60.82403
827.10 59.73549
827.20 59.06509
827.30 58.81068
827.40 58.93335
827.50 59.26618
827.60 59.45656
827.70 59.11464
827.80 58.00074
827.90 56.17047
828.00 53.96976
828.10 51.87204
828.20 50.28281
828.30 49.43113
828.40 49.23496
828.50 49.35556
828.60 49.59447
828.70 49.9571
828.80 50.51841
828.90 51.41894
829.00 52.73226
829.10 54.44758
829.20 56.43179
829.30 58.36888
829.40 59.85294
829.50 60.44682
829.60 59.85723
829.70 58.1312
829.80 55.87396
829.90 54.04868
830.00 53.2018
830.10 53.37988
830.20 54.46101
830.30 56.15924
830.40 58.11319
830.50 59.90917
830.60 61.12085
830.70 61.48707
830.80 61.02888
830.90 60.13315
831.00 59.36757
831.10 59.16497
831.20 59.60642
831.30 60.49285
831.40 61.63028
831.50 62.86207
831.60 63.99189
831.70 64.85144
831.80 65.42078
831.90 65.82198
832.00 66.26575
832.10 66.97212
832.20 68.06709
832.30 69.47599
832.40 70.91598
832.50 72.1011
832.60 72.86013
832.70 73.15333
832.80 73.06627
832.90 72.73579
833.00 72.2681
833.10 71.71989
833.20 71.123
833.30 70.53193
833.40 70.06365
833.50 69.8564
833.60 69.91997
833.70 70.11497
833.80 70.29007
833.90 70.2359
834.00 69.56771
834.10 67.90446
834.20 65.26036
834.30 62.15831
834.40 59.44161
834.50 57.91722
834.60 58.01498
834.70 59.71214
834.80 62.54665
834.90 65.76883
835.00 68.6713
835.10 70.63054
835.20 71.26233
835.30 70.67921
835.40 69.46623
835.50 68.43616
835.60 68.16075
835.70 68.74236
835.80 69.86393
835.90 71.0791
836.00 72.10396
836.10 72.79077
836.20 73.08666
836.30 73.03739
836.40 72.77145
836.50 72.58984
836.60 72.75879
836.70 73.30329
836.80 74.12443
836.90 75.06642
837.00 75.94285
837.10 76.59403
837.20 76.92709
837.30 76.88019
837.40 76.44061
837.50 75.74977
837.60 75.05336
837.70 74.49093
837.80 74.04115
837.90 73.61483
838.00 73.16799
838.10 72.72428
838.20 72.3358
838.30 72.09494
838.40 72.05998
838.50 72.20823
838.60 72.50128
838.70 72.90712
838.80 73.38861
838.90 73.88245
839.00 74.24813
839.10 74.39703
839.20 74.44192
839.30 74.54916
839.40 74.65163
839.50 74.45575
839.60 73.58895
839.70 71.7537
839.80 69.14072
839.90 66.39532
840.00 64.12124
840.10 62.71608
840.20 62.38457
840.30 63.10139
840.40 64.73144
840.50 67.09665
840.60 69.86292
840.70 72.56906
840.80 74.82256
840.90 76.51878
841.00 77.92274
841.10 79.31415
841.20 80.46135
841.30 80.89182
841.40 80.53666
841.50 79.71083
841.60 78.8044
841.70 78.13842
841.80 77.91269
841.90 78.10917
842.00 78.49895
842.10 78.92592
842.20 79.46591
842.30 80.15441
842.40 80.79238
842.50 81.11306
842.60 81.17237
842.70 81.24928
842.80 81.38121
842.90 81.46264
843.00 81.41653
843.10 81.1341
843.20 80.533
843.30 79.68225
843.40 78.81484
843.50 78.0611
843.60 77.37068
843.70 76.73906
843.80 76.25175
843.90 76.11438
844.00 76.43552
844.10 77.10693
844.20 78.00673
844.30 78.94686
844.40 79.70228
844.50 80.18249
844.60 80.43679
844.70 80.59852
844.80 80.63895
844.90 80.28566
845.00 79.37702
845.10 77.99128
845.20 76.34177
845.30 74.72086
845.40 73.4389
845.50 72.70163
845.60 72.52964
845.70 72.90083
845.80 73.75063
845.90 74.9049
846.00 76.1601
846.10 77.24237
846.20 77.74684
846.30 77.44063
846.40 76.44839
846.50 75.07234
846.60 73.67652
846.70 72.57471
846.80 71.97898
846.90 71.98377
847.00 72.5817
847.10 73.6484
847.20 75.03793
847.30 76.59495
847.40 77.95173
847.50 78.70153
847.60 78.86355
847.70 78.80144
847.80 78.75031
847.90 78.73087
848.00 78.66931
848.10 78.52823
848.20 78.38098
848.30 78.36643
848.40 78.60747
848.50 79.13747
848.60 79.8347
848.70 80.46833
848.80 80.8498
848.90 80.88329
849.00 80.56617
849.10 79.90904
849.20 78.91193
849.30 77.73055
849.40 76.69205
849.50 76.03434
849.60 75.75884
849.70 75.8217
849.80 76.24475
849.90 77.01191
850.00 78.01693
850.10 79.05135
850.20 79.85162
850.30 80.2481
850.40 80.26912
850.50 80.04784
850.60 79.70219
850.70 79.25229
850.80 78.61238
850.90 77.81952
851.00 77.07775
851.10 76.48159
851.20 75.93907
851.30 75.35507
851.40 74.62243
851.50 73.58871
851.60 72.14192
851.70 70.11998
851.80 67.28366
851.90 63.61382
852.00 59.44209
852.10 55.30535
852.20 51.87578
852.30 49.80636
852.40 49.50559
852.50 51.05182
852.60 54.21901
852.70 58.46151
852.80 63.11612
852.90 67.72883
853.00 72.08061
853.10 76.08322
853.20 79.68676
853.30 82.83736
853.40 85.52163
853.50 87.79502
853.60 89.6539
853.70 90.97998
853.80 91.68434
853.90 91.83035
854.00 91.62028
854.10 91.33141
854.20 91.1906
854.30 91.22289
854.40 91.27565
854.50 91.09471
854.60 90.44966
854.70 89.30056
854.80 87.8166
854.90 86.27503
855.00 85.07631
855.10 84.62638
855.20 85.09984
855.30 86.42285
855.40 88.36955
855.50 90.62021
855.60 92.77416
855.70 94.43581
855.80 95.34547
855.90 95.54868
856.00 95.36963
856.10 95.11097
856.20 94.9921
856.30 95.20907
856.40 95.76828
856.50 96.49666
856.60 97.2755
856.70 98.11893
856.80 99.07968
856.90 100.0962
857.00 100.9481
857.10 101.3737
857.20 101.197
857.30 100.3762
857.40 98.97224
857.50 97.18793
857.60 95.31424
857.70 93.57479
857.80 92.17406
857.90 91.33556
858.00 91.21038
858.10 91.78281
858.20 92.81263
858.30 93.96139
858.40 95.01247
858.50 95.90158
858.60 96.57112
858.70 96.89961
858.80 96.80717
858.90 96.30333
859.00 95.39888
859.10 94.16326
859.20 92.75901
859.30 91.35342
859.40 90.10318
859.50 89.14392
859.60 88.64569
859.70 88.77095
859.80 89.57288
859.90 90.95502
860.00 92.71534
860.10 94.67504
860.20 96.65796
860.30 98.43354
860.40 99.76447
860.50 100.4287
860.60 100.2506
860.70 99.19498
860.80 97.33223
860.90 94.78244
861.00 91.67802
861.10 88.17485
861.20 84.45368
861.30 80.66627
861.40 76.95238
861.50 73.46622
861.60 70.3193
861.70 67.47698
861.80 64.9011
861.90 62.64994
862.00 60.7922
862.10 59.3929
862.20 58.53606
862.30 58.25025
862.40 58.42483
862.50 58.84541
862.60 59.24524
862.70 59.32016
862.80 58.71346
862.90 57.23449
863.00 55.10204
863.10 52.94418
863.20 51.47582
863.30 51.22128
863.40 52.46253
863.50 55.12253
863.60 58.71023
863.70 62.50142
863.80 65.78328
863.90 67.92055
864.00 68.48691
864.10 67.5617
864.20 65.77992
864.30 63.86834
864.40 62.28036
864.50 61.16062
864.60 60.41054
864.70 59.81609
864.80 59.14309
864.90 58.30608
865.00 57.48192
865.10 56.89086
865.20 56.63631
865.30 56.8666
865.40 57.77211
865.50 59.38173
865.60 61.54379
865.70 63.92035
865.80 66.11359
865.90 67.84298
866.00 69.04204
866.10 69.91817
866.20 70.77729
866.30 71.77579
866.40 72.88026
866.50 74.05221
866.60 75.24783
866.70 76.22074
866.80 76.63226
866.90 76.45761
867.00 76.04558
867.10 75.77911
867.20 75.85515
867.30 76.37133
867.40 77.32778
867.50 78.54753
867.60 79.74216
867.70 80.46794
867.80 80.22439
867.90 78.79235
868.00 76.37667
868.10 73.52428
868.20 70.95338
868.30 69.23247
868.40 68.5938
868.50 69.0939
868.60 70.65409
868.70 72.9577
868.80 75.45195
868.90 77.43175
869.00 78.2288
869.10 77.58397
869.20 75.76358
869.30 73.19783
869.40 70.34374
869.50 67.80808
869.60 66.21545
869.70 65.84841
869.80 66.52811
869.90 67.88451
870.00 69.54054
870.10 71.02022
870.20 71.78966
870.30 71.48108
870.40 70.10223
870.50 68.11035
870.60 66.15103
870.70 64.72104
870.80 64.11925
870.90 64.3969
871.00 65.37389
871.10 66.76475
871.20 68.21686
871.30 69.44359
871.40 70.28283
871.50 70.68979
871.60 70.74811
871.70 70.66894
871.80 70.62665
871.90 70.55559
872.00 70.2691
872.10 69.75653
872.20 69.16814
872.30 68.7309
872.40 68.62322
872.50 68.9119
872.60 69.62997
872.70 70.64764
872.80 71.69431
872.90 72.51623
873.00 72.94775
873.10 72.87833
873.20 72.32807
873.30 71.46725
873.40 70.50495
873.50 69.66569
873.60 69.13031
873.70 68.97812
873.80 69.23273
873.90 69.86151
874.00 70.74657
874.10 71.72011
874.20 72.66783
874.30 73.50963
874.40 74.17343
874.50 74.64647
874.60 74.96371
874.70 75.12065
874.80 75.07082
874.90 74.85027
875.00 74.54545
875.10 74.2377
875.20 73.97435
875.30 73.80261
875.40 73.86107
875.50 74.18047
875.60 74.45789
875.70 74.34822
875.80 73.78987
875.90 72.84886
876.00 71.67423
876.10 70.66694
876.20 70.30361
876.30 70.70021
876.40 71.42122
876.50 71.89003
876.60 71.84804
876.70 71.39936
876.80 70.99066
876.90 71.17699
877.00 72.49206
877.10 75.27602
877.20 79.42374
877.30 84.50533
877.40 89.72365
877.50 93.91257
877.60 95.90864
877.70 95.21762
877.80 92.32205
877.90 88.29025
878.00 84.21789
878.10 80.8507
878.20 78.39847
878.30 76.88936
878.40 76.27833
878.50 76.33066
878.60 76.72618
878.70 77.10735
878.80 77.09088
878.90 76.47415
879.00 75.60553
879.10 75.03964
879.20 75.28848
879.30 76.63354
879.40 78.93834
879.50 81.78709
879.60 84.56455
879.70 86.60886
879.80 87.48283
879.90 87.0987
880.00 85.61238
880.10 83.37582
880.20 81.07202
880.30 79.49899
880.40 78.99945
880.50 79.44263
880.60 80.45469
880.70 81.60848
880.80 82.60835
880.90 83.36006
881.00 84.02923
881.10 84.91665
881.20 86.20904
881.30 87.9134
881.40 89.96188
881.50 92.23711
881.60 94.51909
881.70 96.43102
881.80 97.53458
881.90 97.48887
882.00 96.26447
882.10 94.28283
882.20 92.16591
882.30 90.23097
882.40 88.2637
882.50 86.0813
882.60 83.67114
882.70 80.94938
882.80 77.99707
882.90 75.08187
883.00 72.47411
883.10 70.52946
883.20 69.57049
883.30 69.71174
883.40 70.94852
883.50 72.99751
883.60 75.41938
883.70 78.05843
883.80 81.09857
883.90 84.43162
884.00 87.67859
884.10 90.65547
884.20 93.0857
884.30 94.53278
884.40 94.73924
884.50 93.68687
884.60 91.69517
884.70 89.52368
884.80 87.89526
884.90 87.19924
885.00 87.55187
885.10 88.86886
885.20 90.86923
885.30 93.10762
885.40 95.09166
885.50 96.35006
885.60 96.66317
885.70 96.15402
885.80 95.13923
885.90 94.05833
886.00 93.32592
886.10 93.13826
886.20 93.49185
886.30 94.24045
886.40 95.10144
886.50 95.62328
886.60 95.44136
886.70 94.49078
886.80 92.94458
886.90 91.09809
887.00 89.16422
887.10 87.41274
887.20 86.24429
887.30 85.96713
887.40 86.76341
887.50 88.7365
887.60 91.78459
887.70 95.51673
887.80 99.37414
887.90 102.8434
888.00 105.5844
888.10 107.266
888.20 107.394
888.30 105.8907
888.40 103.5272
888.50 101.4052
888.60 100.423
888.70 101.0792
888.80 103.3183
888.90 106.5244
889.00 109.8459
889.10 112.4699
889.20 113.6911
889.30 113.1201
889.40 110.7521
889.50 107.1587
889.60 103.6174
889.70 101.3537
889.80 100.8269
889.90 101.8045
890.00 103.6395
890.10 105.5461
890.20 106.9866
890.30 107.691
890.40 107.4386
890.50 106.1465
890.60 104.0757
890.70 101.7151
890.80 99.60234
890.90 98.18136
891.00 97.61543
891.10 97.797
891.20 98.54537
891.30 99.69179
891.40 101.124
891.50 102.7126
891.60 103.9077
891.70 103.4584
891.80 100.5807
891.90 95.89341
892.00 90.58368
892.10 85.74043
892.20 82.18577
892.30 80.36172
892.40 80.35079
892.50 81.93864
892.60 84.62903
892.70 87.74283
892.80 90.55913
892.90 92.49434
893.00 93.49402
893.10 94.47126
893.20 96.27626
893.30 98.73837
893.40 101.255
893.50 103.2786
893.60 104.3239
893.70 104.0344
893.80 102.2362
893.90 98.75184
894.00 93.49794
894.10 86.7662
894.20 79.2892
894.30 72.12445
894.40 66.43536
894.50 63.15406
894.60 62.7509
894.70 65.16535
894.80 69.83935
894.90 75.88953
895.00 82.33678
895.10 88.31697
895.20 93.38561
895.30 97.45864
895.40 100.4211
895.50 102.2382
895.60 103.1189
895.70 103.301
895.80 103.0027
895.90 102.4309
896.00 101.7358
896.10 101.0623
896.20 100.5375
896.30 100.2393
896.40 100.2156
896.50 100.3942
896.60 100.5088
896.70 100.4207
896.80 100.3824
896.90 100.693
897.00 101.4298
897.10 102.5612
897.20 104.0019
897.30 105.652
897.40 107.4103
897.50 109.1118
897.60 110.6518
897.70 112.0103
897.80 113.0398
897.90 113.5799
898.00 113.6451
898.10 113.456
898.20 113.4943
898.30 114.2834
898.40 115.8742
898.50 117.6624
898.60 118.8212
898.70 118.6954
898.80 117.1221
898.90 114.4701
899.00 111.3203
899.10 108.264
899.20 105.9266
899.30 104.7906
899.40 105.0062
899.50 106.4973
899.60 108.8613
899.70 111.2065
899.80 112.8153
899.90 114.0124
900.00 114.1947
900.10 114.377
900.20 114.5593
900.30 114.7416
900.40 114.9239
900.50 115.1062
900.60 115.2885
900.70 115.4708
900.80 115.6531
900.90 116.2361
901.00 117.0256
901.10 117.815
901.20 118.6045
901.30 119.394
901.40 120.1834
901.50 120.9729
901.60 121.7624
901.70 122.5518
901.80 123.3413
901.90 124.1308
902.00 124.9202
902.10 125.7097
902.20 126.4992
902.30 127.2886
902.40 128.0781
902.50 128.8676
902.60 129.657
902.70 130.4465
902.80 131.236
902.90 132.0254
903.00 132.8149
903.10 133.6044
903.20 134.3938
903.30 135.1607
903.40 135.8937
903.50 136.6268
903.60 137.3598
903.70 138.0928
903.80 138.8258
903.90 139.5589
904.00 140.2919
904.10 141.0249
904.20 141.7579
904.30 142.4313
904.40 143.0425
904.50 143.6537
904.60 144.265
904.70 144.8762
904.80 145.4874
904.90 146.0987
905.00 146.7099
905.10 147.3211
905.20 147.9323
905.30 148.5436
905.40 149.1548
905.50 149.766
905.60 150.3772
905.70 150.9885
905.80 151.5997
905.90 152.2109
906.00 152.8221
906.10 153.4334
906.20 154.0446
906.30 154.6558
906.40 155.2671
906.50 155.8783
906.60 156.4895
906.70 157.0776
906.80 157.457
906.90 157.8365
907.00 158.216
907.10 158.5955
907.20 158.975
907.30 159.3545
907.40 159.734
907.50 160.1134
907.60 160.4929
907.70 160.7894
907.80 160.576
907.90 160.3626
908.00 160.1492
908.10 159.9357
908.20 159.7223
908.30 159.5089
908.40 159.2955
908.50 159.0821
908.60 158.8686
908.70 158.6552
908.80 158.4418
908.90 158.2284
909.00 158.015
909.10 157.8016
909.20 157.5881
909.30 157.3747
909.40 157.1613
909.50 156.9479
909.60 156.7345
909.70 156.5211
909.80 156.3076
909.90 156.0942
910.00 155.8808
910.10 155.6674
910.20 155.5722
910.30 155.5496
910.40 155.5269
910.50 155.5042
910.60 155.4815
910.70 155.4589
910.80 155.4362
910.90 155.4135
911.00 155.3908
911.10 155.3682
911.20 155.4069
911.30 155.4849
911.40 155.5629
911.50 155.6408
911.60 155.7188
911.70 155.7968
911.80 155.8748
911.90 155.9528
912.00 156.0307
912.10 156.1087
912.20 156.1867
912.30 156.2647
912.40 156.3427
912.50 156.4206
912.60 156.4986
912.70 156.5766
912.80 156.6546
912.90 156.7326
913.00 156.8105
913.10 156.8885
913.20 156.9665
913.30 157.0445
913.40 157.1224
913.50 157.2004
913.60 157.2784
913.70 157.3404
913.80 157.4018
913.90 157.4632
914.00 157.5246
914.10 157.5859
914.20 157.6473
914.30 157.7087
914.40 157.77
914.50 157.8314
914.60 157.8928
914.70 158.4541
914.80 159.0773
914.90 159.7004
915.00 160.3236
915.10 160.9467
915.20 161.5699
915.30 162.193
915.40 162.8162
915.50 163.4393
915.60 164.0625
915.70 164.6856
915.80 165.3087
915.90 165.9319
916.00 166.555
916.10 167.1782
916.20 167.8013
916.30 168.4245
916.40 169.0476
916.50 169.6708
916.60 170.2939
916.70 170.9171
916.80 171.5402
916.90 172.1633
917.00 172.7865
917.10 173.396
917.20 173.9054
917.30 174.4148
917.40 174.9242
917.50 175.4336
917.60 175.943
917.70 176.4524
917.80 176.9618
917.90 177.4712
918.00 177.9806
918.10 178.4861
918.20 178.6071
918.30 178.728
918.40 178.8489
918.50 178.9699
918.60 179.0908
918.70 179.2117
918.80 179.3326
918.90 179.4536
919.00 179.5745
919.10 179.6954
919.20 179.8164
919.30 179.9373
919.40 180.0582
919.50 180.1791
919.60 180.3001
919.70 180.421
919.80 180.5419
919.90 180.6629
920.00 180.7838
920.10 180.9047
920.20 181.0257
920.30 181.1466
920.40 181.2675
920.50 181.3884
920.60 181.5134
920.70 181.6706
920.80 181.8279
920.90 181.9851
921.00 182.1424
921.10 182.2997
921.20 182.4569
921.30 182.6142
921.40 182.7714
921.50 182.9287
921.60 183.0859
921.70 183.1573
921.80 183.2231
921.90 183.289
922.00 183.3548
922.10 183.4207
922.20 183.4866
922.30 183.5524
922.40 183.6183
922.50 183.6841
922.60 183.75
922.70 183.8158
922.80 183.8817
922.90 183.9475
923.00 184.0134
923.10 184.0792
923.20 184.1451
923.30 184.211
923.40 184.2768
923.50 184.3427
923.60 184.4085
923.70 184.4744
923.80 184.5402
923.90 184.6061
924.00 184.6719
924.10 184.7378
924.20 184.7667
924.30 184.7924
924.40 184.8181
924.50 184.8437
924.60 184.8694
924.70 184.8951
924.80 184.9208
924.90 184.9465
925.00 184.9722
925.10 184.9978
925.20 184.8001
925.30 184.5066
925.40 184.213
925.50 183.9195
925.60 183.626
925.70 183.3325
925.80 183.039
925.90 182.7454
926.00 182.4519
926.10 182.1584
926.20 181.8649
926.30 181.5714
926.40 181.2778
926.50 180.9843
926.60 180.6908
926.70 180.3973
926.80 180.1038
926.90 179.8102
927.00 179.5167
927.10 179.2232
927.20 178.9297
927.30 178.6362
927.40 178.3426
927.50 178.0491
927.60 177.7556
927.70 177.5526
927.80 177.4238
927.90 177.2949
928.00 177.166
928.10 177.0372
928.20 176.9083
928.30 176.7794
928.40 176.6505
928.50 176.5217
928.60 176.3928
928.70 176.4806
928.80 177.099
928.90 177.7174
929.00 178.3358
929.10 178.9542
929.20 179.5725
929.30 180.1909
929.40 180.8093
929.50 181.4277
929.60 182.0461
929.70 182.6645
929.80 183.2828
929.90 183.9012
930.00 184.5196
930.10 185.138
930.20 185.7564
930.30 186.3748
930.40 186.9931
930.50 187.6115
930.60 188.2299
930.70 188.8483
930.80 189.4667
930.90 190.0851
931.00 190.7034
931.10 191.3218
931.20 191.9383
931.30 192.463
931.40 192.9877
931.50 193.5123
931.60 194.037
931.70 194.5617
931.80 195.0863
931.90 195.611
932.00 196.1357
932.10 196.6603
932.20 197.185
932.30 197.0441
932.40 196.6179
932.50 196.1917
932.60 195.7655
932.70 195.3393
932.80 194.9132
932.90 194.487
933.00 194.0608
933.10 193.6346
933.20 193.2084
933.30 192.7822
933.40 192.3561
933.50 191.9299
933.60 191.5037
933.70 191.0775
933.80 190.6513
933.90 190.2251
934.00 189.799
934.10 189.3728
934.20 188.9466
934.30 188.5204
934.40 188.0942
934.50 187.668
934.60 187.2419
934.70 186.8157
934.80 186.3945
934.90 185.9845
935.00 185.5744
935.10 185.1644
935.20 184.7544
935.30 184.3443
935.40 183.9343
935.50 183.5243
935.60 183.1143
935.70 182.7042
935.80 182.2942
935.90 182.5962
936.00 182.9437
936.10 183.2912
936.20 183.6387
936.30 183.9862
936.40 184.3337
936.50 184.6812
936.60 185.0287
936.70 185.3762
936.80 185.7237
936.90 186.0711
937.00 186.4186
937.10 186.7661
937.20 187.1136
937.30 187.4611
937.40 187.8086
937.50 188.1561
937.60 188.5036
937.70 188.8511
937.80 189.1986
937.90 189.546
938.00 189.8935
938.10 190.241
938.20 190.5885
938.30 190.936
938.40 191.2954
938.50 191.6707
938.60 192.0459
938.70 192.4211
938.80 192.7964
938.90 193.1716
939.00 193.5468
939.10 193.9221
939.20 194.2973
939.30 194.6725
939.40 195.0461
939.50 195.3369
939.60 195.6276
939.70 195.9184
939.80 196.2092
939.90 196.5
940.00 196.7908
940.10 197.0816
940.20 197.3724
940.30 197.6632
940.40 197.954
940.50 198.2448
940.60 198.5356
940.70 198.8263
940.80 199.1171
940.90 199.4079
941.00 199.6987
941.10 199.9895
941.20 200.2803
941.30 200.5711
941.40 200.8619
941.50 201.1527
941.60 201.4435
941.70 201.7343
941.80 202.025
941.90 202.3158
942.00 202.6001
942.10 202.8741
942.20 203.1481
942.30 203.4222
942.40 203.6962
942.50 203.9702
942.60 204.2442
942.70 204.5183
942.80 204.7923
942.90 205.0663
943.00 205.3403
943.10 206.0218
943.20 206.734
943.30 207.4461
943.40 208.1583
943.50 208.8704
943.60 209.5825
943.70 210.2947
943.80 211.0068
943.90 211.719
944.00 212.4311
944.10 213.1433
944.20 213.8554
944.30 214.5675
944.40 215.2797
944.50 215.9918
944.60 216.704
944.70 217.4161
944.80 218.1283
944.90 218.8404
945.00 219.5525
945.10 220.2647
945.20 220.9768
945.30 221.689
945.40 222.4011
945.50 223.1133
945.60 223.8036
945.70 224.3947
945.80 224.9857
945.90 225.5768
946.00 226.1679
946.10 226.7589
946.20 227.35
946.30 227.941
946.40 228.5321
946.50 229.1231
946.60 229.7142
946.70 230.0348
946.80 230.2223
946.90 230.4097
947.00 230.5972
947.10 230.7846
947.20 230.9721
947.30 231.1595
947.40 231.347
947.50 231.5344
947.60 231.7219
947.70 231.9093
947.80 232.0967
947.90 232.2842
948.00 232.4716
948.10 232.6591
948.20 232.8465
948.30 233.034
948.40 233.2214
948.50 233.4089
948.60 233.5963
948.70 233.7838
948.80 233.9712
948.90 234.1587
949.00 234.3461
949.10 234.5335
949.20 234.721
949.30 234.933
949.40 235.1508
949.50 235.3686
949.60 235.5864
949.70 235.8042
949.80 236.022
949.90 236.2398
950.00 236.4576
950.10 236.6753
950.20 236.8931
950.30 237.0089
950.40 236.8188
950.50 236.6286
950.60 236.4384
950.70 236.2482
950.80 236.0581
950.90 235.8679
951.00 235.6777
951.10 235.4875
951.20 235.2974
951.30 235.1072
951.40 234.917
951.50 234.7268
951.60 234.5367
951.70 234.3465
951.80 234.1563
951.90 233.9661
952.00 233.776
952.10 233.5858
952.20 233.3956
952.30 233.2054
952.40 233.0153
952.50 232.8251
952.60 232.6349
952.70 232.4447
952.80 232.2546
952.90 232.0713
953.00 231.9069
953.10 231.7424
953.20 231.578
953.30 231.4135
953.40 231.2491
953.50 231.0846
953.60 230.9202
953.70 230.7557
953.80 230.5913
953.90 230.4268
954.00 230.6698
954.10 231.1225
954.20 231.5753
954.30 232.0281
954.40 232.4809
954.50 232.9336
954.60 233.3864
954.70 233.8392
954.80 234.292
954.90 234.7448
955.00 235.1975
955.10 235.6503
955.20 236.1031
955.30 236.5559
955.40 237.0086
955.50 237.4614
955.60 237.9142
955.70 238.367
955.80 238.8198
955.90 239.2725
956.00 239.7253
956.10 240.1781
956.20 240.6309
956.30 241.0836
956.40 241.5364
956.50 241.9892
956.60 242.4546
956.70 242.9295
956.80 243.4044
956.90 243.8792
957.00 244.3541
957.10 244.829
957.20 245.3039
957.30 245.7788
957.40 246.2537
957.50 246.7285
957.60 247.2034
957.70 246.945
957.80 246.6229
957.90 246.3007
958.00 245.9786
958.10 245.6564
958.20 245.3342
958.30 245.0121
958.40 244.6899
958.50 244.3678
958.60 244.0456
958.70 243.7234
958.80 243.4013
958.90 243.0791
959.00 242.757
959.10 242.4348
959.20 242.1126
959.30 241.7905
959.40 241.4683
959.50 241.1462
959.60 240.824
959.70 240.5018
959.80 240.1797
959.90 239.8575
960.00 239.5354
960.10 239.2132
960.20 238.891
960.30 238.6234
960.40 238.378
960.50 238.1327
960.60 237.8873
960.70 237.642
960.80 237.3966
960.90 237.1513
961.00 236.9059
961.10 236.6605
961.20 236.4152
961.30 236.1834
961.40 236.6158
961.50 237.0483
961.60 237.4807
961.70 237.9132
961.80 238.3456
961.90 238.7781
962.00 239.2105
962.10 239.643
962.20 240.0754
962.30 240.5079
962.40 240.9403
962.50 241.3728
962.60 241.8052
962.70 242.2377
962.80 242.6701
962.90 243.1026
963.00 243.535
963.10 243.9675
963.20 244.3999
963.30 244.8324
963.40 245.2648
963.50 245.6973
963.60 246.1297
963.70 246.5622
963.80 246.9946
963.90 247.4271
964.00 247.8031
964.10 248.1551
964.20 248.507
964.30 248.8589
964.40 249.2108
964.50 249.5627
964.60 249.9146
964.70 250.2665
964.80 250.6184
964.90 250.9703
965.00 251.3222
965.10 251.3871
965.20 251.4401
965.30 251.4931
965.40 251.5461
965.50 251.599
965.60 251.652
965.70 251.705
965.80 251.758
965.90 251.811
966.00 251.8639
966.10 251.9169
966.20 251.9699
966.30 252.0229
966.40 252.0759
966.50 252.1288
966.60 252.1818
966.70 252.2348
966.80 252.2878
966.90 252.3408
967.00 252.3937
967.10 252.4467
967.20 252.4997
967.30 252.5527
967.40 252.6057
967.50 252.6587
967.60 252.7116
967.70 252.788
967.80 252.8851
967.90 252.9822
968.00 253.0793
968.10 253.1764
968.20 253.2735
968.30 253.3706
968.40 253.4677
968.50 253.5648
968.60 253.6619
968.70 253.759
968.80 253.7867
968.90 253.7899
969.00 253.7932
969.10 253.7965
969.20 253.7998
969.30 253.8031
969.40 253.8064
969.50 253.8097
969.60 253.813
969.70 253.8163
969.80 253.8196
969.90 253.8229
970.00 253.8262
970.10 253.8295
970.20 253.8328
970.30 253.8361
970.40 253.8394
970.50 253.8427
970.60 253.8459
970.70 253.8492
970.80 253.8525
970.90 253.8558
971.00 253.8591
971.10 253.8624
971.20 253.8657
971.30 253.869
971.40 253.8647
971.50 253.8302
971.60 253.7956
971.70 253.7611
971.80 253.7266
971.90 253.692
972.00 253.6575
972.10 253.6229
972.20 253.5884
972.30 253.5539
972.40 253.5193
972.50 253.6707
972.60 254.1386
972.70 254.6065
972.80 255.0744
972.90 255.5423
973.00 256.0102
973.10 256.4782
973.20 256.9461
973.30 257.414
973.40 257.8819
973.50 258.3498
973.60 258.8177
973.70 259.2856
973.80 259.7536
973.90 260.2215
974.00 260.6894
974.10 261.1573
974.20 261.6252
974.30 262.0931
974.40 262.561
974.50 263.0289
974.60 263.4969
974.70 263.9648
974.80 264.4327
974.90 264.9006
975.00 265.3685
975.10 265.8364
975.20 266.2733
975.30 266.6982
975.40 267.1231
975.50 267.548
975.60 267.9728
975.70 268.3977
975.80 268.8226
975.90 269.2474
976.00 269.6723
976.10 270.0972
976.20 270.522
976.30 270.3968
976.40 270.1745
976.50 269.9521
976.60 269.7298
976.70 269.5075
976.80 269.2852
976.90 269.0629
977.00 268.8406
977.10 268.6182
977.20 268.3959
977.30 268.1736
977.40 267.9513
977.50 267.729
977.60 267.5066
977.70 267.2843
977.80 267.062
977.90 266.8397
978.00 266.6174
978.10 266.395
978.20 266.1727
978.30 265.9504
978.40 265.7281
978.50 265.5058
978.60 265.2835
978.70 265.0611
978.80 264.8388
978.90 264.609
979.00 264.312
979.10 264.0149
979.20 263.7179
979.30 263.4209
979.40 263.1238
979.50 262.8268
979.60 262.5298
979.70 262.2327
979.80 261.9357
979.90 261.6386
980.00 261.4506
980.10 261.7592
980.20 262.0678
980.30 262.3764
980.40 262.685
980.50 262.9936
980.60 263.3022
980.70 263.6108
980.80 263.9194
980.90 264.228
981.00 264.5366
981.10 264.8452
981.20 265.1539
981.30 265.4625
981.40 265.7711
981.50 266.0797
981.60 266.3883
981.70 266.6969
981.80 267.0055
981.90 267.3141
982.00 267.6227
982.10 267.9313
982.20 268.2399
982.30 268.5485
982.40 268.8571
982.50 269.1657
982.60 269.4743
982.70 269.756
982.80 269.9808
982.90 270.2055
983.00 270.4302
983.10 270.6549
983.20 270.8796
983.30 271.1043
983.40 271.329
983.50 271.5537
983.60 271.7784
983.70 272.0031
983.80 271.9605
983.90 271.4428
984.00 270.925
984.10 270.4072
984.20 269.8894
984.30 269.3716
984.40 268.8538
984.50 268.336
984.60 267.8182
984.70 267.3004
984.80 266.7826
984.90 266.2649
985.00 265.7471
985.10 265.2293
985.20 264.7115
985.30 264.1937
985.40 263.6759
985.50 263.1581
985.60 262.6403
985.70 262.1225
985.80 261.6047
985.90 261.087
986.00 260.5692
986.10 260.0514
986.20 259.5336
986.30 259.0158
986.40 258.498
986.50 258.0048
986.60 257.5485
986.70 257.0922
986.80 256.6359
986.90 256.1796
987.00 255.7234
987.10 255.2671
987.20 254.8108
987.30 254.3545
987.40 253.8982
987.50 253.4419
987.60 253.1401
987.70 253.07
987.80 253
987.90 252.9299
988.00 252.8598
988.10 252.7897
988.20 252.7197
988.30 252.6496
988.40 252.5795
988.50 252.5095
988.60 252.4394
988.70 252.3693
988.80 252.2993
988.90 252.2292
989.00 252.1591
989.10 252.0891
989.20 252.019
989.30 251.9489
989.40 251.8789
989.50 251.8088
989.60 251.7387
989.70 251.6687
989.80 251.5986
989.90 251.5285
990.00 251.4585
990.10 251.3884
990.20 251.3183
990.30 251.2283
990.40 251.0977
990.50 250.9671
990.60 250.8366
990.70 250.706
990.80 250.5754
990.90 250.4448
991.00 250.3142
991.10 250.1837
991.20 250.0531
991.30 249.9225
991.40 249.7522
991.50 249.4846
991.60 249.2169
991.70 248.9493
991.80 248.6817
991.90 248.4141
992.00 248.1465
992.10 247.8789
992.20 247.6112
992.30 247.3436
992.40 247.076
992.50 246.8084
992.60 246.5408
992.70 246.2731
992.80 246.0055
992.90 245.7379
993.00 245.4703
993.10 245.2027
993.20 244.9351
993.30 244.6674
993.40 244.3998
993.50 244.1322
993.60 243.8646
993.70 243.597
993.80 243.3293
993.90 243.0617
994.00 242.7941
994.10 242.5395
994.20 242.3806
994.30 242.2216
994.40 242.0627
994.50 241.9037
994.60 241.7448
994.70 241.5858
994.80 241.4269
994.90 241.2679
995.00 241.109
995.10 240.95
995.20 240.7736
995.30 240.0319
995.40 239.2902
995.50 238.5486
995.60 237.8069
995.70 237.0652
995.80 236.3235
995.90 235.5819
996.00 234.8402
996.10 234.0985
996.20 233.3568
996.30 232.6152
996.40 231.8735
996.50 231.1318
996.60 230.3901
996.70 229.6485
996.80 228.9068
996.90 228.1651
997.00 227.4235
997.10 226.6818
997.20 225.9401
997.30 225.1984
997.40 224.4568
997.50 223.7151
997.60 222.9734
997.70 222.2317
997.80 221.4901
997.90 220.7484
998.00 220.0193
998.10 219.2941
998.20 218.5688
998.30 217.8436
998.40 217.1183
998.50 216.3931
998.60 215.6678
998.70 214.9426
998.80 214.2173
998.90 213.4921
999.00 212.7668
999.10 212.4226
999.20 212.2928
999.30 212.163
999.40 212.0332
999.50 211.9034
999.60 211.7735
999.70 211.6437
999.80 211.5139
999.90 211.3841
1000.00 211.2542
1000.10 211.1244
1000.20 210.9946
1000.30 210.8648
1000.40 210.7349
1000.50 210.6051
1000.60 210.4753
1000.70 210.3455
1000.80 210.2156
1000.90 210.0858
1001.00 209.956
1001.10 209.8262
1001.20 209.6964
1001.30 209.5665
1001.40 209.4367
1001.50 209.3069
1001.60 209.1771
1001.70 209.0472
1001.80 208.9588
1001.90 208.9669
1002.00 208.9751
1002.10 208.9832
1002.20 208.9913
1002.30 208.9995
1002.40 209.0076
1002.50 209.0157
1002.60 209.0239
1002.70 209.032
1002.80 209.0401
1002.90 209.0819
1003.00 209.4264
1003.10 209.771
1003.20 210.1155
1003.30 210.46
1003.40 210.8045
1003.50 211.1491
1003.60 211.4936
1003.70 211.8381
1003.80 212.1827
1003.90 212.5272
1004.00 212.8717
1004.10 213.2162
1004.20 213.5608
1004.30 213.9053
1004.40 214.2498
1004.50 214.5944
1004.60 214.9389
1004.70 215.2834
1004.80 215.6279
1004.90 215.9725
1005.00 216.317
1005.10 216.6615
1005.20 217.0061
1005.30 217.3506
1005.40 217.6951
1005.50 218.0396
1005.60 218.3842
1005.70 218.7079
1005.80 219.0228
1005.90 219.3376
1006.00 219.6525
1006.10 219.9673
1006.20 220.2822
1006.30 220.597
1006.40 220.9119
1006.50 221.2267
1006.60 221.5416
1006.70 221.8564
1006.80 222.2579
1006.90 222.7894
1007.00 223.3209
1007.10 223.8524
1007.20 224.3839
1007.30 224.9154
1007.40 225.4469
1007.50 225.9784
1007.60 226.5099
1007.70 227.0414
1007.80 227.5729
1007.90 228.1044
1008.00 228.6359
1008.10 229.1674
1008.20 229.6989
1008.30 230.2304
1008.40 230.7619
1008.50 231.2934
1008.60 231.8249
1008.70 232.3564
1008.80 232.8879
1008.90 233.4194
1009.00 233.9509
1009.10 234.4824
1009.20 235.0139
1009.30 235.5454
1009.40 236.0769
1009.50 236.6084
1009.60 237.1299
1009.70 237.6502
1009.80 238.1706
1009.90 238.6909
1010.00 239.2113
1010.10 239.7316
1010.20 240.252
1010.30 240.7724
1010.40 241.2927
1010.50 241.8131
1010.60 242.3334
1010.70 242.5293
1010.80 242.5088
1010.90 242.4883
1011.00 242.4678
1011.10 242.4474
1011.20 242.4269
1011.30 242.4064
1011.40 242.3859
1011.50 242.3654
1011.60 242.345
1011.70 242.3245
1011.80 242.304
1011.90 242.2835
1012.00 242.263
1012.10 242.2426
1012.20 242.2221
1012.30 242.2016
1012.40 242.1811
1012.50 242.1606
1012.60 242.1402
1012.70 242.1197
1012.80 242.0992
1012.90 242.0787
1013.00 242.0582
1013.10 242.0378
1013.20 242.0173
1013.30 241.9968
1013.40 241.9763
1013.50 241.8622
1013.60 241.7481
1013.70 241.6339
1013.80 241.5198
1013.90 241.4057
1014.00 241.2915
1014.10 241.1774
1014.20 241.0632
1014.30 240.9491
1014.40 240.835
1014.50 240.7208
1014.60 240.9849
1014.70 241.4111
1014.80 241.8372
1014.90 242.2634
1015.00 242.6895
1015.10 243.1157
1015.20 243.5419
1015.30 243.968
1015.40 244.3942
1015.50 244.8203
1015.60 245.2465
1015.70 245.6727
1015.80 246.0988
1015.90 246.525
1016.00 246.9511
1016.10 247.3773
1016.20 247.8034
1016.30 248.2296
1016.40 248.6558
1016.50 249.0819
1016.60 249.5081
1016.70 249.9342
1016.80 250.3604
1016.90 250.7865
1017.00 251.2127
1017.10 251.6389
1017.20 252.065
1017.30 252.4912
1017.40 253.0419
1017.50 253.5926
1017.60 254.1433
1017.70 254.694
1017.80 255.2447
1017.90 255.7955
1018.00 256.3462
1018.10 256.8969
1018.20 257.4476
1018.30 257.9983
1018.40 258.549
1018.50 258.864
1018.60 259.0219
1018.70 259.1798
1018.80 259.3377
1018.90 259.4956
1019.00 259.6535
1019.10 259.8114
1019.20 259.9693
1019.30 260.1272
1019.40 260.2851
1019.50 260.443
1019.60 260.6009
1019.70 260.7588
1019.80 260.9167
1019.90 261.0746
1020.00 261.2325
1020.10 261.3904
1020.20 261.5483
1020.30 261.7062
1020.40 261.8641
1020.50 262.022
1020.60 262.1799
1020.70 262.3378
1020.80 262.4957
1020.90 262.6536
1021.00 262.8114
1021.10 262.9693
1021.20 263.1272
1021.30 263.2708
1021.40 263.4107
1021.50 263.5506
1021.60 263.6905
1021.70 263.8304
1021.80 263.9703
1021.90 264.1102
1022.00 264.2502
1022.10 264.3901
1022.20 264.53
1022.30 264.6699
1022.40 264.713
1022.50 264.6591
1022.60 264.6053
1022.70 264.5515
1022.80 264.4976
1022.90 264.4438
1023.00 264.39
1023.10 264.3362
1023.20 264.2823
1023.30 264.2285
1023.40 264.1747
1023.50 264.1208
1023.60 264.067
1023.70 264.0132
1023.80 263.9594
1023.90 263.9055
1024.00 263.8517
1024.10 263.7979
1024.20 263.744
1024.30 263.6902
1024.40 263.6364
1024.50 263.5826
1024.60 263.5287
1024.70 263.4749
1024.80 263.4211
1024.90 263.3672
1025.00 263.3134
1025.10 263.2596
1025.20 263.2054
1025.30 263.1507
1025.40 263.0961
1025.50 263.0415
1025.60 262.9869
1025.70 262.9323
1025.80 262.8776
1025.90 262.823
1026.00 262.7684
1026.10 262.7138
1026.20 262.6592
1026.30 262.6339
1026.40 262.8728
1026.50 263.1117
1026.60 263.3505
1026.70 263.5894
1026.80 263.8283
1026.90 264.0672
1027.00 264.3061
1027.10 264.545
1027.20 264.7838
1027.30 265.0227
1027.40 265.2616
1027.50 265.5005
1027.60 265.7394
1027.70 265.9782
1027.80 266.2171
1027.90 266.456
1028.00 266.6949
1028.10 266.9338
1028.20 267.1727
1028.30 267.4115
1028.40 267.6504
1028.50 267.8893
1028.60 268.1282
1028.70 268.3671
1028.80 268.606
1028.90 268.8448
1029.00 269.0837
1029.10 269.3114
1029.20 269.4381
1029.30 269.5648
1029.40 269.6915
1029.50 269.8182
1029.60 269.9449
1029.70 270.0716
1029.80 270.1984
1029.90 270.3251
1030.00 270.4518
1030.10 270.5785
1030.20 270.7052
1030.30 270.7795
1030.40 270.8312
1030.50 270.883
1030.60 270.9348
1030.70 270.9866
1030.80 271.0384
1030.90 271.0902
1031.00 271.142
1031.10 271.1937
1031.20 271.2455
1031.30 271.2973
1031.40 271.3491
1031.50 271.4009
1031.60 271.4527
1031.70 271.5045
1031.80 271.5563
1031.90 271.608
1032.00 271.6598
1032.10 271.7116
1032.20 271.7634
1032.30 271.8152
1032.40 271.867
1032.50 271.9188
1032.60 271.9705
1032.70 272.0223
1032.80 272.0741
1032.90 272.1259
1033.00 272.1777
1033.10 272.3628
1033.20 272.6369
1033.30 272.9109
1033.40 273.185
1033.50 273.459
1033.60 273.7331
1033.70 274.0071
1033.80 274.2812
1033.90 274.5552
1034.00 274.8293
1034.10 275.1033
1034.20 275.4178
1034.30 276.0964
1034.40 276.7749
1034.50 277.4535
1034.60 278.132
1034.70 278.8106
1034.80 279.4891
1034.90 280.1677
1035.00 280.8462
1035.10 281.5248
1035.20 282.2033
1035.30 282.8818
1035.40 283.5604
1035.50 284.2389
1035.60 284.9175
1035.70 285.596
1035.80 286.2746
1035.90 286.9531
1036.00 287.6317
1036.10 288.3102
1036.20 288.9888
1036.30 289.6673
1036.40 290.3459
1036.50 291.0244
1036.60 291.7029
1036.70 292.3815
1036.80 293.06
1036.90 293.7386
1037.00 294.4171
1037.10 294.9916
1037.20 295.5545
1037.30 296.1173
1037.40 296.6802
1037.50 297.2431
1037.60 297.806
1037.70 298.3689
1037.80 298.9317
1037.90 299.4946
1038.00 300.0575
1038.10 300.6204
1038.20 300.9518
1038.30 300.9361
1038.40 300.9204
1038.50 300.9046
1038.60 300.8889
1038.70 300.8732
1038.80 300.8575
1038.90 300.8417
1039.00 300.826
1039.10 300.8103
1039.20 300.7946
1039.30 300.7788
1039.40 300.7631
1039.50 300.7474
1039.60 300.7317
1039.70 300.7159
1039.80 300.7002
1039.90 300.6845
1040.00 300.6688
1040.10 300.6531
1040.20 300.6373
1040.30 300.6216
1040.40 300.6059
1040.50 300.5902
1040.60 300.5744
1040.70 300.5587
1040.80 300.543
1040.90 300.5273
1041.00 300.4959
1041.10 300.4019
1041.20 300.308
1041.30 300.214
1041.40 300.1201
1041.50 300.0261
1041.60 299.9322
1041.70 299.8382
1041.80 299.7443
1041.90 299.6503
1042.00 299.5564
1042.10 299.4624
1042.20 299.6817
1042.30 300.1099
1042.40 300.5381
1042.50 300.9662
1042.60 301.3944
1042.70 301.8225
1042.80 302.2507
1042.90 302.6788
1043.00 303.107
1043.10 303.5351
1043.20 303.9633
1043.30 304.3914
1043.40 304.8196
1043.50 305.2477
1043.60 305.6759
1043.70 306.1041
1043.80 306.5322
1043.90 306.9604
1044.00 307.3885
1044.10 307.8167
1044.20 308.2448
1044.30 308.673
1044.40 309.1011
1044.50 309.5293
1044.60 309.9574
1044.70 310.3856
1044.80 310.8137
1044.90 311.2419
1045.00 311.7044
1045.10 312.2471
1045.20 312.7898
1045.30 313.3325
1045.40 313.8752
1045.50 314.4178
1045.60 314.9605
1045.70 315.5032
1045.80 316.0459
1045.90 316.5886
1046.00 317.1313
1046.10 317.674
1046.20 317.8582
1046.30 317.8889
1046.40 317.9196
1046.50 317.9503
1046.60 317.981
1046.70 318.0117
1046.80 318.0424
1046.90 318.0731
1047.00 318.1038
1047.10 318.1345
1047.20 318.1652
1047.30 318.1959
1047.40 318.2266
1047.50 318.2573
1047.60 318.288
1047.70 318.3186
1047.80 318.3493
1047.90 318.38
1048.00 318.4107
1048.10 318.4414
1048.20 318.4721
1048.30 318.5028
1048.40 318.5335
1048.50 318.5642
1048.60 318.5949
1048.70 318.6256
1048.80 318.6563
1048.90 318.687
1049.00 318.6927
1049.10 318.6401
1049.20 318.5875
1049.30 318.5349
1049.40 318.4823
1049.50 318.4297
1049.60 318.3771
1049.70 318.3245
1049.80 318.2719
1049.90 318.2193
1050.00 318.1667
1050.10 318.1141
1050.20 318.1629
1050.30 318.2552
1050.40 318.3475
1050.50 318.4398
1050.60 318.5321
1050.70 318.6243
1050.80 318.7166
1050.90 318.8089
1051.00 318.9012
1051.10 318.9935
1051.20 319.0857
1051.30 319.178
1051.40 319.2703
1051.50 319.3626
1051.60 319.4548
1051.70 319.5471
1051.80 319.6394
1051.90 319.7317
1052.00 319.824
1052.10 319.9162
1052.20 320.0085
1052.30 320.1008
1052.40 320.1931
1052.50 320.2853
1052.60 320.3776
1052.70 320.4699
1052.80 320.5622
1052.90 320.6545
1053.00 320.7557
1053.10 320.8931
1053.20 321.0304
1053.30 321.1677
1053.40 321.305
1053.50 321.4423
1053.60 321.5796
1053.70 321.7169
1053.80 321.8543
1053.90 321.9916
1054.00 322.1289
1054.10 322.2662
1054.20 322.4439
1054.30 322.6618
1054.40 322.8798
1054.50 323.0977
1054.60 323.3157
1054.70 323.5337
1054.80 323.7516
1054.90 323.9696
1055.00 324.1876
1055.10 324.4055
1055.20 324.6235
1055.30 324.8415
1055.40 325.0594
1055.50 325.2774
1055.60 325.4954
1055.70 325.7133
1055.80 325.9313
1055.90 326.1493
1056.00 326.3672
1056.10 326.5852
1056.20 326.8032
1056.30 327.0211
1056.40 327.2391
1056.50 327.4571
1056.60 327.675
1056.70 327.893
1056.80 328.111
1056.90 328.3289
1057.00 328.5469
1057.10 328.6552
1057.20 328.7513
1057.30 328.8475
1057.40 328.9436
1057.50 329.0397
1057.60 329.1358
1057.70 329.232
1057.80 329.3281
1057.90 329.4242
1058.00 329.5204
1058.10 329.6165
1058.20 329.7098
1058.30 329.7965
1058.40 329.8832
1058.50 329.9699
1058.60 330.0566
1058.70 330.1433
1058.80 330.23
1058.90 330.3167
1059.00 330.4033
1059.10 330.49
1059.20 330.5767
1059.30 330.6634
1059.40 330.7501
1059.50 330.8368
1059.60 330.9235
1059.70 331.0102
1059.80 331.0969
1059.90 331.1836
1060.00 331.2703
1060.10 331.357
1060.20 331.4437
1060.30 331.5304
1060.40 331.6171
1060.50 331.7038
1060.60 331.7905
1060.70 331.8772
1060.80 331.9639
1060.90 332.0505
1061.00 332.1372
1061.10 332.3116
1061.20 332.5444
1061.30 332.7772
1061.40 333.01
1061.50 333.2428
1061.60 333.4755
1061.70 333.7083
1061.80 333.9411
1061.90 334.1739
1062.00 334.4067
1062.10 334.6395
1062.20 334.8723
1062.30 335.1379
1062.40 335.4072
1062.50 335.6765
1062.60 335.9459
1062.70 336.2152
1062.80 336.4845
1062.90 336.7538
1063.00 337.0231
1063.10 337.2924
1063.20 337.5617
1063.30 337.831
1063.40 338.1003
1063.50 338.3696
1063.60 338.6389
1063.70 338.9082
1063.80 339.1775
1063.90 339.4468
1064.00 339.7161
1064.10 339.9854
1064.20 340.2547
1064.30 340.524
1064.40 340.7933
1064.50 341.0626
1064.60 341.3319
1064.70 341.6012
1064.80 341.8705
1064.90 342.1398
1065.00 342.4091
1065.10 342.6677
1065.20 342.8837
1065.30 343.0997
1065.40 343.3156
1065.50 343.5316
1065.60 343.7476
1065.70 343.9636
1065.80 344.1795
1065.90 344.3955
1066.00 344.6115
1066.10 344.8275
1066.20 345.0434
1066.30 345.2694
1066.40 345.5104
1066.50 345.7514
1066.60 345.9923
1066.70 346.2333
1066.80 346.4743
1066.90 346.7153
1067.00 346.9562
1067.10 347.1972
1067.20 347.4382
1067.30 347.6792
1067.40 347.9201
1067.50 348.1611
1067.60 348.4021
1067.70 348.6431
1067.80 348.884
1067.90 349.125
1068.00 349.366
1068.10 349.607
1068.20 349.848
1068.30 350.0889
1068.40 350.3299
1068.50 350.5709
1068.60 350.8119
1068.70 351.0528
1068.80 351.2938
1068.90 351.5348
1069.00 351.7758
1069.10 352.0167
1069.20 352.2675
1069.30 352.5248
1069.40 352.782
1069.50 353.0393
1069.60 353.2965
1069.70 353.5538
1069.80 353.8111
1069.90 354.0683
1070.00 354.3256
1070.10 354.5829
1070.20 354.8401
1070.30 355.0974
1070.40 355.3318
1070.50 355.5636
1070.60 355.7955
1070.70 356.0273
1070.80 356.2592
1070.90 356.491
1071.00 356.7229
1071.10 356.9547
1071.20 357.1866
1071.30 357.4184
1071.40 357.6503
1071.50 357.8821
1071.60 358.114
1071.70 358.3458
1071.80 358.5776
1071.90 358.8095
1072.00 359.0413
1072.10 359.2732
1072.20 359.505
1072.30 359.7369
1072.40 359.9687
1072.50 360.2006
1072.60 360.4324
1072.70 360.6643
1072.80 360.8961
1072.90 361.128
1073.00 361.3598
1073.10 361.5917
1073.20 361.8235
1073.30 362.101
1073.40 362.3785
1073.50 362.656
1073.60 362.9335
1073.70 363.211
1073.80 363.4886
1073.90 363.7661
1074.00 364.0436
1074.10 364.3211
1074.20 364.5986
1074.30 364.8761
1074.40 365.1565
1074.50 365.4486
1074.60 365.7406
1074.70 366.0327
1074.80 366.3248
1074.90 366.6168
1075.00 366.9089
1075.10 367.201
1075.20 367.4931
1075.30 367.7851
1075.40 368.0772
1075.50 368.3693
1075.60 368.6613
1075.70 368.9534
1075.80 369.2455
1075.90 369.5375
1076.00 369.8296
1076.10 370.1217
1076.20 370.4138
1076.30 370.7058
1076.40 370.9979
1076.50 371.29
1076.60 371.582
1076.70 371.8741
1076.80 372.1662
1076.90 372.4582
1077.00 372.7503
1077.10 373.0424
1077.20 373.3345
1077.30 373.6193
1077.40 373.8752
1077.50 374.131
1077.60 374.3869
1077.70 374.6427
1077.80 374.8986
1077.90 375.1545
1078.00 375.4103
1078.10 375.6662
1078.20 375.9221
1078.30 376.1779
1078.40 376.4338
1078.50 376.6129
1078.60 376.677
1078.70 376.7411
1078.80 376.8051
1078.90 376.8692
1079.00 376.9333
1079.10 376.9973
1079.20 377.0614
1079.30 377.1255
1079.40 377.1895
1079.50 377.2536
1079.60 377.3177
1079.70 377.3817
1079.80 377.4458
1079.90 377.5099
1080.00 377.574
1080.10 377.638
1080.20 377.7021
1080.30 377.7662
1080.40 377.8302
1080.50 377.8943
1080.60 377.9584
1080.70 378.0224
1080.80 378.0865
1080.90 378.1506
1081.00 378.2146
1081.10 378.2787
1081.20 378.3428
1081.30 378.4068
1081.40 378.4151
1081.50 378.3398
1081.60 378.2645
1081.70 378.1892
1081.80 378.1138
1081.90 378.0385
1082.00 377.9632
1082.10 377.8878
1082.20 377.8125
1082.30 377.7372
1082.40 377.6618
1082.50 377.5865
1082.60 377.7259
1082.70 378.08
1082.80 378.4341
1082.90 378.7882
1083.00 379.1424
1083.10 379.4965
1083.20 379.8506
1083.30 380.2047
1083.40 380.5588
1083.50 380.9129
1083.60 381.267
1083.70 381.6212
1083.80 381.9753
1083.90 382.3294
1084.00 382.6835
1084.10 383.0376
1084.20 383.3917
1084.30 383.7458
1084.40 384.1
1084.50 384.4541
1084.60 384.8082
1084.70 385.1623
1084.80 385.5164
1084.90 385.8705
1085.00 386.2246
1085.10 386.5788
1085.20 386.9329
1085.30 387.287
1085.40 387.6411
1085.50 388.053
1085.60 388.5517
1085.70 389.0504
1085.80 389.5491
1085.90 390.0478
1086.00 390.5465
1086.10 391.0452
1086.20 391.5439
1086.30 392.0426
1086.40 392.5412
1086.50 393.0399
1086.60 393.5386
1086.70 393.8963
1086.80 394.1599
1086.90 394.4235
1087.00 394.6871
1087.10 394.9508
1087.20 395.2144
1087.30 395.478
1087.40 395.7416
1087.50 396.0053
1087.60 396.2689
1087.70 396.5325
1087.80 396.7961
1087.90 397.0597
1088.00 397.3234
1088.10 397.587
1088.20 397.8506
1088.30 398.1142
1088.40 398.3778
1088.50 398.6415
1088.60 398.9051
1088.70 399.1687
1088.80 399.4323
1088.90 399.696
1089.00 399.9596
1089.10 400.2232
1089.20 400.4868
1089.30 400.7504
1089.40 401.0141
1089.50 401.2777
1089.60 401.4958
1089.70 401.6455
1089.80 401.7953
1089.90 401.945
1090.00 402.0947
1090.10 402.2445
1090.20 402.3942
1090.30 402.544
1090.40 402.6937
1090.50 402.8435
1090.60 402.9932
1090.70 403.143
1090.80 403.1703
1090.90 403.0753
1091.00 402.9803
1091.10 402.8853
1091.20 402.7903
1091.30 402.6953
1091.40 402.6003
1091.50 402.5053
1091.60 402.4103
1091.70 402.3153
1091.80 402.2203
1091.90 402.1253
1092.00 402.0303
1092.10 401.9353
1092.20 401.8403
1092.30 401.7453
1092.40 401.6503
1092.50 401.5553
1092.60 401.4603
1092.70 401.3653
1092.80 401.2703
1092.90 401.1753
1093.00 401.0803
1093.10 400.9853
1093.20 400.8903
1093.30 400.7953
1093.40 400.7003
1093.50 400.6053
1093.60 400.5103
1093.70 400.4159
1093.80 400.3229
1093.90 400.2299
1094.00 400.1369
1094.10 400.0439
1094.20 399.9509
1094.30 399.8579
1094.40 399.7649
1094.50 399.6719
1094.60 399.5789
1094.70 399.4859
1094.80 399.3929
1094.90 399.4558
1095.00 399.7523
1095.10 400.0489
1095.20 400.3454
1095.30 400.642
1095.40 400.9386
1095.50 401.2351
1095.60 401.5317
1095.70 401.8282
1095.80 402.1248
1095.90 402.4214
1096.00 402.7179
1096.10 403.0145
1096.20 403.311
1096.30 403.6076
1096.40 403.9042
1096.50 404.2007
1096.60 404.4973
1096.70 404.7938
1096.80 405.0904
1096.90 405.387
1097.00 405.6835
1097.10 405.9801
1097.20 406.2766
1097.30 406.5732
1097.40 406.8697
1097.50 407.1663
1097.60 407.4629
1097.70 407.7594
1097.80 408.059
1097.90 408.3859
1098.00 408.7128
1098.10 409.0397
1098.20 409.3666
1098.30 409.6935
1098.40 410.0204
1098.50 410.3473
1098.60 410.6742
1098.70 411.0011
1098.80 411.328
1098.90 411.6549
1099.00 411.9284
1099.10 411.7214
1099.20 411.5144
1099.30 411.3073
1099.40 411.1003
1099.50 410.8933
1099.60 410.6863
1099.70 410.4792
1099.80 410.2722
1099.90 410.0652
1100.00 409.8581
1100.10 409.6511
1100.20 409.4441
1100.30 409.2371
1100.40 409.03
1100.50 408.823
1100.60 408.616
1100.70 408.4089
1100.80 408.2019
1100.90 407.9949
1101.00 407.7878
1101.10 407.5808
1101.20 407.3738
1101.30 407.1668
1101.40 406.9597
1101.50 406.7527
1101.60 406.5457
1101.70 406.3386
1101.80 406.1316
1101.90 405.9246
1102.00 405.7097
1102.10 405.4928
1102.20 405.2759
1102.30 405.059
1102.40 404.842
1102.50 404.6251
1102.60 404.4082
1102.70 404.1913
1102.80 403.9744
1102.90 403.7575
1103.00 403.5406
1103.10 403.3237
1103.20 403.1009
1103.30 402.8766
1103.40 402.6523
1103.50 402.428
1103.60 402.2038
1103.70 401.9795
1103.80 401.7552
1103.90 401.5309
1104.00 401.3066
1104.10 401.0823
1104.20 400.858
1104.30 400.6337
1104.40 400.4094
1104.50 400.1851
1104.60 399.9609
1104.70 399.7366
1104.80 399.5123
1104.90 399.288
1105.00 399.0637
1105.10 398.8394
1105.20 398.6151
1105.30 398.3908
1105.40 398.1665
1105.50 397.9422
1105.60 397.7179
1105.70 397.4937
1105.80 397.2694
1105.90 397.0451
1106.00 396.8208
1106.10 396.5576
1106.20 396.2361
1106.30 395.9146
1106.40 395.5931
1106.50 395.2715
1106.60 394.95
1106.70 394.6285
1106.80 394.307
1106.90 393.9855
1107.00 393.664
1107.10 393.3425
1107.20 393.0209
1107.30 392.7348
1107.40 392.5019
1107.50 392.2689
1107.60 392.0359
1107.70 391.8029
1107.80 391.57
1107.90 391.337
1108.00 391.104
1108.10 390.871
1108.20 390.638
1108.30 390.4051
1108.40 390.1721
1108.50 389.9391
1108.60 389.7061
1108.70 389.4732
1108.80 389.2402
1108.90 389.0072
1109.00 388.7742
1109.10 388.5412
1109.20 388.3083
1109.30 388.0753
1109.40 387.8423
1109.50 387.6093
1109.60 387.3764
1109.70 387.1434
1109.80 386.9104
1109.90 386.6774
1110.00 386.4445
1110.10 386.2115
1110.20 385.9785
1110.30 385.806
1110.40 385.6401
1110.50 385.4743
1110.60 385.3085
1110.70 385.1427
1110.80 384.9768
1110.90 384.811
1111.00 384.6452
1111.10 384.4794
1111.20 384.3135
1111.30 384.1477
1111.40 383.9819
1111.50 383.6862
1111.60 383.3762
1111.70 383.0661
1111.80 382.756
1111.90 382.4459
1112.00 382.1359
1112.10 381.8258
1112.20 381.5157
1112.30 381.2057
1112.40 380.8956
1112.50 380.5855
1112.60 380.2754
1112.70 379.9654
1112.80 379.6553
1112.90 379.3452
1113.00 379.0352
1113.10 378.7251
1113.20 378.415
1113.30 378.1049
1113.40 377.7949
1113.50 377.4848
1113.60 377.1747
1113.70 376.8646
1113.80 376.5546
1113.90 376.2445
1114.00 375.9344
1114.10 375.6244
1114.20 375.3143
1114.30 375.0042
1114.40 374.711
1114.50 374.4571
1114.60 374.2032
1114.70 373.9493
1114.80 373.6954
1114.90 373.4415
1115.00 373.1876
1115.10 372.9337
1115.20 372.6798
1115.30 372.4259
1115.40 372.172
1115.50 371.9181
1115.60 371.8589
1115.70 372.2537
1115.80 372.6485
1115.90 373.0434
1116.00 373.4382
1116.10 373.8331
1116.20 374.2279
1116.30 374.6228
1116.40 375.0176
1116.50 375.4125
1116.60 375.8073
1116.70 376.2021
1116.80 376.597
1116.90 376.9918
1117.00 377.3867
1117.10 377.7815
1117.20 378.1764
1117.30 378.5712
1117.40 378.9661
1117.50 379.3609
1117.60 379.7557
1117.70 380.1506
1117.80 380.5454
1117.90 380.9403
1118.00 381.3351
1118.10 381.73
1118.20 382.1248
1118.30 382.5197
1118.40 382.9145
1118.50 383.3093
1118.60 383.7295
1118.70 384.1605
1118.80 384.5915
1118.90 385.0225
1119.00 385.4535
1119.10 385.8845
1119.20 386.3155
1119.30 386.7465
1119.40 387.1775
1119.50 387.6085
1119.60 388.0395
1119.70 388.4705
1119.80 388.6944
1119.90 388.7804
1120.00 388.8664
1120.10 388.9523
1120.20 389.0383
1120.30 389.1242
1120.40 389.2102
1120.50 389.2961
1120.60 389.3821
1120.70 389.468
1120.80 389.554
1120.90 389.6399
1121.00 389.7259
1121.10 389.8118
1121.20 389.8978
1121.30 389.9837
1121.40 390.0697
1121.50 390.1556
1121.60 390.2416
1121.70 390.3275
1121.80 390.4135
1121.90 390.4995
1122.00 390.5854
1122.10 390.6714
1122.20 390.7573
1122.30 390.8433
1122.40 390.9292
1122.50 391.0152
1122.60 391.1011
1122.70 391.1871
1122.80 391.121
1122.90 391.0549
1123.00 390.9888
1123.10 390.9227
1123.20 390.8566
1123.30 390.7905
1123.40 390.7245
1123.50 390.6584
1123.60 390.5923
1123.70 390.5262
1123.80 390.4601
1123.90 390.394
1124.00 390.1658
1124.10 389.9197
1124.20 389.6735
1124.30 389.4273
1124.40 389.1811
1124.50 388.9349
1124.60 388.6887
1124.70 388.4425
1124.80 388.1963
1124.90 387.9501
1125.00 387.704
1125.10 387.4578
1125.20 387.2116
1125.30 386.9654
1125.40 386.7192
1125.50 386.473
1125.60 386.2268
1125.70 385.9806
1125.80 385.7344
1125.90 385.4883
1126.00 385.2421
1126.10 384.9959
1126.20 384.7497
1126.30 384.5035
1126.40 384.2573
1126.50 384.0111
1126.60 383.7649
1126.70 383.5187
1126.80 383.2726
1126.90 383.0516
1127.00 382.9316
1127.10 382.8116
1127.20 382.6916
1127.30 382.5716
1127.40 382.4516
1127.50 382.3316
1127.60 382.2116
1127.70 382.0916
1127.80 381.9716
1127.90 381.8517
1128.00 381.7317
1128.10 381.6151
1128.20 381.5292
1128.30 381.4433
1128.40 381.3575
1128.50 381.2716
1128.60 381.1857
1128.70 381.0998
1128.80 381.014
1128.90 380.9281
1129.00 380.8422
1129.10 380.7564
1129.20 380.6705
1129.30 380.5846
1129.40 380.4987
1129.50 380.4129
1129.60 380.327
1129.70 380.2411
1129.80 380.1553
1129.90 380.0694
1130.00 379.9835
1130.10 379.8976
1130.20 379.8118
1130.30 379.7259
1130.40 379.64
1130.50 379.5542
1130.60 379.4683
1130.70 379.3824
1130.80 379.2965
1130.90 379.2107
1131.00 379.1248
1131.10 379.0202
1131.20 378.8876
1131.30 378.7549
1131.40 378.6223
1131.50 378.4896
1131.60 378.357
1131.70 378.2243
1131.80 378.0917
1131.90 377.959
1132.00 377.8264
1132.10 377.6937
1132.20 377.5611
1132.30 377.5519
1132.40 378.0364
1132.50 378.521
1132.60 379.0055
1132.70 379.49
1132.80 379.9746
1132.90 380.4591
1133.00 380.9436
1133.10 381.4282
1133.20 381.9127
1133.30 382.3972
1133.40 382.8818
1133.50 383.3663
1133.60 383.8508
1133.70 384.3354
1133.80 384.8199
1133.90 385.3044
1134.00 385.789
1134.10 386.2735
1134.20 386.758
1134.30 387.2426
1134.40 387.7271
1134.50 388.2116
1134.60 388.6962
1134.70 389.1807
1134.80 389.6652
1134.90 390.1498
1135.00 390.6343
1135.10 391.1188
1135.20 391.6034
1135.30 392.1231
1135.40 392.6957
1135.50 393.2682
1135.60 393.8408
1135.70 394.4134
1135.80 394.9859
1135.90 395.5585
1136.00 396.131
1136.10 396.7036
1136.20 397.2762
1136.30 397.8487
1136.40 398.4213
1136.50 398.7189
1136.60 398.3752
1136.70 398.0314
1136.80 397.6876
1136.90 397.3438
1137.00 397.0001
1137.10 396.6563
1137.20 396.3125
1137.30 395.9687
1137.40 395.6249
1137.50 395.2812
1137.60 394.9374
1137.70 394.5936
1137.80 394.2498
1137.90 393.9061
1138.00 393.5623
1138.10 393.2185
1138.20 392.8747
1138.30 392.531
1138.40 392.1872
1138.50 391.8434
1138.60 391.4996
1138.70 391.1558
1138.80 390.8121
1138.90 390.4683
1139.00 390.1245
1139.10 389.7807
1139.20 389.437
1139.30 389.0932
1139.40 388.7494
1139.50 388.4044
1139.60 388.0577
1139.70 387.7109
1139.80 387.3642
1139.90 387.0174
1140.00 386.6706
1140.10 386.3239
1140.20 385.9771
1140.30 385.6304
1140.40 385.2836
1140.50 384.9369
1140.60 384.5901
1140.70 384.3144
1140.80 384.2045
1140.90 384.0947
1141.00 383.9848
1141.10 383.8749
1141.20 383.7651
1141.30 383.6552
1141.40 383.5453
1141.50 383.4354
1141.60 383.3256
1141.70 383.2157
1141.80 383.1058
1141.90 382.996
1142.00 382.8861
1142.10 382.7762
1142.20 382.6663
1142.30 382.5565
1142.40 382.4466
1142.50 382.3367
1142.60 382.2269
1142.70 382.117
1142.80 382.0071
1142.90 381.8973
1143.00 381.7874
1143.10 381.6775
1143.20 381.5676
1143.30 381.4578
1143.40 381.3479
1143.50 381.238
1143.60 381.1282
1143.70 381.0283
1143.80 380.9434
1143.90 380.8586
1144.00 380.7737
1144.10 380.6888
1144.20 380.6039
1144.30 380.5191
1144.40 380.4342
1144.50 380.3493
1144.60 380.2645
1144.70 380.1796
1144.80 380.0947
1144.90 380.127
1145.00 380.628
1145.10 381.129
1145.20 381.63
1145.30 382.131
1145.40 382.632
1145.50 383.133
1145.60 383.634
1145.70 384.135
1145.80 384.636
1145.90 385.137
1146.00 385.638
1146.10 386.139
1146.20 386.64
1146.30 387.141
1146.40 387.642
1146.50 388.143
1146.60 388.644
1146.70 389.145
1146.80 389.646
1146.90 390.147
1147.00 390.648
1147.10 391.149
1147.20 391.65
1147.30 392.151
1147.40 392.652
1147.50 393.153
1147.60 393.654
1147.70 394.155
1147.80 394.656
1147.90 395.1445
1148.00 395.5833
1148.10 396.022
1148.20 396.4607
1148.30 396.8995
1148.40 397.3382
1148.50 397.777
1148.60 398.2157
1148.70 398.6544
1148.80 399.0932
1148.90 399.5319
1149.00 399.9706
1149.10 400.4094
1149.20 400.8279
1149.30 401.2464
1149.40 401.6649
1149.50 402.0834
1149.60 402.5019
1149.70 402.9204
1149.80 403.3389
1149.90 403.7574
1150.00 404.1759
1150.10 404.5944
1150.20 405.0129
1150.30 405.4314
1150.40 405.8499
1150.50 406.2684
1150.60 406.6869
1150.70 407.1054
1150.80 407.5239
1150.90 407.9424
1151.00 408.3609
1151.10 408.7794
1151.20 409.1979
1151.30 409.6164
1151.40 410.0349
1151.50 410.4534
1151.60 410.8718
1151.70 411.2903
1151.80 411.7088
1151.90 412.1273
1152.00 412.5458
1152.10 412.959
1152.20 413.3239
1152.30 413.6889
1152.40 414.0539
1152.50 414.4188
1152.60 414.7838
1152.70 415.1487
1152.80 415.5137
1152.90 415.8787
1153.00 416.2436
1153.10 416.6086
1153.20 416.9736
1153.30 417.3385
1153.40 417.4085
1153.50 417.4049
1153.60 417.4012
1153.70 417.3975
1153.80 417.3938
1153.90 417.3901
1154.00 417.3864
1154.10 417.3827
1154.20 417.379
1154.30 417.3753
1154.40 417.3716
1154.50 417.3679
1154.60 417.3642
1154.70 417.3605
1154.80 417.3568
1154.90 417.3531
1155.00 417.3494
1155.10 417.3457
1155.20 417.342
1155.30 417.3383
1155.40 417.3346
1155.50 417.3309
1155.60 417.3272
1155.70 417.3235
1155.80 417.3198
1155.90 417.3161
1156.00 417.3124
1156.10 417.3088
1156.20 417.3051
1156.30 417.3014
1156.40 417.2934
1156.50 417.2844
1156.60 417.2754
1156.70 417.2664
1156.80 417.2574
1156.90 417.2484
1157.00 417.2394
1157.10 417.2304
1157.20 417.2214
1157.30 417.2124
1157.40 417.2034
1157.50 417.1944
1157.60 417.2893
1157.70 417.4535
1157.80 417.6176
1157.90 417.7817
1158.00 417.9459
1158.10 418.11
1158.20 418.2741
1158.30 418.4383
1158.40 418.6024
1158.50 418.7665
1158.60 418.9307
1158.70 419.0948
1158.80 419.259
1158.90 419.4231
1159.00 419.5872
1159.10 419.7514
1159.20 419.9155
1159.30 420.0796
1159.40 420.2438
1159.50 420.4079
1159.60 420.5721
1159.70 420.7362
1159.80 420.9003
1159.90 421.0645
1160.00 421.2286
1160.10 421.3927
1160.20 421.5569
1160.30 421.721
1160.40 421.8851
1160.50 422.0493
1160.60 422.1663
1160.70 422.2362
1160.80 422.3062
1160.90 422.3761
1161.00 422.446
1161.10 422.516
1161.20 422.5859
1161.30 422.6558
1161.40 422.7257
1161.50 422.7957
1161.60 422.8656
1161.70 422.9355
1161.80 422.9816
1161.90 422.9325
1162.00 422.8833
1162.10 422.8342
1162.20 422.785
1162.30 422.7359
1162.40 422.6867
1162.50 422.6376
1162.60 422.5884
1162.70 422.5392
1162.80 422.4901
1162.90 422.4409
1163.00 422.3918
1163.10 422.3426
1163.20 422.2935
1163.30 422.2443
1163.40 422.1952
1163.50 422.146
1163.60 422.0969
1163.70 422.0477
1163.80 421.9986
1163.90 421.9494
1164.00 421.9003
1164.10 421.8511
1164.20 421.8019
1164.30 421.7528
1164.40 421.7036
1164.50 421.6545
1164.60 421.6053
1164.70 421.5562
1164.80 421.5164
1164.90 421.5614
1165.00 421.6064
1165.10 421.6514
1165.20 421.6964
1165.30 421.7414
1165.40 421.7864
1165.50 421.8313
1165.60 421.8763
1165.70 421.9213
1165.80 421.9663
1165.90 422.0113
1166.00 422.0563
1166.10 421.6445
1166.20 421.1819
1166.30 420.7193
1166.40 420.2567
1166.50 419.7941
1166.60 419.3316
1166.70 418.869
1166.80 418.4064
1166.90 417.9438
1167.00 417.4813
1167.10 417.0187
1167.20 416.5561
1167.30 416.0935
1167.40 415.6309
1167.50 415.1684
1167.60 414.7058
1167.70 414.2432
1167.80 413.7806
1167.90 413.3181
1168.00 412.8555
1168.10 412.3929
1168.20 411.9303
1168.30 411.4677
1168.40 411.0052
1168.50 410.5426
1168.60 410.08
1168.70 409.6174
1168.80 409.1549
1168.90 408.6923
1169.00 408.2297
1169.10 407.8189
1169.20 407.4303
1169.30 407.0418
1169.40 406.6532
1169.50 406.2646
1169.60 405.8761
1169.70 405.4875
1169.80 405.0989
1169.90 404.7103
1170.00 404.3218
1170.10 403.9332
1170.20 403.5446
1170.30 403.2066
1170.40 402.9446
1170.50 402.6826
1170.60 402.4206
1170.70 402.1585
1170.80 401.8965
1170.90 401.6345
1171.00 401.3725
1171.10 401.1104
1171.20 400.8484
1171.30 400.5864
1171.40 400.3244
1171.50 400.0623
1171.60 399.8003
1171.70 399.5383
1171.80 399.2763
1171.90 399.0142
1172.00 398.7522
1172.10 398.4902
1172.20 398.2282
1172.30 397.9661
1172.40 397.7041
1172.50 397.4421
1172.60 397.1801
1172.70 396.918
1172.80 396.656
1172.90 396.394
1173.00 396.132
1173.10 395.8699
1173.20 395.6079
1173.30 395.3429
1173.40 395.0663
1173.50 394.7896
1173.60 394.513
1173.70 394.2363
1173.80 393.9597
1173.90 393.683
1174.00 393.4063
1174.10 393.1297
1174.20 392.853
1174.30 392.5764
1174.40 392.2997
1174.50 392.0231
1174.60 391.9535
1174.70 391.9068
1174.80 391.8602
1174.90 391.8136
1175.00 391.767
1175.10 391.7204
1175.20 391.6738
1175.30 391.6272
1175.40 391.5806
1175.50 391.534
1175.60 391.4874
1175.70 391.4407
1175.80 391.3941
1175.90 391.3475
1176.00 391.3009
1176.10 391.2543
1176.20 391.2077
1176.30 391.1611
1176.40 391.1145
1176.50 391.0679
1176.60 391.0212
1176.70 390.9746
1176.80 390.928
1176.90 390.8814
1177.00 390.8348
1177.10 390.7882
1177.20 390.7416
1177.30 390.695
1177.40 390.6484
1177.50 390.6018
1177.60 390.6204
1177.70 390.6669
1177.80 390.7135
1177.90 390.76
1178.00 390.8066
1178.10 390.8532
1178.20 390.8997
1178.30 390.9463
1178.40 390.9929
1178.50 391.0394
1178.60 391.086
1178.70 391.1325
1178.80 391.2979
1178.90 391.6415
1179.00 391.9851
1179.10 392.3287
1179.20 392.6723
1179.30 393.0159
1179.40 393.3595
1179.50 393.703
1179.60 394.0466
1179.70 394.3902
1179.80 394.7338
1179.90 395.0774
1180.00 395.421
1180.10 395.7646
1180.20 396.1082
1180.30 396.4518
1180.40 396.7954
1180.50 397.139
1180.60 397.4826
1180.70 397.8262
1180.80 398.1697
1180.90 398.5133
1181.00 398.8569
1181.10 399.2005
1181.20 399.5441
1181.30 399.8877
1181.40 400.2313
1181.50 400.5749
1181.60 400.9185
1181.70 401.2621
1181.80 401.602
1181.90 401.9084
1182.00 402.2149
1182.10 402.5214
1182.20 402.8279
1182.30 403.1343
1182.40 403.4408
1182.50 403.7473
1182.60 404.0538
1182.70 404.3602
1182.80 404.6667
1182.90 404.9732
1183.00 405.2797
1183.10 405.3017
1183.20 405.2526
1183.30 405.2036
1183.40 405.1545
1183.50 405.1054
1183.60 405.0564
1183.70 405.0073
1183.80 404.9582
1183.90 404.9092
1184.00 404.8601
1184.10 404.811
1184.20 404.7619
1184.30 404.7129
1184.40 404.6638
1184.50 404.6147
1184.60 404.5657
1184.70 404.5166
1184.80 404.4675
1184.90 404.4185
1185.00 404.3694
1185.10 404.3203
1185.20 404.2712
1185.30 404.2222
1185.40 404.1731
1185.50 404.124
1185.60 404.075
1185.70 404.0259
1185.80 403.9768
1185.90 403.9278
1186.00 403.8787
1186.10 403.8101
1186.20 403.722
1186.30 403.6339
1186.40 403.5458
1186.50 403.4578
1186.60 403.3697
1186.70 403.2816
1186.80 403.1935
1186.90 403.1054
1187.00 403.0173
1187.10 402.9292
1187.20 402.8411
1187.30 402.8669
1187.40 403.3482
1187.50 403.8295
1187.60 404.3108
1187.70 404.7921
1187.80 405.2734
1187.90 405.7546
1188.00 406.2359
1188.10 406.7172
1188.20 407.1985
1188.30 407.6798
1188.40 408.1611
1188.50 408.6424
1188.60 409.1236
1188.70 409.6049
1188.80 410.0862
1188.90 410.5675
1189.00 411.0488
1189.10 411.5301
1189.20 412.0114
1189.30 412.4926
1189.40 412.9739
1189.50 413.4552
1189.60 413.9365
1189.70 414.4178
1189.80 414.8991
1189.90 415.3803
1190.00 415.8616
1190.10 416.3429
1190.20 416.8242
1190.30 417.3055
1190.40 417.748
1190.50 418.1862
1190.60 418.6244
1190.70 419.0626
1190.80 419.5008
1190.90 419.9391
1191.00 420.3773
1191.10 420.8155
1191.20 421.2537
1191.30 421.6919
1191.40 422.1301
1191.50 422.5683
1191.60 422.7986
1191.70 422.821
1191.80 422.8434
1191.90 422.8657
1192.00 422.8881
1192.10 422.9105
1192.20 422.9329
1192.30 422.9552
1192.40 422.9776
1192.50 423
1192.60 423.0224
1192.70 423.0447
1192.80 423.0671
1192.90 423.0895
1193.00 423.1119
1193.10 423.1343
1193.20 423.1566
1193.30 423.179
1193.40 423.2014
1193.50 423.2238
1193.60 423.2461
1193.70 423.2685
1193.80 423.2909
1193.90 423.3133
1194.00 423.3356
1194.10 423.358
1194.20 423.3804
1194.30 423.4028
1194.40 423.4251
1194.50 423.4475
1194.60 423.4726
1194.70 423.5216
1194.80 423.5706
1194.90 423.6196
1195.00 423.6686
1195.10 423.7176
1195.20 423.7666
1195.30 423.8156
1195.40 423.8646
1195.50 423.9136
1195.60 423.9626
1195.70 424.0116
1195.80 424.0606
1195.90 424.0921
1196.00 424.1193
1196.10 424.1464
1196.20 424.1736
1196.30 424.2008
1196.40 424.2279
1196.50 424.2551
1196.60 424.2822
1196.70 424.3094
1196.80 424.3365
1196.90 424.3637
1197.00 424.3908
1197.10 424.418
1197.20 424.4451
1197.30 424.4723
1197.40 424.4994
1197.50 424.5266
1197.60 424.5538
1197.70 424.5809
1197.80 424.6081
1197.90 424.6352
1198.00 424.6624
1198.10 424.6895
1198.20 424.7167
1198.30 424.7438
1198.40 424.771
1198.50 424.7981
1198.60 424.8253
1198.70 424.8525
1198.80 424.8796
1198.90 424.8841
1199.00 424.8546
1199.10 424.825
1199.20 424.7955
1199.30 424.7659
1199.40 424.7364
1199.50 424.7069
1199.60 424.6773
1199.70 424.6478
1199.80 424.6183
1199.90 424.5887
1200.00 424.5592
1200.10 424.5297
1200.20 424.2105
1200.30 423.8914
1200.40 423.5723
1200.50 423.2531
1200.60 422.934
1200.70 422.6149
1200.80 422.2958
1200.90 421.9766
1201.00 421.6575
1201.10 421.3384
1201.20 421.0192
1201.30 420.7001
1201.40 420.381
1201.50 420.0618
1201.60 419.7427
1201.70 419.4236
1201.80 419.1045
1201.90 418.7853
1202.00 418.4662
1202.10 418.1471
1202.20 417.8279
1202.30 417.5088
1202.40 417.1897
1202.50 416.8706
1202.60 416.5514
1202.70 416.2323
1202.80 415.9132
1202.90 415.594
1203.00 415.2749
1203.10 414.9558
1203.20 414.7459
1203.30 414.6087
1203.40 414.4716
1203.50 414.3345
1203.60 414.1973
1203.70 414.0602
1203.80 413.9231
1203.90 413.786
1204.00 413.6488
1204.10 413.5117
1204.20 413.3746
1204.30 413.2375
1204.40 413.1991
1204.50 413.556
1204.60 413.9129
1204.70 414.2698
1204.80 414.6266
1204.90 414.9835
1205.00 415.3404
1205.10 415.6973
1205.20 416.0541
1205.30 416.411
1205.40 416.7679
1205.50 417.1247
1205.60 417.4816
1205.70 417.8385
1205.80 418.1954
1205.90 418.5522
1206.00 418.9091
1206.10 419.266
1206.20 419.6229
1206.30 419.9797
1206.40 420.3366
1206.50 420.6935
1206.60 421.0504
1206.70 421.4072
1206.80 421.7641
1206.90 422.121
1207.00 422.4778
1207.10 422.8347
1207.20 423.1916
1207.30 423.5485
1207.40 423.9053
1207.50 424.198
1207.60 424.4745
1207.70 424.7511
1207.80 425.0276
1207.90 425.3042
1208.00 425.5808
1208.10 425.8573
1208.20 426.1339
1208.30 426.4104
1208.40 426.687
1208.50 426.9636
1208.60 427.2401
1208.70 427.6414
1208.80 428.2298
1208.90 428.8181
1209.00 429.4065
1209.10 429.9949
1209.20 430.5832
1209.30 431.1716
1209.40 431.7599
1209.50 432.3483
1209.60 432.9367
1209.70 433.525
1209.80 434.1134
1209.90 434.7017
1210.00 435.2901
1210.10 435.8785
1210.20 436.4668
1210.30 437.0552
1210.40 437.6435
1210.50 438.2319
1210.60 438.8202
1210.70 439.4086
1210.80 439.997
1210.90 440.5853
1211.00 441.1737
1211.10 441.762
1211.20 442.3504
1211.30 442.9388
1211.40 443.5271
1211.50 444.1155
1211.60 444.7038
1211.70 445.2922
1211.80 445.9347
1211.90 446.5833
1212.00 447.2319
1212.10 447.8804
1212.20 448.529
1212.30 449.1775
1212.40 449.8261
1212.50 450.4747
1212.60 451.1232
1212.70 451.7718
1212.80 452.4203
1212.90 453.0689
1213.00 453.497
1213.10 453.7047
1213.20 453.9124
1213.30 454.1201
1213.40 454.3278
1213.50 454.5356
1213.60 454.7433
1213.70 454.951
1213.80 455.1587
1213.90 455.3664
1214.00 455.5741
1214.10 455.7818
1214.20 455.9895
1214.30 456.1972
1214.40 456.4049
1214.50 456.6126
1214.60 456.8203
1214.70 457.028
1214.80 457.2357
1214.90 457.4434
1215.00 457.6511
1215.10 457.8588
1215.20 458.0666
1215.30 458.2743
1215.40 458.482
1215.50 458.6897
1215.60 458.8974
1215.70 459.1051
1215.80 459.3128
1215.90 459.5205
1216.00 459.7282
1216.10 459.7784
1216.20 459.8286
1216.30 459.8788
1216.40 459.929
1216.50 459.9792
1216.60 460.0293
1216.70 460.0795
1216.80 460.1297
1216.90 460.1799
1217.00 460.2301
1217.10 460.2803
1217.20 460.3305
1217.30 460.398
1217.40 460.4771
1217.50 460.5562
1217.60 460.6354
1217.70 460.7145
1217.80 460.7936
1217.90 460.8727
1218.00 460.9518
1218.10 461.0309
1218.20 461.11
1218.30 461.1892
1218.40 461.2683
1218.50 461.3474
1218.60 461.4265
1218.70 461.5056
1218.80 461.5847
1218.90 461.6638
1219.00 461.7429
1219.10 461.8221
1219.20 461.9012
1219.30 461.9803
1219.40 462.0594
1219.50 462.1385
1219.60 462.2176
1219.70 462.2967
1219.80 462.3758
1219.90 462.455
1220.00 462.5341
1220.10 462.6132
1220.20 462.6923
1220.30 462.7815
1220.40 462.9616
1220.50 463.1418
1220.60 463.3219
1220.70 463.502
1220.80 463.6822
1220.90 463.8623
1221.00 464.0424
1221.10 464.2226
1221.20 464.4027
1221.30 464.5828
1221.40 464.763
1221.50 464.9431
1221.60 465.2465
1221.70 465.6027
1221.80 465.9589
1221.90 466.3151
1222.00 466.6714
1222.10 467.0276
1222.20 467.3838
1222.30 467.74
1222.40 468.0962
1222.50 468.4525
1222.60 468.8087
1222.70 469.1649
1222.80 469.5211
1222.90 469.8774
1223.00 470.2336
1223.10 470.5898
1223.20 470.946
1223.30 471.3022
1223.40 471.6585
1223.50 472.0147
1223.60 472.3709
1223.70 472.7271
1223.80 473.0833
1223.90 473.4396
1224.00 473.7958
1224.10 474.152
1224.20 474.5082
1224.30 474.8644
1224.40 475.2207
1224.50 475.5769
1224.60 475.9177
1224.70 476.1971
1224.80 476.4764
1224.90 476.7558
1225.00 477.0351
1225.10 477.3144
1225.20 477.5938
1225.30 477.8731
1225.40 478.1525
1225.50 478.4318
1225.60 478.7112
1225.70 478.9905
1225.80 479.2699
1225.90 479.3075
1226.00 479.2415
1226.10 479.1755
1226.20 479.1095
1226.30 479.0435
1226.40 478.9775
1226.50 478.9115
1226.60 478.8455
1226.70 478.7795
1226.80 478.7135
1226.90 478.6475
1227.00 478.5815
1227.10 478.5155
1227.20 478.4495
1227.30 478.3835
1227.40 478.3175
1227.50 478.2515
1227.60 478.1856
1227.70 478.1196
1227.80 478.0536
1227.90 477.9876
1228.00 477.9216
1228.10 477.8556
1228.20 477.7896
1228.30 477.7236
1228.40 477.6576
1228.50 477.5916
1228.60 477.5256
1228.70 477.4596
1228.80 477.3936
1228.90 477.3211
1229.00 477.2228
1229.10 477.1244
1229.20 477.0261
1229.30 476.9277
1229.40 476.8294
1229.50 476.731
1229.60 476.6327
1229.70 476.5343
1229.80 476.436
1229.90 476.3376
1230.00 476.2393
1230.10 476.1409
1230.20 476.3228
1230.30 476.5747
1230.40 476.8267
1230.50 477.0787
1230.60 477.3306
1230.70 477.5826
1230.80 477.8345
1230.90 478.0865
1231.00 478.3384
1231.10 478.5904
1231.20 478.8424
1231.30 479.0943
1231.40 479.3463
1231.50 479.5982
1231.60 479.8502
1231.70 480.1021
1231.80 480.3541
1231.90 480.606
1232.00 480.858
1232.10 481.11
1232.20 481.3619
1232.30 481.6139
1232.40 481.8658
1232.50 482.1178
1232.60 482.3697
1232.70 482.6217
1232.80 482.8737
1232.90 483.1256
1233.00 483.3776
1233.10 483.6295
1233.20 483.8765
1233.30 484.1036
1233.40 484.3307
1233.50 484.5578
1233.60 484.7849
1233.70 485.012
1233.80 485.2391
1233.90 485.4662
1234.00 485.6934
1234.10 485.9205
1234.20 486.1476
1234.30 486.3747
1234.40 486.6018
1234.50 486.6686
1234.60 486.6667
1234.70 486.6647
1234.80 486.6628
1234.90 486.6609
1235.00 486.659
1235.10 486.6571
1235.20 486.6552
1235.30 486.6533
1235.40 486.6514
1235.50 486.6495
1235.60 486.6476
1235.70 486.6457
1235.80 486.6437
1235.90 486.6418
1236.00 486.6399
1236.10 486.638
1236.20 486.6361
1236.30 486.6342
1236.40 486.6323
1236.50 486.6304
1236.60 486.6285
1236.70 486.6266
1236.80 486.6247
1236.90 486.6228
1237.00 486.6208
1237.10 486.6189
1237.20 486.617
1237.30 486.6151
1237.40 486.6132
1237.50 486.6123
1237.60 486.6154
1237.70 486.6185
1237.80 486.6215
1237.90 486.6246
1238.00 486.6277
1238.10 486.6308
1238.20 486.6339
1238.30 486.6369
1238.40 486.64
1238.50 486.6431
1238.60 486.6462
1238.70 486.6493
1238.80 486.4109
1238.90 486.069
1239.00 485.7271
1239.10 485.3852
1239.20 485.0433
1239.30 484.7014
1239.40 484.3595
1239.50 484.0176
1239.60 483.6757
1239.70 483.3338
1239.80 482.992
1239.90 482.6501
1240.00 482.3082
1240.10 481.9663
1240.20 481.6244
1240.30 481.2825
1240.40 480.9406
1240.50 480.5987
1240.60 480.2568
1240.70 479.9149
1240.80 479.573
1240.90 479.2311
1241.00 478.8892
1241.10 478.5474
1241.20 478.2055
1241.30 477.8636
1241.40 477.5217
1241.50 477.1798
1241.60 476.8379
1241.70 476.496
1241.80 476.1617
1241.90 475.8959
1242.00 475.6301
1242.10 475.3643
1242.20 475.0985
1242.30 474.8328
1242.40 474.567
1242.50 474.3012
1242.60 474.0354
1242.70 473.7696
1242.80 473.5038
1242.90 473.238
1243.00 472.9722
1243.10 472.9002
1243.20 472.9112
1243.30 472.9222
1243.40 472.9332
1243.50 472.9442
1243.60 472.9552
1243.70 472.9663
1243.80 472.9773
1243.90 472.9883
1244.00 472.9993
1244.10 473.0103
1244.20 473.0213
1244.30 473.0323
1244.40 473.0433
1244.50 473.0544
1244.60 473.0654
1244.70 473.0764
1244.80 473.0874
1244.90 473.0984
1245.00 473.1094
1245.10 473.1204
1245.20 473.1314
1245.30 473.1425
1245.40 473.1535
1245.50 473.1645
1245.60 473.1755
1245.70 473.1865
1245.80 473.1975
1245.90 473.2085
1246.00 473.2195
1246.10 473.2306
1246.20 473.3594
1246.30 473.4882
1246.40 473.617
1246.50 473.7458
1246.60 473.8746
1246.70 474.0035
1246.80 474.1323
1246.90 474.2611
1247.00 474.3899
1247.10 474.5187
1247.20 474.6475
1247.30 474.7764
1247.40 474.8003
1247.50 474.7542
1247.60 474.7082
1247.70 474.6622
1247.80 474.6161
1247.90 474.5701
1248.00 474.5241
1248.10 474.4781
1248.20 474.432
1248.30 474.386
1248.40 474.34
1248.50 474.2939
1248.60 474.2479
1248.70 474.2019
1248.80 474.1558
1248.90 474.1098
1249.00 474.0638
1249.10 474.0178
1249.20 473.9717
1249.30 473.9257
1249.40 473.8797
1249.50 473.8336
1249.60 473.7876
1249.70 473.7416
1249.80 473.6955
1249.90 473.6495
1250.00 473.6035
1250.10 473.5575
1250.20 473.5114
1250.30 473.4654
1250.40 473.4194
1250.50 473.337
1250.60 473.2546
1250.70 473.1722
1250.80 473.0898
1250.90 473.0074
1251.00 472.925
1251.10 472.8426
1251.20 472.7602
1251.30 472.6778
1251.40 472.5954
1251.50 472.513
1251.60 472.4306
1251.70 472.5176
1251.80 472.7739
1251.90 473.0303
1252.00 473.2866
1252.10 473.5429
1252.20 473.7992
1252.30 474.0556
1252.40 474.3119
1252.50 474.5682
1252.60 474.8246
1252.70 475.0809
1252.80 475.3372
1252.90 475.5935
1253.00 475.8499
1253.10 476.1062
1253.20 476.3625
1253.30 476.6189
1253.40 476.8752
1253.50 477.1315
1253.60 477.3879
1253.70 477.6442
1253.80 477.9005
1253.90 478.1568
1254.00 478.4132
1254.10 478.6695
1254.20 478.9258
1254.30 479.1822
1254.40 479.4385
1254.50 479.6948
1254.60 479.9511
1254.70 480.2075
1254.80 480.4075
1254.90 480.6013
1255.00 480.7952
1255.10 480.989
1255.20 481.1828
1255.30 481.3766
1255.40 481.5704
1255.50 481.7642
1255.60 481.958
1255.70 482.1518
1255.80 482.3457
1255.90 482.5395
1256.00 482.6639
1256.10 482.6841
1256.20 482.7043
1256.30 482.7246
1256.40 482.7448
1256.50 482.7651
1256.60 482.7853
1256.70 482.8055
1256.80 482.8258
1256.90 482.846
1257.00 482.8662
1257.10 482.8865
1257.20 482.9067
1257.30 482.927
1257.40 482.9472
1257.50 482.9674
1257.60 482.9877
1257.70 483.0079
1257.80 483.0282
1257.90 483.0484
1258.00 483.0686
1258.10 483.0889
1258.20 483.1091
1258.30 483.1294
1258.40 483.1496
1258.50 483.1698
1258.60 483.1901
1258.70 483.2103
1258.80 483.2305
1258.90 483.2508
1259.00 483.271
1259.10 483.426
1259.20 483.6387
1259.30 483.8515
1259.40 484.0642
1259.50 484.2769
1259.60 484.4896
1259.70 484.7024
1259.80 484.9151
1259.90 485.1278
1260.00 485.3406
1260.10 485.5533
1260.20 485.766
1260.30 486.0921
1260.40 486.8719
1260.50 487.6517
1260.60 488.4315
1260.70 489.2113
1260.80 489.9911
1260.90 490.7709
1261.00 491.5506
1261.10 492.3304
1261.20 493.1102
1261.30 493.89
1261.40 494.6698
1261.50 495.4496
1261.60 496.2294
1261.70 497.0091
1261.80 497.7889
1261.90 498.5687
1262.00 499.3485
1262.10 500.1283
1262.20 500.9081
1262.30 501.6879
1262.40 502.4676
1262.50 503.2474
1262.60 504.0272
1262.70 504.807
1262.80 505.5868
1262.90 506.3666
1263.00 507.1464
1263.10 507.9261
1263.20 508.7059
1263.30 509.4857
1263.40 510.1439
1263.50 510.7211
1263.60 511.2983
1263.70 511.8755
1263.80 512.4527
1263.90 513.0299
1264.00 513.6071
1264.10 514.1843
1264.20 514.7615
1264.30 515.3387
1264.40 515.9159
1264.50 516.4931
1264.60 517.0555
1264.70 517.4853
1264.80 517.9151
1264.90 518.3449
1265.00 518.7747
1265.10 519.2045
1265.20 519.6343
1265.30 520.0641
1265.40 520.4939
1265.50 520.9237
1265.60 521.3535
1265.70 521.7833
1265.80 522.2131
1265.90 522.6429
1266.00 523.0727
1266.10 523.5025
1266.20 523.9322
1266.30 524.362
1266.40 524.7918
1266.50 525.2216
1266.60 525.6514
1266.70 526.0812
1266.80 526.511
1266.90 526.9408
1267.00 527.3706
1267.10 527.8004
1267.20 528.2302
1267.30 528.66
1267.40 529.0898
1267.50 529.5196
1267.60 529.9494
1267.70 530.4041
1267.80 530.8961
1267.90 531.3881
1268.00 531.8802
1268.10 532.3722
1268.20 532.8642
1268.30 533.3562
1268.40 533.8483
1268.50 534.3403
1268.60 534.8323
1268.70 535.3243
1268.80 535.8164
1268.90 536.3084
1269.00 536.7554
1269.10 537.2024
1269.20 537.6495
1269.30 538.0965
1269.40 538.5435
1269.50 538.9906
1269.60 539.4376
1269.70 539.8846
1269.80 540.3317
1269.90 540.7787
1270.00 541.2257
1270.10 541.6727
1270.20 542.1198
1270.30 542.5668
1270.40 543.0138
1270.50 543.4609
1270.60 543.9079
1270.70 544.3549
1270.80 544.802
1270.90 545.249
1271.00 545.696
1271.10 546.143
1271.20 546.5901
1271.30 547.0371
1271.40 547.4841
1271.50 547.9312
1271.60 548.3782
1271.70 548.8252
1271.80 549.2722
1271.90 549.7193
1272.00 550.0885
1272.10 550.2762
1272.20 550.4639
1272.30 550.6516
1272.40 550.8393
1272.50 551.027
1272.60 551.2147
1272.70 551.4024
1272.80 551.5902
1272.90 551.7779
1273.00 551.9656
1273.10 552.1533
1273.20 552.341
1273.30 552.4544
1273.40 552.5492
1273.50 552.6441
1273.60 552.7389
1273.70 552.8338
1273.80 552.9286
1273.90 553.0235
1274.00 553.1184
1274.10 553.2132
1274.20 553.3081
1274.30 553.4029
1274.40 553.4978
1274.50 553.5926
1274.60 553.6875
1274.70 553.7823
1274.80 553.8772
1274.90 553.972
1275.00 554.0669
1275.10 554.1617
1275.20 554.2566
1275.30 554.3514
1275.40 554.4463
1275.50 554.5411
1275.60 554.636
1275.70 554.7308
1275.80 554.8257
1275.90 554.9205
1276.00 555.0154
1276.10 555.1102
1276.20 555.2051
1276.30 555.3242
1276.40 555.6613
1276.50 555.9984
1276.60 556.3355
1276.70 556.6726
1276.80 557.0097
1276.90 557.3468
1277.00 557.6839
1277.10 558.021
1277.20 558.3581
1277.30 558.6952
1277.40 559.0323
1277.50 559.3694
1277.60 559.6152
1277.70 559.8
1277.80 559.9848
1277.90 560.1697
1278.00 560.3545
1278.10 560.5393
1278.20 560.7242
1278.30 560.909
1278.40 561.0938
1278.50 561.2787
1278.60 561.4635
1278.70 561.6483
1278.80 561.8332
1278.90 562.018
1279.00 562.2028
1279.10 562.3877
1279.20 562.5725
1279.30 562.7573
1279.40 562.9422
1279.50 563.127
1279.60 563.3118
1279.70 563.4967
1279.80 563.6815
1279.90 563.8663
1280.00 564.0512
1280.10 564.236
1280.20 564.4208
1280.30 564.6057
1280.40 564.7905
1280.50 564.9753
1280.60 565.1602
1280.70 565.2518
1280.80 565.3435
1280.90 565.4351
1281.00 565.5268
1281.10 565.6185
1281.20 565.7101
1281.30 565.8018
1281.40 565.8935
1281.50 565.9851
1281.60 566.0768
1281.70 566.1685
1281.80 566.2601
1281.90 566.2065
1282.00 566.0077
1282.10 565.8089
1282.20 565.61
1282.30 565.4112
1282.40 565.2124
1282.50 565.0135
1282.60 564.8147
1282.70 564.6158
1282.80 564.417
1282.90 564.2182
1283.00 564.0193
1283.10 563.8205
1283.20 563.6217
1283.30 563.4228
1283.40 563.224
1283.50 563.0251
1283.60 562.8263
1283.70 562.6275
1283.80 562.4286
1283.90 562.2298
1284.00 562.031
1284.10 561.8321
1284.20 561.6333
1284.30 561.4344
1284.40 561.2356
1284.50 561.0368
1284.60 560.8379
1284.70 560.6391
1284.80 560.4402
1284.90 560.2414
1285.00 560.0809
1285.10 559.9299
1285.20 559.7789
1285.30 559.628
1285.40 559.477
1285.50 559.326
1285.60 559.175
1285.70 559.0241
1285.80 558.8731
1285.90 558.7221
1286.00 558.5712
1286.10 558.4202
1286.20 558.3767
1286.30 558.584
1286.40 558.7912
1286.50 558.9985
1286.60 559.2058
1286.70 559.4131
1286.80 559.6204
1286.90 559.8276
1287.00 560.0349
1287.10 560.2422
1287.20 560.4495
1287.30 560.6567
1287.40 560.864
1287.50 561.0713
1287.60 561.2786
1287.70 561.4859
1287.80 561.6931
1287.90 561.9004
1288.00 562.1077
1288.10 562.315
1288.20 562.5222
1288.30 562.7295
1288.40 562.9368
1288.50 563.1441
1288.60 563.3514
1288.70 563.5586
1288.80 563.7659
1288.90 563.9732
1289.00 564.1805
1289.10 564.3878
1289.20 564.595
1289.30 564.7675
1289.40 564.9168
1289.50 565.0662
1289.60 565.2155
1289.70 565.3648
1289.80 565.5141
1289.90 565.6634
1290.00 565.8127
1290.10 565.962
1290.20 566.1114
1290.30 566.2607
1290.40 566.41
1290.50 566.5249
1290.60 566.3306
1290.70 566.1362
1290.80 565.9418
1290.90 565.7475
1291.00 565.5531
1291.10 565.3587
1291.20 565.1644
1291.30 564.97
1291.40 564.7756
1291.50 564.5813
1291.60 564.3869
1291.70 564.1925
1291.80 563.9982
1291.90 563.8038
1292.00 563.6094
1292.10 563.4151
1292.20 563.2207
1292.30 563.0263
1292.40 562.832
1292.50 562.6376
1292.60 562.4433
1292.70 562.2489
1292.80 562.0545
1292.90 561.8602
1293.00 561.6658
1293.10 561.4714
1293.20 561.2771
1293.30 561.0827
1293.40 560.8883
1293.50 560.694
1293.60 560.5012
1293.70 560.3109
1293.80 560.1206
1293.90 559.9303
1294.00 559.74
1294.10 559.5498
1294.20 559.3595
1294.30 559.1692
1294.40 558.9789
1294.50 558.7886
1294.60 558.5983
1294.70 558.408
1294.80 558.2177
1294.90 558.2642
1295.00 558.337
1295.10 558.4099
1295.20 558.4827
1295.30 558.5555
1295.40 558.6283
1295.50 558.7011
1295.60 558.774
1295.70 558.8468
1295.80 558.9196
1295.90 558.9924
1296.00 559.0653
1296.10 559.1381
1296.20 559.2109
1296.30 559.2837
1296.40 559.3565
1296.50 559.4294
1296.60 559.5022
1296.70 559.575
1296.80 559.6478
1296.90 559.7207
1297.00 559.7935
1297.10 559.8663
1297.20 559.9391
1297.30 560.0119
1297.40 560.0848
1297.50 560.1576
1297.60 560.2304
1297.70 560.3032
1297.80 560.3761
1297.90 560.445
1298.00 560.4985
1298.10 560.552
1298.20 560.6055
1298.30 560.6589
1298.40 560.7124
1298.50 560.7659
1298.60 560.8194
1298.70 560.8729
1298.80 560.9264
1298.90 560.9798
1299.00 561.0333
1299.10 561.0868
1299.20 560.8776
1299.30 560.5557
1299.40 560.2339
1299.50 559.9121
1299.60 559.5902
1299.70 559.2684
1299.80 558.9465
1299.90 558.6247
