# Version 2.1 - nm, norm@500 to 1, cut digits
# Wavelength(nm)  Flambda(ergs/cm^s/s/nm)
300.00 1.121241e-95
300.10 1.121241e-95
300.20 1.121241e-95
300.30 1.121241e-95
300.40 1.121241e-95
300.50 1.121241e-95
300.60 1.121241e-95
300.70 1.121241e-95
300.80 1.121241e-95
300.90 1.121241e-95
301.00 1.121241e-95
301.10 1.121241e-95
301.20 1.121241e-95
301.30 1.121241e-95
301.40 1.121241e-95
301.50 1.121241e-95
301.60 1.121241e-95
301.70 1.121241e-95
301.80 1.121241e-95
301.90 1.121241e-95
302.00 1.121241e-95
302.10 1.121241e-95
302.20 1.121241e-95
302.30 1.121241e-95
302.40 1.121241e-95
302.50 1.121241e-95
302.60 1.121241e-95
302.70 1.121241e-95
302.80 1.121241e-95
302.90 1.121241e-95
303.00 1.121241e-95
303.10 1.121241e-95
303.20 1.121241e-95
303.30 1.121241e-95
303.40 1.121241e-95
303.50 1.121241e-95
303.60 1.121241e-95
303.70 1.121241e-95
303.80 1.121241e-95
303.90 1.121241e-95
304.00 1.121241e-95
304.10 1.121241e-95
304.20 1.121241e-95
304.30 1.121241e-95
304.40 1.121241e-95
304.50 1.121241e-95
304.60 1.121241e-95
304.70 1.121241e-95
304.80 1.121241e-95
304.90 1.121241e-95
305.00 1.121241e-95
305.10 1.121241e-95
305.20 1.121241e-95
305.30 1.121241e-95
305.40 1.121241e-95
305.50 1.121241e-95
305.60 1.121241e-95
305.70 1.121241e-95
305.80 1.121241e-95
305.90 1.121241e-95
306.00 1.121241e-95
306.10 1.121241e-95
306.20 1.121241e-95
306.30 1.121241e-95
306.40 1.121241e-95
306.50 1.121241e-95
306.60 1.121241e-95
306.70 1.121241e-95
306.80 1.121241e-95
306.90 1.121241e-95
307.00 1.121241e-95
307.10 1.121241e-95
307.20 1.121241e-95
307.30 1.121241e-95
307.40 1.121241e-95
307.50 1.121241e-95
307.60 1.121241e-95
307.70 1.121241e-95
307.80 1.121241e-95
307.90 1.121241e-95
308.00 1.121241e-95
308.10 1.121241e-95
308.20 1.121241e-95
308.30 1.121241e-95
308.40 1.121241e-95
308.50 1.121241e-95
308.60 1.121241e-95
308.70 1.121241e-95
308.80 1.121241e-95
308.90 1.121241e-95
309.00 1.121241e-95
309.10 1.121241e-95
309.20 1.121241e-95
309.30 1.121241e-95
309.40 1.121241e-95
309.50 1.121241e-95
309.60 1.121241e-95
309.70 1.121241e-95
309.80 1.121241e-95
309.90 1.121241e-95
310.00 1.121241e-95
310.10 1.121241e-95
310.20 1.121241e-95
310.30 1.121241e-95
310.40 1.121241e-95
310.50 1.121241e-95
310.60 1.121241e-95
310.70 1.121241e-95
310.80 1.121241e-95
310.90 1.121241e-95
311.00 1.121241e-95
311.10 1.121241e-95
311.20 1.121241e-95
311.30 1.121241e-95
311.40 1.121241e-95
311.50 1.121241e-95
311.60 1.121241e-95
311.70 1.121241e-95
311.80 1.121241e-95
311.90 1.121241e-95
312.00 1.121241e-95
312.10 1.121241e-95
312.20 1.121241e-95
312.30 1.121241e-95
312.40 1.121241e-95
312.50 1.121241e-95
312.60 1.121241e-95
312.70 1.121241e-95
312.80 1.121241e-95
312.90 1.121241e-95
313.00 1.121241e-95
313.10 1.121241e-95
313.20 1.121241e-95
313.30 1.121241e-95
313.40 1.121241e-95
313.50 1.121241e-95
313.60 1.121241e-95
313.70 1.121241e-95
313.80 1.121241e-95
313.90 1.121241e-95
314.00 1.121241e-95
314.10 1.121241e-95
314.20 1.121241e-95
314.30 1.121241e-95
314.40 1.121241e-95
314.50 1.121241e-95
314.60 1.121241e-95
314.70 1.121241e-95
314.80 1.121241e-95
314.90 1.121241e-95
315.00 1.121241e-95
315.10 1.121241e-95
315.20 1.121241e-95
315.30 1.121241e-95
315.40 1.121241e-95
315.50 1.121241e-95
315.60 1.121241e-95
315.70 1.121241e-95
315.80 1.121241e-95
315.90 1.121241e-95
316.00 1.121241e-95
316.10 1.121241e-95
316.20 1.121241e-95
316.30 1.121241e-95
316.40 1.121241e-95
316.50 1.121241e-95
316.60 1.121241e-95
316.70 1.121241e-95
316.80 1.121241e-95
316.90 1.121241e-95
317.00 1.121241e-95
317.10 1.121241e-95
317.20 1.121241e-95
317.30 1.121241e-95
317.40 1.121241e-95
317.50 1.121241e-95
317.60 1.121241e-95
317.70 1.121241e-95
317.80 1.121241e-95
317.90 1.121241e-95
318.00 1.121241e-95
318.10 1.121241e-95
318.20 1.121241e-95
318.30 1.121241e-95
318.40 1.121241e-95
318.50 1.121241e-95
318.60 1.121241e-95
318.70 1.121241e-95
318.80 1.121241e-95
318.90 1.121241e-95
319.00 1.121241e-95
319.10 1.121241e-95
319.20 1.121241e-95
319.30 1.121241e-95
319.40 1.121241e-95
319.50 1.121241e-95
319.60 1.121241e-95
319.70 1.121241e-95
319.80 1.121241e-95
319.90 1.121241e-95
320.00 1.121241e-95
320.10 1.121241e-95
320.20 1.121241e-95
320.30 1.121241e-95
320.40 1.121241e-95
320.50 1.121241e-95
320.60 1.121241e-95
320.70 1.121241e-95
320.80 1.121241e-95
320.90 1.121241e-95
321.00 1.121241e-95
321.10 1.121241e-95
321.20 1.121241e-95
321.30 1.121241e-95
321.40 1.121241e-95
321.50 1.121241e-95
321.60 1.121241e-95
321.70 1.121241e-95
321.80 1.121241e-95
321.90 1.121241e-95
322.00 1.121241e-95
322.10 1.121241e-95
322.20 1.121241e-95
322.30 1.121241e-95
322.40 1.121241e-95
322.50 1.121241e-95
322.60 1.121241e-95
322.70 1.121241e-95
322.80 1.121241e-95
322.90 1.121241e-95
323.00 1.121241e-95
323.10 1.121241e-95
323.20 1.121241e-95
323.30 1.121241e-95
323.40 1.121241e-95
323.50 1.121241e-95
323.60 1.121241e-95
323.70 1.121241e-95
323.80 1.121241e-95
323.90 1.121241e-95
324.00 1.121241e-95
324.10 1.121241e-95
324.20 1.121241e-95
324.30 1.121241e-95
324.40 1.121241e-95
324.50 1.121241e-95
324.60 1.121241e-95
324.70 1.121241e-95
324.80 1.121241e-95
324.90 1.121241e-95
325.00 1.121241e-95
325.10 1.121241e-95
325.20 1.121241e-95
325.30 1.121241e-95
325.40 1.121241e-95
325.50 1.121241e-95
325.60 1.121241e-95
325.70 1.121241e-95
325.80 1.121241e-95
325.90 1.121241e-95
326.00 1.121241e-95
326.10 1.121241e-95
326.20 1.121241e-95
326.30 1.121241e-95
326.40 1.121241e-95
326.50 1.121241e-95
326.60 1.121241e-95
326.70 1.121241e-95
326.80 1.121241e-95
326.90 1.121241e-95
327.00 1.121241e-95
327.10 1.121241e-95
327.20 1.121241e-95
327.30 1.121241e-95
327.40 1.121241e-95
327.50 1.121241e-95
327.60 1.121241e-95
327.70 1.121241e-95
327.80 1.121241e-95
327.90 1.121241e-95
328.00 1.121241e-95
328.10 1.121241e-95
328.20 1.121241e-95
328.30 1.121241e-95
328.40 1.121241e-95
328.50 1.121241e-95
328.60 1.121241e-95
328.70 1.121241e-95
328.80 1.121241e-95
328.90 1.121241e-95
329.00 1.121241e-95
329.10 1.121241e-95
329.20 1.121241e-95
329.30 1.121241e-95
329.40 1.121241e-95
329.50 1.121241e-95
329.60 1.121241e-95
329.70 1.121241e-95
329.80 1.121241e-95
329.90 1.121241e-95
330.00 1.121241e-95
330.10 1.121241e-95
330.20 1.121241e-95
330.30 1.121241e-95
330.40 1.121241e-95
330.50 1.121241e-95
330.60 1.121241e-95
330.70 1.121241e-95
330.80 1.121241e-95
330.90 1.121241e-95
331.00 1.121241e-95
331.10 1.121241e-95
331.20 1.121241e-95
331.30 1.121241e-95
331.40 1.121241e-95
331.50 1.121241e-95
331.60 1.121241e-95
331.70 1.121241e-95
331.80 1.121241e-95
331.90 1.121241e-95
332.00 1.121241e-95
332.10 1.121241e-95
332.20 1.121241e-95
332.30 1.121241e-95
332.40 1.121241e-95
332.50 1.121241e-95
332.60 1.121241e-95
332.70 1.121241e-95
332.80 1.121241e-95
332.90 1.121241e-95
333.00 1.121241e-95
333.10 1.121241e-95
333.20 1.121241e-95
333.30 1.121241e-95
333.40 1.121241e-95
333.50 1.121241e-95
333.60 1.121241e-95
333.70 1.121241e-95
333.80 1.121241e-95
333.90 1.121241e-95
334.00 1.121241e-95
334.10 1.121241e-95
334.20 1.121241e-95
334.30 1.121241e-95
334.40 1.121241e-95
334.50 1.121241e-95
334.60 1.121241e-95
334.70 1.121241e-95
334.80 1.121241e-95
334.90 1.121241e-95
335.00 1.121241e-95
335.10 1.121241e-95
335.20 1.121241e-95
335.30 1.121241e-95
335.40 1.121241e-95
335.50 1.121241e-95
335.60 1.121241e-95
335.70 1.121241e-95
335.80 1.121241e-95
335.90 1.121241e-95
336.00 1.121241e-95
336.10 1.121241e-95
336.20 1.121241e-95
336.30 1.121241e-95
336.40 1.121241e-95
336.50 1.121241e-95
336.60 1.121241e-95
336.70 1.121241e-95
336.80 1.121241e-95
336.90 1.121241e-95
337.00 1.121241e-95
337.10 1.121241e-95
337.20 1.121241e-95
337.30 1.121241e-95
337.40 1.121241e-95
337.50 1.121241e-95
337.60 1.121241e-95
337.70 1.121241e-95
337.80 1.121241e-95
337.90 1.121241e-95
338.00 1.121241e-95
338.10 1.121241e-95
338.20 1.121241e-95
338.30 1.121241e-95
338.40 1.121241e-95
338.50 1.121241e-95
338.60 1.121241e-95
338.70 1.121241e-95
338.80 1.121241e-95
338.90 1.121241e-95
339.00 1.121241e-95
339.10 1.121241e-95
339.20 1.121241e-95
339.30 1.121241e-95
339.40 1.121241e-95
339.50 1.121241e-95
339.60 1.121241e-95
339.70 1.121241e-95
339.80 1.121241e-95
339.90 1.121241e-95
340.00 1.121241e-95
340.10 1.121241e-95
340.20 1.121241e-95
340.30 1.121241e-95
340.40 1.121241e-95
340.50 1.121241e-95
340.60 1.121241e-95
340.70 1.121241e-95
340.80 1.121241e-95
340.90 1.121241e-95
341.00 1.121241e-95
341.10 1.121241e-95
341.20 1.121241e-95
341.30 1.121241e-95
341.40 1.121241e-95
341.50 1.121241e-95
341.60 1.121241e-95
341.70 1.121241e-95
341.80 1.121241e-95
341.90 1.121241e-95
342.00 1.121241e-95
342.10 1.121241e-95
342.20 1.121241e-95
342.30 1.121241e-95
342.40 1.121241e-95
342.50 1.121241e-95
342.60 1.121241e-95
342.70 1.121241e-95
342.80 1.121241e-95
342.90 1.121241e-95
343.00 1.121241e-95
343.10 1.121241e-95
343.20 1.121241e-95
343.30 1.121241e-95
343.40 1.121241e-95
343.50 1.121241e-95
343.60 1.121241e-95
343.70 1.121241e-95
343.80 1.121241e-95
343.90 1.121241e-95
344.00 1.121241e-95
344.10 1.121241e-95
344.20 1.121241e-95
344.30 1.121241e-95
344.40 1.121241e-95
344.50 1.121241e-95
344.60 1.121241e-95
344.70 1.121241e-95
344.80 1.121241e-95
344.90 1.121241e-95
345.00 1.121241e-95
345.10 1.121241e-95
345.20 1.121241e-95
345.30 1.121241e-95
345.40 1.121241e-95
345.50 1.121241e-95
345.60 1.121241e-95
345.70 1.121241e-95
345.80 1.121241e-95
345.90 1.121241e-95
346.00 1.121241e-95
346.10 1.121241e-95
346.20 1.121241e-95
346.30 1.121241e-95
346.40 1.121241e-95
346.50 1.121241e-95
346.60 1.121241e-95
346.70 1.121241e-95
346.80 1.121241e-95
346.90 1.121241e-95
347.00 1.121241e-95
347.10 1.121241e-95
347.20 1.121241e-95
347.30 1.121241e-95
347.40 1.121241e-95
347.50 1.121241e-95
347.60 1.121241e-95
347.70 1.121241e-95
347.80 1.121241e-95
347.90 1.121241e-95
348.00 1.121241e-95
348.10 1.121241e-95
348.20 1.121241e-95
348.30 1.121241e-95
348.40 1.121241e-95
348.50 1.121241e-95
348.60 1.121241e-95
348.70 1.121241e-95
348.80 1.121241e-95
348.90 1.121241e-95
349.00 1.121241e-95
349.10 1.121241e-95
349.20 1.121241e-95
349.30 1.121241e-95
349.40 1.121241e-95
349.50 1.121241e-95
349.60 1.121241e-95
349.70 1.121241e-95
349.80 1.121241e-95
349.90 1.121241e-95
350.00 1.121241e-95
350.10 1.121241e-95
350.20 1.121241e-95
350.30 1.121241e-95
350.40 1.121241e-95
350.50 1.121241e-95
350.60 1.121241e-95
350.70 1.121241e-95
350.80 1.121241e-95
350.90 1.121241e-95
351.00 1.121241e-95
351.10 1.121241e-95
351.20 1.121241e-95
351.30 1.121241e-95
351.40 1.121241e-95
351.50 1.121241e-95
351.60 1.121241e-95
351.70 1.121241e-95
351.80 1.121241e-95
351.90 1.121241e-95
352.00 1.121241e-95
352.10 1.121241e-95
352.20 1.121241e-95
352.30 1.121241e-95
352.40 1.121241e-95
352.50 1.121241e-95
352.60 1.121241e-95
352.70 1.121241e-95
352.80 1.121241e-95
352.90 1.121241e-95
353.00 1.121241e-95
353.10 1.121241e-95
353.20 1.121241e-95
353.30 1.121241e-95
353.40 1.121241e-95
353.50 1.121241e-95
353.60 1.121241e-95
353.70 1.121241e-95
353.80 1.121241e-95
353.90 1.121241e-95
354.00 1.121241e-95
354.10 1.121241e-95
354.20 1.121241e-95
354.30 1.121241e-95
354.40 1.121241e-95
354.50 1.121241e-95
354.60 1.121241e-95
354.70 1.121241e-95
354.80 1.121241e-95
354.90 1.121241e-95
355.00 1.121241e-95
355.10 1.121241e-95
355.20 1.121241e-95
355.30 1.121241e-95
355.40 1.121241e-95
355.50 1.121241e-95
355.60 1.121241e-95
355.70 1.121241e-95
355.80 1.121241e-95
355.90 1.121241e-95
356.00 1.121241e-95
356.10 1.121241e-95
356.20 1.121241e-95
356.30 1.121241e-95
356.40 1.121241e-95
356.50 1.121241e-95
356.60 1.121241e-95
356.70 1.121241e-95
356.80 1.121241e-95
356.90 1.121241e-95
357.00 1.121241e-95
357.10 1.121241e-95
357.20 1.121241e-95
357.30 1.121241e-95
357.40 1.121241e-95
357.50 1.121241e-95
357.60 1.121241e-95
357.70 1.121241e-95
357.80 1.121241e-95
357.90 1.121241e-95
358.00 1.121241e-95
358.10 1.121241e-95
358.20 1.121241e-95
358.30 1.121241e-95
358.40 1.121241e-95
358.50 1.121241e-95
358.60 1.121241e-95
358.70 1.121241e-95
358.80 1.121241e-95
358.90 1.121241e-95
359.00 1.121241e-95
359.10 1.121241e-95
359.20 1.121241e-95
359.30 1.121241e-95
359.40 1.121241e-95
359.50 1.121241e-95
359.60 1.121241e-95
359.70 1.121241e-95
359.80 1.121241e-95
359.90 1.121241e-95
360.00 1.121241e-95
360.10 1.121241e-95
360.20 1.121241e-95
360.30 1.121241e-95
360.40 1.121241e-95
360.50 1.121241e-95
360.60 1.121241e-95
360.70 1.121241e-95
360.80 1.121241e-95
360.90 1.121241e-95
361.00 1.121241e-95
361.10 1.121241e-95
361.20 1.121241e-95
361.30 1.121241e-95
361.40 1.121241e-95
361.50 1.121241e-95
361.60 1.121241e-95
361.70 1.121241e-95
361.80 1.121241e-95
361.90 1.121241e-95
362.00 1.121241e-95
362.10 1.121241e-95
362.20 1.121241e-95
362.30 1.121241e-95
362.40 1.121241e-95
362.50 1.121241e-95
362.60 1.121241e-95
362.70 1.121241e-95
362.80 1.121241e-95
362.90 1.121241e-95
363.00 1.121241e-95
363.10 1.121241e-95
363.20 1.121241e-95
363.30 1.121241e-95
363.40 1.121241e-95
363.50 1.121241e-95
363.60 1.121241e-95
363.70 1.121241e-95
363.80 1.121241e-95
363.90 1.121241e-95
364.00 1.121241e-95
364.10 1.121241e-95
364.20 1.121241e-95
364.30 1.121241e-95
364.40 1.121241e-95
364.50 1.121241e-95
364.60 1.121241e-95
364.70 1.121241e-95
364.80 1.121241e-95
364.90 1.121241e-95
365.00 1.121241e-95
365.10 1.121241e-95
365.20 1.121241e-95
365.30 1.121241e-95
365.40 1.121241e-95
365.50 1.121241e-95
365.60 1.121241e-95
365.70 1.121241e-95
365.80 1.121241e-95
365.90 1.121241e-95
366.00 1.121241e-95
366.10 1.121241e-95
366.20 1.121241e-95
366.30 1.121241e-95
366.40 1.121241e-95
366.50 1.121241e-95
366.60 1.121241e-95
366.70 1.121241e-95
366.80 1.121241e-95
366.90 1.121241e-95
367.00 1.121241e-95
367.10 1.121241e-95
367.20 1.121241e-95
367.30 1.121241e-95
367.40 1.121241e-95
367.50 1.121241e-95
367.60 1.121241e-95
367.70 1.121241e-95
367.80 1.121241e-95
367.90 1.121241e-95
368.00 1.121241e-95
368.10 1.121241e-95
368.20 1.121241e-95
368.30 1.121241e-95
368.40 1.121241e-95
368.50 1.121241e-95
368.60 1.121241e-95
368.70 1.121241e-95
368.80 1.121241e-95
368.90 1.121241e-95
369.00 1.121241e-95
369.10 1.121241e-95
369.20 1.121241e-95
369.30 1.121241e-95
369.40 1.121241e-95
369.50 1.121241e-95
369.60 1.121241e-95
369.70 1.121241e-95
369.80 1.121241e-95
369.90 1.121241e-95
370.00 1.121241e-95
370.10 1.121241e-95
370.20 1.121241e-95
370.30 1.121241e-95
370.40 1.121241e-95
370.50 1.121241e-95
370.60 1.121241e-95
370.70 1.121241e-95
370.80 1.121241e-95
370.90 1.121241e-95
371.00 1.121241e-95
371.10 1.121241e-95
371.20 1.121241e-95
371.30 1.121241e-95
371.40 1.121241e-95
371.50 1.121241e-95
371.60 1.121241e-95
371.70 1.121241e-95
371.80 1.121241e-95
371.90 1.121241e-95
372.00 1.121241e-95
372.10 1.121241e-95
372.20 1.121241e-95
372.30 1.121241e-95
372.40 1.121241e-95
372.50 1.121241e-95
372.60 1.121241e-95
372.70 1.121241e-95
372.80 1.121241e-95
372.90 1.121241e-95
373.00 1.121241e-95
373.10 1.121241e-95
373.20 1.121241e-95
373.30 1.121241e-95
373.40 1.121241e-95
373.50 1.121241e-95
373.60 1.121241e-95
373.70 1.121241e-95
373.80 1.121241e-95
373.90 1.121241e-95
374.00 1.121241e-95
374.10 1.121241e-95
374.20 1.121241e-95
374.30 1.121241e-95
374.40 1.121241e-95
374.50 1.121241e-95
374.60 1.121241e-95
374.70 1.121241e-95
374.80 1.121241e-95
374.90 1.121241e-95
375.00 1.121241e-95
375.10 1.121241e-95
375.20 1.121241e-95
375.30 1.121241e-95
375.40 1.121241e-95
375.50 1.121241e-95
375.60 1.121241e-95
375.70 1.121241e-95
375.80 1.121241e-95
375.90 1.121241e-95
376.00 1.121241e-95
376.10 1.121241e-95
376.20 1.121241e-95
376.30 1.121241e-95
376.40 1.121241e-95
376.50 1.121241e-95
376.60 1.121241e-95
376.70 1.121241e-95
376.80 1.121241e-95
376.90 1.121241e-95
377.00 1.121241e-95
377.10 1.121241e-95
377.20 1.121241e-95
377.30 1.121241e-95
377.40 1.121241e-95
377.50 1.121241e-95
377.60 1.121241e-95
377.70 1.121241e-95
377.80 1.121241e-95
377.90 1.121241e-95
378.00 1.121241e-95
378.10 1.121241e-95
378.20 1.121241e-95
378.30 1.121241e-95
378.40 1.121241e-95
378.50 1.121241e-95
378.60 1.121241e-95
378.70 1.121241e-95
378.80 1.121241e-95
378.90 1.121241e-95
379.00 1.121241e-95
379.10 1.121241e-95
379.20 1.121241e-95
379.30 1.121241e-95
379.40 1.121241e-95
379.50 1.121241e-95
379.60 1.121241e-95
379.70 1.121241e-95
379.80 1.121241e-95
379.90 1.121241e-95
380.00 1.121241e-95
380.10 1.121241e-95
380.20 1.121241e-95
380.30 1.121241e-95
380.40 1.121241e-95
380.50 1.121241e-95
380.60 1.121241e-95
380.70 1.121241e-95
380.80 1.121241e-95
380.90 1.121241e-95
381.00 1.121241e-95
381.10 1.121241e-95
381.20 1.121241e-95
381.30 1.121241e-95
381.40 1.121241e-95
381.50 1.121241e-95
381.60 1.121241e-95
381.70 1.121241e-95
381.80 1.121241e-95
381.90 1.121241e-95
382.00 1.121241e-95
382.10 1.121241e-95
382.20 1.121241e-95
382.30 1.121241e-95
382.40 1.121241e-95
382.50 1.121241e-95
382.60 1.121241e-95
382.70 1.121241e-95
382.80 1.121241e-95
382.90 1.121241e-95
383.00 1.121241e-95
383.10 1.121241e-95
383.20 1.121241e-95
383.30 1.121241e-95
383.40 1.121241e-95
383.50 1.121241e-95
383.60 1.121241e-95
383.70 1.121241e-95
383.80 1.121241e-95
383.90 1.121241e-95
384.00 1.121241e-95
384.10 1.121241e-95
384.20 1.121241e-95
384.30 1.121241e-95
384.40 1.121241e-95
384.50 1.121241e-95
384.60 1.121241e-95
384.70 1.121241e-95
384.80 1.121241e-95
384.90 1.121241e-95
385.00 1.121241e-95
385.10 1.121241e-95
385.20 1.121241e-95
385.30 1.121241e-95
385.40 1.121241e-95
385.50 1.121241e-95
385.60 1.121241e-95
385.70 1.121241e-95
385.80 1.121241e-95
385.90 1.121241e-95
386.00 1.121241e-95
386.10 1.121241e-95
386.20 1.121241e-95
386.30 1.121241e-95
386.40 1.121241e-95
386.50 1.121241e-95
386.60 1.121241e-95
386.70 1.121241e-95
386.80 1.121241e-95
386.90 1.121241e-95
387.00 1.121241e-95
387.10 1.121241e-95
387.20 1.121241e-95
387.30 1.121241e-95
387.40 1.121241e-95
387.50 1.121241e-95
387.60 1.121241e-95
387.70 1.121241e-95
387.80 1.121241e-95
387.90 1.121241e-95
388.00 1.121241e-95
388.10 1.121241e-95
388.20 1.121241e-95
388.30 1.121241e-95
388.40 1.121241e-95
388.50 1.121241e-95
388.60 1.121241e-95
388.70 1.121241e-95
388.80 1.121241e-95
388.90 1.121241e-95
389.00 1.121241e-95
389.10 1.121241e-95
389.20 1.121241e-95
389.30 1.121241e-95
389.40 1.121241e-95
389.50 1.121241e-95
389.60 1.121241e-95
389.70 1.121241e-95
389.80 1.121241e-95
389.90 1.121241e-95
390.00 1.121241e-95
390.10 1.121241e-95
390.20 1.121241e-95
390.30 1.121241e-95
390.40 1.121241e-95
390.50 1.121241e-95
390.60 1.121241e-95
390.70 1.121241e-95
390.80 1.121241e-95
390.90 1.121241e-95
391.00 1.121241e-95
391.10 1.121241e-95
391.20 1.121241e-95
391.30 1.121241e-95
391.40 1.121241e-95
391.50 1.121241e-95
391.60 1.121241e-95
391.70 1.121241e-95
391.80 1.121241e-95
391.90 1.121241e-95
392.00 1.121241e-95
392.10 1.121241e-95
392.20 1.121241e-95
392.30 1.121241e-95
392.40 1.121241e-95
392.50 1.121241e-95
392.60 1.121241e-95
392.70 1.121241e-95
392.80 1.121241e-95
392.90 1.121241e-95
393.00 1.121241e-95
393.10 1.121241e-95
393.20 1.121241e-95
393.30 1.121241e-95
393.40 1.121241e-95
393.50 1.121241e-95
393.60 1.121241e-95
393.70 1.121241e-95
393.80 1.121241e-95
393.90 1.121241e-95
394.00 1.121241e-95
394.10 1.121241e-95
394.20 1.121241e-95
394.30 1.121241e-95
394.40 1.121241e-95
394.50 1.121241e-95
394.60 1.121241e-95
394.70 1.121241e-95
394.80 1.121241e-95
394.90 1.121241e-95
395.00 1.110028e-95
395.10 1.098816e-95
395.20 1.087603e-95
395.30 1.076391e-95
395.40 1.065179e-95
395.50 1.053966e-95
395.60 1.042754e-95
395.70 1.031541e-95
395.80 1.020329e-95
395.90 1.009116e-95
396.00 9.979041e-96
396.10 9.866917e-96
396.20 0.001025765
396.30 0.004306257
396.40 0.006984198
396.50 0.006984198
396.60 0.006984198
396.70 0.006984198
396.80 0.006984198
396.90 0.006984198
397.00 0.006984198
397.10 0.006984198
397.20 0.006984198
397.30 0.006984198
397.40 0.006984198
397.50 0.006984198
397.60 0.006984198
397.70 0.006984198
397.80 0.006984198
397.90 0.02335401
398.00 0.05423372
398.10 0.0920469
398.20 0.1285577
398.30 0.1565934
398.40 0.170147
398.50 0.170147
398.60 0.170147
398.70 0.170147
398.80 0.170147
398.90 0.170147
399.00 0.1875431
399.10 0.2234321
399.20 0.2729819
399.30 0.3298064
399.40 0.3885404
399.50 0.4459164
399.60 0.4998647
399.70 0.5504764
399.80 0.6012582
399.90 0.6561358
400.00 0.7161742
400.10 0.7783233
400.20 0.8370212
400.30 0.8872444
400.40 0.9270221
400.50 0.9576903
400.60 0.9819294
400.70 1.003702
400.80 1.027426
400.90 1.055961
401.00 1.090437
401.10 1.130285
401.20 1.172868
401.30 1.213358
401.40 1.246153
401.50 1.267096
401.60 1.274782
401.70 1.274782
401.80 1.274782
401.90 1.274782
402.00 1.274782
402.10 1.274782
402.20 1.274782
402.30 1.274782
402.40 1.280689
402.50 1.309765
402.60 1.362098
402.70 1.433935
402.80 1.520063
402.90 1.6141
403.00 1.707644
403.10 1.794389
403.20 1.872155
403.30 1.939988
403.40 1.996713
403.50 2.041958
403.60 2.076907
403.70 2.10232
403.80 2.116461
403.90 2.117456
404.00 2.117456
404.10 2.117456
404.20 2.117456
404.30 2.117456
404.40 2.117456
404.50 2.117456
404.60 2.117456
404.70 2.117456
404.80 2.117456
404.90 2.117456
405.00 2.117456
405.10 2.117456
405.20 2.117456
405.30 2.117456
405.40 2.117456
405.50 2.117456
405.60 2.118598
405.70 2.124524
405.80 2.134864
405.90 2.148418
406.00 2.162458
406.10 2.173137
406.20 2.175662
406.30 2.172382
406.40 2.169704
406.50 2.169704
406.60 2.169704
406.70 2.169704
406.80 2.169704
406.90 2.169704
407.00 2.169704
407.10 2.169704
407.20 2.169704
407.30 2.169704
407.40 2.169704
407.50 2.169704
407.60 2.169704
407.70 2.169704
407.80 2.169704
407.90 2.153334
408.00 2.122454
408.10 2.084641
408.20 2.04813
408.30 2.020094
408.40 2.006541
408.50 2.006541
408.60 2.006541
408.70 2.006541
408.80 2.011653
408.90 2.02475
409.00 2.025182
409.10 2.009055
409.20 1.979679
409.30 1.941832
409.40 1.899291
409.50 1.853828
409.60 1.805496
409.70 1.754885
409.80 1.704103
409.90 1.649225
410.00 1.589187
410.10 1.527038
410.20 1.46834
410.30 1.418117
410.40 1.382723
410.50 1.369088
410.60 1.372554
410.70 1.384782
410.80 1.397453
410.90 1.403851
411.00 1.399256
411.10 1.38303
411.20 1.35948
411.30 1.335861
411.40 1.319592
411.50 1.316512
411.60 1.328755
411.70 1.348723
411.80 1.365096
411.90 1.37443
412.00 1.374762
412.10 1.374762
412.20 1.374762
412.30 1.374762
412.40 1.368855
412.50 1.33978
412.60 1.287447
412.70 1.21561
412.80 1.129482
412.90 1.040527
413.00 0.9595205
413.10 0.8916416
413.20 0.8370365
413.30 0.793748
413.40 0.7591075
413.50 0.7300249
413.60 0.7029311
413.70 0.6775181
413.80 0.6633773
413.90 0.662382
414.00 0.662382
414.10 0.662382
414.20 0.662382
414.30 0.662382
414.40 0.662382
414.50 0.662382
414.60 0.662382
414.70 0.662382
414.80 0.662382
414.90 0.662382
415.00 0.662382
415.10 0.662382
415.20 0.662382
415.30 0.662382
415.40 0.662382
415.50 0.662382
415.60 0.6612399
415.70 0.6553147
415.80 0.6449745
415.90 0.6314201
416.00 0.6173804
416.10 0.6080191
416.20 0.6045125
416.30 0.6045125
416.40 0.6045125
416.50 0.6045125
416.60 0.6045125
416.70 0.6045125
416.80 0.6045125
416.90 0.6045125
417.00 0.6045125
417.10 0.6045125
417.20 0.6045125
417.30 0.6045125
417.40 0.6045125
417.50 0.6045125
417.60 0.6140779
417.70 0.636496
417.80 0.6692589
417.90 0.7091996
418.00 0.7521555
418.10 0.7936827
418.20 0.8312554
418.30 0.8665405
418.40 0.9048966
418.50 0.951927
418.60 1.011269
418.70 1.082975
418.80 1.157271
418.90 1.223165
419.00 1.275796
419.10 1.311907
419.20 1.328995
419.30 1.325924
419.40 1.309731
419.50 1.297817
419.60 1.292201
419.70 1.292201
419.80 1.292201
419.90 1.292201
420.00 1.292201
420.10 1.292201
420.20 1.292201
420.30 1.295976
420.40 1.308117
420.50 1.31571
420.60 1.312454
420.70 1.295249
420.80 1.263898
420.90 1.228964
421.00 1.199083
421.10 1.175461
421.20 1.156428
421.30 1.139557
421.40 1.123031
421.50 1.117028
421.60 1.119514
421.70 1.126867
421.80 1.136053
421.90 1.145448
422.00 1.155107
422.10 1.156411
422.20 1.156411
422.30 1.156411
422.40 1.156411
422.50 1.156411
422.60 1.156411
422.70 1.156411
422.80 1.156411
422.90 1.151328
423.00 1.138791
423.10 1.119925
423.20 1.096764
423.30 1.07222
423.40 1.053354
423.50 1.043947
423.60 1.046347
423.70 1.062526
423.80 1.087281
423.90 1.121546
424.00 1.164705
424.10 1.214359
424.20 1.2655
424.30 1.311509
424.40 1.346545
424.50 1.367502
424.60 1.3743
424.70 1.3743
424.80 1.3743
424.90 1.3743
425.00 1.3743
425.10 1.3743
425.20 1.3743
425.30 1.3743
425.40 1.3743
425.50 1.3743
425.60 1.3743
425.70 1.3743
425.80 1.3743
425.90 1.3743
426.00 1.3743
426.10 1.372982
426.20 1.372938
426.30 1.372938
426.40 1.37744
426.50 1.386902
426.60 1.400315
426.70 1.415593
426.80 1.429978
426.90 1.440716
427.00 1.444492
427.10 1.444492
427.20 1.444492
427.30 1.444492
427.40 1.444492
427.50 1.444492
427.60 1.434926
427.70 1.420865
427.80 1.414997
427.90 1.416596
428.00 1.423488
428.10 1.431837
428.20 1.435992
428.30 1.428929
428.40 1.404254
428.50 1.359904
428.60 1.300562
428.70 1.228856
428.80 1.149449
428.90 1.074084
429.00 1.009451
429.10 0.9590323
429.20 0.9263762
429.30 0.9150228
429.40 0.9201785
429.50 0.9269098
429.60 0.9359752
429.70 0.9467708
429.80 0.9585214
429.90 0.97082
430.00 0.9824402
430.10 0.9916527
430.20 0.9970717
430.30 0.9957397
430.40 0.9817646
430.50 0.9620622
430.60 0.9442944
430.70 0.9332245
430.80 0.9299056
430.90 0.9299056
431.00 0.9299056
431.10 0.9299056
431.20 0.9299056
431.30 0.9299056
431.40 0.9299056
431.50 0.9180446
431.60 0.895631
431.70 0.8683093
431.80 0.8438603
431.90 0.8289255
432.00 0.8251273
432.10 0.8320039
432.20 0.8410585
432.30 0.8490388
432.40 0.8540758
432.50 0.855194
432.60 0.855194
432.70 0.855194
432.80 0.855194
432.90 0.855194
433.00 0.855194
433.10 0.855194
433.20 0.855194
433.30 0.855194
433.40 0.8519753
433.50 0.8452197
433.60 0.8349647
433.70 0.8230155
433.80 0.8074418
433.90 0.7857522
434.00 0.7578677
434.10 0.7267236
434.20 0.6990198
434.30 0.6828179
434.40 0.684217
434.50 0.7053861
434.60 0.7449188
434.70 0.7932063
434.80 0.8408339
434.90 0.8862848
435.00 0.9294243
435.10 0.9714811
435.20 1.014374
435.30 1.059099
435.40 1.104994
435.50 1.149217
435.60 1.187081
435.70 1.21383
435.80 1.226507
435.90 1.226507
436.00 1.226507
436.10 1.226507
436.20 1.226507
436.30 1.226507
436.40 1.222005
436.50 1.212543
436.60 1.19913
436.70 1.183852
436.80 1.169467
436.90 1.158729
437.00 1.154953
437.10 1.154953
437.20 1.154953
437.30 1.154953
437.40 1.154953
437.50 1.154953
437.60 1.154953
437.70 1.150841
437.80 1.136963
437.90 1.11658
438.00 1.093984
438.10 1.073593
438.20 1.05886
438.30 1.051033
438.40 1.047969
438.50 1.045289
438.60 1.045289
438.70 1.045289
438.80 1.045289
438.90 1.041662
439.00 1.035835
439.10 1.030381
439.20 1.025775
439.30 1.021222
439.40 1.016067
439.50 1.009335
439.60 1.000475
439.70 0.9969447
439.80 0.9978048
439.90 1.00118
440.00 1.005483
440.10 1.01026
440.20 1.01621
440.30 1.023681
440.40 1.031326
440.50 1.037034
440.60 1.040632
440.70 1.044102
440.80 1.04894
440.90 1.050349
441.00 1.050349
441.10 1.050349
441.20 1.050349
441.30 1.050349
441.40 1.050349
441.50 1.050349
441.60 1.050349
441.70 1.050349
441.80 1.058611
441.90 1.07214
442.00 1.088589
442.10 1.105339
442.20 1.121231
442.30 1.137503
442.40 1.155835
442.50 1.176623
442.60 1.196795
442.70 1.216321
442.80 1.236025
442.90 1.255797
443.00 1.276076
443.10 1.297096
443.20 1.318498
443.30 1.339842
443.40 1.360017
443.50 1.378237
443.60 1.394393
443.70 1.403378
443.80 1.403201
443.90 1.394623
444.00 1.379349
444.10 1.360839
444.20 1.337402
444.30 1.307594
444.40 1.27116
444.50 1.229033
444.60 1.192797
444.70 1.168216
444.80 1.158603
444.90 1.162548
445.00 1.173993
445.10 1.185106
445.20 1.188289
445.30 1.177877
445.40 1.152642
445.50 1.117311
445.60 1.080861
445.70 1.054111
445.80 1.04147
445.90 1.045114
446.00 1.053689
446.10 1.066529
446.20 1.080223
446.30 1.09125
446.40 1.0973
446.50 1.0973
446.60 1.0973
446.70 1.0973
446.80 1.0973
446.90 1.0973
447.00 1.0973
447.10 1.099138
447.20 1.109773
447.30 1.130682
447.40 1.162483
447.50 1.205508
447.60 1.259909
447.70 1.3203
447.80 1.379298
447.90 1.433438
448.00 1.480223
448.10 1.518971
448.20 1.550071
448.30 1.574034
448.40 1.593144
448.50 1.610831
448.60 1.620606
448.70 1.626399
448.80 1.630788
448.90 1.634091
449.00 1.634788
449.10 1.634788
449.20 1.634788
449.30 1.634788
449.40 1.634788
449.50 1.634788
449.60 1.634583
449.70 1.627318
449.80 1.614707
449.90 1.599033
450.00 1.58311
450.10 1.569121
450.20 1.557752
450.30 1.547838
450.40 1.537644
450.50 1.527011
450.60 1.521545
450.70 1.526512
450.80 1.540805
450.90 1.564157
451.00 1.590554
451.10 1.616206
451.20 1.639629
451.30 1.661528
451.40 1.684849
451.50 1.713718
451.60 1.751438
451.70 1.798661
451.80 1.843552
451.90 1.883221
452.00 1.915397
452.10 1.939144
452.20 1.954838
452.30 1.963012
452.40 1.965555
452.50 1.966455
452.60 1.969175
452.70 1.974307
452.80 1.980998
452.90 1.988248
453.00 1.993775
453.10 1.994241
453.20 1.987005
453.30 1.971484
453.40 1.951309
453.50 1.933089
453.60 1.916933
453.70 1.907357
453.80 1.907039
453.90 1.914927
454.00 1.927671
454.10 1.939556
454.20 1.94898
454.30 1.953745
454.40 1.953745
454.50 1.953745
454.60 1.943651
454.70 1.919944
454.80 1.881929
454.90 1.833106
455.00 1.786788
455.10 1.750913
455.20 1.731981
455.30 1.733945
455.40 1.754397
455.50 1.783886
455.60 1.810643
455.70 1.822957
455.80 1.822922
455.90 1.819278
456.00 1.810702
456.10 1.797863
456.20 1.784168
456.30 1.773141
456.40 1.767091
456.50 1.767091
456.60 1.767091
456.70 1.767091
456.80 1.767091
456.90 1.767091
457.00 1.772983
457.10 1.784001
457.20 1.790137
457.30 1.787463
457.40 1.772991
457.50 1.74424
457.60 1.699266
457.70 1.637406
457.80 1.56539
457.90 1.490093
458.00 1.416057
458.10 1.347823
458.20 1.289728
458.30 1.245371
458.40 1.215643
458.50 1.197957
458.60 1.188182
458.70 1.182389
458.80 1.178
458.90 1.174696
459.00 1.174
459.10 1.174
459.20 1.174
459.30 1.174
459.40 1.174915
459.50 1.179965
459.60 1.18727
459.70 1.194315
459.80 1.198457
459.90 1.198457
460.00 1.198457
460.10 1.198457
460.20 1.198457
460.30 1.198457
460.40 1.198457
460.50 1.198457
460.60 1.200921
460.70 1.200206
460.80 1.196166
460.90 1.188217
461.00 1.175697
461.10 1.158858
461.20 1.137873
461.30 1.115974
461.40 1.092653
461.50 1.063784
461.60 1.026063
461.70 0.9788408
461.80 0.9245776
461.90 0.8675843
462.00 0.8127668
462.10 0.7640892
462.20 0.723449
462.30 0.6944627
462.40 0.6790016
462.50 0.6706038
462.60 0.6621404
462.70 0.6490092
462.80 0.6303483
462.90 0.6093237
463.00 0.5918004
463.10 0.5844207
463.20 0.5924858
463.30 0.6183398
463.40 0.6593707
463.50 0.7076358
463.60 0.7587849
463.70 0.8034002
463.80 0.8347811
463.90 0.8522446
464.00 0.8594645
464.10 0.8619846
464.20 0.8657162
464.30 0.8764517
464.40 0.8977061
464.50 0.9273662
464.60 0.9653694
464.70 1.008875
464.80 1.05388
464.90 1.095724
465.00 1.123923
465.10 1.135429
465.20 1.129635
465.30 1.108891
465.40 1.079408
465.50 1.05047
465.60 1.031396
465.70 1.028909
465.80 1.039404
465.90 1.051328
466.00 1.066113
466.10 1.084318
466.20 1.105239
466.30 1.127925
466.40 1.151831
466.50 1.176186
466.60 1.200135
466.70 1.223048
466.80 1.244757
466.90 1.265374
467.00 1.278465
467.10 1.282766
467.20 1.281558
467.30 1.276411
467.40 1.269158
467.50 1.263638
467.60 1.264245
467.70 1.274202
467.80 1.289474
467.90 1.305749
468.00 1.320838
468.10 1.333643
468.20 1.343991
468.30 1.351686
468.40 1.357043
468.50 1.360462
468.60 1.361441
468.70 1.361441
468.80 1.361441
468.90 1.361441
469.00 1.361441
469.10 1.361441
469.20 1.361441
469.30 1.361441
469.40 1.360526
469.50 1.355475
469.60 1.348514
469.70 1.347395
469.80 1.351554
469.90 1.359038
470.00 1.36369
470.10 1.365569
470.20 1.365861
470.30 1.365884
470.40 1.366555
470.50 1.367757
470.60 1.361643
470.70 1.348868
470.80 1.332196
470.90 1.315385
471.00 1.301508
471.10 1.293195
471.20 1.292794
471.30 1.296687
471.40 1.302728
471.50 1.311325
471.60 1.323127
471.70 1.3387
471.80 1.357913
471.90 1.379957
472.00 1.403334
472.10 1.426191
472.20 1.446276
472.30 1.457793
472.40 1.455436
472.50 1.441205
472.60 1.426776
472.70 1.415249
472.80 1.407515
472.90 1.401517
473.00 1.393235
473.10 1.379181
473.20 1.360644
473.30 1.335895
473.40 1.304933
473.50 1.270234
473.60 1.236509
473.70 1.210088
473.80 1.197003
473.90 1.200624
474.00 1.21932
474.10 1.245837
474.20 1.270779
474.30 1.286622
474.40 1.288154
474.50 1.272032
474.60 1.238554
474.70 1.195048
474.80 1.150043
474.90 1.107627
475.00 1.072742
475.10 1.052013
475.20 1.045434
475.30 1.049787
475.40 1.059424
475.50 1.069373
475.60 1.075744
475.70 1.075879
475.80 1.069045
475.90 1.05712
476.00 1.042335
476.10 1.02413
476.20 1.003209
476.30 0.980523
476.40 0.9589189
476.50 0.9395205
476.60 0.921223
476.70 0.9022832
476.80 0.8818926
476.90 0.861276
477.00 0.8422919
477.10 0.8251358
477.20 0.8095727
477.30 0.7964849
477.40 0.7892406
477.50 0.7890709
477.60 0.7939117
477.70 0.8014219
477.80 0.8096061
477.90 0.8180973
478.00 0.8281755
478.10 0.841088
478.20 0.8570388
478.30 0.8754133
478.40 0.8959853
478.50 0.9190498
478.60 0.9447307
478.70 0.9695571
478.80 0.9901672
478.90 1.004656
479.00 1.011477
479.10 1.011477
479.20 1.011477
479.30 1.011477
479.40 1.011477
479.50 1.011477
479.60 1.011133
479.70 1.005208
479.80 0.9969064
479.90 0.9894219
480.00 0.9847698
480.10 0.9828916
480.20 0.9825991
480.30 0.9825762
480.40 0.9892724
480.50 1.000333
480.60 1.013354
480.70 1.02543
480.80 1.033039
480.90 1.033515
481.00 1.033515
481.10 1.033015
481.20 1.030979
481.30 1.027085
481.40 1.021044
481.50 1.012447
481.60 1.000646
481.70 0.9856483
481.80 0.9700911
481.90 0.9509898
482.00 0.9276125
482.10 0.904756
482.20 0.8846709
482.30 0.8697136
482.40 0.8616211
482.50 0.8614432
482.60 0.8614432
482.70 0.8614432
482.80 0.8614432
482.90 0.8614432
483.00 0.8614432
483.10 0.8613911
483.20 0.8576962
483.30 0.850769
483.40 0.8406997
483.50 0.8271341
483.60 0.8097101
483.70 0.7878752
483.80 0.7676487
483.90 0.7461785
484.00 0.7197416
484.10 0.6875775
484.20 0.6518383
484.30 0.6204949
484.40 0.5977081
484.50 0.5841699
484.60 0.5796452
484.70 0.5796452
484.80 0.5796452
484.90 0.5814964
485.00 0.588313
485.10 0.5929552
485.20 0.5937677
485.30 0.5912323
485.40 0.5869244
485.50 0.5819363
485.60 0.5772129
485.70 0.5743296
485.80 0.5750802
485.90 0.5779865
486.00 0.5798456
486.10 0.5798456
486.20 0.5798456
486.30 0.5798456
486.40 0.5775435
486.50 0.5725872
486.60 0.5669358
486.70 0.5629621
486.80 0.5616442
486.90 0.5616442
487.00 0.5616442
487.10 0.5641914
487.20 0.5784611
487.30 0.6025089
487.40 0.6305376
487.50 0.6572083
487.60 0.6811296
487.70 0.7033393
487.80 0.7259248
487.90 0.7492232
488.00 0.7712331
488.10 0.7890234
488.20 0.8001975
488.30 0.8030607
488.40 0.7950219
488.50 0.7740607
488.60 0.7474009
488.70 0.7225745
488.80 0.7019644
488.90 0.6874754
489.00 0.6806547
489.10 0.6867158
489.20 0.6992257
489.30 0.7142192
489.40 0.7268512
489.50 0.732264
489.60 0.732264
489.70 0.732264
489.80 0.732264
489.90 0.732264
490.00 0.732264
490.10 0.732264
490.20 0.732264
490.30 0.732264
490.40 0.7332582
490.50 0.7356003
490.60 0.7385335
490.70 0.7425022
490.80 0.7505254
490.90 0.766156
491.00 0.7837837
491.10 0.8037506
491.20 0.8266279
491.30 0.8518226
491.40 0.8775754
491.50 0.9017334
491.60 0.9221934
491.70 0.9366293
491.80 0.9418731
491.90 0.9427411
492.00 0.943288
492.10 0.943288
492.20 0.943288
492.30 0.943288
492.40 0.9454303
492.50 0.951103
492.60 0.9594405
492.70 0.9690845
492.80 0.9791185
492.90 0.9896303
493.00 1.001515
493.10 1.015695
493.20 1.032578
493.30 1.051958
493.40 1.073518
493.50 1.097803
493.60 1.125629
493.70 1.156549
493.80 1.182043
493.90 1.201816
494.00 1.217814
494.10 1.232836
494.20 1.248696
494.30 1.25987
494.40 1.263002
494.50 1.263002
494.60 1.263002
494.70 1.263002
494.80 1.263002
494.90 1.261151
495.00 1.252754
495.10 1.240039
495.20 1.224457
495.30 1.207106
495.40 1.190148
495.50 1.175745
495.60 1.164999
495.70 1.157921
495.80 1.15351
495.90 1.152756
496.00 1.160148
496.10 1.176329
496.20 1.19837
496.30 1.224263
496.40 1.250708
496.50 1.273872
496.60 1.290623
496.70 1.29902
496.80 1.29902
496.90 1.29902
497.00 1.29902
497.10 1.296472
497.20 1.282203
497.30 1.258155
497.40 1.227295
497.50 1.192039
497.60 1.153244
497.70 1.113851
497.80 1.076149
497.90 1.039893
498.00 1.006023
498.10 0.9760635
498.20 0.951445
498.30 0.9342962
498.40 0.9273727
498.50 0.9330695
498.60 0.945813
498.70 0.9607463
498.80 0.9775083
498.90 0.9949667
499.00 1.01146
499.10 1.018755
499.20 1.014695
499.30 1.002887
499.40 0.9902552
499.50 0.9848424
499.60 0.9848424
499.70 0.9848424
499.80 0.9851954
499.90 0.9901034
500.00 1
500.10 1.014851
500.20 1.033165
500.30 1.051752
500.40 1.058767
500.50 1.053513
500.60 1.037396
500.70 1.020677
500.80 1.004902
500.90 0.9887947
501.00 0.971167
501.10 0.9512001
501.20 0.9283229
501.30 0.9031282
501.40 0.8773753
501.50 0.8532174
501.60 0.8328739
501.70 0.8212903
501.80 0.8184094
501.90 0.8227387
502.00 0.8321095
502.10 0.8429877
502.20 0.8545687
502.30 0.8671953
502.40 0.8787551
502.50 0.8875555
502.60 0.8937078
502.70 0.8981971
502.80 0.9018422
502.90 0.9032292
503.00 0.8997392
503.10 0.8896151
503.20 0.8727316
503.30 0.8533513
503.40 0.8317919
503.50 0.8075063
503.60 0.7796811
503.70 0.748761
503.80 0.7165126
503.90 0.685239
504.00 0.6602621
504.10 0.6402933
504.20 0.6237531
504.30 0.6125796
504.40 0.6094473
504.50 0.6094473
504.60 0.6094473
504.70 0.6094473
504.80 0.6094473
504.90 0.6094473
505.00 0.6094473
505.10 0.6097734
505.20 0.6097734
505.30 0.6097734
505.40 0.6097734
505.50 0.6097734
505.60 0.6097734
505.70 0.6097734
505.80 0.6097734
505.90 0.6076217
506.00 0.5983703
506.10 0.5836594
506.20 0.5695987
506.30 0.5558265
506.40 0.5425832
506.50 0.5315201
506.60 0.5244864
506.70 0.5227477
506.80 0.5263577
506.90 0.5278238
507.00 0.5290759
507.10 0.53233
507.20 0.5390576
507.30 0.5492935
507.40 0.5616591
507.50 0.5738064
507.60 0.5837301
507.70 0.5880652
507.80 0.5855684
507.90 0.578944
508.00 0.5700654
508.10 0.559247
508.20 0.5465993
508.30 0.5348156
508.40 0.5238482
508.50 0.5126292
508.60 0.4998856
508.70 0.4849523
508.80 0.4681904
508.90 0.450732
509.00 0.4342383
509.10 0.420883
509.20 0.4124332
509.30 0.409247
509.40 0.409247
509.50 0.409247
509.60 0.409247
509.70 0.409247
509.80 0.4088941
509.90 0.403986
510.00 0.3940894
510.10 0.3792386
510.20 0.3609239
510.30 0.3423377
510.40 0.3289109
510.50 0.3286097
510.60 0.3426715
510.70 0.3615125
510.80 0.38136
510.90 0.3992787
511.00 0.4123914
511.10 0.4188777
511.20 0.4189601
511.30 0.4189601
511.40 0.4189601
511.50 0.4189601
511.60 0.4188435
511.70 0.4160296
511.80 0.4142749
511.90 0.4125242
512.00 0.4096154
512.10 0.4056299
512.20 0.4004756
512.30 0.3936684
512.40 0.3853009
512.50 0.3754318
512.60 0.3635326
512.70 0.3493994
512.80 0.3357203
512.90 0.3238214
513.00 0.3154264
513.10 0.3113712
513.20 0.3113712
513.30 0.3113712
513.40 0.3113712
513.50 0.3113712
513.60 0.3190428
513.70 0.3321387
513.80 0.3479213
513.90 0.364576
514.00 0.377891
514.10 0.3903531
514.20 0.4053456
514.30 0.4236715
514.40 0.4444587
514.50 0.4676103
514.60 0.4924281
514.70 0.5178752
514.80 0.5427034
514.90 0.5656466
515.00 0.5860444
515.10 0.6042877
515.20 0.6222135
515.30 0.6403674
515.40 0.6598316
515.50 0.6818422
515.60 0.7068256
515.70 0.733855
515.80 0.7622082
515.90 0.7924207
516.00 0.8248962
516.10 0.8575898
516.20 0.8844559
516.30 0.9067888
516.40 0.9261156
516.50 0.9420326
516.60 0.9528511
516.70 0.95776
516.80 0.957385
516.90 0.9559189
517.00 0.9546668
517.10 0.9514127
517.20 0.9459708
517.30 0.9433084
517.40 0.9438727
517.50 0.9479935
517.60 0.9550508
517.70 0.9632877
517.80 0.971339
517.90 0.9794386
518.00 0.9887107
518.10 0.9997793
518.20 1.012261
518.30 1.022352
518.40 1.028329
518.50 1.029254
518.60 1.029254
518.70 1.029254
518.80 1.029254
518.90 1.029254
519.00 1.035044
519.10 1.04917
519.20 1.071657
519.30 1.100764
519.40 1.133699
519.50 1.167933
519.60 1.200669
519.70 1.228881
519.80 1.250379
519.90 1.264311
520.00 1.27063
520.10 1.27063
520.20 1.27063
520.30 1.27063
520.40 1.268679
520.50 1.25963
520.60 1.244569
520.70 1.225728
520.80 1.20588
520.90 1.187962
521.00 1.174849
521.10 1.16865
521.20 1.170949
521.30 1.175436
521.40 1.181515
521.50 1.187988
521.60 1.193251
521.70 1.19598
521.80 1.193615
521.90 1.189237
522.00 1.186116
522.10 1.185563
522.20 1.187027
522.30 1.189178
522.40 1.190312
522.50 1.189595
522.60 1.188694
522.70 1.1898
522.80 1.192507
522.90 1.199069
523.00 1.210788
523.10 1.226575
523.20 1.24317
523.30 1.256948
523.40 1.26598
523.50 1.271124
523.60 1.267396
523.70 1.260092
523.80 1.255014
523.90 1.257368
524.00 1.270752
524.10 1.294421
524.20 1.322551
524.30 1.346763
524.40 1.360102
524.50 1.359175
524.60 1.343895
524.70 1.318448
524.80 1.29362
524.90 1.270677
525.00 1.250279
525.10 1.23171
525.20 1.213784
525.30 1.19563
525.40 1.176166
525.50 1.154155
525.60 1.129172
525.70 1.106593
525.80 1.090106
525.90 1.07688
526.00 1.062976
526.10 1.046192
526.20 1.025425
526.30 0.9999892
526.40 0.971402
526.50 0.944574
526.60 0.9255795
526.70 0.9184789
526.80 0.9244221
526.90 0.9386179
527.00 0.9564065
527.10 0.9748903
527.20 0.9892705
527.30 0.9926414
527.40 0.9858023
527.50 0.9710463
527.60 0.9540653
527.70 0.9384338
527.80 0.9245397
527.90 0.9112555
528.00 0.897555
528.10 0.8845022
528.20 0.874048
528.30 0.8673396
528.40 0.8653633
528.50 0.868571
528.60 0.8730793
528.70 0.8785215
528.80 0.8855278
528.90 0.895365
529.00 0.9032309
529.10 0.9066537
529.20 0.9060826
529.30 0.9036206
529.40 0.9015813
529.50 0.9019202
529.60 0.9067077
529.70 0.9175966
529.80 0.9350313
529.90 0.958262
530.00 0.9857778
530.10 1.015272
530.20 1.039882
530.30 1.058705
530.40 1.070929
530.50 1.076524
530.60 1.076524
530.70 1.076524
530.80 1.076524
530.90 1.076524
531.00 1.076524
531.10 1.076237
531.20 1.073856
531.30 1.069368
531.40 1.06329
531.50 1.058244
531.60 1.055812
531.70 1.056359
531.80 1.059515
531.90 1.063856
532.00 1.067365
532.10 1.068585
532.20 1.067289
532.30 1.064235
532.40 1.060656
532.50 1.057527
532.60 1.055836
532.70 1.05473
532.80 1.052024
532.90 1.046503
533.00 1.039013
533.10 1.031269
533.20 1.026688
533.30 1.028167
533.40 1.036305
533.50 1.048626
533.60 1.060669
533.70 1.067308
533.80 1.064685
533.90 1.05048
534.00 1.023496
534.10 0.9858291
534.20 0.943344
534.30 0.9035408
534.40 0.8729081
534.50 0.8548155
534.60 0.8496256
534.70 0.854048
534.80 0.8584194
534.90 0.8627487
535.00 0.8674882
535.10 0.8735606
535.20 0.8811788
535.30 0.8898491
535.40 0.8991302
535.50 0.9086249
535.60 0.918545
535.70 0.9249961
535.80 0.9253845
535.90 0.9222609
536.00 0.9192221
536.10 0.9185803
536.20 0.9212633
536.30 0.9271834
536.40 0.934255
536.50 0.9381087
536.60 0.9365671
536.70 0.9321008
536.80 0.9229227
536.90 0.9087269
537.00 0.8909384
537.10 0.8724546
537.20 0.8567886
537.30 0.8458443
537.40 0.8397534
537.50 0.8382413
537.60 0.8382413
537.70 0.8382413
537.80 0.8382413
537.90 0.8382413
538.00 0.8382413
538.10 0.8393166
538.20 0.8374031
538.30 0.8340203
538.40 0.8300192
538.50 0.8258865
538.60 0.8213783
538.70 0.8159361
538.80 0.8089297
538.90 0.7990926
539.00 0.7854365
539.10 0.7712922
539.20 0.7568937
539.30 0.7414264
539.40 0.725769
539.50 0.7110668
539.60 0.698345
539.70 0.6885996
539.80 0.6818097
539.90 0.6768979
540.00 0.6735234
540.10 0.6723375
540.20 0.6741447
540.30 0.6800749
540.40 0.6905195
540.50 0.7048171
540.60 0.7217558
540.70 0.7361852
540.80 0.74923
540.90 0.7621818
541.00 0.7756621
541.10 0.7899432
541.20 0.8054743
541.30 0.8221926
541.40 0.8394619
541.50 0.854924
541.60 0.8676362
541.70 0.8767276
541.80 0.8813744
541.90 0.8815579
542.00 0.8775042
542.10 0.8699448
542.20 0.8633496
542.30 0.8584332
542.40 0.8555435
542.50 0.8547866
542.60 0.8547866
542.70 0.8547866
542.80 0.8547866
542.90 0.8537454
543.00 0.8495154
543.10 0.8414734
543.20 0.8294591
543.30 0.8142013
543.40 0.7970329
543.50 0.7856597
543.60 0.7835231
543.70 0.7921186
543.80 0.8114315
543.90 0.8399321
544.00 0.8756285
544.10 0.9159992
544.20 0.9578887
544.30 0.9986909
544.40 1.036794
544.50 1.071293
544.60 1.102334
544.70 1.130556
544.80 1.156654
544.90 1.181535
545.00 1.206444
545.10 1.232698
545.20 1.26103
545.30 1.290338
545.40 1.317721
545.50 1.340207
545.60 1.355945
545.70 1.364106
545.80 1.364199
545.90 1.356424
546.00 1.342626
546.10 1.325887
546.20 1.309126
546.30 1.294212
546.40 1.284041
546.50 1.280417
546.60 1.281601
546.70 1.281601
546.80 1.281601
546.90 1.281601
547.00 1.281601
547.10 1.281601
547.20 1.281601
547.30 1.281601
547.40 1.281601
547.50 1.281601
547.60 1.281601
547.70 1.281601
547.80 1.281601
547.90 1.281601
548.00 1.281601
548.10 1.27978
548.20 1.27946
548.30 1.27946
548.40 1.27946
548.50 1.27946
548.60 1.27946
548.70 1.27946
548.80 1.27946
548.90 1.27946
549.00 1.27946
549.10 1.276056
549.20 1.268539
549.30 1.257361
549.40 1.242123
549.50 1.222253
549.60 1.197451
549.70 1.168095
549.80 1.135952
549.90 1.103701
550.00 1.878903
550.10 1.878903
550.20 1.878903
550.30 1.878903
550.40 1.878903
550.50 1.86367
550.60 1.829046
550.70 1.776481
550.80 1.707994
550.90 1.624735
551.00 1.528097
551.10 1.42148
551.20 1.310968
551.30 1.202125
551.40 1.098133
551.50 1.001554
551.60 0.9130819
551.70 0.8314717
551.80 0.755299
551.90 0.6822717
552.00 0.6081514
552.10 0.5273351
552.20 0.4374596
552.30 0.3425137
552.40 0.250853
552.50 0.1709005
552.60 0.1067567
552.70 0.0590995
552.80 0.02823051
552.90 0.01301097
553.00 0.008675579
553.10 0.02215756
553.20 0.05366575
553.30 0.09795844
553.40 0.1484543
553.50 0.2024586
553.60 0.2610459
553.70 0.3265344
553.80 0.3952861
553.90 0.4658455
554.00 0.535614
554.10 0.6014438
554.20 0.6609662
554.30 0.7117901
554.40 0.7522081
554.50 0.7832113
554.60 0.8069916
554.70 0.825295
554.80 0.8394424
554.90 0.8506567
555.00 0.8582926
555.10 0.8582926
555.20 0.8582926
555.30 0.8582926
555.40 0.8582926
555.50 0.8582926
555.60 0.8582926
555.70 0.8582926
555.80 0.8582926
555.90 0.8750187
556.00 0.9576456
556.10 1.092595
556.20 1.257271
556.30 1.424665
556.40 1.570733
556.50 1.689652
556.60 1.797259
556.70 1.912184
556.80 2.04267
556.90 2.184234
557.00 2.327736
557.10 2.452394
557.20 2.546855
557.30 2.610838
557.40 2.644873
557.50 2.649684
557.60 2.626076
557.70 2.576643
557.80 2.507891
557.90 2.437331
558.00 2.367563
558.10 2.301733
558.20 2.242628
558.30 2.201357
558.40 2.177011
558.50 2.163473
558.60 2.152066
558.70 2.134052
558.80 2.119905
558.90 2.10869
559.00 2.101054
559.10 2.101054
559.20 2.101054
559.30 2.101054
559.40 2.101054
559.50 2.101054
559.60 2.101054
559.70 2.106497
559.80 2.115837
559.90 2.108918
560.00 2.034187
560.10 1.905199
560.20 1.745614
560.30 1.582948
560.40 1.443186
560.50 1.335849
560.60 1.248138
560.70 1.16294
560.80 1.073604
560.90 0.9864252
561.00 0.9109799
561.10 0.8523349
561.20 0.8120196
561.30 0.7891074
561.40 0.7826561
561.50 0.7915022
561.60 0.8138746
561.70 0.8498365
561.80 0.8989196
561.90 0.9490194
562.00 1.0019
562.10 1.056255
562.20 1.107008
562.30 1.139215
562.40 1.150998
562.50 1.147527
562.60 1.139551
562.70 1.139365
562.80 1.139365
562.90 1.139365
563.00 1.140158
563.10 1.143763
563.20 1.150547
563.30 1.161821
563.40 1.178381
563.50 1.200886
563.60 1.230703
563.70 1.262758
563.80 1.296465
563.90 1.331359
564.00 1.366106
564.10 1.398579
564.20 1.42865
564.30 1.458264
564.40 1.486296
564.50 1.507657
564.60 1.516139
564.70 1.505782
564.80 1.472591
564.90 1.418205
565.00 1.350148
565.10 1.270653
565.20 1.186875
565.30 1.11498
565.40 1.059595
565.50 1.019229
565.60 0.9868432
565.70 0.9509251
565.80 0.901842
565.90 0.8517422
566.00 0.798862
566.10 0.7445061
566.20 0.6933366
566.30 0.6515765
566.40 0.6237212
566.50 0.6097268
566.60 0.6053301
566.70 0.6111869
566.80 0.6243135
566.90 0.6427582
567.00 0.6667831
567.10 0.6975735
567.20 0.7363311
567.30 0.7805868
567.40 0.8275849
567.50 0.873251
567.60 0.9114753
567.70 0.938018
567.80 0.9526237
567.90 0.9582341
568.00 0.9591202
568.10 0.9578775
568.20 0.9514349
568.30 0.9334897
568.40 0.9000426
568.50 0.8670983
568.60 0.8387212
568.70 0.8193505
568.80 0.8113927
568.90 0.8113927
569.00 0.8113927
569.10 0.8113927
569.20 0.8095178
569.30 0.7959869
569.40 0.7759716
569.50 0.7602121
569.60 0.762369
569.70 0.7959708
569.80 0.8660474
569.90 0.9525617
570.00 1.048706
570.10 1.145539
570.20 1.230765
570.30 1.29334
570.40 1.328878
570.50 1.339413
570.60 1.339413
570.70 1.333453
570.80 1.320326
570.90 1.314941
571.00 1.329784
571.10 1.362263
571.20 1.407413
571.30 1.459385
571.40 1.50891
571.50 1.547461
571.60 1.572619
571.70 1.585233
571.80 1.58661
571.90 1.57831
572.00 1.562062
572.10 1.541589
572.20 1.523852
572.30 1.515922
572.40 1.52258
572.50 1.53051
572.60 1.537799
572.70 1.541136
572.80 1.541136
572.90 1.541136
573.00 1.541136
573.10 1.541136
573.20 1.541136
573.30 1.543184
573.40 1.55325
573.50 1.565431
573.60 1.569832
573.70 1.553088
573.80 1.50528
573.90 1.424243
574.00 1.328099
574.10 1.231266
574.20 1.146039
574.30 1.083465
574.40 1.047927
574.50 1.041336
574.60 1.05657
574.70 1.076521
574.80 1.092157
574.90 1.08203
575.00 1.042368
575.10 0.9754932
575.20 0.8848019
575.30 0.7773007
575.40 0.664217
575.50 0.5574953
575.60 0.4642967
575.70 0.4107601
575.80 0.4094407
575.90 0.4569344
576.00 0.5431875
576.10 0.6514363
576.20 0.7607761
576.30 0.8522565
576.40 0.9123064
576.50 0.9344563
576.60 0.9271678
576.70 0.9238311
576.80 0.9238311
576.90 0.9238311
577.00 0.9238311
577.10 0.9238311
577.20 0.9266432
577.30 0.9342682
577.40 0.9275816
577.50 0.9003169
577.60 0.8658327
577.70 0.832876
577.80 0.8106074
577.90 0.8051297
578.00 0.8051297
578.10 0.8051297
578.20 0.8062932
578.30 0.8191038
578.40 0.8444501
578.50 0.8774679
578.60 0.9073982
578.70 0.9381702
578.80 0.9768668
578.90 1.029113
579.00 1.08277
579.10 1.133807
579.20 1.183896
579.30 1.236514
579.40 1.296246
579.50 1.367759
579.60 1.452805
579.70 1.526656
579.80 1.573641
579.90 1.590242
580.00 1.576487
580.10 1.535667
580.20 1.476754
580.30 1.414565
580.40 1.36599
580.50 1.346501
580.60 1.361259
580.70 1.389442
580.80 1.433354
580.90 1.48952
581.00 1.551456
581.10 1.611197
581.20 1.657065
581.30 1.677269
581.40 1.674993
581.50 1.674993
581.60 1.674993
581.70 1.674993
581.80 1.674993
581.90 1.674993
582.00 1.674993
582.10 1.674993
582.20 1.67383
582.30 1.661019
582.40 1.64658
582.50 1.647398
582.60 1.65627
582.70 1.66222
582.80 1.654679
582.90 1.629
583.00 1.585987
583.10 1.53495
583.20 1.48486
583.30 1.432243
583.40 1.37501
583.50 1.326557
583.60 1.290508
583.70 1.271741
583.80 1.275449
583.90 1.308764
584.00 1.378975
584.10 1.491114
584.20 1.643948
584.30 1.826192
584.40 2.018757
584.50 2.200807
584.60 2.353327
584.70 2.462401
584.80 2.523919
584.90 2.54323
585.00 2.531539
585.10 2.503397
585.20 2.475316
585.30 2.461194
585.40 2.470341
585.50 2.488025
585.60 2.510405
585.70 2.537866
585.80 2.569615
585.90 2.60276
586.00 2.634153
586.10 2.664736
586.20 2.696949
586.30 2.729403
586.40 2.746473
586.50 2.728956
586.60 2.685058
586.70 2.628385
586.80 2.581594
586.90 2.552094
587.00 2.54145
587.10 2.54145
587.20 2.54145
587.30 2.54145
587.40 2.53895
587.50 2.51589
587.60 2.466894
587.70 2.38869
587.80 2.28029
587.90 2.140867
588.00 1.970877
588.10 1.784153
588.20 1.585692
588.30 1.379799
588.40 1.178426
588.50 0.9965845
588.60 0.8458257
588.70 0.7317062
588.80 0.6513999
588.90 0.5950116
589.00 0.5522649
589.10 0.5206659
589.20 0.5000666
589.30 0.4843109
589.40 0.4692766
589.50 0.451593
589.60 0.4439263
589.70 0.454557
589.80 0.4832709
589.90 0.5273611
590.00 0.5812518
590.10 0.6339584
590.20 0.673944
590.30 0.6959829
590.40 0.7020869
590.50 0.6978327
590.60 0.690471
590.70 0.690471
590.80 0.690471
590.90 0.690471
591.00 0.690471
591.10 0.690471
591.20 0.690471
591.30 0.690471
591.40 0.690471
591.50 0.690471
591.60 0.690471
591.70 0.690471
591.80 0.690471
591.90 0.690471
592.00 0.7009787
592.10 0.7080566
592.20 0.6961266
592.30 0.6820192
592.40 0.6718024
592.50 0.6610032
592.60 0.6444837
592.70 0.6213462
592.80 0.5962224
592.90 0.5771345
593.00 0.5696352
593.10 0.5696352
593.20 0.5701458
593.30 0.5754561
593.40 0.5819112
593.50 0.5877451
593.60 0.5791811
593.70 0.5486915
593.80 0.4948693
593.90 0.4182111
594.00 0.3329268
594.10 0.2496379
594.20 0.1774388
594.30 0.1229461
594.40 0.08886541
594.50 0.07285634
594.60 0.07008017
594.70 0.07008017
594.80 0.07046306
594.90 0.09893056
595.00 0.1590673
595.10 0.2489135
595.20 0.3629662
595.30 0.4951532
595.40 0.639426
595.50 0.7887076
595.60 0.9350971
595.70 1.070735
595.80 1.188106
595.90 1.280141
596.00 1.331514
596.10 1.347729
596.20 1.352639
596.30 1.352639
596.40 1.352639
596.50 1.352639
596.60 1.352639
596.70 1.352639
596.80 1.352639
596.90 1.352639
597.00 1.352639
597.10 1.352639
597.20 1.352128
597.30 1.346818
597.40 1.340363
597.50 1.334529
597.60 1.328379
597.70 1.320778
597.80 1.314136
597.90 1.31356
598.00 1.31356
598.10 1.31356
598.20 1.31356
598.30 1.31356
598.40 1.31356
598.50 1.31356
598.60 1.314918
598.70 1.325243
598.80 1.336714
598.90 1.316153
599.00 1.257315
599.10 1.167469
599.20 1.054203
599.30 0.9362544
599.40 0.8281156
599.50 0.7418807
599.60 0.6860261
599.70 0.6651575
599.80 0.6804445
599.90 0.7284716
600.00 0
600.10 0
600.20 0
600.30 0
600.40 0
600.50 0
600.60 0.0543211
600.70 0.413017
600.80 0.4741439
600.90 0.3162657
601.00 0.05196176
601.10 0
601.20 0.03144784
601.30 0.5695521
601.40 1.445356
601.50 2.52187
601.60 3.621393
601.70 4.590774
601.80 5.306307
601.90 5.602487
602.00 5.350279
602.10 4.539722
602.20 3.22236
602.30 1.524446
602.40 0
602.50 0
602.60 0
602.70 0
602.80 0
602.90 0
603.00 0
603.10 0
603.20 0
603.30 0
603.40 0.134208
603.50 0.657189
603.60 1.142711
603.70 1.593977
603.80 1.968015
603.90 2.164551
604.00 2.083358
604.10 1.722408
604.20 1.135576
604.30 0.3957774
604.40 0
604.50 0
604.60 0
604.70 0
604.80 0
604.90 0
605.00 0
605.10 0
605.20 0
605.30 0
605.40 0
605.50 0
605.60 0
605.70 0
605.80 0
605.90 0
606.00 0
606.10 0
606.20 0
606.30 0.9751162
606.40 2.133863
606.50 3.241404
606.60 4.271081
606.70 5.203093
606.80 5.939553
606.90 6.358504
607.00 6.437584
607.10 6.243755
607.20 5.821892
607.30 5.174904
607.40 4.3691
607.50 3.504774
607.60 2.657351
607.70 1.854414
607.80 1.0812
607.90 0.3795269
608.00 0
608.10 0
608.20 0
608.30 0
608.40 0
608.50 0.06567056
608.60 0.6745165
608.70 1.17159
608.80 1.533553
608.90 1.777217
609.00 1.92471
609.10 2.004779
609.20 2.066801
609.30 2.087442
609.40 2.011376
609.50 1.860563
609.60 1.678092
609.70 1.465264
609.80 1.196439
609.90 0.9385816
610.00 0.8149755
610.10 0.8675903
610.20 1.028726
610.30 1.147069
610.40 1.081078
610.50 0.7591709
610.60 0.2208234
610.70 0
610.80 0
610.90 0
611.00 0
611.10 0
611.20 0
611.30 0.5598541
611.40 1.193817
611.50 1.577601
611.60 1.641039
611.70 1.454087
611.80 1.145044
611.90 0.8408823
612.00 0.5993348
612.10 0.394948
612.20 0.1772498
612.30 0
612.40 0
612.50 0
612.60 0
612.70 0
612.80 0
612.90 0
613.00 0
613.10 0
613.20 0
613.30 0
613.40 0
613.50 0
613.60 0
613.70 0
613.80 0
613.90 0.2747039
614.00 0.6596987
614.10 1.036835
614.20 1.37683
614.30 1.662084
614.40 1.912139
614.50 2.149225
614.60 2.357535
614.70 2.500484
614.80 2.573979
614.90 2.607943
615.00 2.620696
615.10 2.592956
615.20 2.503883
615.30 2.35356
615.40 2.131596
615.50 1.832077
615.60 1.468551
615.70 1.056337
615.80 0.555815
615.90 0
616.00 0
616.10 0
616.20 0
616.30 0
616.40 0
616.50 0
616.60 0
616.70 0.4361664
616.80 0.7169901
616.90 0.7194891
617.00 0.4741669
617.10 0.1137898
617.20 0
617.30 0
617.40 0
617.50 0
617.60 0
617.70 0.2890346
617.80 0.6246797
617.90 0.9151498
618.00 1.12304
618.10 1.272965
618.20 1.424941
618.30 1.584549
618.40 1.674901
618.50 1.636467
618.60 1.541538
618.70 1.546468
618.80 1.788518
618.90 2.299937
619.00 3.02424
619.10 3.794166
619.20 4.421581
619.30 4.819323
619.40 4.962158
619.50 4.885128
619.60 4.65706
619.70 4.392719
619.80 4.234149
619.90 4.247566
620.00 4.350096
620.10 4.394429
620.20 4.267905
620.30 3.972995
620.40 3.596436
620.50 3.270693
620.60 3.140718
620.70 3.225515
620.80 3.460016
620.90 3.724733
621.00 3.832075
621.10 3.636748
621.20 3.118753
621.30 2.378333
621.40 1.605546
621.50 0.9835296
621.60 0.6329189
621.70 0.6071384
621.80 0.8802109
621.90 1.363619
622.00 1.917351
622.10 2.454479
622.20 2.935465
622.30 3.317533
622.40 3.630937
622.50 3.921884
622.60 4.182122
622.70 4.370501
622.80 4.443774
622.90 4.390375
623.00 4.213552
623.10 3.907239
623.20 3.499772
623.30 3.075139
623.40 2.766778
623.50 2.653912
623.60 2.728968
623.70 2.971331
623.80 3.321952
623.90 3.674693
624.00 3.864263
624.10 3.807625
624.20 3.568815
624.30 3.249136
624.40 2.902563
624.50 2.558392
624.60 2.24709
624.70 1.943016
624.80 1.586119
624.90 1.130151
625.00 0.5756634
625.10 0
625.20 0
625.30 0
625.40 0
625.50 0
625.60 0
625.70 0
625.80 0.06567074
625.90 1.10516
626.00 2.115104
626.10 2.976355
626.20 3.615585
626.30 4.030187
626.40 4.270776
626.50 4.423718
626.60 4.578496
626.70 4.735691
626.80 4.840442
626.90 4.795629
627.00 4.489818
627.10 3.874129
627.20 2.961479
627.30 1.870548
627.40 0.772449
627.50 0
627.60 0
627.70 0
627.80 0.3297098
627.90 1.441549
628.00 2.665696
628.10 3.763877
628.20 4.59228
628.30 5.12497
628.40 5.342409
628.50 5.191498
628.60 4.727153
628.70 4.114632
628.80 3.517091
628.90 2.975286
629.00 2.496271
629.10 2.139733
629.20 1.983123
629.30 2.061146
629.40 2.26705
629.50 2.385562
629.60 2.198973
629.70 1.587693
629.80 0.6257125
629.90 0
630.00 0
630.10 0
630.20 0
630.30 0
630.40 0.4281747
630.50 1.887019
630.60 3.128348
630.70 3.899798
630.80 4.157963
630.90 3.980265
631.00 3.506654
631.10 2.935718
631.20 2.446532
631.30 2.126534
631.40 1.950059
631.50 1.835873
631.60 1.736567
631.70 1.63315
631.80 1.562015
631.90 1.590652
632.00 1.74145
632.10 1.94591
632.20 2.114919
632.30 2.247962
632.40 2.403004
632.50 2.564275
632.60 2.646644
632.70 2.656183
632.80 2.66139
632.90 2.709274
633.00 2.816757
633.10 2.986263
633.20 3.212206
633.30 3.4459
633.40 3.588775
633.50 3.589689
633.60 3.474384
633.70 3.27247
633.80 2.969476
633.90 2.548045
634.00 2.059548
634.10 1.561837
634.20 1.127139
634.30 0.805124
634.40 0.6042372
634.50 0.5498716
634.60 0.668357
634.70 0.9805755
634.80 1.509669
634.90 2.231158
635.00 3.02846
635.10 3.734852
635.20 4.236161
635.30 4.513051
635.40 4.559384
635.50 4.331787
635.60 3.822645
635.70 3.134387
635.80 2.413326
635.90 1.767284
636.00 1.229533
636.10 0.7845235
636.20 0.457202
636.30 0.3233637
636.40 0.4565558
636.50 0.867138
636.60 1.463455
636.70 2.095546
636.80 2.610311
636.90 2.920236
637.00 2.983154
637.10 2.771876
637.20 2.318617
637.30 1.713918
637.40 1.124682
637.50 0.7442234
637.60 0.6582131
637.70 0.8589722
637.80 1.339275
637.90 2.064409
638.00 2.932956
638.10 3.817436
638.20 4.636653
638.30 5.324905
638.40 5.809011
638.50 6.054865
638.60 6.089673
638.70 5.994359
638.80 5.842761
638.90 5.67917
639.00 5.518349
639.10 5.326624
639.20 5.013479
639.30 4.518678
639.40 3.926598
639.50 3.389694
639.60 3.011882
639.70 2.829921
639.80 2.817692
639.90 2.889172
640.00 2.934416
640.10 2.870458
640.20 2.659934
640.30 2.28307
640.40 1.752181
640.50 1.168762
640.60 0.699566
640.70 0.4784383
640.80 0.5062915
640.90 0.6833408
641.00 0.8972712
641.10 1.084161
641.20 1.247888
641.30 1.447767
641.40 1.748365
641.50 2.170222
641.60 2.678397
641.70 3.224967
641.80 3.768942
641.90 4.195511
642.00 4.351268
642.10 4.18643
642.20 3.762407
642.30 3.19283
642.40 2.61552
642.50 2.155909
642.60 1.918451
642.70 1.950847
642.80 2.238022
642.90 2.725314
643.00 3.32163
643.10 3.89437
643.20 4.320963
643.30 4.585478
643.40 4.713388
643.50 4.689912
643.60 4.515826
643.70 4.26943
643.80 4.061601
643.90 3.971311
644.00 4.005399
644.10 4.11416
644.20 4.211693
644.30 4.207666
644.40 4.048481
644.50 3.72608
644.60 3.294145
644.70 2.839094
644.80 2.474844
644.90 2.283521
645.00 2.278242
645.10 2.41049
645.20 2.617963
645.30 2.846594
645.40 3.068637
645.50 3.324284
645.60 3.652537
645.70 4.037851
645.80 4.472869
645.90 4.972041
646.00 5.4823
646.10 5.860518
646.20 5.950702
646.30 5.702474
646.40 5.193589
646.50 4.587201
646.60 4.049887
646.70 3.690859
646.80 3.52597
646.90 3.438405
647.00 3.311842
647.10 3.149298
647.20 2.964982
647.30 2.714127
647.40 2.381402
647.50 2.05463
647.60 1.890328
647.70 1.987437
647.80 2.320595
647.90 2.76775
648.00 3.169121
648.10 3.426199
648.20 3.55541
648.30 3.675581
648.40 3.917814
648.50 4.319516
648.60 4.845245
648.70 5.449693
648.80 6.057218
648.90 6.549755
649.00 6.821885
649.10 6.832524
649.20 6.640619
649.30 6.355716
649.40 6.043839
649.50 5.7157
649.60 5.364804
649.70 5.00343
649.80 4.622831
649.90 4.211408
650.00 3.808474
650.10 3.487167
650.20 3.345704
650.30 3.469209
650.40 3.888537
650.50 4.586005
650.60 5.41896
650.70 6.154878
650.80 6.64974
650.90 6.849333
651.00 6.734658
651.10 6.328972
651.20 5.743311
651.30 5.108259
651.40 4.540941
651.50 4.207885
651.60 4.205721
651.70 4.491081
651.80 4.918905
651.90 5.305855
652.00 5.554204
652.10 5.665409
652.20 5.683563
652.30 5.657639
652.40 5.643938
652.50 5.673487
652.60 5.737099
652.70 5.831066
652.80 5.930726
652.90 5.962237
653.00 5.914349
653.10 5.858423
653.20 5.846426
653.30 5.886517
653.40 5.939648
653.50 5.94587
653.60 5.879629
653.70 5.752973
653.80 5.590805
653.90 5.489774
654.00 5.523192
654.10 5.684193
654.20 5.944641
654.30 6.237355
654.40 6.458945
654.50 6.530678
654.60 6.462122
654.70 6.331484
654.80 6.274844
654.90 6.397043
655.00 6.642183
655.10 6.895013
655.20 7.081543
655.30 7.106554
655.40 6.918064
655.50 6.550828
655.60 6.080383
655.70 5.654124
655.80 5.368393
655.90 5.199705
656.00 5.136613
656.10 5.155706
656.20 5.169456
656.30 5.129634
656.40 5.086401
656.50 5.105849
656.60 5.202468
656.70 5.357022
656.80 5.540422
656.90 5.71582
657.00 5.874221
657.10 5.978554
657.20 6.028078
657.30 6.082504
657.40 6.102291
657.50 6.013277
657.60 5.804811
657.70 5.514487
657.80 5.217126
657.90 4.979699
658.00 4.845893
658.10 4.877049
658.20 5.119588
658.30 5.538574
658.40 6.0342
658.50 6.494225
658.60 6.795715
658.70 6.818126
658.80 6.539855
658.90 6.114104
659.00 5.772457
659.10 5.65812
659.20 5.791793
659.30 6.183528
659.40 6.854818
659.50 7.722425
659.60 8.628852
659.70 9.442766
659.80 10.06103
659.90 10.36405
660.00 10.30722
660.10 10.05025
660.20 9.787486
660.30 9.558064
660.40 9.291901
660.50 8.937447
660.60 8.524519
660.70 8.113452
660.80 7.732981
660.90 7.402359
661.00 7.146329
661.10 6.995058
661.20 6.964467
661.30 7.051439
661.40 7.227023
661.50 7.391839
661.60 7.446864
661.70 7.356962
661.80 7.144429
661.90 6.87611
662.00 6.647017
662.10 6.558404
662.20 6.683243
662.30 7.06072
662.40 7.692326
662.50 8.486562
662.60 9.249101
662.70 9.803563
662.80 10.07799
662.90 10.05991
663.00 9.760823
663.10 9.238806
663.20 8.594243
663.30 7.935702
663.40 7.339759
663.50 6.826693
663.60 6.413313
663.70 6.119507
663.80 5.929565
663.90 5.843997
664.00 5.877781
664.10 6.067418
664.20 6.411362
664.30 6.851693
664.40 7.344361
664.50 7.834336
664.60 8.267214
664.70 8.593555
664.80 8.749108
664.90 8.675249
665.00 8.353391
665.10 7.829718
665.20 7.201092
665.30 6.576896
665.40 6.068486
665.50 5.756548
665.60 5.720402
665.70 5.986947
665.80 6.492865
665.90 7.113879
666.00 7.676869
666.10 8.043907
666.20 8.200636
666.30 8.209812
666.40 8.085973
666.50 7.854119
666.60 7.581309
666.70 7.318523
666.80 7.114812
666.90 7.021154
667.00 7.026596
667.10 7.087429
667.20 7.184493
667.30 7.340472
667.40 7.615745
667.50 8.03557
667.60 8.503675
667.70 8.890566
667.80 9.16341
667.90 9.303223
668.00 9.311496
668.10 9.275307
668.20 9.333103
668.30 9.581513
668.40 10.01495
668.50 10.55356
668.60 11.08205
668.70 11.46436
668.80 11.54663
668.90 11.23912
669.00 10.60872
669.10 9.832919
669.20 9.106537
669.30 8.580875
669.40 8.327511
669.50 8.324633
669.60 8.468491
669.70 8.653881
669.80 8.834714
669.90 8.961307
670.00 8.989753
670.10 8.930425
670.20 8.836765
670.30 8.785353
670.40 8.84161
670.50 9.05284
670.60 9.401438
670.70 9.794783
670.80 10.13708
670.90 10.36898
671.00 10.46905
671.10 10.40819
671.20 10.17876
671.30 9.885427
671.40 9.644177
671.50 9.518301
671.60 9.525026
671.70 9.632669
671.80 9.776146
671.90 9.845056
672.00 9.774737
672.10 9.617593
672.20 9.443372
672.30 9.319449
672.40 9.328874
672.50 9.514824
672.60 9.826744
672.70 10.14625
672.80 10.38664
672.90 10.49302
673.00 10.49012
673.10 10.43786
673.20 10.34403
673.30 10.1987
673.40 9.971017
673.50 9.615866
673.60 9.143907
673.70 8.590187
673.80 7.959551
673.90 7.317273
674.00 6.817512
674.10 6.625858
674.20 6.841207
674.30 7.469117
674.40 8.351848
674.50 9.248032
674.60 9.991645
674.70 10.45083
674.80 10.53925
674.90 10.2665
675.00 9.717694
675.10 9.043787
675.20 8.44669
675.30 8.108938
675.40 8.117915
675.50 8.427981
675.60 8.904779
675.70 9.393464
675.80 9.792986
675.90 10.06305
676.00 10.15626
676.10 10.06648
676.20 9.875832
676.30 9.7057
676.40 9.596374
676.50 9.517402
676.60 9.472622
676.70 9.469247
676.80 9.507082
676.90 9.59958
677.00 9.720048
677.10 9.797055
677.20 9.820278
677.30 9.858221
677.40 9.989077
677.50 10.27251
677.60 10.68757
677.70 11.12138
677.80 11.51353
677.90 11.88128
678.00 12.21888
678.10 12.45608
678.20 12.47745
678.30 12.20525
678.40 11.67022
678.50 10.99292
678.60 10.25564
678.70 9.495887
678.80 8.789557
678.90 8.237686
679.00 7.938605
679.10 7.954554
679.20 8.286245
679.30 8.841507
679.40 9.43234
679.50 9.886001
679.60 10.11683
679.70 10.12782
679.80 9.972985
679.90 9.707049
680.00 9.397234
680.10 9.098117
680.20 8.837473
680.30 8.649173
680.40 8.578414
680.50 8.668467
680.60 8.903056
680.70 9.221883
680.80 9.614218
680.90 10.0734
681.00 10.53851
681.10 10.90649
681.20 11.08004
681.30 11.02303
681.40 10.77313
681.50 10.42783
681.60 10.12493
681.70 9.972864
681.80 10.00024
681.90 10.1915
682.00 10.51289
682.10 10.91305
682.20 11.30505
682.30 11.62457
682.40 11.87733
682.50 12.0645
682.60 12.16785
682.70 12.18231
682.80 12.10449
682.90 11.94967
683.00 11.71274
683.10 11.36358
683.20 10.91848
683.30 10.45741
683.40 10.099
683.50 9.947823
683.60 10.02336
683.70 10.22636
683.80 10.39107
683.90 10.41155
684.00 10.2763
684.10 10.01228
684.20 9.684977
684.30 9.367445
684.40 9.169121
684.50 9.22299
684.60 9.578758
684.70 10.17582
684.80 10.85653
684.90 11.40074
685.00 11.62805
685.10 11.48796
685.20 11.03247
685.30 10.37332
685.40 9.64362
685.50 8.970244
685.60 8.470242
685.70 8.240078
685.80 8.295124
685.90 8.562676
686.00 8.944782
686.10 9.283184
686.20 9.410883
686.30 9.331882
686.40 9.144411
686.50 8.898156
686.60 8.657549
686.70 8.494696
686.80 8.466944
686.90 8.620582
687.00 8.942948
687.10 9.338514
687.20 9.661647
687.30 9.793986
687.40 9.694521
687.50 9.42762
687.60 9.162708
687.70 9.006007
687.80 8.986081
687.90 9.147961
688.00 9.467861
688.10 9.870075
688.20 10.25292
688.30 10.51245
688.40 10.58739
688.50 10.45282
688.60 10.12946
688.70 9.669957
688.80 9.144204
688.90 8.664776
689.00 8.310359
689.10 8.091464
689.20 8.003411
689.30 8.023139
689.40 8.155688
689.50 8.404969
689.60 8.747625
689.70 9.147008
689.80 9.544262
689.90 9.89456
690.00 10.17738
690.10 10.3817
690.20 10.4923
690.30 10.46175
690.40 10.31178
690.50 10.16027
690.60 10.08782
690.70 10.15525
690.80 10.38189
690.90 10.70044
691.00 11.0091
691.10 11.24282
691.20 11.39441
691.30 11.45291
691.40 11.37589
691.50 11.13729
691.60 10.77188
691.70 10.39321
691.80 10.10148
691.90 9.930458
692.00 9.924754
692.10 10.07679
692.20 10.35436
692.30 10.70627
692.40 11.03019
692.50 11.22938
692.60 11.2273
692.70 11.01296
692.80 10.67975
692.90 10.39216
693.00 10.28726
693.10 10.35565
693.20 10.45224
693.30 10.45585
693.40 10.31238
693.50 10.01414
693.60 9.522441
693.70 8.853235
693.80 8.184793
693.90 7.712678
694.00 7.559291
694.10 7.756804
694.20 8.24519
694.30 8.90163
694.40 9.593106
694.50 10.19691
694.60 10.62069
694.70 10.82578
694.80 10.84756
694.90 10.79041
695.00 10.77864
695.10 10.88285
695.20 11.08498
695.30 11.32816
695.40 11.57088
695.50 11.81056
695.60 12.03754
695.70 12.19162
695.80 12.18244
695.90 12.01486
696.00 11.82602
696.10 11.72753
696.20 11.7094
696.30 11.69932
696.40 11.65525
696.50 11.53625
696.60 11.31762
696.70 11.02467
696.80 10.67787
696.90 10.28688
697.00 9.869005
697.10 9.463983
697.20 9.124951
697.30 8.926974
697.40 8.87698
697.50 8.928701
697.60 9.077443
697.70 9.302908
697.80 9.576012
697.90 9.898503
698.00 10.23473
698.10 10.49948
698.20 10.61993
698.30 10.5429
698.40 10.29063
698.50 9.939039
698.60 9.567198
698.70 9.201742
698.80 8.861454
698.90 8.554454
699.00 8.243445
699.10 7.916385
699.20 7.609859
699.30 7.392557
699.40 7.277626
699.50 7.266756
699.60 7.437262
699.70 7.862991
699.80 8.524023
699.90 9.358762
700.00 10.2674
700.10 11.10812
700.20 11.74547
700.30 12.08773
700.40 12.10914
700.50 11.83482
700.60 11.32271
700.70 10.6651
700.80 10.02183
700.90 9.52343
701.00 9.187673
701.10 9.015589
701.20 9.028203
701.30 9.210241
701.40 9.515597
701.50 9.877055
701.60 10.21746
701.70 10.48843
701.80 10.68571
701.90 10.8363
702.00 10.94848
702.10 11.00712
702.20 11.00144
702.30 10.95514
702.40 10.89555
702.50 10.8026
702.60 10.67557
702.70 10.54071
702.80 10.4315
702.90 10.41092
703.00 10.52918
703.10 10.78538
703.20 11.12295
703.30 11.45446
703.40 11.69759
703.50 11.80863
703.60 11.80152
703.70 11.69077
703.80 11.4851
703.90 11.24547
704.00 11.01362
704.10 10.79223
704.20 10.61204
704.30 10.53478
704.40 10.63354
704.50 10.94969
704.60 11.45215
704.70 12.0256
704.80 12.52445
704.90 12.82624
705.00 12.84332
705.10 12.56029
705.20 12.07045
705.30 11.50049
705.40 10.93325
705.50 10.42319
705.60 10.02716
705.70 9.789369
705.80 9.703551
705.90 9.720036
706.00 9.792173
706.10 9.957882
706.20 10.30123
706.30 10.83102
706.40 11.44158
706.50 12.05005
706.60 12.61939
706.70 13.07178
706.80 13.3845
706.90 13.6
707.00 13.72794
707.10 13.73307
707.20 13.57064
707.30 13.25669
707.40 12.89217
707.50 12.56095
707.60 12.2902
707.70 12.11643
707.80 12.11681
707.90 12.29488
708.00 12.5716
708.10 12.88279
708.20 13.13566
708.30 13.24202
708.40 13.17855
708.50 12.95353
708.60 12.65148
708.70 12.39144
708.80 12.22237
708.90 12.1446
709.00 12.14019
709.10 12.19571
709.20 12.34263
709.30 12.62937
709.40 13.02773
709.50 13.43827
709.60 13.79348
709.70 14.05221
709.80 14.19545
709.90 14.26321
710.00 14.29443
710.10 14.30278
710.20 14.31321
710.30 14.38076
710.40 14.57313
710.50 14.92017
710.60 15.36024
710.70 15.75309
710.80 15.97542
710.90 15.99529
711.00 15.83534
711.10 15.55456
711.20 15.20115
711.30 14.7746
711.40 14.29548
711.50 13.83391
711.60 13.49437
711.70 13.34321
711.80 13.37902
711.90 13.567
712.00 13.85155
712.10 14.15609
712.20 14.38999
712.30 14.46903
712.40 14.39774
712.50 14.24829
712.60 14.08144
712.70 13.9738
712.80 13.98236
712.90 14.08039
713.00 14.18634
713.10 14.25462
713.20 14.28248
713.30 14.25798
713.40 14.17299
713.50 14.05544
713.60 13.96741
713.70 13.96054
713.80 13.99465
713.90 13.97717
714.00 13.83945
714.10 13.5455
714.20 13.10718
714.30 12.59029
714.40 12.07624
714.50 11.59834
714.60 11.14435
714.70 10.72133
714.80 10.37742
714.90 10.16526
715.00 10.10738
715.10 10.19793
715.20 10.47222
715.30 10.94846
715.40 11.56738
715.50 12.22525
715.60 12.7834
715.70 13.14443
715.80 13.27271
715.90 13.19642
716.00 13.00563
716.10 12.79683
716.20 12.65442
716.30 12.62761
716.40 12.72684
716.50 12.95233
716.60 13.21867
716.70 13.3991
716.80 13.45321
716.90 13.40006
717.00 13.27967
717.10 13.13501
717.20 13.05492
717.30 13.1362
717.40 13.42797
717.50 13.91651
717.60 14.50193
717.70 15.06034
717.80 15.4917
717.90 15.70788
718.00 15.63036
718.10 15.24341
718.20 14.61645
718.30 13.89458
718.40 13.27048
718.50 12.92089
718.60 12.90585
718.70 13.15114
718.80 13.56246
718.90 14.09792
719.00 14.74787
719.10 15.47586
719.20 16.19656
719.30 16.8063
719.40 17.21968
719.50 17.37047
719.60 17.22199
719.70 16.78342
719.80 16.10492
719.90 15.26678
720.00 14.39043
720.10 13.65666
720.20 13.23396
720.30 13.18657
720.40 13.44821
720.50 13.86574
720.60 14.28893
720.70 14.62192
720.80 14.81933
720.90 14.87227
721.00 14.78245
721.10 14.55225
721.20 14.21502
721.30 13.8423
721.40 13.51322
721.50 13.29053
721.60 13.15932
721.70 13.02931
721.80 12.85228
721.90 12.69151
722.00 12.6737
722.10 12.86034
722.20 13.22739
722.30 13.71171
722.40 14.23392
722.50 14.73388
722.60 15.16012
722.70 15.45201
722.80 15.54724
722.90 15.40339
723.00 15.05458
723.10 14.62979
723.20 14.27564
723.30 14.04262
723.40 13.86225
723.50 13.67561
723.60 13.49294
723.70 13.32138
723.80 13.22969
723.90 13.32403
724.00 13.60504
724.10 13.98953
724.20 14.44219
724.30 14.94711
724.40 15.4293
724.50 15.81753
724.60 16.02755
724.70 15.97283
724.80 15.59847
724.90 14.9188
725.00 14.09807
725.10 13.39471
725.20 12.92235
725.30 12.65664
725.40 12.63296
725.50 12.96206
725.60 13.64262
725.70 14.51664
725.80 15.38361
725.90 16.0033
726.00 16.21388
726.10 16.0424
726.20 15.70007
726.30 15.43182
726.40 15.30239
726.50 15.24182
726.60 15.21306
726.70 15.21484
726.80 15.21136
726.90 15.12507
727.00 14.93039
727.10 14.70477
727.20 14.58084
727.30 14.66191
727.40 14.96215
727.50 15.46682
727.60 16.10493
727.70 16.71753
727.80 17.14285
727.90 17.29133
728.00 17.14731
728.10 16.75123
728.20 16.20868
728.30 15.64433
728.40 15.1334
728.50 14.68718
728.60 14.29002
728.70 13.97902
728.80 13.79191
728.90 13.62761
729.00 13.29421
729.10 12.6607
729.20 11.76103
729.30 10.77359
729.40 9.928204
729.50 9.423174
729.60 9.375183
729.70 9.794511
729.80 10.58103
729.90 11.55417
730.00 12.46838
730.10 13.05873
730.20 13.14496
730.30 12.71719
730.40 11.95313
730.50 11.11992
730.60 10.44226
730.70 10.05662
730.80 10.04976
730.90 10.44128
731.00 11.11664
731.10 11.85966
731.20 12.42619
731.30 12.64477
731.40 12.49841
731.50 12.13926
731.60 11.81978
731.70 11.74551
731.80 11.9828
731.90 12.49535
732.00 13.20587
732.10 13.98771
732.20 14.65013
732.30 14.98411
732.40 14.89704
732.50 14.44827
732.60 13.82039
732.70 13.20855
732.80 12.73191
732.90 12.44507
733.00 12.31085
733.10 12.24858
733.20 12.2179
733.30 12.19576
733.40 12.15332
733.50 12.04385
733.60 11.77973
733.70 11.34168
733.80 10.87263
733.90 10.574
734.00 10.56023
734.10 10.85618
734.20 11.43329
734.30 12.16572
734.40 12.84512
734.50 13.28776
734.60 13.38508
734.70 13.1403
734.80 12.63385
734.90 12.02635
735.00 11.5786
735.10 11.50894
735.20 11.82183
735.30 12.35871
735.40 12.92061
735.50 13.33468
735.60 13.46108
735.70 13.25285
735.80 12.82892
735.90 12.365
736.00 11.97465
736.10 11.67594
736.20 11.47012
736.30 11.38532
736.40 11.42165
736.50 11.48866
736.60 11.36688
736.70 10.8867
736.80 10.13785
736.90 9.378323
737.00 8.851701
737.10 8.670244
737.20 8.826432
737.30 9.244866
737.40 9.839058
737.50 10.53555
737.60 11.22553
737.70 11.75025
737.80 11.95665
737.90 11.81807
738.00 11.48448
738.10 11.13238
738.20 10.83126
738.30 10.61101
738.40 10.55567
738.50 10.75207
738.60 11.24071
738.70 12.01605
738.80 12.98227
738.90 13.99533
739.00 14.92442
739.10 15.6484
739.20 16.05714
739.30 16.03369
739.40 15.53132
739.50 14.6493
739.60 13.59918
739.70 12.57977
739.80 11.71032
739.90 11.07516
740.00 10.67508
740.10 10.439
740.20 10.31465
740.30 10.27208
740.40 10.26613
740.50 10.23891
740.60 10.16771
740.70 10.12448
740.80 10.20952
740.90 10.44196
741.00 10.71978
741.10 10.90743
741.20 10.9267
741.30 10.74373
741.40 10.38389
741.50 9.923255
741.60 9.463992
741.70 9.114801
741.80 8.951588
741.90 9.011541
742.00 9.285594
742.10 9.691054
742.20 10.11278
742.30 10.45614
742.40 10.70986
742.50 10.92545
742.60 11.11855
742.70 11.3043
742.80 11.53069
742.90 11.80172
743.00 12.04554
743.10 12.16957
743.20 12.13425
743.30 11.98055
743.40 11.82326
743.50 11.8151
743.60 12.03642
743.70 12.499
743.80 13.08548
743.90 13.58197
744.00 13.83372
744.10 13.6875
744.20 13.05159
744.30 12.04465
744.40 10.91513
744.50 9.884819
744.60 9.097253
744.70 8.609524
744.80 8.401135
744.90 8.382452
745.00 8.474287
745.10 8.600232
745.20 8.711825
745.30 8.812831
745.40 8.920036
745.50 9.11284
745.60 9.435747
745.70 9.771446
745.80 9.978604
745.90 10.00524
746.00 9.799705
746.10 9.338127
746.20 8.68361
746.30 7.943855
746.40 7.227143
746.50 6.625926
746.60 6.205666
746.70 5.983662
746.80 5.972924
746.90 6.242885
747.00 6.835694
747.10 7.734951
747.20 8.836334
747.30 9.937207
747.40 10.8784
747.50 11.54253
747.60 11.78278
747.70 11.5166
747.80 10.77498
747.90 9.704936
748.00 8.563065
748.10 7.657719
748.20 7.204858
748.30 7.206228
748.40 7.55561
748.50 8.089245
748.60 8.583639
748.70 8.838674
748.80 8.729488
748.90 8.244933
749.00 7.505791
749.10 6.688532
749.20 5.994094
749.30 5.600684
749.40 5.586991
749.50 5.916478
749.60 6.480488
749.70 7.106917
749.80 7.572739
749.90 7.714256
750.00 7.50292
750.10 7.05486
750.20 6.553952
750.30 6.124207
750.40 5.802157
750.50 5.616152
750.60 5.601846
750.70 5.762406
750.80 6.063123
750.90 6.447844
751.00 6.858804
751.10 7.241344
751.20 7.546446
751.30 7.729934
751.40 7.7501
751.50 7.553028
751.60 7.100011
751.70 6.425829
751.80 5.677716
751.90 5.038749
752.00 4.569815
752.10 4.236252
752.20 4.082685
752.30 4.197814
752.40 4.53935
752.50 4.997003
752.60 5.463713
752.70 5.851892
752.80 6.112567
752.90 6.207874
753.00 6.127126
753.10 5.922946
753.20 5.671879
753.30 5.441256
753.40 5.367499
753.50 5.596461
753.60 6.080695
753.70 6.6046
753.80 6.973464
753.90 7.059963
754.00 6.829915
754.10 6.357679
754.20 5.770964
754.30 5.205725
754.40 4.788326
754.50 4.631727
754.60 4.780363
754.70 5.193704
754.80 5.75862
754.90 6.324347
755.00 6.750622
755.10 6.941801
755.20 6.886719
755.30 6.629371
755.40 6.245036
755.50 5.814551
755.60 5.424841
755.70 5.190747
755.80 5.216407
755.90 5.521989
756.00 6.020693
756.10 6.565147
756.20 7.03941
756.30 7.382628
756.40 7.581182
756.50 7.700496
756.60 7.816625
756.70 7.951193
756.80 8.059838
756.90 8.090432
757.00 8.018621
757.10 7.865418
757.20 7.672683
757.30 7.450162
757.40 7.216623
757.50 6.981554
757.60 6.741516
757.70 6.493804
757.80 6.206202
757.90 5.823068
758.00 5.269167
758.10 4.535964
758.20 3.741009
758.30 3.032562
758.40 2.533378
758.50 2.307167
758.60 2.348524
758.70 2.602689
758.80 3.007133
758.90 3.543475
759.00 4.158793
759.10 4.75042
759.20 5.267299
759.30 5.662679
759.40 5.954684
759.50 6.211941
759.60 6.465937
759.70 6.716775
759.80 6.928209
759.90 7.070641
760.00 7.08699
760.10 6.859942
760.20 6.304882
760.30 5.491487
760.40 4.57235
760.50 3.68515
760.60 2.943334
760.70 2.474384
760.80 2.374459
760.90 2.622754
761.00 3.077052
761.10 3.542673
761.20 3.850997
761.30 3.869107
761.40 3.574086
761.50 3.148042
761.60 2.851121
761.70 2.835567
761.80 3.138488
761.90 3.716812
762.00 4.436853
762.10 5.091107
762.20 5.428361
762.30 5.319056
762.40 4.81418
762.50 3.943519
762.60 2.742303
762.70 1.38769
762.80 0.1701989
762.90 0
763.00 0
763.10 0
763.20 0
763.30 0.7845517
763.40 1.621683
763.50 2.30589
763.60 2.72313
763.70 2.783761
763.80 2.445664
763.90 1.910961
764.00 1.498218
764.10 1.367664
764.20 1.496928
764.30 1.791539
764.40 2.133198
764.50 2.3767
764.60 2.420545
764.70 2.26486
764.80 1.993561
764.90 1.714226
765.00 1.514596
765.10 1.471783
765.20 1.607157
765.30 1.80652
765.40 1.87056
765.50 1.687387
765.60 1.252619
765.70 0.6057188
765.80 0
765.90 0
766.00 0
766.10 0
766.20 0
766.30 0
766.40 0.3560621
766.50 1.085783
766.60 1.655401
766.70 1.972728
766.80 2.037965
766.90 1.872559
767.00 1.517392
767.10 1.060582
767.20 0.5764923
767.30 0.146108
767.40 0
767.50 0
767.60 0
767.70 0
767.80 0.1423919
767.90 0.5250753
768.00 1.060722
768.10 1.751546
768.20 2.496721
768.30 3.153563
768.40 3.61975
768.50 3.830827
768.60 3.798175
768.70 3.604002
768.80 3.334457
768.90 3.067927
769.00 2.843769
769.10 2.657027
769.20 2.549953
769.30 2.575653
769.40 2.654735
769.50 2.649161
769.60 2.520138
769.70 2.290441
769.80 2.023919
769.90 1.820927
770.00 1.743902
770.10 1.817062
770.20 2.02816
770.30 2.293008
770.40 2.49989
770.50 2.557136
770.60 2.273989
770.70 1.4155
770.80 0
770.90 0
771.00 0
771.10 0
771.20 0
771.30 0
771.40 0
771.50 0
771.60 0
771.70 0
771.80 0
771.90 0
772.00 0
772.10 0.4087304
772.20 0.6420491
772.30 0.5556932
772.40 0.2391216
772.50 0
772.60 0
772.70 0
772.80 0
772.90 0
773.00 0.8129098
773.10 1.964567
773.20 3.02117
773.30 3.794986
773.40 4.221532
773.50 4.409454
773.60 4.493489
773.70 4.525658
773.80 4.51811
773.90 4.469096
774.00 4.334145
774.10 4.071093
774.20 3.6608
774.30 3.144522
774.40 2.62725
774.50 2.165462
774.60 1.74281
774.70 1.263045
774.80 0.6615476
774.90 0.0148811
775.00 0
775.10 0
775.20 0
775.30 0.4888083
775.40 1.49075
775.50 2.448945
775.60 3.069193
775.70 3.143332
775.80 2.655188
775.90 1.754668
776.00 0.6735145
776.10 0
776.20 0
776.30 0
776.40 0.05006317
776.50 0.9105393
776.60 1.886618
776.70 2.761773
776.80 3.384437
776.90 3.784653
777.00 4.020536
777.10 4.089644
777.20 4.030774
777.30 3.950499
777.40 3.983939
777.50 4.206996
777.60 4.647005
777.70 5.287017
777.80 5.964484
777.90 6.479358
778.00 6.704669
778.10 6.621378
778.20 6.284801
778.30 5.761212
778.40 5.207728
778.50 4.787996
778.60 4.502338
778.70 4.268315
778.80 4.098759
778.90 4.094786
779.00 4.174869
779.10 4.146914
779.20 4.013182
779.30 3.861114
779.40 3.71928
779.50 3.592059
779.60 3.519455
779.70 3.502133
779.80 3.468351
779.90 3.428723
780.00 3.484046
780.10 3.726324
780.20 4.085346
780.30 4.316695
780.40 4.290523
780.50 4.016221
780.60 3.517639
780.70 2.882686
780.80 2.282443
780.90 1.957256
781.00 2.086301
781.10 2.73318
781.20 3.854916
781.30 5.294712
781.40 6.845204
781.50 8.205916
781.60 9.014752
781.70 9.025806
781.80 8.195943
781.90 6.725454
782.00 5.003822
782.10 3.494249
782.20 2.629444
782.30 2.612774
782.40 3.41427
782.50 4.865349
782.60 6.664437
782.70 8.417058
782.80 9.709979
782.90 10.30256
783.00 10.26307
783.10 9.823217
783.20 9.226648
783.30 8.685402
783.40 8.328848
783.50 8.171585
783.60 8.153277
783.70 8.241448
783.80 8.397653
783.90 8.574097
784.00 8.768293
784.10 9.000787
784.20 9.270588
784.30 9.505843
784.40 9.62691
784.50 9.643731
784.60 9.637954
784.70 9.667695
784.80 9.718312
784.90 9.78771
785.00 9.965784
785.10 10.38991
785.20 11.20237
785.30 12.41335
785.40 13.83398
785.50 15.21935
785.60 16.36811
785.70 17.11253
785.80 17.30896
785.90 16.90709
786.00 15.97596
786.10 14.69392
786.20 13.35019
786.30 12.22702
786.40 11.45379
786.50 11.02676
786.60 10.82232
786.70 10.7431
786.80 10.80813
786.90 11.05771
787.00 11.52182
787.10 12.17566
787.20 12.85602
787.30 13.36316
787.40 13.59826
787.50 13.51941
787.60 13.14343
787.70 12.64738
787.80 12.2864
787.90 12.18292
788.00 12.39928
788.10 12.97158
788.20 13.82786
788.30 14.74234
788.40 15.4413
788.50 15.79019
788.60 15.83473
788.70 15.66327
788.80 15.34971
788.90 15.02205
789.00 14.7981
789.10 14.62773
789.20 14.37513
789.30 14.05044
789.40 13.73106
789.50 13.43884
789.60 13.20205
789.70 13.09277
789.80 13.14985
789.90 13.34299
790.00 13.6166
790.10 13.91751
790.20 14.18665
790.30 14.37022
790.40 14.45646
790.50 14.50685
790.60 14.62464
790.70 14.80542
790.80 14.84046
790.90 14.47053
791.00 13.57498
791.10 12.24179
791.20 10.71074
791.30 9.306088
791.40 8.333714
791.50 7.963232
791.60 8.23832
791.70 9.076429
791.80 10.29549
791.90 11.65026
792.00 12.85832
792.10 13.71405
792.20 14.26099
792.30 14.69388
792.40 15.18039
792.50 15.76206
792.60 16.31078
792.70 16.59026
792.80 16.37186
792.90 15.58872
793.00 14.38279
793.10 12.98724
793.20 11.68948
793.30 10.74588
793.40 10.28988
793.50 10.41746
793.60 11.12035
793.70 12.23869
793.80 13.48646
793.90 14.56022
794.00 15.25775
794.10 15.5349
794.20 15.43172
794.30 14.92102
794.40 13.9404
794.50 12.55712
794.60 10.92463
794.70 9.268261
794.80 7.923392
794.90 7.178016
795.00 7.178228
795.10 7.911194
795.20 9.230154
795.30 10.89051
795.40 12.63588
795.50 14.22604
795.60 15.50556
795.70 16.42486
795.80 16.96534
795.90 17.19494
796.00 17.23243
796.10 17.15981
796.20 17.08475
796.30 17.08831
796.40 17.23358
796.50 17.64356
796.60 18.40661
796.70 19.52214
796.80 20.88534
796.90 22.30676
797.00 23.57762
797.10 24.54784
797.20 25.15896
797.30 25.35197
797.40 25.07133
797.50 24.36758
797.60 23.35551
797.70 22.20323
797.80 21.10278
797.90 20.17484
798.00 19.49236
798.10 19.11282
798.20 19.07305
798.30 19.38545
798.40 19.98006
798.50 20.71924
798.60 21.42399
798.70 21.95334
798.80 22.26429
798.90 22.38055
799.00 22.27413
799.10 21.87046
799.20 21.2416
799.30 20.62109
799.40 20.16986
799.50 19.86942
799.60 19.67185
799.70 19.56131
799.80 19.57692
799.90 19.79666
800.00 20.28306
800.10 21.00055
800.20 21.83627
800.30 22.62985
800.40 23.26949
800.50 23.76157
800.60 24.09658
800.70 24.1784
800.80 24.03536
800.90 23.86178
801.00 23.77723
801.10 23.76511
801.20 23.76936
801.30 23.75208
801.40 23.68045
801.50 23.56015
801.60 23.43299
801.70 23.35154
801.80 23.32726
801.90 23.3219
802.00 23.28673
802.10 23.25153
802.20 23.14289
802.30 22.84218
802.40 22.40181
802.50 22.03357
802.60 21.97454
802.70 22.29575
802.80 22.958
802.90 23.80131
803.00 24.62701
803.10 25.33856
803.20 25.91145
803.30 26.33161
803.40 26.57578
803.50 26.57943
803.60 26.4421
803.70 26.36853
803.80 26.45195
803.90 26.63725
804.00 26.73782
804.10 26.64929
804.20 26.44709
804.30 26.3352
804.40 26.47162
804.50 26.89663
804.60 27.6286
804.70 28.6383
804.80 29.80082
804.90 30.96418
805.00 31.97499
805.10 32.67296
805.20 32.94848
805.30 32.80358
805.40 32.35694
805.50 31.73856
805.60 31.00765
805.70 30.21482
805.80 29.4346
805.90 28.7151
806.00 28.05267
806.10 27.48581
806.20 27.12836
806.30 27.07588
806.40 27.32389
806.50 27.7881
806.60 28.36543
806.70 28.92042
806.80 29.2932
806.90 29.39711
807.00 29.26908
807.10 29.04868
807.20 28.94831
807.30 29.16762
807.40 29.80861
807.50 30.811
807.60 31.94291
807.70 32.9036
807.80 33.44565
807.90 33.42012
808.00 32.81917
808.10 31.83767
808.20 30.81559
808.30 30.05997
808.40 29.76038
808.50 29.97243
808.60 30.61979
808.70 31.5692
808.80 32.62663
808.90 33.54991
809.00 34.17267
809.10 34.41932
809.20 34.2644
809.30 33.77026
809.40 33.06813
809.50 32.2452
809.60 31.35916
809.70 30.55981
809.80 29.97842
809.90 29.63544
810.00 29.50168
810.10 29.49028
810.20 29.52454
810.30 29.61181
810.40 29.78536
810.50 30.07903
810.60 30.55203
810.70 31.19177
810.80 31.87698
810.90 32.48387
811.00 32.95233
811.10 33.27309
811.20 33.47631
811.30 33.6495
811.40 33.86629
811.50 34.13226
811.60 34.4448
811.70 34.79097
811.80 35.11033
811.90 35.32743
812.00 35.35364
812.10 35.17443
812.20 34.92572
812.30 34.80001
812.40 34.92977
812.50 35.34067
812.60 35.92786
812.70 36.53945
812.80 37.10422
812.90 37.58186
813.00 37.88243
813.10 37.89888
813.20 37.57401
813.30 37.01458
813.40 36.47888
813.50 36.17431
813.60 36.16344
813.70 36.39441
813.80 36.75595
813.90 37.07385
814.00 37.19778
814.10 36.99883
814.20 36.3817
814.30 35.47348
814.40 34.54224
814.50 33.86219
814.60 33.67379
814.70 34.02229
814.80 34.80977
814.90 35.95428
815.00 37.30844
815.10 38.64939
815.20 39.78159
815.30 40.58745
815.40 41.01756
815.50 41.12157
815.60 41.02387
815.70 40.77501
815.80 40.39172
815.90 39.968
816.00 39.64881
816.10 39.55557
816.20 39.69125
816.30 39.95672
816.40 40.27062
816.50 40.6053
816.60 40.95563
816.70 41.34078
816.80 41.78909
816.90 42.28992
817.00 42.77253
817.10 43.16278
817.20 43.43327
817.30 43.56459
817.40 43.53438
817.50 43.34383
817.60 43.04068
817.70 42.68685
817.80 42.32819
817.90 42.02635
818.00 41.83657
818.10 41.72661
818.20 41.61589
818.30 41.44099
818.40 41.12687
818.50 40.61934
818.60 39.9074
818.70 39.04163
818.80 38.17025
818.90 37.43609
819.00 36.84223
819.10 36.34896
819.20 35.93728
819.30 35.57895
819.40 35.26578
819.50 35.04005
819.60 35.02067
819.70 35.36319
819.80 36.22809
819.90 37.6594
820.00 39.53317
820.10 41.64624
820.20 43.69548
820.30 45.42629
820.40 46.77095
820.50 47.67416
820.60 48.07096
820.70 48.01257
820.80 47.64868
820.90 47.18502
821.00 46.79208
821.10 46.53356
821.20 46.39097
821.30 46.34406
821.40 46.37806
821.50 46.39227
821.60 46.26261
821.70 45.86565
821.80 45.1309
821.90 44.16995
822.00 43.19963
822.10 42.40208
822.20 41.92653
822.30 41.89341
822.40 42.35446
822.50 43.28479
822.60 44.58478
822.70 46.08952
822.80 47.61873
822.90 48.95398
823.00 49.83556
823.10 50.12429
823.20 49.86029
823.30 49.20072
823.40 48.3907
823.50 47.66709
823.60 47.19069
823.70 47.08553
823.80 47.40431
823.90 48.08794
824.00 48.95777
824.10 49.69544
824.20 49.96893
824.30 49.65848
824.40 48.88994
824.50 47.93357
824.60 47.10327
824.70 46.66062
824.80 46.74017
824.90 47.34924
825.00 48.34248
825.10 49.42634
825.20 50.30579
825.30 50.77336
825.40 50.71632
825.50 50.21845
825.60 49.52211
825.70 48.86755
825.80 48.52593
825.90 48.69779
826.00 49.33864
826.10 50.28168
826.20 51.35614
826.30 52.40675
826.40 53.32439
826.50 53.98435
826.60 54.17311
826.70 53.75163
826.80 52.81318
826.90 51.58972
827.00 50.36323
827.10 49.39587
827.20 48.81532
827.30 48.61512
827.40 48.74744
827.50 49.0556
827.60 49.25516
827.70 49.06646
827.80 48.32065
827.90 47.03657
828.00 45.44869
828.10 43.89512
828.20 42.66225
828.30 41.9346
828.40 41.70856
828.50 41.79536
828.60 42.09963
828.70 42.66195
828.80 43.53091
828.90 44.76655
829.00 46.33294
829.10 48.08387
829.20 49.80266
829.30 51.22667
829.40 52.11354
829.50 52.2372
829.60 51.46574
829.70 49.89184
829.80 47.99997
829.90 46.52271
830.00 45.83265
830.10 45.89524
830.20 46.5785
830.30 47.65589
830.40 48.87085
830.50 49.96159
830.60 50.6767
830.70 50.86225
830.80 50.51575
830.90 49.89911
831.00 49.43715
831.10 49.45514
831.20 50.00044
831.30 50.89784
831.40 51.98537
831.50 53.12646
831.60 54.14088
831.70 54.89051
831.80 55.38106
831.90 55.72402
832.00 56.08777
832.10 56.65573
832.20 57.55781
832.30 58.7575
832.40 60.01646
832.50 61.05911
832.60 61.68923
832.70 61.84072
832.80 61.5763
832.90 61.02724
833.00 60.32295
833.10 59.55094
833.20 58.76698
833.30 58.03496
833.40 57.46967
833.50 57.20847
833.60 57.26625
833.70 57.49524
833.80 57.72319
833.90 57.75704
834.00 57.31688
834.10 56.16122
834.20 54.33001
834.30 52.2111
834.40 50.4387
834.50 49.61699
834.60 50.02682
834.70 51.60318
834.80 53.95066
834.90 56.45263
835.00 58.54791
835.10 59.77607
835.20 59.92609
835.30 59.19119
835.40 58.05167
835.50 57.10486
835.60 56.77352
835.70 57.15553
835.80 58.01999
835.90 59.0089
836.00 59.88831
836.10 60.52337
836.20 60.84088
836.30 60.84576
836.40 60.63587
836.50 60.47381
836.60 60.57618
836.70 60.95641
836.80 61.55805
836.90 62.28364
837.00 62.99737
837.10 63.56384
837.20 63.87172
837.30 63.83784
837.40 63.4548
837.50 62.86483
837.60 62.30334
837.70 61.92512
837.80 61.72941
837.90 61.62331
838.00 61.53653
838.10 61.4423
838.20 61.33477
838.30 61.25733
838.40 61.24101
838.50 61.26715
838.60 61.32488
838.70 61.41955
838.80 61.55409
838.90 61.69894
839.00 61.74465
839.10 61.622
839.20 61.43756
839.30 61.34587
839.40 61.33446
839.50 61.23183
839.60 60.77236
839.70 59.69162
839.80 58.08431
839.90 56.39786
840.00 55.02311
840.10 54.19342
840.20 54.04021
840.30 54.55901
840.40 55.69806
840.50 57.39434
840.60 59.45729
840.70 61.57573
840.80 63.41884
840.90 64.83429
841.00 65.98854
841.10 67.06892
841.20 67.84525
841.30 67.91536
841.40 67.26184
841.50 66.21941
841.60 65.17411
841.70 64.42684
841.80 64.14567
841.90 64.29367
842.00 64.64601
842.10 65.04865
842.20 65.5736
842.30 66.26563
842.40 66.95976
842.50 67.45033
842.60 67.80837
842.70 68.25152
842.80 68.75423
842.90 69.1542
843.00 69.31015
843.10 69.07755
843.20 68.38181
843.30 67.31682
843.40 66.14882
843.50 65.07504
843.60 64.13604
843.70 63.39539
843.80 62.9555
843.90 62.96349
844.00 63.4453
844.10 64.25554
844.20 65.26197
844.30 66.2894
844.40 67.13523
844.50 67.70757
844.60 68.03152
844.70 68.20636
844.80 68.21043
844.90 67.83655
845.00 66.96592
845.10 65.6659
845.20 64.12524
845.30 62.60984
845.40 61.40044
845.50 60.67753
845.60 60.45113
845.70 60.691
845.80 61.33737
845.90 62.2499
846.00 63.27668
846.10 64.20243
846.20 64.69666
846.30 64.55937
846.40 63.87183
846.50 62.86498
846.60 61.82224
846.70 60.98761
846.80 60.52286
846.90 60.49569
847.00 60.91624
847.10 61.71085
847.20 62.79634
847.30 64.07949
847.40 65.24837
847.50 65.94139
847.60 66.15271
847.70 66.16408
847.80 66.15921
847.90 66.14723
848.00 66.05458
848.10 65.84801
848.20 65.61336
848.30 65.50414
848.40 65.64289
848.50 66.06027
848.60 66.63684
848.70 67.16385
848.80 67.49562
848.90 67.56951
849.00 67.39379
849.10 66.97729
849.20 66.30371
849.30 65.47566
849.40 64.74311
849.50 64.28656
849.60 64.09048
849.70 64.1153
849.80 64.39811
849.90 64.95647
850.00 65.72875
850.10 66.5366
850.20 67.13603
850.30 67.37991
850.40 67.29712
850.50 67.01679
850.60 66.68635
850.70 66.37544
850.80 66.03352
850.90 65.66897
851.00 65.39815
851.10 65.22934
851.20 65.01055
851.30 64.6081
851.40 63.92472
851.50 62.89046
851.60 61.50474
851.70 59.69724
851.80 57.2843
851.90 54.22467
852.00 50.74595
852.10 47.25047
852.20 44.27904
852.30 42.39218
852.40 41.97074
852.50 43.12862
852.60 45.72093
852.70 49.31174
852.80 53.33494
852.90 57.37178
853.00 61.19069
853.10 64.6761
853.20 67.76685
853.30 70.41953
853.40 72.62905
853.50 74.4517
853.60 75.90318
853.70 76.90135
853.80 77.38779
853.90 77.43421
854.00 77.20724
854.10 76.9188
854.20 76.74222
854.30 76.68661
854.40 76.61038
854.50 76.3043
854.60 75.59505
854.70 74.48519
854.80 73.16376
854.90 71.89557
855.00 71.01787
855.10 70.84416
855.20 71.47694
855.30 72.7982
855.40 74.58113
855.50 76.55007
855.60 78.38094
855.70 79.7624
855.80 80.49692
855.90 80.63378
856.00 80.45367
856.10 80.21629
856.20 80.1074
856.30 80.2976
856.40 80.80527
856.50 81.50207
856.60 82.28922
856.70 83.16392
856.80 84.15297
856.90 85.17356
857.00 85.98239
857.10 86.30972
857.20 86.00189
857.30 85.0507
857.40 83.55247
857.50 81.7289
857.60 79.87393
857.70 78.21333
857.80 76.93639
857.90 76.22631
858.00 76.186
858.10 76.76944
858.20 77.73657
858.30 78.76114
858.40 79.63903
858.50 80.31452
858.60 80.75444
858.70 80.88583
858.80 80.65614
858.90 80.07548
859.00 79.16122
859.10 77.9808
859.20 76.6686
859.30 75.36318
859.40 74.22275
859.50 73.38779
859.60 73.00346
859.70 73.20397
859.80 74.02807
859.90 75.3725
860.00 77.02438
860.10 78.78778
860.20 80.49604
860.30 81.97302
860.40 83.053
860.50 83.58582
860.60 83.46076
860.70 82.67221
860.80 81.25953
860.90 79.28248
861.00 76.81774
861.10 73.97394
861.20 70.89951
861.30 67.74225
861.40 64.6641
861.50 61.84045
861.60 59.38748
861.70 57.25236
861.80 55.35368
861.90 53.69991
862.00 52.31655
862.10 51.234
862.20 50.52161
862.30 50.22166
862.40 50.26107
862.50 50.48538
862.60 50.70056
862.70 50.65276
862.80 50.01128
862.90 48.60075
863.00 46.6442
863.10 44.74026
863.20 43.5362
863.30 43.48397
863.40 44.81388
863.50 47.4256
863.60 50.83397
863.70 54.35084
863.80 57.32375
863.90 59.19776
864.00 59.62539
864.10 58.71339
864.20 57.05433
864.30 55.30091
864.40 53.83029
864.50 52.74104
864.60 51.94335
864.70 51.27599
864.80 50.57612
864.90 49.80008
865.00 49.1092
865.10 48.6906
865.20 48.62143
865.30 48.98187
865.40 49.85699
865.50 51.21827
865.60 52.9266
865.70 54.7351
865.80 56.38578
865.90 57.70658
866.00 58.66845
866.10 59.43622
866.20 60.23381
866.30 61.1709
866.40 62.22488
866.50 63.35406
866.60 64.48511
866.70 65.38135
866.80 65.75463
866.90 65.6132
867.00 65.29448
867.10 65.12458
867.20 65.23141
867.30 65.67612
867.40 66.47281
867.50 67.49488
867.60 68.5188
867.70 69.16809
867.80 68.98174
867.90 67.74157
868.00 65.61829
868.10 63.09384
868.20 60.79639
868.30 59.21371
868.40 58.54739
868.50 58.8668
868.60 60.12999
868.70 62.0709
868.80 64.20213
868.90 65.90707
869.00 66.60296
869.10 66.05956
869.20 64.51672
869.30 62.36258
869.40 59.99948
869.50 57.94996
869.60 56.75365
869.70 56.63743
869.80 57.39254
869.90 58.65074
870.00 60.07099
870.10 61.25739
870.20 61.77788
870.30 61.33001
870.40 59.91943
870.50 57.96797
870.60 56.08867
870.70 54.7525
870.80 54.23917
870.90 54.59257
871.00 55.64072
871.10 57.11008
871.20 58.66157
871.30 60.01205
871.40 60.99033
871.50 61.53033
871.60 61.68344
871.70 61.63661
871.80 61.56541
871.90 61.42303
872.00 61.04951
872.10 60.45327
872.20 59.78755
872.30 59.26656
872.40 59.04079
872.50 59.17014
872.60 59.72531
872.70 60.61925
872.80 61.60335
872.90 62.43261
873.00 62.93451
873.10 62.97892
873.20 62.55647
873.30 61.804
873.40 60.89554
873.50 60.03154
873.60 59.39097
873.70 59.0712
873.80 59.12359
873.90 59.53202
874.00 60.16967
874.10 60.86966
874.20 61.54429
874.30 62.1532
874.40 62.66439
874.50 63.08445
874.60 63.4431
874.70 63.72291
874.80 63.85378
874.90 63.83555
875.00 63.73882
875.10 63.62237
875.20 63.49211
875.30 63.36728
875.40 63.37324
875.50 63.56867
875.60 63.74712
875.70 63.657
875.80 63.26441
875.90 62.63858
876.00 61.88774
876.10 61.29468
876.20 61.21489
876.30 61.70768
876.40 62.42653
876.50 62.95382
876.60 63.08678
876.70 62.88916
876.80 62.70751
876.90 62.96216
877.00 64.0408
877.10 66.19655
877.20 69.3626
877.30 73.23036
877.40 77.21471
877.50 80.42093
877.60 81.92765
877.70 81.3398
877.80 78.95786
877.90 75.54781
878.00 72.02166
878.10 69.05382
878.20 66.86363
878.30 65.51655
878.40 64.99001
878.50 65.06773
878.60 65.44172
878.70 65.76065
878.80 65.69679
878.90 65.14059
879.00 64.42895
879.10 64.0393
879.20 64.40381
879.30 65.73278
879.40 67.85998
879.50 70.37453
879.60 72.71706
879.70 74.32234
879.80 74.85674
879.90 74.31548
880.00 72.90224
880.10 70.97307
880.20 69.10517
880.30 67.91652
880.40 67.66199
880.50 68.21777
880.60 69.25352
880.70 70.38569
880.80 71.33383
880.90 72.00581
881.00 72.54029
881.10 73.18783
881.20 74.09803
881.30 75.27846
881.40 76.70259
881.50 78.32092
881.60 79.99412
881.70 81.4299
881.80 82.25008
881.90 82.13969
882.00 81.05857
882.10 79.37352
882.20 77.71482
882.30 76.53979
882.40 75.79382
882.50 75.26878
882.60 74.75916
882.70 73.94173
882.80 72.59923
882.90 70.71958
883.00 68.40392
883.10 65.96277
883.20 63.84958
883.30 62.46081
883.40 62.12678
883.50 62.89931
883.60 64.50567
883.70 66.68754
883.80 69.39268
883.90 72.38451
884.00 75.26556
884.10 77.83901
884.20 79.86275
884.30 80.95709
884.40 80.92838
884.50 79.86034
884.60 78.1156
884.70 76.34849
884.80 75.13727
884.90 74.77469
885.00 75.31992
885.10 76.66278
885.20 78.52634
885.30 80.48317
885.40 82.07477
885.50 82.89575
885.60 82.80717
885.70 82.00403
885.80 80.82761
885.90 79.66154
886.00 78.84579
886.10 78.56582
886.20 78.84114
886.30 79.53619
886.40 80.3746
886.50 80.92472
886.60 80.84051
886.70 80.06998
886.80 78.78589
886.90 77.26116
887.00 75.69501
887.10 74.31807
887.20 73.44445
887.30 73.29392
887.40 73.96551
887.50 75.5047
887.60 77.81599
887.70 80.58505
887.80 83.36568
887.90 85.78674
888.00 87.64216
888.10 88.69726
888.20 88.53925
888.30 87.09005
888.40 85.00117
888.50 83.22315
888.60 82.54989
888.70 83.40919
888.80 85.72004
888.90 88.90413
889.00 92.16498
889.10 94.75097
889.20 96.07043
889.30 95.81082
889.40 93.96228
889.50 91.02912
889.60 88.147
889.70 86.38738
889.80 86.12646
889.90 87.13932
890.00 88.84003
890.10 90.53882
890.20 91.77146
890.30 92.31247
890.40 91.9969
890.50 90.77563
890.60 88.87215
890.70 86.69999
890.80 84.72111
890.90 83.32041
891.00 82.63973
891.10 82.59166
891.20 83.0365
891.30 83.84328
891.40 84.91381
891.50 86.11256
891.60 86.93538
891.70 86.31885
891.80 83.61003
891.90 79.34712
892.00 74.58178
892.10 70.30503
892.20 67.2706
892.30 65.85448
892.40 66.08435
892.50 67.72239
892.60 70.28179
892.70 73.11194
892.80 75.55704
892.90 77.12909
893.00 77.83605
893.10 78.51412
893.20 79.96255
893.30 82.13373
893.40 84.55476
893.50 86.71124
893.60 88.10084
893.70 88.3693
893.80 87.34728
893.90 84.83294
894.00 80.67362
894.10 75.05684
894.20 68.59046
894.30 62.22733
894.40 57.06914
894.50 54.00514
894.60 53.48109
894.70 55.43678
894.80 59.36184
894.90 64.48301
895.00 69.96979
895.10 75.07637
895.20 79.38086
895.30 82.76294
895.40 85.1499
895.50 86.57616
895.60 87.23784
895.70 87.31422
895.80 86.94955
895.90 86.30647
896.00 85.52798
896.10 84.77344
896.20 84.19257
896.30 83.87961
896.40 83.88621
896.50 84.1434
896.60 84.40373
896.70 84.53941
896.80 84.72341
896.90 85.14746
897.00 85.85368
897.10 86.82621
897.20 88.03813
897.30 89.45359
897.40 91.01053
897.50 92.56669
897.60 94.01942
897.70 95.33434
897.80 96.35498
897.90 96.90006
898.00 96.95364
898.10 96.70404
898.20 96.58219
898.30 97.07715
898.40 98.25555
898.50 99.56354
898.60 100.2314
898.70 99.69146
898.80 97.868
898.90 95.15586
899.00 92.12775
899.10 89.35083
899.20 87.38863
899.30 86.6662
899.40 87.29348
899.50 89.12882
899.60 91.70711
899.70 94.11595
899.80 95.65864
899.90 96.6622
900.00 96.76186
900.10 96.86151
900.20 96.96117
900.30 97.06083
900.40 97.16049
900.50 97.26015
900.60 97.35981
900.70 97.45946
900.80 97.55912
900.90 98.05552
901.00 98.75631
901.10 99.45709
901.20 100.1579
901.30 100.8587
901.40 101.5594
901.50 102.2602
901.60 102.961
901.70 103.6618
901.80 104.3626
901.90 105.0633
902.00 105.7641
902.10 106.4649
902.20 107.1657
902.30 107.8665
902.40 108.5673
902.50 109.268
902.60 109.9688
902.70 110.6696
902.80 111.3704
902.90 112.0712
903.00 112.772
903.10 113.4727
903.20 114.1735
903.30 114.8599
903.40 115.5248
903.50 116.1897
903.60 116.8545
903.70 117.5194
903.80 118.1842
903.90 118.8491
904.00 119.514
904.10 120.1788
904.20 120.8437
904.30 121.4495
904.40 121.9937
904.50 122.538
904.60 123.0823
904.70 123.6266
904.80 124.1708
904.90 124.7151
905.00 125.2594
905.10 125.8037
905.20 126.3479
905.30 126.8922
905.40 127.4365
905.50 127.9808
905.60 128.525
905.70 129.0693
905.80 129.6136
905.90 130.1579
906.00 130.7021
906.10 131.2464
906.20 131.7907
906.30 132.335
906.40 132.8792
906.50 133.4235
906.60 133.9678
906.70 134.4973
906.80 134.8941
906.90 135.2909
907.00 135.6877
907.10 136.0845
907.20 136.4812
907.30 136.878
907.40 137.2748
907.50 137.6716
907.60 138.0684
907.70 138.383
907.80 138.1928
907.90 138.0025
908.00 137.8123
908.10 137.6221
908.20 137.4319
908.30 137.2417
908.40 137.0515
908.50 136.8613
908.60 136.6711
908.70 136.4808
908.80 136.2906
908.90 136.1004
909.00 135.9102
909.10 135.72
909.20 135.5298
909.30 135.3396
909.40 135.1493
909.50 134.9591
909.60 134.7689
909.70 134.5787
909.80 134.3885
909.90 134.1983
910.00 134.0081
910.10 133.8179
910.20 133.7029
910.30 133.6341
910.40 133.5653
910.50 133.4965
910.60 133.4277
910.70 133.3588
910.80 133.29
910.90 133.2212
911.00 133.1524
911.10 133.0836
911.20 133.0756
911.30 133.1064
911.40 133.1372
911.50 133.1681
911.60 133.1989
911.70 133.2297
911.80 133.2606
911.90 133.2914
912.00 133.3222
912.10 133.3531
912.20 133.3839
912.30 133.4148
912.40 133.4456
912.50 133.4764
912.60 133.5073
912.70 133.5381
912.80 133.5689
912.90 133.5998
913.00 133.6306
913.10 133.6614
913.20 133.6923
913.30 133.7231
913.40 133.754
913.50 133.7848
913.60 133.8156
913.70 133.8363
913.80 133.8566
913.90 133.8768
914.00 133.8971
914.10 133.9174
914.20 133.9376
914.30 133.9579
914.40 133.9782
914.50 133.9984
914.60 134.0187
914.70 134.534
914.80 135.1104
914.90 135.6869
915.00 136.2633
915.10 136.8397
915.20 137.4162
915.30 137.9926
915.40 138.5691
915.50 139.1455
915.60 139.722
915.70 140.2984
915.80 140.8749
915.90 141.4513
916.00 142.0277
916.10 142.6042
916.20 143.1806
916.30 143.7571
916.40 144.3335
916.50 144.91
916.60 145.4864
916.70 146.0628
916.80 146.6393
916.90 147.2157
917.00 147.7922
917.10 148.3599
917.20 148.864
917.30 149.368
917.40 149.8721
917.50 150.3761
917.60 150.8802
917.70 151.3842
917.80 151.8883
917.90 152.3924
918.00 152.8964
918.10 153.3966
918.20 153.5161
918.30 153.6355
918.40 153.755
918.50 153.8744
918.60 153.9939
918.70 154.1133
918.80 154.2327
918.90 154.3522
919.00 154.4716
919.10 154.5911
919.20 154.7105
919.30 154.83
919.40 154.9494
919.50 155.0689
919.60 155.1883
919.70 155.3078
919.80 155.4272
919.90 155.5467
920.00 155.6661
920.10 155.7856
920.20 155.905
920.30 156.0245
920.40 156.1439
920.50 156.2634
920.60 156.3854
920.70 156.5279
920.80 156.6705
920.90 156.8131
921.00 156.9556
921.10 157.0982
921.20 157.2408
921.30 157.3833
921.40 157.5259
921.50 157.6685
921.60 157.811
921.70 157.8686
921.80 157.9206
921.90 157.9727
922.00 158.0248
922.10 158.0769
922.20 158.1289
922.30 158.181
922.40 158.2331
922.50 158.2852
922.60 158.3373
922.70 158.3893
922.80 158.4414
922.90 158.4935
923.00 158.5456
923.10 158.5977
923.20 158.6497
923.30 158.7018
923.40 158.7539
923.50 158.806
923.60 158.858
923.70 158.9101
923.80 158.9622
923.90 159.0143
924.00 159.0664
924.10 159.1184
924.20 159.147
924.30 159.1735
924.40 159.2
924.50 159.2265
924.60 159.253
924.70 159.2795
924.80 159.306
924.90 159.3326
925.00 159.3591
925.10 159.3856
925.20 159.1909
925.30 158.9014
925.40 158.6118
925.50 158.3223
925.60 158.0328
925.70 157.7433
925.80 157.4538
925.90 157.1643
926.00 156.8748
926.10 156.5853
926.20 156.2957
926.30 156.0062
926.40 155.7167
926.50 155.4272
926.60 155.1377
926.70 154.8482
926.80 154.5587
926.90 154.2692
927.00 153.9797
927.10 153.6901
927.20 153.4006
927.30 153.1111
927.40 152.8216
927.50 152.5321
927.60 152.2426
927.70 152.0107
927.80 151.826
927.90 151.6413
928.00 151.4565
928.10 151.2718
928.20 151.0871
928.30 150.9024
928.40 150.7177
928.50 150.5329
928.60 150.3482
928.70 150.378
928.80 150.9331
928.90 151.4882
929.00 152.0433
929.10 152.5984
929.20 153.1535
929.30 153.7086
929.40 154.2637
929.50 154.8188
929.60 155.3738
929.70 155.9289
929.80 156.484
929.90 157.0391
930.00 157.5942
930.10 158.1493
930.20 158.7044
930.30 159.2595
930.40 159.8146
930.50 160.3696
930.60 160.9247
930.70 161.4798
930.80 162.0349
930.90 162.59
931.00 163.1451
931.10 163.7002
931.20 164.2541
931.30 164.7495
931.40 165.245
931.50 165.7404
931.60 166.2359
931.70 166.7313
931.80 167.2267
931.90 167.7222
932.00 168.2176
932.10 168.7131
932.20 169.2085
932.30 169.045
932.40 168.5991
932.50 168.1531
932.60 167.7072
932.70 167.2613
932.80 166.8153
932.90 166.3694
933.00 165.9235
933.10 165.4775
933.20 165.0316
933.30 164.5856
933.40 164.1397
933.50 163.6938
933.60 163.2478
933.70 162.8019
933.80 162.356
933.90 161.91
934.00 161.4641
934.10 161.0182
934.20 160.5722
934.30 160.1263
934.40 159.6804
934.50 159.2344
934.60 158.7885
934.70 158.3426
934.80 157.8998
934.90 157.4642
935.00 157.0285
935.10 156.5928
935.20 156.1572
935.30 155.7215
935.40 155.2859
935.50 154.8502
935.60 154.4146
935.70 153.9789
935.80 153.5433
935.90 153.8126
936.00 154.1269
936.10 154.4412
936.20 154.7556
936.30 155.0699
936.40 155.3842
936.50 155.6985
936.60 156.0128
936.70 156.3272
936.80 156.6415
936.90 156.9558
937.00 157.2701
937.10 157.5844
937.20 157.8988
937.30 158.2131
937.40 158.5274
937.50 158.8417
937.60 159.156
937.70 159.4703
937.80 159.7847
937.90 160.099
938.00 160.4133
938.10 160.7276
938.20 161.0419
938.30 161.3563
938.40 161.6782
938.50 162.0102
938.60 162.3421
938.70 162.6741
938.80 163.0061
938.90 163.3381
939.00 163.67
939.10 164.002
939.20 164.334
939.30 164.666
939.40 164.9963
939.50 165.2446
939.60 165.493
939.70 165.7414
939.80 165.9898
939.90 166.2382
940.00 166.4865
940.10 166.7349
940.20 166.9833
940.30 167.2317
940.40 167.48
940.50 167.7284
940.60 167.9768
940.70 168.2252
940.80 168.4735
940.90 168.7219
941.00 168.9703
941.10 169.2187
941.20 169.467
941.30 169.7154
941.40 169.9638
941.50 170.2122
941.60 170.4605
941.70 170.7089
941.80 170.9573
941.90 171.2057
942.00 171.4499
942.10 171.6876
942.20 171.9253
942.30 172.163
942.40 172.4007
942.50 172.6384
942.60 172.8761
942.70 173.1138
942.80 173.3515
942.90 173.5892
943.00 173.8269
943.10 174.468
943.20 175.1395
943.30 175.8109
943.40 176.4824
943.50 177.1539
943.60 177.8253
943.70 178.4968
943.80 179.1682
943.90 179.8397
944.00 180.5112
944.10 181.1826
944.20 181.8541
944.30 182.5255
944.40 183.197
944.50 183.8684
944.60 184.5399
944.70 185.2114
944.80 185.8828
944.90 186.5543
945.00 187.2257
945.10 187.8972
945.20 188.5687
945.30 189.2401
945.40 189.9116
945.50 190.583
945.60 191.2406
945.70 191.835
945.80 192.4294
945.90 193.0238
946.00 193.6182
946.10 194.2126
946.20 194.807
946.30 195.4014
946.40 195.9958
946.50 196.5902
946.60 197.1846
946.70 197.5112
946.80 197.706
946.90 197.9008
947.00 198.0956
947.10 198.2904
947.20 198.4852
947.30 198.68
947.40 198.8748
947.50 199.0696
947.60 199.2644
947.70 199.4592
947.80 199.654
947.90 199.8488
948.00 200.0436
948.10 200.2384
948.20 200.4333
948.30 200.6281
948.40 200.8229
948.50 201.0177
948.60 201.2125
948.70 201.4073
948.80 201.6021
948.90 201.7969
949.00 201.9917
949.10 202.1865
949.20 202.3813
949.30 202.5917
949.40 202.8058
949.50 203.0199
949.60 203.2341
949.70 203.4482
949.80 203.6623
949.90 203.8764
950.00 204.0905
950.10 204.3046
950.20 204.5187
950.30 204.6319
950.40 204.4421
950.50 204.2523
950.60 204.0625
950.70 203.8727
950.80 203.6829
950.90 203.4932
951.00 203.3034
951.10 203.1136
951.20 202.9238
951.30 202.734
951.40 202.5442
951.50 202.3544
951.60 202.1647
951.70 201.9749
951.80 201.7851
951.90 201.5953
952.00 201.4055
952.10 201.2157
952.20 201.0259
952.30 200.8361
952.40 200.6464
952.50 200.4566
952.60 200.2668
952.70 200.077
952.80 199.8872
952.90 199.7018
953.00 199.5284
953.10 199.355
953.20 199.1816
953.30 199.0082
953.40 198.8348
953.50 198.6614
953.60 198.4879
953.70 198.3145
953.80 198.1411
953.90 197.9677
954.00 198.1976
954.10 198.6353
954.20 199.0729
954.30 199.5106
954.40 199.9483
954.50 200.3859
954.60 200.8236
954.70 201.2612
954.80 201.6989
954.90 202.1366
955.00 202.5742
955.10 203.0119
955.20 203.4496
955.30 203.8872
955.40 204.3249
955.50 204.7626
955.60 205.2002
955.70 205.6379
955.80 206.0756
955.90 206.5132
956.00 206.9509
956.10 207.3885
956.20 207.8262
956.30 208.2639
956.40 208.7015
956.50 209.1392
956.60 209.5849
956.70 210.0366
956.80 210.4884
956.90 210.9401
957.00 211.3918
957.10 211.8436
957.20 212.2953
957.30 212.747
957.40 213.1988
957.50 213.6505
957.60 214.1022
957.70 213.828
957.80 213.4906
957.90 213.1532
958.00 212.8159
958.10 212.4785
958.20 212.1411
958.30 211.8038
958.40 211.4664
958.50 211.129
958.60 210.7917
958.70 210.4543
958.80 210.1169
958.90 209.7795
959.00 209.4422
959.10 209.1048
959.20 208.7674
959.30 208.4301
959.40 208.0927
959.50 207.7553
959.60 207.418
959.70 207.0806
959.80 206.7432
959.90 206.4058
960.00 206.0685
960.10 205.7311
960.20 205.3937
960.30 205.0911
960.40 204.8026
960.50 204.5141
960.60 204.2256
960.70 203.9371
960.80 203.6486
960.90 203.3601
961.00 203.0716
961.10 202.7832
961.20 202.4947
961.30 202.2196
961.40 202.6022
961.50 202.9847
961.60 203.3673
961.70 203.7499
961.80 204.1324
961.90 204.515
962.00 204.8976
962.10 205.2801
962.20 205.6627
962.30 206.0453
962.40 206.4278
962.50 206.8104
962.60 207.193
962.70 207.5755
962.80 207.9581
962.90 208.3406
963.00 208.7232
963.10 209.1058
963.20 209.4883
963.30 209.8709
963.40 210.2535
963.50 210.636
963.60 211.0186
963.70 211.4012
963.80 211.7837
963.90 212.1663
964.00 212.513
964.10 212.8443
964.20 213.1756
964.30 213.5069
964.40 213.8382
964.50 214.1695
964.60 214.5008
964.70 214.8321
964.80 215.1634
964.90 215.4947
965.00 215.826
965.10 215.8732
965.20 215.9086
965.30 215.9439
965.40 215.9793
965.50 216.0146
965.60 216.05
965.70 216.0853
965.80 216.1207
965.90 216.1561
966.00 216.1914
966.10 216.2268
966.20 216.2621
966.30 216.2975
966.40 216.3328
966.50 216.3682
966.60 216.4036
966.70 216.4389
966.80 216.4743
966.90 216.5096
967.00 216.545
967.10 216.5803
967.20 216.6157
967.30 216.6511
967.40 216.6864
967.50 216.7218
967.60 216.7571
967.70 216.8074
967.80 216.8708
967.90 216.9342
968.00 216.9977
968.10 217.0611
968.20 217.1245
968.30 217.188
968.40 217.2514
968.50 217.3148
968.60 217.3783
968.70 217.4417
968.80 217.4364
968.90 217.407
969.00 217.3776
969.10 217.3481
969.20 217.3187
969.30 217.2893
969.40 217.2598
969.50 217.2304
969.60 217.201
969.70 217.1715
969.80 217.1421
969.90 217.1127
970.00 217.0832
970.10 217.0538
970.20 217.0243
970.30 216.9949
970.40 216.9655
970.50 216.936
970.60 216.9066
970.70 216.8772
970.80 216.8477
970.90 216.8183
971.00 216.7889
971.10 216.7594
971.20 216.73
971.30 216.7006
971.40 216.6663
971.50 216.6128
971.60 216.5593
971.70 216.5058
971.80 216.4523
971.90 216.3987
972.00 216.3452
972.10 216.2917
972.20 216.2382
972.30 216.1847
972.40 216.1312
972.50 216.2617
972.60 216.7057
972.70 217.1496
972.80 217.5935
972.90 218.0375
973.00 218.4814
973.10 218.9253
973.20 219.3693
973.30 219.8132
973.40 220.2571
973.50 220.7011
973.60 221.145
973.70 221.5889
973.80 222.0329
973.90 222.4768
974.00 222.9207
974.10 223.3647
974.20 223.8086
974.30 224.2526
974.40 224.6965
974.50 225.1404
974.60 225.5844
974.70 226.0283
974.80 226.4722
974.90 226.9162
975.00 227.3601
975.10 227.804
975.20 228.2282
975.30 228.6448
975.40 229.0613
975.50 229.4779
975.60 229.8944
975.70 230.3109
975.80 230.7275
975.90 231.144
976.00 231.5606
976.10 231.9771
976.20 232.3936
976.30 232.2655
976.40 232.0413
976.50 231.8171
976.60 231.5929
976.70 231.3687
976.80 231.1445
976.90 230.9203
977.00 230.6961
977.10 230.4719
977.20 230.2477
977.30 230.0235
977.40 229.7993
977.50 229.5751
977.60 229.3509
977.70 229.1267
977.80 228.9025
977.90 228.6783
978.00 228.4541
978.10 228.2299
978.20 228.0057
978.30 227.7815
978.40 227.5573
978.50 227.3331
978.60 227.1089
978.70 226.8847
978.80 226.6605
978.90 226.4316
979.00 226.1598
979.10 225.8881
979.20 225.6163
979.30 225.3446
979.40 225.0728
979.50 224.801
979.60 224.5293
979.70 224.2575
979.80 223.9858
979.90 223.714
980.00 223.5502
980.10 223.878
980.20 224.2059
980.30 224.5337
980.40 224.8616
980.50 225.1895
980.60 225.5173
980.70 225.8452
980.80 226.173
980.90 226.5009
981.00 226.8287
981.10 227.1566
981.20 227.4844
981.30 227.8123
981.40 228.1401
981.50 228.468
981.60 228.7958
981.70 229.1237
981.80 229.4515
981.90 229.7794
982.00 230.1072
982.10 230.4351
982.20 230.7629
982.30 231.0908
982.40 231.4186
982.50 231.7465
982.60 232.0743
982.70 232.3851
982.80 232.6596
982.90 232.934
983.00 233.2085
983.10 233.4829
983.20 233.7574
983.30 234.0319
983.40 234.3063
983.50 234.5808
983.60 234.8552
983.70 235.1297
983.80 235.1395
983.90 234.6789
984.00 234.2182
984.10 233.7576
984.20 233.2969
984.30 232.8363
984.40 232.3756
984.50 231.915
984.60 231.4544
984.70 230.9937
984.80 230.5331
984.90 230.0724
985.00 229.6118
985.10 229.1511
985.20 228.6905
985.30 228.2298
985.40 227.7692
985.50 227.3085
985.60 226.8479
985.70 226.3873
985.80 225.9266
985.90 225.466
986.00 225.0053
986.10 224.5447
986.20 224.084
986.30 223.6234
986.40 223.1627
986.50 222.7178
986.60 222.2963
986.70 221.8747
986.80 221.4532
986.90 221.0317
987.00 220.6102
987.10 220.1887
987.20 219.7672
987.30 219.3457
987.40 218.9242
987.50 218.5027
987.60 218.2342
987.70 218.195
987.80 218.1559
987.90 218.1168
988.00 218.0777
988.10 218.0385
988.20 217.9994
988.30 217.9603
988.40 217.9211
988.50 217.882
988.60 217.8429
988.70 217.8038
988.80 217.7646
988.90 217.7255
989.00 217.6864
989.10 217.6473
989.20 217.6081
989.30 217.569
989.40 217.5299
989.50 217.4907
989.60 217.4516
989.70 217.4125
989.80 217.3734
989.90 217.3342
990.00 217.2951
990.10 217.256
990.20 217.2169
990.30 217.165
990.40 217.0874
990.50 217.0097
990.60 216.9321
990.70 216.8545
990.80 216.7768
990.90 216.6992
991.00 216.6215
991.10 216.5439
991.20 216.4663
991.30 216.3886
991.40 216.2716
991.50 216.0583
991.60 215.845
991.70 215.6317
991.80 215.4184
991.90 215.2051
992.00 214.9918
992.10 214.7784
992.20 214.5651
992.30 214.3518
992.40 214.1385
992.50 213.9252
992.60 213.7119
992.70 213.4986
992.80 213.2852
992.90 213.0719
993.00 212.8586
993.10 212.6453
993.20 212.432
993.30 212.2187
993.40 212.0054
993.50 211.792
993.60 211.5787
993.70 211.3654
993.80 211.1521
993.90 210.9388
994.00 210.7255
994.10 210.5204
994.20 210.3763
994.30 210.2321
994.40 210.088
994.50 209.9438
994.60 209.7997
994.70 209.6555
994.80 209.5114
994.90 209.3672
995.00 209.2231
995.10 209.0789
995.20 208.9175
995.30 208.1964
995.40 207.4753
995.50 206.7543
995.60 206.0332
995.70 205.3121
995.80 204.591
995.90 203.87
996.00 203.1489
996.10 202.4278
996.20 201.7068
996.30 200.9857
996.40 200.2646
996.50 199.5435
996.60 198.8225
996.70 198.1014
996.80 197.3803
996.90 196.6593
997.00 195.9382
997.10 195.2171
997.20 194.496
997.30 193.775
997.40 193.0539
997.50 192.3328
997.60 191.6118
997.70 190.8907
997.80 190.1696
997.90 189.4485
998.00 188.7355
998.10 188.0249
998.20 187.3143
998.30 186.6037
998.40 185.893
998.50 185.1824
998.60 184.4718
998.70 183.7612
998.80 183.0506
998.90 182.3399
999.00 181.6293
999.10 181.296
999.20 181.1749
999.30 181.0537
999.40 180.9326
999.50 180.8115
999.60 180.6904
999.70 180.5692
999.80 180.4481
999.90 180.327
1000.00 180.2059
1000.10 180.0848
1000.20 179.9636
1000.30 179.8425
1000.40 179.7214
1000.50 179.6003
1000.60 179.4791
1000.70 179.358
1000.80 179.2369
1000.90 179.1158
1001.00 178.9947
1001.10 178.8735
1001.20 178.7524
1001.30 178.6313
1001.40 178.5102
1001.50 178.389
1001.60 178.2679
1001.70 178.1468
1001.80 178.052
1001.90 178.0187
1002.00 177.9854
1002.10 177.9521
1002.20 177.9187
1002.30 177.8854
1002.40 177.8521
1002.50 177.8188
1002.60 177.7855
1002.70 177.7521
1002.80 177.7188
1002.90 177.7188
1003.00 178.0185
1003.10 178.3182
1003.20 178.618
1003.30 178.9177
1003.40 179.2174
1003.50 179.5171
1003.60 179.8169
1003.70 180.1166
1003.80 180.4163
1003.90 180.716
1004.00 181.0158
1004.10 181.3155
1004.20 181.6152
1004.30 181.9149
1004.40 182.2147
1004.50 182.5144
1004.60 182.8141
1004.70 183.1139
1004.80 183.4136
1004.90 183.7133
1005.00 184.013
1005.10 184.3128
1005.20 184.6125
1005.30 184.9122
1005.40 185.2119
1005.50 185.5117
1005.60 185.8114
1005.70 186.0979
1005.80 186.3787
1005.90 186.6596
1006.00 186.9404
1006.10 187.2212
1006.20 187.5021
1006.30 187.7829
1006.40 188.0637
1006.50 188.3446
1006.60 188.6254
1006.70 188.9063
1006.80 189.2729
1006.90 189.7682
1007.00 190.2635
1007.10 190.7589
1007.20 191.2542
1007.30 191.7495
1007.40 192.2448
1007.50 192.7402
1007.60 193.2355
1007.70 193.7308
1007.80 194.2261
1007.90 194.7215
1008.00 195.2168
1008.10 195.7121
1008.20 196.2074
1008.30 196.7028
1008.40 197.1981
1008.50 197.6934
1008.60 198.1887
1008.70 198.6841
1008.80 199.1794
1008.90 199.6747
1009.00 200.17
1009.10 200.6654
1009.20 201.1607
1009.30 201.656
1009.40 202.1513
1009.50 202.6467
1009.60 203.1356
1009.70 203.6238
1009.80 204.1121
1009.90 204.6003
1010.00 205.0886
1010.10 205.5768
1010.20 206.065
1010.30 206.5533
1010.40 207.0415
1010.50 207.5297
1010.60 208.018
1010.70 208.1849
1010.80 208.1377
1010.90 208.0905
1011.00 208.0433
1011.10 207.9961
1011.20 207.9489
1011.30 207.9016
1011.40 207.8544
1011.50 207.8072
1011.60 207.76
1011.70 207.7128
1011.80 207.6656
1011.90 207.6184
1012.00 207.5711
1012.10 207.5239
1012.20 207.4767
1012.30 207.4295
1012.40 207.3823
1012.50 207.3351
1012.60 207.2879
1012.70 207.2406
1012.80 207.1934
1012.90 207.1462
1013.00 207.099
1013.10 207.0518
1013.20 207.0046
1013.30 206.9574
1013.40 206.9102
1013.50 206.8033
1013.60 206.6965
1013.70 206.5897
1013.80 206.4829
1013.90 206.3761
1014.00 206.2692
1014.10 206.1624
1014.20 206.0556
1014.30 205.9488
1014.40 205.8419
1014.50 205.7351
1014.60 206.0027
1014.70 206.4308
1014.80 206.8589
1014.90 207.287
1015.00 207.7151
1015.10 208.1432
1015.20 208.5713
1015.30 208.9994
1015.40 209.4275
1015.50 209.8556
1015.60 210.2836
1015.70 210.7117
1015.80 211.1398
1015.90 211.5679
1016.00 211.996
1016.10 212.4241
1016.20 212.8522
1016.30 213.2803
1016.40 213.7084
1016.50 214.1364
1016.60 214.5645
1016.70 214.9926
1016.80 215.4207
1016.90 215.8488
1017.00 216.2769
1017.10 216.705
1017.20 217.1331
1017.30 217.5612
1017.40 218.0685
1017.50 218.5759
1017.60 219.0832
1017.70 219.5906
1017.80 220.098
1017.90 220.6053
1018.00 221.1127
1018.10 221.6201
1018.20 222.1274
1018.30 222.6348
1018.40 223.1422
1018.50 223.4162
1018.60 223.5346
1018.70 223.6531
1018.80 223.7716
1018.90 223.89
1019.00 224.0085
1019.10 224.1269
1019.20 224.2454
1019.30 224.3638
1019.40 224.4823
1019.50 224.6008
1019.60 224.7192
1019.70 224.8377
1019.80 224.9561
1019.90 225.0746
1020.00 225.1931
1020.10 225.3115
1020.20 225.43
1020.30 225.5484
1020.40 225.6669
1020.50 225.7854
1020.60 225.9038
1020.70 226.0223
1020.80 226.1407
1020.90 226.2592
1021.00 226.3777
1021.10 226.4961
1021.20 226.6146
1021.30 226.7239
1021.40 226.8309
1021.50 226.9379
1021.60 227.0449
1021.70 227.152
1021.80 227.259
1021.90 227.366
1022.00 227.473
1022.10 227.58
1022.20 227.687
1022.30 227.794
1022.40 227.8052
1022.50 227.7204
1022.60 227.6356
1022.70 227.5508
1022.80 227.466
1022.90 227.3812
1023.00 227.2964
1023.10 227.2116
1023.20 227.1268
1023.30 227.042
1023.40 226.9572
1023.50 226.8724
1023.60 226.7876
1023.70 226.7028
1023.80 226.618
1023.90 226.5332
1024.00 226.4484
1024.10 226.3636
1024.20 226.2788
1024.30 226.194
1024.40 226.1092
1024.50 226.0244
1024.60 225.9396
1024.70 225.8548
1024.80 225.77
1024.90 225.6852
1025.00 225.6004
1025.10 225.5156
1025.20 225.4305
1025.30 225.3452
1025.40 225.2599
1025.50 225.1746
1025.60 225.0893
1025.70 225.004
1025.80 224.9187
1025.90 224.8334
1026.00 224.7481
1026.10 224.6628
1026.20 224.5775
1026.30 224.5213
1026.40 224.7266
1026.50 224.9318
1026.60 225.1371
1026.70 225.3424
1026.80 225.5477
1026.90 225.7529
1027.00 225.9582
1027.10 226.1635
1027.20 226.3688
1027.30 226.574
1027.40 226.7793
1027.50 226.9846
1027.60 227.1899
1027.70 227.3952
1027.80 227.6004
1027.90 227.8057
1028.00 228.011
1028.10 228.2163
1028.20 228.4215
1028.30 228.6268
1028.40 228.8321
1028.50 229.0374
1028.60 229.2426
1028.70 229.4479
1028.80 229.6532
1028.90 229.8585
1029.00 230.0637
1029.10 230.2619
1029.20 230.3958
1029.30 230.5297
1029.40 230.6635
1029.50 230.7974
1029.60 230.9313
1029.70 231.0652
1029.80 231.1991
1029.90 231.333
1030.00 231.4668
1030.10 231.6007
1030.20 231.7346
1030.30 231.8166
1030.40 231.8763
1030.50 231.936
1030.60 231.9957
1030.70 232.0554
1030.80 232.1151
1030.90 232.1748
1031.00 232.2345
1031.10 232.2942
1031.20 232.3539
1031.30 232.4136
1031.40 232.4733
1031.50 232.533
1031.60 232.5928
1031.70 232.6525
1031.80 232.7122
1031.90 232.7719
1032.00 232.8316
1032.10 232.8913
1032.20 232.951
1032.30 233.0107
1032.40 233.0704
1032.50 233.1301
1032.60 233.1898
1032.70 233.2495
1032.80 233.3092
1032.90 233.369
1033.00 233.4287
1033.10 233.5732
1033.20 233.7744
1033.30 233.9756
1033.40 234.1767
1033.50 234.3779
1033.60 234.5791
1033.70 234.7802
1033.80 234.9814
1033.90 235.1826
1034.00 235.3838
1034.10 235.5849
1034.20 235.8261
1034.30 236.4278
1034.40 237.0294
1034.50 237.631
1034.60 238.2327
1034.70 238.8343
1034.80 239.4359
1034.90 240.0376
1035.00 240.6392
1035.10 241.2408
1035.20 241.8425
1035.30 242.4441
1035.40 243.0457
1035.50 243.6474
1035.60 244.249
1035.70 244.8506
1035.80 245.4523
1035.90 246.0539
1036.00 246.6555
1036.10 247.2572
1036.20 247.8588
1036.30 248.4605
1036.40 249.0621
1036.50 249.6637
1036.60 250.2654
1036.70 250.867
1036.80 251.4686
1036.90 252.0703
1037.00 252.6719
1037.10 253.2073
1037.20 253.7353
1037.30 254.2633
1037.40 254.7913
1037.50 255.3193
1037.60 255.8474
1037.70 256.3754
1037.80 256.9034
1037.90 257.4314
1038.00 257.9594
1038.10 258.4874
1038.20 258.7863
1038.30 258.7415
1038.40 258.6967
1038.50 258.6519
1038.60 258.607
1038.70 258.5622
1038.80 258.5174
1038.90 258.4726
1039.00 258.4278
1039.10 258.3829
1039.20 258.3381
1039.30 258.2933
1039.40 258.2485
1039.50 258.2036
1039.60 258.1588
1039.70 258.114
1039.80 258.0692
1039.90 258.0244
1040.00 257.9795
1040.10 257.9347
1040.20 257.8899
1040.30 257.8451
1040.40 257.8003
1040.50 257.7554
1040.60 257.7106
1040.70 257.6658
1040.80 257.621
1040.90 257.5761
1041.00 257.5214
1041.10 257.4268
1041.20 257.3321
1041.30 257.2375
1041.40 257.1429
1041.50 257.0483
1041.60 256.9537
1041.70 256.8591
1041.80 256.7645
1041.90 256.6699
1042.00 256.5753
1042.10 256.4807
1042.20 256.6962
1042.30 257.1185
1042.40 257.5408
1042.50 257.9631
1042.60 258.3854
1042.70 258.8077
1042.80 259.23
1042.90 259.6522
1043.00 260.0745
1043.10 260.4968
1043.20 260.9191
1043.30 261.3414
1043.40 261.7637
1043.50 262.186
1043.60 262.6083
1043.70 263.0306
1043.80 263.4529
1043.90 263.8752
1044.00 264.2975
1044.10 264.7198
1044.20 265.1421
1044.30 265.5644
1044.40 265.9867
1044.50 266.4089
1044.60 266.8312
1044.70 267.2535
1044.80 267.6758
1044.90 268.0981
1045.00 268.5423
1045.10 269.0375
1045.20 269.5327
1045.30 270.0279
1045.40 270.523
1045.50 271.0182
1045.60 271.5134
1045.70 272.0086
1045.80 272.5038
1045.90 272.999
1046.00 273.4942
1046.10 273.9894
1046.20 274.1297
1046.30 274.118
1046.40 274.1063
1046.50 274.0946
1046.60 274.0829
1046.70 274.0712
1046.80 274.0595
1046.90 274.0478
1047.00 274.0361
1047.10 274.0244
1047.20 274.0127
1047.30 274.001
1047.40 273.9893
1047.50 273.9776
1047.60 273.9659
1047.70 273.9542
1047.80 273.9424
1047.90 273.9307
1048.00 273.919
1048.10 273.9073
1048.20 273.8956
1048.30 273.8839
1048.40 273.8722
1048.50 273.8605
1048.60 273.8488
1048.70 273.8371
1048.80 273.8254
1048.90 273.8137
1049.00 273.7861
1049.10 273.7214
1049.20 273.6567
1049.30 273.592
1049.40 273.5272
1049.50 273.4625
1049.60 273.3978
1049.70 273.3331
1049.80 273.2684
1049.90 273.2037
1050.00 273.139
1050.10 273.0743
1050.20 273.1099
1050.30 273.1887
1050.40 273.2674
1050.50 273.3461
1050.60 273.4248
1050.70 273.5035
1050.80 273.5822
1050.90 273.661
1051.00 273.7397
1051.10 273.8184
1051.20 273.8971
1051.30 273.9758
1051.40 274.0545
1051.50 274.1332
1051.60 274.212
1051.70 274.2907
1051.80 274.3694
1051.90 274.4481
1052.00 274.5268
1052.10 274.6055
1052.20 274.6843
1052.30 274.763
1052.40 274.8417
1052.50 274.9204
1052.60 274.9991
1052.70 275.0778
1052.80 275.1566
1052.90 275.2353
1053.00 275.3197
1053.10 275.4271
1053.20 275.5345
1053.30 275.6419
1053.40 275.7492
1053.50 275.8566
1053.60 275.964
1053.70 276.0714
1053.80 276.1788
1053.90 276.2861
1054.00 276.3935
1054.10 276.5009
1054.20 276.6482
1054.30 276.8354
1054.40 277.0227
1054.50 277.2099
1054.60 277.3971
1054.70 277.5843
1054.80 277.7716
1054.90 277.9588
1055.00 278.146
1055.10 278.3333
1055.20 278.5205
1055.30 278.7077
1055.40 278.8949
1055.50 279.0822
1055.60 279.2694
1055.70 279.4566
1055.80 279.6438
1055.90 279.8311
1056.00 280.0183
1056.10 280.2055
1056.20 280.3928
1056.30 280.58
1056.40 280.7672
1056.50 280.9544
1056.60 281.1417
1056.70 281.3289
1056.80 281.5161
1056.90 281.7033
1057.00 281.8906
1057.10 282.008
1057.20 282.1177
1057.30 282.2274
1057.40 282.3371
1057.50 282.4467
1057.60 282.5564
1057.70 282.6661
1057.80 282.7758
1057.90 282.8855
1058.00 282.9952
1058.10 283.1048
1058.20 283.2117
1058.30 283.3121
1058.40 283.4124
1058.50 283.5128
1058.60 283.6131
1058.70 283.7134
1058.80 283.8138
1058.90 283.9141
1059.00 284.0145
1059.10 284.1148
1059.20 284.2152
1059.30 284.3155
1059.40 284.4158
1059.50 284.5162
1059.60 284.6165
1059.70 284.7169
1059.80 284.8172
1059.90 284.9176
1060.00 285.0179
1060.10 285.1183
1060.20 285.2186
1060.30 285.3189
1060.40 285.4193
1060.50 285.5196
1060.60 285.62
1060.70 285.7203
1060.80 285.8207
1060.90 285.921
1061.00 286.0213
1061.10 286.1775
1061.20 286.3708
1061.30 286.5641
1061.40 286.7575
1061.50 286.9508
1061.60 287.1441
1061.70 287.3374
1061.80 287.5308
1061.90 287.7241
1062.00 287.9174
1062.10 288.1108
1062.20 288.3041
1062.30 288.5299
1062.40 288.7594
1062.50 288.9889
1062.60 289.2184
1062.70 289.4478
1062.80 289.6773
1062.90 289.9068
1063.00 290.1363
1063.10 290.3657
1063.20 290.5952
1063.30 290.8247
1063.40 291.0542
1063.50 291.2836
1063.60 291.5131
1063.70 291.7426
1063.80 291.972
1063.90 292.2015
1064.00 292.431
1064.10 292.6605
1064.20 292.8899
1064.30 293.1194
1064.40 293.3489
1064.50 293.5784
1064.60 293.8078
1064.70 294.0373
1064.80 294.2668
1064.90 294.4963
1065.00 294.7257
1065.10 294.9484
1065.20 295.144
1065.30 295.3395
1065.40 295.535
1065.50 295.7306
1065.60 295.9261
1065.70 296.1216
1065.80 296.3172
1065.90 296.5127
1066.00 296.7082
1066.10 296.9037
1066.20 297.0993
1066.30 297.3047
1066.40 297.525
1066.50 297.7453
1066.60 297.9656
1066.70 298.1859
1066.80 298.4062
1066.90 298.6264
1067.00 298.8467
1067.10 299.067
1067.20 299.2873
1067.30 299.5076
1067.40 299.7279
1067.50 299.9482
1067.60 300.1685
1067.70 300.3887
1067.80 300.609
1067.90 300.8293
1068.00 301.0496
1068.10 301.2699
1068.20 301.4902
1068.30 301.7105
1068.40 301.9308
1068.50 302.151
1068.60 302.3713
1068.70 302.5916
1068.80 302.8119
1068.90 303.0322
1069.00 303.2525
1069.10 303.4728
1069.20 303.6993
1069.30 303.9299
1069.40 304.1606
1069.50 304.3912
1069.60 304.6219
1069.70 304.8525
1069.80 305.0832
1069.90 305.3138
1070.00 305.5445
1070.10 305.7751
1070.20 306.0058
1070.30 306.2365
1070.40 306.4445
1070.50 306.65
1070.60 306.8554
1070.70 307.0609
1070.80 307.2664
1070.90 307.4719
1071.00 307.6774
1071.10 307.8829
1071.20 308.0884
1071.30 308.2939
1071.40 308.4994
1071.50 308.7049
1071.60 308.9104
1071.70 309.1158
1071.80 309.3213
1071.90 309.5268
1072.00 309.7323
1072.10 309.9378
1072.20 310.1433
1072.30 310.3488
1072.40 310.5543
1072.50 310.7598
1072.60 310.9653
1072.70 311.1708
1072.80 311.3763
1072.90 311.5817
1073.00 311.7872
1073.10 311.9927
1073.20 312.1982
1073.30 312.4328
1073.40 312.6673
1073.50 312.9019
1073.60 313.1364
1073.70 313.371
1073.80 313.6055
1073.90 313.8401
1074.00 314.0746
1074.10 314.3092
1074.20 314.5437
1074.30 314.7783
1074.40 315.0157
1074.50 315.2647
1074.60 315.5136
1074.70 315.7626
1074.80 316.0116
1074.90 316.2605
1075.00 316.5095
1075.10 316.7585
1075.20 317.0075
1075.30 317.2564
1075.40 317.5054
1075.50 317.7544
1075.60 318.0033
1075.70 318.2523
1075.80 318.5013
1075.90 318.7502
1076.00 318.9992
1076.10 319.2482
1076.20 319.4972
1076.30 319.7461
1076.40 319.9951
1076.50 320.2441
1076.60 320.493
1076.70 320.742
1076.80 320.991
1076.90 321.2399
1077.00 321.4889
1077.10 321.7379
1077.20 321.9869
1077.30 322.2312
1077.40 322.4571
1077.50 322.6831
1077.60 322.909
1077.70 323.1349
1077.80 323.3608
1077.90 323.5868
1078.00 323.8127
1078.10 324.0386
1078.20 324.2645
1078.30 324.4905
1078.40 324.7164
1078.50 324.8664
1078.60 324.9024
1078.70 324.9385
1078.80 324.9745
1078.90 325.0105
1079.00 325.0466
1079.10 325.0826
1079.20 325.1187
1079.30 325.1547
1079.40 325.1907
1079.50 325.2268
1079.60 325.2628
1079.70 325.2989
1079.80 325.3349
1079.90 325.3709
1080.00 325.407
1080.10 325.443
1080.20 325.4791
1080.30 325.5151
1080.40 325.5512
1080.50 325.5872
1080.60 325.6232
1080.70 325.6593
1080.80 325.6953
1080.90 325.7314
1081.00 325.7674
1081.10 325.8034
1081.20 325.8395
1081.30 325.8755
1081.40 325.8761
1081.50 325.8234
1081.60 325.7707
1081.70 325.718
1081.80 325.6654
1081.90 325.6127
1082.00 325.56
1082.10 325.5073
1082.20 325.4546
1082.30 325.402
1082.40 325.3493
1082.50 325.2966
1082.60 325.4565
1082.70 325.829
1082.80 326.2015
1082.90 326.574
1083.00 326.9465
1083.10 327.3189
1083.20 327.6914
1083.30 328.0639
1083.40 328.4364
1083.50 328.8089
1083.60 329.1814
1083.70 329.5539
1083.80 329.9263
1083.90 330.2988
1084.00 330.6713
1084.10 331.0438
1084.20 331.4163
1084.30 331.7888
1084.40 332.1613
1084.50 332.5338
1084.60 332.9062
1084.70 333.2787
1084.80 333.6512
1084.90 334.0237
1085.00 334.3962
1085.10 334.7687
1085.20 335.1412
1085.30 335.5137
1085.40 335.8861
1085.50 336.2954
1085.60 336.7599
1085.70 337.2244
1085.80 337.6889
1085.90 338.1534
1086.00 338.6179
1086.10 339.0824
1086.20 339.5469
1086.30 340.0114
1086.40 340.4759
1086.50 340.9404
1086.60 341.405
1086.70 341.7298
1086.80 341.9616
1086.90 342.1934
1087.00 342.4251
1087.10 342.6569
1087.20 342.8887
1087.30 343.1205
1087.40 343.3523
1087.50 343.584
1087.60 343.8158
1087.70 344.0476
1087.80 344.2794
1087.90 344.5111
1088.00 344.7429
1088.10 344.9747
1088.20 345.2065
1088.30 345.4382
1088.40 345.67
1088.50 345.9018
1088.60 346.1336
1088.70 346.3653
1088.80 346.5971
1088.90 346.8289
1089.00 347.0607
1089.10 347.2925
1089.20 347.5242
1089.30 347.756
1089.40 347.9878
1089.50 348.2196
1089.60 348.4223
1089.70 348.5816
1089.80 348.7409
1089.90 348.9002
1090.00 349.0595
1090.10 349.2188
1090.20 349.3781
1090.30 349.5374
1090.40 349.6967
1090.50 349.856
1090.60 350.0153
1090.70 350.1746
1090.80 350.2128
1090.90 350.1298
1091.00 350.0468
1091.10 349.9638
1091.20 349.8807
1091.30 349.7977
1091.40 349.7147
1091.50 349.6317
1091.60 349.5487
1091.70 349.4657
1091.80 349.3827
1091.90 349.2997
1092.00 349.2167
1092.10 349.1337
1092.20 349.0507
1092.30 348.9676
1092.40 348.8846
1092.50 348.8016
1092.60 348.7186
1092.70 348.6356
1092.80 348.5526
1092.90 348.4696
1093.00 348.3866
1093.10 348.3036
1093.20 348.2206
1093.30 348.1375
1093.40 348.0545
1093.50 347.9715
1093.60 347.8885
1093.70 347.8059
1093.80 347.7242
1093.90 347.6424
1094.00 347.5607
1094.10 347.479
1094.20 347.3972
1094.30 347.3155
1094.40 347.2338
1094.50 347.152
1094.60 347.0703
1094.70 346.9886
1094.80 346.9068
1094.90 346.9794
1095.00 347.2833
1095.10 347.5873
1095.20 347.8912
1095.30 348.1951
1095.40 348.4991
1095.50 348.803
1095.60 349.107
1095.70 349.4109
1095.80 349.7149
1095.90 350.0188
1096.00 350.3227
1096.10 350.6267
1096.20 350.9306
1096.30 351.2346
1096.40 351.5385
1096.50 351.8424
1096.60 352.1464
1096.70 352.4503
1096.80 352.7543
1096.90 353.0582
1097.00 353.3621
1097.10 353.6661
1097.20 353.97
1097.30 354.274
1097.40 354.5779
1097.50 354.8818
1097.60 355.1858
1097.70 355.4897
1097.80 355.7956
1097.90 356.1189
1098.00 356.4421
1098.10 356.7654
1098.20 357.0886
1098.30 357.4119
1098.40 357.7351
1098.50 358.0584
1098.60 358.3816
1098.70 358.7049
1098.80 359.0281
1098.90 359.3514
1099.00 359.6218
1099.10 359.4164
1099.20 359.211
1099.30 359.0057
1099.40 358.8003
1099.50 358.595
1099.60 358.3896
1099.70 358.1843
1099.80 357.9789
1099.90 357.7735
1100.00 357.5682
1100.10 357.3628
1100.20 357.1575
1100.30 356.9521
1100.40 356.7467
1100.50 356.5414
1100.60 356.336
1100.70 356.1307
1100.80 355.9253
1100.90 355.7199
1101.00 355.5146
1101.10 355.3092
1101.20 355.1039
1101.30 354.8985
1101.40 354.6931
1101.50 354.4878
1101.60 354.2824
1101.70 354.0771
1101.80 353.8717
1101.90 353.6664
1102.00 353.456
1102.10 353.2443
1102.20 353.0327
1102.30 352.821
1102.40 352.6094
1102.50 352.3978
1102.60 352.1861
1102.70 351.9745
1102.80 351.7628
1102.90 351.5512
1103.00 351.3395
1103.10 351.1279
1103.20 350.9104
1103.30 350.6914
1103.40 350.4725
1103.50 350.2535
1103.60 350.0346
1103.70 349.8156
1103.80 349.5967
1103.90 349.3777
1104.00 349.1587
1104.10 348.9398
1104.20 348.7208
1104.30 348.5019
1104.40 348.2829
1104.50 348.064
1104.60 347.845
1104.70 347.626
1104.80 347.4071
1104.90 347.1881
1105.00 346.9692
1105.10 346.7502
1105.20 346.5313
1105.30 346.3123
1105.40 346.0933
1105.50 345.8744
1105.60 345.6554
1105.70 345.4365
1105.80 345.2175
1105.90 344.9986
1106.00 344.7796
1106.10 344.5359
1106.20 344.2551
1106.30 343.9742
1106.40 343.6934
1106.50 343.4125
1106.60 343.1317
1106.70 342.8509
1106.80 342.57
1106.90 342.2892
1107.00 342.0084
1107.10 341.7275
1107.20 341.4467
1107.30 341.2009
1107.40 341.0077
1107.50 340.8146
1107.60 340.6214
1107.70 340.4282
1107.80 340.235
1107.90 340.0418
1108.00 339.8487
1108.10 339.6555
1108.20 339.4623
1108.30 339.2691
1108.40 339.0759
1108.50 338.8828
1108.60 338.6896
1108.70 338.4964
1108.80 338.3032
1108.90 338.11
1109.00 337.9168
1109.10 337.7237
1109.20 337.5305
1109.30 337.3373
1109.40 337.1441
1109.50 336.9509
1109.60 336.7578
1109.70 336.5646
1109.80 336.3714
1109.90 336.1782
1110.00 335.985
1110.10 335.7919
1110.20 335.5987
1110.30 335.444
1110.40 335.2935
1110.50 335.1431
1110.60 334.9926
1110.70 334.8422
1110.80 334.6918
1110.90 334.5413
1111.00 334.3909
1111.10 334.2404
1111.20 334.09
1111.30 333.9395
1111.40 333.7891
1111.50 333.5101
1111.60 333.2169
1111.70 332.9236
1111.80 332.6304
1111.90 332.3371
1112.00 332.0439
1112.10 331.7506
1112.20 331.4574
1112.30 331.1641
1112.40 330.8709
1112.50 330.5776
1112.60 330.2844
1112.70 329.9911
1112.80 329.6979
1112.90 329.4046
1113.00 329.1114
1113.10 328.8181
1113.20 328.5249
1113.30 328.2316
1113.40 327.9384
1113.50 327.6451
1113.60 327.3519
1113.70 327.0586
1113.80 326.7654
1113.90 326.4721
1114.00 326.1789
1114.10 325.8856
1114.20 325.5924
1114.30 325.2991
1114.40 325.0166
1114.50 324.7591
1114.60 324.5016
1114.70 324.2441
1114.80 323.9866
1114.90 323.7291
1115.00 323.4716
1115.10 323.2141
1115.20 322.9566
1115.30 322.6991
1115.40 322.4416
1115.50 322.1841
1115.60 322.1193
1115.70 322.5041
1115.80 322.8888
1115.90 323.2736
1116.00 323.6584
1116.10 324.0432
1116.20 324.428
1116.30 324.8127
1116.40 325.1975
1116.50 325.5823
1116.60 325.9671
1116.70 326.3519
1116.80 326.7366
1116.90 327.1214
1117.00 327.5062
1117.10 327.891
1117.20 328.2758
1117.30 328.6605
1117.40 329.0453
1117.50 329.4301
1117.60 329.8149
1117.70 330.1997
1117.80 330.5844
1117.90 330.9692
1118.00 331.354
1118.10 331.7388
1118.20 332.1236
1118.30 332.5083
1118.40 332.8931
1118.50 333.2779
1118.60 333.6788
1118.70 334.0866
1118.80 334.4944
1118.90 334.9022
1119.00 335.31
1119.10 335.7178
1119.20 336.1255
1119.30 336.5333
1119.40 336.9411
1119.50 337.3489
1119.60 337.7567
1119.70 338.1645
1119.80 338.3673
1119.90 338.4335
1120.00 338.4997
1120.10 338.5659
1120.20 338.6321
1120.30 338.6982
1120.40 338.7644
1120.50 338.8306
1120.60 338.8968
1120.70 338.963
1120.80 339.0291
1120.90 339.0953
1121.00 339.1615
1121.10 339.2277
1121.20 339.2939
1121.30 339.3601
1121.40 339.4262
1121.50 339.4924
1121.60 339.5586
1121.70 339.6248
1121.80 339.691
1121.90 339.7571
1122.00 339.8233
1122.10 339.8895
1122.20 339.9557
1122.30 340.0219
1122.40 340.0881
1122.50 340.1542
1122.60 340.2204
1122.70 340.2866
1122.80 340.256
1122.90 340.2254
1123.00 340.1948
1123.10 340.1643
1123.20 340.1337
1123.30 340.1031
1123.40 340.0725
1123.50 340.0419
1123.60 340.0113
1123.70 339.9808
1123.80 339.9502
1123.90 339.9196
1124.00 339.7285
1124.10 339.5196
1124.20 339.3107
1124.30 339.1019
1124.40 338.893
1124.50 338.6841
1124.60 338.4752
1124.70 338.2663
1124.80 338.0574
1124.90 337.8485
1125.00 337.6396
1125.10 337.4307
1125.20 337.2218
1125.30 337.0129
1125.40 336.804
1125.50 336.5952
1125.60 336.3863
1125.70 336.1774
1125.80 335.9685
1125.90 335.7596
1126.00 335.5507
1126.10 335.3418
1126.20 335.1329
1126.30 334.924
1126.40 334.7151
1126.50 334.5062
1126.60 334.2973
1126.70 334.0885
1126.80 333.8796
1126.90 333.6867
1127.00 333.5582
1127.10 333.4296
1127.20 333.301
1127.30 333.1724
1127.40 333.0439
1127.50 332.9153
1127.60 332.7867
1127.70 332.6581
1127.80 332.5296
1127.90 332.401
1128.00 332.2724
1128.10 332.1472
1128.20 332.0524
1128.30 331.9576
1128.40 331.8628
1128.50 331.768
1128.60 331.6732
1128.70 331.5785
1128.80 331.4837
1128.90 331.3889
1129.00 331.2941
1129.10 331.1993
1129.20 331.1045
1129.30 331.0097
1129.40 330.9149
1129.50 330.8201
1129.60 330.7253
1129.70 330.6305
1129.80 330.5357
1129.90 330.441
1130.00 330.3462
1130.10 330.2514
1130.20 330.1566
1130.30 330.0618
1130.40 329.967
1130.50 329.8722
1130.60 329.7774
1130.70 329.6826
1130.80 329.5878
1130.90 329.493
1131.00 329.3983
1131.10 329.2916
1131.20 329.167
1131.30 329.0424
1131.40 328.9179
1131.50 328.7933
1131.60 328.6687
1131.70 328.5442
1131.80 328.4196
1131.90 328.2951
1132.00 328.1705
1132.10 328.0459
1132.20 327.9214
1132.30 327.919
1132.40 328.4055
1132.50 328.892
1132.60 329.3784
1132.70 329.8649
1132.80 330.3514
1132.90 330.8378
1133.00 331.3243
1133.10 331.8108
1133.20 332.2972
1133.30 332.7837
1133.40 333.2702
1133.50 333.7567
1133.60 334.2431
1133.70 334.7296
1133.80 335.2161
1133.90 335.7025
1134.00 336.189
1134.10 336.6755
1134.20 337.162
1134.30 337.6484
1134.40 338.1349
1134.50 338.6214
1134.60 339.1078
1134.70 339.5943
1134.80 340.0808
1134.90 340.5672
1135.00 341.0537
1135.10 341.5402
1135.20 342.0267
1135.30 342.5355
1135.40 343.078
1135.50 343.6205
1135.60 344.163
1135.70 344.7055
1135.80 345.248
1135.90 345.7905
1136.00 346.333
1136.10 346.8755
1136.20 347.418
1136.30 347.9605
1136.40 348.503
1136.50 348.7733
1136.60 348.4086
1136.70 348.0439
1136.80 347.6792
1136.90 347.3145
1137.00 346.9498
1137.10 346.585
1137.20 346.2203
1137.30 345.8556
1137.40 345.4909
1137.50 345.1262
1137.60 344.7615
1137.70 344.3968
1137.80 344.032
1137.90 343.6673
1138.00 343.3026
1138.10 342.9379
1138.20 342.5732
1138.30 342.2085
1138.40 341.8438
1138.50 341.479
1138.60 341.1143
1138.70 340.7496
1138.80 340.3849
1138.90 340.0202
1139.00 339.6555
1139.10 339.2908
1139.20 338.9261
1139.30 338.5613
1139.40 338.1966
1139.50 337.8312
1139.60 337.4645
1139.70 337.0979
1139.80 336.7313
1139.90 336.3647
1140.00 335.9981
1140.10 335.6315
1140.20 335.2649
1140.30 334.8983
1140.40 334.5317
1140.50 334.165
1140.60 333.7984
1140.70 333.5022
1140.80 333.3701
1140.90 333.238
1141.00 333.1059
1141.10 332.9738
1141.20 332.8418
1141.30 332.7097
1141.40 332.5776
1141.50 332.4455
1141.60 332.3134
1141.70 332.1814
1141.80 332.0493
1141.90 331.9172
1142.00 331.7851
1142.10 331.653
1142.20 331.5209
1142.30 331.3889
1142.40 331.2568
1142.50 331.1247
1142.60 330.9926
1142.70 330.8605
1142.80 330.7284
1142.90 330.5964
1143.00 330.4643
1143.10 330.3322
1143.20 330.2001
1143.30 330.068
1143.40 329.9359
1143.50 329.8039
1143.60 329.6718
1143.70 329.5461
1143.80 329.4299
1143.90 329.3137
1144.00 329.1975
1144.10 329.0814
1144.20 328.9652
1144.30 328.849
1144.40 328.7329
1144.50 328.6167
1144.60 328.5005
1144.70 328.3843
1144.80 328.2682
1144.90 328.268
1145.00 328.7319
1145.10 329.1957
1145.20 329.6596
1145.30 330.1234
1145.40 330.5873
1145.50 331.0512
1145.60 331.515
1145.70 331.9789
1145.80 332.4427
1145.90 332.9066
1146.00 333.3705
1146.10 333.8343
1146.20 334.2982
1146.30 334.762
1146.40 335.2259
1146.50 335.6898
1146.60 336.1536
1146.70 336.6175
1146.80 337.0813
1146.90 337.5452
1147.00 338.0091
1147.10 338.4729
1147.20 338.9368
1147.30 339.4006
1147.40 339.8645
1147.50 340.3284
1147.60 340.7922
1147.70 341.2561
1147.80 341.7199
1147.90 342.1759
1148.00 342.6001
1148.10 343.0243
1148.20 343.4486
1148.30 343.8728
1148.40 344.297
1148.50 344.7213
1148.60 345.1455
1148.70 345.5698
1148.80 345.994
1148.90 346.4182
1149.00 346.8425
1149.10 347.2667
1149.20 347.6709
1149.30 348.0751
1149.40 348.4793
1149.50 348.8835
1149.60 349.2877
1149.70 349.6919
1149.80 350.0961
1149.90 350.5003
1150.00 350.9045
1150.10 351.3087
1150.20 351.7128
1150.30 352.117
1150.40 352.5212
1150.50 352.9254
1150.60 353.3296
1150.70 353.7338
1150.80 354.138
1150.90 354.5422
1151.00 354.9464
1151.10 355.3506
1151.20 355.7548
1151.30 356.159
1151.40 356.5632
1151.50 356.9674
1151.60 357.3716
1151.70 357.7758
1151.80 358.18
1151.90 358.5842
1152.00 358.9884
1152.10 359.3892
1152.20 359.7593
1152.30 360.1294
1152.40 360.4995
1152.50 360.8696
1152.60 361.2398
1152.70 361.6099
1152.80 361.98
1152.90 362.3501
1153.00 362.7202
1153.10 363.0904
1153.20 363.4605
1153.30 363.8306
1153.40 363.9087
1153.50 363.9139
1153.60 363.919
1153.70 363.9242
1153.80 363.9293
1153.90 363.9344
1154.00 363.9396
1154.10 363.9447
1154.20 363.9498
1154.30 363.955
1154.40 363.9601
1154.50 363.9653
1154.60 363.9704
1154.70 363.9755
1154.80 363.9807
1154.90 363.9858
1155.00 363.9909
1155.10 363.9961
1155.20 364.0012
1155.30 364.0064
1155.40 364.0115
1155.50 364.0166
1155.60 364.0218
1155.70 364.0269
1155.80 364.032
1155.90 364.0372
1156.00 364.0423
1156.10 364.0475
1156.20 364.0526
1156.30 364.0577
1156.40 364.0602
1156.50 364.0619
1156.60 364.0637
1156.70 364.0655
1156.80 364.0672
1156.90 364.069
1157.00 364.0707
1157.10 364.0725
1157.20 364.0743
1157.30 364.076
1157.40 364.0778
1157.50 364.0796
1157.60 364.1842
1157.70 364.3573
1157.80 364.5305
1157.90 364.7037
1158.00 364.8769
1158.10 365.05
1158.20 365.2232
1158.30 365.3964
1158.40 365.5695
1158.50 365.7427
1158.60 365.9159
1158.70 366.0891
1158.80 366.2622
1158.90 366.4354
1159.00 366.6086
1159.10 366.7818
1159.20 366.9549
1159.30 367.1281
1159.40 367.3013
1159.50 367.4745
1159.60 367.6476
1159.70 367.8208
1159.80 367.994
1159.90 368.1671
1160.00 368.3403
1160.10 368.5135
1160.20 368.6867
1160.30 368.8598
1160.40 369.033
1160.50 369.2062
1160.60 369.3494
1160.70 369.4626
1160.80 369.5758
1160.90 369.689
1161.00 369.8022
1161.10 369.9154
1161.20 370.0287
1161.30 370.1419
1161.40 370.2551
1161.50 370.3683
1161.60 370.4815
1161.70 370.5947
1161.80 370.6844
1161.90 370.6797
1162.00 370.675
1162.10 370.6703
1162.20 370.6656
1162.30 370.661
1162.40 370.6563
1162.50 370.6516
1162.60 370.6469
1162.70 370.6422
1162.80 370.6376
1162.90 370.6329
1163.00 370.6282
1163.10 370.6235
1163.20 370.6188
1163.30 370.6141
1163.40 370.6095
1163.50 370.6048
1163.60 370.6001
1163.70 370.5954
1163.80 370.5907
1163.90 370.5861
1164.00 370.5814
1164.10 370.5767
1164.20 370.572
1164.30 370.5673
1164.40 370.5627
1164.50 370.558
1164.60 370.5533
1164.70 370.5486
1164.80 370.5499
1164.90 370.6052
1165.00 370.6604
1165.10 370.7156
1165.20 370.7709
1165.30 370.8261
1165.40 370.8813
1165.50 370.9366
1165.60 370.9918
1165.70 371.047
1165.80 371.1023
1165.90 371.1575
1166.00 371.2127
1166.10 370.8157
1166.20 370.3684
1166.30 369.9212
1166.40 369.4739
1166.50 369.0266
1166.60 368.5794
1166.70 368.1321
1166.80 367.6848
1166.90 367.2375
1167.00 366.7903
1167.10 366.343
1167.20 365.8957
1167.30 365.4484
1167.40 365.0012
1167.50 364.5539
1167.60 364.1066
1167.70 363.6594
1167.80 363.2121
1167.90 362.7648
1168.00 362.3175
1168.10 361.8703
1168.20 361.423
1168.30 360.9757
1168.40 360.5284
1168.50 360.0812
1168.60 359.6339
1168.70 359.1866
1168.80 358.7394
1168.90 358.2921
1169.00 357.8448
1169.10 357.4305
1169.20 357.0303
1169.30 356.6302
1169.40 356.23
1169.50 355.8298
1169.60 355.4296
1169.70 355.0295
1169.80 354.6293
1169.90 354.2291
1170.00 353.8289
1170.10 353.4288
1170.20 353.0286
1170.30 352.6785
1170.40 352.4037
1170.50 352.1288
1170.60 351.8539
1170.70 351.579
1170.80 351.3041
1170.90 351.0292
1171.00 350.7543
1171.10 350.4795
1171.20 350.2046
1171.30 349.9297
1171.40 349.6548
1171.50 349.3799
1171.60 349.105
1171.70 348.8301
1171.80 348.5553
1171.90 348.2804
1172.00 348.0055
1172.10 347.7306
1172.20 347.4557
1172.30 347.1808
1172.40 346.906
1172.50 346.6311
1172.60 346.3562
1172.70 346.0813
1172.80 345.8064
1172.90 345.5315
1173.00 345.2566
1173.10 344.9818
1173.20 344.7069
1173.30 344.4301
1173.40 344.1459
1173.50 343.8617
1173.60 343.5775
1173.70 343.2933
1173.80 343.0091
1173.90 342.7249
1174.00 342.4407
1174.10 342.1565
1174.20 341.8723
1174.30 341.5882
1174.40 341.304
1174.50 341.0198
1174.60 340.9405
1174.70 340.8841
1174.80 340.8277
1174.90 340.7712
1175.00 340.7148
1175.10 340.6583
1175.20 340.6019
1175.30 340.5454
1175.40 340.489
1175.50 340.4326
1175.60 340.3761
1175.70 340.3197
1175.80 340.2632
1175.90 340.2068
1176.00 340.1503
1176.10 340.0939
1176.20 340.0375
1176.30 339.981
1176.40 339.9246
1176.50 339.8681
1176.60 339.8117
1176.70 339.7553
1176.80 339.6988
1176.90 339.6424
1177.00 339.5859
1177.10 339.5295
1177.20 339.473
1177.30 339.4166
1177.40 339.3602
1177.50 339.3037
1177.60 339.2888
1177.70 339.2916
1177.80 339.2945
1177.90 339.2974
1178.00 339.3002
1178.10 339.3031
1178.20 339.3059
1178.30 339.3088
1178.40 339.3116
1178.50 339.3145
1178.60 339.3173
1178.70 339.3202
1178.80 339.4407
1178.90 339.7376
1179.00 340.0345
1179.10 340.3315
1179.20 340.6284
1179.30 340.9253
1179.40 341.2223
1179.50 341.5192
1179.60 341.8161
1179.70 342.113
1179.80 342.41
1179.90 342.7069
1180.00 343.0038
1180.10 343.3008
1180.20 343.5977
1180.30 343.8946
1180.40 344.1916
1180.50 344.4885
1180.60 344.7854
1180.70 345.0823
1180.80 345.3793
1180.90 345.6762
1181.00 345.9731
1181.10 346.2701
1181.20 346.567
1181.30 346.8639
1181.40 347.1608
1181.50 347.4578
1181.60 347.7547
1181.70 348.0516
1181.80 348.3462
1181.90 348.6195
1182.00 348.8928
1182.10 349.1661
1182.20 349.4394
1182.30 349.7127
1182.40 349.986
1182.50 350.2593
1182.60 350.5327
1182.70 350.806
1182.80 351.0793
1182.90 351.3526
1183.00 351.6259
1183.10 351.6176
1183.20 351.5389
1183.30 351.4602
1183.40 351.3815
1183.50 351.3028
1183.60 351.2241
1183.70 351.1454
1183.80 351.0667
1183.90 350.988
1184.00 350.9093
1184.10 350.8306
1184.20 350.7519
1184.30 350.6732
1184.40 350.5945
1184.50 350.5158
1184.60 350.4371
1184.70 350.3584
1184.80 350.2797
1184.90 350.201
1185.00 350.1223
1185.10 350.0436
1185.20 349.9649
1185.30 349.8862
1185.40 349.8075
1185.50 349.7288
1185.60 349.6501
1185.70 349.5714
1185.80 349.4927
1185.90 349.414
1186.00 349.3353
1186.10 349.2442
1186.20 349.1407
1186.30 349.0372
1186.40 348.9336
1186.50 348.8301
1186.60 348.7266
1186.70 348.623
1186.80 348.5195
1186.90 348.416
1187.00 348.3124
1187.10 348.2089
1187.20 348.1054
1187.30 348.1146
1187.40 348.5748
1187.50 349.0349
1187.60 349.4951
1187.70 349.9553
1187.80 350.4154
1187.90 350.8756
1188.00 351.3358
1188.10 351.796
1188.20 352.2561
1188.30 352.7163
1188.40 353.1765
1188.50 353.6366
1188.60 354.0968
1188.70 354.557
1188.80 355.0171
1188.90 355.4773
1189.00 355.9375
1189.10 356.3976
1189.20 356.8578
1189.30 357.318
1189.40 357.7782
1189.50 358.2383
1189.60 358.6985
1189.70 359.1587
1189.80 359.6188
1189.90 360.079
1190.00 360.5392
1190.10 360.9993
1190.20 361.4595
1190.30 361.9197
1190.40 362.3552
1190.50 362.7879
1190.60 363.2207
1190.70 363.6534
1190.80 364.0862
1190.90 364.5189
1191.00 364.9517
1191.10 365.3845
1191.20 365.8172
1191.30 366.25
1191.40 366.6827
1191.50 367.1155
1191.60 367.3424
1191.70 367.3634
1191.80 367.3845
1191.90 367.4056
1192.00 367.4266
1192.10 367.4477
1192.20 367.4688
1192.30 367.4898
1192.40 367.5109
1192.50 367.532
1192.60 367.553
1192.70 367.5741
1192.80 367.5951
1192.90 367.6162
1193.00 367.6373
1193.10 367.6583
1193.20 367.6794
1193.30 367.7005
1193.40 367.7215
1193.50 367.7426
1193.60 367.7636
1193.70 367.7847
1193.80 367.8058
1193.90 367.8268
1194.00 367.8479
1194.10 367.869
1194.20 367.89
1194.30 367.9111
1194.40 367.9322
1194.50 367.9532
1194.60 367.976
1194.70 368.014
1194.80 368.052
1194.90 368.09
1195.00 368.128
1195.10 368.166
1195.20 368.204
1195.30 368.2421
1195.40 368.2801
1195.50 368.3181
1195.60 368.3561
1195.70 368.3941
1195.80 368.4321
1195.90 368.4528
1196.00 368.4692
1196.10 368.4856
1196.20 368.5019
1196.30 368.5183
1196.40 368.5347
1196.50 368.5511
1196.60 368.5675
1196.70 368.5838
1196.80 368.6002
1196.90 368.6166
1197.00 368.633
1197.10 368.6494
1197.20 368.6657
1197.30 368.6821
1197.40 368.6985
1197.50 368.7149
1197.60 368.7312
1197.70 368.7476
1197.80 368.764
1197.90 368.7804
1198.00 368.7968
1198.10 368.8131
1198.20 368.8295
1198.30 368.8459
1198.40 368.8623
1198.50 368.8787
1198.60 368.895
1198.70 368.9114
1198.80 368.9278
1198.90 368.9297
1199.00 368.91
1199.10 368.8903
1199.20 368.8706
1199.30 368.8509
1199.40 368.8312
1199.50 368.8115
1199.60 368.7918
1199.70 368.7721
1199.80 368.7524
1199.90 368.7327
1200.00 368.713
1200.10 368.6933
1200.20 368.3869
1200.30 368.0805
1200.40 367.7741
1200.50 367.4677
1200.60 367.1613
1200.70 366.8549
1200.80 366.5484
1200.90 366.242
1201.00 365.9356
1201.10 365.6292
1201.20 365.3228
1201.30 365.0164
1201.40 364.71
1201.50 364.4036
1201.60 364.0972
1201.70 363.7908
1201.80 363.4843
1201.90 363.1779
1202.00 362.8715
1202.10 362.5651
1202.20 362.2587
1202.30 361.9523
1202.40 361.6459
1202.50 361.3395
1202.60 361.0331
1202.70 360.7266
1202.80 360.4202
1202.90 360.1138
1203.00 359.8074
1203.10 359.501
1203.20 359.2641
1203.30 359.0735
1203.40 358.883
1203.50 358.6924
1203.60 358.5018
1203.70 358.3112
1203.80 358.1207
1203.90 357.9301
1204.00 357.7395
1204.10 357.5489
1204.20 357.3584
1204.30 357.1678
1204.40 357.075
1204.50 357.3735
1204.60 357.672
1204.70 357.9705
1204.80 358.269
1204.90 358.5676
1205.00 358.8661
1205.10 359.1646
1205.20 359.4631
1205.30 359.7616
1205.40 360.0601
1205.50 360.3586
1205.60 360.6571
1205.70 360.9556
1205.80 361.2541
1205.90 361.5526
1206.00 361.8511
1206.10 362.1496
1206.20 362.4481
1206.30 362.7466
1206.40 363.0451
1206.50 363.3436
1206.60 363.6421
1206.70 363.9406
1206.80 364.2391
1206.90 364.5376
1207.00 364.8361
1207.10 365.1346
1207.20 365.4332
1207.30 365.7317
1207.40 366.0302
1207.50 366.2878
1207.60 366.5352
1207.70 366.7826
1207.80 367.0299
1207.90 367.2773
1208.00 367.5247
1208.10 367.7721
1208.20 368.0195
1208.30 368.2669
1208.40 368.5143
1208.50 368.7617
1208.60 369.0091
1208.70 369.3799
1208.80 369.936
1208.90 370.4921
1209.00 371.0482
1209.10 371.6042
1209.20 372.1603
1209.30 372.7164
1209.40 373.2725
1209.50 373.8286
1209.60 374.3847
1209.70 374.9407
1209.80 375.4968
1209.90 376.0529
1210.00 376.609
1210.10 377.1651
1210.20 377.7212
1210.30 378.2772
1210.40 378.8333
1210.50 379.3894
1210.60 379.9455
1210.70 380.5016
1210.80 381.0576
1210.90 381.6137
1211.00 382.1698
1211.10 382.7259
1211.20 383.282
1211.30 383.8381
1211.40 384.3941
1211.50 384.9502
1211.60 385.5063
1211.70 386.0624
1211.80 386.653
1211.90 387.2473
1212.00 387.8417
1212.10 388.4361
1212.20 389.0305
1212.30 389.6249
1212.40 390.2193
1212.50 390.8137
1212.60 391.4081
1212.70 392.0025
1212.80 392.5969
1212.90 393.1913
1213.00 393.5675
1213.10 393.7254
1213.20 393.8833
1213.30 394.0413
1213.40 394.1992
1213.50 394.3571
1213.60 394.5151
1213.70 394.673
1213.80 394.831
1213.90 394.9889
1214.00 395.1468
1214.10 395.3048
1214.20 395.4627
1214.30 395.6206
1214.40 395.7786
1214.50 395.9365
1214.60 396.0944
1214.70 396.2524
1214.80 396.4103
1214.90 396.5682
1215.00 396.7262
1215.10 396.8841
1215.20 397.042
1215.30 397.2
1215.40 397.3579
1215.50 397.5159
1215.60 397.6738
1215.70 397.8317
1215.80 397.9897
1215.90 398.1476
1216.00 398.3055
1216.10 398.3632
1216.20 398.4209
1216.30 398.4786
1216.40 398.5363
1216.50 398.5939
1216.60 398.6516
1216.70 398.7093
1216.80 398.767
1216.90 398.8247
1217.00 398.8824
1217.10 398.94
1217.20 398.9977
1217.30 399.0726
1217.40 399.1589
1217.50 399.2452
1217.60 399.3315
1217.70 399.4179
1217.80 399.5042
1217.90 399.5905
1218.00 399.6768
1218.10 399.7631
1218.20 399.8495
1218.30 399.9358
1218.40 400.0221
1218.50 400.1084
1218.60 400.1947
1218.70 400.281
1218.80 400.3674
1218.90 400.4537
1219.00 400.54
1219.10 400.6263
1219.20 400.7126
1219.30 400.799
1219.40 400.8853
1219.50 400.9716
1219.60 401.0579
1219.70 401.1442
1219.80 401.2306
1219.90 401.3169
1220.00 401.4032
1220.10 401.4895
1220.20 401.5758
1220.30 401.6686
1220.40 401.8192
1220.50 401.9698
1220.60 402.1204
1220.70 402.271
1220.80 402.4216
1220.90 402.5722
1221.00 402.7229
1221.10 402.8735
1221.20 403.0241
1221.30 403.1747
1221.40 403.3253
1221.50 403.4759
1221.60 403.7486
1221.70 404.0735
1221.80 404.3985
1221.90 404.7234
1222.00 405.0484
1222.10 405.3733
1222.20 405.6982
1222.30 406.0232
1222.40 406.3481
1222.50 406.6731
1222.60 406.998
1222.70 407.323
1222.80 407.6479
1222.90 407.9729
1223.00 408.2978
1223.10 408.6228
1223.20 408.9477
1223.30 409.2727
1223.40 409.5976
1223.50 409.9225
1223.60 410.2475
1223.70 410.5724
1223.80 410.8974
1223.90 411.2223
1224.00 411.5473
1224.10 411.8722
1224.20 412.1972
1224.30 412.5221
1224.40 412.8471
1224.50 413.172
1224.60 413.4872
1224.70 413.7632
1224.80 414.0392
1224.90 414.3152
1225.00 414.5912
1225.10 414.8673
1225.20 415.1433
1225.30 415.4193
1225.40 415.6953
1225.50 415.9713
1225.60 416.2474
1225.70 416.5234
1225.80 416.7994
1225.90 416.8361
1226.00 416.7702
1226.10 416.7043
1226.20 416.6384
1226.30 416.5726
1226.40 416.5067
1226.50 416.4408
1226.60 416.3749
1226.70 416.309
1226.80 416.2432
1226.90 416.1773
1227.00 416.1114
1227.10 416.0455
1227.20 415.9796
1227.30 415.9138
1227.40 415.8479
1227.50 415.782
1227.60 415.7161
1227.70 415.6502
1227.80 415.5844
1227.90 415.5185
1228.00 415.4526
1228.10 415.3867
1228.20 415.3208
1228.30 415.255
1228.40 415.1891
1228.50 415.1232
1228.60 415.0573
1228.70 414.9914
1228.80 414.9256
1228.90 414.8556
1229.00 414.7691
1229.10 414.6826
1229.20 414.5961
1229.30 414.5096
1229.40 414.4232
1229.50 414.3367
1229.60 414.2502
1229.70 414.1637
1229.80 414.0773
1229.90 413.9908
1230.00 413.9043
1230.10 413.8178
1230.20 414.0088
1230.30 414.2692
1230.40 414.5295
1230.50 414.7899
1230.60 415.0502
1230.70 415.3105
1230.80 415.5709
1230.90 415.8312
1231.00 416.0916
1231.10 416.3519
1231.20 416.6123
1231.30 416.8726
1231.40 417.133
1231.50 417.3933
1231.60 417.6536
1231.70 417.914
1231.80 418.1743
1231.90 418.4347
1232.00 418.695
1232.10 418.9554
1232.20 419.2157
1232.30 419.4761
1232.40 419.7364
1232.50 419.9968
1232.60 420.2571
1232.70 420.5174
1232.80 420.7778
1232.90 421.0381
1233.00 421.2985
1233.10 421.5588
1233.20 421.816
1233.30 422.0605
1233.40 422.3051
1233.50 422.5496
1233.60 422.7941
1233.70 423.0386
1233.80 423.2832
1233.90 423.5277
1234.00 423.7722
1234.10 424.0168
1234.20 424.2613
1234.30 424.5058
1234.40 424.7503
1234.50 424.8362
1234.60 424.854
1234.70 424.8717
1234.80 424.8895
1234.90 424.9073
1235.00 424.9251
1235.10 424.9429
1235.20 424.9607
1235.30 424.9785
1235.40 424.9963
1235.50 425.0141
1235.60 425.0319
1235.70 425.0497
1235.80 425.0675
1235.90 425.0853
1236.00 425.1031
1236.10 425.1209
1236.20 425.1387
1236.30 425.1565
1236.40 425.1743
1236.50 425.1921
1236.60 425.2099
1236.70 425.2277
1236.80 425.2455
1236.90 425.2633
1237.00 425.281
1237.10 425.2988
1237.20 425.3166
1237.30 425.3344
1237.40 425.3522
1237.50 425.3707
1237.60 425.3916
1237.70 425.4126
1237.80 425.4336
1237.90 425.4545
1238.00 425.4755
1238.10 425.4965
1238.20 425.5175
1238.30 425.5384
1238.40 425.5594
1238.50 425.5804
1238.60 425.6014
1238.70 425.6223
1238.80 425.4042
1238.90 425.0837
1239.00 424.7631
1239.10 424.4425
1239.20 424.122
1239.30 423.8014
1239.40 423.4808
1239.50 423.1603
1239.60 422.8397
1239.70 422.5191
1239.80 422.1986
1239.90 421.878
1240.00 421.5574
1240.10 421.2369
1240.20 420.9163
1240.30 420.5957
1240.40 420.2752
1240.50 419.9546
1240.60 419.634
1240.70 419.3135
1240.80 418.9929
1240.90 418.6723
1241.00 418.3518
1241.10 418.0312
1241.20 417.7107
1241.30 417.3901
1241.40 417.0695
1241.50 416.749
1241.60 416.4284
1241.70 416.1078
1241.80 415.7921
1241.90 415.52
1242.00 415.2478
1242.10 414.9757
1242.20 414.7036
1242.30 414.4314
1242.40 414.1593
1242.50 413.8872
1242.60 413.6151
1242.70 413.3429
1242.80 413.0708
1242.90 412.7987
1243.00 412.5265
1243.10 412.4462
1243.20 412.4481
1243.30 412.4501
1243.40 412.452
1243.50 412.4539
1243.60 412.4558
1243.70 412.4577
1243.80 412.4596
1243.90 412.4616
1244.00 412.4635
1244.10 412.4654
1244.20 412.4673
1244.30 412.4692
1244.40 412.4711
1244.50 412.4731
1244.60 412.475
1244.70 412.4769
1244.80 412.4788
1244.90 412.4807
1245.00 412.4826
1245.10 412.4846
1245.20 412.4865
1245.30 412.4884
1245.40 412.4903
1245.50 412.4922
1245.60 412.4941
1245.70 412.4961
1245.80 412.498
1245.90 412.4999
1246.00 412.5018
1246.10 412.5037
1246.20 412.5806
1246.30 412.6575
1246.40 412.7344
1246.50 412.8113
1246.60 412.8882
1246.70 412.9651
1246.80 413.042
1246.90 413.1189
1247.00 413.1958
1247.10 413.2726
1247.20 413.3495
1247.30 413.4264
1247.40 413.3995
1247.50 413.3032
1247.60 413.207
1247.70 413.1108
1247.80 413.0146
1247.90 412.9184
1248.00 412.8222
1248.10 412.726
1248.20 412.6298
1248.30 412.5336
1248.40 412.4373
1248.50 412.3411
1248.60 412.2449
1248.70 412.1487
1248.80 412.0525
1248.90 411.9563
1249.00 411.8601
1249.10 411.7639
1249.20 411.6676
1249.30 411.5714
1249.40 411.4752
1249.50 411.379
1249.60 411.2828
1249.70 411.1866
1249.80 411.0904
1249.90 410.9942
1250.00 410.898
1250.10 410.8017
1250.20 410.7055
1250.30 410.6093
1250.40 410.5131
1250.50 410.3938
1250.60 410.2744
1250.70 410.155
1250.80 410.0357
1250.90 409.9163
1251.00 409.797
1251.10 409.6776
1251.20 409.5583
1251.30 409.4389
1251.40 409.3195
1251.50 409.2002
1251.60 409.0808
1251.70 409.1292
1251.80 409.3451
1251.90 409.5611
1252.00 409.7771
1252.10 409.9931
1252.20 410.2091
1252.30 410.4251
1252.40 410.6411
1252.50 410.8571
1252.60 411.0731
1252.70 411.2891
1252.80 411.5051
1252.90 411.7211
1253.00 411.9371
1253.10 412.1531
1253.20 412.369
1253.30 412.585
1253.40 412.801
1253.50 413.017
1253.60 413.233
1253.70 413.449
1253.80 413.665
1253.90 413.881
1254.00 414.097
1254.10 414.313
1254.20 414.529
1254.30 414.745
1254.40 414.961
1254.50 415.177
1254.60 415.3929
1254.70 415.6089
1254.80 415.7891
1254.90 415.9653
1255.00 416.1415
1255.10 416.3177
1255.20 416.4939
1255.30 416.6701
1255.40 416.8464
1255.50 417.0226
1255.60 417.1988
1255.70 417.375
1255.80 417.5512
1255.90 417.7274
1256.00 417.8348
1256.10 417.8392
1256.20 417.8436
1256.30 417.8479
1256.40 417.8523
1256.50 417.8566
1256.60 417.861
1256.70 417.8654
1256.80 417.8697
1256.90 417.8741
1257.00 417.8784
1257.10 417.8828
1257.20 417.8872
1257.30 417.8915
1257.40 417.8959
1257.50 417.9002
1257.60 417.9046
1257.70 417.909
1257.80 417.9133
1257.90 417.9177
1258.00 417.922
1258.10 417.9264
1258.20 417.9308
1258.30 417.9351
1258.40 417.9395
1258.50 417.9438
1258.60 417.9482
1258.70 417.9526
1258.80 417.9569
1258.90 417.9613
1259.00 417.9656
1259.10 418.0557
1259.20 418.1826
1259.30 418.3095
1259.40 418.4364
1259.50 418.5632
1259.60 418.6901
1259.70 418.817
1259.80 418.9438
1259.90 419.0707
1260.00 419.1976
1260.10 419.3244
1260.20 419.4513
1260.30 419.6905
1260.40 420.3787
1260.50 421.067
1260.60 421.7553
1260.70 422.4436
1260.80 423.1319
1260.90 423.8201
1261.00 424.5084
1261.10 425.1967
1261.20 425.885
1261.30 426.5733
1261.40 427.2615
1261.50 427.9498
1261.60 428.6381
1261.70 429.3264
1261.80 430.0146
1261.90 430.7029
1262.00 431.3912
1262.10 432.0795
1262.20 432.7678
1262.30 433.456
1262.40 434.1443
1262.50 434.8326
1262.60 435.5209
1262.70 436.2092
1262.80 436.8974
1262.90 437.5857
1263.00 438.274
1263.10 438.9623
1263.20 439.6506
1263.30 440.3388
1263.40 440.9497
1263.50 441.5091
1263.60 442.0684
1263.70 442.6278
1263.80 443.1871
1263.90 443.7464
1264.00 444.3058
1264.10 444.8651
1264.20 445.4244
1264.30 445.9838
1264.40 446.5431
1264.50 447.1025
1264.60 447.6472
1264.70 448.0606
1264.80 448.474
1264.90 448.8874
1265.00 449.3008
1265.10 449.7143
1265.20 450.1277
1265.30 450.5411
1265.40 450.9545
1265.50 451.3679
1265.60 451.7813
1265.70 452.1947
1265.80 452.6081
1265.90 453.0215
1266.00 453.4349
1266.10 453.8484
1266.20 454.2618
1266.30 454.6752
1266.40 455.0886
1266.50 455.502
1266.60 455.9154
1266.70 456.3288
1266.80 456.7422
1266.90 457.1556
1267.00 457.569
1267.10 457.9824
1267.20 458.3959
1267.30 458.8093
1267.40 459.2227
1267.50 459.6361
1267.60 460.0495
1267.70 460.4788
1267.80 460.9318
1267.90 461.3848
1268.00 461.8378
1268.10 462.2908
1268.20 462.7438
1268.30 463.1969
1268.40 463.6499
1268.50 464.1029
1268.60 464.5559
1268.70 465.0089
1268.80 465.4619
1268.90 465.9149
1269.00 466.3234
1269.10 466.7319
1269.20 467.1404
1269.30 467.5488
1269.40 467.9573
1269.50 468.3658
1269.60 468.7742
1269.70 469.1827
1269.80 469.5912
1269.90 469.9996
1270.00 470.4081
1270.10 470.8166
1270.20 471.225
1270.30 471.6335
1270.40 472.042
1270.50 472.4504
1270.60 472.8589
1270.70 473.2674
1270.80 473.6758
1270.90 474.0843
1271.00 474.4928
1271.10 474.9012
1271.20 475.3097
1271.30 475.7182
1271.40 476.1267
1271.50 476.5351
1271.60 476.9436
1271.70 477.3521
1271.80 477.7605
1271.90 478.169
1272.00 478.5279
1272.10 478.7714
1272.20 479.0148
1272.30 479.2582
1272.40 479.5016
1272.50 479.7451
1272.60 479.9885
1272.70 480.2319
1272.80 480.4753
1272.90 480.7187
1273.00 480.9622
1273.10 481.2056
1273.20 481.449
1273.30 481.6189
1273.40 481.7704
1273.50 481.9219
1273.60 482.0733
1273.70 482.2248
1273.80 482.3763
1273.90 482.5278
1274.00 482.6793
1274.10 482.8308
1274.20 482.9823
1274.30 483.1338
1274.40 483.2853
1274.50 483.4368
1274.60 483.5883
1274.70 483.7398
1274.80 483.8912
1274.90 484.0427
1275.00 484.1942
1275.10 484.3457
1275.20 484.4972
1275.30 484.6487
1275.40 484.8002
1275.50 484.9517
1275.60 485.1032
1275.70 485.2547
1275.80 485.4062
1275.90 485.5577
1276.00 485.7091
1276.10 485.8606
1276.20 486.0121
1276.30 486.179
1276.40 486.4847
1276.50 486.7904
1276.60 487.0961
1276.70 487.4017
1276.80 487.7074
1276.90 488.0131
1277.00 488.3188
1277.10 488.6244
1277.20 488.9301
1277.30 489.2358
1277.40 489.5415
1277.50 489.8471
1277.60 490.0624
1277.70 490.2173
1277.80 490.3722
1277.90 490.5271
1278.00 490.682
1278.10 490.837
1278.20 490.9919
1278.30 491.1468
1278.40 491.3017
1278.50 491.4566
1278.60 491.6116
1278.70 491.7665
1278.80 491.9214
1278.90 492.0763
1279.00 492.2312
1279.10 492.3861
1279.20 492.5411
1279.30 492.696
1279.40 492.8509
1279.50 493.0058
1279.60 493.1607
1279.70 493.3157
1279.80 493.4706
1279.90 493.6255
1280.00 493.7804
1280.10 493.9353
1280.20 494.0902
1280.30 494.2452
1280.40 494.4001
1280.50 494.555
1280.60 494.7099
1280.70 494.8055
1280.80 494.9012
1280.90 494.9968
1281.00 495.0924
1281.10 495.188
1281.20 495.2837
1281.30 495.3793
1281.40 495.4749
1281.50 495.5705
1281.60 495.6661
1281.70 495.7618
1281.80 495.8574
1281.90 495.8092
1282.00 495.6172
1282.10 495.4252
1282.20 495.2332
1282.30 495.0413
1282.40 494.8493
1282.50 494.6573
1282.60 494.4653
1282.70 494.2733
1282.80 494.0813
1282.90 493.8893
1283.00 493.6973
1283.10 493.5054
1283.20 493.3134
1283.30 493.1214
1283.40 492.9294
1283.50 492.7374
1283.60 492.5454
1283.70 492.3534
1283.80 492.1614
1283.90 491.9695
1284.00 491.7775
1284.10 491.5855
1284.20 491.3935
1284.30 491.2015
1284.40 491.0095
1284.50 490.8175
1284.60 490.6255
1284.70 490.4336
1284.80 490.2416
1284.90 490.0496
1285.00 489.882
1285.10 489.7204
1285.20 489.5589
1285.30 489.3974
1285.40 489.2359
1285.50 489.0744
1285.60 488.9128
1285.70 488.7513
1285.80 488.5898
1285.90 488.4283
1286.00 488.2667
1286.10 488.1052
1286.20 488.0501
1286.30 488.2433
1286.40 488.4364
1286.50 488.6296
1286.60 488.8227
1286.70 489.0159
1286.80 489.2091
1286.90 489.4022
1287.00 489.5954
1287.10 489.7885
1287.20 489.9817
1287.30 490.1748
1287.40 490.368
1287.50 490.5612
1287.60 490.7543
1287.70 490.9475
1287.80 491.1406
1287.90 491.3338
1288.00 491.527
1288.10 491.7201
1288.20 491.9133
1288.30 492.1064
1288.40 492.2996
1288.50 492.4927
1288.60 492.6859
1288.70 492.8791
1288.80 493.0722
1288.90 493.2654
1289.00 493.4585
1289.10 493.6517
1289.20 493.8449
1289.30 494.0159
1289.40 494.1721
1289.50 494.3284
1289.60 494.4847
1289.70 494.6409
1289.80 494.7972
1289.90 494.9535
1290.00 495.1097
1290.10 495.266
1290.20 495.4223
1290.30 495.5785
1290.40 495.7348
1290.50 495.8571
1290.60 495.6731
1290.70 495.4891
1290.80 495.3051
1290.90 495.1211
1291.00 494.9371
1291.10 494.7531
1291.20 494.5691
1291.30 494.3851
1291.40 494.2011
1291.50 494.0172
1291.60 493.8332
1291.70 493.6492
1291.80 493.4652
1291.90 493.2812
1292.00 493.0972
1292.10 492.9132
1292.20 492.7292
1292.30 492.5452
1292.40 492.3612
1292.50 492.1773
1292.60 491.9933
1292.70 491.8093
1292.80 491.6253
1292.90 491.4413
1293.00 491.2573
1293.10 491.0733
1293.20 490.8893
1293.30 490.7053
1293.40 490.5214
1293.50 490.3374
1293.60 490.1544
1293.70 489.973
1293.80 489.7916
1293.90 489.6102
1294.00 489.4288
1294.10 489.2474
1294.20 489.066
1294.30 488.8846
1294.40 488.7032
1294.50 488.5218
1294.60 488.3404
1294.70 488.159
1294.80 487.9776
1294.90 488.0307
1295.00 488.1098
1295.10 488.1889
1295.20 488.268
1295.30 488.3471
1295.40 488.4262
1295.50 488.5053
1295.60 488.5844
1295.70 488.6635
1295.80 488.7426
1295.90 488.8217
1296.00 488.9008
1296.10 488.9798
1296.20 489.0589
1296.30 489.138
1296.40 489.2171
1296.50 489.2962
1296.60 489.3753
1296.70 489.4544
1296.80 489.5335
1296.90 489.6126
1297.00 489.6917
1297.10 489.7708
1297.20 489.8499
1297.30 489.929
1297.40 490.0081
1297.50 490.0872
1297.60 490.1663
1297.70 490.2454
1297.80 490.3245
1297.90 490.4011
1298.00 490.4679
1298.10 490.5347
1298.20 490.6015
1298.30 490.6683
1298.40 490.7351
1298.50 490.8019
1298.60 490.8686
1298.70 490.9354
1298.80 491.0022
1298.90 491.069
1299.00 491.1358
1299.10 491.2026
1299.20 491.0093
1299.30 490.7045
1299.40 490.3997
1299.50 490.0949
1299.60 489.7901
1299.70 489.4853
1299.80 489.1805
1299.90 488.8757
