# Version 2.1 - nm, norm@500 to 1, cut digits
# Wavelength(nm)  Flambda(ergs/cm^s/s/nm)
300.00 9.709426e-96
300.10 9.709426e-96
300.20 9.709426e-96
300.30 9.709426e-96
300.40 9.709426e-96
300.50 9.709426e-96
300.60 9.709426e-96
300.70 9.709426e-96
300.80 9.709426e-96
300.90 9.709426e-96
301.00 9.709426e-96
301.10 9.709426e-96
301.20 9.709426e-96
301.30 9.709426e-96
301.40 9.709426e-96
301.50 9.709426e-96
301.60 9.709426e-96
301.70 9.709426e-96
301.80 9.709426e-96
301.90 9.709426e-96
302.00 9.709426e-96
302.10 9.709426e-96
302.20 9.709426e-96
302.30 9.709426e-96
302.40 9.709426e-96
302.50 9.709426e-96
302.60 9.709426e-96
302.70 9.709426e-96
302.80 9.709426e-96
302.90 9.709426e-96
303.00 9.709426e-96
303.10 9.709426e-96
303.20 9.709426e-96
303.30 9.709426e-96
303.40 9.709426e-96
303.50 9.709426e-96
303.60 9.709426e-96
303.70 9.709426e-96
303.80 9.709426e-96
303.90 9.709426e-96
304.00 9.709426e-96
304.10 9.709426e-96
304.20 9.709426e-96
304.30 9.709426e-96
304.40 9.709426e-96
304.50 9.709426e-96
304.60 9.709426e-96
304.70 9.709426e-96
304.80 9.709426e-96
304.90 9.709426e-96
305.00 9.709426e-96
305.10 9.709426e-96
305.20 9.709426e-96
305.30 9.709426e-96
305.40 9.709426e-96
305.50 9.709426e-96
305.60 9.709426e-96
305.70 9.709426e-96
305.80 9.709426e-96
305.90 9.709426e-96
306.00 9.709426e-96
306.10 9.709426e-96
306.20 9.709426e-96
306.30 9.709426e-96
306.40 9.709426e-96
306.50 9.709426e-96
306.60 9.709426e-96
306.70 9.709426e-96
306.80 9.709426e-96
306.90 9.709426e-96
307.00 9.709426e-96
307.10 9.709426e-96
307.20 9.709426e-96
307.30 9.709426e-96
307.40 9.709426e-96
307.50 9.709426e-96
307.60 9.709426e-96
307.70 9.709426e-96
307.80 9.709426e-96
307.90 9.709426e-96
308.00 9.709426e-96
308.10 9.709426e-96
308.20 9.709426e-96
308.30 9.709426e-96
308.40 9.709426e-96
308.50 9.709426e-96
308.60 9.709426e-96
308.70 9.709426e-96
308.80 9.709426e-96
308.90 9.709426e-96
309.00 9.709426e-96
309.10 9.709426e-96
309.20 9.709426e-96
309.30 9.709426e-96
309.40 9.709426e-96
309.50 9.709426e-96
309.60 9.709426e-96
309.70 9.709426e-96
309.80 9.709426e-96
309.90 9.709426e-96
310.00 9.709426e-96
310.10 9.709426e-96
310.20 9.709426e-96
310.30 9.709426e-96
310.40 9.709426e-96
310.50 9.709426e-96
310.60 9.709426e-96
310.70 9.709426e-96
310.80 9.709426e-96
310.90 9.709426e-96
311.00 9.709426e-96
311.10 9.709426e-96
311.20 9.709426e-96
311.30 9.709426e-96
311.40 9.709426e-96
311.50 9.709426e-96
311.60 9.709426e-96
311.70 9.709426e-96
311.80 9.709426e-96
311.90 9.709426e-96
312.00 9.709426e-96
312.10 9.709426e-96
312.20 9.709426e-96
312.30 9.709426e-96
312.40 9.709426e-96
312.50 9.709426e-96
312.60 9.709426e-96
312.70 9.709426e-96
312.80 9.709426e-96
312.90 9.709426e-96
313.00 9.709426e-96
313.10 9.709426e-96
313.20 9.709426e-96
313.30 9.709426e-96
313.40 9.709426e-96
313.50 9.709426e-96
313.60 9.709426e-96
313.70 9.709426e-96
313.80 9.709426e-96
313.90 9.709426e-96
314.00 9.709426e-96
314.10 9.709426e-96
314.20 9.709426e-96
314.30 9.709426e-96
314.40 9.709426e-96
314.50 9.709426e-96
314.60 9.709426e-96
314.70 9.709426e-96
314.80 9.709426e-96
314.90 9.709426e-96
315.00 9.709426e-96
315.10 9.709426e-96
315.20 9.709426e-96
315.30 9.709426e-96
315.40 9.709426e-96
315.50 9.709426e-96
315.60 9.709426e-96
315.70 9.709426e-96
315.80 9.709426e-96
315.90 9.709426e-96
316.00 9.709426e-96
316.10 9.709426e-96
316.20 9.709426e-96
316.30 9.709426e-96
316.40 9.709426e-96
316.50 9.709426e-96
316.60 9.709426e-96
316.70 9.709426e-96
316.80 9.709426e-96
316.90 9.709426e-96
317.00 9.709426e-96
317.10 9.709426e-96
317.20 9.709426e-96
317.30 9.709426e-96
317.40 9.709426e-96
317.50 9.709426e-96
317.60 9.709426e-96
317.70 9.709426e-96
317.80 9.709426e-96
317.90 9.709426e-96
318.00 9.709426e-96
318.10 9.709426e-96
318.20 9.709426e-96
318.30 9.709426e-96
318.40 9.709426e-96
318.50 9.709426e-96
318.60 9.709426e-96
318.70 9.709426e-96
318.80 9.709426e-96
318.90 9.709426e-96
319.00 9.709426e-96
319.10 9.709426e-96
319.20 9.709426e-96
319.30 9.709426e-96
319.40 9.709426e-96
319.50 9.709426e-96
319.60 9.709426e-96
319.70 9.709426e-96
319.80 9.709426e-96
319.90 9.709426e-96
320.00 9.709426e-96
320.10 9.709426e-96
320.20 9.709426e-96
320.30 9.709426e-96
320.40 9.709426e-96
320.50 9.709426e-96
320.60 9.709426e-96
320.70 9.709426e-96
320.80 9.709426e-96
320.90 9.709426e-96
321.00 9.709426e-96
321.10 9.709426e-96
321.20 9.709426e-96
321.30 9.709426e-96
321.40 9.709426e-96
321.50 9.709426e-96
321.60 9.709426e-96
321.70 9.709426e-96
321.80 9.709426e-96
321.90 9.709426e-96
322.00 9.709426e-96
322.10 9.709426e-96
322.20 9.709426e-96
322.30 9.709426e-96
322.40 9.709426e-96
322.50 9.709426e-96
322.60 9.709426e-96
322.70 9.709426e-96
322.80 9.709426e-96
322.90 9.709426e-96
323.00 9.709426e-96
323.10 9.709426e-96
323.20 9.709426e-96
323.30 9.709426e-96
323.40 9.709426e-96
323.50 9.709426e-96
323.60 9.709426e-96
323.70 9.709426e-96
323.80 9.709426e-96
323.90 9.709426e-96
324.00 9.709426e-96
324.10 9.709426e-96
324.20 9.709426e-96
324.30 9.709426e-96
324.40 9.709426e-96
324.50 9.709426e-96
324.60 9.709426e-96
324.70 9.709426e-96
324.80 9.709426e-96
324.90 9.709426e-96
325.00 9.709426e-96
325.10 9.709426e-96
325.20 9.709426e-96
325.30 9.709426e-96
325.40 9.709426e-96
325.50 9.709426e-96
325.60 9.709426e-96
325.70 9.709426e-96
325.80 9.709426e-96
325.90 9.709426e-96
326.00 9.709426e-96
326.10 9.709426e-96
326.20 9.709426e-96
326.30 9.709426e-96
326.40 9.709426e-96
326.50 9.709426e-96
326.60 9.709426e-96
326.70 9.709426e-96
326.80 9.709426e-96
326.90 9.709426e-96
327.00 9.709426e-96
327.10 9.709426e-96
327.20 9.709426e-96
327.30 9.709426e-96
327.40 9.709426e-96
327.50 9.709426e-96
327.60 9.709426e-96
327.70 9.709426e-96
327.80 9.709426e-96
327.90 9.709426e-96
328.00 9.709426e-96
328.10 9.709426e-96
328.20 9.709426e-96
328.30 9.709426e-96
328.40 9.709426e-96
328.50 9.709426e-96
328.60 9.709426e-96
328.70 9.709426e-96
328.80 9.709426e-96
328.90 9.709426e-96
329.00 9.709426e-96
329.10 9.709426e-96
329.20 9.709426e-96
329.30 9.709426e-96
329.40 9.709426e-96
329.50 9.709426e-96
329.60 9.709426e-96
329.70 9.709426e-96
329.80 9.709426e-96
329.90 9.709426e-96
330.00 9.709426e-96
330.10 9.709426e-96
330.20 9.709426e-96
330.30 9.709426e-96
330.40 9.709426e-96
330.50 9.709426e-96
330.60 9.709426e-96
330.70 9.709426e-96
330.80 9.709426e-96
330.90 9.709426e-96
331.00 9.709426e-96
331.10 9.709426e-96
331.20 9.709426e-96
331.30 9.709426e-96
331.40 9.709426e-96
331.50 9.709426e-96
331.60 9.709426e-96
331.70 9.709426e-96
331.80 9.709426e-96
331.90 9.709426e-96
332.00 9.709426e-96
332.10 9.709426e-96
332.20 9.709426e-96
332.30 9.709426e-96
332.40 9.709426e-96
332.50 9.709426e-96
332.60 9.709426e-96
332.70 9.709426e-96
332.80 9.709426e-96
332.90 9.709426e-96
333.00 9.709426e-96
333.10 9.709426e-96
333.20 9.709426e-96
333.30 9.709426e-96
333.40 9.709426e-96
333.50 9.709426e-96
333.60 9.709426e-96
333.70 9.709426e-96
333.80 9.709426e-96
333.90 9.709426e-96
334.00 9.709426e-96
334.10 9.709426e-96
334.20 9.709426e-96
334.30 9.709426e-96
334.40 9.709426e-96
334.50 9.709426e-96
334.60 9.709426e-96
334.70 9.709426e-96
334.80 9.709426e-96
334.90 9.709426e-96
335.00 9.709426e-96
335.10 9.709426e-96
335.20 9.709426e-96
335.30 9.709426e-96
335.40 9.709426e-96
335.50 9.709426e-96
335.60 9.709426e-96
335.70 9.709426e-96
335.80 9.709426e-96
335.90 9.709426e-96
336.00 9.709426e-96
336.10 9.709426e-96
336.20 9.709426e-96
336.30 9.709426e-96
336.40 9.709426e-96
336.50 9.709426e-96
336.60 9.709426e-96
336.70 9.709426e-96
336.80 9.709426e-96
336.90 9.709426e-96
337.00 9.709426e-96
337.10 9.709426e-96
337.20 9.709426e-96
337.30 9.709426e-96
337.40 9.709426e-96
337.50 9.709426e-96
337.60 9.709426e-96
337.70 9.709426e-96
337.80 9.709426e-96
337.90 9.709426e-96
338.00 9.709426e-96
338.10 9.709426e-96
338.20 9.709426e-96
338.30 9.709426e-96
338.40 9.709426e-96
338.50 9.709426e-96
338.60 9.709426e-96
338.70 9.709426e-96
338.80 9.709426e-96
338.90 9.709426e-96
339.00 9.709426e-96
339.10 9.709426e-96
339.20 9.709426e-96
339.30 9.709426e-96
339.40 9.709426e-96
339.50 9.709426e-96
339.60 9.709426e-96
339.70 9.709426e-96
339.80 9.709426e-96
339.90 9.709426e-96
340.00 9.709426e-96
340.10 9.709426e-96
340.20 9.709426e-96
340.30 9.709426e-96
340.40 9.709426e-96
340.50 9.709426e-96
340.60 9.709426e-96
340.70 9.709426e-96
340.80 9.709426e-96
340.90 9.709426e-96
341.00 9.709426e-96
341.10 9.709426e-96
341.20 9.709426e-96
341.30 9.709426e-96
341.40 9.709426e-96
341.50 9.709426e-96
341.60 9.709426e-96
341.70 9.709426e-96
341.80 9.709426e-96
341.90 9.709426e-96
342.00 9.709426e-96
342.10 9.709426e-96
342.20 9.709426e-96
342.30 9.709426e-96
342.40 9.709426e-96
342.50 9.709426e-96
342.60 9.709426e-96
342.70 9.709426e-96
342.80 9.709426e-96
342.90 9.709426e-96
343.00 9.709426e-96
343.10 9.709426e-96
343.20 9.709426e-96
343.30 9.709426e-96
343.40 9.709426e-96
343.50 9.709426e-96
343.60 9.709426e-96
343.70 9.709426e-96
343.80 9.709426e-96
343.90 9.709426e-96
344.00 9.709426e-96
344.10 9.709426e-96
344.20 9.709426e-96
344.30 9.709426e-96
344.40 9.709426e-96
344.50 9.709426e-96
344.60 9.709426e-96
344.70 9.709426e-96
344.80 9.709426e-96
344.90 9.709426e-96
345.00 9.709426e-96
345.10 9.709426e-96
345.20 9.709426e-96
345.30 9.709426e-96
345.40 9.709426e-96
345.50 9.709426e-96
345.60 9.709426e-96
345.70 9.709426e-96
345.80 9.709426e-96
345.90 9.709426e-96
346.00 9.709426e-96
346.10 9.709426e-96
346.20 9.709426e-96
346.30 9.709426e-96
346.40 9.709426e-96
346.50 9.709426e-96
346.60 9.709426e-96
346.70 9.709426e-96
346.80 9.709426e-96
346.90 9.709426e-96
347.00 9.709426e-96
347.10 9.709426e-96
347.20 9.709426e-96
347.30 9.709426e-96
347.40 9.709426e-96
347.50 9.709426e-96
347.60 9.709426e-96
347.70 9.709426e-96
347.80 9.709426e-96
347.90 9.709426e-96
348.00 9.709426e-96
348.10 9.709426e-96
348.20 9.709426e-96
348.30 9.709426e-96
348.40 9.709426e-96
348.50 9.709426e-96
348.60 9.709426e-96
348.70 9.709426e-96
348.80 9.709426e-96
348.90 9.709426e-96
349.00 9.709426e-96
349.10 9.709426e-96
349.20 9.709426e-96
349.30 9.709426e-96
349.40 9.709426e-96
349.50 9.709426e-96
349.60 9.709426e-96
349.70 9.709426e-96
349.80 9.709426e-96
349.90 9.709426e-96
350.00 9.709426e-96
350.10 9.709426e-96
350.20 9.709426e-96
350.30 9.709426e-96
350.40 9.709426e-96
350.50 9.709426e-96
350.60 9.709426e-96
350.70 9.709426e-96
350.80 9.709426e-96
350.90 9.709426e-96
351.00 9.709426e-96
351.10 9.709426e-96
351.20 9.709426e-96
351.30 9.709426e-96
351.40 9.709426e-96
351.50 9.709426e-96
351.60 9.709426e-96
351.70 9.709426e-96
351.80 9.709426e-96
351.90 9.709426e-96
352.00 9.709426e-96
352.10 9.709426e-96
352.20 9.709426e-96
352.30 9.709426e-96
352.40 9.709426e-96
352.50 9.709426e-96
352.60 9.709426e-96
352.70 9.709426e-96
352.80 9.709426e-96
352.90 9.709426e-96
353.00 9.709426e-96
353.10 9.709426e-96
353.20 9.709426e-96
353.30 9.709426e-96
353.40 9.709426e-96
353.50 9.709426e-96
353.60 9.709426e-96
353.70 9.709426e-96
353.80 9.709426e-96
353.90 9.709426e-96
354.00 9.709426e-96
354.10 9.709426e-96
354.20 9.709426e-96
354.30 9.709426e-96
354.40 9.709426e-96
354.50 9.709426e-96
354.60 9.709426e-96
354.70 9.709426e-96
354.80 9.709426e-96
354.90 9.709426e-96
355.00 9.709426e-96
355.10 9.709426e-96
355.20 9.709426e-96
355.30 9.709426e-96
355.40 9.709426e-96
355.50 9.709426e-96
355.60 9.709426e-96
355.70 9.709426e-96
355.80 9.709426e-96
355.90 9.709426e-96
356.00 9.709426e-96
356.10 9.709426e-96
356.20 9.709426e-96
356.30 9.709426e-96
356.40 9.709426e-96
356.50 9.709426e-96
356.60 9.709426e-96
356.70 9.709426e-96
356.80 9.709426e-96
356.90 9.709426e-96
357.00 9.709426e-96
357.10 9.709426e-96
357.20 9.709426e-96
357.30 9.709426e-96
357.40 9.709426e-96
357.50 9.709426e-96
357.60 9.709426e-96
357.70 9.709426e-96
357.80 9.709426e-96
357.90 9.709426e-96
358.00 9.709426e-96
358.10 9.709426e-96
358.20 9.709426e-96
358.30 9.709426e-96
358.40 9.709426e-96
358.50 9.709426e-96
358.60 9.709426e-96
358.70 9.709426e-96
358.80 9.709426e-96
358.90 9.709426e-96
359.00 9.709426e-96
359.10 9.709426e-96
359.20 9.709426e-96
359.30 9.709426e-96
359.40 9.709426e-96
359.50 9.709426e-96
359.60 9.709426e-96
359.70 9.709426e-96
359.80 9.709426e-96
359.90 9.709426e-96
360.00 9.709426e-96
360.10 9.709426e-96
360.20 9.709426e-96
360.30 9.709426e-96
360.40 9.709426e-96
360.50 9.709426e-96
360.60 9.709426e-96
360.70 9.709426e-96
360.80 9.709426e-96
360.90 9.709426e-96
361.00 9.709426e-96
361.10 9.709426e-96
361.20 9.709426e-96
361.30 9.709426e-96
361.40 9.709426e-96
361.50 9.709426e-96
361.60 9.709426e-96
361.70 9.709426e-96
361.80 9.709426e-96
361.90 9.709426e-96
362.00 9.709426e-96
362.10 9.709426e-96
362.20 9.709426e-96
362.30 9.709426e-96
362.40 9.709426e-96
362.50 9.709426e-96
362.60 9.709426e-96
362.70 9.709426e-96
362.80 9.709426e-96
362.90 9.709426e-96
363.00 9.709426e-96
363.10 9.709426e-96
363.20 9.709426e-96
363.30 9.709426e-96
363.40 9.709426e-96
363.50 9.709426e-96
363.60 9.709426e-96
363.70 9.709426e-96
363.80 9.709426e-96
363.90 9.709426e-96
364.00 9.709426e-96
364.10 9.709426e-96
364.20 9.709426e-96
364.30 9.709426e-96
364.40 9.709426e-96
364.50 9.709426e-96
364.60 9.709426e-96
364.70 9.709426e-96
364.80 9.709426e-96
364.90 9.709426e-96
365.00 9.709426e-96
365.10 9.709426e-96
365.20 9.709426e-96
365.30 9.709426e-96
365.40 9.709426e-96
365.50 9.709426e-96
365.60 9.709426e-96
365.70 9.709426e-96
365.80 9.709426e-96
365.90 9.709426e-96
366.00 9.709426e-96
366.10 9.709426e-96
366.20 9.709426e-96
366.30 9.709426e-96
366.40 9.709426e-96
366.50 9.709426e-96
366.60 9.709426e-96
366.70 9.709426e-96
366.80 9.709426e-96
366.90 9.709426e-96
367.00 9.709426e-96
367.10 9.709426e-96
367.20 9.709426e-96
367.30 9.709426e-96
367.40 9.709426e-96
367.50 9.709426e-96
367.60 9.709426e-96
367.70 9.709426e-96
367.80 9.709426e-96
367.90 9.709426e-96
368.00 9.709426e-96
368.10 9.709426e-96
368.20 9.709426e-96
368.30 9.709426e-96
368.40 9.709426e-96
368.50 9.709426e-96
368.60 9.709426e-96
368.70 9.709426e-96
368.80 9.709426e-96
368.90 9.709426e-96
369.00 9.709426e-96
369.10 9.709426e-96
369.20 9.709426e-96
369.30 9.709426e-96
369.40 9.709426e-96
369.50 9.709426e-96
369.60 9.709426e-96
369.70 9.709426e-96
369.80 9.709426e-96
369.90 9.709426e-96
370.00 9.709426e-96
370.10 9.709426e-96
370.20 9.709426e-96
370.30 9.709426e-96
370.40 9.709426e-96
370.50 9.709426e-96
370.60 9.709426e-96
370.70 9.709426e-96
370.80 9.709426e-96
370.90 9.709426e-96
371.00 9.709426e-96
371.10 9.709426e-96
371.20 9.709426e-96
371.30 9.709426e-96
371.40 9.709426e-96
371.50 9.709426e-96
371.60 9.709426e-96
371.70 9.709426e-96
371.80 9.709426e-96
371.90 9.709426e-96
372.00 9.709426e-96
372.10 9.709426e-96
372.20 9.709426e-96
372.30 9.709426e-96
372.40 9.709426e-96
372.50 9.709426e-96
372.60 9.709426e-96
372.70 9.709426e-96
372.80 9.709426e-96
372.90 9.709426e-96
373.00 9.709426e-96
373.10 9.709426e-96
373.20 9.709426e-96
373.30 9.709426e-96
373.40 9.709426e-96
373.50 9.709426e-96
373.60 9.709426e-96
373.70 9.709426e-96
373.80 9.709426e-96
373.90 9.709426e-96
374.00 9.709426e-96
374.10 9.709426e-96
374.20 9.709426e-96
374.30 9.709426e-96
374.40 9.709426e-96
374.50 9.709426e-96
374.60 9.709426e-96
374.70 9.709426e-96
374.80 9.709426e-96
374.90 9.709426e-96
375.00 9.709426e-96
375.10 9.709426e-96
375.20 9.709426e-96
375.30 9.709426e-96
375.40 9.709426e-96
375.50 9.709426e-96
375.60 9.709426e-96
375.70 9.709426e-96
375.80 9.709426e-96
375.90 9.709426e-96
376.00 9.709426e-96
376.10 9.709426e-96
376.20 9.709426e-96
376.30 9.709426e-96
376.40 9.709426e-96
376.50 9.709426e-96
376.60 9.709426e-96
376.70 9.709426e-96
376.80 9.709426e-96
376.90 9.709426e-96
377.00 9.709426e-96
377.10 9.709426e-96
377.20 9.709426e-96
377.30 9.709426e-96
377.40 9.709426e-96
377.50 9.709426e-96
377.60 9.709426e-96
377.70 9.709426e-96
377.80 9.709426e-96
377.90 9.709426e-96
378.00 9.709426e-96
378.10 9.709426e-96
378.20 9.709426e-96
378.30 9.709426e-96
378.40 9.709426e-96
378.50 9.709426e-96
378.60 9.709426e-96
378.70 9.709426e-96
378.80 9.709426e-96
378.90 9.709426e-96
379.00 9.709426e-96
379.10 9.709426e-96
379.20 9.709426e-96
379.30 9.709426e-96
379.40 9.709426e-96
379.50 9.709426e-96
379.60 9.709426e-96
379.70 9.709426e-96
379.80 9.709426e-96
379.90 9.709426e-96
380.00 9.709426e-96
380.10 9.709426e-96
380.20 9.709426e-96
380.30 9.709426e-96
380.40 9.709426e-96
380.50 9.709426e-96
380.60 9.709426e-96
380.70 9.709426e-96
380.80 9.709426e-96
380.90 9.709426e-96
381.00 9.709426e-96
381.10 9.709426e-96
381.20 9.709426e-96
381.30 9.709426e-96
381.40 9.709426e-96
381.50 9.709426e-96
381.60 9.709426e-96
381.70 9.709426e-96
381.80 9.709426e-96
381.90 9.709426e-96
382.00 9.709426e-96
382.10 9.709426e-96
382.20 9.709426e-96
382.30 9.709426e-96
382.40 9.709426e-96
382.50 9.709426e-96
382.60 9.709426e-96
382.70 9.709426e-96
382.80 9.709426e-96
382.90 9.709426e-96
383.00 9.709426e-96
383.10 9.709426e-96
383.20 9.709426e-96
383.30 9.709426e-96
383.40 9.709426e-96
383.50 9.709426e-96
383.60 9.709426e-96
383.70 9.709426e-96
383.80 9.709426e-96
383.90 9.709426e-96
384.00 9.709426e-96
384.10 9.709426e-96
384.20 9.709426e-96
384.30 9.709426e-96
384.40 9.709426e-96
384.50 9.709426e-96
384.60 9.709426e-96
384.70 9.709426e-96
384.80 9.709426e-96
384.90 9.709426e-96
385.00 9.709426e-96
385.10 9.709426e-96
385.20 9.709426e-96
385.30 9.709426e-96
385.40 9.709426e-96
385.50 9.709426e-96
385.60 9.709426e-96
385.70 9.709426e-96
385.80 9.709426e-96
385.90 9.709426e-96
386.00 9.709426e-96
386.10 9.709426e-96
386.20 9.709426e-96
386.30 9.709426e-96
386.40 9.709426e-96
386.50 9.709426e-96
386.60 9.709426e-96
386.70 9.709426e-96
386.80 9.709426e-96
386.90 9.709426e-96
387.00 9.709426e-96
387.10 9.709426e-96
387.20 9.709426e-96
387.30 9.709426e-96
387.40 9.709426e-96
387.50 9.709426e-96
387.60 9.709426e-96
387.70 9.709426e-96
387.80 9.709426e-96
387.90 9.709426e-96
388.00 9.709426e-96
388.10 9.709426e-96
388.20 9.709426e-96
388.30 9.709426e-96
388.40 9.709426e-96
388.50 9.709426e-96
388.60 9.709426e-96
388.70 9.709426e-96
388.80 9.709426e-96
388.90 9.709426e-96
389.00 9.709426e-96
389.10 9.709426e-96
389.20 9.709426e-96
389.30 9.709426e-96
389.40 9.709426e-96
389.50 9.709426e-96
389.60 9.709426e-96
389.70 9.709426e-96
389.80 9.709426e-96
389.90 9.709426e-96
390.00 9.709426e-96
390.10 9.709426e-96
390.20 9.709426e-96
390.30 9.709426e-96
390.40 9.709426e-96
390.50 9.709426e-96
390.60 9.709426e-96
390.70 9.709426e-96
390.80 9.709426e-96
390.90 9.709426e-96
391.00 9.709426e-96
391.10 9.709426e-96
391.20 9.709426e-96
391.30 9.709426e-96
391.40 9.709426e-96
391.50 9.709426e-96
391.60 9.709426e-96
391.70 9.709426e-96
391.80 9.709426e-96
391.90 9.709426e-96
392.00 9.709426e-96
392.10 9.709426e-96
392.20 9.709426e-96
392.30 9.709426e-96
392.40 9.709426e-96
392.50 9.709426e-96
392.60 9.709426e-96
392.70 9.709426e-96
392.80 9.709426e-96
392.90 9.709426e-96
393.00 9.709426e-96
393.10 9.709426e-96
393.20 9.709426e-96
393.30 9.709426e-96
393.40 9.709426e-96
393.50 9.709426e-96
393.60 9.709426e-96
393.70 9.709426e-96
393.80 9.709426e-96
393.90 9.709426e-96
394.00 9.709426e-96
394.10 9.709426e-96
394.20 9.709426e-96
394.30 9.709426e-96
394.40 9.709426e-96
394.50 9.709426e-96
394.60 9.709426e-96
394.70 9.709426e-96
394.80 9.709426e-96
394.90 9.709426e-96
395.00 9.612332e-96
395.10 9.515238e-96
395.20 9.418144e-96
395.30 9.321049e-96
395.40 9.223955e-96
395.50 9.126861e-96
395.60 9.029766e-96
395.70 8.932672e-96
395.80 8.835578e-96
395.90 8.738484e-96
396.00 8.641389e-96
396.10 8.544295e-96
396.20 8.447201e-96
396.30 0.001100123
396.40 0.001796233
396.50 0.001796233
396.60 0.001796233
396.70 0.001796233
396.80 0.001796233
396.90 0.001796233
397.00 0.001796233
397.10 0.001796233
397.20 0.001796233
397.30 0.001796233
397.40 0.001796233
397.50 0.001796233
397.60 0.001796233
397.70 0.001796233
397.80 0.001796233
397.90 0.01328741
398.00 0.03631703
398.10 0.06402993
398.20 0.08916842
398.30 0.1056054
398.40 0.108442
398.50 0.108442
398.60 0.108442
398.70 0.108442
398.80 0.108442
398.90 0.108442
399.00 0.1231339
399.10 0.1555031
399.20 0.2007388
399.30 0.2528311
399.40 0.3067057
399.50 0.3590103
399.60 0.407405
399.70 0.4517908
399.80 0.4955855
399.90 0.5425953
400.00 0.5937872
400.10 0.6464389
400.20 0.6956654
400.30 0.7371171
400.40 0.7693439
400.50 0.793948
400.60 0.8136274
400.70 0.8320912
400.80 0.8534241
400.90 0.8805479
401.00 0.9148444
401.10 0.9557713
401.20 1.000499
401.30 1.043925
401.40 1.080134
401.50 1.104568
401.60 1.115399
401.70 1.115399
401.80 1.115399
401.90 1.115399
402.00 1.115399
402.10 1.115399
402.20 1.115399
402.30 1.115399
402.40 1.125015
402.50 1.156193
402.60 1.208015
402.70 1.276291
402.80 1.355996
402.90 1.441448
403.00 1.525525
403.10 1.603433
403.20 1.674142
403.30 1.737391
403.40 1.792256
403.50 1.838091
403.60 1.875421
403.70 1.904216
403.80 1.922341
403.90 1.928
404.00 1.928
404.10 1.928
404.20 1.928
404.30 1.928
404.40 1.928
404.50 1.928
404.60 1.928
404.70 1.928
404.80 1.928
404.90 1.928
405.00 1.928
405.10 1.928
405.20 1.928
405.30 1.928
405.40 1.928
405.50 1.928
405.60 1.928963
405.70 1.934734
405.80 1.944923
405.90 1.958158
406.00 1.971424
406.10 1.980695
406.20 1.982156
406.30 1.981056
406.40 1.98036
406.50 1.98036
406.60 1.98036
406.70 1.98036
406.80 1.98036
406.90 1.98036
407.00 1.98036
407.10 1.98036
407.20 1.98036
407.30 1.98036
407.40 1.98036
407.50 1.98036
407.60 1.98036
407.70 1.98036
407.80 1.98036
407.90 1.968868
408.00 1.945839
408.10 1.918126
408.20 1.892987
408.30 1.87655
408.40 1.873714
408.50 1.873714
408.60 1.873714
408.70 1.873714
408.80 1.878538
408.90 1.890958
409.00 1.893126
409.10 1.87939
409.20 1.853166
409.30 1.819228
409.40 1.781614
409.50 1.742419
409.60 1.701863
409.70 1.658416
409.80 1.614621
409.90 1.567611
410.00 1.516419
410.10 1.463767
410.20 1.414541
410.30 1.373089
410.40 1.341908
410.50 1.330146
410.60 1.333779
410.70 1.345157
410.80 1.356379
410.90 1.360789
411.00 1.35361
411.10 1.334269
411.20 1.30719
411.30 1.279816
411.40 1.259812
411.50 1.253262
411.60 1.262507
411.70 1.28272
411.80 1.299565
411.90 1.309702
412.00 1.311218
412.10 1.311218
412.20 1.311218
412.30 1.311218
412.40 1.301601
412.50 1.270423
412.60 1.218602
412.70 1.150325
412.80 1.07062
412.90 0.9905109
413.00 0.9189774
413.10 0.8597586
413.20 0.8117855
413.30 0.7723289
413.40 0.7384778
413.50 0.7074686
413.60 0.6765017
413.70 0.6477066
413.80 0.6295822
413.90 0.6239227
414.00 0.6239227
414.10 0.6239227
414.20 0.6239227
414.30 0.6239227
414.40 0.6239227
414.50 0.6239227
414.60 0.6239227
414.70 0.6239227
414.80 0.6239227
414.90 0.6239227
415.00 0.6239227
415.10 0.6239227
415.20 0.6239227
415.30 0.6239227
415.40 0.6239227
415.50 0.6239227
415.60 0.6229593
415.70 0.6171887
415.80 0.6069997
415.90 0.5937651
416.00 0.5804988
416.10 0.5712278
416.20 0.5697671
416.30 0.5697671
416.40 0.5697671
416.50 0.5697671
416.60 0.5697671
416.70 0.5697671
416.80 0.5697671
416.90 0.5697671
417.00 0.5697671
417.10 0.5697671
417.20 0.5697671
417.30 0.5697671
417.40 0.5697671
417.50 0.5697671
417.60 0.5784366
417.70 0.6001868
417.80 0.6327809
417.90 0.6733108
418.00 0.7177096
418.10 0.7614514
418.20 0.8017513
418.30 0.8397618
418.40 0.8801826
418.50 0.9280802
418.60 0.986884
418.70 1.056781
418.80 1.128653
418.90 1.192165
419.00 1.242802
419.10 1.277441
419.20 1.293643
419.30 1.289998
419.40 1.273738
419.50 1.260628
419.60 1.25279
419.70 1.251851
419.80 1.251851
419.90 1.251851
420.00 1.251851
420.10 1.251851
420.20 1.251851
420.30 1.258226
420.40 1.277626
420.50 1.294918
420.60 1.303437
420.70 1.299583
420.80 1.282811
420.90 1.25569
421.00 1.228573
421.10 1.206987
421.20 1.189338
421.30 1.173286
421.40 1.161252
421.50 1.158465
421.60 1.162061
421.70 1.169106
421.80 1.177063
421.90 1.184464
422.00 1.191323
422.10 1.191323
422.20 1.191323
422.30 1.191323
422.40 1.191323
422.50 1.191323
422.60 1.191323
422.70 1.191323
422.80 1.191323
422.90 1.18598
423.00 1.173437
423.10 1.154748
423.20 1.132012
423.30 1.10822
423.40 1.088581
423.50 1.078957
423.60 1.081648
423.70 1.096934
423.80 1.120969
423.90 1.15453
424.00 1.196906
424.10 1.245704
424.20 1.295961
424.30 1.341117
424.40 1.375381
424.50 1.395668
424.60 1.4019
424.70 1.4019
424.80 1.4019
424.90 1.4019
425.00 1.4019
425.10 1.4019
425.20 1.4019
425.30 1.4019
425.40 1.4019
425.50 1.4019
425.60 1.4019
425.70 1.4019
425.80 1.4019
425.90 1.4019
426.00 1.4019
426.10 1.4019
426.20 1.4019
426.30 1.4019
426.40 1.402738
426.50 1.408407
426.60 1.418432
426.70 1.431111
426.80 1.443957
426.90 1.454287
427.00 1.458665
427.10 1.458665
427.20 1.458665
427.30 1.458665
427.40 1.458665
427.50 1.458665
427.60 1.449996
427.70 1.437395
427.80 1.431911
427.90 1.432563
428.00 1.437078
428.10 1.441702
428.20 1.441048
428.30 1.428707
428.40 1.399127
428.50 1.351229
428.60 1.292425
428.70 1.222529
428.80 1.145832
428.90 1.071989
429.00 1.009244
429.10 0.9607236
429.20 0.9295892
429.30 0.9191605
429.40 0.9238897
429.50 0.9302481
429.60 0.9390315
429.70 0.949668
429.80 0.9613684
429.90 0.973679
430.00 0.985328
430.10 0.9945875
430.20 1.000122
430.30 0.996371
430.40 0.9791307
430.50 0.9558354
430.60 0.9344308
430.70 0.9199431
430.80 0.9134625
430.90 0.9144206
431.00 0.9157304
431.10 0.9157304
431.20 0.9157304
431.30 0.9157304
431.40 0.9115586
431.50 0.896463
431.60 0.8727904
431.70 0.8455327
431.80 0.8215198
431.90 0.8074489
432.00 0.804825
432.10 0.8123812
432.20 0.8206309
432.30 0.8276616
432.40 0.8316673
432.50 0.8316963
432.60 0.8316963
432.70 0.8316963
432.80 0.8316963
432.90 0.8316963
433.00 0.8316963
433.10 0.8316963
433.20 0.8316963
433.30 0.8316963
433.40 0.8303212
433.50 0.825119
433.60 0.8160644
433.70 0.8021458
433.80 0.784502
433.90 0.7609543
434.00 0.7314399
434.10 0.6986228
434.20 0.6689465
434.30 0.6503173
434.40 0.6487806
434.50 0.6666186
434.60 0.7028104
434.70 0.7477979
434.80 0.7930967
434.90 0.8373066
435.00 0.8801717
435.10 0.9226039
435.20 0.9660647
435.30 1.011136
435.40 1.057043
435.50 1.101115
435.60 1.138882
435.70 1.165751
435.80 1.178884
435.90 1.178884
436.00 1.178884
436.10 1.178884
436.20 1.178884
436.30 1.178884
436.40 1.178046
436.50 1.172377
436.60 1.162352
436.70 1.149673
436.80 1.136827
436.90 1.126496
437.00 1.122118
437.10 1.122118
437.20 1.122118
437.30 1.122118
437.40 1.122118
437.50 1.122118
437.60 1.122118
437.70 1.117985
437.80 1.104339
437.90 1.084281
438.00 1.06205
438.10 1.042122
438.20 1.028222
438.30 1.021929
438.40 1.02139
438.50 1.02139
438.60 1.02139
438.70 1.02139
438.80 1.02139
438.90 1.019301
439.00 1.014548
439.10 1.009797
439.20 1.005718
439.30 1.001637
439.40 0.9969079
439.50 0.9905494
439.60 0.981766
439.70 0.978479
439.80 0.9811174
439.90 0.9878158
440.00 0.9968906
440.10 1.007663
440.20 1.020373
440.30 1.034798
440.40 1.048642
440.50 1.058677
440.60 1.064016
440.70 1.066344
440.80 1.067252
440.90 1.065833
441.00 1.064523
441.10 1.064523
441.20 1.064523
441.30 1.064523
441.40 1.064523
441.50 1.064523
441.60 1.064523
441.70 1.065725
441.80 1.076185
441.90 1.091607
442.00 1.109658
442.10 1.127815
442.20 1.144978
442.30 1.162421
442.40 1.181878
442.50 1.203885
442.60 1.224303
442.70 1.244145
442.80 1.264196
442.90 1.284322
443.00 1.30493
443.10 1.326318
443.20 1.348283
443.30 1.370504
443.40 1.391905
443.50 1.411604
443.60 1.429355
443.70 1.442902
443.80 1.447367
443.90 1.44353
444.00 1.432373
444.10 1.416392
444.20 1.395811
444.30 1.369284
444.40 1.336558
444.50 1.30446
444.60 1.278095
444.70 1.261332
444.80 1.256779
444.90 1.262961
445.00 1.274342
445.10 1.283941
445.20 1.285224
445.30 1.273426
445.40 1.247551
445.50 1.212048
445.60 1.175561
445.70 1.148692
445.80 1.13556
445.90 1.139109
446.00 1.147527
446.10 1.160158
446.20 1.173626
446.30 1.184423
446.40 1.190229
446.50 1.190229
446.60 1.190229
446.70 1.190229
446.80 1.190229
446.90 1.190229
447.00 1.190229
447.10 1.190229
447.20 1.19842
447.30 1.216632
447.40 1.245455
447.50 1.285127
447.60 1.335751
447.70 1.391214
447.80 1.445368
447.90 1.495165
448.00 1.538482
448.10 1.574835
448.20 1.604473
448.30 1.627483
448.40 1.645649
448.50 1.662712
448.60 1.672311
448.70 1.678134
448.80 1.682606
448.90 1.686139
449.00 1.687579
449.10 1.687579
449.20 1.687579
449.30 1.687579
449.40 1.687579
449.50 1.687579
449.60 1.687579
449.70 1.680229
449.80 1.665891
449.90 1.646882
450.00 1.626158
450.10 1.606125
450.20 1.587882
450.30 1.570832
450.40 1.553784
450.50 1.53691
450.60 1.521143
450.70 1.513986
450.80 1.517212
450.90 1.531221
451.00 1.551961
451.10 1.573509
451.20 1.594469
451.30 1.615301
451.40 1.638447
451.50 1.667417
451.60 1.705053
451.70 1.750901
451.80 1.794151
451.90 1.833212
452.00 1.865956
452.10 1.8913
452.20 1.909216
452.30 1.919691
452.40 1.924062
452.50 1.925855
452.60 1.928351
452.70 1.932309
452.80 1.937223
452.90 1.942493
453.00 1.946232
453.10 1.945284
453.20 1.936924
453.30 1.920411
453.40 1.89901
453.50 1.879311
453.60 1.86156
453.70 1.85065
453.80 1.84894
453.90 1.855274
454.00 1.867165
454.10 1.879977
454.20 1.890058
454.30 1.894922
454.40 1.894922
454.50 1.888894
454.60 1.872836
454.70 1.844611
454.80 1.803865
454.90 1.753473
455.00 1.704778
455.10 1.667794
455.20 1.64854
455.30 1.650454
455.40 1.670855
455.50 1.700365
455.60 1.727409
455.70 1.740433
455.80 1.740433
455.90 1.736884
456.00 1.728466
456.10 1.715835
456.20 1.702367
456.30 1.69157
456.40 1.685764
456.50 1.685764
456.60 1.685764
456.70 1.685764
456.80 1.685764
456.90 1.685764
457.00 1.694324
457.10 1.709791
457.20 1.720989
457.30 1.723611
457.40 1.71463
457.50 1.691648
457.60 1.652759
457.70 1.597269
457.80 1.529651
457.90 1.45873
458.00 1.38873
458.10 1.323939
458.20 1.268556
458.30 1.226169
458.40 1.197701
458.50 1.180638
458.60 1.171039
458.70 1.165216
458.80 1.160744
458.90 1.157211
459.00 1.155771
459.10 1.155771
459.20 1.155771
459.30 1.155771
459.40 1.157635
459.50 1.163516
459.60 1.171487
459.70 1.179032
459.80 1.183541
459.90 1.183541
460.00 1.183541
460.10 1.183541
460.20 1.183541
460.30 1.183541
460.40 1.183541
460.50 1.183541
460.60 1.189384
460.70 1.194088
460.80 1.195281
460.90 1.192393
461.00 1.184732
461.10 1.172464
461.20 1.15575
461.30 1.134918
461.40 1.111773
461.50 1.082803
461.60 1.045166
461.70 0.9981163
461.80 0.9436168
461.90 0.8856662
462.00 0.8291216
462.10 0.7780646
462.20 0.7347356
462.30 0.7057276
462.40 0.6904642
462.50 0.6828558
462.60 0.6760216
462.70 0.6654269
462.80 0.6497767
462.90 0.6311958
463.00 0.6144245
463.10 0.6054133
463.20 0.6093345
463.30 0.6289044
463.40 0.6625316
463.50 0.7032849
463.60 0.7476663
463.70 0.7865358
463.80 0.8138443
463.90 0.8288599
464.00 0.8347865
464.10 0.8365644
464.20 0.8397586
464.30 0.8500578
464.40 0.8702567
464.50 0.8980275
464.60 0.9333481
464.70 0.9735531
464.80 1.014932
464.90 1.053746
465.00 1.081425
465.10 1.092575
465.20 1.086558
465.30 1.065688
465.40 1.036185
465.50 1.007212
465.60 0.9879967
465.70 0.9853462
465.80 0.9970987
465.90 1.010964
466.00 1.02824
466.10 1.049293
466.20 1.073168
466.30 1.098605
466.40 1.124752
466.50 1.15062
466.60 1.175253
466.70 1.198021
466.80 1.218888
466.90 1.238316
467.00 1.247579
467.10 1.248334
467.20 1.243949
467.30 1.236156
467.40 1.226889
467.50 1.219905
467.60 1.219412
467.70 1.228486
467.80 1.245148
467.90 1.262811
468.00 1.279261
468.10 1.293366
468.20 1.304882
468.30 1.313532
468.40 1.319548
468.50 1.323297
468.60 1.324316
468.70 1.324316
468.80 1.324316
468.90 1.324316
469.00 1.324316
469.10 1.324316
469.20 1.324316
469.30 1.324316
469.40 1.322452
469.50 1.316571
469.60 1.310402
469.70 1.310289
469.80 1.315527
469.90 1.324325
470.00 1.330105
470.10 1.332867
470.20 1.333747
470.30 1.334068
470.40 1.334817
470.50 1.336047
470.60 1.331499
470.70 1.321116
470.80 1.307203
470.90 1.292808
471.00 1.280609
471.10 1.273056
471.20 1.272195
471.30 1.277624
471.40 1.285418
471.50 1.295968
471.60 1.309862
471.70 1.327592
471.80 1.348978
471.90 1.373132
472.00 1.398447
472.10 1.422974
472.20 1.444395
472.30 1.454433
472.40 1.450752
472.50 1.435385
472.60 1.419305
472.70 1.4061
472.80 1.396786
472.90 1.389971
473.00 1.382394
473.10 1.370965
473.20 1.356145
473.30 1.336985
473.40 1.312819
473.50 1.284991
473.60 1.257118
473.70 1.234754
473.80 1.223483
473.90 1.22672
474.00 1.243428
474.10 1.267506
474.20 1.290764
474.30 1.306458
474.40 1.309793
474.50 1.29746
474.60 1.269396
474.70 1.229953
474.80 1.188574
474.90 1.14976
475.00 1.120628
475.10 1.104579
475.20 1.101484
475.30 1.108261
475.40 1.119508
475.50 1.130385
475.60 1.136909
475.70 1.136198
475.80 1.127423
475.90 1.113558
476.00 1.096282
476.10 1.075229
476.20 1.051354
476.30 1.025916
476.40 1.002155
476.50 0.9820034
476.60 0.9646023
476.70 0.9481997
476.80 0.9317241
476.90 0.9148873
477.00 0.897776
477.10 0.8815539
477.20 0.8665496
477.30 0.8538585
477.40 0.8474651
477.50 0.8469476
477.60 0.8505824
477.70 0.8563944
477.80 0.8627084
477.90 0.8693701
478.00 0.8777717
478.10 0.8892865
478.20 0.9042292
478.30 0.9220539
478.40 0.9425607
478.50 0.966005
478.60 0.9923933
478.70 1.017914
478.80 1.039082
478.90 1.053943
479.00 1.060955
479.10 1.060955
479.20 1.060955
479.30 1.060955
479.40 1.060955
479.50 1.060955
479.60 1.059153
479.70 1.051722
479.80 1.041974
479.90 1.033176
480.00 1.027396
480.10 1.024634
480.20 1.023754
480.30 1.023433
480.40 1.029665
480.50 1.04079
480.60 1.054216
480.70 1.06684
480.80 1.074755
480.90 1.074901
481.00 1.074022
481.10 1.072294
481.20 1.068909
481.30 1.06348
481.40 1.055686
481.50 1.045136
481.60 1.031243
481.70 1.013512
481.80 0.9930139
481.90 0.9705883
482.00 0.945273
482.10 0.9207463
482.20 0.8993256
482.30 0.8833477
482.40 0.8744581
482.50 0.8736035
482.60 0.8736035
482.70 0.8736035
482.80 0.8736035
482.90 0.8736035
483.00 0.8736035
483.10 0.8736035
483.20 0.8708991
483.30 0.8647805
483.40 0.8553187
483.50 0.8423936
483.60 0.8258847
483.70 0.8053756
483.80 0.785669
483.90 0.7649439
484.00 0.739666
484.10 0.7090221
484.20 0.6748659
484.30 0.6440089
484.40 0.6204749
484.50 0.6050367
484.60 0.5977801
484.70 0.5970187
484.80 0.5970187
484.90 0.5996499
485.00 0.6042472
485.10 0.6068438
485.20 0.6059399
485.30 0.6020407
485.40 0.5967766
485.50 0.591383
485.60 0.5869669
485.70 0.5851267
485.80 0.5875025
485.90 0.5914214
486.00 0.5941986
486.10 0.5948025
486.20 0.5948025
486.30 0.5948025
486.40 0.5924176
486.50 0.586701
486.60 0.5794689
486.70 0.5731035
486.80 0.5687122
486.90 0.5661213
487.00 0.5654095
487.10 0.5670627
487.20 0.580661
487.30 0.6039067
487.40 0.6303251
487.50 0.6562786
487.60 0.6801744
487.70 0.7028244
487.80 0.7260857
487.90 0.7501445
488.00 0.7728762
488.10 0.791165
488.20 0.8024499
488.30 0.8050019
488.40 0.796328
488.50 0.7745542
488.60 0.7471473
488.70 0.7216266
488.80 0.7004585
488.90 0.6855971
489.00 0.6785851
489.10 0.6858118
489.20 0.6998087
489.30 0.7164615
489.40 0.730767
489.50 0.7377159
489.60 0.7377159
489.70 0.7377159
489.80 0.7377159
489.90 0.7377159
490.00 0.7377159
490.10 0.7377159
490.20 0.7377159
490.30 0.7377159
490.40 0.7385387
490.50 0.7403232
490.60 0.7423818
490.70 0.7452993
490.80 0.7523777
490.90 0.7676462
491.00 0.7852616
491.10 0.8050192
491.20 0.8271313
491.30 0.8507247
491.40 0.8739134
491.50 0.8946822
491.60 0.9113078
491.70 0.9225082
491.80 0.9271848
491.90 0.9267457
492.00 0.9267457
492.10 0.9267457
492.20 0.9267457
492.30 0.9267457
492.40 0.929018
492.50 0.934404
492.60 0.9420856
492.70 0.950856
492.80 0.9600047
492.90 0.96974
493.00 0.9809695
493.10 0.9946612
493.20 1.0113
493.30 1.030724
493.40 1.052629
493.50 1.077504
493.60 1.105984
493.70 1.137411
493.80 1.164487
493.90 1.1859
494.00 1.203304
494.10 1.219246
494.20 1.235406
494.30 1.247112
494.40 1.25104
494.50 1.25104
494.60 1.25104
494.70 1.25104
494.80 1.25104
494.90 1.248408
495.00 1.239713
495.10 1.226968
495.20 1.211494
495.30 1.1943
495.40 1.177386
495.50 1.162796
495.60 1.151581
495.70 1.143758
495.80 1.138404
495.90 1.135467
496.00 1.140765
496.10 1.155209
496.20 1.1762
496.30 1.201179
496.40 1.22697
496.50 1.249907
496.60 1.26696
496.70 1.276201
496.80 1.27715
496.90 1.27715
497.00 1.27715
497.10 1.275497
497.20 1.261899
497.30 1.238303
497.40 1.207703
497.50 1.172561
497.60 1.133789
497.70 1.094332
497.80 1.056362
497.90 1.019792
498.00 0.9858358
498.10 0.9562646
498.20 0.9326594
498.30 0.9171459
498.40 0.9124216
498.50 0.9207647
498.60 0.9363047
498.70 0.9541032
498.80 0.973608
498.90 0.9935172
499.00 1.012046
499.10 1.01975
499.20 1.015424
499.30 1.002947
499.40 0.9886411
499.50 0.9816922
499.60 0.9816922
499.70 0.9816922
499.80 0.9831884
499.90 0.9891888
500.00 1
500.10 1.015497
500.20 1.03416
500.30 1.052845
500.40 1.060376
500.50 1.055544
500.60 1.039814
500.70 1.023282
500.80 1.007572
500.90 0.9914786
501.00 0.9738632
501.10 0.9541056
501.20 0.9319935
501.30 0.9084001
501.40 0.8852114
501.50 0.8644426
501.60 0.847817
501.70 0.839459
501.80 0.8390651
501.90 0.844779
502.00 0.8533445
502.10 0.8628065
502.20 0.8730191
502.30 0.8843943
502.40 0.8947379
502.50 0.902921
502.60 0.9089946
502.70 0.9137427
502.80 0.9177055
502.90 0.9192609
503.00 0.9156625
503.10 0.9050413
503.20 0.8884022
503.30 0.8689785
503.40 0.8470739
503.50 0.8221983
503.60 0.7937189
503.70 0.7622912
503.80 0.729738
503.90 0.6982887
504.00 0.6714626
504.10 0.6498333
504.20 0.631764
504.30 0.6200577
504.40 0.61613
504.50 0.61613
504.60 0.61613
504.70 0.61613
504.80 0.61613
504.90 0.61613
505.00 0.61613
505.10 0.6164214
505.20 0.6164214
505.30 0.6164214
505.40 0.6164214
505.50 0.6164214
505.60 0.6164214
505.70 0.6164214
505.80 0.6164214
505.90 0.6154398
506.00 0.607364
506.10 0.5934043
506.20 0.579013
506.30 0.563758
506.40 0.547933
506.50 0.533365
506.60 0.522241
506.70 0.5162482
506.80 0.5161934
506.90 0.5161934
507.00 0.5162314
507.10 0.5187457
507.20 0.5249567
507.30 0.5347837
507.40 0.5468359
507.50 0.5587425
507.60 0.56848
507.70 0.5726736
507.80 0.5701773
507.90 0.5636352
508.00 0.5548378
508.10 0.544056
508.20 0.5314293
508.30 0.5179164
508.40 0.5047916
508.50 0.4910287
508.60 0.4754887
508.70 0.4576902
508.80 0.4381853
508.90 0.4182762
509.00 0.3997478
509.10 0.3848165
509.20 0.3751455
509.30 0.3709704
509.40 0.3709704
509.50 0.3709704
509.60 0.3709704
509.70 0.3709704
509.80 0.3694742
509.90 0.3634738
510.00 0.3526626
510.10 0.3371654
510.20 0.3185022
510.30 0.3023447
510.40 0.2951437
510.50 0.2993969
510.60 0.3162645
510.70 0.336642
510.80 0.3571188
510.90 0.3751332
511.00 0.3883427
511.10 0.3954806
511.20 0.3970155
511.30 0.3970155
511.40 0.3970155
511.50 0.3970155
511.60 0.3970155
511.70 0.3976731
511.80 0.3991231
511.90 0.400175
512.00 0.3995575
512.10 0.3973059
512.20 0.3934546
512.30 0.3877185
512.40 0.3802867
512.50 0.3712674
512.60 0.360212
512.70 0.3466934
512.80 0.3335819
512.90 0.3222913
513.00 0.3146602
513.10 0.3115896
513.20 0.3115896
513.30 0.3115896
513.40 0.3115896
513.50 0.3115896
513.60 0.3185845
513.70 0.330153
513.80 0.3435335
513.90 0.3570257
514.00 0.3683654
514.10 0.3784331
514.20 0.3909695
514.30 0.4061748
514.40 0.4246036
514.50 0.4461959
514.60 0.4700157
514.70 0.4945137
514.80 0.5179234
514.90 0.5387281
515.00 0.5563068
515.10 0.5712878
515.20 0.5857433
515.30 0.6006029
515.40 0.6172665
515.50 0.6371749
515.60 0.6608078
515.70 0.6871478
515.80 0.7152585
515.90 0.745344
516.00 0.7775378
516.10 0.8101077
516.20 0.8376483
516.30 0.8615323
516.40 0.8831842
516.50 0.9019516
516.60 0.9158046
516.70 0.9235439
516.80 0.9254733
516.90 0.9254733
517.00 0.9254353
517.10 0.9229211
517.20 0.9175046
517.30 0.9145426
517.40 0.9146087
517.50 0.9182511
517.60 0.925092
517.70 0.9336625
517.80 0.9428229
517.90 0.9527654
518.00 0.9645215
518.10 0.9786852
518.20 0.994695
518.30 1.010214
518.40 1.021794
518.50 1.028063
518.60 1.029155
518.70 1.029155
518.80 1.029155
518.90 1.029749
519.00 1.036269
519.10 1.050387
519.20 1.072387
519.30 1.100881
519.40 1.133287
519.50 1.167085
519.60 1.199522
519.70 1.227651
519.80 1.249318
519.90 1.263671
520.00 1.270634
520.10 1.271096
520.20 1.271096
520.30 1.268569
520.40 1.260435
520.50 1.246875
520.60 1.228958
520.70 1.20858
520.80 1.188103
520.90 1.170089
521.00 1.156879
521.10 1.149935
521.20 1.150638
521.30 1.154929
521.40 1.160776
521.50 1.167013
521.60 1.172136
521.70 1.172076
521.80 1.167766
521.90 1.162476
522.00 1.159495
522.10 1.159951
522.20 1.162922
522.30 1.166692
522.40 1.169406
522.50 1.170221
522.60 1.170777
522.70 1.173536
522.80 1.177942
522.90 1.186192
523.00 1.199465
523.10 1.216524
523.20 1.234033
523.30 1.248343
523.40 1.25754
523.50 1.262465
523.60 1.258769
523.70 1.251931
523.80 1.247759
523.90 1.251342
524.00 1.266233
524.10 1.291841
524.20 1.322553
524.30 1.350094
524.40 1.367481
524.50 1.371172
524.60 1.360899
524.70 1.338664
524.80 1.315254
524.90 1.29445
525.00 1.276871
525.10 1.261599
525.20 1.247143
525.30 1.232284
525.40 1.21562
525.50 1.195712
525.60 1.172079
525.70 1.151141
525.80 1.135712
525.90 1.123191
526.00 1.109974
526.10 1.094072
526.20 1.074505
526.30 1.050652
526.40 1.023967
526.50 0.9991377
526.60 0.9819189
526.70 0.9760921
526.80 0.9826513
526.90 0.9964978
527.00 1.013442
527.10 1.030915
527.20 1.045144
527.30 1.049353
527.40 1.04437
527.50 1.032227
527.60 1.016178
527.70 1.000346
527.80 0.9854146
527.90 0.9702005
528.00 0.9549303
528.10 0.9399515
528.20 0.9262428
528.30 0.915382
528.40 0.9089508
528.50 0.9078843
528.60 0.912225
528.70 0.9184321
528.80 0.9260611
528.90 0.9357799
529.00 0.9432003
529.10 0.9466535
529.20 0.9462517
529.30 0.9437185
529.40 0.9411902
529.50 0.94067
529.60 0.9442603
529.70 0.9536409
529.80 0.9693428
529.90 0.9907261
530.00 1.016358
530.10 1.044321
530.20 1.067998
530.30 1.086119
530.40 1.098058
530.50 1.103886
530.60 1.103886
530.70 1.103886
530.80 1.103886
530.90 1.103886
531.00 1.103886
531.10 1.103693
531.20 1.101455
531.30 1.097163
531.40 1.091317
531.50 1.086213
531.60 1.083635
531.70 1.083875
531.80 1.086452
531.90 1.089895
532.00 1.092191
532.10 1.091968
532.20 1.089193
532.30 1.084834
532.40 1.080172
532.50 1.076085
532.60 1.072829
532.70 1.070071
532.80 1.065664
532.90 1.058989
533.00 1.050256
533.10 1.041282
533.20 1.035622
533.30 1.036355
533.40 1.044215
533.50 1.05689
533.60 1.070021
533.70 1.078459
533.80 1.07828
533.90 1.067037
534.00 1.043231
534.10 1.00839
534.20 0.9677367
534.30 0.9283167
534.40 0.8964581
534.50 0.8757111
534.60 0.8668934
534.70 0.8693899
534.80 0.8740429
534.90 0.8785961
535.00 0.8835068
535.10 0.8897096
535.20 0.8974427
535.30 0.9062313
535.40 0.9156168
535.50 0.9251648
535.60 0.9350527
535.70 0.9404217
535.80 0.9397829
535.90 0.9358063
536.00 0.9320317
536.10 0.9306598
536.20 0.9325443
536.30 0.9375754
536.40 0.9437391
536.50 0.9468413
536.60 0.9442785
536.70 0.9391173
536.80 0.9297347
536.90 0.9158882
537.00 0.8989438
537.10 0.8814715
537.20 0.866447
537.30 0.8553735
537.40 0.8482382
537.50 0.8448321
537.60 0.8443022
537.70 0.8443022
537.80 0.8443022
537.90 0.8443022
538.00 0.8435752
538.10 0.8443948
538.20 0.842219
538.30 0.8375609
538.40 0.8324122
538.50 0.8272098
538.60 0.8217766
538.70 0.8155695
538.80 0.8079405
538.90 0.7976282
539.00 0.7836875
539.10 0.7698177
539.20 0.7561484
539.30 0.7418746
539.40 0.7277948
539.50 0.7149336
539.60 0.704175
539.70 0.696359
539.80 0.6913185
539.90 0.687874
540.00 0.6856595
540.10 0.6853675
540.20 0.6878736
540.30 0.6941977
540.40 0.704569
540.50 0.7183481
540.60 0.7351713
540.70 0.7497179
540.80 0.7631317
540.90 0.7767549
541.00 0.791296
541.10 0.8070479
541.20 0.8243951
541.30 0.8431451
541.40 0.8624944
541.50 0.8801997
541.60 0.8948519
541.70 0.9054915
541.80 0.9113526
541.90 0.9124186
542.00 0.9089845
542.10 0.9015411
542.20 0.8949852
542.30 0.8899339
542.40 0.8866986
542.50 0.8854205
542.60 0.8854205
542.70 0.8854205
542.80 0.8854205
542.90 0.8838464
543.00 0.8793051
543.10 0.8712212
543.20 0.8593713
543.30 0.8443289
543.40 0.8281879
543.50 0.817603
543.60 0.8154443
543.70 0.8234297
543.80 0.8417068
543.90 0.8689184
544.00 0.9032341
544.10 0.9422543
544.20 0.9829204
544.30 1.02262
544.40 1.059555
544.50 1.092559
544.60 1.121634
544.70 1.147432
544.80 1.17076
544.90 1.192714
545.00 1.214785
545.10 1.238539
545.20 1.264897
545.30 1.292867
545.40 1.319581
545.50 1.341989
545.60 1.358037
545.70 1.366671
545.80 1.367296
545.90 1.360149
546.00 1.347168
546.10 1.331359
546.20 1.31567
546.30 1.30292
546.40 1.295285
546.50 1.294333
546.60 1.2987
546.70 1.301095
546.80 1.301095
546.90 1.301095
547.00 1.301095
547.10 1.301095
547.20 1.301095
547.30 1.301095
547.40 1.301095
547.50 1.301095
547.60 1.301095
547.70 1.301095
547.80 1.301095
547.90 1.301095
548.00 1.300507
548.10 1.296947
548.20 1.29531
548.30 1.29531
548.40 1.29531
548.50 1.29531
548.60 1.29531
548.70 1.29531
548.80 1.29531
548.90 1.29531
549.00 1.29531
549.10 1.291608
549.20 1.28368
549.30 1.271993
549.40 1.256194
549.50 1.235778
549.60 1.21051
549.70 1.180816
549.80 1.148487
549.90 1.116196
550.00 1.871957
550.10 1.871957
550.20 1.871957
550.30 1.871957
550.40 1.869666
550.50 1.85213
550.60 1.81645
550.70 1.763566
550.80 1.695297
550.90 1.612689
551.00 1.517011
551.10 1.411533
551.20 1.30221
551.30 1.194646
551.40 1.092415
551.50 0.9985631
551.60 0.9140543
551.70 0.8376587
551.80 0.7677074
551.90 0.7014392
552.00 0.6339855
552.10 0.5590928
552.20 0.4738661
552.30 0.381968
552.40 0.2917196
552.50 0.2118309
552.60 0.1469902
552.70 0.09847621
552.80 0.06680584
552.90 0.05070453
553.00 0.0451528
553.10 0.06336414
553.20 0.09799199
553.30 0.14092
553.40 0.1871179
553.50 0.2345619
553.60 0.2853778
553.70 0.3446927
553.80 0.4130384
553.90 0.4828203
554.00 0.5514131
554.10 0.6158988
554.20 0.6743541
554.30 0.7248428
554.40 0.7659586
554.50 0.7986373
554.60 0.8246783
554.70 0.8453222
554.80 0.8613819
554.90 0.8736677
555.00 0.8813169
555.10 0.8813169
555.20 0.8813169
555.30 0.8813169
555.40 0.8813169
555.50 0.8813169
555.60 0.8813169
555.70 0.8813169
555.80 0.8813169
555.90 0.922934
556.00 1.028576
556.10 1.182544
556.20 1.360812
556.30 1.535937
556.40 1.684541
556.50 1.802331
556.60 1.907213
556.70 2.01896
556.80 2.145775
556.90 2.283222
557.00 2.422352
557.10 2.536443
557.20 2.621665
557.30 2.678151
557.40 2.706514
557.50 2.707314
557.60 2.681033
557.70 2.629729
557.80 2.561383
557.90 2.491601
558.00 2.423008
558.10 2.358523
558.20 2.300067
558.30 2.256421
558.40 2.228866
558.50 2.211565
558.60 2.196459
558.70 2.175815
558.80 2.159755
558.90 2.147469
559.00 2.13982
559.10 2.13982
559.20 2.13982
559.30 2.13982
559.40 2.13982
559.50 2.13982
559.60 2.14182
559.70 2.1516
559.80 2.16446
559.90 2.135169
560.00 2.038447
560.10 1.889379
560.20 1.712916
560.30 1.53779
560.40 1.389186
560.50 1.275785
560.60 1.183508
560.70 1.09483
560.80 1.003794
560.90 0.9170387
561.00 0.8439931
561.10 0.7891745
561.20 0.7532648
561.30 0.7345533
561.40 0.7318604
561.50 0.7442325
561.60 0.7700618
561.70 0.8095387
561.80 0.8604928
561.90 0.9123556
562.00 0.9658263
562.10 1.018517
562.20 1.065156
562.30 1.092714
562.40 1.097442
562.50 1.085453
562.60 1.074519
562.70 1.074519
562.80 1.074519
562.90 1.074519
563.00 1.074959
563.10 1.079831
563.20 1.088278
563.30 1.100696
563.40 1.117649
563.50 1.139917
563.60 1.167001
563.70 1.193606
563.80 1.222403
563.90 1.252973
564.00 1.284142
564.10 1.314165
564.20 1.343026
564.30 1.372075
564.40 1.400705
564.50 1.423656
564.60 1.434596
564.70 1.427789
564.80 1.3995
564.90 1.34968
565.00 1.283596
565.10 1.207064
565.20 1.132528
565.30 1.070055
565.40 1.023529
565.50 0.9904637
565.60 0.9631202
565.70 0.9297808
565.80 0.8790133
565.90 0.8271504
566.00 0.7736797
566.10 0.7209891
566.20 0.6743496
566.30 0.6399496
566.40 0.621661
566.50 0.6182714
566.60 0.6182714
566.70 0.6279391
566.80 0.6450241
566.90 0.6672229
567.00 0.6947153
567.10 0.7263847
567.20 0.7645268
567.30 0.8076811
567.40 0.8536122
567.50 0.8985571
567.60 0.936701
567.70 0.9638686
567.80 0.9796258
567.90 0.986958
568.00 0.9903842
568.10 0.9926581
568.20 0.990724
568.30 0.9780944
568.40 0.9503491
568.50 0.9230089
568.60 0.8994638
568.70 0.8832024
568.80 0.875713
568.90 0.8748402
569.00 0.8748402
569.10 0.8724514
569.20 0.8611231
569.30 0.8378043
569.40 0.810024
569.50 0.7887064
569.60 0.7875667
569.70 0.8197526
569.80 0.8917297
569.90 0.9795315
570.00 1.076025
570.10 1.172299
570.20 1.256296
570.30 1.317373
570.40 1.35173
570.50 1.362046
570.60 1.362046
570.70 1.352378
570.80 1.335293
570.90 1.327105
571.00 1.339154
571.10 1.369044
571.20 1.411977
571.30 1.462222
571.40 1.510544
571.50 1.548269
571.60 1.572727
571.70 1.584711
571.80 1.585676
571.90 1.577427
572.00 1.562019
572.10 1.543411
572.20 1.528592
572.30 1.524505
572.40 1.535708
572.50 1.54846
572.60 1.560418
572.70 1.567867
572.80 1.569246
572.90 1.569246
573.00 1.569246
573.10 1.569246
573.20 1.569246
573.30 1.5776
573.40 1.592555
573.50 1.608186
573.60 1.614543
573.70 1.598523
573.80 1.550682
573.90 1.469289
574.00 1.372796
574.10 1.276522
574.20 1.192525
574.30 1.131448
574.40 1.09709
574.50 1.088838
574.60 1.102051
574.70 1.120068
574.80 1.134102
574.90 1.121983
575.00 1.082002
575.10 1.015571
575.20 0.9260488
575.30 0.8202311
575.40 0.7090253
575.50 0.6040874
575.60 0.512401
575.70 0.457404
575.80 0.4527441
575.90 0.4951943
576.00 0.5749516
576.10 0.6756772
576.20 0.7770491
576.30 0.8606619
576.40 0.9134106
576.50 0.9292758
576.60 0.9173174
576.70 0.9098681
576.80 0.9084893
576.90 0.9084893
577.00 0.9084893
577.10 0.9084893
577.20 0.9155123
577.30 0.9209856
577.40 0.9118236
577.50 0.8821724
577.60 0.8430148
577.70 0.806715
577.80 0.7823922
577.90 0.7759836
578.00 0.7759836
578.10 0.7759836
578.20 0.777386
578.30 0.7901879
578.40 0.8151478
578.50 0.8492139
578.60 0.8799058
578.70 0.911125
578.80 0.9503399
578.90 1.003921
579.00 1.060096
579.10 1.116286
579.20 1.174032
579.30 1.236165
579.40 1.306226
579.50 1.38764
579.60 1.481012
579.70 1.563427
579.80 1.617819
579.90 1.641
580.00 1.633907
580.10 1.600673
580.20 1.550514
580.30 1.497881
580.40 1.459032
580.50 1.44864
580.60 1.470855
580.70 1.505542
580.80 1.554447
580.90 1.61384
581.00 1.677335
581.10 1.737394
581.20 1.778804
581.30 1.794564
581.40 1.788473
581.50 1.78512
581.60 1.78512
581.70 1.78512
581.80 1.78512
581.90 1.78512
582.00 1.78512
582.10 1.78512
582.20 1.783717
582.30 1.770915
582.40 1.755254
582.50 1.75479
582.60 1.762883
582.70 1.769129
582.80 1.763317
582.90 1.740677
583.00 1.70157
583.10 1.649607
583.20 1.591861
583.30 1.532355
583.40 1.47807
583.50 1.431818
583.60 1.397324
583.70 1.379601
583.80 1.383917
583.90 1.41693
584.00 1.484992
584.10 1.59229
584.20 1.737076
584.30 1.90825
584.40 2.087465
584.50 2.25481
584.60 2.392298
584.70 2.487257
584.80 2.53682
584.90 2.547196
585.00 2.529911
585.10 2.499248
585.20 2.47084
585.30 2.457671
585.40 2.468233
585.50 2.487638
585.60 2.511519
585.70 2.539785
585.80 2.571063
585.90 2.601805
586.00 2.628313
586.10 2.651066
586.20 2.672441
586.30 2.691706
586.40 2.696273
586.50 2.66767
586.60 2.615672
586.70 2.56019
586.80 2.512753
586.90 2.47992
587.00 2.462853
587.10 2.458626
587.20 2.458626
587.30 2.455998
587.40 2.440223
587.50 2.405061
587.60 2.346183
587.70 2.260951
587.80 2.148523
587.90 2.008658
588.00 1.855951
588.10 1.685429
588.20 1.496111
588.30 1.293482
588.40 1.091267
588.50 0.906103
588.60 0.7510338
588.70 0.6331855
588.80 0.5517502
588.90 0.4988471
589.00 0.4653702
589.10 0.4428221
589.20 0.4241116
589.30 0.4076938
589.40 0.3930458
589.50 0.3853499
589.60 0.3888694
589.70 0.4068687
589.80 0.4401265
589.90 0.4875707
590.00 0.5453306
590.10 0.6039405
590.20 0.6523563
590.30 0.6846197
590.40 0.701338
590.50 0.7068112
590.60 0.7070645
590.70 0.7070645
590.80 0.7070645
590.90 0.7070645
591.00 0.7070645
591.10 0.7070645
591.20 0.7070645
591.30 0.7070645
591.40 0.7070645
591.50 0.7070645
591.60 0.7070645
591.70 0.7070645
591.80 0.7070645
591.90 0.7063081
592.00 0.6945141
592.10 0.6819004
592.20 0.6613074
592.30 0.6494496
592.40 0.646463
592.50 0.6460568
592.60 0.6414231
592.70 0.6296259
592.80 0.6125934
592.90 0.5957275
593.00 0.5829944
593.10 0.5761453
593.20 0.581005
593.30 0.5917746
593.40 0.6013878
593.50 0.5998521
593.60 0.5820889
593.70 0.54591
593.80 0.4894475
593.90 0.4123381
594.00 0.32807
594.10 0.2467075
594.20 0.1769164
594.30 0.125388
594.40 0.09480428
594.50 0.08226811
594.60 0.0820148
594.70 0.0820148
594.80 0.09307028
594.90 0.1323278
595.00 0.2027849
595.10 0.3021154
595.20 0.4246192
595.30 0.5638642
595.40 0.7132645
595.50 0.8653342
595.60 1.012015
595.70 1.145744
595.80 1.259902
595.90 1.348819
596.00 1.404657
596.10 1.427688
596.20 1.439152
596.30 1.439152
596.40 1.439152
596.50 1.439152
596.60 1.439152
596.70 1.439152
596.80 1.439152
596.90 1.439152
597.00 1.439152
597.10 1.439152
597.20 1.432978
597.30 1.422208
597.40 1.41076
597.50 1.400587
597.60 1.39095
597.70 1.380864
597.80 1.372791
597.90 1.371714
598.00 1.371714
598.10 1.371714
598.20 1.371714
598.30 1.371714
598.40 1.371714
598.50 1.371714
598.60 1.376747
598.70 1.388395
598.80 1.38953
598.90 1.358534
599.00 1.290388
599.10 1.191058
599.20 1.0718
599.30 0.9494736
599.40 0.8387028
599.50 0.7515351
599.60 0.6960424
599.70 0.6760024
599.80 0.6913675
599.90 0.7375171
600.00 0
600.10 0
600.20 0
600.30 0
600.40 0
600.50 0
600.60 0.2013296
600.70 0.4659339
600.80 0.4876193
600.90 0.3304452
601.00 0.09245533
601.10 0
601.20 0.1298262
601.30 0.6767582
601.40 1.545178
601.50 2.596082
601.60 3.647509
601.70 4.547555
601.80 5.180929
601.90 5.402678
602.00 5.109208
602.10 4.312026
602.20 3.087106
602.30 1.5752
602.40 0.01154159
602.50 0
602.60 0
602.70 0
602.80 0
602.90 0
603.00 0
603.10 0
603.20 0
603.30 0.03603111
603.40 0.4782333
603.50 0.8791192
603.60 1.29257
603.70 1.701952
603.80 2.041045
603.90 2.197102
604.00 2.074575
604.10 1.677396
604.20 1.071859
604.30 0.3445725
604.40 0
604.50 0
604.60 0
604.70 0
604.80 0
604.90 0
605.00 0.03874353
605.10 0.1010425
605.20 0
605.30 0
605.40 0
605.50 0
605.60 0
605.70 0
605.80 0
605.90 0
606.00 0
606.10 0
606.20 0
606.30 0.6503149
606.40 1.785487
606.50 2.906942
606.60 3.968259
606.70 4.920359
606.80 5.654819
606.90 6.053684
607.00 6.101744
607.10 5.874666
607.20 5.431022
607.30 4.785797
607.40 4.006136
607.50 3.199271
607.60 2.451504
607.70 1.7847
607.80 1.167198
607.90 0.6177393
608.00 0.181273
608.10 0
608.20 0
608.30 0
608.40 0
608.50 0.4252759
608.60 0.9209315
608.70 1.318177
608.80 1.611439
608.90 1.816765
609.00 1.943138
609.10 2.025334
609.20 2.130936
609.30 2.245799
609.40 2.299941
609.50 2.281406
609.60 2.199827
609.70 2.033773
609.80 1.750429
609.90 1.419861
610.00 1.17746
610.10 1.088096
610.20 1.117549
610.30 1.148407
610.40 1.063244
610.50 0.7951939
610.60 0.352838
610.70 0
610.80 0
610.90 0
611.00 0
611.10 0
611.20 0.2639205
611.30 0.9780244
611.40 1.601464
611.50 1.959479
611.60 1.98051
611.70 1.736551
611.80 1.363223
611.90 0.9878586
612.00 0.6743413
612.10 0.4115758
612.20 0.1594638
612.30 0
612.40 0
612.50 0
612.60 0
612.70 0
612.80 0
612.90 0
613.00 0
613.10 0
613.20 0
613.30 0
613.40 0
613.50 0
613.60 0
613.70 0
613.80 0
613.90 0.06167266
614.00 0.4490189
614.10 0.8412961
614.20 1.20336
614.30 1.509014
614.40 1.777506
614.50 2.042354
614.60 2.30132
614.70 2.525056
614.80 2.707773
614.90 2.866379
615.00 2.985954
615.10 3.010216
615.20 2.904322
615.30 2.686088
615.40 2.373323
615.50 1.97767
615.60 1.528016
615.70 1.061009
615.80 0.5540024
615.90 0.0006300908
616.00 0
616.10 0
616.20 0
616.30 0
616.40 0
616.50 0
616.60 0
616.70 0.4301583
616.80 0.6983759
616.90 0.6956455
617.00 0.4582125
617.10 0.1166882
617.20 0
617.30 0
617.40 0
617.50 0
617.60 0.1041962
617.70 0.4009291
617.80 0.7145434
617.90 0.9727133
618.00 1.147323
618.10 1.264342
618.20 1.374527
618.30 1.483599
618.40 1.529015
618.50 1.462707
618.60 1.356111
618.70 1.362268
618.80 1.618927
618.90 2.1589
619.00 2.92156
619.10 3.732552
619.20 4.393923
619.30 4.809605
619.40 4.950269
619.50 4.857197
619.60 4.612351
619.70 4.337452
619.80 4.177027
619.90 4.206555
620.00 4.365293
620.10 4.51299
620.20 4.519277
620.30 4.353359
620.40 4.060735
620.50 3.748246
620.60 3.557671
620.70 3.520977
620.80 3.595914
620.90 3.701431
621.00 3.69855
621.10 3.47187
621.20 3.002168
621.30 2.365019
621.40 1.706024
621.50 1.173199
621.60 0.8774095
621.70 0.8781839
621.80 1.161932
621.90 1.646657
622.00 2.192722
622.10 2.71435
622.20 3.173333
622.30 3.52191
622.40 3.778136
622.50 3.984638
622.60 4.147356
622.70 4.249047
622.80 4.266587
622.90 4.194312
623.00 4.020836
623.10 3.71954
623.20 3.310977
623.30 2.879496
623.40 2.547665
623.50 2.385711
623.60 2.397193
623.70 2.578303
623.80 2.885758
623.90 3.227011
624.00 3.444461
624.10 3.445527
624.20 3.275248
624.30 3.019594
624.40 2.724274
624.50 2.407122
624.60 2.088208
624.70 1.744731
624.80 1.343352
624.90 0.8696941
625.00 0.3310388
625.10 0
625.20 0
625.30 0
625.40 0
625.50 0
625.60 0
625.70 0
625.80 0.2775789
625.90 1.295376
626.00 2.260795
626.10 3.060641
626.20 3.622759
626.30 3.945438
626.40 4.092026
626.50 4.165984
626.60 4.271739
626.70 4.419167
626.80 4.547223
626.90 4.548874
627.00 4.312462
627.10 3.791969
627.20 2.993825
627.30 2.018879
627.40 1.022138
627.50 0.2108635
627.60 0
627.70 0
627.80 0.5934122
627.90 1.592539
628.00 2.689342
628.10 3.684379
628.20 4.466236
628.30 5.020419
628.40 5.319359
628.50 5.287017
628.60 4.948963
628.70 4.442036
628.80 3.906262
628.90 3.37144
629.00 2.845154
629.10 2.396365
629.20 2.108597
629.30 2.032501
629.40 2.099433
629.50 2.151821
629.60 2.0417
629.70 1.686063
629.80 1.122382
629.90 0.502866
630.00 0.01106727
630.10 0
630.20 0
630.30 0.5763151
630.40 1.493688
630.50 2.461185
630.60 3.213887
630.70 3.609309
630.80 3.663743
630.90 3.452978
631.00 3.05945
631.10 2.605343
631.20 2.215448
631.30 1.958818
631.40 1.818859
631.50 1.727828
631.60 1.639702
631.70 1.541267
631.80 1.474985
631.90 1.507351
632.00 1.655146
632.10 1.847192
632.20 1.998354
632.30 2.108265
632.40 2.231303
632.50 2.362428
632.60 2.448932
632.70 2.515885
632.80 2.618601
632.90 2.782814
633.00 3.006885
633.10 3.262902
633.20 3.51911
633.30 3.722976
633.40 3.797241
633.50 3.712239
633.60 3.502172
633.70 3.204165
633.80 2.815608
633.90 2.326307
634.00 1.78939
634.10 1.268012
634.20 0.8333994
634.30 0.5339253
634.40 0.3731853
634.50 0.3670421
634.60 0.5330672
634.70 0.8748333
634.80 1.391816
634.90 2.055596
635.00 2.769097
635.10 3.394878
635.20 3.84122
635.30 4.096909
635.40 4.151645
635.50 3.956219
635.60 3.495085
635.70 2.853752
635.80 2.167571
635.90 1.541997
636.00 1.020481
636.10 0.6135215
636.20 0.3594695
636.30 0.3211886
636.40 0.549359
636.50 1.032918
636.60 1.669986
636.70 2.309393
636.80 2.805077
636.90 3.075313
637.00 3.088636
637.10 2.837403
637.20 2.366644
637.30 1.772594
637.40 1.210775
637.50 0.8588282
637.60 0.7959227
637.70 1.009803
637.80 1.481545
637.90 2.167865
638.00 2.97322
638.10 3.781641
638.20 4.516341
638.30 5.123496
638.40 5.556297
638.50 5.795275
638.60 5.865187
638.70 5.831843
638.80 5.749554
638.90 5.635021
639.00 5.484818
639.10 5.266437
639.20 4.905519
639.30 4.36295
639.40 3.726861
639.50 3.14581
639.60 2.720337
639.70 2.483379
639.80 2.411565
639.90 2.429255
640.00 2.436932
640.10 2.358874
640.20 2.160645
640.30 1.819978
640.40 1.342564
640.50 0.8197209
640.60 0.4062692
640.70 0.2274417
640.80 0.2851313
640.90 0.4907686
641.00 0.7453021
641.10 0.9843064
641.20 1.195745
641.30 1.420777
641.40 1.708977
641.50 2.078139
641.60 2.503542
641.70 2.95248
641.80 3.398288
641.90 3.74895
642.00 3.872978
642.10 3.71706
642.20 3.327581
642.30 2.799742
642.40 2.253364
642.50 1.803599
642.60 1.548985
642.70 1.539414
642.80 1.773783
642.90 2.210878
643.00 2.767889
643.10 3.320688
643.20 3.751331
643.30 4.034096
643.40 4.182803
643.50 4.185529
643.60 4.048058
643.70 3.845536
643.80 3.681185
643.90 3.629407
644.00 3.696801
644.10 3.833036
644.20 3.947913
644.30 3.947153
644.40 3.776113
644.50 3.431509
644.60 2.975817
644.70 2.501617
644.80 2.121465
644.90 1.923851
645.00 1.930304
645.10 2.087415
645.20 2.325157
645.30 2.582508
645.40 2.823571
645.50 3.078242
645.60 3.38106
645.70 3.721475
645.80 4.101848
645.90 4.536216
646.00 4.968042
646.10 5.278098
646.20 5.350089
646.30 5.144842
646.40 4.717758
646.50 4.200632
646.60 3.730749
646.70 3.398059
646.80 3.215184
646.90 3.083364
647.00 2.919177
647.10 2.745101
647.20 2.576734
647.30 2.377588
647.40 2.136455
647.50 1.91257
647.60 1.819641
647.70 1.929869
647.80 2.218339
647.90 2.586334
648.00 2.902913
648.10 3.091185
648.20 3.178033
648.30 3.281471
648.40 3.517367
648.50 3.912446
648.60 4.425453
648.70 4.999693
648.80 5.560085
648.90 5.998494
649.00 6.219179
649.10 6.189684
649.20 5.975063
649.30 5.687144
649.40 5.394048
649.50 5.102551
649.60 4.793197
649.70 4.464224
649.80 4.098625
649.90 3.682303
650.00 3.26499
650.10 2.930864
650.20 2.77801
650.30 2.892222
650.40 3.306561
650.50 4.00373
650.60 4.837249
650.70 5.572824
650.80 6.063915
650.90 6.256497
651.00 6.142941
651.10 5.75617
651.20 5.204919
651.30 4.612203
651.40 4.082828
651.50 3.771746
651.60 3.769893
651.70 4.031654
651.80 4.418631
651.90 4.757735
652.00 4.961497
652.10 5.04071
652.20 5.044317
652.30 5.023397
652.40 5.027758
652.50 5.079738
652.60 5.166303
652.70 5.284636
652.80 5.41444
652.90 5.491398
653.00 5.514602
653.10 5.558703
653.20 5.660586
653.30 5.802251
653.40 5.925995
653.50 5.960665
653.60 5.877845
653.70 5.693583
653.80 5.448101
653.90 5.259573
654.00 5.22734
654.10 5.358293
654.20 5.620879
654.30 5.938338
654.40 6.19049
654.50 6.272146
654.60 6.175591
654.70 5.982668
654.80 5.837293
654.90 5.854886
655.00 6.002563
655.10 6.195074
655.20 6.374757
655.30 6.443048
655.40 6.328799
655.50 6.050969
655.60 5.671954
655.70 5.31497
655.80 5.054994
655.90 4.868614
656.00 4.755291
656.10 4.702922
656.20 4.644041
656.30 4.541738
656.40 4.443663
656.50 4.414451
656.60 4.472467
656.70 4.606826
656.80 4.795233
656.90 5.005344
657.00 5.225074
657.10 5.407106
657.20 5.53696
657.30 5.655065
657.40 5.710037
657.50 5.623499
657.60 5.376409
657.70 5.010569
657.80 4.617696
657.90 4.280345
658.00 4.051717
658.10 4.000445
658.20 4.181383
658.30 4.558144
658.40 5.029753
658.50 5.488123
658.60 5.80838
658.70 5.873332
658.80 5.66457
658.90 5.322865
659.00 5.0645
659.10 5.022206
659.20 5.208648
659.30 5.626174
659.40 6.294782
659.50 7.134881
659.60 7.993705
659.70 8.747861
659.80 9.304244
659.90 9.559023
660.00 9.482366
660.10 9.222207
660.20 8.94948
660.30 8.69814
660.40 8.405842
660.50 8.030614
660.60 7.604758
660.70 7.18789
660.80 6.811355
660.90 6.498657
661.00 6.27421
661.10 6.159356
661.20 6.16003
661.30 6.266817
661.40 6.448572
661.50 6.613098
661.60 6.668023
661.70 6.578317
661.80 6.364235
661.90 6.090779
662.00 5.853603
662.10 5.74883
662.20 5.839662
662.30 6.154331
662.40 6.68998
662.50 7.371276
662.60 8.031707
662.70 8.514345
662.80 8.760464
662.90 8.768263
663.00 8.551855
663.10 8.157977
663.20 7.661356
663.30 7.140449
663.40 6.645271
663.50 6.183928
663.60 5.779622
663.70 5.472415
663.80 5.266855
663.90 5.170169
664.00 5.196519
664.10 5.381512
664.20 5.718995
664.30 6.144195
664.40 6.60694
664.50 7.052688
664.60 7.433998
664.70 7.709392
664.80 7.829703
664.90 7.759726
665.00 7.492479
665.10 7.058942
665.20 6.529909
665.30 5.993345
665.40 5.546602
665.50 5.262105
665.60 5.218816
665.70 5.45619
665.80 5.927718
665.90 6.519261
666.00 7.061394
666.10 7.417685
666.20 7.566524
666.30 7.551785
666.40 7.372873
666.50 7.061316
666.60 6.705173
666.70 6.37469
666.80 6.12874
666.90 6.019811
667.00 6.032644
667.10 6.110958
667.20 6.221415
667.30 6.383058
667.40 6.655785
667.50 7.05608
667.60 7.486002
667.70 7.828208
667.80 8.064733
667.90 8.182426
668.00 8.182273
668.10 8.148074
668.20 8.212002
668.30 8.468355
668.40 8.915157
668.50 9.475566
668.60 10.03374
668.70 10.44501
668.80 10.55857
668.90 10.30163
669.00 9.739314
669.10 9.027755
669.20 8.33987
669.30 7.824365
669.40 7.561938
669.50 7.538459
669.60 7.658335
669.70 7.821594
669.80 7.981548
669.90 8.086765
670.00 8.091804
670.10 8.008506
670.20 7.884942
670.30 7.793073
670.40 7.807938
670.50 7.990843
670.60 8.333678
670.70 8.740803
670.80 9.110101
670.90 9.376473
671.00 9.505229
671.10 9.453568
671.20 9.208189
671.30 8.874439
671.40 8.57404
671.50 8.378894
671.60 8.319538
671.70 8.375509
671.80 8.48866
671.90 8.552952
672.00 8.50296
672.10 8.384054
672.20 8.251784
672.30 8.161703
672.40 8.193329
672.50 8.388378
672.60 8.695273
672.70 8.99762
672.80 9.214092
672.90 9.297642
673.00 9.27895
673.10 9.220395
673.20 9.129672
673.30 8.999583
673.40 8.803738
673.50 8.494527
673.60 8.072349
673.70 7.562251
673.80 6.968272
673.90 6.355588
674.00 5.869245
674.10 5.663989
674.20 5.831792
674.30 6.381157
674.40 7.177723
674.50 8.008015
674.60 8.71994
674.70 9.182909
674.80 9.302142
674.90 9.076551
675.00 8.581596
675.10 7.954541
675.20 7.376394
675.30 7.017412
675.40 6.971727
675.50 7.211445
675.60 7.62406
675.70 8.071763
675.80 8.45211
675.90 8.715637
676.00 8.812546
676.10 8.734798
676.20 8.557157
676.30 8.387805
676.40 8.26002
676.50 8.150454
676.60 8.078029
676.70 8.06104
676.80 8.100937
676.90 8.209196
677.00 8.356531
677.10 8.467155
677.20 8.523323
677.30 8.580593
677.40 8.705271
677.50 8.953857
677.60 9.314411
677.70 9.700569
677.80 10.07372
677.90 10.45212
678.00 10.8213
678.10 11.10068
678.20 11.16772
678.30 10.9372
678.40 10.43161
678.50 9.765579
678.60 9.025049
678.70 8.260398
678.80 7.558614
678.90 7.02508
679.00 6.754246
679.10 6.7931
679.20 7.129676
679.30 7.675349
679.40 8.251716
679.50 8.694472
679.60 8.923457
679.70 8.945122
679.80 8.813751
679.90 8.58007
680.00 8.300327
680.10 8.021614
680.20 7.771098
680.30 7.578958
680.40 7.491192
680.50 7.558034
680.60 7.768511
680.70 8.059055
680.80 8.410457
680.90 8.808399
681.00 9.187735
681.10 9.453097
681.20 9.526279
681.30 9.393207
681.40 9.108317
681.50 8.771821
681.60 8.509206
681.70 8.416183
681.80 8.511395
681.90 8.763537
682.00 9.124638
682.10 9.538062
682.20 9.920022
682.30 10.22007
682.40 10.46386
682.50 10.66297
682.60 10.79598
682.70 10.84238
682.80 10.78416
682.90 10.63669
683.00 10.40568
683.10 10.06848
683.20 9.638681
683.30 9.194712
683.40 8.856737
683.50 8.728438
683.60 8.827921
683.70 9.05654
683.80 9.251481
683.90 9.30448
684.00 9.196856
684.10 8.955111
684.20 8.646753
684.30 8.342045
684.40 8.145285
684.50 8.186558
684.60 8.513969
684.70 9.069625
684.80 9.704718
684.90 10.21101
685.00 10.42206
685.10 10.29064
685.20 9.859264
685.30 9.231179
685.40 8.535109
685.50 7.894546
685.60 7.420532
685.70 7.200475
685.80 7.247308
685.90 7.499261
686.00 7.888192
686.10 8.286078
686.20 8.526812
686.30 8.590342
686.40 8.540701
686.50 8.398377
686.60 8.208309
686.70 8.033068
686.80 7.933977
686.90 7.972918
687.00 8.16143
687.10 8.431429
687.20 8.661531
687.30 8.746349
687.40 8.636309
687.50 8.378859
687.60 8.135107
687.70 8.01303
687.80 8.04176
687.90 8.255918
688.00 8.620452
688.10 9.049787
688.20 9.438422
688.30 9.682516
688.40 9.723096
688.50 9.547727
688.60 9.191938
688.70 8.715618
688.80 8.181117
688.90 7.678673
689.00 7.275419
689.10 6.982777
689.20 6.803812
689.30 6.738331
689.40 6.812424
689.50 7.037444
689.60 7.386284
689.70 7.812779
689.80 8.24225
689.90 8.606544
690.00 8.868265
690.10 9.01683
690.20 9.058716
690.30 8.9811
690.40 8.828562
690.50 8.72528
690.60 8.74951
690.70 8.941028
690.80 9.288955
690.90 9.707486
691.00 10.08288
691.10 10.34386
691.20 10.48646
691.30 10.51019
691.40 10.39014
691.50 10.11276
691.60 9.709932
691.70 9.280281
691.80 8.918397
691.90 8.671636
692.00 8.597412
692.10 8.699377
692.20 8.95649
692.30 9.32119
692.40 9.688469
692.50 9.954235
692.60 10.03233
692.70 9.898831
692.80 9.625434
692.90 9.355169
693.00 9.220439
693.10 9.232581
693.20 9.275954
693.30 9.243313
693.40 9.0866
693.50 8.805141
693.60 8.367623
693.70 7.785926
693.80 7.211133
693.90 6.806717
694.00 6.676182
694.10 6.845841
694.20 7.261901
694.30 7.820869
694.40 8.419562
694.50 8.964131
694.60 9.378802
694.70 9.626328
694.80 9.723331
694.90 9.74096
695.00 9.771659
695.10 9.870145
695.20 10.02611
695.30 10.19896
695.40 10.35885
695.50 10.51631
695.60 10.67731
695.70 10.7938
695.80 10.78084
695.90 10.63684
696.00 10.48101
696.10 10.40526
696.20 10.39013
696.30 10.36798
696.40 10.30303
696.50 10.15923
696.60 9.918741
696.70 9.613444
696.80 9.272099
696.90 8.908646
697.00 8.540697
697.10 8.209234
697.20 7.965887
697.30 7.879372
697.40 7.947091
697.50 8.109343
697.60 8.349533
697.70 8.636808
697.80 8.931768
697.90 9.230874
698.00 9.50168
698.10 9.673087
698.20 9.691284
698.30 9.522357
698.40 9.198364
698.50 8.795427
698.60 8.389394
698.70 7.999957
698.80 7.637563
698.90 7.310118
699.00 6.986167
699.10 6.656986
699.20 6.359873
699.30 6.160954
699.40 6.069067
699.50 6.078217
699.60 6.248168
699.70 6.635556
699.80 7.220567
699.90 7.95405
700.00 8.753804
700.10 9.500705
700.20 10.08193
700.30 10.41894
700.40 10.4856
700.50 10.29616
700.60 9.890434
700.70 9.33899
700.80 8.784601
700.90 8.34874
701.00 8.052965
701.10 7.907474
701.20 7.936768
701.30 8.126273
701.40 8.428631
701.50 8.775433
701.60 9.08904
701.70 9.316306
701.80 9.452271
701.90 9.534422
702.00 9.586642
702.10 9.60862
702.20 9.594047
702.30 9.558557
702.40 9.518293
702.50 9.446249
702.60 9.336578
702.70 9.210187
702.80 9.095882
702.90 9.050191
703.00 9.120309
703.10 9.317572
703.20 9.602026
703.30 9.895459
703.40 10.11793
703.50 10.22364
703.60 10.22731
703.70 10.14854
703.80 9.996003
703.90 9.820421
704.00 9.650295
704.10 9.480357
704.20 9.335142
704.30 9.27051
704.40 9.358794
704.50 9.646483
704.60 10.11327
704.70 10.65607
704.80 11.13896
704.90 11.44395
705.00 11.47901
705.10 11.21849
705.20 10.74442
705.30 10.17593
705.40 9.59421
705.50 9.06259
705.60 8.660333
705.70 8.445754
705.80 8.407651
705.90 8.483237
706.00 8.608726
706.10 8.803493
706.20 9.140573
706.30 9.628562
706.40 10.16925
706.50 10.68737
706.60 11.1595
706.70 11.52878
706.80 11.78833
706.90 11.97883
707.00 12.09201
707.10 12.08602
707.20 11.92432
707.30 11.62683
707.40 11.29079
707.50 10.99432
707.60 10.7595
707.70 10.61903
707.80 10.64441
707.90 10.83638
708.00 11.11507
708.10 11.4136
708.20 11.64484
708.30 11.72983
708.40 11.65054
708.50 11.4187
708.60 11.1174
708.70 10.86225
708.80 10.6998
708.90 10.62619
709.00 10.61837
709.10 10.65839
709.20 10.77526
709.30 11.02281
709.40 11.38336
709.50 11.76658
709.60 12.10658
709.70 12.36067
709.80 12.50972
709.90 12.58982
710.00 12.6341
710.10 12.65079
710.20 12.66128
710.30 12.71529
710.40 12.87279
710.50 13.161
710.60 13.52688
710.70 13.84393
710.80 14.00078
710.90 13.97582
711.00 13.79914
711.10 13.53288
711.20 13.22362
711.30 12.86443
711.40 12.46434
711.50 12.07967
711.60 11.80061
711.70 11.68407
711.80 11.72082
711.90 11.87207
712.00 12.08752
712.10 12.30476
712.20 12.45439
712.30 12.47179
712.40 12.36934
712.50 12.21985
712.60 12.08767
712.70 12.04601
712.80 12.13806
712.90 12.32044
713.00 12.49641
713.10 12.61722
713.20 12.68674
713.30 12.69816
713.40 12.64543
713.50 12.5521
713.60 12.4724
713.70 12.4502
713.80 12.44899
713.90 12.38816
714.00 12.20792
714.10 11.88465
714.20 11.43961
714.30 10.93902
714.40 10.45939
714.50 10.02065
714.60 9.598679
714.70 9.19613
714.80 8.858103
714.90 8.636604
715.00 8.556845
715.10 8.622495
715.20 8.865896
715.30 9.292038
715.40 9.839385
715.50 10.40975
715.60 10.881
715.70 11.1738
715.80 11.2644
715.90 11.18748
716.00 11.03056
716.10 10.87863
716.20 10.7973
716.30 10.81681
716.40 10.93365
716.50 11.13937
716.60 11.36049
716.70 11.49592
716.80 11.5184
716.90 11.44966
717.00 11.32786
717.10 11.19454
717.20 11.13157
717.30 11.22413
717.40 11.5157
717.50 11.99109
717.60 12.55237
717.70 13.08226
717.80 13.48771
717.90 13.69093
718.00 13.63376
718.10 13.31178
718.20 12.78494
718.30 12.17828
718.40 11.66176
718.50 11.39026
718.60 11.41654
718.70 11.67682
718.80 12.08752
718.90 12.61136
719.00 13.2355
719.10 13.92188
719.20 14.59432
719.30 15.15574
719.40 15.51585
719.50 15.60721
719.60 15.40614
719.70 14.94062
719.80 14.27618
719.90 13.4998
720.00 12.72513
720.10 12.10373
720.20 11.76774
720.30 11.75062
720.40 11.97609
720.50 12.30345
720.60 12.6004
720.70 12.79453
720.80 12.86435
720.90 12.82208
721.00 12.68426
721.10 12.45513
721.20 12.15734
721.30 11.84414
721.40 11.57432
721.50 11.39377
721.60 11.27954
721.70 11.1482
721.80 10.96354
721.90 10.79338
722.00 10.76452
722.10 10.93559
722.20 11.2737
722.30 11.7109
722.40 12.17324
722.50 12.60572
722.60 12.95891
722.70 13.17542
722.80 13.20216
722.90 13.01138
723.00 12.64739
723.10 12.23939
723.20 11.9232
723.30 11.73347
723.40 11.58551
723.50 11.41686
723.60 11.25801
723.70 11.13758
723.80 11.12115
723.90 11.30803
724.00 11.7103
724.10 12.26101
724.20 12.91979
724.30 13.63561
724.40 14.29043
724.50 14.77871
724.60 15.00107
724.70 14.87404
724.80 14.37025
724.90 13.5378
725.00 12.5584
725.10 11.69738
725.20 11.08577
725.30 10.72345
725.40 10.64518
725.50 10.93238
725.60 11.55953
725.70 12.37971
725.80 13.21564
725.90 13.84409
726.00 14.10697
726.10 14.01636
726.20 13.74737
726.30 13.51028
726.40 13.36017
726.50 13.236
726.60 13.11955
726.70 13.02993
726.80 12.9506
726.90 12.82705
727.00 12.6548
727.10 12.5189
727.20 12.54166
727.30 12.80716
727.40 13.30345
727.50 13.9788
727.60 14.73067
727.70 15.3814
727.80 15.76243
727.90 15.79627
728.00 15.50767
728.10 14.99502
728.20 14.40541
728.30 13.87499
728.40 13.46328
728.50 13.14561
728.60 12.87125
728.70 12.63896
728.80 12.45609
728.90 12.22342
729.00 11.77567
729.10 11.01707
729.20 10.01034
729.30 8.958665
729.40 8.093969
729.50 7.588943
729.60 7.542311
729.70 7.961867
729.80 8.748414
729.90 9.710242
730.00 10.58514
730.10 11.10743
730.20 11.11609
730.30 10.62734
730.40 9.833839
730.50 9.00874
730.60 8.377541
730.70 8.064777
730.80 8.132082
730.90 8.573417
731.00 9.268009
731.10 10.01937
731.20 10.62156
731.30 10.93593
731.40 10.94578
731.50 10.77323
731.60 10.62476
731.70 10.66215
731.80 10.9287
731.90 11.38378
732.00 11.95707
732.10 12.5404
732.20 12.98218
732.30 13.13249
732.40 12.95197
732.50 12.51914
732.60 11.99039
732.70 11.51571
732.80 11.17806
732.90 11.00809
733.00 10.9499
733.10 10.90809
733.20 10.83821
733.30 10.73116
733.40 10.58361
733.50 10.3788
733.60 10.06134
733.70 9.623431
733.80 9.187778
733.90 8.924702
734.00 8.927536
734.10 9.225213
734.20 9.799673
734.30 10.52386
734.40 11.19001
734.50 11.61697
734.60 11.6944
734.70 11.41642
734.80 10.86219
734.90 10.20161
735.00 9.699729
735.10 9.574419
735.20 9.82818
735.30 10.3046
735.40 10.81833
735.50 11.20859
735.60 11.34879
735.70 11.20198
735.80 10.87747
735.90 10.53274
736.00 10.26239
736.10 10.06218
736.20 9.908458
736.30 9.808549
736.40 9.760804
736.50 9.719098
736.60 9.552154
736.70 9.149829
736.80 8.576004
736.90 8.014569
737.00 7.63939
737.10 7.520586
737.20 7.640723
737.30 7.940679
737.40 8.370993
737.50 8.909575
737.60 9.499018
737.70 10.01653
737.80 10.31909
737.90 10.34181
738.00 10.15916
738.10 9.89451
738.20 9.615662
738.30 9.368775
738.40 9.244212
738.50 9.336033
738.60 9.694693
738.70 10.32727
738.80 11.15453
738.90 12.05097
739.00 12.90337
739.10 13.60321
739.20 14.04274
739.30 14.10717
739.40 13.74043
739.50 13.00802
739.60 12.08821
739.70 11.16836
739.80 10.37036
739.90 9.776114
740.00 9.385652
740.10 9.131972
740.20 8.968832
740.30 8.876989
740.40 8.823803
740.50 8.761546
740.60 8.675444
740.70 8.627259
740.80 8.699288
740.90 8.910781
741.00 9.16845
741.10 9.336266
741.20 9.326924
741.30 9.102694
741.40 8.696702
741.50 8.196472
741.60 7.708443
741.70 7.335537
741.80 7.150242
741.90 7.196446
742.00 7.473391
742.10 7.904765
742.20 8.374649
742.30 8.779436
742.40 9.090153
742.50 9.340657
742.60 9.545395
742.70 9.728135
742.80 9.94308
742.90 10.19678
743.00 10.41959
743.10 10.52765
743.20 10.48898
743.30 10.34297
743.40 10.19828
743.50 10.20252
743.60 10.43569
743.70 10.90926
743.80 11.51075
743.90 12.03472
744.00 12.33426
744.10 12.26802
744.20 11.74467
744.30 10.86629
744.40 9.864703
744.50 8.948066
744.60 8.246596
744.70 7.806097
744.80 7.598545
744.90 7.534547
745.00 7.54146
745.10 7.555027
745.20 7.542782
745.30 7.526889
745.40 7.534522
745.50 7.641268
745.60 7.890726
745.70 8.176796
745.80 8.360382
745.90 8.377637
746.00 8.172051
746.10 7.72715
746.20 7.118417
746.30 6.462769
746.40 5.871191
746.50 5.430595
746.60 5.189801
746.70 5.147377
746.80 5.288366
746.90 5.63169
747.00 6.190195
747.10 6.955675
747.20 7.850662
747.30 8.717364
747.40 9.444385
747.50 9.958437
747.60 10.15191
747.70 9.954433
747.80 9.371531
747.90 8.506015
748.00 7.57084
748.10 6.82346
748.20 6.441892
748.30 6.43713
748.40 6.721449
748.50 7.149492
748.60 7.536646
748.70 7.71935
748.80 7.596926
748.90 7.159641
749.00 6.499498
749.10 5.761969
749.20 5.129721
749.30 4.767822
749.40 4.744334
749.50 5.023628
749.60 5.51149
749.70 6.059281
749.80 6.469551
749.90 6.591876
750.00 6.397997
750.10 5.994587
750.20 5.546598
750.30 5.16162
750.40 4.870503
750.50 4.695155
750.60 4.66173
750.70 4.768415
750.80 4.985159
750.90 5.268399
751.00 5.574768
751.10 5.862836
751.20 6.09625
751.30 6.244526
751.40 6.273015
751.50 6.127994
751.60 5.765201
751.70 5.205124
751.80 4.576922
751.90 4.059712
752.00 3.725648
752.10 3.550043
752.20 3.566233
752.30 3.834879
752.40 4.291725
752.50 4.811481
752.60 5.290922
752.70 5.649478
752.80 5.840876
752.90 5.847105
753.00 5.683586
753.10 5.42138
753.20 5.144026
753.30 4.910719
753.40 4.836799
753.50 5.045584
753.60 5.484647
753.70 5.949942
753.80 6.259854
753.90 6.298875
754.00 6.029862
754.10 5.51995
754.20 4.897623
754.30 4.294425
754.40 3.832052
754.50 3.623057
754.60 3.715349
754.70 4.074421
754.80 4.595883
754.90 5.138331
755.00 5.567091
755.10 5.787788
755.20 5.784911
755.30 5.602917
755.40 5.319921
755.50 5.00958
755.60 4.744284
755.70 4.620178
755.80 4.712834
755.90 5.024672
756.00 5.477579
756.10 5.944627
756.20 6.329517
756.30 6.587342
756.40 6.718612
756.50 6.798532
756.60 6.910115
756.70 7.078528
756.80 7.265908
756.90 7.417239
757.00 7.489516
757.10 7.468181
757.20 7.366482
757.30 7.184761
757.40 6.933828
757.50 6.627317
757.60 6.280848
757.70 5.921397
757.80 5.546574
757.90 5.125525
758.00 4.601184
758.10 3.963634
758.20 3.30199
758.30 2.728791
758.40 2.337187
758.50 2.175933
758.60 2.232689
758.70 2.450296
758.80 2.773843
758.90 3.190226
759.00 3.659227
759.10 4.102869
759.20 4.500271
759.30 4.845063
759.40 5.191905
759.50 5.612721
759.60 6.10276
759.70 6.611562
759.80 7.066863
759.90 7.405942
760.00 7.542646
760.10 7.350493
760.20 6.745695
760.30 5.804602
760.40 4.697612
760.50 3.597641
760.60 2.65973
760.70 2.033523
760.80 1.812973
760.90 1.980819
761.00 2.417162
761.10 2.939514
761.20 3.351566
761.30 3.489724
761.40 3.314339
761.50 2.979846
761.60 2.725916
761.70 2.708652
761.80 2.984751
761.90 3.534076
762.00 4.246696
762.10 4.92817
762.20 5.328294
762.30 5.307756
762.40 4.90042
762.50 4.140159
762.60 3.076918
762.70 1.870835
762.80 0.7691371
762.90 0.0117317
763.00 0
763.10 0
763.20 0.3328134
763.30 0.9768278
763.40 1.647178
763.50 2.198788
763.60 2.539241
763.70 2.585452
763.80 2.283515
763.90 1.795753
764.00 1.396714
764.10 1.234704
764.20 1.309199
764.30 1.555478
764.40 1.876708
764.50 2.138729
764.60 2.236607
764.70 2.154517
764.80 1.951101
764.90 1.716545
765.00 1.53708
765.10 1.492065
765.20 1.606539
765.30 1.778329
765.40 1.828891
765.50 1.665827
765.60 1.293286
765.70 0.7403471
765.80 0.1048836
765.90 0
766.00 0
766.10 0
766.20 0
766.30 0.06894778
766.40 0.7139151
766.50 1.337797
766.60 1.786832
766.70 1.983142
766.80 1.948113
766.90 1.718405
767.00 1.337613
767.10 0.8933026
767.20 0.4597345
767.30 0.1110057
767.40 0
767.50 0
767.60 0.06313996
767.70 0.3290804
767.80 0.6752525
767.90 1.083366
768.00 1.58398
768.10 2.188921
768.20 2.812801
768.30 3.337199
768.40 3.685516
768.50 3.817467
768.60 3.757281
768.70 3.582381
768.80 3.360949
768.90 3.144982
769.00 2.953247
769.10 2.772549
769.20 2.641551
769.30 2.61911
769.40 2.644059
769.50 2.600347
769.60 2.457475
769.70 2.231579
769.80 1.977378
769.90 1.784535
770.00 1.707784
770.10 1.769409
770.20 1.960026
770.30 2.201201
770.40 2.385798
770.50 2.419916
770.60 2.115638
770.70 1.246937
770.80 0
770.90 0
771.00 0
771.10 0
771.20 0
771.30 0
771.40 0
771.50 0
771.60 0
771.70 0
771.80 0
771.90 0.1214413
772.00 0.6878461
772.10 0.9411143
772.20 0.9086492
772.30 0.664372
772.40 0.2968525
772.50 0
772.60 0
772.70 0
772.80 0
772.90 0
773.00 0.9127285
773.10 1.969899
773.20 2.924608
773.30 3.602527
773.40 3.946059
773.50 4.051006
773.60 4.037824
773.70 3.968216
773.80 3.873237
773.90 3.766245
774.00 3.615474
774.10 3.387989
774.20 3.059599
774.30 2.646731
774.40 2.21969
774.50 1.832879
774.60 1.536499
774.70 1.314852
774.80 1.123885
774.90 0.9882789
775.00 1.012131
775.10 1.278116
775.20 1.788522
775.30 2.48257
775.40 3.190749
775.50 3.670684
775.60 3.718445
775.70 3.246261
775.80 2.358587
775.90 1.267704
776.00 0.1621155
776.10 0
776.20 0
776.30 0
776.40 0
776.50 0.4785867
776.60 1.44043
776.70 2.289975
776.80 2.867142
776.90 3.211775
777.00 3.407397
777.10 3.472084
777.20 3.444659
777.30 3.420478
777.40 3.520136
777.50 3.803947
777.60 4.283501
777.70 4.930398
777.80 5.582002
777.90 6.044176
778.00 6.198626
778.10 6.047993
778.20 5.66927
778.30 5.132
778.40 4.577995
778.50 4.15461
778.60 3.860062
778.70 3.608214
778.80 3.411108
778.90 3.39134
779.00 3.519407
779.10 3.6586
779.20 3.811645
779.30 4.017018
779.40 4.24007
779.50 4.4208
779.60 4.530584
779.70 4.524898
779.80 4.331096
779.90 3.989927
780.00 3.661999
780.10 3.517463
780.20 3.563191
780.30 3.601962
780.40 3.50685
780.50 3.263991
780.60 2.86813
780.70 2.367187
780.80 1.881947
780.90 1.604201
781.00 1.692964
781.10 2.216119
781.20 3.143378
781.30 4.339101
781.40 5.618994
781.50 6.735761
781.60 7.411413
781.70 7.473074
781.80 6.898481
781.90 5.83552
782.00 4.578149
782.10 3.480933
782.20 2.883065
782.30 2.939727
782.40 3.617148
782.50 4.778796
782.60 6.189504
782.70 7.550238
782.80 8.546419
782.90 8.9973
783.00 8.963101
783.10 8.621158
783.20 8.147182
783.30 7.695057
783.40 7.36727
783.50 7.188268
783.60 7.119713
783.70 7.159358
783.80 7.306446
783.90 7.523609
784.00 7.793084
784.10 8.104244
784.20 8.427045
784.30 8.677043
784.40 8.772476
784.50 8.719012
784.60 8.582391
784.70 8.42252
784.80 8.260716
784.90 8.1637
785.00 8.317684
785.10 8.89172
785.20 9.9618
785.30 11.4578
785.40 13.12661
785.50 14.67511
785.60 15.87576
785.70 16.56603
785.80 16.63331
785.90 16.06348
786.00 14.97412
786.10 13.58929
786.20 12.21372
786.30 11.1043
786.40 10.32115
786.50 9.817217
786.60 9.511492
786.70 9.374002
786.80 9.449832
786.90 9.767446
787.00 10.32051
787.10 11.03097
787.20 11.69514
787.30 12.10781
787.40 12.18739
787.50 11.91992
787.60 11.3569
787.70 10.70681
787.80 10.24703
787.90 10.10958
788.00 10.332
788.10 10.90339
788.20 11.71899
788.30 12.54547
788.40 13.13058
788.50 13.3727
788.60 13.34683
788.70 13.1653
788.80 12.90948
788.90 12.69393
789.00 12.61144
789.10 12.5847
789.20 12.45579
789.30 12.21573
789.40 11.92473
789.50 11.60193
789.60 11.29499
789.70 11.11231
789.80 11.12234
789.90 11.30048
790.00 11.58459
790.10 11.91462
790.20 12.22367
790.30 12.44988
790.40 12.57315
790.50 12.64459
790.60 12.74732
790.70 12.87421
790.80 12.86635
790.90 12.55189
791.00 11.90008
791.10 10.99933
791.20 9.983245
791.30 9.057943
791.40 8.4236
791.50 8.170602
791.60 8.320154
791.70 8.824282
791.80 9.57723
791.90 10.43547
792.00 11.2279
792.10 11.82913
792.20 12.28892
792.30 12.73474
792.40 13.22603
792.50 13.74629
792.60 14.18763
792.70 14.34353
792.80 14.01758
792.90 13.17487
793.00 11.96893
793.10 10.62387
793.20 9.402838
793.30 8.531384
793.40 8.118751
793.50 8.247666
793.60 8.908855
793.70 9.949657
793.80 11.09896
793.90 12.08001
794.00 12.72082
794.10 12.99904
794.20 12.96135
794.30 12.57876
794.40 11.78184
794.50 10.61956
794.60 9.217532
794.70 7.770806
794.80 6.586865
794.90 5.93056
795.00 5.935204
795.10 6.596439
795.20 7.788016
795.30 9.283118
795.40 10.84195
795.50 12.24457
795.60 13.35323
795.70 14.13358
795.80 14.5794
795.90 14.76103
796.00 14.79928
796.10 14.79066
796.20 14.83397
796.30 14.97008
796.40 15.22136
796.50 15.66744
796.60 16.37218
796.70 17.34129
796.80 18.49063
796.90 19.66356
797.00 20.69182
797.10 21.45772
797.20 21.92173
797.30 22.03458
797.40 21.73525
797.50 21.04328
797.60 20.05184
797.70 18.92637
797.80 17.84773
797.90 16.93334
798.00 16.2485
798.10 15.83624
798.20 15.73671
798.30 15.9748
798.40 16.49219
798.50 17.16019
798.60 17.82158
798.70 18.35762
798.80 18.73074
798.90 18.95777
799.00 19.00239
799.10 18.77599
799.20 18.32693
799.30 17.85719
799.40 17.50411
799.50 17.24129
799.60 17.01507
799.70 16.82025
799.80 16.72604
799.90 16.84118
800.00 17.23954
800.10 17.88915
800.20 18.68055
800.30 19.45991
800.40 20.11166
800.50 20.62171
800.60 20.95513
800.70 21.00223
800.80 20.79115
800.90 20.51997
801.00 20.32704
801.10 20.22154
801.20 20.16762
801.30 20.13209
801.40 20.07317
801.50 19.98568
801.60 19.90037
801.70 19.84712
801.80 19.81161
801.90 19.75086
802.00 19.63432
802.10 19.51843
802.20 19.3807
802.30 19.16432
802.40 18.93803
802.50 18.87143
802.60 19.12222
802.70 19.69024
802.80 20.4968
802.90 21.37126
803.00 22.12237
803.10 22.66574
803.20 22.99502
803.30 23.13001
803.40 23.09789
803.50 22.88379
803.60 22.60175
803.70 22.43666
803.80 22.46299
803.90 22.62026
804.00 22.73018
804.10 22.6904
804.20 22.55448
804.30 22.48845
804.40 22.62207
804.50 22.98925
804.60 23.61886
804.70 24.49993
804.80 25.52739
804.90 26.56412
805.00 27.4615
805.10 28.06396
805.20 28.272
805.30 28.09813
805.40 27.66439
805.50 27.09773
805.60 26.44697
805.70 25.7535
805.80 25.09124
805.90 24.50918
806.00 23.99923
806.10 23.57698
806.20 23.32015
806.30 23.29662
806.40 23.49212
806.50 23.82831
806.60 24.22588
806.70 24.58694
806.80 24.78975
806.90 24.78126
807.00 24.62837
807.10 24.47004
807.20 24.47597
807.30 24.78757
807.40 25.4544
807.50 26.39493
807.60 27.39481
807.70 28.19621
807.80 28.60533
807.90 28.52389
808.00 27.97213
808.10 27.13748
808.20 26.32308
808.30 25.78198
808.40 25.64516
808.50 25.92628
808.60 26.54186
808.70 27.38172
808.80 28.2889
808.90 29.06201
809.00 29.56412
809.10 29.73719
809.20 29.5681
809.30 29.11668
809.40 28.49243
809.50 27.76096
809.60 26.96575
809.70 26.24319
809.80 25.72187
809.90 25.42381
810.00 25.31522
810.10 25.3092
810.20 25.34453
810.30 25.44321
810.40 25.642
810.50 25.96318
810.60 26.4378
810.70 27.03609
810.80 27.64358
810.90 28.1421
811.00 28.47403
811.10 28.63913
811.20 28.67632
811.30 28.6778
811.40 28.72139
811.50 28.81986
811.60 28.97322
811.70 29.17171
811.80 29.36914
811.90 29.51145
812.00 29.52762
812.10 29.39817
812.20 29.23209
812.30 29.19686
812.40 29.40267
812.50 29.8523
812.60 30.43481
812.70 31.01509
812.80 31.53804
812.90 31.97826
813.00 32.26942
813.10 32.31958
813.20 32.07385
813.30 31.61964
813.40 31.17604
813.50 30.92267
813.60 30.91139
813.70 31.09274
813.80 31.37849
813.90 31.63264
814.00 31.72997
814.10 31.54742
814.20 30.98745
814.30 30.14496
814.40 29.24682
814.50 28.54865
814.60 28.27841
814.70 28.48488
814.80 29.09638
814.90 30.05769
815.00 31.24887
815.10 32.47064
815.20 33.5331
815.30 34.30908
815.40 34.73617
815.50 34.8511
815.60 34.76668
815.70 34.53887
815.80 34.18774
815.90 33.79641
816.00 33.50168
816.10 33.42213
816.20 33.56007
816.30 33.81534
816.40 34.10686
816.50 34.40501
816.60 34.6993
816.70 35.01072
816.80 35.37614
816.90 35.79523
817.00 36.21093
817.10 36.56046
817.20 36.82416
817.30 36.98766
817.40 37.02377
817.50 36.91844
817.60 36.70679
817.70 36.44598
817.80 36.1796
817.90 35.9702
818.00 35.87619
818.10 35.86048
818.20 35.82993
818.30 35.71455
818.40 35.45376
818.50 35.0224
818.60 34.43311
818.70 33.74057
818.80 33.07095
818.90 32.54113
819.00 32.14477
819.10 31.82681
819.20 31.53949
819.30 31.22539
819.40 30.85115
819.50 30.46747
819.60 30.24203
819.70 30.38332
819.80 31.07181
819.90 32.3434
820.00 34.07031
820.10 36.05117
820.20 37.98864
820.30 39.62289
820.40 40.85373
820.50 41.60343
820.60 41.81435
820.70 41.56525
820.80 41.04133
820.90 40.45557
821.00 39.9653
821.10 39.63294
821.20 39.44838
821.30 39.39301
821.40 39.43672
821.50 39.46318
821.60 39.34485
821.70 38.96777
821.80 38.27095
821.90 37.36082
822.00 36.44461
822.10 35.69307
822.20 35.24331
822.30 35.21133
822.40 35.63951
822.50 36.4864
822.60 37.65155
822.70 38.98769
822.80 40.32955
822.90 41.47645
823.00 42.19826
823.10 42.3794
823.20 42.07655
823.30 41.45574
823.40 40.74928
823.50 40.16339
823.60 39.82716
823.70 39.83631
823.80 40.22614
823.90 40.94052
824.00 41.81273
824.10 42.54818
824.20 42.84955
824.30 42.60932
824.40 41.93791
824.50 41.07858
824.60 40.31124
824.70 39.86547
824.80 39.85991
824.90 40.31536
825.00 41.12569
825.10 42.04751
825.20 42.83268
825.30 43.30029
825.40 43.34142
825.50 43.00858
825.60 42.48318
825.70 41.94964
825.80 41.63818
825.90 41.72854
826.00 42.19822
826.10 42.92633
826.20 43.77929
826.30 44.62701
826.40 45.37586
826.50 45.91737
826.60 46.05394
826.70 45.64764
826.80 44.77549
826.90 43.64901
827.00 42.52781
827.10 41.65235
827.20 41.13953
827.30 40.97976
827.40 41.11878
827.50 41.4079
827.60 41.61362
827.70 41.53807
827.80 41.06495
827.90 40.18603
828.00 39.05316
828.10 37.90404
828.20 36.93667
828.30 36.3023
828.40 36.05497
828.50 36.11668
828.60 36.46808
828.70 37.17549
828.80 38.26797
828.90 39.74623
829.00 41.49399
829.10 43.26592
829.20 44.7846
829.30 45.82739
829.40 46.2728
829.50 46.05055
829.60 45.14771
829.70 43.69025
829.80 42.07243
829.90 40.85526
830.00 40.28247
830.10 40.26001
830.20 40.6489
830.30 41.26688
830.40 41.93522
830.50 42.50449
830.60 42.8526
830.70 42.90484
830.80 42.64142
830.90 42.23169
831.00 41.99422
831.10 42.17426
831.20 42.79425
831.30 43.69708
831.40 44.74474
831.50 45.81582
831.60 46.74245
831.70 47.40911
831.80 47.8403
831.90 48.13945
832.00 48.44334
832.10 48.90791
832.20 49.66559
832.30 50.708
832.40 51.83023
832.50 52.76512
832.60 53.29864
832.70 53.34555
832.80 52.95159
832.90 52.24352
833.00 51.36744
833.10 50.43324
833.20 49.51411
833.30 48.68067
833.40 48.04575
833.50 47.74569
833.60 47.79904
833.70 48.05233
833.80 48.31845
833.90 48.41688
834.00 48.14558
834.10 47.36634
834.20 46.13786
834.30 44.74766
834.40 43.6744
834.50 43.37147
834.60 44.00941
834.70 45.49237
834.80 47.47504
834.90 49.44041
835.00 50.93634
835.10 51.62366
835.20 51.4192
835.30 50.57493
835.40 49.49275
835.50 48.60991
835.60 48.23844
835.70 48.47266
835.80 49.14564
835.90 49.96536
836.00 50.73531
836.10 51.33047
836.20 51.66293
836.30 51.70758
836.40 51.5395
836.50 51.39228
836.60 51.44541
836.70 51.70381
836.80 52.14239
836.90 52.70682
837.00 53.29888
837.10 53.80143
837.20 54.08991
837.30 54.06569
837.40 53.72533
837.50 53.21122
837.60 52.75054
837.70 52.50879
837.80 52.50037
837.90 52.62989
838.00 52.80796
838.10 52.97082
838.20 53.07006
838.30 53.11294
838.40 53.11037
838.50 53.04671
838.60 52.93133
838.70 52.79706
838.80 52.67624
838.90 52.56422
839.00 52.37466
839.10 52.05282
839.20 51.70039
839.30 51.4628
839.40 51.36774
839.50 51.33393
839.60 51.17515
839.70 50.65204
839.80 49.78849
839.90 48.88516
840.00 48.17534
840.10 47.77098
840.20 47.74925
840.30 48.12099
840.40 48.89588
840.50 50.0956
840.60 51.63564
840.70 53.31597
840.80 54.85209
840.90 56.05705
841.00 57.02438
841.10 57.87303
841.20 58.37453
841.30 58.17962
841.40 57.30878
841.50 56.11025
841.60 54.96599
841.70 54.16118
841.80 53.8401
841.90 53.95204
842.00 54.27582
842.10 54.6594
842.20 55.17175
842.30 55.86434
842.40 56.59769
842.50 57.21166
842.60 57.78816
842.70 58.49915
842.80 59.27284
842.90 59.90572
843.00 60.20969
843.10 60.0144
843.20 59.25116
843.30 58.03188
843.40 56.64642
843.50 55.34062
843.60 54.22171
843.70 53.40313
843.80 52.99938
843.90 53.11416
844.00 53.71262
844.10 54.6225
844.20 55.70431
844.30 56.79288
844.40 57.70265
844.50 58.34101
844.60 58.71519
844.70 58.89915
844.80 58.87648
844.90 58.48857
845.00 57.64844
845.10 56.41524
845.20 54.9591
845.30 53.5257
845.40 52.37318
845.50 51.66295
845.60 51.39724
845.70 51.5399
845.80 52.03488
845.90 52.76708
846.00 53.62297
846.10 54.43099
846.20 54.91623
846.30 54.90348
846.40 54.44187
846.50 53.70929
846.60 52.92908
846.70 52.29324
846.80 51.92612
846.90 51.87554
847.00 52.16451
847.10 52.75683
847.20 53.61571
847.30 54.69382
847.40 55.72118
847.50 56.37043
847.60 56.61737
847.70 56.68269
847.80 56.71184
847.90 56.70537
848.00 56.59015
848.10 56.33607
848.20 56.03788
848.30 55.85941
848.40 55.92259
848.50 56.25597
848.60 56.74218
848.70 57.1893
848.80 57.48356
848.90 57.58692
849.00 57.51562
849.10 57.27718
849.20 56.84333
849.30 56.27736
849.40 55.77179
849.50 55.46441
849.60 55.32728
849.70 55.32406
849.80 55.50298
849.90 55.90626
850.00 56.50523
850.10 57.14422
850.20 57.59429
850.30 57.72531
850.40 57.56649
850.50 57.24359
850.60 56.9253
850.70 56.71745
850.80 56.5955
850.90 56.54677
851.00 56.62282
851.10 56.76856
851.20 56.7883
851.30 56.52046
851.40 55.87529
851.50 54.84367
851.60 53.50691
851.70 51.86232
851.80 49.76759
851.90 47.16539
852.00 44.20617
852.10 41.19222
852.20 38.5662
852.30 36.81905
852.40 36.31017
852.50 37.17926
852.60 39.34148
852.70 42.44284
852.80 45.99019
852.90 49.59196
853.00 53.00806
853.10 56.10315
853.20 58.80797
853.30 61.08695
853.40 62.94109
853.50 64.42714
853.60 65.57497
853.70 66.32924
853.80 66.65411
853.90 66.62721
854.00 66.38848
854.10 66.10121
854.20 65.89887
854.30 65.77882
854.40 65.60802
854.50 65.21088
854.60 64.45655
854.70 63.3788
854.80 62.18069
854.90 61.11712
855.00 60.47792
855.10 60.5077
855.20 61.25569
855.30 62.57178
855.40 64.2291
855.50 65.98523
855.60 67.57329
855.70 68.74478
855.80 69.34844
855.90 69.43614
856.00 69.25578
856.10 69.03474
856.20 68.93351
856.30 69.10347
856.40 69.57177
856.50 70.24331
856.60 71.03425
856.70 71.92935
856.80 72.93628
856.90 73.95689
857.00 74.73164
857.10 74.9858
857.20 74.58252
857.30 73.53837
857.40 71.97524
857.50 70.12818
857.60 68.29243
857.70 66.69466
857.80 65.51244
857.90 64.89883
858.00 64.921
858.10 65.51082
858.20 66.42904
858.30 67.35932
858.40 68.10737
858.50 68.62388
858.60 68.89376
858.70 68.87994
858.80 68.55005
858.90 67.91467
859.00 66.99588
859.10 65.85949
859.20 64.61881
859.30 63.39085
859.40 62.33445
859.50 61.5933
859.60 61.2938
859.70 61.54903
859.80 62.38699
859.90 63.69975
860.00 65.26707
860.10 66.88104
860.20 68.38243
860.30 69.63564
860.40 70.52803
860.50 70.96272
860.60 70.87702
860.70 70.28703
860.80 69.20925
860.90 67.65888
861.00 65.67146
861.10 63.32059
861.20 60.73046
861.30 58.04557
861.40 55.44366
861.50 53.11517
861.60 51.17936
861.70 49.57022
861.80 48.17477
861.90 46.96486
862.00 45.93418
862.10 45.08759
862.20 44.48343
862.30 44.17398
862.40 44.11395
862.50 44.19337
862.60 44.27221
862.70 44.13439
862.80 43.46923
862.90 42.11314
863.00 40.29161
863.10 38.57987
863.20 37.57357
863.30 37.67017
863.40 39.06131
863.50 41.62988
863.60 44.89641
863.70 48.20136
863.80 50.93848
863.90 52.61351
864.00 52.93793
864.10 52.03832
864.20 50.47433
864.30 48.84231
864.40 47.46226
864.50 46.39862
864.60 45.56828
864.70 44.84932
864.80 44.13176
864.90 43.4028
865.00 42.8119
865.10 42.52127
865.20 42.58854
865.30 43.04355
865.40 43.89376
865.50 45.06853
865.60 46.43843
865.70 47.82414
865.80 49.07128
865.90 50.08794
866.00 50.87266
866.10 51.55855
866.20 52.30857
866.30 53.19779
866.40 54.21156
866.50 55.30599
866.60 56.38626
866.70 57.22352
866.80 57.5676
866.90 57.45099
867.00 57.20177
867.10 57.10333
867.20 57.23248
867.30 57.62337
867.40 58.30032
867.50 59.1741
867.60 60.06956
867.70 60.66073
867.80 60.51696
867.90 59.42145
868.00 57.51929
868.10 55.24324
868.20 53.15352
868.30 51.67707
868.40 50.9924
868.50 51.17808
868.60 52.2193
868.70 53.88796
868.80 55.74616
868.90 57.24411
869.00 57.86361
869.10 57.39635
869.20 56.062
869.30 54.21667
869.40 52.22134
869.50 50.53509
869.60 49.63354
869.70 49.70197
869.80 50.51027
869.90 51.69261
870.00 52.93542
870.10 53.9028
870.20 54.23881
870.30 53.6899
870.40 52.26017
870.50 50.34416
870.60 48.52919
870.70 47.2659
870.80 46.81908
870.90 47.22711
871.00 48.32447
871.10 49.84719
871.20 51.46714
871.30 52.90458
871.40 53.98215
871.50 54.61832
871.60 54.84064
871.70 54.81771
871.80 54.72549
871.90 54.53112
872.00 54.09475
872.10 53.43877
872.20 52.71818
872.30 52.13718
872.40 51.82531
872.50 51.83719
872.60 52.27101
872.70 53.0714
872.80 54.00661
872.90 54.83884
873.00 55.39097
873.10 55.5189
873.20 55.19161
873.30 54.52099
873.40 53.65477
873.50 52.77512
873.60 52.05914
873.70 51.61717
873.80 51.52081
873.90 51.7661
874.00 52.22008
874.10 52.71697
874.20 53.18894
874.30 53.62491
874.40 54.02246
874.50 54.40235
874.60 54.79037
874.70 55.15965
874.80 55.42293
874.90 55.55342
875.00 55.6099
875.10 55.63436
875.20 55.60228
875.30 55.51229
875.40 55.47965
875.50 55.58342
875.60 55.68862
875.70 55.61313
875.80 55.34349
875.90 54.95111
876.00 54.51391
876.10 54.227
876.20 54.35581
876.30 54.91783
876.40 55.63296
876.50 56.20168
876.60 56.46282
876.70 56.45027
876.80 56.436
876.90 56.74011
877.00 57.64182
877.10 59.32958
877.20 61.76494
877.30 64.72932
877.40 67.79515
877.50 70.2698
877.60 71.41249
877.70 70.90217
877.80 68.90469
877.90 65.96157
878.00 62.8472
878.10 60.18155
878.20 58.19037
878.30 56.96633
878.40 56.50343
878.50 56.59958
878.60 56.95664
878.70 57.22889
878.80 57.1304
878.90 56.62031
879.00 56.02612
879.10 55.76714
879.20 56.21558
879.30 57.5288
879.40 59.51923
879.50 61.78079
879.60 63.79683
879.70 65.07475
879.80 65.35805
879.90 64.70291
880.00 63.34753
880.10 61.64993
880.20 60.10785
880.30 59.20516
880.40 59.13143
880.50 59.76832
880.60 60.81843
880.70 61.93138
880.80 62.83871
880.90 63.45011
881.00 63.88406
881.10 64.3534
881.20 64.98008
881.30 65.77201
881.40 66.73315
881.50 67.864
881.60 69.0849
881.70 70.16655
881.80 70.77608
881.90 70.61849
882.00 69.64583
882.10 68.1837
882.20 66.8666
882.30 66.25346
882.40 66.40715
882.50 67.10158
882.60 67.99007
882.70 68.57445
882.80 68.41887
882.90 67.30574
883.00 65.21153
883.10 62.41273
883.20 59.45758
883.30 56.94856
883.40 55.4612
883.50 55.29344
883.60 56.29579
883.70 58.13528
883.80 60.58628
883.90 63.31855
884.00 65.92223
884.10 68.19163
884.20 69.91072
884.30 70.74261
884.40 70.54118
884.50 69.46477
884.60 67.90665
884.70 66.44189
884.80 65.54082
884.90 65.42433
885.00 66.10949
885.10 67.46741
885.20 69.22495
885.30 70.96912
885.40 72.26765
885.50 72.76477
885.60 72.38126
885.70 71.36445
885.80 70.07272
885.90 68.8475
886.00 67.9729
886.10 67.62592
886.20 67.84291
886.30 68.49657
886.40 69.31592
886.50 69.8852
886.60 69.87304
886.70 69.23709
886.80 68.1494
886.90 66.86559
887.00 65.57427
887.10 64.47663
887.20 63.82224
887.30 63.76519
887.40 64.34318
887.50 65.55899
887.60 67.32203
887.70 69.37521
887.80 71.3564
887.90 73.00007
888.00 74.19927
888.10 74.79088
888.20 74.42314
888.30 73.01799
888.40 71.13702
888.50 69.61705
888.60 69.17279
888.70 70.17874
888.80 72.53553
888.90 75.69412
889.00 78.90079
889.10 81.45121
889.20 82.83903
889.30 82.80896
889.40 81.34764
889.50 78.90828
889.60 76.51906
889.70 75.13499
889.80 75.07024
889.90 76.10605
890.00 77.70303
890.10 79.24414
890.20 80.32042
890.30 80.73977
890.40 80.37872
890.50 79.21305
890.60 77.43811
890.70 75.41086
890.80 73.53618
890.90 72.1545
891.00 71.39151
891.10 71.17483
891.20 71.39531
891.30 71.95014
891.40 72.75171
891.50 73.66043
891.60 74.20727
891.70 73.46966
891.80 70.89298
891.90 66.95443
892.00 62.60318
892.10 58.75531
892.20 56.1121
892.30 54.99992
892.40 55.40607
892.50 57.07617
892.60 59.53178
892.70 62.14515
892.80 64.31028
892.90 65.61083
893.00 66.1006
893.10 66.55683
893.20 67.73897
893.30 69.68996
893.40 72.03361
893.50 74.28139
893.60 75.91989
893.70 76.5976
893.80 76.14899
893.90 74.35485
894.00 71.01214
894.10 66.23121
894.20 60.52653
894.30 54.77121
894.40 50.01834
894.50 47.12304
894.60 46.5117
894.70 48.12451
894.80 51.48765
894.90 55.91107
895.00 60.67588
895.10 65.12545
895.20 68.85573
895.30 71.72012
895.40 73.67711
895.50 74.81196
895.60 75.31073
895.70 75.30924
895.80 74.89687
895.90 74.20333
896.00 73.36583
896.10 72.55394
896.20 71.93362
896.30 71.61074
896.40 71.63952
896.50 71.95373
896.60 72.32036
896.70 72.62014
896.80 72.96694
896.90 73.47307
897.00 74.1548
897.10 75.00772
897.20 76.04797
897.30 77.28683
897.40 78.69119
897.50 80.13592
897.60 81.52028
897.70 82.79932
897.80 83.81044
897.90 84.35754
898.00 84.40244
898.10 84.1091
898.20 83.86995
898.30 84.14731
898.40 85.0192
898.50 85.97042
898.60 86.27551
898.70 85.43288
898.80 83.43099
898.90 80.68261
899.00 77.75281
899.10 75.18942
899.20 73.50869
899.30 73.09233
899.40 74.02027
899.50 76.10313
899.60 78.8313
899.70 81.27987
899.80 82.7694
899.90 83.62775
900.00 83.66639
900.10 83.70503
900.20 83.74367
900.30 83.78231
900.40 83.82095
900.50 83.85959
900.60 83.89824
900.70 83.93688
900.80 83.97552
900.90 84.4068
901.00 85.04035
901.10 85.6739
901.20 86.30745
901.30 86.941
901.40 87.57455
901.50 88.2081
901.60 88.84165
901.70 89.4752
901.80 90.10875
901.90 90.7423
902.00 91.37585
902.10 92.0094
902.20 92.64295
902.30 93.2765
902.40 93.91005
902.50 94.5436
902.60 95.17715
902.70 95.8107
902.80 96.44425
902.90 97.0778
903.00 97.71135
903.10 98.3449
903.20 98.97845
903.30 99.60371
903.40 100.2165
903.50 100.8293
903.60 101.4421
903.70 102.055
903.80 102.6678
903.90 103.2806
904.00 103.8934
904.10 104.5062
904.20 105.119
904.30 105.6734
904.40 106.1668
904.50 106.6603
904.60 107.1538
904.70 107.6473
904.80 108.1407
904.90 108.6342
905.00 109.1277
905.10 109.6211
905.20 110.1146
905.30 110.6081
905.40 111.1016
905.50 111.595
905.60 112.0885
905.70 112.582
905.80 113.0755
905.90 113.5689
906.00 114.0624
906.10 114.5559
906.20 115.0494
906.30 115.5428
906.40 116.0363
906.50 116.5298
906.60 117.0233
906.70 117.5082
906.80 117.9165
906.90 118.3249
907.00 118.7332
907.10 119.1415
907.20 119.5498
907.30 119.9582
907.40 120.3665
907.50 120.7748
907.60 121.1831
907.70 121.5101
907.80 121.3375
907.90 121.1649
908.00 120.9923
908.10 120.8197
908.20 120.6471
908.30 120.4745
908.40 120.3019
908.50 120.1293
908.60 119.9567
908.70 119.7841
908.80 119.6115
908.90 119.4389
909.00 119.2663
909.10 119.0937
909.20 118.9211
909.30 118.7485
909.40 118.5759
909.50 118.4033
909.60 118.2307
909.70 118.0581
909.80 117.8855
909.90 117.7129
910.00 117.5403
910.10 117.3677
910.20 117.2385
910.30 117.136
910.40 117.0335
910.50 116.931
910.60 116.8285
910.70 116.726
910.80 116.6234
910.90 116.5209
911.00 116.4184
911.10 116.3159
911.20 116.2735
911.30 116.2696
911.40 116.2657
911.50 116.2618
911.60 116.2579
911.70 116.254
911.80 116.2501
911.90 116.2462
912.00 116.2423
912.10 116.2385
912.20 116.2346
912.30 116.2307
912.40 116.2268
912.50 116.2229
912.60 116.219
912.70 116.2151
912.80 116.2112
912.90 116.2073
913.00 116.2034
913.10 116.1995
913.20 116.1956
913.30 116.1917
913.40 116.1878
913.50 116.1839
913.60 116.18
913.70 116.1702
913.80 116.1602
913.90 116.1502
914.00 116.1402
914.10 116.1302
914.20 116.1202
914.30 116.1102
914.40 116.1002
914.50 116.0902
914.60 116.0802
914.70 116.5601
914.80 117.1005
914.90 117.641
915.00 118.1814
915.10 118.7218
915.20 119.2622
915.30 119.8027
915.40 120.3431
915.50 120.8835
915.60 121.424
915.70 121.9644
915.80 122.5048
915.90 123.0452
916.00 123.5857
916.10 124.1261
916.20 124.6665
916.30 125.2069
916.40 125.7474
916.50 126.2878
916.60 126.8282
916.70 127.3687
916.80 127.9091
916.90 128.4495
917.00 128.9899
917.10 129.5254
917.20 130.024
917.30 130.5226
917.40 131.0213
917.50 131.5199
917.60 132.0185
917.70 132.5172
917.80 133.0158
917.90 133.5144
918.00 134.0131
918.10 134.5079
918.20 134.6259
918.30 134.7439
918.40 134.8619
918.50 134.9799
918.60 135.0979
918.70 135.2159
918.80 135.334
918.90 135.452
919.00 135.57
919.10 135.688
919.20 135.806
919.30 135.924
919.40 136.042
919.50 136.16
919.60 136.278
919.70 136.396
919.80 136.514
919.90 136.632
920.00 136.7501
920.10 136.8681
920.20 136.9861
920.30 137.1041
920.40 137.2221
920.50 137.3401
920.60 137.4596
920.70 137.5909
920.80 137.7223
920.90 137.8536
921.00 137.985
921.10 138.1164
921.20 138.2477
921.30 138.3791
921.40 138.5104
921.50 138.6418
921.60 138.7731
921.70 138.8203
921.80 138.8621
921.90 138.9039
922.00 138.9457
922.10 138.9875
922.20 139.0293
922.30 139.0711
922.40 139.1129
922.50 139.1547
922.60 139.1965
922.70 139.2383
922.80 139.2801
922.90 139.3219
923.00 139.3637
923.10 139.4055
923.20 139.4473
923.30 139.4891
923.40 139.5309
923.50 139.5727
923.60 139.6145
923.70 139.6563
923.80 139.6981
923.90 139.7399
924.00 139.7817
924.10 139.8235
924.20 139.8517
924.30 139.8788
924.40 139.9058
924.50 139.9329
924.60 139.9599
924.70 139.9869
924.80 140.014
924.90 140.041
925.00 140.0681
925.10 140.0951
925.20 139.9032
925.30 139.6175
925.40 139.3318
925.50 139.0461
925.60 138.7604
925.70 138.4746
925.80 138.1889
925.90 137.9032
926.00 137.6175
926.10 137.3318
926.20 137.0461
926.30 136.7604
926.40 136.4746
926.50 136.1889
926.60 135.9032
926.70 135.6175
926.80 135.3318
926.90 135.0461
927.00 134.7604
927.10 134.4746
927.20 134.1889
927.30 133.9032
927.40 133.6175
927.50 133.3318
927.60 133.0461
927.70 132.7936
927.80 132.5684
927.90 132.3432
928.00 132.118
928.10 131.8928
928.20 131.6675
928.30 131.4423
928.40 131.2171
928.50 130.9919
928.60 130.7667
928.70 130.7538
928.80 131.2607
928.90 131.7677
929.00 132.2746
929.10 132.7815
929.20 133.2885
929.30 133.7954
929.40 134.3024
929.50 134.8093
929.60 135.3163
929.70 135.8232
929.80 136.3302
929.90 136.8371
930.00 137.344
930.10 137.851
930.20 138.3579
930.30 138.8649
930.40 139.3718
930.50 139.8788
930.60 140.3857
930.70 140.8926
930.80 141.3996
930.90 141.9065
931.00 142.4135
931.10 142.9204
931.20 143.4267
931.30 143.8992
931.40 144.3717
931.50 144.8442
931.60 145.3167
931.70 145.7892
931.80 146.2617
931.90 146.7342
932.00 147.2067
932.10 147.6793
932.20 148.1518
932.30 147.9721
932.40 147.513
932.50 147.0539
932.60 146.5947
932.70 146.1356
932.80 145.6764
932.90 145.2173
933.00 144.7582
933.10 144.299
933.20 143.8399
933.30 143.3808
933.40 142.9216
933.50 142.4625
933.60 142.0034
933.70 141.5442
933.80 141.0851
933.90 140.6259
934.00 140.1668
934.10 139.7077
934.20 139.2485
934.30 138.7894
934.40 138.3303
934.50 137.8711
934.60 137.412
934.70 136.9529
934.80 136.4956
934.90 136.0424
935.00 135.5892
935.10 135.136
935.20 134.6828
935.30 134.2296
935.40 133.7764
935.50 133.3232
935.60 132.87
935.70 132.4167
935.80 131.9635
935.90 132.208
936.00 132.4971
936.10 132.7861
936.20 133.0751
936.30 133.3641
936.40 133.6531
936.50 133.9421
936.60 134.2312
936.70 134.5202
936.80 134.8092
936.90 135.0982
937.00 135.3872
937.10 135.6763
937.20 135.9653
937.30 136.2543
937.40 136.5433
937.50 136.8323
937.60 137.1214
937.70 137.4104
937.80 137.6994
937.90 137.9884
938.00 138.2774
938.10 138.5664
938.20 138.8555
938.30 139.1445
938.40 139.4379
938.50 139.7371
938.60 140.0363
938.70 140.3355
938.80 140.6347
938.90 140.9339
939.00 141.2332
939.10 141.5324
939.20 141.8316
939.30 142.1308
939.40 142.4284
939.50 142.6448
939.60 142.8613
939.70 143.0778
939.80 143.2943
939.90 143.5107
940.00 143.7272
940.10 143.9437
940.20 144.1602
940.30 144.3766
940.40 144.5931
940.50 144.8096
940.60 145.0261
940.70 145.2425
940.80 145.459
940.90 145.6755
941.00 145.892
941.10 146.1084
941.20 146.3249
941.30 146.5414
941.40 146.7579
941.50 146.9743
941.60 147.1908
941.70 147.4073
941.80 147.6238
941.90 147.8402
942.00 148.0543
942.10 148.2646
942.20 148.4749
942.30 148.6853
942.40 148.8956
942.50 149.1059
942.60 149.3162
942.70 149.5265
942.80 149.7368
942.90 149.9471
943.00 150.1575
943.10 150.767
943.20 151.4066
943.30 152.0462
943.40 152.6858
943.50 153.3253
943.60 153.9649
943.70 154.6045
943.80 155.2441
943.90 155.8837
944.00 156.5233
944.10 157.1628
944.20 157.8024
944.30 158.442
944.40 159.0816
944.50 159.7212
944.60 160.3608
944.70 161.0003
944.80 161.6399
944.90 162.2795
945.00 162.9191
945.10 163.5587
945.20 164.1983
945.30 164.8379
945.40 165.4774
945.50 166.117
945.60 166.7486
945.70 167.3437
945.80 167.9388
945.90 168.5339
946.00 169.129
946.10 169.7241
946.20 170.3192
946.30 170.9143
946.40 171.5094
946.50 172.1044
946.60 172.6995
946.70 173.0297
946.80 173.2293
946.90 173.4289
947.00 173.6286
947.10 173.8282
947.20 174.0278
947.30 174.2275
947.40 174.4271
947.50 174.6267
947.60 174.8264
947.70 175.026
947.80 175.2256
947.90 175.4253
948.00 175.6249
948.10 175.8246
948.20 176.0242
948.30 176.2238
948.40 176.4235
948.50 176.6231
948.60 176.8227
948.70 177.0224
948.80 177.222
948.90 177.4216
949.00 177.6213
949.10 177.8209
949.20 178.0205
949.30 178.2292
949.40 178.44
949.50 178.6508
949.60 178.8615
949.70 179.0723
949.80 179.2831
949.90 179.4939
950.00 179.7047
950.10 179.9154
950.20 180.1262
950.30 180.2371
950.40 180.0481
950.50 179.8592
950.60 179.6703
950.70 179.4813
950.80 179.2924
950.90 179.1034
951.00 178.9145
951.10 178.7255
951.20 178.5366
951.30 178.3476
951.40 178.1587
951.50 177.9698
951.60 177.7808
951.70 177.5919
951.80 177.4029
951.90 177.214
952.00 177.025
952.10 176.8361
952.20 176.6472
952.30 176.4582
952.40 176.2693
952.50 176.0803
952.60 175.8914
952.70 175.7024
952.80 175.5135
952.90 175.3271
953.00 175.1476
953.10 174.9681
953.20 174.7886
953.30 174.6091
953.40 174.4297
953.50 174.2502
953.60 174.0707
953.70 173.8912
953.80 173.7117
953.90 173.5322
954.00 173.7518
954.10 174.1771
954.20 174.6024
954.30 175.0277
954.40 175.4529
954.50 175.8782
954.60 176.3035
954.70 176.7287
954.80 177.154
954.90 177.5793
955.00 178.0045
955.10 178.4298
955.20 178.8551
955.30 179.2804
955.40 179.7056
955.50 180.1309
955.60 180.5562
955.70 180.9814
955.80 181.4067
955.90 181.832
956.00 182.2572
956.10 182.6825
956.20 183.1078
956.30 183.533
956.40 183.9583
956.50 184.3836
956.60 184.8135
956.70 185.2469
956.80 185.6803
956.90 186.1137
957.00 186.5471
957.10 186.9804
957.20 187.4138
957.30 187.8472
957.40 188.2806
957.50 188.714
957.60 189.1474
957.70 188.8623
957.80 188.5148
957.90 188.1672
958.00 187.8197
958.10 187.4721
958.20 187.1246
958.30 186.777
958.40 186.4294
958.50 186.0819
958.60 185.7343
958.70 185.3868
958.80 185.0392
958.90 184.6917
959.00 184.3441
959.10 183.9966
959.20 183.649
959.30 183.3015
959.40 182.9539
959.50 182.6063
959.60 182.2588
959.70 181.9112
959.80 181.5637
959.90 181.2161
960.00 180.8686
960.10 180.521
960.20 180.1735
960.30 179.8459
960.40 179.5266
960.50 179.2073
960.60 178.8879
960.70 178.5686
960.80 178.2493
960.90 177.9299
961.00 177.6106
961.10 177.2913
961.20 176.9719
961.30 176.6659
961.40 177.0107
961.50 177.3554
961.60 177.7002
961.70 178.045
961.80 178.3898
961.90 178.7346
962.00 179.0793
962.10 179.4241
962.20 179.7689
962.30 180.1137
962.40 180.4585
962.50 180.8033
962.60 181.148
962.70 181.4928
962.80 181.8376
962.90 182.1824
963.00 182.5272
963.10 182.872
963.20 183.2167
963.30 183.5615
963.40 183.9063
963.50 184.2511
963.60 184.5959
963.70 184.9406
963.80 185.2854
963.90 185.6302
964.00 185.9543
964.10 186.2695
964.20 186.5847
964.30 186.8998
964.40 187.215
964.50 187.5302
964.60 187.8454
964.70 188.1606
964.80 188.4758
964.90 188.791
965.00 189.1062
965.10 189.1402
965.20 189.1625
965.30 189.1848
965.40 189.2071
965.50 189.2294
965.60 189.2517
965.70 189.274
965.80 189.2963
965.90 189.3186
966.00 189.3409
966.10 189.3632
966.20 189.3855
966.30 189.4078
966.40 189.4301
966.50 189.4524
966.60 189.4747
966.70 189.497
966.80 189.5193
966.90 189.5416
967.00 189.5639
967.10 189.5862
967.20 189.6085
967.30 189.6308
967.40 189.6531
967.50 189.6754
967.60 189.6977
967.70 189.7286
967.80 189.7671
967.90 189.8056
968.00 189.8441
968.10 189.8827
968.20 189.9212
968.30 189.9597
968.40 189.9982
968.50 190.0367
968.60 190.0752
968.70 190.1137
968.80 190.0842
968.90 190.0308
969.00 189.9774
969.10 189.924
969.20 189.8706
969.30 189.8172
969.40 189.7638
969.50 189.7104
969.60 189.657
969.70 189.6036
969.80 189.5502
969.90 189.4969
970.00 189.4435
970.10 189.3901
970.20 189.3367
970.30 189.2833
970.40 189.2299
970.50 189.1765
970.60 189.1231
970.70 189.0697
970.80 189.0163
970.90 188.9629
971.00 188.9095
971.10 188.8561
971.20 188.8027
971.30 188.7493
971.40 188.6931
971.50 188.6258
971.60 188.5585
971.70 188.4912
971.80 188.4239
971.90 188.3566
972.00 188.2893
972.10 188.222
972.20 188.1547
972.30 188.0874
972.40 188.0201
972.50 188.135
972.60 188.56
972.70 188.985
972.80 189.41
972.90 189.835
973.00 190.26
973.10 190.685
973.20 191.11
973.30 191.535
973.40 191.96
973.50 192.385
973.60 192.8101
973.70 193.2351
973.80 193.6601
973.90 194.0851
974.00 194.5101
974.10 194.9351
974.20 195.3601
974.30 195.7851
974.40 196.2101
974.50 196.6351
974.60 197.0601
974.70 197.4851
974.80 197.9101
974.90 198.3352
975.00 198.7602
975.10 199.1852
975.20 199.5988
975.30 200.008
975.40 200.4172
975.50 200.8264
975.60 201.2356
975.70 201.6448
975.80 202.0539
975.90 202.4631
976.00 202.8723
976.10 203.2815
976.20 203.6907
976.30 203.5609
976.40 203.336
976.50 203.1111
976.60 202.8861
976.70 202.6612
976.80 202.4363
976.90 202.2114
977.00 201.9864
977.10 201.7615
977.20 201.5366
977.30 201.3117
977.40 201.0868
977.50 200.8618
977.60 200.6369
977.70 200.412
977.80 200.1871
977.90 199.9621
978.00 199.7372
978.10 199.5123
978.20 199.2874
978.30 199.0624
978.40 198.8375
978.50 198.6126
978.60 198.3877
978.70 198.1628
978.80 197.9378
978.90 197.7102
979.00 197.4578
979.10 197.2054
979.20 196.953
979.30 196.7007
979.40 196.4483
979.50 196.1959
979.60 195.9435
979.70 195.6911
979.80 195.4388
979.90 195.1864
980.00 195.0408
980.10 195.3819
980.20 195.7229
980.30 196.0639
980.40 196.405
980.50 196.746
980.60 197.087
980.70 197.4281
980.80 197.7691
980.90 198.1101
981.00 198.4512
981.10 198.7922
981.20 199.1332
981.30 199.4742
981.40 199.8153
981.50 200.1563
981.60 200.4973
981.70 200.8384
981.80 201.1794
981.90 201.5204
982.00 201.8615
982.10 202.2025
982.20 202.5435
982.30 202.8846
982.40 203.2256
982.50 203.5666
982.60 203.9077
982.70 204.2388
982.80 204.549
982.90 204.8592
983.00 205.1695
983.10 205.4797
983.20 205.7899
983.30 206.1001
983.40 206.4103
983.50 206.7205
983.60 207.0307
983.70 207.3409
983.80 207.3892
983.90 206.9719
984.00 206.5546
984.10 206.1373
984.20 205.72
984.30 205.3027
984.40 204.8854
984.50 204.4681
984.60 204.0509
984.70 203.6336
984.80 203.2163
984.90 202.799
985.00 202.3817
985.10 201.9644
985.20 201.5471
985.30 201.1298
985.40 200.7125
985.50 200.2952
985.60 199.8779
985.70 199.4606
985.80 199.0433
985.90 198.626
986.00 198.2087
986.10 197.7914
986.20 197.3741
986.30 196.9568
986.40 196.5395
986.50 196.1313
986.60 195.7366
986.70 195.3419
986.80 194.9472
986.90 194.5525
987.00 194.1578
987.10 193.7631
987.20 193.3684
987.30 192.9737
987.40 192.579
987.50 192.1843
987.60 191.941
987.70 191.9247
987.80 191.9084
987.90 191.8921
988.00 191.8759
988.10 191.8596
988.20 191.8433
988.30 191.827
988.40 191.8108
988.50 191.7945
988.60 191.7782
988.70 191.7619
988.80 191.7457
988.90 191.7294
989.00 191.7131
989.10 191.6968
989.20 191.6806
989.30 191.6643
989.40 191.648
989.50 191.6317
989.60 191.6155
989.70 191.5992
989.80 191.5829
989.90 191.5666
990.00 191.5504
990.10 191.5341
990.20 191.5178
990.30 191.4942
990.40 191.4557
990.50 191.4172
990.60 191.3787
990.70 191.3402
990.80 191.3016
990.90 191.2631
991.00 191.2246
991.10 191.1861
991.20 191.1476
991.30 191.1091
991.40 191.0317
991.50 190.8589
991.60 190.6861
991.70 190.5133
991.80 190.3405
991.90 190.1678
992.00 189.995
992.10 189.8222
992.20 189.6494
992.30 189.4766
992.40 189.3039
992.50 189.1311
992.60 188.9583
992.70 188.7855
992.80 188.6127
992.90 188.4399
993.00 188.2672
993.10 188.0944
993.20 187.9216
993.30 187.7488
993.40 187.576
993.50 187.4033
993.60 187.2305
993.70 187.0577
993.80 186.8849
993.90 186.7121
994.00 186.5394
994.10 186.3714
994.20 186.2385
994.30 186.1057
994.40 185.9728
994.50 185.84
994.60 185.7071
994.70 185.5742
994.80 185.4414
994.90 185.3085
995.00 185.1757
995.10 185.0428
995.20 184.8929
995.30 184.189
995.40 183.4852
995.50 182.7814
995.60 182.0776
995.70 181.3738
995.80 180.67
995.90 179.9662
996.00 179.2624
996.10 178.5586
996.20 177.8548
996.30 177.151
996.40 176.4472
996.50 175.7433
996.60 175.0395
996.70 174.3357
996.80 173.6319
996.90 172.9281
997.00 172.2243
997.10 171.5205
997.20 170.8167
997.30 170.1129
997.40 169.4091
997.50 168.7053
997.60 168.0015
997.70 167.2976
997.80 166.5938
997.90 165.89
998.00 165.1909
998.10 164.4931
998.20 163.7953
998.30 163.0975
998.40 162.3998
998.50 161.702
998.60 161.0042
998.70 160.3064
998.80 159.6087
998.90 158.9109
999.00 158.2131
999.10 157.8887
999.20 157.7744
999.30 157.66
999.40 157.5456
999.50 157.4312
999.60 157.3169
999.70 157.2025
999.80 157.0881
999.90 156.9737
1000.00 156.8594
1000.10 156.745
1000.20 156.6306
1000.30 156.5163
1000.40 156.4019
1000.50 156.2875
1000.60 156.1731
1000.70 156.0588
1000.80 155.9444
1000.90 155.83
1001.00 155.7157
1001.10 155.6013
1001.20 155.4869
1001.30 155.3725
1001.40 155.2582
1001.50 155.1438
1001.60 155.0294
1001.70 154.9151
1001.80 154.8159
1001.90 154.7522
1002.00 154.6885
1002.10 154.6248
1002.20 154.5612
1002.30 154.4975
1002.40 154.4338
1002.50 154.3701
1002.60 154.3064
1002.70 154.2427
1002.80 154.1791
1002.90 154.1483
1003.00 154.4143
1003.10 154.6802
1003.20 154.9461
1003.30 155.212
1003.40 155.4779
1003.50 155.7438
1003.60 156.0098
1003.70 156.2757
1003.80 156.5416
1003.90 156.8075
1004.00 157.0734
1004.10 157.3394
1004.20 157.6053
1004.30 157.8712
1004.40 158.1371
1004.50 158.403
1004.60 158.669
1004.70 158.9349
1004.80 159.2008
1004.90 159.4667
1005.00 159.7326
1005.10 159.9986
1005.20 160.2645
1005.30 160.5304
1005.40 160.7963
1005.50 161.0622
1005.60 161.3281
1005.70 161.5864
1005.80 161.8414
1005.90 162.0965
1006.00 162.3515
1006.10 162.6065
1006.20 162.8615
1006.30 163.1165
1006.40 163.3715
1006.50 163.6265
1006.60 163.8816
1006.70 164.1366
1006.80 164.4765
1006.90 164.9438
1007.00 165.4111
1007.10 165.8784
1007.20 166.3456
1007.30 166.8129
1007.40 167.2802
1007.50 167.7475
1007.60 168.2148
1007.70 168.6821
1007.80 169.1494
1007.90 169.6166
1008.00 170.0839
1008.10 170.5512
1008.20 171.0185
1008.30 171.4858
1008.40 171.9531
1008.50 172.4204
1008.60 172.8876
1008.70 173.3549
1008.80 173.8222
1008.90 174.2895
1009.00 174.7568
1009.10 175.2241
1009.20 175.6914
1009.30 176.1586
1009.40 176.6259
1009.50 177.0932
1009.60 177.5568
1009.70 178.02
1009.80 178.4832
1009.90 178.9464
1010.00 179.4096
1010.10 179.8728
1010.20 180.336
1010.30 180.7992
1010.40 181.2624
1010.50 181.7255
1010.60 182.1887
1010.70 182.334
1010.80 182.2673
1010.90 182.2005
1011.00 182.1338
1011.10 182.0671
1011.20 182.0004
1011.30 181.9337
1011.40 181.8669
1011.50 181.8002
1011.60 181.7335
1011.70 181.6668
1011.80 181.6001
1011.90 181.5333
1012.00 181.4666
1012.10 181.3999
1012.20 181.3332
1012.30 181.2665
1012.40 181.1997
1012.50 181.133
1012.60 181.0663
1012.70 180.9996
1012.80 180.9329
1012.90 180.8661
1013.00 180.7994
1013.10 180.7327
1013.20 180.666
1013.30 180.5993
1013.40 180.5325
1013.50 180.4314
1013.60 180.3303
1013.70 180.2291
1013.80 180.128
1013.90 180.0269
1014.00 179.9258
1014.10 179.8246
1014.20 179.7235
1014.30 179.6224
1014.40 179.5212
1014.50 179.4201
1014.60 179.6895
1014.70 180.1178
1014.80 180.546
1014.90 180.9743
1015.00 181.4025
1015.10 181.8308
1015.20 182.259
1015.30 182.6873
1015.40 183.1155
1015.50 183.5438
1015.60 183.972
1015.70 184.4003
1015.80 184.8285
1015.90 185.2568
1016.00 185.685
1016.10 186.1133
1016.20 186.5415
1016.30 186.9698
1016.40 187.398
1016.50 187.8263
1016.60 188.2545
1016.70 188.6827
1016.80 189.111
1016.90 189.5392
1017.00 189.9675
1017.10 190.3957
1017.20 190.824
1017.30 191.2522
1017.40 191.7263
1017.50 192.2003
1017.60 192.6743
1017.70 193.1483
1017.80 193.6223
1017.90 194.0963
1018.00 194.5703
1018.10 195.0443
1018.20 195.5184
1018.30 195.9924
1018.40 196.4664
1018.50 196.7095
1018.60 196.7986
1018.70 196.8877
1018.80 196.9769
1018.90 197.066
1019.00 197.1551
1019.10 197.2443
1019.20 197.3334
1019.30 197.4225
1019.40 197.5116
1019.50 197.6008
1019.60 197.6899
1019.70 197.779
1019.80 197.8682
1019.90 197.9573
1020.00 198.0464
1020.10 198.1356
1020.20 198.2247
1020.30 198.3138
1020.40 198.403
1020.50 198.4921
1020.60 198.5812
1020.70 198.6703
1020.80 198.7595
1020.90 198.8486
1021.00 198.9377
1021.10 199.0269
1021.20 199.116
1021.30 199.1998
1021.40 199.2824
1021.50 199.3649
1021.60 199.4474
1021.70 199.5299
1021.80 199.6125
1021.90 199.695
1022.00 199.7775
1022.10 199.86
1022.20 199.9426
1022.30 200.0251
1022.40 200.0127
1022.50 199.9054
1022.60 199.7981
1022.70 199.6908
1022.80 199.5835
1022.90 199.4762
1023.00 199.3689
1023.10 199.2615
1023.20 199.1542
1023.30 199.0469
1023.40 198.9396
1023.50 198.8323
1023.60 198.725
1023.70 198.6177
1023.80 198.5104
1023.90 198.4031
1024.00 198.2958
1024.10 198.1885
1024.20 198.0812
1024.30 197.9739
1024.40 197.8666
1024.50 197.7592
1024.60 197.6519
1024.70 197.5446
1024.80 197.4373
1024.90 197.33
1025.00 197.2227
1025.10 197.1154
1025.20 197.0079
1025.30 196.9004
1025.40 196.7928
1025.50 196.6852
1025.60 196.5776
1025.70 196.47
1025.80 196.3624
1025.90 196.2548
1026.00 196.1472
1026.10 196.0396
1026.20 195.932
1026.30 195.8531
1026.40 196.0331
1026.50 196.2131
1026.60 196.3931
1026.70 196.573
1026.80 196.753
1026.90 196.933
1027.00 197.113
1027.10 197.2929
1027.20 197.4729
1027.30 197.6529
1027.40 197.8329
1027.50 198.0128
1027.60 198.1928
1027.70 198.3728
1027.80 198.5528
1027.90 198.7328
1028.00 198.9127
1028.10 199.0927
1028.20 199.2727
1028.30 199.4527
1028.40 199.6326
1028.50 199.8126
1028.60 199.9926
1028.70 200.1726
1028.80 200.3525
1028.90 200.5325
1029.00 200.7125
1029.10 200.8884
1029.20 201.0271
1029.30 201.1659
1029.40 201.3046
1029.50 201.4434
1029.60 201.5822
1029.70 201.7209
1029.80 201.8597
1029.90 201.9984
1030.00 202.1372
1030.10 202.276
1030.20 202.4147
1030.30 202.5021
1030.40 202.5675
1030.50 202.6328
1030.60 202.6982
1030.70 202.7635
1030.80 202.8289
1030.90 202.8942
1031.00 202.9596
1031.10 203.0249
1031.20 203.0903
1031.30 203.1556
1031.40 203.221
1031.50 203.2863
1031.60 203.3517
1031.70 203.417
1031.80 203.4824
1031.90 203.5477
1032.00 203.6131
1032.10 203.6784
1032.20 203.7438
1032.30 203.8091
1032.40 203.8745
1032.50 203.9399
1032.60 204.0052
1032.70 204.0706
1032.80 204.1359
1032.90 204.2013
1033.00 204.2666
1033.10 204.381
1033.20 204.528
1033.30 204.675
1033.40 204.822
1033.50 204.969
1033.60 205.1161
1033.70 205.2631
1033.80 205.4101
1033.90 205.5571
1034.00 205.7041
1034.10 205.8511
1034.20 206.0378
1034.30 206.5811
1034.40 207.1245
1034.50 207.6678
1034.60 208.2112
1034.70 208.7545
1034.80 209.2979
1034.90 209.8412
1035.00 210.3845
1035.10 210.9279
1035.20 211.4712
1035.30 212.0146
1035.40 212.5579
1035.50 213.1013
1035.60 213.6446
1035.70 214.1879
1035.80 214.7313
1035.90 215.2746
1036.00 215.818
1036.10 216.3613
1036.20 216.9047
1036.30 217.448
1036.40 217.9914
1036.50 218.5347
1036.60 219.078
1036.70 219.6214
1036.80 220.1647
1036.90 220.7081
1037.00 221.2514
1037.10 221.7565
1037.20 222.2574
1037.30 222.7582
1037.40 223.2591
1037.50 223.7599
1037.60 224.2607
1037.70 224.7616
1037.80 225.2624
1037.90 225.7633
1038.00 226.2641
1038.10 226.765
1038.20 227.039
1038.30 226.973
1038.40 226.9069
1038.50 226.8408
1038.60 226.7748
1038.70 226.7087
1038.80 226.6426
1038.90 226.5765
1039.00 226.5105
1039.10 226.4444
1039.20 226.3783
1039.30 226.3122
1039.40 226.2462
1039.50 226.1801
1039.60 226.114
1039.70 226.048
1039.80 225.9819
1039.90 225.9158
1040.00 225.8497
1040.10 225.7837
1040.20 225.7176
1040.30 225.6515
1040.40 225.5855
1040.50 225.5194
1040.60 225.4533
1040.70 225.3872
1040.80 225.3212
1040.90 225.2551
1041.00 225.1833
1041.10 225.0885
1041.20 224.9936
1041.30 224.8988
1041.40 224.804
1041.50 224.7092
1041.60 224.6144
1041.70 224.5196
1041.80 224.4247
1041.90 224.3299
1042.00 224.2351
1042.10 224.1403
1042.20 224.3524
1042.30 224.7692
1042.40 225.1859
1042.50 225.6027
1042.60 226.0194
1042.70 226.4361
1042.80 226.8529
1042.90 227.2696
1043.00 227.6864
1043.10 228.1031
1043.20 228.5199
1043.30 228.9366
1043.40 229.3534
1043.50 229.7701
1043.60 230.1868
1043.70 230.6036
1043.80 231.0203
1043.90 231.4371
1044.00 231.8538
1044.10 232.2706
1044.20 232.6873
1044.30 233.1041
1044.40 233.5208
1044.50 233.9375
1044.60 234.3543
1044.70 234.771
1044.80 235.1878
1044.90 235.6045
1045.00 236.0339
1045.10 236.4927
1045.20 236.9515
1045.30 237.4104
1045.40 237.8692
1045.50 238.328
1045.60 238.7868
1045.70 239.2457
1045.80 239.7045
1045.90 240.1633
1046.00 240.6222
1046.10 241.081
1046.20 241.1886
1046.30 241.1458
1046.40 241.103
1046.50 241.0602
1046.60 241.0173
1046.70 240.9745
1046.80 240.9317
1046.90 240.8889
1047.00 240.846
1047.10 240.8032
1047.20 240.7604
1047.30 240.7176
1047.40 240.6747
1047.50 240.6319
1047.60 240.5891
1047.70 240.5463
1047.80 240.5034
1047.90 240.4606
1048.00 240.4178
1048.10 240.375
1048.20 240.3321
1048.30 240.2893
1048.40 240.2465
1048.50 240.2037
1048.60 240.1608
1048.70 240.118
1048.80 240.0752
1048.90 240.0324
1049.00 239.9803
1049.10 239.9069
1049.20 239.8335
1049.30 239.7601
1049.40 239.6866
1049.50 239.6132
1049.60 239.5398
1049.70 239.4664
1049.80 239.3929
1049.90 239.3195
1050.00 239.2461
1050.10 239.1726
1050.20 239.1986
1050.30 239.2671
1050.40 239.3356
1050.50 239.4041
1050.60 239.4727
1050.70 239.5412
1050.80 239.6097
1050.90 239.6782
1051.00 239.7467
1051.10 239.8152
1051.20 239.8838
1051.30 239.9523
1051.40 240.0208
1051.50 240.0893
1051.60 240.1578
1051.70 240.2264
1051.80 240.2949
1051.90 240.3634
1052.00 240.4319
1052.10 240.5004
1052.20 240.5689
1052.30 240.6375
1052.40 240.706
1052.50 240.7745
1052.60 240.843
1052.70 240.9115
1052.80 240.9801
1052.90 241.0486
1053.00 241.1204
1053.10 241.2055
1053.20 241.2905
1053.30 241.3756
1053.40 241.4607
1053.50 241.5457
1053.60 241.6308
1053.70 241.7159
1053.80 241.8009
1053.90 241.886
1054.00 241.9711
1054.10 242.0561
1054.20 242.1807
1054.30 242.3448
1054.40 242.5089
1054.50 242.673
1054.60 242.8371
1054.70 243.0011
1054.80 243.1652
1054.90 243.3293
1055.00 243.4934
1055.10 243.6575
1055.20 243.8216
1055.30 243.9857
1055.40 244.1498
1055.50 244.3138
1055.60 244.4779
1055.70 244.642
1055.80 244.8061
1055.90 244.9702
1056.00 245.1343
1056.10 245.2984
1056.20 245.4625
1056.30 245.6265
1056.40 245.7906
1056.50 245.9547
1056.60 246.1188
1056.70 246.2829
1056.80 246.447
1056.90 246.6111
1057.00 246.7752
1057.10 246.8989
1057.20 247.0183
1057.30 247.1376
1057.40 247.2569
1057.50 247.3762
1057.60 247.4956
1057.70 247.6149
1057.80 247.7342
1057.90 247.8535
1058.00 247.9728
1058.10 248.0922
1058.20 248.2087
1058.30 248.3188
1058.40 248.4289
1058.50 248.5389
1058.60 248.649
1058.70 248.7591
1058.80 248.8692
1058.90 248.9793
1059.00 249.0893
1059.10 249.1994
1059.20 249.3095
1059.30 249.4196
1059.40 249.5296
1059.50 249.6397
1059.60 249.7498
1059.70 249.8599
1059.80 249.97
1059.90 250.08
1060.00 250.1901
1060.10 250.3002
1060.20 250.4103
1060.30 250.5204
1060.40 250.6304
1060.50 250.7405
1060.60 250.8506
1060.70 250.9607
1060.80 251.0707
1060.90 251.1808
1061.00 251.2909
1061.10 251.4332
1061.20 251.5969
1061.30 251.7607
1061.40 251.9245
1061.50 252.0882
1061.60 252.252
1061.70 252.4157
1061.80 252.5795
1061.90 252.7433
1062.00 252.907
1062.10 253.0708
1062.20 253.2345
1062.30 253.4305
1062.40 253.63
1062.50 253.8295
1062.60 254.0291
1062.70 254.2286
1062.80 254.4281
1062.90 254.6277
1063.00 254.8272
1063.10 255.0267
1063.20 255.2263
1063.30 255.4258
1063.40 255.6253
1063.50 255.8249
1063.60 256.0244
1063.70 256.2239
1063.80 256.4234
1063.90 256.623
1064.00 256.8225
1064.10 257.022
1064.20 257.2216
1064.30 257.4211
1064.40 257.6206
1064.50 257.8202
1064.60 258.0197
1064.70 258.2192
1064.80 258.4188
1064.90 258.6183
1065.00 258.8178
1065.10 259.0134
1065.20 259.1934
1065.30 259.3733
1065.40 259.5532
1065.50 259.7332
1065.60 259.9131
1065.70 260.0931
1065.80 260.273
1065.90 260.4529
1066.00 260.6329
1066.10 260.8128
1066.20 260.9927
1066.30 261.1825
1066.40 261.3869
1066.50 261.5913
1066.60 261.7958
1066.70 262.0002
1066.80 262.2046
1066.90 262.4091
1067.00 262.6135
1067.10 262.818
1067.20 263.0224
1067.30 263.2268
1067.40 263.4313
1067.50 263.6357
1067.60 263.8401
1067.70 264.0446
1067.80 264.249
1067.90 264.4534
1068.00 264.6579
1068.10 264.8623
1068.20 265.0667
1068.30 265.2712
1068.40 265.4756
1068.50 265.68
1068.60 265.8845
1068.70 266.0889
1068.80 266.2934
1068.90 266.4978
1069.00 266.7022
1069.10 266.9067
1069.20 267.1147
1069.30 267.3251
1069.40 267.5355
1069.50 267.7459
1069.60 267.9564
1069.70 268.1668
1069.80 268.3772
1069.90 268.5876
1070.00 268.798
1070.10 269.0085
1070.20 269.2189
1070.30 269.4293
1070.40 269.6173
1070.50 269.8028
1070.60 269.9883
1070.70 270.1739
1070.80 270.3594
1070.90 270.5449
1071.00 270.7304
1071.10 270.9159
1071.20 271.1015
1071.30 271.287
1071.40 271.4725
1071.50 271.658
1071.60 271.8435
1071.70 272.029
1071.80 272.2146
1071.90 272.4001
1072.00 272.5856
1072.10 272.7711
1072.20 272.9566
1072.30 273.1421
1072.40 273.3277
1072.50 273.5132
1072.60 273.6987
1072.70 273.8842
1072.80 274.0697
1072.90 274.2553
1073.00 274.4408
1073.10 274.6263
1073.20 274.8118
1073.30 275.0141
1073.40 275.2164
1073.50 275.4187
1073.60 275.621
1073.70 275.8233
1073.80 276.0256
1073.90 276.2279
1074.00 276.4302
1074.10 276.6324
1074.20 276.8347
1074.30 277.037
1074.40 277.2422
1074.50 277.4587
1074.60 277.6753
1074.70 277.8919
1074.80 278.1084
1074.90 278.325
1075.00 278.5416
1075.10 278.7581
1075.20 278.9747
1075.30 279.1913
1075.40 279.4078
1075.50 279.6244
1075.60 279.841
1075.70 280.0575
1075.80 280.2741
1075.90 280.4906
1076.00 280.7072
1076.10 280.9238
1076.20 281.1403
1076.30 281.3569
1076.40 281.5735
1076.50 281.79
1076.60 282.0066
1076.70 282.2232
1076.80 282.4397
1076.90 282.6563
1077.00 282.8729
1077.10 283.0894
1077.20 283.306
1077.30 283.5199
1077.40 283.7232
1077.50 283.9264
1077.60 284.1297
1077.70 284.3329
1077.80 284.5362
1077.90 284.7395
1078.00 284.9427
1078.10 285.146
1078.20 285.3492
1078.30 285.5525
1078.40 285.7558
1078.50 285.8839
1078.60 285.8992
1078.70 285.9145
1078.80 285.9299
1078.90 285.9452
1079.00 285.9606
1079.10 285.9759
1079.20 285.9912
1079.30 286.0066
1079.40 286.0219
1079.50 286.0373
1079.60 286.0526
1079.70 286.0679
1079.80 286.0833
1079.90 286.0986
1080.00 286.1139
1080.10 286.1293
1080.20 286.1446
1080.30 286.16
1080.40 286.1753
1080.50 286.1906
1080.60 286.206
1080.70 286.2213
1080.80 286.2367
1080.90 286.252
1081.00 286.2673
1081.10 286.2827
1081.20 286.298
1081.30 286.3134
1081.40 286.3082
1081.50 286.2723
1081.60 286.2365
1081.70 286.2006
1081.80 286.1647
1081.90 286.1288
1082.00 286.0929
1082.10 286.0571
1082.20 286.0212
1082.30 285.9853
1082.40 285.9494
1082.50 285.9135
1082.60 286.0881
1082.70 286.4729
1082.80 286.8578
1082.90 287.2427
1083.00 287.6276
1083.10 288.0125
1083.20 288.3974
1083.30 288.7823
1083.40 289.1672
1083.50 289.5521
1083.60 289.937
1083.70 290.3219
1083.80 290.7067
1083.90 291.0916
1084.00 291.4765
1084.10 291.8614
1084.20 292.2463
1084.30 292.6312
1084.40 293.0161
1084.50 293.401
1084.60 293.7859
1084.70 294.1708
1084.80 294.5557
1084.90 294.9405
1085.00 295.3254
1085.10 295.7103
1085.20 296.0952
1085.30 296.4801
1085.40 296.865
1085.50 297.2711
1085.60 297.7092
1085.70 298.1472
1085.80 298.5852
1085.90 299.0232
1086.00 299.4612
1086.10 299.8992
1086.20 300.3372
1086.30 300.7752
1086.40 301.2132
1086.50 301.6513
1086.60 302.0893
1086.70 302.3891
1086.80 302.5968
1086.90 302.8045
1087.00 303.0122
1087.10 303.2199
1087.20 303.4276
1087.30 303.6352
1087.40 303.8429
1087.50 304.0506
1087.60 304.2583
1087.70 304.466
1087.80 304.6737
1087.90 304.8814
1088.00 305.0891
1088.10 305.2968
1088.20 305.5045
1088.30 305.7122
1088.40 305.9199
1088.50 306.1276
1088.60 306.3352
1088.70 306.5429
1088.80 306.7506
1088.90 306.9583
1089.00 307.166
1089.10 307.3737
1089.20 307.5814
1089.30 307.7891
1089.40 307.9968
1089.50 308.2045
1089.60 308.3954
1089.70 308.5613
1089.80 308.7271
1089.90 308.893
1090.00 309.0588
1090.10 309.2247
1090.20 309.3905
1090.30 309.5564
1090.40 309.7222
1090.50 309.8881
1090.60 310.0539
1090.70 310.2198
1090.80 310.2657
1090.90 310.1918
1091.00 310.1178
1091.10 310.0439
1091.20 309.9699
1091.30 309.896
1091.40 309.822
1091.50 309.7481
1091.60 309.6741
1091.70 309.6002
1091.80 309.5262
1091.90 309.4523
1092.00 309.3783
1092.10 309.3044
1092.20 309.2304
1092.30 309.1565
1092.40 309.0825
1092.50 309.0086
1092.60 308.9346
1092.70 308.8607
1092.80 308.7867
1092.90 308.7128
1093.00 308.6388
1093.10 308.5648
1093.20 308.4909
1093.30 308.4169
1093.40 308.343
1093.50 308.269
1093.60 308.1951
1093.70 308.1214
1093.80 308.0481
1093.90 307.9749
1094.00 307.9017
1094.10 307.8285
1094.20 307.7553
1094.30 307.6821
1094.40 307.6089
1094.50 307.5356
1094.60 307.4624
1094.70 307.3892
1094.80 307.316
1094.90 307.3955
1095.00 307.7039
1095.10 308.0124
1095.20 308.3209
1095.30 308.6293
1095.40 308.9378
1095.50 309.2463
1095.60 309.5547
1095.70 309.8632
1095.80 310.1717
1095.90 310.4802
1096.00 310.7886
1096.10 311.0971
1096.20 311.4056
1096.30 311.714
1096.40 312.0225
1096.50 312.331
1096.60 312.6395
1096.70 312.9479
1096.80 313.2564
1096.90 313.5649
1097.00 313.8733
1097.10 314.1818
1097.20 314.4903
1097.30 314.7987
1097.40 315.1072
1097.50 315.4157
1097.60 315.7242
1097.70 316.0326
1097.80 316.3422
1097.90 316.6618
1098.00 316.9815
1098.10 317.3011
1098.20 317.6207
1098.30 317.9403
1098.40 318.2599
1098.50 318.5795
1098.60 318.8992
1098.70 319.2188
1098.80 319.5384
1098.90 319.858
1099.00 320.1253
1099.10 319.9218
1099.20 319.7183
1099.30 319.5147
1099.40 319.3112
1099.50 319.1077
1099.60 318.9042
1099.70 318.7006
1099.80 318.4971
1099.90 318.2936
1100.00 318.0901
1100.10 317.8865
1100.20 317.683
1100.30 317.4795
1100.40 317.276
1100.50 317.0724
1100.60 316.8689
1100.70 316.6654
1100.80 316.4618
1100.90 316.2583
1101.00 316.0548
1101.10 315.8513
1101.20 315.6477
1101.30 315.4442
1101.40 315.2407
1101.50 315.0372
1101.60 314.8336
1101.70 314.6301
1101.80 314.4266
1101.90 314.223
1102.00 314.0166
1102.10 313.8095
1102.20 313.6023
1102.30 313.3952
1102.40 313.188
1102.50 312.9808
1102.60 312.7737
1102.70 312.5665
1102.80 312.3594
1102.90 312.1522
1103.00 311.9451
1103.10 311.7379
1103.20 311.525
1103.30 311.3106
1103.40 311.0962
1103.50 310.8818
1103.60 310.6674
1103.70 310.453
1103.80 310.2386
1103.90 310.0242
1104.00 309.8098
1104.10 309.5954
1104.20 309.381
1104.30 309.1666
1104.40 308.9522
1104.50 308.7379
1104.60 308.5235
1104.70 308.3091
1104.80 308.0947
1104.90 307.8803
1105.00 307.6659
1105.10 307.4515
1105.20 307.2371
1105.30 307.0227
1105.40 306.8083
1105.50 306.5939
1105.60 306.3795
1105.70 306.1651
1105.80 305.9507
1105.90 305.7363
1106.00 305.522
1106.10 305.2933
1106.20 305.0432
1106.30 304.793
1106.40 304.5429
1106.50 304.2928
1106.60 304.0427
1106.70 303.7926
1106.80 303.5425
1106.90 303.2923
1107.00 303.0422
1107.10 302.7921
1107.20 302.542
1107.30 302.3266
1107.40 302.1632
1107.50 301.9998
1107.60 301.8365
1107.70 301.6731
1107.80 301.5097
1107.90 301.3464
1108.00 301.183
1108.10 301.0196
1108.20 300.8563
1108.30 300.6929
1108.40 300.5295
1108.50 300.3662
1108.60 300.2028
1108.70 300.0394
1108.80 299.8761
1108.90 299.7127
1109.00 299.5493
1109.10 299.386
1109.20 299.2226
1109.30 299.0592
1109.40 298.8959
1109.50 298.7325
1109.60 298.5691
1109.70 298.4058
1109.80 298.2424
1109.90 298.079
1110.00 297.9157
1110.10 297.7523
1110.20 297.5889
1110.30 297.4478
1110.40 297.3091
1110.50 297.1704
1110.60 297.0317
1110.70 296.893
1110.80 296.7543
1110.90 296.6156
1111.00 296.4769
1111.10 296.3382
1111.20 296.1995
1111.30 296.0608
1111.40 295.9221
1111.50 295.6562
1111.60 295.3762
1111.70 295.0962
1111.80 294.8162
1111.90 294.5361
1112.00 294.2561
1112.10 293.9761
1112.20 293.696
1112.30 293.416
1112.40 293.136
1112.50 292.856
1112.60 292.5759
1112.70 292.2959
1112.80 292.0159
1112.90 291.7359
1113.00 291.4558
1113.10 291.1758
1113.20 290.8958
1113.30 290.6157
1113.40 290.3357
1113.50 290.0557
1113.60 289.7757
1113.70 289.4956
1113.80 289.2156
1113.90 288.9356
1114.00 288.6556
1114.10 288.3755
1114.20 288.0955
1114.30 287.8155
1114.40 287.5416
1114.50 287.2823
1114.60 287.0229
1114.70 286.7635
1114.80 286.5041
1114.90 286.2447
1115.00 285.9853
1115.10 285.7259
1115.20 285.4665
1115.30 285.2072
1115.40 284.9478
1115.50 284.6884
1115.60 284.6197
1115.70 284.9959
1115.80 285.3722
1115.90 285.7484
1116.00 286.1247
1116.10 286.501
1116.20 286.8772
1116.30 287.2535
1116.40 287.6297
1116.50 288.006
1116.60 288.3822
1116.70 288.7585
1116.80 289.1347
1116.90 289.511
1117.00 289.8872
1117.10 290.2635
1117.20 290.6397
1117.30 291.016
1117.40 291.3922
1117.50 291.7685
1117.60 292.1447
1117.70 292.521
1117.80 292.8972
1117.90 293.2735
1118.00 293.6497
1118.10 294.026
1118.20 294.4022
1118.30 294.7785
1118.40 295.1547
1118.50 295.531
1118.60 295.9165
1118.70 296.3061
1118.80 296.6956
1118.90 297.0852
1119.00 297.4747
1119.10 297.8642
1119.20 298.2538
1119.30 298.6433
1119.40 299.0328
1119.50 299.4224
1119.60 299.8119
1119.70 300.2014
1119.80 300.3881
1119.90 300.4396
1120.00 300.4911
1120.10 300.5425
1120.20 300.594
1120.30 300.6454
1120.40 300.6969
1120.50 300.7483
1120.60 300.7998
1120.70 300.8513
1120.80 300.9027
1120.90 300.9542
1121.00 301.0056
1121.10 301.0571
1121.20 301.1086
1121.30 301.16
1121.40 301.2115
1121.50 301.2629
1121.60 301.3144
1121.70 301.3659
1121.80 301.4173
1121.90 301.4688
1122.00 301.5202
1122.10 301.5717
1122.20 301.6231
1122.30 301.6746
1122.40 301.7261
1122.50 301.7775
1122.60 301.829
1122.70 301.8804
1122.80 301.876
1122.90 301.8716
1123.00 301.8672
1123.10 301.8628
1123.20 301.8584
1123.30 301.854
1123.40 301.8496
1123.50 301.8452
1123.60 301.8408
1123.70 301.8364
1123.80 301.832
1123.90 301.8276
1124.00 301.6644
1124.10 301.4835
1124.20 301.3026
1124.30 301.1218
1124.40 300.9409
1124.50 300.76
1124.60 300.5791
1124.70 300.3983
1124.80 300.2174
1124.90 300.0365
1125.00 299.8557
1125.10 299.6748
1125.20 299.4939
1125.30 299.3131
1125.40 299.1322
1125.50 298.9513
1125.60 298.7705
1125.70 298.5896
1125.80 298.4087
1125.90 298.2279
1126.00 298.047
1126.10 297.8661
1126.20 297.6852
1126.30 297.5044
1126.40 297.3235
1126.50 297.1426
1126.60 296.9618
1126.70 296.7809
1126.80 296.6
1126.90 296.4284
1127.00 296.2939
1127.10 296.1594
1127.20 296.0249
1127.30 295.8904
1127.40 295.7559
1127.50 295.6214
1127.60 295.4869
1127.70 295.3524
1127.80 295.2179
1127.90 295.0834
1128.00 294.9489
1128.10 294.8178
1128.20 294.7167
1128.30 294.6156
1128.40 294.5146
1128.50 294.4135
1128.60 294.3124
1128.70 294.2114
1128.80 294.1103
1128.90 294.0092
1129.00 293.9082
1129.10 293.8071
1129.20 293.706
1129.30 293.6049
1129.40 293.5039
1129.50 293.4028
1129.60 293.3017
1129.70 293.2007
1129.80 293.0996
1129.90 292.9985
1130.00 292.8975
1130.10 292.7964
1130.20 292.6953
1130.30 292.5943
1130.40 292.4932
1130.50 292.3921
1130.60 292.2911
1130.70 292.19
1130.80 292.0889
1130.90 291.9879
1131.00 291.8868
1131.10 291.7789
1131.20 291.6606
1131.30 291.5424
1131.40 291.4241
1131.50 291.3058
1131.60 291.1876
1131.70 291.0693
1131.80 290.9511
1131.90 290.8328
1132.00 290.7146
1132.10 290.5963
1132.20 290.4781
1132.30 290.4808
1132.40 290.9672
1132.50 291.4537
1132.60 291.9401
1132.70 292.4266
1132.80 292.9131
1132.90 293.3995
1133.00 293.886
1133.10 294.3724
1133.20 294.8589
1133.30 295.3454
1133.40 295.8318
1133.50 296.3183
1133.60 296.8048
1133.70 297.2912
1133.80 297.7777
1133.90 298.2641
1134.00 298.7506
1134.10 299.2371
1134.20 299.7235
1134.30 300.21
1134.40 300.6964
1134.50 301.1829
1134.60 301.6694
1134.70 302.1558
1134.80 302.6423
1134.90 303.1288
1135.00 303.6152
1135.10 304.1017
1135.20 304.5881
1135.30 305.0875
1135.40 305.6063
1135.50 306.1251
1135.60 306.644
1135.70 307.1628
1135.80 307.6816
1135.90 308.2004
1136.00 308.7192
1136.10 309.238
1136.20 309.7568
1136.30 310.2756
1136.40 310.7944
1136.50 311.0438
1136.60 310.6648
1136.70 310.2858
1136.80 309.9068
1136.90 309.5277
1137.00 309.1487
1137.10 308.7697
1137.20 308.3907
1137.30 308.0116
1137.40 307.6326
1137.50 307.2536
1137.60 306.8746
1137.70 306.4955
1137.80 306.1165
1137.90 305.7375
1138.00 305.3585
1138.10 304.9794
1138.20 304.6004
1138.30 304.2214
1138.40 303.8424
1138.50 303.4633
1138.60 303.0843
1138.70 302.7053
1138.80 302.3263
1138.90 301.9472
1139.00 301.5682
1139.10 301.1892
1139.20 300.8102
1139.30 300.4311
1139.40 300.0521
1139.50 299.6727
1139.60 299.2925
1139.70 298.9124
1139.80 298.5323
1139.90 298.1522
1140.00 297.7721
1140.10 297.3919
1140.20 297.0118
1140.30 296.6317
1140.40 296.2516
1140.50 295.8715
1140.60 295.4913
1140.70 295.1808
1140.80 295.0328
1140.90 294.8848
1141.00 294.7368
1141.10 294.5888
1141.20 294.4408
1141.30 294.2927
1141.40 294.1447
1141.50 293.9967
1141.60 293.8487
1141.70 293.7007
1141.80 293.5527
1141.90 293.4046
1142.00 293.2566
1142.10 293.1086
1142.20 292.9606
1142.30 292.8126
1142.40 292.6646
1142.50 292.5165
1142.60 292.3685
1142.70 292.2205
1142.80 292.0725
1142.90 291.9245
1143.00 291.7764
1143.10 291.6284
1143.20 291.4804
1143.30 291.3324
1143.40 291.1844
1143.50 291.0364
1143.60 290.8883
1143.70 290.744
1143.80 290.6052
1143.90 290.4663
1144.00 290.3275
1144.10 290.1887
1144.20 290.0498
1144.30 289.911
1144.40 289.7722
1144.50 289.6334
1144.60 289.4945
1144.70 289.3557
1144.80 289.2169
1144.90 289.1928
1145.00 289.628
1145.10 290.0632
1145.20 290.4984
1145.30 290.9336
1145.40 291.3688
1145.50 291.8041
1145.60 292.2393
1145.70 292.6745
1145.80 293.1097
1145.90 293.5449
1146.00 293.9801
1146.10 294.4153
1146.20 294.8505
1146.30 295.2857
1146.40 295.7209
1146.50 296.1561
1146.60 296.5913
1146.70 297.0265
1146.80 297.4617
1146.90 297.8969
1147.00 298.3321
1147.10 298.7673
1147.20 299.2025
1147.30 299.6377
1147.40 300.0729
1147.50 300.5081
1147.60 300.9433
1147.70 301.3785
1147.80 301.8137
1147.90 302.2443
1148.00 302.6567
1148.10 303.069
1148.20 303.4813
1148.30 303.8937
1148.40 304.306
1148.50 304.7183
1148.60 305.1306
1148.70 305.543
1148.80 305.9553
1148.90 306.3676
1149.00 306.78
1149.10 307.1923
1149.20 307.5848
1149.30 307.9773
1149.40 308.3698
1149.50 308.7623
1149.60 309.1548
1149.70 309.5473
1149.80 309.9397
1149.90 310.3322
1150.00 310.7247
1150.10 311.1172
1150.20 311.5097
1150.30 311.9022
1150.40 312.2947
1150.50 312.6872
1150.60 313.0797
1150.70 313.4722
1150.80 313.8647
1150.90 314.2572
1151.00 314.6497
1151.10 315.0422
1151.20 315.4347
1151.30 315.8272
1151.40 316.2197
1151.50 316.6122
1151.60 317.0047
1151.70 317.3972
1151.80 317.7897
1151.90 318.1821
1152.00 318.5746
1152.10 318.9652
1152.20 319.338
1152.30 319.7108
1152.40 320.0836
1152.50 320.4565
1152.60 320.8293
1152.70 321.2021
1152.80 321.5749
1152.90 321.9478
1153.00 322.3206
1153.10 322.6934
1153.20 323.0662
1153.30 323.4391
1153.40 323.5229
1153.50 323.5345
1153.60 323.5461
1153.70 323.5578
1153.80 323.5694
1153.90 323.581
1154.00 323.5926
1154.10 323.6042
1154.20 323.6158
1154.30 323.6274
1154.40 323.639
1154.50 323.6507
1154.60 323.6623
1154.70 323.6739
1154.80 323.6855
1154.90 323.6971
1155.00 323.7087
1155.10 323.7203
1155.20 323.732
1155.30 323.7436
1155.40 323.7552
1155.50 323.7668
1155.60 323.7784
1155.70 323.79
1155.80 323.8016
1155.90 323.8133
1156.00 323.8249
1156.10 323.8365
1156.20 323.8481
1156.30 323.8597
1156.40 323.8698
1156.50 323.8794
1156.60 323.8891
1156.70 323.8988
1156.80 323.9084
1156.90 323.9181
1157.00 323.9277
1157.10 323.9374
1157.20 323.9471
1157.30 323.9567
1157.40 323.9664
1157.50 323.9761
1157.60 324.0875
1157.70 324.2668
1157.80 324.4461
1157.90 324.6254
1158.00 324.8047
1158.10 324.984
1158.20 325.1633
1158.30 325.3427
1158.40 325.522
1158.50 325.7013
1158.60 325.8806
1158.70 326.0599
1158.80 326.2392
1158.90 326.4185
1159.00 326.5978
1159.10 326.7771
1159.20 326.9564
1159.30 327.1357
1159.40 327.315
1159.50 327.4943
1159.60 327.6736
1159.70 327.8529
1159.80 328.0322
1159.90 328.2115
1160.00 328.3908
1160.10 328.5701
1160.20 328.7494
1160.30 328.9287
1160.40 329.108
1160.50 329.2873
1160.60 329.4493
1160.70 329.594
1160.80 329.7387
1160.90 329.8834
1161.00 330.0281
1161.10 330.1728
1161.20 330.3175
1161.30 330.4622
1161.40 330.6068
1161.50 330.7515
1161.60 330.8962
1161.70 331.0409
1161.80 331.1623
1161.90 331.1903
1162.00 331.2183
1162.10 331.2463
1162.20 331.2743
1162.30 331.3023
1162.40 331.3303
1162.50 331.3584
1162.60 331.3864
1162.70 331.4144
1162.80 331.4424
1162.90 331.4704
1163.00 331.4984
1163.10 331.5264
1163.20 331.5545
1163.30 331.5825
1163.40 331.6105
1163.50 331.6385
1163.60 331.6665
1163.70 331.6945
1163.80 331.7225
1163.90 331.7506
1164.00 331.7786
1164.10 331.8066
1164.20 331.8346
1164.30 331.8626
1164.40 331.8906
1164.50 331.9186
1164.60 331.9467
1164.70 331.9747
1164.80 332.0061
1164.90 332.0687
1165.00 332.1313
1165.10 332.1939
1165.20 332.2566
1165.30 332.3192
1165.40 332.3818
1165.50 332.4444
1165.60 332.507
1165.70 332.5696
1165.80 332.6322
1165.90 332.6948
1166.00 332.7574
1166.10 332.3724
1166.20 331.9377
1166.30 331.503
1166.40 331.0683
1166.50 330.6336
1166.60 330.1989
1166.70 329.7641
1166.80 329.3294
1166.90 328.8947
1167.00 328.46
1167.10 328.0253
1167.20 327.5906
1167.30 327.1559
1167.40 326.7212
1167.50 326.2865
1167.60 325.8518
1167.70 325.417
1167.80 324.9823
1167.90 324.5476
1168.00 324.1129
1168.10 323.6782
1168.20 323.2435
1168.30 322.8088
1168.40 322.3741
1168.50 321.9394
1168.60 321.5047
1168.70 321.07
1168.80 320.6352
1168.90 320.2005
1169.00 319.7658
1169.10 319.3502
1169.20 318.9426
1169.30 318.5351
1169.40 318.1276
1169.50 317.7201
1169.60 317.3126
1169.70 316.905
1169.80 316.4975
1169.90 316.09
1170.00 315.6825
1170.10 315.275
1170.20 314.8674
1170.30 314.5095
1170.40 314.226
1170.50 313.9425
1170.60 313.6589
1170.70 313.3754
1170.80 313.0919
1170.90 312.8084
1171.00 312.5248
1171.10 312.2413
1171.20 311.9578
1171.30 311.6743
1171.40 311.3907
1171.50 311.1072
1171.60 310.8237
1171.70 310.5402
1171.80 310.2566
1171.90 309.9731
1172.00 309.6896
1172.10 309.4061
1172.20 309.1225
1172.30 308.839
1172.40 308.5555
1172.50 308.272
1172.60 307.9884
1172.70 307.7049
1172.80 307.4214
1172.90 307.1379
1173.00 306.8543
1173.10 306.5708
1173.20 306.2873
1173.30 306.0027
1173.40 305.7138
1173.50 305.4249
1173.60 305.136
1173.70 304.8471
1173.80 304.5582
1173.90 304.2693
1174.00 303.9804
1174.10 303.6915
1174.20 303.4026
1174.30 303.1137
1174.40 302.8248
1174.50 302.5359
1174.60 302.4498
1174.70 302.3863
1174.80 302.3228
1174.90 302.2593
1175.00 302.1958
1175.10 302.1323
1175.20 302.0688
1175.30 302.0053
1175.40 301.9418
1175.50 301.8783
1175.60 301.8148
1175.70 301.7513
1175.80 301.6878
1175.90 301.6243
1176.00 301.5608
1176.10 301.4973
1176.20 301.4338
1176.30 301.3703
1176.40 301.3068
1176.50 301.2433
1176.60 301.1798
1176.70 301.1163
1176.80 301.0528
1176.90 300.9893
1177.00 300.9258
1177.10 300.8623
1177.20 300.7988
1177.30 300.7353
1177.40 300.6718
1177.50 300.6083
1177.60 300.5688
1177.70 300.5395
1177.80 300.5102
1177.90 300.4809
1178.00 300.4517
1178.10 300.4224
1178.20 300.3931
1178.30 300.3639
1178.40 300.3346
1178.50 300.3053
1178.60 300.2761
1178.70 300.2468
1178.80 300.334
1178.90 300.5957
1179.00 300.8575
1179.10 301.1192
1179.20 301.381
1179.30 301.6428
1179.40 301.9045
1179.50 302.1663
1179.60 302.4281
1179.70 302.6898
1179.80 302.9516
1179.90 303.2134
1180.00 303.4751
1180.10 303.7369
1180.20 303.9987
1180.30 304.2604
1180.40 304.5222
1180.50 304.7839
1180.60 305.0457
1180.70 305.3075
1180.80 305.5692
1180.90 305.831
1181.00 306.0928
1181.10 306.3545
1181.20 306.6163
1181.30 306.8781
1181.40 307.1398
1181.50 307.4016
1181.60 307.6634
1181.70 307.9251
1181.80 308.1855
1181.90 308.4336
1182.00 308.6818
1182.10 308.9299
1182.20 309.178
1182.30 309.4262
1182.40 309.6743
1182.50 309.9224
1182.60 310.1705
1182.70 310.4187
1182.80 310.6668
1182.90 310.9149
1183.00 311.1631
1183.10 311.1325
1183.20 311.0322
1183.30 310.932
1183.40 310.8318
1183.50 310.7315
1183.60 310.6313
1183.70 310.5311
1183.80 310.4308
1183.90 310.3306
1184.00 310.2303
1184.10 310.1301
1184.20 310.0299
1184.30 309.9296
1184.40 309.8294
1184.50 309.7291
1184.60 309.6289
1184.70 309.5287
1184.80 309.4284
1184.90 309.3282
1185.00 309.2279
1185.10 309.1277
1185.20 309.0275
1185.30 308.9272
1185.40 308.827
1185.50 308.7268
1185.60 308.6265
1185.70 308.5263
1185.80 308.426
1185.90 308.3258
1186.00 308.2256
1186.10 308.1182
1186.20 308.0036
1186.30 307.889
1186.40 307.7744
1186.50 307.6599
1186.60 307.5453
1186.70 307.4307
1186.80 307.3161
1186.90 307.2016
1187.00 307.087
1187.10 306.9724
1187.20 306.8578
1187.30 306.8548
1187.40 307.2981
1187.50 307.7414
1187.60 308.1847
1187.70 308.628
1187.80 309.0713
1187.90 309.5146
1188.00 309.9579
1188.10 310.4012
1188.20 310.8445
1188.30 311.2878
1188.40 311.7311
1188.50 312.1744
1188.60 312.6177
1188.70 313.061
1188.80 313.5043
1188.90 313.9476
1189.00 314.3909
1189.10 314.8342
1189.20 315.2775
1189.30 315.7208
1189.40 316.1641
1189.50 316.6074
1189.60 317.0507
1189.70 317.494
1189.80 317.9373
1189.90 318.3806
1190.00 318.8239
1190.10 319.2672
1190.20 319.7105
1190.30 320.1538
1190.40 320.5828
1190.50 321.0103
1190.60 321.4378
1190.70 321.8652
1190.80 322.2927
1190.90 322.7202
1191.00 323.1476
1191.10 323.5751
1191.20 324.0026
1191.30 324.4301
1191.40 324.8575
1191.50 325.285
1191.60 325.5088
1191.70 325.5288
1191.80 325.5488
1191.90 325.5689
1192.00 325.5889
1192.10 325.6089
1192.20 325.629
1192.30 325.649
1192.40 325.669
1192.50 325.6891
1192.60 325.7091
1192.70 325.7292
1192.80 325.7492
1192.90 325.7692
1193.00 325.7893
1193.10 325.8093
1193.20 325.8293
1193.30 325.8494
1193.40 325.8694
1193.50 325.8895
1193.60 325.9095
1193.70 325.9295
1193.80 325.9496
1193.90 325.9696
1194.00 325.9896
1194.10 326.0097
1194.20 326.0297
1194.30 326.0497
1194.40 326.0698
1194.50 326.0898
1194.60 326.1108
1194.70 326.1407
1194.80 326.1705
1194.90 326.2003
1195.00 326.2301
1195.10 326.2599
1195.20 326.2898
1195.30 326.3196
1195.40 326.3494
1195.50 326.3792
1195.60 326.409
1195.70 326.4389
1195.80 326.4687
1195.90 326.4814
1196.00 326.4898
1196.10 326.4982
1196.20 326.5066
1196.30 326.515
1196.40 326.5234
1196.50 326.5318
1196.60 326.5403
1196.70 326.5487
1196.80 326.5571
1196.90 326.5655
1197.00 326.5739
1197.10 326.5823
1197.20 326.5907
1197.30 326.5991
1197.40 326.6075
1197.50 326.616
1197.60 326.6244
1197.70 326.6328
1197.80 326.6412
1197.90 326.6496
1198.00 326.658
1198.10 326.6664
1198.20 326.6748
1198.30 326.6833
1198.40 326.6917
1198.50 326.7001
1198.60 326.7085
1198.70 326.7169
1198.80 326.7253
1198.90 326.7254
1199.00 326.713
1199.10 326.7006
1199.20 326.6881
1199.30 326.6757
1199.40 326.6633
1199.50 326.6509
1199.60 326.6385
1199.70 326.6261
1199.80 326.6136
1199.90 326.6012
1200.00 326.5888
1200.10 326.5764
1200.20 326.2802
1200.30 325.9841
1200.40 325.6879
1200.50 325.3917
1200.60 325.0956
1200.70 324.7994
1200.80 324.5033
1200.90 324.2071
1201.00 323.9109
1201.10 323.6148
1201.20 323.3186
1201.30 323.0224
1201.40 322.7263
1201.50 322.4301
1201.60 322.134
1201.70 321.8378
1201.80 321.5416
1201.90 321.2455
1202.00 320.9493
1202.10 320.6532
1202.20 320.357
1202.30 320.0608
1202.40 319.7647
1202.50 319.4685
1202.60 319.1723
1202.70 318.8762
1202.80 318.58
1202.90 318.2839
1203.00 317.9877
1203.10 317.6915
1203.20 317.4355
1203.30 317.2062
1203.40 316.9769
1203.50 316.7476
1203.60 316.5183
1203.70 316.2891
1203.80 316.0598
1203.90 315.8305
1204.00 315.6012
1204.10 315.3719
1204.20 315.1426
1204.30 314.9133
1204.40 314.7808
1204.50 315.0356
1204.60 315.2903
1204.70 315.545
1204.80 315.7998
1204.90 316.0545
1205.00 316.3092
1205.10 316.564
1205.20 316.8187
1205.30 317.0734
1205.40 317.3282
1205.50 317.5829
1205.60 317.8376
1205.70 318.0924
1205.80 318.3471
1205.90 318.6018
1206.00 318.8566
1206.10 319.1113
1206.20 319.366
1206.30 319.6208
1206.40 319.8755
1206.50 320.1302
1206.60 320.385
1206.70 320.6397
1206.80 320.8944
1206.90 321.1492
1207.00 321.4039
1207.10 321.6586
1207.20 321.9134
1207.30 322.1681
1207.40 322.4228
1207.50 322.654
1207.60 322.8792
1207.70 323.1044
1207.80 323.3296
1207.90 323.5548
1208.00 323.7801
1208.10 324.0053
1208.20 324.2305
1208.30 324.4557
1208.40 324.681
1208.50 324.9062
1208.60 325.1314
1208.70 325.4788
1208.80 326.0096
1208.90 326.5403
1209.00 327.071
1209.10 327.6017
1209.20 328.1325
1209.30 328.6632
1209.40 329.1939
1209.50 329.7246
1209.60 330.2554
1209.70 330.7861
1209.80 331.3168
1209.90 331.8476
1210.00 332.3783
1210.10 332.909
1210.20 333.4397
1210.30 333.9705
1210.40 334.5012
1210.50 335.0319
1210.60 335.5626
1210.70 336.0934
1210.80 336.6241
1210.90 337.1548
1211.00 337.6855
1211.10 338.2163
1211.20 338.747
1211.30 339.2777
1211.40 339.8084
1211.50 340.3392
1211.60 340.8699
1211.70 341.4006
1211.80 341.9512
1211.90 342.5041
1212.00 343.0569
1212.10 343.6098
1212.20 344.1626
1212.30 344.7155
1212.40 345.2683
1212.50 345.8212
1212.60 346.374
1212.70 346.9268
1212.80 347.4797
1212.90 348.0325
1213.00 348.3694
1213.10 348.4903
1213.20 348.6112
1213.30 348.7321
1213.40 348.853
1213.50 348.9739
1213.60 349.0948
1213.70 349.2157
1213.80 349.3366
1213.90 349.4575
1214.00 349.5784
1214.10 349.6993
1214.20 349.8202
1214.30 349.9411
1214.40 350.062
1214.50 350.1828
1214.60 350.3037
1214.70 350.4246
1214.80 350.5455
1214.90 350.6664
1215.00 350.7873
1215.10 350.9082
1215.20 351.0291
1215.30 351.15
1215.40 351.2709
1215.50 351.3918
1215.60 351.5127
1215.70 351.6336
1215.80 351.7545
1215.90 351.8754
1216.00 351.9963
1216.10 352.0593
1216.20 352.1223
1216.30 352.1853
1216.40 352.2484
1216.50 352.3114
1216.60 352.3744
1216.70 352.4374
1216.80 352.5004
1216.90 352.5635
1217.00 352.6265
1217.10 352.6895
1217.20 352.7525
1217.30 352.8326
1217.40 352.9239
1217.50 353.0153
1217.60 353.1066
1217.70 353.198
1217.80 353.2893
1217.90 353.3807
1218.00 353.4721
1218.10 353.5634
1218.20 353.6548
1218.30 353.7461
1218.40 353.8375
1218.50 353.9289
1218.60 354.0202
1218.70 354.1116
1218.80 354.2029
1218.90 354.2943
1219.00 354.3857
1219.10 354.477
1219.20 354.5684
1219.30 354.6597
1219.40 354.7511
1219.50 354.8425
1219.60 354.9338
1219.70 355.0252
1219.80 355.1165
1219.90 355.2079
1220.00 355.2993
1220.10 355.3906
1220.20 355.482
1220.30 355.577
1220.40 355.7055
1220.50 355.834
1220.60 355.9625
1220.70 356.0909
1220.80 356.2194
1220.90 356.3479
1221.00 356.4764
1221.10 356.6049
1221.20 356.7333
1221.30 356.8618
1221.40 356.9903
1221.50 357.1188
1221.60 357.368
1221.70 357.669
1221.80 357.97
1221.90 358.271
1222.00 358.572
1222.10 358.873
1222.20 359.1741
1222.30 359.4751
1222.40 359.7761
1222.50 360.0771
1222.60 360.3781
1222.70 360.6791
1222.80 360.9801
1222.90 361.2811
1223.00 361.5821
1223.10 361.8831
1223.20 362.1841
1223.30 362.4851
1223.40 362.7862
1223.50 363.0872
1223.60 363.3882
1223.70 363.6892
1223.80 363.9902
1223.90 364.2912
1224.00 364.5922
1224.10 364.8932
1224.20 365.1942
1224.30 365.4952
1224.40 365.7962
1224.50 366.0972
1224.60 366.3926
1224.70 366.6654
1224.80 366.9381
1224.90 367.2109
1225.00 367.4836
1225.10 367.7564
1225.20 368.0292
1225.30 368.3019
1225.40 368.5747
1225.50 368.8475
1225.60 369.1202
1225.70 369.393
1225.80 369.6657
1225.90 369.7017
1226.00 369.636
1226.10 369.5704
1226.20 369.5048
1226.30 369.4392
1226.40 369.3736
1226.50 369.308
1226.60 369.2424
1226.70 369.1768
1226.80 369.1112
1226.90 369.0456
1227.00 368.98
1227.10 368.9144
1227.20 368.8488
1227.30 368.7832
1227.40 368.7176
1227.50 368.652
1227.60 368.5864
1227.70 368.5208
1227.80 368.4552
1227.90 368.3896
1228.00 368.324
1228.10 368.2584
1228.20 368.1928
1228.30 368.1272
1228.40 368.0616
1228.50 367.996
1228.60 367.9304
1228.70 367.8648
1228.80 367.7992
1228.90 367.7312
1229.00 367.6537
1229.10 367.5762
1229.20 367.4987
1229.30 367.4212
1229.40 367.3437
1229.50 367.2662
1229.60 367.1887
1229.70 367.1113
1229.80 367.0338
1229.90 366.9563
1230.00 366.8788
1230.10 366.8013
1230.20 366.9984
1230.30 367.2641
1230.40 367.5299
1230.50 367.7956
1230.60 368.0613
1230.70 368.3271
1230.80 368.5928
1230.90 368.8586
1231.00 369.1243
1231.10 369.3901
1231.20 369.6558
1231.30 369.9215
1231.40 370.1873
1231.50 370.453
1231.60 370.7188
1231.70 370.9845
1231.80 371.2503
1231.90 371.516
1232.00 371.7817
1232.10 372.0475
1232.20 372.3132
1232.30 372.579
1232.40 372.8447
1232.50 373.1105
1232.60 373.3762
1232.70 373.6419
1232.80 373.9077
1232.90 374.1734
1233.00 374.4392
1233.10 374.7049
1233.20 374.9688
1233.30 375.2254
1233.40 375.4821
1233.50 375.7387
1233.60 375.9953
1233.70 376.2519
1233.80 376.5085
1233.90 376.7651
1234.00 377.0217
1234.10 377.2783
1234.20 377.535
1234.30 377.7916
1234.40 378.0482
1234.50 378.1477
1234.60 378.1799
1234.70 378.2122
1234.80 378.2444
1234.90 378.2766
1235.00 378.3088
1235.10 378.3411
1235.20 378.3733
1235.30 378.4055
1235.40 378.4377
1235.50 378.4699
1235.60 378.5022
1235.70 378.5344
1235.80 378.5666
1235.90 378.5988
1236.00 378.6311
1236.10 378.6633
1236.20 378.6955
1236.30 378.7277
1236.40 378.76
1236.50 378.7922
1236.60 378.8244
1236.70 378.8566
1236.80 378.8888
1236.90 378.9211
1237.00 378.9533
1237.10 378.9855
1237.20 379.0177
1237.30 379.05
1237.40 379.0822
1237.50 379.1148
1237.60 379.1488
1237.70 379.1829
1237.80 379.2169
1237.90 379.251
1238.00 379.2851
1238.10 379.3191
1238.20 379.3532
1238.30 379.3872
1238.40 379.4213
1238.50 379.4553
1238.60 379.4894
1238.70 379.5235
1238.80 379.3209
1238.90 379.017
1239.00 378.713
1239.10 378.4091
1239.20 378.1051
1239.30 377.8012
1239.40 377.4972
1239.50 377.1933
1239.60 376.8893
1239.70 376.5854
1239.80 376.2814
1239.90 375.9775
1240.00 375.6735
1240.10 375.3696
1240.20 375.0656
1240.30 374.7617
1240.40 374.4577
1240.50 374.1538
1240.60 373.8498
1240.70 373.5459
1240.80 373.2419
1240.90 372.938
1241.00 372.634
1241.10 372.3301
1241.20 372.0261
1241.30 371.7222
1241.40 371.4182
1241.50 371.1143
1241.60 370.8103
1241.70 370.5064
1241.80 370.2052
1241.90 369.9292
1242.00 369.6532
1242.10 369.3773
1242.20 369.1013
1242.30 368.8253
1242.40 368.5493
1242.50 368.2733
1242.60 367.9973
1242.70 367.7213
1242.80 367.4453
1242.90 367.1694
1243.00 366.8934
1243.10 366.8072
1243.20 366.8025
1243.30 366.7977
1243.40 366.7929
1243.50 366.7881
1243.60 366.7834
1243.70 366.7786
1243.80 366.7738
1243.90 366.769
1244.00 366.7643
1244.10 366.7595
1244.20 366.7547
1244.30 366.7499
1244.40 366.7452
1244.50 366.7404
1244.60 366.7356
1244.70 366.7308
1244.80 366.7261
1244.90 366.7213
1245.00 366.7165
1245.10 366.7117
1245.20 366.707
1245.30 366.7022
1245.40 366.6974
1245.50 366.6927
1245.60 366.6879
1245.70 366.6831
1245.80 366.6783
1245.90 366.6736
1246.00 366.6688
1246.10 366.664
1246.20 366.7025
1246.30 366.741
1246.40 366.7795
1246.50 366.8181
1246.60 366.8566
1246.70 366.8951
1246.80 366.9336
1246.90 366.9721
1247.00 367.0106
1247.10 367.0491
1247.20 367.0876
1247.30 367.1261
1247.40 367.0619
1247.50 366.929
1247.60 366.7962
1247.70 366.6634
1247.80 366.5306
1247.90 366.3978
1248.00 366.265
1248.10 366.1322
1248.20 365.9994
1248.30 365.8666
1248.40 365.7338
1248.50 365.601
1248.60 365.4682
1248.70 365.3354
1248.80 365.2026
1248.90 365.0698
1249.00 364.937
1249.10 364.8042
1249.20 364.6714
1249.30 364.5386
1249.40 364.4058
1249.50 364.273
1249.60 364.1402
1249.70 364.0073
1249.80 363.8745
1249.90 363.7417
1250.00 363.6089
1250.10 363.4761
1250.20 363.3433
1250.30 363.2105
1250.40 363.0777
1250.50 362.9315
1250.60 362.7854
1250.70 362.6392
1250.80 362.4931
1250.90 362.3469
1251.00 362.2007
1251.10 362.0546
1251.20 361.9084
1251.30 361.7622
1251.40 361.6161
1251.50 361.4699
1251.60 361.3237
1251.70 361.3435
1251.80 361.5292
1251.90 361.7149
1252.00 361.9006
1252.10 362.0864
1252.20 362.2721
1252.30 362.4578
1252.40 362.6435
1252.50 362.8292
1252.60 363.0149
1252.70 363.2007
1252.80 363.3864
1252.90 363.5721
1253.00 363.7578
1253.10 363.9435
1253.20 364.1292
1253.30 364.315
1253.40 364.5007
1253.50 364.6864
1253.60 364.8721
1253.70 365.0578
1253.80 365.2435
1253.90 365.4293
1254.00 365.615
1254.10 365.8007
1254.20 365.9864
1254.30 366.1721
1254.40 366.3578
1254.50 366.5435
1254.60 366.7293
1254.70 366.915
1254.80 367.08
1254.90 367.2428
1255.00 367.4055
1255.10 367.5683
1255.20 367.731
1255.30 367.8938
1255.40 368.0565
1255.50 368.2192
1255.60 368.382
1255.70 368.5447
1255.80 368.7075
1255.90 368.8702
1256.00 368.9649
1256.10 368.9576
1256.20 368.9503
1256.30 368.943
1256.40 368.9357
1256.50 368.9283
1256.60 368.921
1256.70 368.9137
1256.80 368.9064
1256.90 368.899
1257.00 368.8917
1257.10 368.8844
1257.20 368.8771
1257.30 368.8698
1257.40 368.8624
1257.50 368.8551
1257.60 368.8478
1257.70 368.8405
1257.80 368.8331
1257.90 368.8258
1258.00 368.8185
1258.10 368.8112
1258.20 368.8039
1258.30 368.7965
1258.40 368.7892
1258.50 368.7819
1258.60 368.7746
1258.70 368.7672
1258.80 368.7599
1258.90 368.7526
1259.00 368.7453
1259.10 368.7875
1259.20 368.8509
1259.30 368.9143
1259.40 368.9777
1259.50 369.0411
1259.60 369.1045
1259.70 369.1679
1259.80 369.2313
1259.90 369.2947
1260.00 369.3581
1260.10 369.4215
1260.20 369.4849
1260.30 369.6594
1260.40 370.2784
1260.50 370.8974
1260.60 371.5165
1260.70 372.1355
1260.80 372.7545
1260.90 373.3735
1261.00 373.9925
1261.10 374.6115
1261.20 375.2305
1261.30 375.8495
1261.40 376.4685
1261.50 377.0875
1261.60 377.7065
1261.70 378.3256
1261.80 378.9446
1261.90 379.5636
1262.00 380.1826
1262.10 380.8016
1262.20 381.4206
1262.30 382.0396
1262.40 382.6586
1262.50 383.2776
1262.60 383.8966
1262.70 384.5156
1262.80 385.1346
1262.90 385.7537
1263.00 386.3727
1263.10 386.9917
1263.20 387.6107
1263.30 388.2297
1263.40 388.804
1263.50 389.3486
1263.60 389.8932
1263.70 390.4377
1263.80 390.9823
1263.90 391.5269
1264.00 392.0715
1264.10 392.616
1264.20 393.1606
1264.30 393.7052
1264.40 394.2497
1264.50 394.7943
1264.60 395.3244
1264.70 395.7246
1264.80 396.1247
1264.90 396.5249
1265.00 396.925
1265.10 397.3252
1265.20 397.7253
1265.30 398.1255
1265.40 398.5256
1265.50 398.9258
1265.60 399.326
1265.70 399.7261
1265.80 400.1263
1265.90 400.5264
1266.00 400.9266
1266.10 401.3267
1266.20 401.7269
1266.30 402.127
1266.40 402.5272
1266.50 402.9273
1266.60 403.3275
1266.70 403.7276
1266.80 404.1278
1266.90 404.5279
1267.00 404.9281
1267.10 405.3282
1267.20 405.7284
1267.30 406.1285
1267.40 406.5287
1267.50 406.9288
1267.60 407.329
1267.70 407.7383
1267.80 408.1613
1267.90 408.5843
1268.00 409.0073
1268.10 409.4303
1268.20 409.8534
1268.30 410.2764
1268.40 410.6994
1268.50 411.1224
1268.60 411.5454
1268.70 411.9684
1268.80 412.3915
1268.90 412.8145
1269.00 413.1934
1269.10 413.5723
1269.20 413.9513
1269.30 414.3302
1269.40 414.7091
1269.50 415.088
1269.60 415.467
1269.70 415.8459
1269.80 416.2248
1269.90 416.6038
1270.00 416.9827
1270.10 417.3616
1270.20 417.7405
1270.30 418.1195
1270.40 418.4984
1270.50 418.8773
1270.60 419.2563
1270.70 419.6352
1270.80 420.0141
1270.90 420.393
1271.00 420.772
1271.10 421.1509
1271.20 421.5298
1271.30 421.9088
1271.40 422.2877
1271.50 422.6666
1271.60 423.0455
1271.70 423.4245
1271.80 423.8034
1271.90 424.1823
1272.00 424.5327
1272.10 424.8163
1272.20 425.1
1272.30 425.3836
1272.40 425.6673
1272.50 425.9509
1272.60 426.2346
1272.70 426.5182
1272.80 426.8018
1272.90 427.0855
1273.00 427.3691
1273.10 427.6528
1273.20 427.9364
1273.30 428.1473
1273.40 428.34
1273.50 428.5326
1273.60 428.7253
1273.70 428.918
1273.80 429.1106
1273.90 429.3033
1274.00 429.496
1274.10 429.6886
1274.20 429.8813
1274.30 430.074
1274.40 430.2666
1274.50 430.4593
1274.60 430.652
1274.70 430.8446
1274.80 431.0373
1274.90 431.23
1275.00 431.4226
1275.10 431.6153
1275.20 431.808
1275.30 432.0007
1275.40 432.1933
1275.50 432.386
1275.60 432.5787
1275.70 432.7713
1275.80 432.964
1275.90 433.1567
1276.00 433.3493
1276.10 433.542
1276.20 433.7347
1276.30 433.9362
1276.40 434.2179
1276.50 434.4996
1276.60 434.7813
1276.70 435.0629
1276.80 435.3446
1276.90 435.6263
1277.00 435.908
1277.10 436.1897
1277.20 436.4713
1277.30 436.753
1277.40 437.0347
1277.50 437.3164
1277.60 437.5085
1277.70 437.641
1277.80 437.7735
1277.90 437.906
1278.00 438.0385
1278.10 438.1709
1278.20 438.3034
1278.30 438.4359
1278.40 438.5684
1278.50 438.7009
1278.60 438.8333
1278.70 438.9658
1278.80 439.0983
1278.90 439.2308
1279.00 439.3633
1279.10 439.4957
1279.20 439.6282
1279.30 439.7607
1279.40 439.8932
1279.50 440.0257
1279.60 440.1581
1279.70 440.2906
1279.80 440.4231
1279.90 440.5556
1280.00 440.6881
1280.10 440.8205
1280.20 440.953
1280.30 441.0855
1280.40 441.218
1280.50 441.3505
1280.60 441.4829
1280.70 441.5812
1280.80 441.6794
1280.90 441.7777
1281.00 441.8759
1281.10 441.9742
1281.20 442.0724
1281.30 442.1707
1281.40 442.2689
1281.50 442.3672
1281.60 442.4654
1281.70 442.5637
1281.80 442.6619
1281.90 442.6178
1282.00 442.4315
1282.10 442.2451
1282.20 442.0587
1282.30 441.8723
1282.40 441.6859
1282.50 441.4995
1282.60 441.3131
1282.70 441.1267
1282.80 440.9404
1282.90 440.754
1283.00 440.5676
1283.10 440.3812
1283.20 440.1948
1283.30 440.0084
1283.40 439.822
1283.50 439.6356
1283.60 439.4493
1283.70 439.2629
1283.80 439.0765
1283.90 438.8901
1284.00 438.7037
1284.10 438.5173
1284.20 438.3309
1284.30 438.1445
1284.40 437.9581
1284.50 437.7718
1284.60 437.5854
1284.70 437.399
1284.80 437.2126
1284.90 437.0262
1285.00 436.8539
1285.10 436.6851
1285.20 436.5163
1285.30 436.3475
1285.40 436.1787
1285.50 436.0099
1285.60 435.8411
1285.70 435.6723
1285.80 435.5035
1285.90 435.3347
1286.00 435.1659
1286.10 434.9971
1286.20 434.9336
1286.30 435.1158
1286.40 435.298
1286.50 435.4802
1286.60 435.6624
1286.70 435.8447
1286.80 436.0269
1286.90 436.2091
1287.00 436.3913
1287.10 436.5735
1287.20 436.7557
1287.30 436.9379
1287.40 437.1202
1287.50 437.3024
1287.60 437.4846
1287.70 437.6668
1287.80 437.849
1287.90 438.0312
1288.00 438.2134
1288.10 438.3956
1288.20 438.5779
1288.30 438.7601
1288.40 438.9423
1288.50 439.1245
1288.60 439.3067
1288.70 439.4889
1288.80 439.6711
1288.90 439.8534
1289.00 440.0356
1289.10 440.2178
1289.20 440.4
1289.30 440.5694
1289.40 440.7303
1289.50 440.8913
1289.60 441.0522
1289.70 441.2131
1289.80 441.374
1289.90 441.5349
1290.00 441.6958
1290.10 441.8568
1290.20 442.0177
1290.30 442.1786
1290.40 442.3395
1290.50 442.4667
1290.60 442.2909
1290.70 442.1151
1290.80 441.9393
1290.90 441.7635
1291.00 441.5876
1291.10 441.4118
1291.20 441.236
1291.30 441.0602
1291.40 440.8843
1291.50 440.7085
1291.60 440.5327
1291.70 440.3569
1291.80 440.1811
1291.90 440.0052
1292.00 439.8294
1292.10 439.6536
1292.20 439.4778
1292.30 439.3019
1292.40 439.1261
1292.50 438.9503
1292.60 438.7745
1292.70 438.5986
1292.80 438.4228
1292.90 438.247
1293.00 438.0712
1293.10 437.8954
1293.20 437.7195
1293.30 437.5437
1293.40 437.3679
1293.50 437.1921
1293.60 437.0168
1293.70 436.8425
1293.80 436.6682
1293.90 436.4939
1294.00 436.3195
1294.10 436.1452
1294.20 435.9709
1294.30 435.7966
1294.40 435.6222
1294.50 435.4479
1294.60 435.2736
1294.70 435.0992
1294.80 434.9249
1294.90 434.9826
1295.00 435.0661
1295.10 435.1496
1295.20 435.233
1295.30 435.3165
1295.40 435.4
1295.50 435.4835
1295.60 435.5669
1295.70 435.6504
1295.80 435.7339
1295.90 435.8174
1296.00 435.9008
1296.10 435.9843
1296.20 436.0678
1296.30 436.1513
1296.40 436.2347
1296.50 436.3182
1296.60 436.4017
1296.70 436.4852
1296.80 436.5686
1296.90 436.6521
1297.00 436.7356
1297.10 436.8191
1297.20 436.9025
1297.30 436.986
1297.40 437.0695
1297.50 437.153
1297.60 437.2364
1297.70 437.3199
1297.80 437.4034
1297.90 437.4854
1298.00 437.5618
1298.10 437.6382
1298.20 437.7145
1298.30 437.7909
1298.40 437.8673
1298.50 437.9436
1298.60 438.02
1298.70 438.0964
1298.80 438.1728
1298.90 438.2491
1299.00 438.3255
1299.10 438.4019
1299.20 438.2208
1299.30 437.9294
1299.40 437.6381
1299.50 437.3467
1299.60 437.0553
1299.70 436.764
1299.80 436.4726
1299.90 436.1812
