# Version 2.1 - nm, norm@500 to 1, cut digits
# Wavelength(nm)  Flambda(ergs/cm^s/s/nm)
300.00 8.231871e-96
300.10 8.231871e-96
300.20 8.231871e-96
300.30 8.231871e-96
300.40 8.231871e-96
300.50 8.231871e-96
300.60 8.231871e-96
300.70 8.231871e-96
300.80 8.231871e-96
300.90 8.231871e-96
301.00 8.231871e-96
301.10 8.231871e-96
301.20 8.231871e-96
301.30 8.231871e-96
301.40 8.231871e-96
301.50 8.231871e-96
301.60 8.231871e-96
301.70 8.231871e-96
301.80 8.231871e-96
301.90 8.231871e-96
302.00 8.231871e-96
302.10 8.231871e-96
302.20 8.231871e-96
302.30 8.231871e-96
302.40 8.231871e-96
302.50 8.231871e-96
302.60 8.231871e-96
302.70 8.231871e-96
302.80 8.231871e-96
302.90 8.231871e-96
303.00 8.231871e-96
303.10 8.231871e-96
303.20 8.231871e-96
303.30 8.231871e-96
303.40 8.231871e-96
303.50 8.231871e-96
303.60 8.231871e-96
303.70 8.231871e-96
303.80 8.231871e-96
303.90 8.231871e-96
304.00 8.231871e-96
304.10 8.231871e-96
304.20 8.231871e-96
304.30 8.231871e-96
304.40 8.231871e-96
304.50 8.231871e-96
304.60 8.231871e-96
304.70 8.231871e-96
304.80 8.231871e-96
304.90 8.231871e-96
305.00 8.231871e-96
305.10 8.231871e-96
305.20 8.231871e-96
305.30 8.231871e-96
305.40 8.231871e-96
305.50 8.231871e-96
305.60 8.231871e-96
305.70 8.231871e-96
305.80 8.231871e-96
305.90 8.231871e-96
306.00 8.231871e-96
306.10 8.231871e-96
306.20 8.231871e-96
306.30 8.231871e-96
306.40 8.231871e-96
306.50 8.231871e-96
306.60 8.231871e-96
306.70 8.231871e-96
306.80 8.231871e-96
306.90 8.231871e-96
307.00 8.231871e-96
307.10 8.231871e-96
307.20 8.231871e-96
307.30 8.231871e-96
307.40 8.231871e-96
307.50 8.231871e-96
307.60 8.231871e-96
307.70 8.231871e-96
307.80 8.231871e-96
307.90 8.231871e-96
308.00 8.231871e-96
308.10 8.231871e-96
308.20 8.231871e-96
308.30 8.231871e-96
308.40 8.231871e-96
308.50 8.231871e-96
308.60 8.231871e-96
308.70 8.231871e-96
308.80 8.231871e-96
308.90 8.231871e-96
309.00 8.231871e-96
309.10 8.231871e-96
309.20 8.231871e-96
309.30 8.231871e-96
309.40 8.231871e-96
309.50 8.231871e-96
309.60 8.231871e-96
309.70 8.231871e-96
309.80 8.231871e-96
309.90 8.231871e-96
310.00 8.231871e-96
310.10 8.231871e-96
310.20 8.231871e-96
310.30 8.231871e-96
310.40 8.231871e-96
310.50 8.231871e-96
310.60 8.231871e-96
310.70 8.231871e-96
310.80 8.231871e-96
310.90 8.231871e-96
311.00 8.231871e-96
311.10 8.231871e-96
311.20 8.231871e-96
311.30 8.231871e-96
311.40 8.231871e-96
311.50 8.231871e-96
311.60 8.231871e-96
311.70 8.231871e-96
311.80 8.231871e-96
311.90 8.231871e-96
312.00 8.231871e-96
312.10 8.231871e-96
312.20 8.231871e-96
312.30 8.231871e-96
312.40 8.231871e-96
312.50 8.231871e-96
312.60 8.231871e-96
312.70 8.231871e-96
312.80 8.231871e-96
312.90 8.231871e-96
313.00 8.231871e-96
313.10 8.231871e-96
313.20 8.231871e-96
313.30 8.231871e-96
313.40 8.231871e-96
313.50 8.231871e-96
313.60 8.231871e-96
313.70 8.231871e-96
313.80 8.231871e-96
313.90 8.231871e-96
314.00 8.231871e-96
314.10 8.231871e-96
314.20 8.231871e-96
314.30 8.231871e-96
314.40 8.231871e-96
314.50 8.231871e-96
314.60 8.231871e-96
314.70 8.231871e-96
314.80 8.231871e-96
314.90 8.231871e-96
315.00 8.231871e-96
315.10 8.231871e-96
315.20 8.231871e-96
315.30 8.231871e-96
315.40 8.231871e-96
315.50 8.231871e-96
315.60 8.231871e-96
315.70 8.231871e-96
315.80 8.231871e-96
315.90 8.231871e-96
316.00 8.231871e-96
316.10 8.231871e-96
316.20 8.231871e-96
316.30 8.231871e-96
316.40 8.231871e-96
316.50 8.231871e-96
316.60 8.231871e-96
316.70 8.231871e-96
316.80 8.231871e-96
316.90 8.231871e-96
317.00 8.231871e-96
317.10 8.231871e-96
317.20 8.231871e-96
317.30 8.231871e-96
317.40 8.231871e-96
317.50 8.231871e-96
317.60 8.231871e-96
317.70 8.231871e-96
317.80 8.231871e-96
317.90 8.231871e-96
318.00 8.231871e-96
318.10 8.231871e-96
318.20 8.231871e-96
318.30 8.231871e-96
318.40 8.231871e-96
318.50 8.231871e-96
318.60 8.231871e-96
318.70 8.231871e-96
318.80 8.231871e-96
318.90 8.231871e-96
319.00 8.231871e-96
319.10 8.231871e-96
319.20 8.231871e-96
319.30 8.231871e-96
319.40 8.231871e-96
319.50 8.231871e-96
319.60 8.231871e-96
319.70 8.231871e-96
319.80 8.231871e-96
319.90 8.231871e-96
320.00 8.231871e-96
320.10 8.231871e-96
320.20 8.231871e-96
320.30 8.231871e-96
320.40 8.231871e-96
320.50 8.231871e-96
320.60 8.231871e-96
320.70 8.231871e-96
320.80 8.231871e-96
320.90 8.231871e-96
321.00 8.231871e-96
321.10 8.231871e-96
321.20 8.231871e-96
321.30 8.231871e-96
321.40 8.231871e-96
321.50 8.231871e-96
321.60 8.231871e-96
321.70 8.231871e-96
321.80 8.231871e-96
321.90 8.231871e-96
322.00 8.231871e-96
322.10 8.231871e-96
322.20 8.231871e-96
322.30 8.231871e-96
322.40 8.231871e-96
322.50 8.231871e-96
322.60 8.231871e-96
322.70 8.231871e-96
322.80 8.231871e-96
322.90 8.231871e-96
323.00 8.231871e-96
323.10 8.231871e-96
323.20 8.231871e-96
323.30 8.231871e-96
323.40 8.231871e-96
323.50 8.231871e-96
323.60 8.231871e-96
323.70 8.231871e-96
323.80 8.231871e-96
323.90 8.231871e-96
324.00 8.231871e-96
324.10 8.231871e-96
324.20 8.231871e-96
324.30 8.231871e-96
324.40 8.231871e-96
324.50 8.231871e-96
324.60 8.231871e-96
324.70 8.231871e-96
324.80 8.231871e-96
324.90 8.231871e-96
325.00 8.231871e-96
325.10 8.231871e-96
325.20 8.231871e-96
325.30 8.231871e-96
325.40 8.231871e-96
325.50 8.231871e-96
325.60 8.231871e-96
325.70 8.231871e-96
325.80 8.231871e-96
325.90 8.231871e-96
326.00 8.231871e-96
326.10 8.231871e-96
326.20 8.231871e-96
326.30 8.231871e-96
326.40 8.231871e-96
326.50 8.231871e-96
326.60 8.231871e-96
326.70 8.231871e-96
326.80 8.231871e-96
326.90 8.231871e-96
327.00 8.231871e-96
327.10 8.231871e-96
327.20 8.231871e-96
327.30 8.231871e-96
327.40 8.231871e-96
327.50 8.231871e-96
327.60 8.231871e-96
327.70 8.231871e-96
327.80 8.231871e-96
327.90 8.231871e-96
328.00 8.231871e-96
328.10 8.231871e-96
328.20 8.231871e-96
328.30 8.231871e-96
328.40 8.231871e-96
328.50 8.231871e-96
328.60 8.231871e-96
328.70 8.231871e-96
328.80 8.231871e-96
328.90 8.231871e-96
329.00 8.231871e-96
329.10 8.231871e-96
329.20 8.231871e-96
329.30 8.231871e-96
329.40 8.231871e-96
329.50 8.231871e-96
329.60 8.231871e-96
329.70 8.231871e-96
329.80 8.231871e-96
329.90 8.231871e-96
330.00 8.231871e-96
330.10 8.231871e-96
330.20 8.231871e-96
330.30 8.231871e-96
330.40 8.231871e-96
330.50 8.231871e-96
330.60 8.231871e-96
330.70 8.231871e-96
330.80 8.231871e-96
330.90 8.231871e-96
331.00 8.231871e-96
331.10 8.231871e-96
331.20 8.231871e-96
331.30 8.231871e-96
331.40 8.231871e-96
331.50 8.231871e-96
331.60 8.231871e-96
331.70 8.231871e-96
331.80 8.231871e-96
331.90 8.231871e-96
332.00 8.231871e-96
332.10 8.231871e-96
332.20 8.231871e-96
332.30 8.231871e-96
332.40 8.231871e-96
332.50 8.231871e-96
332.60 8.231871e-96
332.70 8.231871e-96
332.80 8.231871e-96
332.90 8.231871e-96
333.00 8.231871e-96
333.10 8.231871e-96
333.20 8.231871e-96
333.30 8.231871e-96
333.40 8.231871e-96
333.50 8.231871e-96
333.60 8.231871e-96
333.70 8.231871e-96
333.80 8.231871e-96
333.90 8.231871e-96
334.00 8.231871e-96
334.10 8.231871e-96
334.20 8.231871e-96
334.30 8.231871e-96
334.40 8.231871e-96
334.50 8.231871e-96
334.60 8.231871e-96
334.70 8.231871e-96
334.80 8.231871e-96
334.90 8.231871e-96
335.00 8.231871e-96
335.10 8.231871e-96
335.20 8.231871e-96
335.30 8.231871e-96
335.40 8.231871e-96
335.50 8.231871e-96
335.60 8.231871e-96
335.70 8.231871e-96
335.80 8.231871e-96
335.90 8.231871e-96
336.00 8.231871e-96
336.10 8.231871e-96
336.20 8.231871e-96
336.30 8.231871e-96
336.40 8.231871e-96
336.50 8.231871e-96
336.60 8.231871e-96
336.70 8.231871e-96
336.80 8.231871e-96
336.90 8.231871e-96
337.00 8.231871e-96
337.10 8.231871e-96
337.20 8.231871e-96
337.30 8.231871e-96
337.40 8.231871e-96
337.50 8.231871e-96
337.60 8.231871e-96
337.70 8.231871e-96
337.80 8.231871e-96
337.90 8.231871e-96
338.00 8.231871e-96
338.10 8.231871e-96
338.20 8.231871e-96
338.30 8.231871e-96
338.40 8.231871e-96
338.50 8.231871e-96
338.60 8.231871e-96
338.70 8.231871e-96
338.80 8.231871e-96
338.90 8.231871e-96
339.00 8.231871e-96
339.10 8.231871e-96
339.20 8.231871e-96
339.30 8.231871e-96
339.40 8.231871e-96
339.50 8.231871e-96
339.60 8.231871e-96
339.70 8.231871e-96
339.80 8.231871e-96
339.90 8.231871e-96
340.00 8.231871e-96
340.10 8.231871e-96
340.20 8.231871e-96
340.30 8.231871e-96
340.40 8.231871e-96
340.50 8.231871e-96
340.60 8.231871e-96
340.70 8.231871e-96
340.80 8.231871e-96
340.90 8.231871e-96
341.00 8.231871e-96
341.10 8.231871e-96
341.20 8.231871e-96
341.30 8.231871e-96
341.40 8.231871e-96
341.50 8.231871e-96
341.60 8.231871e-96
341.70 8.231871e-96
341.80 8.231871e-96
341.90 8.231871e-96
342.00 8.231871e-96
342.10 8.231871e-96
342.20 8.231871e-96
342.30 8.231871e-96
342.40 8.231871e-96
342.50 8.231871e-96
342.60 8.231871e-96
342.70 8.231871e-96
342.80 8.231871e-96
342.90 8.231871e-96
343.00 8.231871e-96
343.10 8.231871e-96
343.20 8.231871e-96
343.30 8.231871e-96
343.40 8.231871e-96
343.50 8.231871e-96
343.60 8.231871e-96
343.70 8.231871e-96
343.80 8.231871e-96
343.90 8.231871e-96
344.00 8.231871e-96
344.10 8.231871e-96
344.20 8.231871e-96
344.30 8.231871e-96
344.40 8.231871e-96
344.50 8.231871e-96
344.60 8.231871e-96
344.70 8.231871e-96
344.80 8.231871e-96
344.90 8.231871e-96
345.00 8.231871e-96
345.10 8.231871e-96
345.20 8.231871e-96
345.30 8.231871e-96
345.40 8.231871e-96
345.50 8.231871e-96
345.60 8.231871e-96
345.70 8.231871e-96
345.80 8.231871e-96
345.90 8.231871e-96
346.00 8.231871e-96
346.10 8.231871e-96
346.20 8.231871e-96
346.30 8.231871e-96
346.40 8.231871e-96
346.50 8.231871e-96
346.60 8.231871e-96
346.70 8.231871e-96
346.80 8.231871e-96
346.90 8.231871e-96
347.00 8.231871e-96
347.10 8.231871e-96
347.20 8.231871e-96
347.30 8.231871e-96
347.40 8.231871e-96
347.50 8.231871e-96
347.60 8.231871e-96
347.70 8.231871e-96
347.80 8.231871e-96
347.90 8.231871e-96
348.00 8.231871e-96
348.10 8.231871e-96
348.20 8.231871e-96
348.30 8.231871e-96
348.40 8.231871e-96
348.50 8.231871e-96
348.60 8.231871e-96
348.70 8.231871e-96
348.80 8.231871e-96
348.90 8.231871e-96
349.00 8.231871e-96
349.10 8.231871e-96
349.20 8.231871e-96
349.30 8.231871e-96
349.40 8.231871e-96
349.50 8.231871e-96
349.60 8.231871e-96
349.70 8.231871e-96
349.80 8.231871e-96
349.90 8.231871e-96
350.00 8.231871e-96
350.10 8.231871e-96
350.20 8.231871e-96
350.30 8.231871e-96
350.40 8.231871e-96
350.50 8.231871e-96
350.60 8.231871e-96
350.70 8.231871e-96
350.80 8.231871e-96
350.90 8.231871e-96
351.00 8.231871e-96
351.10 8.231871e-96
351.20 8.231871e-96
351.30 8.231871e-96
351.40 8.231871e-96
351.50 8.231871e-96
351.60 8.231871e-96
351.70 8.231871e-96
351.80 8.231871e-96
351.90 8.231871e-96
352.00 8.231871e-96
352.10 8.231871e-96
352.20 8.231871e-96
352.30 8.231871e-96
352.40 8.231871e-96
352.50 8.231871e-96
352.60 8.231871e-96
352.70 8.231871e-96
352.80 8.231871e-96
352.90 8.231871e-96
353.00 8.231871e-96
353.10 8.231871e-96
353.20 8.231871e-96
353.30 8.231871e-96
353.40 8.231871e-96
353.50 8.231871e-96
353.60 8.231871e-96
353.70 8.231871e-96
353.80 8.231871e-96
353.90 8.231871e-96
354.00 8.231871e-96
354.10 8.231871e-96
354.20 8.231871e-96
354.30 8.231871e-96
354.40 8.231871e-96
354.50 8.231871e-96
354.60 8.231871e-96
354.70 8.231871e-96
354.80 8.231871e-96
354.90 8.231871e-96
355.00 8.231871e-96
355.10 8.231871e-96
355.20 8.231871e-96
355.30 8.231871e-96
355.40 8.231871e-96
355.50 8.231871e-96
355.60 8.231871e-96
355.70 8.231871e-96
355.80 8.231871e-96
355.90 8.231871e-96
356.00 8.231871e-96
356.10 8.231871e-96
356.20 8.231871e-96
356.30 8.231871e-96
356.40 8.231871e-96
356.50 8.231871e-96
356.60 8.231871e-96
356.70 8.231871e-96
356.80 8.231871e-96
356.90 8.231871e-96
357.00 8.231871e-96
357.10 8.231871e-96
357.20 8.231871e-96
357.30 8.231871e-96
357.40 8.231871e-96
357.50 8.231871e-96
357.60 8.231871e-96
357.70 8.231871e-96
357.80 8.231871e-96
357.90 8.231871e-96
358.00 8.231871e-96
358.10 8.231871e-96
358.20 8.231871e-96
358.30 8.231871e-96
358.40 8.231871e-96
358.50 8.231871e-96
358.60 8.231871e-96
358.70 8.231871e-96
358.80 8.231871e-96
358.90 8.231871e-96
359.00 8.231871e-96
359.10 8.231871e-96
359.20 8.231871e-96
359.30 8.231871e-96
359.40 8.231871e-96
359.50 8.231871e-96
359.60 8.231871e-96
359.70 8.231871e-96
359.80 8.231871e-96
359.90 8.231871e-96
360.00 8.231871e-96
360.10 8.231871e-96
360.20 8.231871e-96
360.30 8.231871e-96
360.40 8.231871e-96
360.50 8.231871e-96
360.60 8.231871e-96
360.70 8.231871e-96
360.80 8.231871e-96
360.90 8.231871e-96
361.00 8.231871e-96
361.10 8.231871e-96
361.20 8.231871e-96
361.30 8.231871e-96
361.40 8.231871e-96
361.50 8.231871e-96
361.60 8.231871e-96
361.70 8.231871e-96
361.80 8.231871e-96
361.90 8.231871e-96
362.00 8.231871e-96
362.10 8.231871e-96
362.20 8.231871e-96
362.30 8.231871e-96
362.40 8.231871e-96
362.50 8.231871e-96
362.60 8.231871e-96
362.70 8.231871e-96
362.80 8.231871e-96
362.90 8.231871e-96
363.00 8.231871e-96
363.10 8.231871e-96
363.20 8.231871e-96
363.30 8.231871e-96
363.40 8.231871e-96
363.50 8.231871e-96
363.60 8.231871e-96
363.70 8.231871e-96
363.80 8.231871e-96
363.90 8.231871e-96
364.00 8.231871e-96
364.10 8.231871e-96
364.20 8.231871e-96
364.30 8.231871e-96
364.40 8.231871e-96
364.50 8.231871e-96
364.60 8.231871e-96
364.70 8.231871e-96
364.80 8.231871e-96
364.90 8.231871e-96
365.00 8.231871e-96
365.10 8.231871e-96
365.20 8.231871e-96
365.30 8.231871e-96
365.40 8.231871e-96
365.50 8.231871e-96
365.60 8.231871e-96
365.70 8.231871e-96
365.80 8.231871e-96
365.90 8.231871e-96
366.00 8.231871e-96
366.10 8.231871e-96
366.20 8.231871e-96
366.30 8.231871e-96
366.40 8.231871e-96
366.50 8.231871e-96
366.60 8.231871e-96
366.70 8.231871e-96
366.80 8.231871e-96
366.90 8.231871e-96
367.00 8.231871e-96
367.10 8.231871e-96
367.20 8.231871e-96
367.30 8.231871e-96
367.40 8.231871e-96
367.50 8.231871e-96
367.60 8.231871e-96
367.70 8.231871e-96
367.80 8.231871e-96
367.90 8.231871e-96
368.00 8.231871e-96
368.10 8.231871e-96
368.20 8.231871e-96
368.30 8.231871e-96
368.40 8.231871e-96
368.50 8.231871e-96
368.60 8.231871e-96
368.70 8.231871e-96
368.80 8.231871e-96
368.90 8.231871e-96
369.00 8.231871e-96
369.10 8.231871e-96
369.20 8.231871e-96
369.30 8.231871e-96
369.40 8.231871e-96
369.50 8.231871e-96
369.60 8.231871e-96
369.70 8.231871e-96
369.80 8.231871e-96
369.90 8.231871e-96
370.00 8.231871e-96
370.10 8.231871e-96
370.20 8.231871e-96
370.30 8.231871e-96
370.40 8.231871e-96
370.50 8.231871e-96
370.60 8.231871e-96
370.70 8.231871e-96
370.80 8.231871e-96
370.90 8.231871e-96
371.00 8.231871e-96
371.10 8.231871e-96
371.20 8.231871e-96
371.30 8.231871e-96
371.40 8.231871e-96
371.50 8.231871e-96
371.60 8.231871e-96
371.70 8.231871e-96
371.80 8.231871e-96
371.90 8.231871e-96
372.00 8.231871e-96
372.10 8.231871e-96
372.20 8.231871e-96
372.30 8.231871e-96
372.40 8.231871e-96
372.50 8.231871e-96
372.60 8.231871e-96
372.70 8.231871e-96
372.80 8.231871e-96
372.90 8.231871e-96
373.00 8.231871e-96
373.10 8.231871e-96
373.20 8.231871e-96
373.30 8.231871e-96
373.40 8.231871e-96
373.50 8.231871e-96
373.60 8.231871e-96
373.70 8.231871e-96
373.80 8.231871e-96
373.90 8.231871e-96
374.00 8.231871e-96
374.10 8.231871e-96
374.20 8.231871e-96
374.30 8.231871e-96
374.40 8.231871e-96
374.50 8.231871e-96
374.60 8.231871e-96
374.70 8.231871e-96
374.80 8.231871e-96
374.90 8.231871e-96
375.00 8.231871e-96
375.10 8.231871e-96
375.20 8.231871e-96
375.30 8.231871e-96
375.40 8.231871e-96
375.50 8.231871e-96
375.60 8.231871e-96
375.70 8.231871e-96
375.80 8.231871e-96
375.90 8.231871e-96
376.00 8.231871e-96
376.10 8.231871e-96
376.20 8.231871e-96
376.30 8.231871e-96
376.40 8.231871e-96
376.50 8.231871e-96
376.60 8.231871e-96
376.70 8.231871e-96
376.80 8.231871e-96
376.90 8.231871e-96
377.00 8.231871e-96
377.10 8.231871e-96
377.20 8.231871e-96
377.30 8.231871e-96
377.40 8.231871e-96
377.50 8.231871e-96
377.60 8.231871e-96
377.70 8.231871e-96
377.80 8.231871e-96
377.90 8.231871e-96
378.00 8.231871e-96
378.10 8.231871e-96
378.20 8.231871e-96
378.30 8.231871e-96
378.40 8.231871e-96
378.50 8.231871e-96
378.60 8.231871e-96
378.70 8.231871e-96
378.80 8.231871e-96
378.90 8.231871e-96
379.00 8.231871e-96
379.10 8.231871e-96
379.20 8.231871e-96
379.30 8.231871e-96
379.40 8.231871e-96
379.50 8.231871e-96
379.60 8.231871e-96
379.70 8.231871e-96
379.80 8.231871e-96
379.90 8.231871e-96
380.00 8.231871e-96
380.10 8.231871e-96
380.20 8.231871e-96
380.30 8.231871e-96
380.40 8.231871e-96
380.50 8.231871e-96
380.60 8.231871e-96
380.70 8.231871e-96
380.80 8.231871e-96
380.90 8.231871e-96
381.00 8.231871e-96
381.10 8.231871e-96
381.20 8.231871e-96
381.30 8.231871e-96
381.40 8.231871e-96
381.50 8.231871e-96
381.60 8.231871e-96
381.70 8.231871e-96
381.80 8.231871e-96
381.90 8.231871e-96
382.00 8.231871e-96
382.10 8.231871e-96
382.20 8.231871e-96
382.30 8.231871e-96
382.40 8.231871e-96
382.50 8.231871e-96
382.60 8.231871e-96
382.70 8.231871e-96
382.80 8.231871e-96
382.90 8.231871e-96
383.00 8.231871e-96
383.10 8.231871e-96
383.20 8.231871e-96
383.30 8.231871e-96
383.40 8.231871e-96
383.50 8.231871e-96
383.60 8.231871e-96
383.70 8.231871e-96
383.80 8.231871e-96
383.90 8.231871e-96
384.00 8.231871e-96
384.10 8.231871e-96
384.20 8.231871e-96
384.30 8.231871e-96
384.40 8.231871e-96
384.50 8.231871e-96
384.60 8.231871e-96
384.70 8.231871e-96
384.80 8.231871e-96
384.90 8.231871e-96
385.00 8.231871e-96
385.10 8.231871e-96
385.20 8.231871e-96
385.30 8.231871e-96
385.40 8.231871e-96
385.50 8.231871e-96
385.60 8.231871e-96
385.70 8.231871e-96
385.80 8.231871e-96
385.90 8.231871e-96
386.00 8.231871e-96
386.10 8.231871e-96
386.20 8.231871e-96
386.30 8.231871e-96
386.40 8.231871e-96
386.50 8.231871e-96
386.60 8.231871e-96
386.70 8.231871e-96
386.80 8.231871e-96
386.90 8.231871e-96
387.00 8.231871e-96
387.10 8.231871e-96
387.20 8.231871e-96
387.30 8.231871e-96
387.40 8.231871e-96
387.50 8.231871e-96
387.60 8.231871e-96
387.70 8.231871e-96
387.80 8.231871e-96
387.90 8.231871e-96
388.00 8.231871e-96
388.10 8.231871e-96
388.20 8.231871e-96
388.30 8.231871e-96
388.40 8.231871e-96
388.50 8.231871e-96
388.60 8.231871e-96
388.70 8.231871e-96
388.80 8.231871e-96
388.90 8.231871e-96
389.00 8.231871e-96
389.10 8.231871e-96
389.20 8.231871e-96
389.30 8.231871e-96
389.40 8.231871e-96
389.50 8.231871e-96
389.60 8.231871e-96
389.70 8.231871e-96
389.80 8.231871e-96
389.90 8.231871e-96
390.00 8.231871e-96
390.10 8.231871e-96
390.20 8.231871e-96
390.30 8.231871e-96
390.40 8.231871e-96
390.50 8.231871e-96
390.60 8.231871e-96
390.70 8.231871e-96
390.80 8.231871e-96
390.90 8.231871e-96
391.00 8.231871e-96
391.10 8.231871e-96
391.20 8.231871e-96
391.30 8.231871e-96
391.40 8.231871e-96
391.50 8.231871e-96
391.60 8.231871e-96
391.70 8.231871e-96
391.80 8.231871e-96
391.90 8.231871e-96
392.00 8.231871e-96
392.10 8.231871e-96
392.20 8.231871e-96
392.30 8.231871e-96
392.40 8.231871e-96
392.50 8.231871e-96
392.60 8.231871e-96
392.70 8.231871e-96
392.80 8.231871e-96
392.90 8.231871e-96
393.00 8.231871e-96
393.10 8.231871e-96
393.20 8.231871e-96
393.30 8.231871e-96
393.40 8.231871e-96
393.50 8.231871e-96
393.60 8.231871e-96
393.70 8.231871e-96
393.80 8.231871e-96
393.90 8.231871e-96
394.00 8.231871e-96
394.10 8.231871e-96
394.20 8.231871e-96
394.30 8.231871e-96
394.40 8.231871e-96
394.50 8.231871e-96
394.60 8.231871e-96
394.70 8.231871e-96
394.80 8.231871e-96
394.90 8.231871e-96
395.00 8.149552e-96
395.10 8.067234e-96
395.20 7.984915e-96
395.30 7.902596e-96
395.40 7.820278e-96
395.50 7.737959e-96
395.60 7.65564e-96
395.70 7.573321e-96
395.80 7.491003e-96
395.90 7.408684e-96
396.00 7.326365e-96
396.10 7.244047e-96
396.20 7.161728e-96
396.30 7.079409e-96
396.40 6.99709e-96
396.50 6.914772e-96
396.60 6.832453e-96
396.70 6.750134e-96
396.80 6.667816e-96
396.90 6.585497e-96
397.00 6.503178e-96
397.10 6.420859e-96
397.20 6.338541e-96
397.30 6.256222e-96
397.40 6.173903e-96
397.50 6.091585e-96
397.60 6.009266e-96
397.70 5.926947e-96
397.80 5.844628e-96
397.90 0.007427463
398.00 0.02148381
398.10 0.03633224
398.20 0.04627094
398.30 0.04687883
398.40 0.04687883
398.50 0.04687883
398.60 0.04687883
398.70 0.04687883
398.80 0.04687883
398.90 0.04687883
399.00 0.05640726
399.10 0.08219788
399.20 0.1196603
399.30 0.1632985
399.40 0.20844
399.50 0.2517455
399.60 0.290655
399.70 0.3248433
399.80 0.3575428
399.90 0.392364
400.00 0.4302243
400.10 0.4690584
400.20 0.5050401
400.30 0.5347558
400.40 0.5573593
400.50 0.5745378
400.60 0.5887764
400.70 0.6033187
400.80 0.6216573
400.90 0.6465658
401.00 0.6796007
401.10 0.7202935
401.20 0.7657667
401.30 0.810851
401.40 0.8495256
401.50 0.8768871
401.60 0.8905672
401.70 0.8907466
401.80 0.8907466
401.90 0.8907466
402.00 0.8907466
402.10 0.8907466
402.20 0.8907466
402.30 0.8907466
402.40 0.9059882
402.50 0.9399818
402.60 0.9899866
402.70 1.050809
402.80 1.117423
402.90 1.185158
403.00 1.249126
403.10 1.307323
403.20 1.360979
403.30 1.411331
403.40 1.458148
403.50 1.50054
403.60 1.538216
403.70 1.570183
403.80 1.593778
403.90 1.60717
404.00 1.610199
404.10 1.610199
404.20 1.610199
404.30 1.610199
404.40 1.610199
404.50 1.610199
404.60 1.610199
404.70 1.610199
404.80 1.610199
404.90 1.610199
405.00 1.610199
405.10 1.610199
405.20 1.610199
405.30 1.610199
405.40 1.610199
405.50 1.610199
405.60 1.610199
405.70 1.615066
405.80 1.624793
405.90 1.63777
406.00 1.650572
406.10 1.658983
406.20 1.659177
406.30 1.659177
406.40 1.659177
406.50 1.659177
406.60 1.659177
406.70 1.659177
406.80 1.659177
406.90 1.659177
407.00 1.659177
407.10 1.659177
407.20 1.659177
407.30 1.659177
407.40 1.659177
407.50 1.659177
407.60 1.659177
407.70 1.659177
407.80 1.659177
407.90 1.65175
408.00 1.637694
408.10 1.622845
408.20 1.612906
408.30 1.612299
408.40 1.612299
408.50 1.612299
408.60 1.612299
408.70 1.612299
408.80 1.618779
408.90 1.631294
409.00 1.637195
409.10 1.627255
409.20 1.604975
409.30 1.575418
409.40 1.543329
409.50 1.511479
409.60 1.480568
409.70 1.44927
409.80 1.41657
409.90 1.381749
410.00 1.343889
410.10 1.305055
410.20 1.269073
410.30 1.239357
410.40 1.216754
410.50 1.207471
410.60 1.210301
410.70 1.218765
410.80 1.225929
410.90 1.225847
411.00 1.214231
411.10 1.19078
411.20 1.159889
411.30 1.128849
411.40 1.105235
411.50 1.095141
411.60 1.101106
411.70 1.120894
411.80 1.138028
411.90 1.149329
412.00 1.153041
412.10 1.153041
412.20 1.153041
412.30 1.153041
412.40 1.137799
412.50 1.103805
412.60 1.053801
412.70 0.9929782
412.80 0.9263645
412.90 0.8620274
413.00 0.8079277
413.10 0.7651962
413.20 0.7305104
413.30 0.6996532
413.40 0.6691769
413.50 0.6367841
413.60 0.6007222
413.70 0.5687553
413.80 0.54516
413.90 0.5317685
414.00 0.5287393
414.10 0.5287393
414.20 0.5287393
414.30 0.5287393
414.40 0.5287393
414.50 0.5287393
414.60 0.5287393
414.70 0.5287393
414.80 0.5287393
414.90 0.5287393
415.00 0.5287393
415.10 0.5287393
415.20 0.5287393
415.30 0.5287393
415.40 0.5287393
415.50 0.5287393
415.60 0.5287393
415.70 0.5238722
415.80 0.5141448
415.90 0.501168
416.00 0.4883657
416.10 0.4799554
416.20 0.4797607
416.30 0.4797607
416.40 0.4797607
416.50 0.4797607
416.60 0.4797607
416.70 0.4797607
416.80 0.4797607
416.90 0.4797607
417.00 0.4797607
417.10 0.4797607
417.20 0.4797607
417.30 0.4797607
417.40 0.4797607
417.50 0.4797607
417.60 0.4868628
417.70 0.5067188
417.80 0.5373195
417.90 0.576145
418.00 0.6194637
418.10 0.6629189
418.20 0.7036488
418.30 0.7422733
418.40 0.7825669
418.50 0.8287774
418.60 0.8840784
418.70 0.948962
418.80 1.013281
418.90 1.070819
419.00 1.117798
419.10 1.151436
419.20 1.169399
419.30 1.169627
419.40 1.156574
419.50 1.145119
419.60 1.13712
419.70 1.13423
419.80 1.13423
419.90 1.13423
420.00 1.13423
420.10 1.13423
420.20 1.13423
420.30 1.145485
420.40 1.17257
420.50 1.203552
420.60 1.229577
420.70 1.246242
420.80 1.25223
420.90 1.248981
421.00 1.240114
421.10 1.229398
421.20 1.219529
421.30 1.212896
421.40 1.211752
421.50 1.216378
421.60 1.224725
421.70 1.234673
421.80 1.244109
421.90 1.251434
422.00 1.25641
422.10 1.25641
422.20 1.25641
422.30 1.25641
422.40 1.25641
422.50 1.25641
422.60 1.25641
422.70 1.25641
422.80 1.25641
422.90 1.253012
423.00 1.243143
423.10 1.227678
423.20 1.208708
423.30 1.189213
423.40 1.172872
423.50 1.16461
423.60 1.168692
423.70 1.180798
423.80 1.201828
423.90 1.232583
424.00 1.272421
424.10 1.319062
424.20 1.367641
424.30 1.411603
424.40 1.445145
424.50 1.465138
424.60 1.471398
424.70 1.471398
424.80 1.471398
424.90 1.471398
425.00 1.471398
425.10 1.471398
425.20 1.471398
425.30 1.471398
425.40 1.471398
425.50 1.471398
425.60 1.471398
425.70 1.471398
425.80 1.471398
425.90 1.471398
426.00 1.471398
426.10 1.471398
426.20 1.471398
426.30 1.471398
426.40 1.471398
426.50 1.472503
426.60 1.478205
426.70 1.487318
426.80 1.497741
426.90 1.50699
427.00 1.511726
427.10 1.511726
427.20 1.511726
427.30 1.511726
427.40 1.511726
427.50 1.511726
427.60 1.504624
427.70 1.495729
427.80 1.491951
427.90 1.491962
428.00 1.493408
428.10 1.492858
428.20 1.485562
428.30 1.466197
428.40 1.430625
428.50 1.384414
428.60 1.329113
428.70 1.26423
428.80 1.19343
428.90 1.123377
429.00 1.063204
429.10 1.016329
429.20 0.9851519
429.30 0.972494
429.40 0.9743561
429.50 0.977398
429.60 0.9826302
429.70 0.9898327
429.80 0.998417
429.90 1.008073
430.00 1.01767
430.10 1.025538
430.20 1.030333
430.30 1.021479
430.40 0.998183
430.50 0.9682855
430.60 0.9399639
430.70 0.9186826
430.80 0.9057985
430.90 0.9007301
431.00 0.9015712
431.10 0.9044872
431.20 0.9039923
431.30 0.8965811
431.40 0.8826642
431.50 0.86077
431.60 0.8327787
431.70 0.8028624
431.80 0.7791889
431.90 0.7655037
432.00 0.7632758
432.10 0.7707677
432.20 0.7782947
432.30 0.7841182
432.40 0.7866116
432.50 0.7866116
432.60 0.7866116
432.70 0.7866116
432.80 0.7866116
432.90 0.7866116
433.00 0.7866116
433.10 0.7866116
433.20 0.7866116
433.30 0.7866116
433.40 0.7866116
433.50 0.7848754
433.60 0.7791788
433.70 0.7670725
433.80 0.7487008
433.90 0.7247604
434.00 0.6950705
434.10 0.6617359
434.20 0.6306705
434.30 0.6095042
434.40 0.6041267
434.50 0.6168913
434.60 0.6473258
434.70 0.6869323
434.80 0.7277963
434.90 0.768824
435.00 0.8097865
435.10 0.8513036
435.20 0.8941711
435.30 0.9382248
435.40 0.9823841
435.50 1.024217
435.60 1.059644
435.70 1.084426
435.80 1.096077
435.90 1.096077
436.00 1.096077
436.10 1.096077
436.20 1.096077
436.30 1.096077
436.40 1.096077
436.50 1.094972
436.60 1.089269
436.70 1.080156
436.80 1.069733
436.90 1.060485
437.00 1.055748
437.10 1.055748
437.20 1.055748
437.30 1.055748
437.40 1.055748
437.50 1.055748
437.60 1.055748
437.70 1.049128
437.80 1.034134
437.90 1.013916
438.00 0.9927926
438.10 0.9752543
438.20 0.9651786
438.30 0.9643271
438.40 0.9708817
438.50 0.9738261
438.60 0.9738261
438.70 0.9738261
438.80 0.9738261
438.90 0.9738261
439.00 0.9715907
439.10 0.968977
439.20 0.967009
439.30 0.9653578
439.40 0.9634957
439.50 0.9604538
439.60 0.9552217
439.70 0.9549992
439.80 0.9628425
439.90 0.976678
440.00 0.994391
440.10 1.014816
440.20 1.037539
440.30 1.061641
440.40 1.083794
440.50 1.099613
440.60 1.107422
440.70 1.108531
440.80 1.10474
440.90 1.095899
441.00 1.082507
441.10 1.073065
441.20 1.068847
441.30 1.068847
441.40 1.068847
441.50 1.068847
441.60 1.068847
441.70 1.074396
441.80 1.086502
441.90 1.103503
442.00 1.123419
442.10 1.144095
442.20 1.164471
442.30 1.185594
442.40 1.208931
442.50 1.233205
442.60 1.25563
442.70 1.277054
442.80 1.298214
442.90 1.319093
443.00 1.340156
443.10 1.361849
443.20 1.38429
443.30 1.407349
443.40 1.429916
443.50 1.450954
443.60 1.470143
443.70 1.486723
443.80 1.497003
443.90 1.499141
444.00 1.494659
444.10 1.484761
444.20 1.469971
444.30 1.451648
444.40 1.432038
444.50 1.41441
444.60 1.401685
444.70 1.396179
444.80 1.399468
444.90 1.409936
445.00 1.422658
445.10 1.431734
445.20 1.432187
445.30 1.420733
445.40 1.396855
445.50 1.364518
445.60 1.331642
445.70 1.3069
445.80 1.296413
445.90 1.300857
446.00 1.309843
446.10 1.322816
446.20 1.33663
446.30 1.347992
446.40 1.354744
446.50 1.354949
446.60 1.354949
446.70 1.354949
446.80 1.354949
446.90 1.354949
447.00 1.354949
447.10 1.354949
447.20 1.360487
447.30 1.375114
447.40 1.399528
447.50 1.434036
447.60 1.478922
447.70 1.528988
447.80 1.57859
447.90 1.624837
448.00 1.665555
448.10 1.700028
448.20 1.727967
448.30 1.748744
448.40 1.763574
448.50 1.77605
448.60 1.784517
448.70 1.789539
448.80 1.793548
448.90 1.797285
449.00 1.800179
449.10 1.80104
449.20 1.80104
449.30 1.80104
449.40 1.80104
449.50 1.80104
449.60 1.80104
449.70 1.79406
449.80 1.777633
449.90 1.754141
450.00 1.726832
450.10 1.698538
450.20 1.671021
450.30 1.644518
450.40 1.618575
450.50 1.593776
450.60 1.571196
450.70 1.551696
450.80 1.539712
450.90 1.540162
451.00 1.552638
451.10 1.568133
451.20 1.585402
451.30 1.60453
451.40 1.627205
451.50 1.655997
451.60 1.693047
451.70 1.733674
451.80 1.772704
451.90 1.809112
452.00 1.840592
452.10 1.865454
452.20 1.882978
452.30 1.892555
452.40 1.895092
452.50 1.893849
452.60 1.892269
452.70 1.891711
452.80 1.89231
452.90 1.893918
453.00 1.895022
453.10 1.892522
453.20 1.883328
453.30 1.866283
453.40 1.843881
453.50 1.822843
453.60 1.803654
453.70 1.790953
453.80 1.786937
453.90 1.790497
454.00 1.799001
454.10 1.8095
454.20 1.818128
454.30 1.819675
454.40 1.811122
454.50 1.795992
454.60 1.772023
454.70 1.737922
454.80 1.693769
454.90 1.642273
455.00 1.591836
455.10 1.554148
455.20 1.534439
455.30 1.53539
455.40 1.554085
455.50 1.58157
455.60 1.606921
455.70 1.620516
455.80 1.619353
455.90 1.614908
456.00 1.605922
456.10 1.59295
456.20 1.579136
456.30 1.567774
456.40 1.561022
456.50 1.560816
456.60 1.560816
456.70 1.560816
456.80 1.560816
456.90 1.563236
457.00 1.575102
457.10 1.593965
457.20 1.61139
457.30 1.621228
457.40 1.620182
457.50 1.605677
457.60 1.575549
457.70 1.528867
457.80 1.467436
457.90 1.402571
458.00 1.338211
458.10 1.278371
458.20 1.227075
458.30 1.187889
458.40 1.161783
458.50 1.146363
458.60 1.137896
458.70 1.132874
458.80 1.128865
458.90 1.125128
459.00 1.122233
459.10 1.121372
459.20 1.121372
459.30 1.122734
459.40 1.128358
459.50 1.137207
459.60 1.147255
459.70 1.156114
459.80 1.161461
459.90 1.16193
460.00 1.16193
460.10 1.16193
460.20 1.16193
460.30 1.16193
460.40 1.16193
460.50 1.16193
460.60 1.165965
460.70 1.174632
460.80 1.183781
460.90 1.189133
461.00 1.189955
461.10 1.186119
461.20 1.177501
461.30 1.163063
461.40 1.140791
461.50 1.111999
461.60 1.074949
461.70 1.028773
461.80 0.9747413
461.90 0.9163914
462.00 0.8585354
462.10 0.8055048
462.20 0.7631467
462.30 0.7363053
462.40 0.7236404
462.50 0.719607
462.60 0.7176343
462.70 0.7130772
462.80 0.7037515
462.90 0.690053
463.00 0.6749946
463.10 0.6636037
463.20 0.6610242
463.30 0.6706968
463.40 0.6928473
463.50 0.7219432
463.60 0.7556815
463.70 0.7861026
463.80 0.8077429
463.90 0.819531
464.00 0.8236542
464.10 0.8239514
464.20 0.8253464
464.30 0.8332277
464.40 0.8509294
464.50 0.8746573
464.60 0.9044085
464.70 0.9378905
464.80 0.9720363
464.90 1.003822
465.00 1.027597
465.10 1.03587
465.20 1.027977
465.30 1.006098
465.40 0.9763058
465.50 0.9473551
465.60 0.9280446
465.70 0.9250257
465.80 0.9380115
465.90 0.9539933
466.00 0.9739834
466.10 0.9980255
466.20 1.024791
466.30 1.052626
466.40 1.080361
466.50 1.106941
466.60 1.131523
466.70 1.153667
466.80 1.173562
466.90 1.189619
467.00 1.194999
467.10 1.192228
467.20 1.18462
467.30 1.17416
467.40 1.163007
467.50 1.154855
467.60 1.153655
467.70 1.162231
467.80 1.180908
467.90 1.200209
468.00 1.217854
468.10 1.232645
468.20 1.244239
468.30 1.252334
468.40 1.257192
468.50 1.259316
468.60 1.259316
468.70 1.259316
468.80 1.259316
468.90 1.259316
469.00 1.259316
469.10 1.259316
469.20 1.259316
469.30 1.257954
469.40 1.25233
469.50 1.243481
469.60 1.237596
469.70 1.23823
469.80 1.244483
469.90 1.25468
470.00 1.262591
470.10 1.26785
470.20 1.271595
470.30 1.275089
470.40 1.279233
470.50 1.284064
470.60 1.285021
470.70 1.280903
470.80 1.272883
470.90 1.262918
471.00 1.25283
471.10 1.244655
471.20 1.240651
471.30 1.242384
471.40 1.250729
471.50 1.262415
471.60 1.277862
471.70 1.29779
471.80 1.322194
471.90 1.350145
472.00 1.379807
472.10 1.408907
472.20 1.431757
472.30 1.442297
472.40 1.439391
472.50 1.42479
472.60 1.405917
472.70 1.389609
472.80 1.377175
472.90 1.368387
473.00 1.361279
473.10 1.353476
473.20 1.34551
473.30 1.335998
473.40 1.323253
473.50 1.306878
473.60 1.288728
473.70 1.273018
473.80 1.264528
473.90 1.26669
474.00 1.279421
474.10 1.298463
474.20 1.317581
474.30 1.331415
474.40 1.336099
474.50 1.328694
474.60 1.30885
474.70 1.279987
474.80 1.248386
474.90 1.220825
475.00 1.202458
475.10 1.195555
475.20 1.199836
475.30 1.21251
475.40 1.228585
475.50 1.243425
475.60 1.252975
475.70 1.254056
475.80 1.245637
475.90 1.229656
476.00 1.209665
476.10 1.185623
476.20 1.158857
476.30 1.131023
476.40 1.106095
476.50 1.086426
476.60 1.071323
476.70 1.058844
476.80 1.047463
476.90 1.036163
477.00 1.024277
477.10 1.011346
477.20 0.9978401
477.30 0.9865139
477.40 0.9796708
477.50 0.9771897
477.60 0.9778736
477.70 0.9802582
477.80 0.9831015
477.90 0.9865218
478.00 0.9920624
478.10 1.00132
478.20 1.014881
478.30 1.032434
478.40 1.053841
478.50 1.079202
478.60 1.107365
478.70 1.134002
478.80 1.156563
478.90 1.17303
479.00 1.181846
479.10 1.182179
479.20 1.182179
479.30 1.182179
479.40 1.182179
479.50 1.182179
479.60 1.178017
479.70 1.168523
479.80 1.156923
479.90 1.146256
480.00 1.138346
480.10 1.133087
480.20 1.129342
480.30 1.125847
480.40 1.128716
480.50 1.136575
480.60 1.147109
480.70 1.157516
480.80 1.16384
480.90 1.162537
481.00 1.159326
481.10 1.155842
481.20 1.151195
481.30 1.144772
481.40 1.136024
481.50 1.124338
481.60 1.108891
481.70 1.088962
481.80 1.064559
481.90 1.03818
482.00 1.00897
482.10 0.9798698
482.20 0.9539519
482.30 0.9337299
482.40 0.9209334
482.50 0.9165363
482.60 0.9165363
482.70 0.9165363
482.80 0.9165363
482.90 0.9165363
483.00 0.9165363
483.10 0.9165363
483.20 0.9138352
483.30 0.9076598
483.40 0.8980903
483.50 0.885369
483.60 0.8697812
483.70 0.8511916
483.80 0.8333857
483.90 0.8160049
484.00 0.7958069
484.10 0.7717108
484.20 0.7447622
484.30 0.7170256
484.40 0.6946406
484.50 0.6783178
484.60 0.6684098
484.70 0.6637915
484.80 0.6614657
484.90 0.66352
485.00 0.666658
485.10 0.6679529
485.20 0.6660173
485.30 0.661116
485.40 0.6547368
485.50 0.6482637
485.60 0.6431333
485.70 0.6411659
485.80 0.6440288
485.90 0.6501678
486.00 0.655196
486.10 0.6579093
486.20 0.6579093
486.30 0.6579093
486.40 0.6551023
486.50 0.6481915
486.60 0.6387113
486.70 0.6290478
486.80 0.6205337
486.90 0.6133556
487.00 0.6079963
487.10 0.6059801
487.20 0.6177144
487.30 0.6391062
487.40 0.6652188
487.50 0.6920919
487.60 0.717656
487.70 0.7422085
487.80 0.7672338
487.90 0.7928581
488.00 0.8169747
488.10 0.8363807
488.20 0.8483821
488.30 0.8511448
488.40 0.8422019
488.50 0.8197969
488.60 0.7916338
488.70 0.7649974
488.80 0.7424365
488.90 0.7259687
489.00 0.7171533
489.10 0.7243569
489.20 0.7390155
489.30 0.7566781
489.40 0.7723186
489.50 0.7808554
489.60 0.7808554
489.70 0.7808554
489.80 0.7808554
489.90 0.7808554
490.00 0.7808554
490.10 0.7808554
490.20 0.7808554
490.30 0.7808554
490.40 0.7816875
490.50 0.7830143
490.60 0.7840749
490.70 0.7854431
490.80 0.7906002
490.90 0.8041052
491.00 0.8212354
491.10 0.8402493
491.20 0.8609868
491.30 0.8822846
491.40 0.9021422
491.50 0.918719
491.60 0.9307257
491.70 0.9374359
491.80 0.9391727
491.90 0.9376012
492.00 0.9371487
492.10 0.9371487
492.20 0.9371487
492.30 0.9382141
492.40 0.9418575
492.50 0.9481895
492.60 0.9563981
492.70 0.9654055
492.80 0.9746816
492.90 0.9845216
493.00 0.9957767
493.10 1.009384
493.20 1.025876
493.30 1.045191
493.40 1.067146
493.50 1.092237
493.60 1.120917
493.70 1.152349
493.80 1.180472
493.90 1.202646
494.00 1.220053
494.10 1.234905
494.20 1.248815
494.30 1.261175
494.40 1.266256
494.50 1.266256
494.60 1.266256
494.70 1.266256
494.80 1.266036
494.90 1.259758
495.00 1.247965
495.10 1.232394
495.20 1.214331
495.30 1.194885
495.40 1.176006
495.50 1.15961
495.60 1.146599
495.70 1.136868
495.80 1.129438
495.90 1.123299
496.00 1.12341
496.10 1.133019
496.20 1.151601
496.30 1.174557
496.40 1.198876
496.50 1.221134
496.60 1.238467
496.70 1.24898
496.80 1.252097
496.90 1.252097
497.00 1.252097
497.10 1.250953
497.20 1.23737
497.30 1.213299
497.40 1.181815
497.50 1.145571
497.60 1.105765
497.70 1.064602
497.80 1.024941
497.90 0.9868528
498.00 0.9517785
498.10 0.9216887
498.20 0.8983003
498.30 0.8837563
498.40 0.8807918
498.50 0.8916483
498.60 0.9101695
498.70 0.9314812
498.80 0.9547233
498.90 0.9783731
499.00 1.0005
499.10 1.011233
499.20 1.009348
499.30 0.9987454
499.40 0.9851923
499.50 0.9766554
499.60 0.9766554
499.70 0.9766554
499.80 0.9800133
499.90 0.9876849
500.00 1
500.10 1.016894
500.20 1.036973
500.30 1.057214
500.40 1.066463
500.50 1.063758
500.60 1.050487
500.70 1.034163
500.80 1.018721
500.90 1.003014
501.00 0.9858841
501.10 0.9668702
501.20 0.9461327
501.30 0.9248348
501.40 0.9049773
501.50 0.8884004
501.60 0.8772632
501.70 0.8740559
501.80 0.8776115
501.90 0.8841717
502.00 0.8918077
502.10 0.900047
502.20 0.9088944
502.30 0.917782
502.40 0.9253521
502.50 0.931286
502.60 0.9357289
502.70 0.939401
502.80 0.9426757
502.90 0.9438306
503.00 0.9401038
503.10 0.9295387
503.20 0.9130466
503.30 0.8937317
503.40 0.8717764
503.50 0.8466849
503.60 0.8180057
503.70 0.7865736
503.80 0.7541831
503.90 0.7229273
504.00 0.6946938
504.10 0.6706914
504.20 0.6518656
504.30 0.6395058
504.40 0.6344247
504.50 0.6344247
504.60 0.6344247
504.70 0.6344247
504.80 0.6344247
504.90 0.6344247
505.00 0.6349304
505.10 0.6361897
505.20 0.6361897
505.30 0.6361897
505.40 0.6361897
505.50 0.6361897
505.60 0.6361897
505.70 0.6361897
505.80 0.6361897
505.90 0.6361897
506.00 0.6310505
506.10 0.6187286
506.20 0.6040946
506.30 0.5868218
506.40 0.567395
506.50 0.547901
506.60 0.5309344
506.70 0.5204208
506.80 0.5173043
506.90 0.5173043
507.00 0.5173043
507.10 0.519059
507.20 0.5248851
507.30 0.534483
507.40 0.5464296
507.50 0.5583899
507.60 0.5684448
507.70 0.574296
507.80 0.5741613
507.90 0.5704648
508.00 0.5647353
508.10 0.5570397
508.20 0.5473726
508.30 0.5354355
508.40 0.5210783
508.50 0.5051412
508.60 0.48662
508.70 0.4653083
508.80 0.4420662
508.90 0.4184164
509.00 0.3962898
509.10 0.3780194
509.20 0.365246
509.30 0.3581861
509.40 0.3560988
509.50 0.3560988
509.60 0.3560988
509.70 0.3560988
509.80 0.3527409
509.90 0.3450693
510.00 0.3328592
510.10 0.3204062
510.20 0.3098806
510.30 0.3037824
510.40 0.3047941
510.50 0.314911
510.60 0.3352387
510.70 0.3595917
510.80 0.382854
510.90 0.4030204
511.00 0.4184426
511.10 0.4284867
511.20 0.4338212
511.30 0.4361453
511.40 0.4374772
511.50 0.4396016
511.60 0.4431365
511.70 0.4469792
511.80 0.4512183
511.90 0.4546509
512.00 0.4560004
512.10 0.4552846
512.20 0.4526561
512.30 0.4480216
512.40 0.4416474
512.50 0.4336593
512.60 0.4236144
512.70 0.4109347
512.80 0.398384
512.90 0.3873891
513.00 0.3798608
513.10 0.376819
513.20 0.376819
513.30 0.376819
513.40 0.376819
513.50 0.376819
513.60 0.3819827
513.70 0.3904102
513.80 0.3994432
513.90 0.4076823
514.00 0.4148619
514.10 0.4217105
514.20 0.4298259
514.30 0.4411616
514.40 0.4568617
514.50 0.4767646
514.60 0.499497
514.70 0.5227513
514.80 0.5440731
514.90 0.5616837
515.00 0.5745761
515.10 0.5837134
515.20 0.593031
515.30 0.6030049
515.40 0.6154887
515.50 0.6321876
515.60 0.6536604
515.70 0.6788551
515.80 0.7066253
515.90 0.7367122
516.00 0.768827
516.10 0.8021802
516.20 0.8318649
516.30 0.8592302
516.40 0.8855708
516.50 0.9099823
516.60 0.9300531
516.70 0.9423191
516.80 0.9469105
516.90 0.9469105
517.00 0.9469105
517.10 0.9451557
517.20 0.941091
517.30 0.9384797
517.40 0.9380946
517.50 0.9408007
517.60 0.9465709
517.70 0.9543412
517.80 0.9633315
517.90 0.9738031
518.00 0.9868135
518.10 1.003057
518.20 1.021838
518.30 1.041586
518.40 1.05965
518.50 1.072275
518.60 1.079177
518.70 1.081937
518.80 1.083282
518.90 1.086311
519.00 1.093971
519.10 1.108025
519.20 1.129009
519.30 1.15601
519.40 1.186792
519.50 1.21894
519.60 1.249892
519.70 1.277005
519.80 1.298397
519.90 1.313396
520.00 1.321874
520.10 1.320352
520.20 1.310798
520.30 1.296655
520.40 1.27855
520.50 1.257407
520.60 1.23477
520.70 1.210933
520.80 1.187671
520.90 1.167504
521.00 1.152082
521.10 1.142435
521.20 1.13929
521.30 1.140977
521.40 1.14501
521.50 1.148523
521.60 1.148732
521.70 1.144631
521.80 1.137649
521.90 1.131129
522.00 1.128225
522.10 1.129734
522.20 1.134306
522.30 1.139856
522.40 1.144478
522.50 1.147406
522.60 1.150257
522.70 1.155573
522.80 1.162784
522.90 1.173925
523.00 1.189915
523.10 1.209232
523.20 1.228405
523.30 1.24377
523.40 1.253487
523.50 1.258408
523.60 1.255938
523.70 1.250967
523.80 1.249087
523.90 1.255017
524.00 1.272059
524.10 1.299725
524.20 1.332785
524.30 1.363391
524.40 1.384898
524.50 1.393891
524.60 1.390085
524.70 1.375421
524.80 1.3541
524.90 1.336489
525.00 1.323091
525.10 1.312694
525.20 1.303377
525.30 1.293403
525.40 1.280919
525.50 1.26422
525.60 1.243881
525.70 1.22673
525.80 1.2137
525.90 1.202544
526.00 1.190265
526.10 1.175347
526.20 1.157162
526.30 1.135306
526.40 1.111136
526.50 1.088888
526.60 1.073723
526.70 1.068965
526.80 1.075363
526.90 1.089905
527.00 1.106707
527.10 1.123671
527.20 1.136817
527.30 1.141745
527.40 1.139314
527.50 1.131096
527.60 1.119545
527.70 1.107076
527.80 1.094229
527.90 1.080153
528.00 1.064091
528.10 1.046191
528.20 1.027756
528.30 1.011064
528.40 0.998556
528.50 0.991803
528.60 0.9912303
528.70 0.9957671
528.80 1.003297
528.90 1.011832
529.00 1.019131
529.10 1.023183
529.20 1.023604
529.30 1.021515
529.40 1.018722
529.50 1.017219
529.60 1.019079
529.70 1.025961
529.80 1.038485
529.90 1.056204
530.00 1.077905
530.10 1.101876
530.20 1.124734
530.30 1.14282
530.40 1.155683
530.50 1.163168
530.60 1.165012
530.70 1.164496
530.80 1.164496
530.90 1.164496
531.00 1.164496
531.10 1.164099
531.20 1.161909
531.30 1.157898
531.40 1.152604
531.50 1.148384
531.60 1.145937
531.70 1.145432
531.80 1.146319
531.90 1.147237
532.00 1.146487
532.10 1.143111
532.20 1.137485
532.30 1.130857
532.40 1.124445
532.50 1.11888
532.60 1.113838
532.70 1.108523
532.80 1.101939
532.90 1.093373
533.00 1.082651
533.10 1.071854
533.20 1.064853
533.30 1.06504
533.40 1.073306
533.50 1.087502
533.60 1.103369
533.70 1.115702
533.80 1.120437
533.90 1.114809
534.00 1.096727
534.10 1.066834
534.20 1.029439
534.30 0.9909306
534.40 0.9573366
534.50 0.9323864
534.60 0.9174876
534.70 0.9129101
534.80 0.9168992
534.90 0.9209859
535.00 0.9256976
535.10 0.9319764
535.20 0.9400419
535.30 0.9493917
535.40 0.9594835
535.50 0.9697456
535.60 0.9790536
535.70 0.9820707
535.80 0.9794246
535.90 0.9739848
536.00 0.9691845
536.10 0.9669205
536.20 0.9676617
536.30 0.9709421
536.40 0.9746639
536.50 0.9749139
536.60 0.9696416
536.70 0.9621344
536.80 0.9511448
536.90 0.9366031
537.00 0.9198007
537.10 0.9028368
537.20 0.8879294
537.30 0.8760143
537.40 0.8668841
537.50 0.8604359
537.60 0.8561614
537.70 0.8529352
537.80 0.8500424
537.90 0.8470864
538.00 0.8468683
538.10 0.8483447
538.20 0.8466407
538.30 0.8416549
538.40 0.8361001
538.50 0.8302276
538.60 0.8238983
538.70 0.8166017
538.80 0.807727
538.90 0.7961623
539.00 0.7812039
539.10 0.7658005
539.20 0.7514635
539.30 0.7374254
539.40 0.7243253
539.50 0.7129671
539.60 0.7040049
539.70 0.6980439
539.80 0.6947371
539.90 0.6927462
540.00 0.6915816
540.10 0.6919514
540.20 0.6948433
540.30 0.7011464
540.40 0.7108768
540.50 0.7233507
540.60 0.738253
540.70 0.7539988
540.80 0.7688383
540.90 0.7841005
541.00 0.8005834
541.10 0.8186106
541.20 0.8384968
541.30 0.8599777
541.40 0.8820866
541.50 0.9022648
541.60 0.9197702
541.70 0.9334659
541.80 0.9424882
541.90 0.9465657
542.00 0.9457619
542.10 0.9402381
542.20 0.9350739
542.30 0.9308332
542.40 0.9277841
542.50 0.9261433
542.60 0.9257276
542.70 0.9257276
542.80 0.9250997
542.90 0.9225248
543.00 0.9172569
543.10 0.9087375
543.20 0.8965646
543.30 0.8813044
543.40 0.8666073
543.50 0.855708
543.60 0.8516071
543.70 0.8563574
543.80 0.870473
543.90 0.8931124
544.00 0.9230158
544.10 0.9582352
544.20 0.9959747
544.30 1.033603
544.40 1.069044
544.50 1.100753
544.60 1.128469
544.70 1.152698
544.80 1.174124
544.90 1.193831
545.00 1.213409
545.10 1.234627
545.20 1.258651
545.30 1.28473
545.40 1.3102
545.50 1.332105
545.60 1.348323
545.70 1.35765
545.80 1.359378
545.90 1.353685
546.00 1.34245
546.10 1.328698
546.20 1.315511
546.30 1.305781
546.40 1.301607
546.50 1.304317
546.60 1.31222
546.70 1.318131
546.80 1.320273
546.90 1.320273
547.00 1.320273
547.10 1.320273
547.20 1.320273
547.30 1.320273
547.40 1.320273
547.50 1.320273
547.60 1.320273
547.70 1.320273
547.80 1.320273
547.90 1.320273
548.00 1.317044
548.10 1.311555
548.20 1.310008
548.30 1.312611
548.40 1.31649
548.50 1.321097
548.60 1.325513
548.70 1.328663
548.80 1.329413
548.90 1.329413
549.00 1.329413
549.10 1.32671
549.20 1.319641
549.30 1.308767
549.40 1.293879
549.50 1.274593
549.60 1.250742
549.70 1.222709
549.80 1.1921
549.90 1.161373
550.00 1.866171
550.10 1.866171
550.20 1.866171
550.30 1.865443
550.40 1.857226
550.50 1.836685
550.60 1.800532
550.70 1.749184
550.80 1.684175
550.90 1.606223
551.00 1.516116
551.10 1.416513
551.20 1.315708
551.30 1.21956
551.40 1.131625
551.50 1.054003
551.60 0.9856834
551.70 0.9229541
551.80 0.8612886
551.90 0.8018061
552.00 0.7410801
552.10 0.6723384
552.20 0.5921156
552.30 0.5035426
552.40 0.4146385
552.50 0.3342222
552.60 0.2675711
552.70 0.2166026
552.80 0.1820481
552.90 0.1625513
553.00 0.1587722
553.10 0.1792493
553.20 0.2132019
553.30 0.2521617
553.40 0.2912739
553.50 0.329262
553.60 0.3692015
553.70 0.4169941
553.80 0.4765104
553.90 0.5417742
554.00 0.6048565
554.10 0.6633204
554.20 0.7159756
554.30 0.7616666
554.40 0.7995619
554.50 0.8305604
554.60 0.8558535
554.70 0.8759448
554.80 0.8910182
554.90 0.9014938
555.00 0.9065293
555.10 0.9065293
555.20 0.9035373
555.30 0.8970288
555.40 0.8873309
555.50 0.875814
555.60 0.8647744
555.70 0.8568998
555.80 0.8550255
555.90 0.915227
556.00 1.03606
556.10 1.20044
556.20 1.383692
556.30 1.558539
556.40 1.702532
556.50 1.812615
556.60 1.908339
556.70 2.010694
556.80 2.128255
556.90 2.257202
557.00 2.383468
557.10 2.485203
557.20 2.561762
557.30 2.613173
557.40 2.63946
557.50 2.6402
557.60 2.614909
557.70 2.56489
557.80 2.500018
557.90 2.434754
558.00 2.371672
558.10 2.313208
558.20 2.260553
558.30 2.218661
558.40 2.192382
558.50 2.17599
558.60 2.161991
558.70 2.143128
558.80 2.128055
558.90 2.117579
559.00 2.112543
559.10 2.112543
559.20 2.112543
559.30 2.112543
559.40 2.112543
559.50 2.112543
559.60 2.119241
559.70 2.133003
559.80 2.149227
559.90 2.10424
560.00 1.994351
560.10 1.835262
560.20 1.652222
560.30 1.477375
560.40 1.333382
560.50 1.223299
560.60 1.132479
560.70 1.045636
560.80 0.9573753
560.90 0.8741431
561.00 0.8048218
561.10 0.7534092
561.20 0.7200242
561.30 0.7025624
561.40 0.7002111
561.50 0.7130154
561.60 0.7399871
561.70 0.7813612
561.80 0.8325988
561.90 0.8836106
562.00 0.9336195
562.10 0.9789845
562.20 1.0141
562.30 1.02965
562.40 1.019119
562.50 1.004513
562.60 0.9932189
562.70 0.9919908
562.80 0.9919908
562.90 0.9919908
563.00 0.9919908
563.10 0.9983901
563.20 1.008453
563.30 1.021174
563.40 1.03668
563.50 1.055816
563.60 1.073572
563.70 1.090414
563.80 1.109357
563.90 1.130047
564.00 1.15168
564.10 1.173216
564.20 1.194911
564.30 1.214532
564.40 1.233492
564.50 1.251833
564.60 1.263195
564.70 1.259547
564.80 1.237121
564.90 1.195768
565.00 1.139264
565.10 1.075099
565.20 1.013828
565.30 0.9650731
565.40 0.9319414
565.50 0.9108255
565.60 0.8933706
565.70 0.8680159
565.80 0.8239526
565.90 0.7729408
566.00 0.722932
566.10 0.6775669
566.20 0.6424515
566.30 0.6231021
566.40 0.6220163
566.50 0.6220163
566.60 0.6220163
566.70 0.6341332
566.80 0.6541321
566.90 0.6797361
567.00 0.7113197
567.10 0.7448534
567.20 0.7840719
567.30 0.8285912
567.40 0.876353
567.50 0.9236461
567.60 0.9648292
567.70 0.9955219
567.80 1.014877
567.90 1.025835
568.00 1.033221
568.10 1.040213
568.20 1.044231
568.30 1.038943
568.40 1.019983
568.50 1.001642
568.60 0.9853769
568.70 0.973512
568.80 0.9666378
568.90 0.9622762
569.00 0.9561144
569.10 0.943431
569.20 0.9200701
569.30 0.884059
569.40 0.8431233
569.50 0.8119596
569.60 0.8038661
569.70 0.8310165
569.80 0.8988491
569.90 0.9882332
570.00 1.084643
570.10 1.179243
570.20 1.260629
570.30 1.319234
570.40 1.352472
570.50 1.364013
570.60 1.364013
570.70 1.351896
570.80 1.332213
570.90 1.325827
571.00 1.338408
571.10 1.367487
571.20 1.408344
571.30 1.455541
571.40 1.50055
571.50 1.535251
571.60 1.557143
571.70 1.56735
571.80 1.567837
571.90 1.560813
572.00 1.548527
572.10 1.534756
572.20 1.52599
572.30 1.52872
572.40 1.54647
572.50 1.565095
572.60 1.582469
572.70 1.594411
572.80 1.5992
572.90 1.5992
573.00 1.5992
573.10 1.5992
573.20 1.601412
573.30 1.614455
573.40 1.635137
573.50 1.654023
573.60 1.661529
573.70 1.645349
573.80 1.59713
573.90 1.516074
574.00 1.419664
574.10 1.325064
574.20 1.243678
574.30 1.185074
574.40 1.151835
574.50 1.14134
574.60 1.153203
574.70 1.169847
574.80 1.182789
574.90 1.166101
575.00 1.121936
575.10 1.052925
575.20 0.9627872
575.30 0.858349
575.40 0.7500726
575.50 0.6489417
575.60 0.5614139
575.70 0.5068317
575.80 0.4968134
575.90 0.5279262
576.00 0.5911121
576.10 0.6716152
576.20 0.7510666
576.30 0.8129435
576.40 0.8457765
576.50 0.8447634
576.60 0.8273893
576.70 0.8154472
576.80 0.8106583
576.90 0.8106583
577.00 0.8106583
577.10 0.8106583
577.20 0.8149581
577.30 0.8160216
577.40 0.8031287
577.50 0.7709698
577.60 0.7276327
577.70 0.6880938
577.80 0.6613064
577.90 0.6529779
578.00 0.6529779
578.10 0.6529779
578.20 0.6581374
578.30 0.6743912
578.40 0.7022754
578.50 0.7396262
578.60 0.7733563
578.70 0.8072796
578.80 0.8488689
578.90 0.9048573
579.00 0.9666922
579.10 1.031742
579.20 1.101298
579.30 1.17718
579.40 1.261219
579.50 1.354808
579.60 1.456895
579.70 1.547383
579.80 1.610807
579.90 1.644822
580.00 1.651272
580.10 1.634858
580.20 1.604627
580.30 1.573894
580.40 1.557295
580.50 1.567803
580.60 1.600394
580.70 1.644768
580.80 1.702039
580.90 1.768361
581.00 1.837499
581.10 1.902162
581.20 1.947935
581.30 1.966593
581.40 1.961856
581.50 1.956157
581.60 1.956157
581.70 1.956157
581.80 1.956157
581.90 1.956157
582.00 1.956157
582.10 1.956157
582.20 1.950998
582.30 1.934744
582.40 1.913923
582.50 1.907392
582.60 1.909747
582.70 1.912205
582.80 1.905895
582.90 1.886231
583.00 1.85284
583.10 1.808275
583.20 1.756978
583.30 1.70469
583.40 1.6562
583.50 1.614227
583.60 1.582672
583.70 1.5667
583.80 1.5717
583.90 1.60382
584.00 1.66827
584.10 1.767964
584.20 1.900084
584.30 2.053369
584.40 2.210283
584.50 2.35225
584.60 2.462867
584.70 2.531361
584.80 2.556579
584.90 2.545771
585.00 2.51095
585.10 2.466421
585.20 2.427319
585.30 2.40613
585.40 2.410692
585.50 2.42746
585.60 2.448679
585.70 2.473799
585.80 2.500988
585.90 2.525954
586.00 2.544141
586.10 2.555052
586.20 2.560567
586.30 2.560567
586.40 2.553503
586.50 2.521638
586.60 2.473691
586.70 2.420665
586.80 2.372128
586.90 2.333273
587.00 2.304829
587.10 2.284344
587.20 2.266085
587.30 2.242492
587.40 2.206942
587.50 2.155327
587.60 2.084794
587.70 2.004905
587.80 1.922019
587.90 1.830553
588.00 1.720475
588.10 1.583845
588.20 1.418153
588.30 1.229354
588.40 1.038455
588.50 0.868368
588.60 0.7251607
588.70 0.6122934
588.80 0.5304844
588.90 0.4828696
589.00 0.4621822
589.10 0.4597852
589.20 0.4665381
589.30 0.4766885
589.40 0.4888632
589.50 0.5047441
589.60 0.5274123
589.70 0.5598398
589.80 0.6035767
589.90 0.6592288
590.00 0.7247326
590.10 0.7925291
590.20 0.8526037
590.30 0.8985513
590.40 0.9224871
590.50 0.9281665
590.60 0.9281665
590.70 0.9281665
590.80 0.9281665
590.90 0.9281665
591.00 0.9281665
591.10 0.9281665
591.20 0.9281665
591.30 0.9281665
591.40 0.9281665
591.50 0.9281665
591.60 0.9281665
591.70 0.9166188
591.80 0.8860901
591.90 0.8404683
592.00 0.7887844
592.10 0.7415828
592.20 0.7087763
592.30 0.6960827
592.40 0.6960827
592.50 0.6960827
592.60 0.6960827
592.70 0.6960827
592.80 0.6954025
592.90 0.6875026
593.00 0.6738732
593.10 0.6596975
593.20 0.6528418
593.30 0.6482761
593.40 0.6401171
593.50 0.6225256
593.60 0.5921254
593.70 0.5471799
593.80 0.4853329
593.90 0.4054142
594.00 0.3217238
594.10 0.2430158
594.20 0.1774269
594.30 0.1314793
594.40 0.1075435
594.50 0.1018641
594.60 0.1018641
594.70 0.1018641
594.80 0.1232958
594.90 0.1731598
595.00 0.2536403
595.10 0.361888
595.20 0.4918774
595.30 0.6365068
595.40 0.7882643
595.50 0.9391371
595.60 1.081231
595.70 1.207979
595.80 1.314569
595.90 1.397755
596.00 1.456231
596.10 1.492856
596.20 1.512463
596.30 1.516888
596.40 1.516888
596.50 1.516888
596.60 1.516888
596.70 1.516888
596.80 1.516888
596.90 1.516888
597.00 1.516888
597.10 1.513327
597.20 1.500248
597.30 1.483087
597.40 1.465949
597.50 1.450892
597.60 1.437405
597.70 1.424803
597.80 1.415724
597.90 1.415024
598.00 1.415024
598.10 1.415024
598.20 1.415024
598.30 1.415024
598.40 1.415024
598.50 1.415024
598.60 1.420869
598.70 1.430028
598.80 1.417167
598.90 1.372427
599.00 1.292417
599.10 1.18417
599.20 1.057138
599.30 0.9286688
599.40 0.8136314
599.50 0.7240756
599.60 0.6675306
599.70 0.6465803
599.80 0.6594401
599.90 0.6997994
600.00 0
600.10 0
600.20 0
600.30 0
600.40 0
600.50 0
600.60 0.2337989
600.70 0.3663655
600.80 0.3428079
600.90 0.2049632
601.00 0.01884416
601.10 0
601.20 0.1183033
601.30 0.6464119
601.40 1.468803
601.50 2.452682
601.60 3.421966
601.70 4.231911
601.80 4.777974
601.90 4.9418
602.00 4.650471
602.10 3.934029
602.20 2.888612
602.30 1.669816
602.40 0.5088857
602.50 0
602.60 0
602.70 0
602.80 0
602.90 0
603.00 0
603.10 0.1921794
603.20 0.4851276
603.30 0.6695447
603.40 0.8039324
603.50 0.9839251
603.60 1.257127
603.70 1.589449
603.80 1.885329
603.90 2.011901
604.00 1.873222
604.10 1.471653
604.20 0.8813773
604.30 0.2034054
604.40 0
604.50 0
604.60 0
604.70 0
604.80 0
604.90 0.3537529
605.00 0.7924909
605.10 1.01604
605.20 0.9649233
605.30 0.6645112
605.40 0.1871301
605.50 0
605.60 0
605.70 0
605.80 0
605.90 0
606.00 0
606.10 0
606.20 0
606.30 0.06960348
606.40 1.143701
606.50 2.256656
606.60 3.330361
606.70 4.272239
606.80 4.964856
606.90 5.305396
607.00 5.291183
607.10 5.011167
607.20 4.545652
607.30 3.926883
607.40 3.220333
607.50 2.540347
607.60 1.982271
607.70 1.547725
607.80 1.171922
607.90 0.8436775
608.00 0.5928181
608.10 0.3935187
608.20 0.2528899
608.30 0.267604
608.40 0.5167767
608.50 0.9077033
608.60 1.270495
608.70 1.550112
608.80 1.759958
608.90 1.911904
609.00 2.001544
609.10 2.079987
609.20 2.244704
609.30 2.495158
609.40 2.738358
609.50 2.914059
609.60 2.98378
609.70 2.890626
609.80 2.589227
609.90 2.146887
610.00 1.710014
610.10 1.378689
610.20 1.171825
610.30 1.028066
610.40 0.872287
610.50 0.6476921
610.60 0.3222358
610.70 0
610.80 0
610.90 0
611.00 0
611.10 0.07041362
611.20 0.7294125
611.30 1.454891
611.40 2.065135
611.50 2.385867
611.60 2.346104
611.70 2.01826
611.80 1.543159
611.90 1.05277
612.00 0.628439
612.10 0.2852241
612.20 0.002075938
612.30 0
612.40 0
612.50 0
612.60 0
612.70 0
612.80 0
612.90 0
613.00 0.1042799
613.10 0.1492031
613.20 0.03907075
613.30 0
613.40 0
613.50 0
613.60 0
613.70 0
613.80 0
613.90 0
614.00 0.1080052
614.10 0.5079261
614.20 0.8870912
614.30 1.21023
614.40 1.496688
614.50 1.793863
614.60 2.116628
614.70 2.444642
614.80 2.768164
614.90 3.085662
615.00 3.34111
615.10 3.433111
615.20 3.306488
615.30 2.999096
615.40 2.563566
615.50 2.032754
615.60 1.455579
615.70 0.8987494
615.80 0.3705294
615.90 0
616.00 0
616.10 0
616.20 0
616.30 0
616.40 0
616.50 0
616.60 0
616.70 0.3549432
616.80 0.5983793
616.90 0.5850864
617.00 0.362355
617.10 0.05636724
617.20 0
617.30 0
617.40 0
617.50 0.0180326
617.60 0.2881062
617.70 0.6065907
617.80 0.9169208
617.90 1.147736
618.00 1.280289
618.10 1.341608
618.20 1.372817
618.30 1.388583
618.40 1.35294
618.50 1.235212
618.60 1.100604
618.70 1.087828
618.80 1.329967
618.90 1.863693
619.00 2.630706
619.10 3.457185
619.20 4.143932
619.30 4.592407
619.40 4.765886
619.50 4.703066
619.60 4.489955
619.70 4.242802
619.80 4.098197
619.90 4.140335
620.00 4.344022
620.10 4.59164
620.20 4.743934
620.30 4.734558
620.40 4.554284
620.50 4.269364
620.60 4.007559
620.70 3.813811
620.80 3.678752
620.90 3.575528
621.00 3.43142
621.10 3.169824
621.20 2.771522
621.30 2.279808
621.40 1.778293
621.50 1.362735
621.60 1.127772
621.70 1.144354
621.80 1.421421
621.90 1.891208
622.00 2.421488
622.10 2.927829
622.20 3.368305
622.30 3.687322
622.40 3.883913
622.50 3.989259
622.60 4.022637
622.70 3.994024
622.80 3.908809
622.90 3.776774
623.00 3.573221
623.10 3.246596
623.20 2.810258
623.30 2.353106
623.40 1.981105
623.50 1.748474
623.60 1.673059
623.70 1.772367
623.80 2.021465
623.90 2.346972
624.00 2.604836
624.10 2.693691
624.20 2.635345
624.30 2.493896
624.40 2.300435
624.50 2.052377
624.60 1.750502
624.70 1.373029
624.80 0.9235915
624.90 0.435157
625.00 0
625.10 0
625.20 0
625.30 0
625.40 0
625.50 0
625.60 0
625.70 0
625.80 0.4342765
625.90 1.432062
626.00 2.353526
626.10 3.089783
626.20 3.561652
626.30 3.757634
626.40 3.751097
626.50 3.670897
626.60 3.651629
626.70 3.724887
626.80 3.830564
626.90 3.858875
627.00 3.702287
627.10 3.315918
627.20 2.693023
627.30 1.909365
627.40 1.095925
627.50 0.4301857
627.60 0.1155401
627.70 0.2587299
627.80 0.8370859
627.90 1.69587
628.00 2.627602
628.10 3.487842
628.20 4.20914
628.30 4.788751
628.40 5.187745
628.50 5.305952
628.60 5.137351
628.70 4.780931
628.80 4.341258
628.90 3.834263
629.00 3.27038
629.10 2.726707
629.20 2.286058
629.30 2.01154
629.40 1.88194
629.50 1.814783
629.60 1.758287
629.70 1.701143
629.80 1.660784
629.90 1.681281
630.00 1.800047
630.10 2.019211
630.20 2.330476
630.30 2.732259
630.40 3.141368
630.50 3.403928
630.60 3.425031
630.70 3.227375
630.80 2.923921
630.90 2.608585
631.00 2.302441
631.10 2.018249
631.20 1.785828
631.30 1.63349
631.40 1.546933
631.50 1.475859
631.60 1.393635
631.70 1.311502
631.80 1.279639
631.90 1.355264
632.00 1.538993
632.10 1.750071
632.20 1.905016
632.30 2.000272
632.40 2.08054
632.50 2.152667
632.60 2.210968
632.70 2.311934
632.80 2.501003
632.90 2.780889
633.00 3.127051
633.10 3.472237
633.20 3.751709
633.30 3.909203
633.40 3.893636
633.50 3.701904
633.60 3.377966
633.70 2.967299
633.80 2.483191
633.90 1.925639
634.00 1.350212
634.10 0.8250568
634.20 0.4160149
634.30 0.1655053
634.40 0.0673502
634.50 0.1238128
634.60 0.3398425
634.70 0.6977196
634.80 1.170862
634.90 1.727913
635.00 2.298767
635.10 2.788257
635.20 3.139771
635.30 3.35657
635.40 3.427157
635.50 3.30125
635.60 2.954783
635.70 2.447563
635.80 1.891588
635.90 1.375169
636.00 0.9425835
636.10 0.6283654
636.20 0.4813113
636.30 0.5501864
636.40 0.8642068
636.50 1.390735
636.60 2.023456
636.70 2.623475
636.80 3.062302
636.90 3.263926
637.00 3.20647
637.10 2.90353
637.20 2.412629
637.30 1.835873
637.40 1.314055
637.50 1.004247
637.60 0.9772127
637.70 1.210245
637.80 1.663483
637.90 2.283674
638.00 2.987109
638.10 3.675542
638.20 4.278438
638.30 4.757742
638.40 5.104159
638.50 5.321307
638.60 5.432609
638.70 5.482588
638.80 5.495922
638.90 5.450644
639.00 5.320743
639.10 5.078247
639.20 4.672446
639.30 4.092564
639.40 3.428219
639.50 2.816531
639.60 2.346804
639.70 2.043364
639.80 1.886439
639.90 1.817595
640.00 1.758677
640.10 1.649471
640.20 1.460352
640.30 1.166519
640.40 0.7662664
640.50 0.335128
640.60 0.005066877
640.70 0
640.80 0
640.90 0.2078792
641.00 0.5101614
641.10 0.8199356
641.20 1.103879
641.30 1.375803
641.40 1.658058
641.50 1.957278
641.60 2.260301
641.70 2.55493
641.80 2.835647
641.90 3.047717
642.00 3.098424
642.10 2.93607
642.20 2.587927
642.30 2.123419
642.40 1.636379
642.50 1.226422
642.60 0.9803145
642.70 0.9456434
642.80 1.136119
642.90 1.527031
643.00 2.046059
643.10 2.579972
643.20 3.015802
643.30 3.314541
643.40 3.477799
643.50 3.503019
643.60 3.407015
643.70 3.259647
643.80 3.150698
643.90 3.146567
644.00 3.252338
644.10 3.416114
644.20 3.544236
644.30 3.540617
644.40 3.351929
644.50 2.984005
644.60 2.512985
644.70 2.038962
644.80 1.668819
644.90 1.492484
645.00 1.533802
645.10 1.7282
645.20 1.996359
645.30 2.269778
645.40 2.50388
645.50 2.718103
645.60 2.944133
645.70 3.185102
645.80 3.465559
645.90 3.803535
646.00 4.137662
646.10 4.37906
646.20 4.460423
646.30 4.354042
646.40 4.082643
646.50 3.729824
646.60 3.383947
646.70 3.101857
646.80 2.892205
646.90 2.685894
647.00 2.450557
647.10 2.238861
647.20 2.068154
647.30 1.912449
647.40 1.768386
647.50 1.661716
647.60 1.654521
647.70 1.785239
647.80 2.027562
647.90 2.314338
648.00 2.555626
648.10 2.70126
648.20 2.782553
648.30 2.903952
648.40 3.150505
648.50 3.530047
648.60 3.998554
648.70 4.495862
648.80 4.958264
648.90 5.294641
649.00 5.422022
649.10 5.322267
649.20 5.069401
649.30 4.772774
649.40 4.497578
649.50 4.241933
649.60 3.970608
649.70 3.668536
649.80 3.312135
649.90 2.886138
650.00 2.453692
650.10 2.112766
650.20 1.960605
650.30 2.083663
650.40 2.515228
650.50 3.230235
650.60 4.074767
650.70 4.817617
650.80 5.310956
650.90 5.502073
651.00 5.398745
651.10 5.044283
651.20 4.542825
651.30 4.008159
651.40 3.528644
651.50 3.240085
651.60 3.220459
651.70 3.418335
651.80 3.709815
651.90 3.947333
652.00 4.066347
652.10 4.094049
652.20 4.083809
652.30 4.083599
652.40 4.129242
652.50 4.228267
652.60 4.360822
652.70 4.523227
652.80 4.699056
652.90 4.83407
653.00 4.940925
653.10 5.102695
653.20 5.339955
653.30 5.600559
653.40 5.802211
653.50 5.86017
653.60 5.743629
653.70 5.476566
653.80 5.120711
653.90 4.817799
654.00 4.694242
654.10 4.775156
654.20 5.030337
654.30 5.378098
654.40 5.684341
654.50 5.812917
654.60 5.730106
654.70 5.513426
654.80 5.30251
654.90 5.213979
655.00 5.243012
655.10 5.34928
655.20 5.504646
655.30 5.615358
655.40 5.593959
655.50 5.43881
655.60 5.188966
655.70 4.927899
655.80 4.696446
655.90 4.470855
656.00 4.266655
656.10 4.095341
656.20 3.929779
656.30 3.755011
656.40 3.613906
656.50 3.559738
656.60 3.603816
656.70 3.739641
656.80 3.950279
656.90 4.207651
657.00 4.496433
657.10 4.762495
657.20 4.977737
657.30 5.158133
657.40 5.243909
657.50 5.156611
657.60 4.867126
657.70 4.422333
657.80 3.930047
657.90 3.48709
658.00 3.156485
658.10 3.011561
658.20 3.114065
658.30 3.428116
658.40 3.857197
658.50 4.302756
658.60 4.641581
658.70 4.763165
658.80 4.650103
658.90 4.421851
659.00 4.270338
659.10 4.314249
659.20 4.561375
659.30 5.006565
659.40 5.664031
659.50 6.458152
659.60 7.243923
659.70 7.904964
659.80 8.35518
659.90 8.509853
660.00 8.361704
660.10 8.048625
660.20 7.719168
660.30 7.410146
660.40 7.077066
660.50 6.690971
660.60 6.280452
660.70 5.897433
660.80 5.570482
660.90 5.320387
661.00 5.164211
661.10 5.109581
661.20 5.152397
661.30 5.279204
661.40 5.459257
661.50 5.612782
661.60 5.657501
661.70 5.557917
661.80 5.330696
661.90 5.040085
662.00 4.785895
662.10 4.658773
662.20 4.710103
662.30 4.953295
662.40 5.374574
662.50 5.91348
662.60 6.437784
662.70 6.819174
662.80 7.021337
662.90 7.061291
663.00 6.960736
663.10 6.753603
663.20 6.479034
663.30 6.168192
663.40 5.827776
663.50 5.444244
663.60 5.046209
663.70 4.701984
663.80 4.449342
663.90 4.313844
664.00 4.314717
664.10 4.484285
664.20 4.807495
664.30 5.208275
664.40 5.623227
664.50 5.997752
664.60 6.298374
664.70 6.500996
664.80 6.581572
664.90 6.537997
665.00 6.377663
665.10 6.106522
665.20 5.75387
665.30 5.372027
665.40 5.034879
665.50 4.803059
665.60 4.752411
665.70 4.937805
665.80 5.338572
665.90 5.856398
666.00 6.32946
666.10 6.629269
666.20 6.730954
666.30 6.65893
666.40 6.398701
666.50 5.992907
666.60 5.554836
666.70 5.174776
666.80 4.917093
666.90 4.829107
667.00 4.887211
667.10 5.016634
667.20 5.163284
667.30 5.341396
667.40 5.610236
667.50 5.975081
667.60 6.340714
667.70 6.610679
667.80 6.786107
667.90 6.864261
668.00 6.849301
668.10 6.819276
668.20 6.893129
668.30 7.158037
668.40 7.615778
668.50 8.197207
668.60 8.789768
668.70 9.238586
668.80 9.397643
668.90 9.216609
669.00 8.754099
669.10 8.132985
669.20 7.495444
669.30 6.983987
669.40 6.691793
669.50 6.621118
669.60 6.694279
669.70 6.821423
669.80 6.953507
669.90 7.034586
670.00 7.017421
670.10 6.915225
670.20 6.763194
670.30 6.62047
670.40 6.57423
670.50 6.708139
670.60 7.033836
670.70 7.460655
670.80 7.881896
670.90 8.2218
671.00 8.422571
671.10 8.419493
671.20 8.187506
671.30 7.824713
671.40 7.454266
671.50 7.159766
671.60 6.996329
671.70 6.966919
671.80 7.02706
671.90 7.078809
672.00 7.053355
672.10 6.979543
672.20 6.891433
672.30 6.830288
672.40 6.87207
672.50 7.056506
672.60 7.331636
672.70 7.586914
672.80 7.751009
672.90 7.791984
673.00 7.752535
673.10 7.700929
673.20 7.64473
673.30 7.575336
673.40 7.466957
673.50 7.265297
673.60 6.951055
673.70 6.529713
673.80 6.001193
673.90 5.431902
674.00 4.957492
674.10 4.719482
674.20 4.803441
674.30 5.224559
674.40 5.884493
674.50 6.613509
674.60 7.283919
674.70 7.769941
674.80 7.963701
674.90 7.84219
675.00 7.455163
675.10 6.910198
675.20 6.355577
675.30 5.944306
675.40 5.783938
675.50 5.88115
675.60 6.162392
675.70 6.518806
675.80 6.848678
675.90 7.088093
676.00 7.180473
676.10 7.114239
676.20 6.953318
676.30 6.787675
676.40 6.643569
676.50 6.509441
676.60 6.424312
676.70 6.41823
676.80 6.489798
676.90 6.641956
677.00 6.838643
677.10 6.999303
677.20 7.099013
677.30 7.178725
677.40 7.289639
677.50 7.48169
677.60 7.753036
677.70 8.053292
677.80 8.375675
677.90 8.742887
678.00 9.129378
678.10 9.443737
678.20 9.559258
678.30 9.383426
678.40 8.928698
678.50 8.300615
678.60 7.588695
678.70 6.858438
678.80 6.206839
678.90 5.740483
679.00 5.545113
679.10 5.646037
679.20 6.011134
679.30 6.550772
679.40 7.098575
679.50 7.503399
679.60 7.695406
679.70 7.690164
679.80 7.550197
679.90 7.335071
680.00 7.093513
680.10 6.860595
680.20 6.65757
680.30 6.502982
680.40 6.436524
680.50 6.505473
680.60 6.697054
680.70 6.941902
680.80 7.210186
680.90 7.48158
681.00 7.693634
681.10 7.774556
681.20 7.68204
681.30 7.429581
681.40 7.089166
681.50 6.761224
681.60 6.552945
681.70 6.543572
681.80 6.740561
681.90 7.096619
682.00 7.544543
682.10 8.014121
682.20 8.420553
682.30 8.725761
682.40 8.971598
682.50 9.166219
682.60 9.274354
682.70 9.266303
682.80 9.125963
682.90 8.892174
683.00 8.602826
683.10 8.25586
683.20 7.865888
683.30 7.50248
683.40 7.273414
683.50 7.263199
683.60 7.471178
683.70 7.790405
683.80 8.061847
683.90 8.184621
684.00 8.139014
684.10 7.948828
684.20 7.681269
684.30 7.401764
684.40 7.207977
684.50 7.225234
684.60 7.495341
684.70 7.96133
684.80 8.491357
684.90 8.90668
685.00 9.071061
685.10 8.943876
685.20 8.552635
685.30 7.986459
685.40 7.364082
685.50 6.798198
685.60 6.382328
685.70 6.182339
685.80 6.203072
685.90 6.397579
686.00 6.743732
686.10 7.169167
686.20 7.527202
686.30 7.773412
686.40 7.926016
686.50 7.964924
686.60 7.900689
686.70 7.770067
686.80 7.628951
686.90 7.552653
687.00 7.58506
687.10 7.696492
687.20 7.800525
687.30 7.815194
687.40 7.683651
687.50 7.430225
687.60 7.199163
687.70 7.09822
687.80 7.159865
687.90 7.409687
688.00 7.806789
688.10 8.260905
688.20 8.664028
688.30 8.907931
688.40 8.924884
688.50 8.712591
688.60 8.327803
688.70 7.841186
688.80 7.305007
688.90 6.777352
689.00 6.307509
689.10 5.909004
689.20 5.598222
689.30 5.406379
689.40 5.384397
689.50 5.552593
689.60 5.879964
689.70 6.308364
689.80 6.748317
689.90 7.107215
690.00 7.32574
690.10 7.393079
690.20 7.345604
690.30 7.219661
690.40 7.092318
690.50 7.091967
690.60 7.28487
690.70 7.672291
690.80 8.197789
690.90 8.753182
691.00 9.214531
691.10 9.509242
691.20 9.640309
691.30 9.620319
691.40 9.447568
691.50 9.123679
691.60 8.673123
691.70 8.169409
691.80 7.692845
691.90 7.305452
692.00 7.080799
692.10 7.044158
692.20 7.204286
692.30 7.529911
692.40 7.919975
692.50 8.269075
692.60 8.482453
692.70 8.514162
692.80 8.397726
692.90 8.233663
693.00 8.131909
693.10 8.119741
693.20 8.118315
693.30 8.042134
693.40 7.857426
693.50 7.579154
693.60 7.18901
693.70 6.695323
693.80 6.215638
693.90 5.872655
694.00 5.74841
694.10 5.869819
694.20 6.194391
694.30 6.64022
694.40 7.138487
694.50 7.626277
694.60 8.043236
694.70 8.350012
694.80 8.53759
694.90 8.637808
695.00 8.705562
695.10 8.777765
695.20 8.856821
695.30 8.923813
695.40 8.962788
695.50 8.997742
695.60 9.05413
695.70 9.106486
695.80 9.083641
695.90 8.978322
696.00 8.882643
696.10 8.856399
696.20 8.863211
696.30 8.836626
696.40 8.747366
696.50 8.566993
696.60 8.289637
696.70 7.962704
696.80 7.634367
696.90 7.328526
697.00 7.059536
697.10 6.85998
697.20 6.769638
697.30 6.838052
697.40 7.044444
697.50 7.317082
697.60 7.633179
697.70 7.956451
697.80 8.239118
697.90 8.476095
698.00 8.64518
698.10 8.694865
698.20 8.592969
698.30 8.327632
698.40 7.94203
698.50 7.510369
698.60 7.101407
698.70 6.726541
698.80 6.385716
698.90 6.08276
699.00 5.790329
699.10 5.502128
699.20 5.25252
699.30 5.098625
699.40 5.041496
699.50 5.063392
699.60 5.199263
699.70 5.481736
699.80 5.892122
699.90 6.40341
700.00 6.965348
700.10 7.50158
700.20 7.941036
700.30 8.227243
700.40 8.33363
700.50 8.260551
700.60 8.02432
700.70 7.662141
700.80 7.283538
700.90 6.988435
701.00 6.794958
701.10 6.719662
701.20 6.791518
701.30 6.999303
701.40 7.296446
701.50 7.61319
701.60 7.873986
701.70 8.027508
701.80 8.075485
701.90 8.068458
702.00 8.047032
702.10 8.029206
702.20 8.012028
702.30 7.995203
702.40 7.976957
702.50 7.923215
702.60 7.824095
702.70 7.695027
702.80 7.561007
702.90 7.475193
703.00 7.487044
703.10 7.624356
703.20 7.862046
703.30 8.124895
703.40 8.330845
703.50 8.430794
703.60 8.441695
703.70 8.393618
703.80 8.299502
703.90 8.197793
704.00 8.099735
704.10 7.989964
704.20 7.884095
704.30 7.824821
704.40 7.875077
704.50 8.084346
704.60 8.452614
704.70 8.910102
704.80 9.35055
704.90 9.670264
705.00 9.773333
705.10 9.615873
705.20 9.252876
705.30 8.778042
705.40 8.258586
705.50 7.76171
705.60 7.390634
705.70 7.222296
705.80 7.243773
705.90 7.383048
706.00 7.561206
706.10 7.771787
706.20 8.067873
706.30 8.455117
706.40 8.845531
706.50 9.175924
706.60 9.448007
706.70 9.645293
706.80 9.790104
706.90 9.924432
707.00 10.01863
707.10 10.02134
707.20 9.903562
707.30 9.683684
707.40 9.442946
707.50 9.23992
707.60 9.082036
707.70 8.994646
707.80 9.041751
707.90 9.224385
708.00 9.47017
708.10 9.715592
708.20 9.887487
708.30 9.925997
708.40 9.823859
708.50 9.598847
708.60 9.330126
708.70 9.121695
708.80 9.008423
708.90 8.975688
709.00 8.991801
709.10 9.031805
709.20 9.120854
709.30 9.316697
709.40 9.610224
709.50 9.92269
709.60 10.19567
709.70 10.39267
709.80 10.5043
709.90 10.56828
710.00 10.61249
710.10 10.63913
710.20 10.66493
710.30 10.73006
710.40 10.87692
710.50 11.11845
710.60 11.40587
710.70 11.63163
710.80 11.70572
710.90 11.62375
711.00 11.42596
711.10 11.17712
711.20 10.92207
711.30 10.64931
711.40 10.35841
711.50 10.09155
711.60 9.917181
711.70 9.872988
711.80 9.933874
711.90 10.05353
712.00 10.18709
712.10 10.28923
712.20 10.31808
712.30 10.23713
712.40 10.07313
712.50 9.902753
712.60 9.797343
712.70 9.827608
712.80 10.01881
712.90 10.30533
713.00 10.57465
713.10 10.77636
713.20 10.91871
713.30 10.99479
713.40 10.99728
713.50 10.94314
713.60 10.87569
713.70 10.82785
713.80 10.76905
713.90 10.63917
714.00 10.39517
714.10 10.03195
714.20 9.582771
714.30 9.112032
714.40 8.683811
714.50 8.296979
714.60 7.915451
714.70 7.54046
714.80 7.213887
714.90 6.986411
715.00 6.886348
715.10 6.929437
715.20 7.142499
715.30 7.510426
715.40 7.966353
715.50 8.418921
715.60 8.767093
715.70 8.955066
715.80 8.978855
715.90 8.886669
716.00 8.765337
716.10 8.685207
716.20 8.68478
716.30 8.764922
716.40 8.900801
716.50 9.072035
716.60 9.223368
716.70 9.290596
716.80 9.264549
716.90 9.170536
717.00 9.046228
717.10 8.934252
717.20 8.907816
717.30 9.034713
717.40 9.346166
717.50 9.820513
717.60 10.36054
717.70 10.85751
717.80 11.22774
717.90 11.40789
718.00 11.36856
718.10 11.12295
718.20 10.72081
718.30 10.26171
718.40 9.886756
718.50 9.722371
718.60 9.809742
718.70 10.09832
718.80 10.51943
718.90 11.04078
719.00 11.64256
719.10 12.28314
719.20 12.89752
719.30 13.39566
719.40 13.68007
719.50 13.68369
719.60 13.40314
719.70 12.89331
719.80 12.23985
719.90 11.53758
720.00 10.8907
720.10 10.41091
720.20 10.17902
720.30 10.1875
720.40 10.35282
720.50 10.55619
720.60 10.69174
720.70 10.71881
720.80 10.64439
720.90 10.50159
721.00 10.31965
721.10 10.10259
721.20 9.860011
721.30 9.624817
721.40 9.433701
721.50 9.312719
721.60 9.229995
721.70 9.112096
721.80 8.934444
721.90 8.763921
722.00 8.720492
722.10 8.853561
722.20 9.117857
722.30 9.446613
722.40 9.786182
722.50 10.09751
722.60 10.33724
722.70 10.45183
722.80 10.39968
722.90 10.1722
723.00 9.819655
723.10 9.460781
723.20 9.211828
723.30 9.086967
723.40 8.981616
723.50 8.826446
723.60 8.677273
723.70 8.592505
723.80 8.634229
723.90 8.897512
724.00 9.415877
724.10 10.14918
724.20 11.05269
724.30 12.0325
724.40 12.9238
724.50 13.57718
724.60 13.86471
724.70 13.69529
724.80 13.06913
724.90 12.0755
725.00 10.91482
725.10 9.855996
725.20 9.052798
725.30 8.539083
725.40 8.356372
725.50 8.556952
725.60 9.089744
725.70 9.824032
725.80 10.61149
725.90 11.25555
726.00 11.60733
726.10 11.65685
726.20 11.52438
726.30 11.36372
726.40 11.2076
726.50 11.00262
726.60 10.75579
726.70 10.51834
726.80 10.3054
726.90 10.0991
727.00 9.928443
727.10 9.88957
727.20 10.08712
727.30 10.57751
727.40 11.31893
727.50 12.20818
727.60 13.09281
727.70 13.77216
727.80 14.07768
727.90 13.95408
728.00 13.47558
728.10 12.80914
728.20 12.15395
728.30 11.66232
728.40 11.37646
728.50 11.2359
728.60 11.15521
728.70 11.08022
728.80 10.96301
728.90 10.69837
729.00 10.1605
729.10 9.29942
729.20 8.204128
729.30 7.097139
729.40 6.21327
729.50 5.699876
729.60 5.638861
729.70 6.040843
729.80 6.808432
729.90 7.728359
730.00 8.517273
730.10 8.918393
730.20 8.802594
730.30 8.224717
730.40 7.394173
730.50 6.584955
730.60 6.02187
730.70 5.814368
730.80 5.985934
730.90 6.491441
731.00 7.197383
731.10 7.928189
731.20 8.524815
731.30 8.894935
731.40 9.038158
731.50 9.055545
731.60 9.103928
731.70 9.289574
731.80 9.625104
731.90 10.05962
732.00 10.52247
732.10 10.91764
732.20 11.13132
732.30 11.07664
732.40 10.77235
732.50 10.31795
732.60 9.846771
732.70 9.472039
732.80 9.242897
732.90 9.163387
733.00 9.161617
733.10 9.132389
733.20 9.026748
733.30 8.85217
733.40 8.62889
733.50 8.358198
733.60 8.010573
733.70 7.58732
733.80 7.189165
733.90 6.960026
734.00 6.981084
734.10 7.289252
734.20 7.874433
734.30 8.607098
734.40 9.282125
734.50 9.718914
734.60 9.79527
734.70 9.482826
734.80 8.858993
734.90 8.114344
735.00 7.527829
735.10 7.321181
735.20 7.492784
735.30 7.88331
735.40 8.320591
735.50 8.661926
735.60 8.805577
735.70 8.730587
735.80 8.529747
735.90 8.334407
736.00 8.218789
736.10 8.153282
736.20 8.078392
736.30 7.967656
736.40 7.816762
736.50 7.647466
736.60 7.459295
736.70 7.229367
736.80 6.983606
736.90 6.791225
737.00 6.711614
737.10 6.741833
737.20 6.837978
737.30 6.954164
737.40 7.091358
737.50 7.307721
737.60 7.636279
737.70 8.030864
737.80 8.383619
737.90 8.58434
738.00 8.600519
738.10 8.473291
738.20 8.258878
738.30 8.019596
738.40 7.845475
738.50 7.828483
738.60 8.024569
738.70 8.450871
738.80 9.047442
738.90 9.718959
739.00 10.39216
739.10 10.9947
739.20 11.43246
739.30 11.59684
739.40 11.41998
739.50 10.92399
739.60 10.23589
739.70 9.510924
739.80 8.85606
739.90 8.342703
740.00 7.978862
740.10 7.717756
740.20 7.527781
740.30 7.398611
740.40 7.301194
740.50 7.189553
740.60 7.057855
740.70 6.961441
740.80 6.96702
740.90 7.094638
741.00 7.26841
741.10 7.365971
741.20 7.301072
741.30 7.031601
741.40 6.588599
741.50 6.06279
741.60 5.560731
741.70 5.17569
741.80 4.972932
741.90 5.004482
742.00 5.281703
742.10 5.73689
742.20 6.254005
742.30 6.722121
742.40 7.092768
742.50 7.379634
742.60 7.599527
742.70 7.787754
742.80 8.002747
742.90 8.250104
743.00 8.460691
743.10 8.561071
743.20 8.528824
743.30 8.398027
743.40 8.264784
743.50 8.268626
743.60 8.491951
743.70 8.950071
743.80 9.54263
743.90 10.08105
744.00 10.43189
744.10 10.47263
744.20 10.1136
744.30 9.429692
744.40 8.621035
744.50 7.870779
744.60 7.289347
744.70 6.909731
744.80 6.696006
744.90 6.561382
745.00 6.44685
745.10 6.308725
745.20 6.134404
745.30 5.967448
745.40 5.84879
745.50 5.847724
745.60 6.006433
745.70 6.236521
745.80 6.40386
745.90 6.42768
746.00 6.242111
746.10 5.838026
746.20 5.307783
746.30 4.779551
746.40 4.363712
746.50 4.135114
746.60 4.119472
746.70 4.293449
746.80 4.60879
746.90 5.021393
747.00 5.506583
747.10 6.066449
747.20 6.663409
747.30 7.207656
747.40 7.653734
747.50 7.981508
747.60 8.125929
747.70 8.025553
747.80 7.650644
747.90 7.04756
748.00 6.375938
748.10 5.833018
748.20 5.550824
748.30 5.549735
748.40 5.764402
748.50 6.075312
748.60 6.347249
748.70 6.460008
748.80 6.343042
748.90 5.986314
749.00 5.44077
749.10 4.809689
749.20 4.249884
749.30 3.910499
749.40 3.85083
749.50 4.037566
749.60 4.396243
749.70 4.816075
749.80 5.138955
749.90 5.233211
750.00 5.071231
750.10 4.741885
750.20 4.376399
750.30 4.058189
750.40 3.815014
750.50 3.66396
750.60 3.618244
750.70 3.665661
750.80 3.77677
750.90 3.921422
751.00 4.074249
751.10 4.213316
751.20 4.324559
751.30 4.400832
751.40 4.418766
751.50 4.325172
751.60 4.068318
751.70 3.648801
751.80 3.167425
751.90 2.791194
752.00 2.604524
752.10 2.594859
752.20 2.781231
752.30 3.194861
752.40 3.756155
752.50 4.330532
752.60 4.821366
752.70 5.155375
752.80 5.288108
752.90 5.225427
753.00 5.011166
753.10 4.729537
753.20 4.462982
753.30 4.255097
753.40 4.191506
753.50 4.371569
753.60 4.7487
753.70 5.143381
753.80 5.394141
753.90 5.401694
754.00 5.126385
754.10 4.622027
754.20 4.007733
754.30 3.39784
754.40 2.900984
754.50 2.628748
754.60 2.636341
754.70 2.899856
754.80 3.329694
754.90 3.800819
755.00 4.189368
755.10 4.406363
755.20 4.434535
755.30 4.323376
755.40 4.156092
755.50 3.996867
755.60 3.898806
755.70 3.928006
755.80 4.114653
755.90 4.433213
756.00 4.817747
756.10 5.172695
756.20 5.433987
756.30 5.58224
756.40 5.633999
756.50 5.668589
756.60 5.770158
756.70 5.96488
756.80 6.227488
756.90 6.509873
757.00 6.753345
757.10 6.902645
757.20 6.936327
757.30 6.841885
757.40 6.615548
757.50 6.268169
757.60 5.8295
757.70 5.355949
757.80 4.884235
757.90 4.421876
758.00 3.942005
758.10 3.436666
758.20 2.956296
758.30 2.562172
758.40 2.306273
758.50 2.219158
758.60 2.282311
758.70 2.438057
758.80 2.644038
758.90 2.895887
759.00 3.170038
759.10 3.420163
759.20 3.660977
759.30 3.933099
759.40 4.333785
759.50 4.941752
759.60 5.714465
759.70 6.537886
759.80 7.290063
759.90 7.864773
760.00 8.14516
760.10 8.002266
760.20 7.3564
760.30 6.29096
760.40 4.994171
760.50 3.674412
760.60 2.52367
760.70 1.707192
760.80 1.312842
760.90 1.331391
761.00 1.682449
761.10 2.213915
761.20 2.70875
761.30 2.973926
761.40 2.947825
761.50 2.743324
761.60 2.566353
761.70 2.569679
761.80 2.826258
761.90 3.338991
762.00 4.030569
762.10 4.729119
762.20 5.192234
762.30 5.269329
762.40 4.967129
762.50 4.337525
762.60 3.46927
762.70 2.507734
762.80 1.635018
762.90 1.019903
763.00 0.7402568
763.10 0.7538601
763.20 0.9762132
763.30 1.319575
763.40 1.683766
763.50 1.977106
763.60 2.151311
763.70 2.143153
763.80 1.889772
763.90 1.488302
764.00 1.130951
764.10 0.935494
764.20 0.9286071
764.30 1.094249
764.40 1.375532
764.50 1.662603
764.60 1.846789
764.70 1.883779
764.80 1.793027
764.90 1.638134
765.00 1.497536
765.10 1.449472
765.20 1.526147
765.30 1.649866
765.40 1.679743
765.50 1.554919
765.60 1.290057
765.70 0.8958577
765.80 0.4380434
765.90 0.06853209
766.00 0
766.10 0.01325936
766.20 0.3301317
766.30 0.8093607
766.40 1.353876
766.50 1.827961
766.60 2.089849
766.70 2.080961
766.80 1.85767
766.90 1.487524
767.00 1.029162
767.10 0.5773221
767.20 0.2090246
767.30 0
767.40 0
767.50 0.1296956
767.60 0.459318
767.70 0.8784216
767.80 1.32001
767.90 1.745846
768.00 2.188174
768.10 2.672967
768.20 3.134445
768.30 3.484918
768.40 3.680399
768.50 3.712722
768.60 3.622378
768.70 3.47656
768.80 3.315556
768.90 3.155034
769.00 2.995637
769.10 2.83037
769.20 2.697432
769.30 2.654321
769.40 2.654052
769.50 2.601424
769.60 2.471805
769.70 2.268952
769.80 2.028703
769.90 1.821403
770.00 1.694456
770.10 1.677805
770.20 1.7789
770.30 1.939485
770.40 2.063581
770.50 2.051875
770.60 1.723072
770.70 0.8699433
770.80 0
770.90 0
771.00 0
771.10 0
771.20 0
771.30 0
771.40 0
771.50 0
771.60 0
771.70 0.491063
771.80 1.542916
771.90 2.115183
772.00 2.239224
772.10 2.027319
772.20 1.608794
772.30 1.105873
772.40 0.609344
772.50 0.1529904
772.60 0
772.70 0
772.80 0
772.90 0.1398534
773.00 0.962675
773.10 1.885535
773.20 2.721174
773.30 3.306541
773.40 3.579916
773.50 3.603508
773.60 3.467707
773.70 3.247714
773.80 3.007076
773.90 2.790376
774.00 2.595696
774.10 2.411599
774.20 2.207743
774.30 1.960421
774.40 1.681669
774.50 1.407282
774.60 1.259744
774.70 1.31405
774.80 1.545557
774.90 1.935841
775.00 2.495653
775.10 3.192322
775.20 3.93373
775.30 4.605049
775.40 5.033943
775.50 5.025604
775.60 4.473717
775.70 3.429666
775.80 2.140422
775.90 0.8907521
776.00 0
776.10 0
776.20 0
776.30 0
776.40 0
776.50 0.1163885
776.60 0.9543859
776.70 1.663657
776.80 2.099891
776.90 2.329639
777.00 2.473488
777.10 2.573312
777.20 2.651826
777.30 2.767894
777.40 3.008793
777.50 3.40659
777.60 3.947186
777.70 4.585309
777.80 5.163186
777.90 5.507318
778.00 5.524949
778.10 5.253318
778.20 4.799904
778.30 4.243376
778.40 3.706501
778.50 3.308454
778.60 3.037666
778.70 2.796069
778.80 2.585368
778.90 2.548363
779.00 2.714895
779.10 3.014233
779.20 3.454498
779.30 4.024358
779.40 4.619223
779.50 5.107329
779.60 5.386536
779.70 5.366706
779.80 4.978735
779.90 4.297045
780.00 3.548289
780.10 2.991385
780.20 2.722479
780.30 2.600133
780.40 2.501498
780.50 2.384917
780.60 2.204427
780.70 1.947337
780.80 1.66556
780.90 1.487429
781.00 1.540935
781.10 1.89585
781.20 2.542614
781.30 3.382703
781.40 4.268369
781.50 5.02451
781.60 5.488891
781.70 5.591551
781.80 5.345342
781.90 4.840063
782.00 4.244961
782.10 3.753437
782.20 3.560812
782.30 3.751831
782.40 4.286908
782.50 5.068072
782.60 5.946499
782.70 6.753609
782.80 7.315714
782.90 7.544489
783.00 7.496185
783.10 7.275536
783.20 6.965405
783.30 6.634909
783.40 6.345505
783.50 6.141331
783.60 6.019696
783.70 6.012065
783.80 6.158885
783.90 6.431109
784.00 6.784979
784.10 7.169947
784.20 7.524688
784.30 7.758873
784.40 7.800294
784.50 7.655598
784.60 7.370047
784.70 6.997926
784.80 6.601877
784.90 6.337352
785.00 6.516211
785.10 7.347442
785.20 8.808701
785.30 10.71224
785.40 12.71201
785.50 14.44571
785.60 15.65306
785.70 16.18801
785.80 15.9932
785.90 15.11951
786.00 13.76527
786.10 12.23011
786.20 10.83998
786.30 9.803125
786.40 9.065194
786.50 8.498072
786.60 8.068217
786.70 7.838952
786.80 7.90691
786.90 8.302345
787.00 8.978269
787.10 9.788366
787.20 10.47388
787.30 10.81879
787.40 10.75442
787.50 10.28594
787.60 9.497993
787.70 8.640044
787.80 8.025328
787.90 7.817642
788.00 8.040405
788.10 8.626984
788.20 9.423105
788.30 10.17171
788.40 10.63701
788.50 10.74986
788.60 10.61585
788.70 10.37503
788.80 10.1204
788.90 9.962256
789.00 9.981915
789.10 10.08354
789.20 10.09057
789.30 9.964717
789.40 9.733322
789.50 9.405983
789.60 9.049625
789.70 8.816747
789.80 8.813451
789.90 9.01735
790.00 9.349369
790.10 9.733955
790.20 10.09501
790.30 10.36733
790.40 10.5233
790.50 10.59996
790.60 10.65427
790.70 10.67634
790.80 10.57435
790.90 10.29481
791.00 9.913601
791.10 9.507862
791.20 9.080717
791.30 8.698192
791.40 8.444141
791.50 8.327787
791.60 8.349593
791.70 8.499324
791.80 8.752088
791.90 9.080754
792.00 9.442755
792.10 9.797095
792.20 10.18496
792.30 10.63981
792.40 11.10126
792.50 11.50486
792.60 11.77595
792.70 11.75318
792.80 11.29168
792.90 10.40492
793.00 9.265475
793.10 8.082961
793.20 7.079729
793.30 6.423719
793.40 6.173289
793.50 6.380998
793.60 7.029055
793.70 7.969352
793.80 8.947609
793.90 9.726863
794.00 10.19071
794.10 10.36206
794.20 10.30177
794.30 9.981075
794.40 9.323523
794.50 8.356664
794.60 7.180988
794.70 5.963274
794.80 4.974076
794.90 4.437578
795.00 4.459173
795.10 5.038456
795.20 6.072794
795.30 7.360142
795.40 8.689818
795.50 9.876164
795.60 10.80742
795.70 11.46742
795.80 11.86047
795.90 12.05102
796.00 12.14831
796.10 12.25828
796.20 12.47487
796.30 12.80289
796.40 13.22069
796.50 13.74519
796.60 14.39785
796.70 15.18389
796.80 16.03876
796.90 16.84786
797.00 17.50594
797.10 17.95129
797.20 18.18292
797.30 18.17972
797.40 17.8811
797.50 17.25915
797.60 16.36213
797.70 15.32341
797.80 14.28618
797.90 13.36313
798.00 12.62249
798.10 12.10509
798.20 11.87058
798.30 11.97378
798.40 12.37998
798.50 12.97321
798.60 13.6234
798.70 14.23281
798.80 14.75205
798.90 15.16339
799.00 15.40092
799.10 15.36518
799.20 15.0953
799.30 14.77048
799.40 14.50966
799.50 14.28352
799.60 14.03476
799.70 13.76788
799.80 13.57947
799.90 13.60499
800.00 13.92033
800.10 14.49084
800.20 15.21726
800.30 15.96957
800.40 16.63811
800.50 17.17903
800.60 17.51198
800.70 17.50011
800.80 17.17105
800.90 16.73484
801.00 16.36419
801.10 16.10381
801.20 15.95007
801.30 15.88638
801.40 15.8577
801.50 15.83512
801.60 15.82278
801.70 15.81432
801.80 15.76346
801.90 15.63177
802.00 15.42798
802.10 15.25178
802.20 15.1505
802.30 15.14281
802.40 15.3015
802.50 15.72629
802.60 16.44878
802.70 17.35289
802.80 18.30638
802.90 19.13876
803.00 19.6911
803.10 19.91671
803.20 19.84982
803.30 19.56001
803.40 19.1406
803.50 18.64464
803.60 18.19685
803.70 17.94305
803.80 17.92555
803.90 18.07391
804.00 18.22629
804.10 18.28857
804.20 18.28533
804.30 18.32808
804.40 18.49944
804.50 18.8125
804.60 19.30011
804.70 19.9769
804.80 20.77168
804.90 21.57323
805.00 22.24958
805.10 22.66547
805.20 22.74805
805.30 22.53203
805.40 22.14461
805.50 21.70273
805.60 21.22952
805.70 20.7462
805.80 20.32284
805.90 20.01021
806.00 19.79444
806.10 19.65063
806.20 19.5963
806.30 19.65614
806.40 19.8005
806.50 19.95708
806.60 20.08173
806.70 20.13755
806.80 20.06589
806.90 19.86678
807.00 19.65122
807.10 19.55225
807.20 19.67637
807.30 20.0851
807.40 20.76069
807.50 21.60298
807.60 22.42853
807.70 23.03839
807.80 23.30757
807.90 23.20247
808.00 22.77379
808.10 22.18684
808.20 21.68383
808.30 21.44089
808.40 21.5143
808.50 21.87105
808.60 22.42588
808.70 23.09897
808.80 23.78189
808.90 24.33253
809.00 24.6575
809.10 24.72256
809.20 24.53146
809.30 24.13949
809.40 23.62318
809.50 23.01908
809.60 22.35822
809.70 21.76392
809.80 21.3589
809.90 21.15975
810.00 21.12284
810.10 21.16442
810.20 21.2381
810.30 21.37316
810.40 21.60629
810.50 21.94728
810.60 22.3935
810.70 22.89919
810.80 23.37043
810.90 23.70318
811.00 23.84011
811.10 23.78793
811.20 23.59483
811.30 23.35677
811.40 23.15337
811.50 23.00794
811.60 22.93327
811.70 22.93418
811.80 22.98793
811.90 23.06754
812.00 23.12521
812.10 23.13106
812.20 23.14557
812.30 23.28949
812.40 23.63479
812.50 24.14998
812.60 24.72066
812.70 25.2446
812.80 25.69366
812.90 26.06126
813.00 26.31297
813.10 26.37997
813.20 26.21301
813.30 25.87552
813.40 25.53333
813.50 25.32591
813.60 25.28906
813.70 25.3801
813.80 25.5492
813.90 25.72007
814.00 25.80225
814.10 25.67597
814.20 25.23936
814.30 24.54363
814.40 23.75644
814.50 23.10139
814.60 22.77868
814.70 22.82877
814.80 23.20347
814.90 23.8788
815.00 24.7809
815.10 25.75906
815.20 26.6478
815.30 27.31874
815.40 27.70132
815.50 27.82136
815.60 27.77136
815.70 27.60437
815.80 27.3381
815.90 27.03327
816.00 26.81092
816.10 26.78892
816.20 26.97557
816.30 27.27401
816.40 27.59902
816.50 27.90835
816.60 28.1755
816.70 28.41541
816.80 28.66946
816.90 28.95263
817.00 29.23813
817.10 29.49326
817.20 29.71669
817.30 29.90144
817.40 30.01367
817.50 30.01879
817.60 29.93133
817.70 29.79905
817.80 29.6624
817.90 29.58016
818.00 29.60724
818.10 29.70052
818.20 29.75689
818.30 29.70094
818.40 29.49482
818.50 29.15756
818.60 28.73713
818.70 28.2962
818.80 27.92558
818.90 27.69423
819.00 27.57544
819.10 27.49053
819.20 27.35283
819.30 27.07153
819.40 26.58852
819.50 25.97541
819.60 25.47264
819.70 25.36415
819.80 25.85544
819.90 26.96321
820.00 28.54789
820.10 30.40402
820.20 32.23629
820.30 33.77458
820.40 34.8697
820.50 35.41165
820.60 35.35323
820.70 34.8099
820.80 34.01865
820.90 33.21253
821.00 32.54246
821.10 32.07624
821.20 31.81695
821.30 31.74226
821.40 31.79199
821.50 31.82765
821.60 31.72404
821.70 31.38866
821.80 30.77648
821.90 29.98062
822.00 29.18777
822.10 28.55223
822.20 28.19146
822.30 28.20263
822.40 28.59938
822.50 29.31
822.60 30.24041
822.70 31.28433
822.80 32.3124
822.90 33.15841
823.00 33.64142
823.10 33.68205
823.20 33.35813
823.30 32.84576
823.40 32.35292
823.50 32.03084
823.60 31.95075
823.70 32.15898
823.80 32.6672
823.90 33.43142
824.00 34.30918
824.10 35.05127
824.20 35.42142
824.30 35.3303
824.40 34.85618
824.50 34.19267
824.60 33.56228
824.70 33.1386
824.80 33.01028
824.90 33.21652
825.00 33.71697
825.10 34.35716
825.20 34.96976
825.30 35.41806
825.40 35.59932
825.50 35.51777
825.60 35.26147
825.70 34.93359
825.80 34.70364
825.90 34.71346
826.00 34.96537
826.10 35.40154
826.20 35.94472
826.30 36.50871
826.40 37.02711
826.50 37.41623
826.60 37.50217
826.70 37.14321
826.80 36.37942
826.90 35.3823
827.00 34.38057
827.10 33.59331
827.20 33.13539
827.30 33.0056
827.40 33.14611
827.50 33.42042
827.60 33.66569
827.70 33.7908
827.80 33.74244
827.90 33.47029
828.00 33.00575
828.10 32.43889
828.20 31.84561
828.30 31.33495
828.40 31.03672
828.50 31.0171
828.60 31.36409
828.70 32.20012
828.80 33.54695
828.90 35.32576
829.00 37.30891
829.10 39.11831
829.20 40.38422
829.30 40.91716
829.40 40.75416
829.50 40.05258
829.60 38.98567
829.70 37.73746
829.80 36.57088
829.90 35.79828
830.00 35.4725
830.10 35.39542
830.20 35.40193
830.30 35.37463
830.40 35.25203
830.50 35.04942
830.60 34.8415
830.70 34.68688
830.80 34.55535
830.90 34.48374
831.00 34.61606
831.10 35.05739
831.20 35.78752
831.30 36.67661
831.40 37.62175
831.50 38.52973
831.60 39.2667
831.70 39.76611
831.80 40.08788
831.90 40.32973
832.00 40.5872
832.10 40.967
832.20 41.58262
832.30 42.44531
832.40 43.39256
832.50 44.17714
832.60 44.56924
832.70 44.46373
832.80 43.88734
832.90 42.9631
833.00 41.86071
833.10 40.7185
833.20 39.63147
833.30 38.67743
833.40 37.96097
833.50 37.61473
833.60 37.65808
833.70 37.93157
833.80 38.24063
833.90 38.43175
834.00 38.42958
834.10 38.24907
834.20 37.97631
834.30 37.74885
834.40 37.78609
834.50 38.28703
834.60 39.24619
834.70 40.52519
834.80 41.87171
834.90 42.94134
835.00 43.47343
835.10 43.3322
835.20 42.62789
835.30 41.69109
835.40 40.78176
835.50 40.08004
835.60 39.70894
835.70 39.72563
835.80 40.05601
835.90 40.52621
836.00 41.01937
836.10 41.44911
836.20 41.7268
836.30 41.79547
836.40 41.6963
836.50 41.61309
836.60 41.66085
836.70 41.82085
836.80 42.10432
836.90 42.50351
837.00 42.96172
837.10 43.39308
837.20 43.66968
837.30 43.68396
837.40 43.44148
837.50 43.07558
837.60 42.79152
837.70 42.77041
837.80 43.05978
837.90 43.5681
838.00 44.17226
838.10 44.74145
838.20 45.15178
838.30 45.35469
838.40 45.33585
838.50 45.08168
838.60 44.63222
838.70 44.07347
838.80 43.50192
838.90 42.96989
839.00 42.42998
839.10 41.84433
839.20 41.2981
839.30 40.91788
839.40 40.78376
839.50 40.92056
839.60 41.24422
839.70 41.5599
839.80 41.79088
839.90 42.02867
840.00 42.28836
840.10 42.50844
840.20 42.67234
840.30 42.8013
840.40 43.00495
840.50 43.43975
840.60 44.17648
840.70 45.17027
840.80 46.20485
840.90 47.06965
841.00 47.77124
841.10 48.32992
841.20 48.52617
841.30 48.08656
841.40 47.06374
841.50 45.79852
841.60 44.64941
841.70 43.86703
841.80 43.54894
841.90 43.62215
842.00 43.88777
842.10 44.21057
842.20 44.65418
842.30 45.28321
842.40 45.99546
842.50 46.69093
842.60 47.47318
842.70 48.47197
842.80 49.58166
842.90 50.55722
843.00 51.14611
843.10 51.12986
843.20 50.41984
843.30 49.11399
843.40 47.49389
843.50 45.85498
843.60 44.41001
843.70 43.36212
843.80 42.87492
843.90 43.02736
844.00 43.72031
844.10 44.74933
844.20 45.95307
844.30 47.16263
844.40 48.19528
844.50 48.93216
844.60 49.34328
844.70 49.4736
844.80 49.33035
844.90 48.84747
845.00 48.01214
845.10 46.89658
845.20 45.6489
845.30 44.46773
845.40 43.54299
845.50 42.96676
845.60 42.70368
845.70 42.70217
845.80 42.92375
845.90 43.32058
846.00 43.87059
846.10 44.49573
846.20 45.02338
846.30 45.3274
846.40 45.39113
846.50 45.26791
846.60 45.05024
846.70 44.82275
846.80 44.64698
846.90 44.55528
847.00 44.59668
847.10 44.79355
847.20 45.19081
847.30 45.82291
847.40 46.49297
847.50 46.93467
847.60 47.10358
847.70 47.12582
847.80 47.09665
847.90 47.02544
848.00 46.85851
848.10 46.57968
848.20 46.28479
848.30 46.12341
848.40 46.19128
848.50 46.49575
848.60 46.90425
848.70 47.24856
848.80 47.47701
848.90 47.60726
849.00 47.68698
849.10 47.73021
849.20 47.6919
849.30 47.56961
849.40 47.44879
849.50 47.37927
849.60 47.30109
849.70 47.18471
849.80 47.11316
849.90 47.19553
850.00 47.48563
850.10 47.87492
850.20 48.14065
850.30 48.15616
850.40 47.93265
850.50 47.57389
850.60 47.26494
850.70 47.15408
850.80 47.25456
850.90 47.54572
851.00 48.01993
851.10 48.55531
851.20 48.90093
851.30 48.84124
851.40 48.26655
851.50 47.22526
851.60 45.89625
851.70 44.34992
851.80 42.4889
851.90 40.24909
852.00 37.70593
852.10 35.06683
852.20 32.69252
852.30 31.01682
852.40 30.38522
852.50 30.97283
852.60 32.76135
852.70 35.48109
852.80 38.70034
852.90 42.01288
853.00 45.12142
853.10 47.84732
853.20 50.11613
853.30 51.91704
853.40 53.28234
853.50 54.2985
853.60 55.03386
853.70 55.47878
853.80 55.62596
853.90 55.54615
854.00 55.32409
854.10 55.0436
854.20 54.79066
854.30 54.57191
854.40 54.29368
854.50 53.84367
854.60 53.15034
854.70 52.27252
854.80 51.3994
854.90 50.73284
855.00 50.46931
855.10 50.75217
855.20 51.57383
855.30 52.77424
855.40 54.16466
855.50 55.57764
855.60 56.83563
855.70 57.77363
855.80 58.29232
855.90 58.42347
856.00 58.33842
856.10 58.19416
856.20 58.10367
856.30 58.19216
856.40 58.51334
856.50 59.04043
856.60 59.72933
856.70 60.56058
856.80 61.52291
856.90 62.50359
857.00 63.22987
857.10 63.42256
857.20 62.95766
857.30 61.87358
857.40 60.31741
857.50 58.53371
857.60 56.8139
857.70 55.38347
857.80 54.40048
857.90 53.96358
858.00 54.08349
858.10 54.66584
858.20 55.47978
858.30 56.23615
858.40 56.76927
858.50 57.04918
858.60 57.09032
858.70 56.90004
858.80 56.46334
858.90 55.78247
859.00 54.87924
859.10 53.81349
859.20 52.67277
859.30 51.55933
859.40 50.6422
859.50 50.06863
859.60 49.93789
859.70 50.32504
859.80 51.22804
859.90 52.52086
860.00 53.96906
860.10 55.3484
860.20 56.51288
860.30 57.39308
860.40 57.97369
860.50 58.25127
860.60 58.22373
860.70 57.91579
860.80 57.28927
860.90 56.28112
861.00 54.87184
861.10 53.09659
861.20 51.04396
861.30 48.84716
861.40 46.70613
861.50 44.84365
861.60 43.41042
861.70 42.35542
861.80 41.5367
861.90 40.88197
862.00 40.35193
862.10 39.90677
862.20 39.56065
862.30 39.34621
862.40 39.23202
862.50 39.15558
862.60 39.04427
862.70 38.74264
862.80 37.9898
862.90 36.66204
863.00 35.00268
863.10 33.55157
863.20 32.81872
863.30 33.10694
863.40 34.53892
863.50 36.98364
863.60 40.002
863.70 42.99967
863.80 45.42647
863.90 46.85024
864.00 47.05529
864.10 46.19056
864.20 44.76182
864.30 43.28029
864.40 41.98734
864.50 40.91464
864.60 40.01104
864.70 39.22655
864.80 38.52967
864.90 37.94307
865.00 37.5806
865.10 37.54818
865.20 37.86416
865.30 38.48753
865.40 39.3276
865.50 40.265
865.60 41.19016
865.70 42.02596
865.80 42.76822
865.90 43.43314
866.00 44.04928
866.10 44.69378
866.20 45.42723
866.30 46.26252
866.40 47.19127
866.50 48.1657
866.60 49.06168
866.70 49.67741
866.80 49.84022
866.90 49.63546
867.00 49.39026
867.10 49.33553
867.20 49.47904
867.30 49.81859
867.40 50.39135
867.50 51.15265
867.60 51.98718
867.70 52.62898
867.80 52.67646
867.90 51.90537
868.00 50.41936
868.10 48.571
868.20 46.81701
868.30 45.50713
868.40 44.80889
868.50 44.82917
868.60 45.59071
868.70 46.90499
868.80 48.38641
868.90 49.57513
869.00 50.05222
869.10 49.6481
869.20 48.55438
869.30 47.08564
869.40 45.55489
869.50 44.33707
869.60 43.81307
869.70 44.10338
869.80 44.94803
869.90 45.99202
870.00 46.97445
870.10 47.65749
870.20 47.79696
870.30 47.20069
870.40 45.85409
870.50 44.09318
870.60 42.45376
870.70 41.3457
870.80 41.00096
870.90 41.44701
871.00 42.53452
871.10 44.02587
871.20 45.6211
871.30 47.05675
871.40 48.15711
871.50 48.82877
871.60 49.07545
871.70 49.04252
871.80 48.90286
871.90 48.64139
872.00 48.1423
872.10 47.43978
872.20 46.68705
872.30 46.07136
872.40 45.69181
872.50 45.5938
872.60 45.90816
872.70 46.62446
872.80 47.54319
872.90 48.44091
873.00 49.13014
873.10 49.44372
873.20 49.31876
873.30 48.82643
873.40 48.06966
873.50 47.20039
873.60 46.39599
873.70 45.79393
873.80 45.50252
873.90 45.54116
874.00 45.77245
874.10 46.02748
874.20 46.2507
874.30 46.4616
874.40 46.70053
874.50 47.01062
874.60 47.40926
874.70 47.8549
874.80 48.23912
874.90 48.50369
875.00 48.69506
875.10 48.83893
875.20 48.88314
875.30 48.81621
875.40 48.75957
875.50 48.8284
875.60 48.98257
875.70 49.1233
875.80 49.2356
875.90 49.34948
876.00 49.44769
876.10 49.55454
876.20 49.79174
876.30 50.1415
876.40 50.46711
876.50 50.69382
876.60 50.77864
876.70 50.75695
876.80 50.80773
876.90 51.10649
877.00 51.78101
877.10 52.91882
877.20 54.48505
877.30 56.34435
877.40 58.27571
877.50 59.8875
877.60 60.71995
877.70 60.56105
877.80 59.35277
877.90 57.27296
878.00 54.86636
878.10 52.66697
878.20 50.92452
878.30 49.79611
878.40 49.31519
878.50 49.31094
878.60 49.52935
878.70 49.67905
878.80 49.56878
878.90 49.25231
879.00 48.99734
879.10 49.08677
879.20 49.78759
879.30 51.18362
879.40 53.05472
879.50 54.99436
879.60 56.54397
879.70 57.32076
879.80 57.19151
879.90 56.31536
880.00 54.99321
880.10 53.58774
880.20 52.4693
880.30 51.91688
880.40 52.02669
880.50 52.69632
880.60 53.69044
880.70 54.72496
880.80 55.5604
880.90 56.10916
881.00 56.45389
881.10 56.74343
881.20 57.0528
881.30 57.38541
881.40 57.78022
881.50 58.30109
881.60 58.95322
881.70 59.60735
881.80 60.0082
881.90 59.89279
882.00 59.18487
882.10 58.12087
882.20 57.30658
882.30 57.45291
882.40 58.83067
882.50 61.23137
882.60 64.1336
882.70 66.77835
882.80 68.39063
882.90 68.42588
883.00 66.65249
883.10 63.27472
883.20 58.97008
883.30 54.66242
883.40 51.33322
883.50 49.7005
883.60 49.85369
883.70 51.34571
883.80 53.65094
883.90 56.24696
884.00 58.65139
884.10 60.61018
884.20 61.9302
884.30 62.35045
884.40 61.80856
884.50 60.57612
884.60 59.10175
884.70 57.86587
884.80 57.20532
884.90 57.2534
885.00 57.98523
885.10 59.27244
885.20 60.8614
885.30 62.35514
885.40 63.3408
885.50 63.51596
885.60 62.86481
885.70 61.67951
885.80 60.33028
885.90 59.10289
886.00 58.20777
886.10 57.81396
886.20 57.99132
886.30 58.64577
886.40 59.54312
886.50 60.30273
886.60 60.59343
886.70 60.34219
886.80 59.66717
886.90 58.76286
887.00 57.79162
887.10 56.92467
887.20 56.35081
887.30 56.18131
887.40 56.4263
887.50 57.08196
887.60 58.09655
887.70 59.28477
887.80 60.35418
887.90 61.13863
888.00 61.65286
888.10 61.81074
888.20 61.30722
888.30 60.04854
888.40 58.51966
888.50 57.4375
888.60 57.36362
888.70 58.55242
888.80 60.8726
888.90 63.82824
889.00 66.73981
889.10 68.98753
889.20 70.20538
889.30 70.23932
889.40 69.08102
889.50 67.13739
889.60 65.33726
889.70 64.50111
889.80 64.80918
889.90 66.00355
890.00 67.63005
890.10 69.18291
890.20 70.28855
890.30 70.74247
890.40 70.43802
890.50 69.3687
890.60 67.6987
890.70 65.73227
890.80 63.83334
890.90 62.3259
891.00 61.34905
891.10 60.86746
891.20 60.81336
891.30 61.10845
891.40 61.66629
891.50 62.33874
891.60 62.72575
891.70 62.13567
891.80 60.1424
891.90 57.06557
892.00 53.62067
892.10 50.54729
892.20 48.43026
892.30 47.52715
892.40 47.81503
892.50 49.09044
892.60 50.97463
892.70 52.95053
892.80 54.53253
892.90 55.42117
893.00 55.69647
893.10 55.95805
893.20 56.82432
893.30 58.43795
893.40 60.5657
893.50 62.77991
893.60 64.5828
893.70 65.64405
893.80 65.80898
893.90 64.8384
894.00 62.4581
894.10 58.67073
894.20 53.85898
894.30 48.77731
894.40 44.40822
894.50 41.57307
894.60 40.70573
894.70 41.7855
894.80 44.41253
894.90 48.01199
895.00 52.00269
895.10 55.83209
895.20 59.10068
895.30 61.60553
895.40 63.34556
895.50 64.47941
895.60 65.16858
895.70 65.45805
895.80 65.31147
895.90 64.76775
896.00 63.91038
896.10 62.89184
896.20 61.91947
896.30 61.17564
896.40 60.80105
896.50 60.82416
896.60 61.11048
896.70 61.59271
896.80 62.27475
896.90 63.08636
897.00 63.93833
897.10 64.79339
897.20 65.7055
897.30 66.74428
897.40 67.93032
897.50 69.19164
897.60 70.45125
897.70 71.66121
897.80 72.66166
897.90 73.23699
898.00 73.30655
898.10 72.99424
898.20 72.64623
898.30 72.69771
898.40 73.234
898.50 73.76107
898.60 73.59553
898.70 72.34429
898.80 70.09235
898.90 67.27012
899.00 64.43533
899.10 62.11922
899.20 60.78476
899.30 60.76085
899.40 62.08802
899.50 64.51106
899.60 67.47087
899.70 70.03333
899.80 71.5476
899.90 72.37283
900.00 72.32958
900.10 72.28633
900.20 72.24309
900.30 72.19984
900.40 72.15659
900.50 72.11335
900.60 72.0701
900.70 72.02685
900.80 71.98361
900.90 72.31486
901.00 72.83904
901.10 73.36322
901.20 73.88739
901.30 74.41157
901.40 74.93575
901.50 75.45993
901.60 75.98411
901.70 76.50828
901.80 77.03246
901.90 77.55664
902.00 78.08082
902.10 78.605
902.20 79.12917
902.30 79.65335
902.40 80.17753
902.50 80.70171
902.60 81.22589
902.70 81.75006
902.80 82.27424
902.90 82.79842
903.00 83.3226
903.10 83.84678
903.20 84.37095
903.30 84.89513
903.40 85.41931
903.50 85.94349
903.60 86.46767
903.70 86.99184
903.80 87.51602
903.90 88.0402
904.00 88.56438
904.10 89.08856
904.20 89.61273
904.30 90.08114
904.40 90.49149
904.50 90.90184
904.60 91.3122
904.70 91.72255
904.80 92.1329
904.90 92.54325
905.00 92.95361
905.10 93.36396
905.20 93.77431
905.30 94.18466
905.40 94.59502
905.50 95.00537
905.60 95.41572
905.70 95.82608
905.80 96.23643
905.90 96.64678
906.00 97.05713
906.10 97.46749
906.20 97.87784
906.30 98.28819
906.40 98.69854
906.50 99.1089
906.60 99.51925
906.70 99.9296
906.80 100.34
906.90 100.7503
907.00 101.1607
907.10 101.571
907.20 101.9814
907.30 102.3917
907.40 102.8021
907.50 103.2124
907.60 103.6228
907.70 103.9556
907.80 103.8118
907.90 103.6681
908.00 103.5243
908.10 103.3806
908.20 103.2369
908.30 103.0931
908.40 102.9494
908.50 102.8057
908.60 102.6619
908.70 102.5182
908.80 102.3745
908.90 102.2307
909.00 102.087
909.10 101.9432
909.20 101.7995
909.30 101.6558
909.40 101.512
909.50 101.3683
909.60 101.2246
909.70 101.0808
909.80 100.9371
909.90 100.7934
910.00 100.6496
910.10 100.5059
910.20 100.3621
910.30 100.2184
910.40 100.0747
910.50 99.93093
910.60 99.7872
910.70 99.64346
910.80 99.49972
910.90 99.35599
911.00 99.21225
911.10 99.06851
911.20 98.98215
911.30 98.93248
911.40 98.88281
911.50 98.83313
911.60 98.78346
911.70 98.73379
911.80 98.68411
911.90 98.63444
912.00 98.58477
912.10 98.53509
912.20 98.48542
912.30 98.43575
912.40 98.38607
912.50 98.3364
912.60 98.28672
912.70 98.23705
912.80 98.18738
912.90 98.1377
913.00 98.08803
913.10 98.03836
913.20 97.98868
913.30 97.93901
913.40 97.88934
913.50 97.83966
913.60 97.78999
913.70 97.74032
913.80 97.69064
913.90 97.64097
914.00 97.5913
914.10 97.54162
914.20 97.49195
914.30 97.44227
914.40 97.3926
914.50 97.34293
914.60 97.29325
914.70 97.71083
914.80 98.18615
914.90 98.66148
915.00 99.1368
915.10 99.61213
915.20 100.0875
915.30 100.5628
915.40 101.0381
915.50 101.5134
915.60 101.9888
915.70 102.4641
915.80 102.9394
915.90 103.4147
916.00 103.8901
916.10 104.3654
916.20 104.8407
916.30 105.316
916.40 105.7914
916.50 106.2667
916.60 106.742
916.70 107.2173
916.80 107.6926
916.90 108.168
917.00 108.6433
917.10 109.1186
917.20 109.5939
917.30 110.0693
917.40 110.5446
917.50 111.0199
917.60 111.4952
917.70 111.9706
917.80 112.4459
917.90 112.9212
918.00 113.3965
918.10 113.8682
918.20 113.9805
918.30 114.0928
918.40 114.2051
918.50 114.3174
918.60 114.4297
918.70 114.5419
918.80 114.6542
918.90 114.7665
919.00 114.8788
919.10 114.9911
919.20 115.1033
919.30 115.2156
919.40 115.3279
919.50 115.4402
919.60 115.5525
919.70 115.6648
919.80 115.777
919.90 115.8893
920.00 116.0016
920.10 116.1139
920.20 116.2262
920.30 116.3385
920.40 116.4507
920.50 116.563
920.60 116.6753
920.70 116.7876
920.80 116.8999
920.90 117.0121
921.00 117.1244
921.10 117.2367
921.20 117.349
921.30 117.4613
921.40 117.5736
921.50 117.6858
921.60 117.7981
921.70 117.8301
921.80 117.857
921.90 117.8838
922.00 117.9107
922.10 117.9376
922.20 117.9644
922.30 117.9913
922.40 118.0182
922.50 118.045
922.60 118.0719
922.70 118.0988
922.80 118.1256
922.90 118.1525
923.00 118.1793
923.10 118.2062
923.20 118.2331
923.30 118.2599
923.40 118.2868
923.50 118.3137
923.60 118.3405
923.70 118.3674
923.80 118.3943
923.90 118.4211
924.00 118.448
924.10 118.4749
924.20 118.5017
924.30 118.5286
924.40 118.5555
924.50 118.5823
924.60 118.6092
924.70 118.636
924.80 118.6629
924.90 118.6898
925.00 118.7166
925.10 118.7435
925.20 118.5616
925.30 118.2901
925.40 118.0187
925.50 117.7472
925.60 117.4758
925.70 117.2044
925.80 116.9329
925.90 116.6615
926.00 116.39
926.10 116.1186
926.20 115.8472
926.30 115.5757
926.40 115.3043
926.50 115.0328
926.60 114.7614
926.70 114.49
926.80 114.2185
926.90 113.9471
927.00 113.6756
927.10 113.4042
927.20 113.1328
927.30 112.8613
927.40 112.5899
927.50 112.3184
927.60 112.047
927.70 111.7756
927.80 111.5041
927.90 111.2327
928.00 110.9612
928.10 110.6898
928.20 110.4184
928.30 110.1469
928.40 109.8755
928.50 109.604
928.60 109.3326
928.70 109.2637
928.80 109.6906
928.90 110.1175
929.00 110.5444
929.10 110.9713
929.20 111.3981
929.30 111.825
929.40 112.2519
929.50 112.6788
929.60 113.1057
929.70 113.5326
929.80 113.9595
929.90 114.3864
930.00 114.8133
930.10 115.2402
930.20 115.6671
930.30 116.094
930.40 116.5209
930.50 116.9478
930.60 117.3747
930.70 117.8016
930.80 118.2285
930.90 118.6554
931.00 119.0823
931.10 119.5092
931.20 119.9361
931.30 120.363
931.40 120.7899
931.50 121.2168
931.60 121.6436
931.70 122.0705
931.80 122.4974
931.90 122.9243
932.00 123.3512
932.10 123.7781
932.20 124.205
932.30 124.0099
932.40 123.5482
932.50 123.0865
932.60 122.6248
932.70 122.1631
932.80 121.7014
932.90 121.2396
933.00 120.7779
933.10 120.3162
933.20 119.8545
933.30 119.3928
933.40 118.9311
933.50 118.4694
933.60 118.0077
933.70 117.546
933.80 117.0843
933.90 116.6226
934.00 116.1608
934.10 115.6991
934.20 115.2374
934.30 114.7757
934.40 114.314
934.50 113.8523
934.60 113.3906
934.70 112.9289
934.80 112.4672
934.90 112.0055
935.00 111.5438
935.10 111.0821
935.20 110.6203
935.30 110.1586
935.40 109.6969
935.50 109.2352
935.60 108.7735
935.70 108.3118
935.80 107.8501
935.90 108.0538
936.00 108.3001
936.10 108.5463
936.20 108.7925
936.30 109.0387
936.40 109.2849
936.50 109.5312
936.60 109.7774
936.70 110.0236
936.80 110.2698
936.90 110.516
937.00 110.7623
937.10 111.0085
937.20 111.2547
937.30 111.5009
937.40 111.7471
937.50 111.9934
937.60 112.2396
937.70 112.4858
937.80 112.732
937.90 112.9782
938.00 113.2245
938.10 113.4707
938.20 113.7169
938.30 113.9631
938.40 114.2094
938.50 114.4556
938.60 114.7018
938.70 114.948
938.80 115.1942
938.90 115.4405
939.00 115.6867
939.10 115.9329
939.20 116.1791
939.30 116.4253
939.40 116.67
939.50 116.8373
939.60 117.0046
939.70 117.1719
939.80 117.3392
939.90 117.5065
940.00 117.6738
940.10 117.8411
940.20 118.0084
940.30 118.1757
940.40 118.343
940.50 118.5103
940.60 118.6777
940.70 118.845
940.80 119.0123
940.90 119.1796
941.00 119.3469
941.10 119.5142
941.20 119.6815
941.30 119.8488
941.40 120.0161
941.50 120.1834
941.60 120.3507
941.70 120.518
941.80 120.6853
941.90 120.8526
942.00 121.0199
942.10 121.1872
942.20 121.3546
942.30 121.5219
942.40 121.6892
942.50 121.8565
942.60 122.0238
942.70 122.1911
942.80 122.3584
942.90 122.5257
943.00 122.693
943.10 123.2411
943.20 123.8178
943.30 124.3946
943.40 124.9713
943.50 125.5481
943.60 126.1248
943.70 126.7015
943.80 127.2783
943.90 127.855
944.00 128.4318
944.10 129.0085
944.20 129.5853
944.30 130.162
944.40 130.7387
944.50 131.3155
944.60 131.8922
944.70 132.469
944.80 133.0457
944.90 133.6225
945.00 134.1992
945.10 134.7759
945.20 135.3527
945.30 135.9294
945.40 136.5062
945.50 137.0829
945.60 137.6597
945.70 138.2364
945.80 138.8131
945.90 139.3899
946.00 139.9666
946.10 140.5434
946.20 141.1201
946.30 141.6969
946.40 142.2736
946.50 142.8503
946.60 143.4271
946.70 143.7511
946.80 143.9507
946.90 144.1502
947.00 144.3498
947.10 144.5493
947.20 144.7489
947.30 144.9484
947.40 145.148
947.50 145.3475
947.60 145.5471
947.70 145.7466
947.80 145.9462
947.90 146.1457
948.00 146.3453
948.10 146.5448
948.20 146.7444
948.30 146.9439
948.40 147.1435
948.50 147.343
948.60 147.5426
948.70 147.7421
948.80 147.9417
948.90 148.1412
949.00 148.3408
949.10 148.5404
949.20 148.7399
949.30 148.9395
949.40 149.139
949.50 149.3386
949.60 149.5381
949.70 149.7377
949.80 149.9372
949.90 150.1368
950.00 150.3363
950.10 150.5359
950.20 150.7354
950.30 150.8397
950.40 150.658
950.50 150.4762
950.60 150.2945
950.70 150.1128
950.80 149.9311
950.90 149.7494
951.00 149.5677
951.10 149.386
951.20 149.2043
951.30 149.0226
951.40 148.8409
951.50 148.6592
951.60 148.4775
951.70 148.2958
951.80 148.114
951.90 147.9323
952.00 147.7506
952.10 147.5689
952.20 147.3872
952.30 147.2055
952.40 147.0238
952.50 146.8421
952.60 146.6604
952.70 146.4787
952.80 146.297
952.90 146.1153
953.00 145.9336
953.10 145.7519
953.20 145.5701
953.30 145.3884
953.40 145.2067
953.50 145.025
953.60 144.8433
953.70 144.6616
953.80 144.4799
953.90 144.2982
954.00 144.4972
954.10 144.8923
954.20 145.2874
954.30 145.6825
954.40 146.0776
954.50 146.4727
954.60 146.8679
954.70 147.263
954.80 147.6581
954.90 148.0532
955.00 148.4483
955.10 148.8434
955.20 149.2385
955.30 149.6337
955.40 150.0288
955.50 150.4239
955.60 150.819
955.70 151.2141
955.80 151.6092
955.90 152.0043
956.00 152.3994
956.10 152.7946
956.20 153.1897
956.30 153.5848
956.40 153.9799
956.50 154.375
956.60 154.7701
956.70 155.1652
956.80 155.5603
956.90 155.9555
957.00 156.3506
957.10 156.7457
957.20 157.1408
957.30 157.5359
957.40 157.931
957.50 158.3261
957.60 158.7213
957.70 158.4311
957.80 158.0813
957.90 157.7316
958.00 157.3818
958.10 157.0321
958.20 156.6823
958.30 156.3326
958.40 155.9828
958.50 155.6331
958.60 155.2833
958.70 154.9335
958.80 154.5838
958.90 154.234
959.00 153.8843
959.10 153.5345
959.20 153.1848
959.30 152.835
959.40 152.4853
959.50 152.1355
959.60 151.7858
959.70 151.436
959.80 151.0863
959.90 150.7365
960.00 150.3867
960.10 150.037
960.20 149.6872
960.30 149.3375
960.40 148.9877
960.50 148.638
960.60 148.2882
960.70 147.9385
960.80 147.5887
960.90 147.239
961.00 146.8892
961.10 146.5394
961.20 146.1897
961.30 145.8526
961.40 146.1363
961.50 146.42
961.60 146.7037
961.70 146.9873
961.80 147.271
961.90 147.5547
962.00 147.8384
962.10 148.1221
962.20 148.4057
962.30 148.6894
962.40 148.9731
962.50 149.2568
962.60 149.5405
962.70 149.8242
962.80 150.1078
962.90 150.3915
963.00 150.6752
963.10 150.9589
963.20 151.2426
963.30 151.5262
963.40 151.8099
963.50 152.0936
963.60 152.3773
963.70 152.661
963.80 152.9447
963.90 153.2283
964.00 153.512
964.10 153.7957
964.20 154.0794
964.30 154.3631
964.40 154.6467
964.50 154.9304
964.60 155.2141
964.70 155.4978
964.80 155.7815
964.90 156.0651
965.00 156.3488
965.10 156.3643
965.20 156.3687
965.30 156.373
965.40 156.3773
965.50 156.3816
965.60 156.386
965.70 156.3903
965.80 156.3946
965.90 156.3989
966.00 156.4033
966.10 156.4076
966.20 156.4119
966.30 156.4163
966.40 156.4206
966.50 156.4249
966.60 156.4292
966.70 156.4336
966.80 156.4379
966.90 156.4422
967.00 156.4465
967.10 156.4509
967.20 156.4552
967.30 156.4595
967.40 156.4639
967.50 156.4682
967.60 156.4725
967.70 156.4768
967.80 156.4812
967.90 156.4855
968.00 156.4898
968.10 156.4941
968.20 156.4985
968.30 156.5028
968.40 156.5071
968.50 156.5115
968.60 156.5158
968.70 156.5201
968.80 156.4596
968.90 156.3762
969.00 156.2929
969.10 156.2096
969.20 156.1262
969.30 156.0429
969.40 155.9595
969.50 155.8762
969.60 155.7929
969.70 155.7095
969.80 155.6262
969.90 155.5429
970.00 155.4595
970.10 155.3762
970.20 155.2929
970.30 155.2095
970.40 155.1262
970.50 155.0428
970.60 154.9595
970.70 154.8762
970.80 154.7928
970.90 154.7095
971.00 154.6262
971.10 154.5428
971.20 154.4595
971.30 154.3762
971.40 154.2928
971.50 154.2095
971.60 154.1262
971.70 154.0428
971.80 153.9595
971.90 153.8761
972.00 153.7928
972.10 153.7095
972.20 153.6261
972.30 153.5428
972.40 153.4595
972.50 153.5499
972.60 153.9361
972.70 154.3223
972.80 154.7085
972.90 155.0948
973.00 155.481
973.10 155.8672
973.20 156.2535
973.30 156.6397
973.40 157.0259
973.50 157.4121
973.60 157.7984
973.70 158.1846
973.80 158.5708
973.90 158.957
974.00 159.3433
974.10 159.7295
974.20 160.1157
974.30 160.502
974.40 160.8882
974.50 161.2744
974.60 161.6606
974.70 162.0469
974.80 162.4331
974.90 162.8193
975.00 163.2055
975.10 163.5918
975.20 163.978
975.30 164.3642
975.40 164.7505
975.50 165.1367
975.60 165.5229
975.70 165.9091
975.80 166.2954
975.90 166.6816
976.00 167.0678
976.10 167.454
976.20 167.8403
976.30 167.7124
976.40 167.4938
976.50 167.2752
976.60 167.0566
976.70 166.838
976.80 166.6194
976.90 166.4009
977.00 166.1823
977.10 165.9637
977.20 165.7451
977.30 165.5265
977.40 165.3079
977.50 165.0893
977.60 164.8707
977.70 164.6521
977.80 164.4335
977.90 164.2149
978.00 163.9963
978.10 163.7778
978.20 163.5592
978.30 163.3406
978.40 163.122
978.50 162.9034
978.60 162.6848
978.70 162.4662
978.80 162.2476
978.90 162.029
979.00 161.8104
979.10 161.5918
979.20 161.3732
979.30 161.1547
979.40 160.9361
979.50 160.7175
979.60 160.4989
979.70 160.2803
979.80 160.0617
979.90 159.8431
980.00 159.7264
980.10 160.0738
980.20 160.4212
980.30 160.7686
980.40 161.116
980.50 161.4634
980.60 161.8108
980.70 162.1582
980.80 162.5056
980.90 162.853
981.00 163.2004
981.10 163.5478
981.20 163.8952
981.30 164.2426
981.40 164.59
981.50 164.9374
981.60 165.2848
981.70 165.6322
981.80 165.9796
981.90 166.327
982.00 166.6744
982.10 167.0218
982.20 167.3692
982.30 167.7166
982.40 168.064
982.50 168.4114
982.60 168.7588
982.70 169.1063
982.80 169.4537
982.90 169.8011
983.00 170.1485
983.10 170.4959
983.20 170.8433
983.30 171.1907
983.40 171.5381
983.50 171.8855
983.60 172.2329
983.70 172.5803
983.80 172.6779
983.90 172.3314
984.00 171.9849
984.10 171.6384
984.20 171.2919
984.30 170.9454
984.40 170.5989
984.50 170.2524
984.60 169.906
984.70 169.5595
984.80 169.213
984.90 168.8665
985.00 168.52
985.10 168.1735
985.20 167.827
985.30 167.4805
985.40 167.134
985.50 166.7875
985.60 166.4411
985.70 166.0946
985.80 165.7481
985.90 165.4016
986.00 165.0551
986.10 164.7086
986.20 164.3621
986.30 164.0156
986.40 163.6691
986.50 163.3226
986.60 162.9762
986.70 162.6297
986.80 162.2832
986.90 161.9367
987.00 161.5902
987.10 161.2437
987.20 160.8972
987.30 160.5507
987.40 160.2042
987.50 159.8577
987.60 159.6556
987.70 159.6701
987.80 159.6845
987.90 159.699
988.00 159.7134
988.10 159.7279
988.20 159.7423
988.30 159.7568
988.40 159.7712
988.50 159.7857
988.60 159.8001
988.70 159.8146
988.80 159.829
988.90 159.8435
989.00 159.858
989.10 159.8724
989.20 159.8869
989.30 159.9013
989.40 159.9158
989.50 159.9302
989.60 159.9447
989.70 159.9591
989.80 159.9736
989.90 159.988
990.00 160.0025
990.10 160.0169
990.20 160.0314
990.30 160.0458
990.40 160.0603
990.50 160.0747
990.60 160.0892
990.70 160.1036
990.80 160.1181
990.90 160.1325
991.00 160.147
991.10 160.1614
991.20 160.1759
991.30 160.1903
991.40 160.1676
991.50 160.054
991.60 159.9404
991.70 159.8268
991.80 159.7132
991.90 159.5995
992.00 159.4859
992.10 159.3723
992.20 159.2587
992.30 159.1451
992.40 159.0315
992.50 158.9178
992.60 158.8042
992.70 158.6906
992.80 158.577
992.90 158.4634
993.00 158.3497
993.10 158.2361
993.20 158.1225
993.30 158.0089
993.40 157.8953
993.50 157.7817
993.60 157.668
993.70 157.5544
993.80 157.4408
993.90 157.3272
994.00 157.2136
994.10 157.1
994.20 156.9863
994.30 156.8727
994.40 156.7591
994.50 156.6455
994.60 156.5319
994.70 156.4182
994.80 156.3046
994.90 156.191
995.00 156.0774
995.10 155.9638
995.20 155.8338
995.30 155.1756
995.40 154.5174
995.50 153.8592
995.60 153.201
995.70 152.5428
995.80 151.8846
995.90 151.2264
996.00 150.5683
996.10 149.9101
996.20 149.2519
996.30 148.5937
996.40 147.9355
996.50 147.2773
996.60 146.6191
996.70 145.9609
996.80 145.3027
996.90 144.6445
997.00 143.9863
997.10 143.3281
997.20 142.6699
997.30 142.0117
997.40 141.3535
997.50 140.6953
997.60 140.0371
997.70 139.3789
997.80 138.7207
997.90 138.0625
998.00 137.4043
998.10 136.7461
998.20 136.088
998.30 135.4298
998.40 134.7716
998.50 134.1134
998.60 133.4552
998.70 132.797
998.80 132.1388
998.90 131.4806
999.00 130.8224
999.10 130.5203
999.20 130.4186
999.30 130.3168
999.40 130.2151
999.50 130.1133
999.60 130.0116
999.70 129.9098
999.80 129.8081
999.90 129.7064
1000.00 129.6046
1000.10 129.5029
1000.20 129.4011
1000.30 129.2994
1000.40 129.1976
1000.50 129.0959
1000.60 128.9941
1000.70 128.8924
1000.80 128.7906
1000.90 128.6889
1001.00 128.5872
1001.10 128.4854
1001.20 128.3837
1001.30 128.2819
1001.40 128.1802
1001.50 128.0784
1001.60 127.9767
1001.70 127.8749
1001.80 127.7732
1001.90 127.6714
1002.00 127.5697
1002.10 127.4679
1002.20 127.3662
1002.30 127.2645
1002.40 127.1627
1002.50 127.061
1002.60 126.9592
1002.70 126.8575
1002.80 126.7557
1002.90 126.6854
1003.00 126.898
1003.10 127.1107
1003.20 127.3233
1003.30 127.5359
1003.40 127.7486
1003.50 127.9612
1003.60 128.1738
1003.70 128.3865
1003.80 128.5991
1003.90 128.8117
1004.00 129.0243
1004.10 129.237
1004.20 129.4496
1004.30 129.6622
1004.40 129.8749
1004.50 130.0875
1004.60 130.3001
1004.70 130.5127
1004.80 130.7254
1004.90 130.938
1005.00 131.1506
1005.10 131.3633
1005.20 131.5759
1005.30 131.7885
1005.40 132.0011
1005.50 132.2138
1005.60 132.4264
1005.70 132.639
1005.80 132.8517
1005.90 133.0643
1006.00 133.2769
1006.10 133.4895
1006.20 133.7022
1006.30 133.9148
1006.40 134.1274
1006.50 134.3401
1006.60 134.5527
1006.70 134.7653
1006.80 135.0589
1006.90 135.474
1007.00 135.8891
1007.10 136.3042
1007.20 136.7193
1007.30 137.1344
1007.40 137.5495
1007.50 137.9646
1007.60 138.3797
1007.70 138.7948
1007.80 139.2099
1007.90 139.625
1008.00 140.0401
1008.10 140.4552
1008.20 140.8702
1008.30 141.2853
1008.40 141.7004
1008.50 142.1155
1008.60 142.5306
1008.70 142.9457
1008.80 143.3608
1008.90 143.7759
1009.00 144.191
1009.10 144.6061
1009.20 145.0212
1009.30 145.4363
1009.40 145.8514
1009.50 146.2665
1009.60 146.6816
1009.70 147.0966
1009.80 147.5117
1009.90 147.9268
1010.00 148.3419
1010.10 148.757
1010.20 149.1721
1010.30 149.5872
1010.40 150.0023
1010.50 150.4174
1010.60 150.8325
1010.70 150.9443
1010.80 150.854
1010.90 150.7636
1011.00 150.6733
1011.10 150.583
1011.20 150.4926
1011.30 150.4023
1011.40 150.312
1011.50 150.2216
1011.60 150.1313
1011.70 150.041
1011.80 149.9506
1011.90 149.8603
1012.00 149.7699
1012.10 149.6796
1012.20 149.5893
1012.30 149.4989
1012.40 149.4086
1012.50 149.3183
1012.60 149.2279
1012.70 149.1376
1012.80 149.0472
1012.90 148.9569
1013.00 148.8666
1013.10 148.7762
1013.20 148.6859
1013.30 148.5956
1013.40 148.5052
1013.50 148.4149
1013.60 148.3246
1013.70 148.2342
1013.80 148.1439
1013.90 148.0535
1014.00 147.9632
1014.10 147.8729
1014.20 147.7825
1014.30 147.6922
1014.40 147.6019
1014.50 147.5115
1014.60 147.7746
1014.70 148.1892
1014.80 148.6038
1014.90 149.0184
1015.00 149.433
1015.10 149.8476
1015.20 150.2621
1015.30 150.6767
1015.40 151.0913
1015.50 151.5059
1015.60 151.9205
1015.70 152.3351
1015.80 152.7497
1015.90 153.1642
1016.00 153.5788
1016.10 153.9934
1016.20 154.408
1016.30 154.8226
1016.40 155.2372
1016.50 155.6518
1016.60 156.0664
1016.70 156.4809
1016.80 156.8955
1016.90 157.3101
1017.00 157.7247
1017.10 158.1393
1017.20 158.5539
1017.30 158.9685
1017.40 159.383
1017.50 159.7976
1017.60 160.2122
1017.70 160.6268
1017.80 161.0414
1017.90 161.456
1018.00 161.8706
1018.10 162.2851
1018.20 162.6997
1018.30 163.1143
1018.40 163.5289
1018.50 163.7232
1018.60 163.7707
1018.70 163.8182
1018.80 163.8657
1018.90 163.9132
1019.00 163.9606
1019.10 164.0081
1019.20 164.0556
1019.30 164.1031
1019.40 164.1506
1019.50 164.1981
1019.60 164.2456
1019.70 164.293
1019.80 164.3405
1019.90 164.388
1020.00 164.4355
1020.10 164.483
1020.20 164.5305
1020.30 164.5779
1020.40 164.6254
1020.50 164.6729
1020.60 164.7204
1020.70 164.7679
1020.80 164.8154
1020.90 164.8629
1021.00 164.9103
1021.10 164.9578
1021.20 165.0053
1021.30 165.0528
1021.40 165.1003
1021.50 165.1478
1021.60 165.1953
1021.70 165.2427
1021.80 165.2902
1021.90 165.3377
1022.00 165.3852
1022.10 165.4327
1022.20 165.4802
1022.30 165.5276
1022.40 165.4846
1022.50 165.351
1022.60 165.2174
1022.70 165.0839
1022.80 164.9503
1022.90 164.8167
1023.00 164.6831
1023.10 164.5496
1023.20 164.416
1023.30 164.2824
1023.40 164.1488
1023.50 164.0153
1023.60 163.8817
1023.70 163.7481
1023.80 163.6145
1023.90 163.4809
1024.00 163.3474
1024.10 163.2138
1024.20 163.0802
1024.30 162.9466
1024.40 162.8131
1024.50 162.6795
1024.60 162.5459
1024.70 162.4123
1024.80 162.2788
1024.90 162.1452
1025.00 162.0116
1025.10 161.878
1025.20 161.7445
1025.30 161.6109
1025.40 161.4773
1025.50 161.3437
1025.60 161.2101
1025.70 161.0766
1025.80 160.943
1025.90 160.8094
1026.00 160.6758
1026.10 160.5423
1026.20 160.4087
1026.30 160.3025
1026.40 160.4432
1026.50 160.584
1026.60 160.7247
1026.70 160.8654
1026.80 161.0061
1026.90 161.1468
1027.00 161.2875
1027.10 161.4282
1027.20 161.5689
1027.30 161.7097
1027.40 161.8504
1027.50 161.9911
1027.60 162.1318
1027.70 162.2725
1027.80 162.4132
1027.90 162.5539
1028.00 162.6946
1028.10 162.8354
1028.20 162.9761
1028.30 163.1168
1028.40 163.2575
1028.50 163.3982
1028.60 163.5389
1028.70 163.6796
1028.80 163.8203
1028.90 163.9611
1029.00 164.1018
1029.10 164.2425
1029.20 164.3832
1029.30 164.5239
1029.40 164.6646
1029.50 164.8053
1029.60 164.946
1029.70 165.0868
1029.80 165.2275
1029.90 165.3682
1030.00 165.5089
1030.10 165.6496
1030.20 165.7903
1030.30 165.882
1030.40 165.9527
1030.50 166.0234
1030.60 166.0941
1030.70 166.1648
1030.80 166.2355
1030.90 166.3062
1031.00 166.3769
1031.10 166.4476
1031.20 166.5183
1031.30 166.589
1031.40 166.6597
1031.50 166.7304
1031.60 166.801
1031.70 166.8717
1031.80 166.9424
1031.90 167.0131
1032.00 167.0838
1032.10 167.1545
1032.20 167.2252
1032.30 167.2959
1032.40 167.3666
1032.50 167.4373
1032.60 167.508
1032.70 167.5787
1032.80 167.6494
1032.90 167.7201
1033.00 167.7908
1033.10 167.8615
1033.20 167.9322
1033.30 168.0029
1033.40 168.0736
1033.50 168.1443
1033.60 168.2149
1033.70 168.2856
1033.80 168.3563
1033.90 168.427
1034.00 168.4977
1034.10 168.5684
1034.20 168.6769
1034.30 169.1256
1034.40 169.5743
1034.50 170.0231
1034.60 170.4718
1034.70 170.9205
1034.80 171.3692
1034.90 171.8179
1035.00 172.2666
1035.10 172.7153
1035.20 173.164
1035.30 173.6127
1035.40 174.0615
1035.50 174.5102
1035.60 174.9589
1035.70 175.4076
1035.80 175.8563
1035.90 176.305
1036.00 176.7537
1036.10 177.2024
1036.20 177.6511
1036.30 178.0999
1036.40 178.5486
1036.50 178.9973
1036.60 179.446
1036.70 179.8947
1036.80 180.3434
1036.90 180.7921
1037.00 181.2408
1037.10 181.6895
1037.20 182.1383
1037.30 182.587
1037.40 183.0357
1037.50 183.4844
1037.60 183.9331
1037.70 184.3818
1037.80 184.8305
1037.90 185.2792
1038.00 185.7279
1038.10 186.1767
1038.20 186.4091
1038.30 186.3171
1038.40 186.225
1038.50 186.133
1038.60 186.041
1038.70 185.949
1038.80 185.857
1038.90 185.765
1039.00 185.673
1039.10 185.5809
1039.20 185.4889
1039.30 185.3969
1039.40 185.3049
1039.50 185.2129
1039.60 185.1209
1039.70 185.0288
1039.80 184.9368
1039.90 184.8448
1040.00 184.7528
1040.10 184.6608
1040.20 184.5688
1040.30 184.4768
1040.40 184.3847
1040.50 184.2927
1040.60 184.2007
1040.70 184.1087
1040.80 184.0167
1040.90 183.9247
1041.00 183.8327
1041.10 183.7406
1041.20 183.6486
1041.30 183.5566
1041.40 183.4646
1041.50 183.3726
1041.60 183.2806
1041.70 183.1885
1041.80 183.0965
1041.90 183.0045
1042.00 182.9125
1042.10 182.8205
1042.20 183.0212
1042.30 183.4171
1042.40 183.813
1042.50 184.209
1042.60 184.6049
1042.70 185.0008
1042.80 185.3967
1042.90 185.7926
1043.00 186.1885
1043.10 186.5844
1043.20 186.9803
1043.30 187.3762
1043.40 187.7721
1043.50 188.1681
1043.60 188.564
1043.70 188.9599
1043.80 189.3558
1043.90 189.7517
1044.00 190.1476
1044.10 190.5435
1044.20 190.9394
1044.30 191.3353
1044.40 191.7313
1044.50 192.1272
1044.60 192.5231
1044.70 192.919
1044.80 193.3149
1044.90 193.7108
1045.00 194.1067
1045.10 194.5026
1045.20 194.8985
1045.30 195.2944
1045.40 195.6904
1045.50 196.0863
1045.60 196.4822
1045.70 196.8781
1045.80 197.274
1045.90 197.6699
1046.00 198.0658
1046.10 198.4617
1046.20 198.5227
1046.30 198.4401
1046.40 198.3576
1046.50 198.275
1046.60 198.1924
1046.70 198.1099
1046.80 198.0273
1046.90 197.9447
1047.00 197.8622
1047.10 197.7796
1047.20 197.697
1047.30 197.6145
1047.40 197.5319
1047.50 197.4493
1047.60 197.3668
1047.70 197.2842
1047.80 197.2017
1047.90 197.1191
1048.00 197.0365
1048.10 196.954
1048.20 196.8714
1048.30 196.7888
1048.40 196.7063
1048.50 196.6237
1048.60 196.5411
1048.70 196.4586
1048.80 196.376
1048.90 196.2934
1049.00 196.2109
1049.10 196.1283
1049.20 196.0457
1049.30 195.9632
1049.40 195.8806
1049.50 195.798
1049.60 195.7155
1049.70 195.6329
1049.80 195.5503
1049.90 195.4678
1050.00 195.3852
1050.10 195.3026
1050.20 195.3148
1050.30 195.3677
1050.40 195.4205
1050.50 195.4733
1050.60 195.5261
1050.70 195.579
1050.80 195.6318
1050.90 195.6846
1051.00 195.7374
1051.10 195.7902
1051.20 195.8431
1051.30 195.8959
1051.40 195.9487
1051.50 196.0015
1051.60 196.0544
1051.70 196.1072
1051.80 196.16
1051.90 196.2128
1052.00 196.2656
1052.10 196.3185
1052.20 196.3713
1052.30 196.4241
1052.40 196.4769
1052.50 196.5298
1052.60 196.5826
1052.70 196.6354
1052.80 196.6882
1052.90 196.741
1053.00 196.7939
1053.10 196.8467
1053.20 196.8995
1053.30 196.9523
1053.40 197.0051
1053.50 197.058
1053.60 197.1108
1053.70 197.1636
1053.80 197.2164
1053.90 197.2693
1054.00 197.3221
1054.10 197.3749
1054.20 197.4654
1054.30 197.5936
1054.40 197.7218
1054.50 197.85
1054.60 197.9782
1054.70 198.1064
1054.80 198.2346
1054.90 198.3628
1055.00 198.491
1055.10 198.6191
1055.20 198.7473
1055.30 198.8755
1055.40 199.0037
1055.50 199.1319
1055.60 199.2601
1055.70 199.3883
1055.80 199.5165
1055.90 199.6447
1056.00 199.7729
1056.10 199.9011
1056.20 200.0293
1056.30 200.1575
1056.40 200.2856
1056.50 200.4138
1056.60 200.542
1056.70 200.6702
1056.80 200.7984
1056.90 200.9266
1057.00 201.0548
1057.10 201.183
1057.20 201.3112
1057.30 201.4394
1057.40 201.5676
1057.50 201.6958
1057.60 201.824
1057.70 201.9521
1057.80 202.0803
1057.90 202.2085
1058.00 202.3367
1058.10 202.4649
1058.20 202.5905
1058.30 202.7098
1058.40 202.8292
1058.50 202.9486
1058.60 203.068
1058.70 203.1873
1058.80 203.3067
1058.90 203.4261
1059.00 203.5455
1059.10 203.6649
1059.20 203.7842
1059.30 203.9036
1059.40 204.023
1059.50 204.1424
1059.60 204.2617
1059.70 204.3811
1059.80 204.5005
1059.90 204.6199
1060.00 204.7392
1060.10 204.8586
1060.20 204.978
1060.30 205.0974
1060.40 205.2168
1060.50 205.3361
1060.60 205.4555
1060.70 205.5749
1060.80 205.6943
1060.90 205.8136
1061.00 205.933
1061.10 206.0524
1061.20 206.1718
1061.30 206.2911
1061.40 206.4105
1061.50 206.5299
1061.60 206.6493
1061.70 206.7687
1061.80 206.888
1061.90 207.0074
1062.00 207.1268
1062.10 207.2462
1062.20 207.3655
1062.30 207.5156
1062.40 207.6691
1062.50 207.8226
1062.60 207.9761
1062.70 208.1296
1062.80 208.2831
1062.90 208.4366
1063.00 208.5901
1063.10 208.7436
1063.20 208.8971
1063.30 209.0506
1063.40 209.2041
1063.50 209.3576
1063.60 209.5111
1063.70 209.6646
1063.80 209.8181
1063.90 209.9716
1064.00 210.1251
1064.10 210.2786
1064.20 210.4321
1064.30 210.5856
1064.40 210.7391
1064.50 210.8926
1064.60 211.0461
1064.70 211.1996
1064.80 211.3531
1064.90 211.5066
1065.00 211.6601
1065.10 211.8135
1065.20 211.967
1065.30 212.1205
1065.40 212.274
1065.50 212.4275
1065.60 212.581
1065.70 212.7345
1065.80 212.888
1065.90 213.0415
1066.00 213.195
1066.10 213.3485
1066.20 213.502
1066.30 213.6649
1066.40 213.8417
1066.50 214.0186
1066.60 214.1955
1066.70 214.3723
1066.80 214.5492
1066.90 214.726
1067.00 214.9029
1067.10 215.0798
1067.20 215.2566
1067.30 215.4335
1067.40 215.6104
1067.50 215.7872
1067.60 215.9641
1067.70 216.141
1067.80 216.3178
1067.90 216.4947
1068.00 216.6716
1068.10 216.8484
1068.20 217.0253
1068.30 217.2021
1068.40 217.379
1068.50 217.5559
1068.60 217.7327
1068.70 217.9096
1068.80 218.0865
1068.90 218.2633
1069.00 218.4402
1069.10 218.6171
1069.20 218.7939
1069.30 218.9708
1069.40 219.1476
1069.50 219.3245
1069.60 219.5014
1069.70 219.6782
1069.80 219.8551
1069.90 220.032
1070.00 220.2088
1070.10 220.3857
1070.20 220.5626
1070.30 220.7394
1070.40 220.8949
1070.50 221.048
1070.60 221.2011
1070.70 221.3543
1070.80 221.5074
1070.90 221.6605
1071.00 221.8136
1071.10 221.9667
1071.20 222.1198
1071.30 222.2729
1071.40 222.426
1071.50 222.5792
1071.60 222.7323
1071.70 222.8854
1071.80 223.0385
1071.90 223.1916
1072.00 223.3447
1072.10 223.4978
1072.20 223.6509
1072.30 223.8041
1072.40 223.9572
1072.50 224.1103
1072.60 224.2634
1072.70 224.4165
1072.80 224.5696
1072.90 224.7227
1073.00 224.8758
1073.10 225.029
1073.20 225.1821
1073.30 225.3352
1073.40 225.4883
1073.50 225.6414
1073.60 225.7945
1073.70 225.9476
1073.80 226.1007
1073.90 226.2539
1074.00 226.407
1074.10 226.5601
1074.20 226.7132
1074.30 226.8663
1074.40 227.0221
1074.50 227.1889
1074.60 227.3556
1074.70 227.5223
1074.80 227.689
1074.90 227.8558
1075.00 228.0225
1075.10 228.1892
1075.20 228.3559
1075.30 228.5227
1075.40 228.6894
1075.50 228.8561
1075.60 229.0228
1075.70 229.1896
1075.80 229.3563
1075.90 229.523
1076.00 229.6897
1076.10 229.8565
1076.20 230.0232
1076.30 230.1899
1076.40 230.3566
1076.50 230.5234
1076.60 230.6901
1076.70 230.8568
1076.80 231.0235
1076.90 231.1903
1077.00 231.357
1077.10 231.5237
1077.20 231.6904
1077.30 231.8572
1077.40 232.0239
1077.50 232.1906
1077.60 232.3573
1077.70 232.5241
1077.80 232.6908
1077.90 232.8575
1078.00 233.0242
1078.10 233.191
1078.20 233.3577
1078.30 233.5244
1078.40 233.6911
1078.50 233.7862
1078.60 233.7737
1078.70 233.7611
1078.80 233.7486
1078.90 233.7361
1079.00 233.7236
1079.10 233.7111
1079.20 233.6986
1079.30 233.6861
1079.40 233.6735
1079.50 233.661
1079.60 233.6485
1079.70 233.636
1079.80 233.6235
1079.90 233.611
1080.00 233.5984
1080.10 233.5859
1080.20 233.5734
1080.30 233.5609
1080.40 233.5484
1080.50 233.5359
1080.60 233.5234
1080.70 233.5108
1080.80 233.4983
1080.90 233.4858
1081.00 233.4733
1081.10 233.4608
1081.20 233.4483
1081.30 233.4357
1081.40 233.4232
1081.50 233.4107
1081.60 233.3982
1081.70 233.3857
1081.80 233.3732
1081.90 233.3607
1082.00 233.3481
1082.10 233.3356
1082.20 233.3231
1082.30 233.3106
1082.40 233.2981
1082.50 233.2856
1082.60 233.4737
1082.70 233.8625
1082.80 234.2513
1082.90 234.6402
1083.00 235.029
1083.10 235.4178
1083.20 235.8066
1083.30 236.1954
1083.40 236.5842
1083.50 236.9731
1083.60 237.3619
1083.70 237.7507
1083.80 238.1395
1083.90 238.5283
1084.00 238.9171
1084.10 239.306
1084.20 239.6948
1084.30 240.0836
1084.40 240.4724
1084.50 240.8612
1084.60 241.25
1084.70 241.6388
1084.80 242.0277
1084.90 242.4165
1085.00 242.8053
1085.10 243.1941
1085.20 243.5829
1085.30 243.9717
1085.40 244.3606
1085.50 244.7494
1085.60 245.1382
1085.70 245.527
1085.80 245.9158
1085.90 246.3046
1086.00 246.6934
1086.10 247.0823
1086.20 247.4711
1086.30 247.8599
1086.40 248.2487
1086.50 248.6375
1086.60 249.0263
1086.70 249.2833
1086.80 249.4525
1086.90 249.6216
1087.00 249.7908
1087.10 249.9599
1087.20 250.129
1087.30 250.2982
1087.40 250.4673
1087.50 250.6364
1087.60 250.8056
1087.70 250.9747
1087.80 251.1439
1087.90 251.313
1088.00 251.4821
1088.10 251.6513
1088.20 251.8204
1088.30 251.9895
1088.40 252.1587
1088.50 252.3278
1088.60 252.4969
1088.70 252.6661
1088.80 252.8352
1088.90 253.0044
1089.00 253.1735
1089.10 253.3426
1089.20 253.5118
1089.30 253.6809
1089.40 253.85
1089.50 254.0192
1089.60 254.1883
1089.70 254.3575
1089.80 254.5266
1089.90 254.6957
1090.00 254.8649
1090.10 255.034
1090.20 255.2031
1090.30 255.3723
1090.40 255.5414
1090.50 255.7105
1090.60 255.8797
1090.70 256.0488
1090.80 256.1036
1090.90 256.044
1091.00 255.9844
1091.10 255.9248
1091.20 255.8652
1091.30 255.8057
1091.40 255.7461
1091.50 255.6865
1091.60 255.6269
1091.70 255.5673
1091.80 255.5077
1091.90 255.4481
1092.00 255.3885
1092.10 255.329
1092.20 255.2694
1092.30 255.2098
1092.40 255.1502
1092.50 255.0906
1092.60 255.031
1092.70 254.9714
1092.80 254.9118
1092.90 254.8523
1093.00 254.7927
1093.10 254.7331
1093.20 254.6735
1093.30 254.6139
1093.40 254.5543
1093.50 254.4947
1093.60 254.4351
1093.70 254.3756
1093.80 254.316
1093.90 254.2564
1094.00 254.1968
1094.10 254.1372
1094.20 254.0776
1094.30 254.018
1094.40 253.9584
1094.50 253.8989
1094.60 253.8393
1094.70 253.7797
1094.80 253.7201
1094.90 253.8061
1095.00 254.1106
1095.10 254.4151
1095.20 254.7195
1095.30 255.024
1095.40 255.3284
1095.50 255.6329
1095.60 255.9374
1095.70 256.2418
1095.80 256.5463
1095.90 256.8508
1096.00 257.1552
1096.10 257.4597
1096.20 257.7642
1096.30 258.0686
1096.40 258.3731
1096.50 258.6776
1096.60 258.982
1096.70 259.2865
1096.80 259.5909
1096.90 259.8954
1097.00 260.1999
1097.10 260.5043
1097.20 260.8088
1097.30 261.1133
1097.40 261.4177
1097.50 261.7222
1097.60 262.0267
1097.70 262.3311
1097.80 262.6356
1097.90 262.94
1098.00 263.2445
1098.10 263.549
1098.20 263.8534
1098.30 264.1579
1098.40 264.4624
1098.50 264.7668
1098.60 265.0713
1098.70 265.3758
1098.80 265.6802
1098.90 265.9847
1099.00 266.2393
1099.10 266.0447
1099.20 265.8502
1099.30 265.6557
1099.40 265.4612
1099.50 265.2667
1099.60 265.0722
1099.70 264.8777
1099.80 264.6832
1099.90 264.4886
1100.00 264.2941
1100.10 264.0996
1100.20 263.9051
1100.30 263.7106
1100.40 263.5161
1100.50 263.3216
1100.60 263.127
1100.70 262.9325
1100.80 262.738
1100.90 262.5435
1101.00 262.349
1101.10 262.1545
1101.20 261.96
1101.30 261.7655
1101.40 261.5709
1101.50 261.3764
1101.60 261.1819
1101.70 260.9874
1101.80 260.7929
1101.90 260.5984
1102.00 260.4039
1102.10 260.2094
1102.20 260.0148
1102.30 259.8203
1102.40 259.6258
1102.50 259.4313
1102.60 259.2368
1102.70 259.0423
1102.80 258.8478
1102.90 258.6533
1103.00 258.4587
1103.10 258.2642
1103.20 258.0642
1103.30 257.8628
1103.40 257.6614
1103.50 257.4599
1103.60 257.2585
1103.70 257.0571
1103.80 256.8557
1103.90 256.6543
1104.00 256.4529
1104.10 256.2514
1104.20 256.05
1104.30 255.8486
1104.40 255.6472
1104.50 255.4458
1104.60 255.2443
1104.70 255.0429
1104.80 254.8415
1104.90 254.6401
1105.00 254.4387
1105.10 254.2373
1105.20 254.0358
1105.30 253.8344
1105.40 253.633
1105.50 253.4316
1105.60 253.2302
1105.70 253.0288
1105.80 252.8273
1105.90 252.6259
1106.00 252.4245
1106.10 252.2231
1106.20 252.0217
1106.30 251.8203
1106.40 251.6188
1106.50 251.4174
1106.60 251.216
1106.70 251.0146
1106.80 250.8132
1106.90 250.6117
1107.00 250.4103
1107.10 250.2089
1107.20 250.0075
1107.30 249.8392
1107.40 249.7205
1107.50 249.6018
1107.60 249.4831
1107.70 249.3645
1107.80 249.2458
1107.90 249.1271
1108.00 249.0084
1108.10 248.8898
1108.20 248.7711
1108.30 248.6524
1108.40 248.5337
1108.50 248.4151
1108.60 248.2964
1108.70 248.1777
1108.80 248.059
1108.90 247.9404
1109.00 247.8217
1109.10 247.703
1109.20 247.5843
1109.30 247.4657
1109.40 247.347
1109.50 247.2283
1109.60 247.1096
1109.70 246.9909
1109.80 246.8723
1109.90 246.7536
1110.00 246.6349
1110.10 246.5162
1110.20 246.3976
1110.30 246.2789
1110.40 246.1602
1110.50 246.0415
1110.60 245.9229
1110.70 245.8042
1110.80 245.6855
1110.90 245.5668
1111.00 245.4482
1111.10 245.3295
1111.20 245.2108
1111.30 245.0921
1111.40 244.9735
1111.50 244.7335
1111.60 244.48
1111.70 244.2265
1111.80 243.973
1111.90 243.7195
1112.00 243.4661
1112.10 243.2126
1112.20 242.9591
1112.30 242.7056
1112.40 242.4521
1112.50 242.1987
1112.60 241.9452
1112.70 241.6917
1112.80 241.4382
1112.90 241.1847
1113.00 240.9313
1113.10 240.6778
1113.20 240.4243
1113.30 240.1708
1113.40 239.9173
1113.50 239.6639
1113.60 239.4104
1113.70 239.1569
1113.80 238.9034
1113.90 238.6499
1114.00 238.3965
1114.10 238.143
1114.20 237.8895
1114.30 237.636
1114.40 237.3825
1114.50 237.1291
1114.60 236.8756
1114.70 236.6221
1114.80 236.3686
1114.90 236.1151
1115.00 235.8617
1115.10 235.6082
1115.20 235.3547
1115.30 235.1012
1115.40 234.8477
1115.50 234.5943
1115.60 234.5227
1115.70 234.8755
1115.80 235.2283
1115.90 235.581
1116.00 235.9338
1116.10 236.2866
1116.20 236.6394
1116.30 236.9922
1116.40 237.345
1116.50 237.6978
1116.60 238.0506
1116.70 238.4034
1116.80 238.7562
1116.90 239.109
1117.00 239.4618
1117.10 239.8146
1117.20 240.1674
1117.30 240.5202
1117.40 240.8729
1117.50 241.2257
1117.60 241.5785
1117.70 241.9313
1117.80 242.2841
1117.90 242.6369
1118.00 242.9897
1118.10 243.3425
1118.20 243.6953
1118.30 244.0481
1118.40 244.4009
1118.50 244.7537
1118.60 245.1065
1118.70 245.4593
1118.80 245.812
1118.90 246.1648
1119.00 246.5176
1119.10 246.8704
1119.20 247.2232
1119.30 247.576
1119.40 247.9288
1119.50 248.2816
1119.60 248.6344
1119.70 248.9872
1119.80 249.1465
1119.90 249.1768
1120.00 249.2072
1120.10 249.2375
1120.20 249.2678
1120.30 249.2982
1120.40 249.3285
1120.50 249.3588
1120.60 249.3892
1120.70 249.4195
1120.80 249.4498
1120.90 249.4802
1121.00 249.5105
1121.10 249.5409
1121.20 249.5712
1121.30 249.6015
1121.40 249.6319
1121.50 249.6622
1121.60 249.6925
1121.70 249.7229
1121.80 249.7532
1121.90 249.7835
1122.00 249.8139
1122.10 249.8442
1122.20 249.8745
1122.30 249.9049
1122.40 249.9352
1122.50 249.9655
1122.60 249.9959
1122.70 250.0262
1122.80 250.0565
1122.90 250.0869
1123.00 250.1172
1123.10 250.1475
1123.20 250.1779
1123.30 250.2082
1123.40 250.2386
1123.50 250.2689
1123.60 250.2992
1123.70 250.3296
1123.80 250.3599
1123.90 250.3902
1124.00 250.2691
1124.10 250.1311
1124.20 249.9931
1124.30 249.8552
1124.40 249.7172
1124.50 249.5792
1124.60 249.4412
1124.70 249.3032
1124.80 249.1653
1124.90 249.0273
1125.00 248.8893
1125.10 248.7513
1125.20 248.6134
1125.30 248.4754
1125.40 248.3374
1125.50 248.1994
1125.60 248.0615
1125.70 247.9235
1125.80 247.7855
1125.90 247.6475
1126.00 247.5095
1126.10 247.3716
1126.20 247.2336
1126.30 247.0956
1126.40 246.9576
1126.50 246.8197
1126.60 246.6817
1126.70 246.5437
1126.80 246.4057
1126.90 246.2678
1127.00 246.1298
1127.10 245.9918
1127.20 245.8538
1127.30 245.7158
1127.40 245.5779
1127.50 245.4399
1127.60 245.3019
1127.70 245.1639
1127.80 245.026
1127.90 244.888
1128.00 244.75
1128.10 244.6152
1128.20 244.5091
1128.30 244.403
1128.40 244.297
1128.50 244.1909
1128.60 244.0848
1128.70 243.9787
1128.80 243.8726
1128.90 243.7665
1129.00 243.6604
1129.10 243.5543
1129.20 243.4483
1129.30 243.3422
1129.40 243.2361
1129.50 243.13
1129.60 243.0239
1129.70 242.9178
1129.80 242.8117
1129.90 242.7056
1130.00 242.5996
1130.10 242.4935
1130.20 242.3874
1130.30 242.2813
1130.40 242.1752
1130.50 242.0691
1130.60 241.963
1130.70 241.8569
1130.80 241.7509
1130.90 241.6448
1131.00 241.5387
1131.10 241.4326
1131.20 241.3265
1131.30 241.2204
1131.40 241.1143
1131.50 241.0082
1131.60 240.9022
1131.70 240.7961
1131.80 240.69
1131.90 240.5839
1132.00 240.4778
1132.10 240.3717
1132.20 240.2656
1132.30 240.2749
1132.40 240.7456
1132.50 241.2163
1132.60 241.687
1132.70 242.1577
1132.80 242.6284
1132.90 243.0991
1133.00 243.5697
1133.10 244.0404
1133.20 244.5111
1133.30 244.9818
1133.40 245.4525
1133.50 245.9232
1133.60 246.3939
1133.70 246.8646
1133.80 247.3353
1133.90 247.806
1134.00 248.2767
1134.10 248.7473
1134.20 249.218
1134.30 249.6887
1134.40 250.1594
1134.50 250.6301
1134.60 251.1008
1134.70 251.5715
1134.80 252.0422
1134.90 252.5129
1135.00 252.9836
1135.10 253.4543
1135.20 253.9249
1135.30 254.3956
1135.40 254.8663
1135.50 255.337
1135.60 255.8077
1135.70 256.2784
1135.80 256.7491
1135.90 257.2198
1136.00 257.6905
1136.10 258.1612
1136.20 258.6319
1136.30 259.1026
1136.40 259.5732
1136.50 259.787
1136.60 259.4014
1136.70 259.0157
1136.80 258.63
1136.90 258.2444
1137.00 257.8587
1137.10 257.4731
1137.20 257.0874
1137.30 256.7018
1137.40 256.3161
1137.50 255.9304
1137.60 255.5448
1137.70 255.1591
1137.80 254.7735
1137.90 254.3878
1138.00 254.0021
1138.10 253.6165
1138.20 253.2308
1138.30 252.8452
1138.40 252.4595
1138.50 252.0738
1138.60 251.6882
1138.70 251.3025
1138.80 250.9169
1138.90 250.5312
1139.00 250.1455
1139.10 249.7599
1139.20 249.3742
1139.30 248.9886
1139.40 248.6029
1139.50 248.2172
1139.60 247.8316
1139.70 247.4459
1139.80 247.0603
1139.90 246.6746
1140.00 246.2889
1140.10 245.9033
1140.20 245.5176
1140.30 245.132
1140.40 244.7463
1140.50 244.3606
1140.60 243.975
1140.70 243.6557
1140.80 243.4915
1140.90 243.3272
1141.00 243.1629
1141.10 242.9986
1141.20 242.8343
1141.30 242.6701
1141.40 242.5058
1141.50 242.3415
1141.60 242.1772
1141.70 242.0129
1141.80 241.8487
1141.90 241.6844
1142.00 241.5201
1142.10 241.3558
1142.20 241.1915
1142.30 241.0273
1142.40 240.863
1142.50 240.6987
1142.60 240.5344
1142.70 240.3702
1142.80 240.2059
1142.90 240.0416
1143.00 239.8773
1143.10 239.713
1143.20 239.5488
1143.30 239.3845
1143.40 239.2202
1143.50 239.0559
1143.60 238.8916
1143.70 238.7274
1143.80 238.5631
1143.90 238.3988
1144.00 238.2345
1144.10 238.0702
1144.20 237.906
1144.30 237.7417
1144.40 237.5774
1144.50 237.4131
1144.60 237.2488
1144.70 237.0846
1144.80 236.9203
1144.90 236.8655
1145.00 237.2487
1145.10 237.632
1145.20 238.0152
1145.30 238.3984
1145.40 238.7817
1145.50 239.1649
1145.60 239.5481
1145.70 239.9314
1145.80 240.3146
1145.90 240.6979
1146.00 241.0811
1146.10 241.4643
1146.20 241.8476
1146.30 242.2308
1146.40 242.614
1146.50 242.9973
1146.60 243.3805
1146.70 243.7637
1146.80 244.147
1146.90 244.5302
1147.00 244.9134
1147.10 245.2967
1147.20 245.6799
1147.30 246.0631
1147.40 246.4464
1147.50 246.8296
1147.60 247.2128
1147.70 247.5961
1147.80 247.9793
1147.90 248.3625
1148.00 248.7458
1148.10 249.129
1148.20 249.5122
1148.30 249.8955
1148.40 250.2787
1148.50 250.6619
1148.60 251.0452
1148.70 251.4284
1148.80 251.8116
1148.90 252.1949
1149.00 252.5781
1149.10 252.9614
1149.20 253.3257
1149.30 253.69
1149.40 254.0543
1149.50 254.4186
1149.60 254.7829
1149.70 255.1473
1149.80 255.5116
1149.90 255.8759
1150.00 256.2402
1150.10 256.6045
1150.20 256.9689
1150.30 257.3332
1150.40 257.6975
1150.50 258.0618
1150.60 258.4261
1150.70 258.7904
1150.80 259.1548
1150.90 259.5191
1151.00 259.8834
1151.10 260.2477
1151.20 260.612
1151.30 260.9764
1151.40 261.3407
1151.50 261.705
1151.60 262.0693
1151.70 262.4336
1151.80 262.7979
1151.90 263.1623
1152.00 263.5266
1152.10 263.8909
1152.20 264.2552
1152.30 264.6195
1152.40 264.9839
1152.50 265.3482
1152.60 265.7125
1152.70 266.0768
1152.80 266.4411
1152.90 266.8054
1153.00 267.1698
1153.10 267.5341
1153.20 267.8984
1153.30 268.2627
1153.40 268.3514
1153.50 268.3712
1153.60 268.391
1153.70 268.4108
1153.80 268.4306
1153.90 268.4504
1154.00 268.4702
1154.10 268.49
1154.20 268.5098
1154.30 268.5296
1154.40 268.5494
1154.50 268.5692
1154.60 268.589
1154.70 268.6088
1154.80 268.6286
1154.90 268.6484
1155.00 268.6682
1155.10 268.6879
1155.20 268.7077
1155.30 268.7275
1155.40 268.7473
1155.50 268.7671
1155.60 268.7869
1155.70 268.8067
1155.80 268.8265
1155.90 268.8463
1156.00 268.8661
1156.10 268.8859
1156.20 268.9057
1156.30 268.9255
1156.40 268.9453
1156.50 268.9651
1156.60 268.9849
1156.70 269.0047
1156.80 269.0245
1156.90 269.0443
1157.00 269.0641
1157.10 269.0839
1157.20 269.1037
1157.30 269.1234
1157.40 269.1432
1157.50 269.163
1157.60 269.2799
1157.70 269.4615
1157.80 269.6431
1157.90 269.8247
1158.00 270.0063
1158.10 270.1879
1158.20 270.3695
1158.30 270.5511
1158.40 270.7327
1158.50 270.9143
1158.60 271.0959
1158.70 271.2775
1158.80 271.4591
1158.90 271.6407
1159.00 271.8223
1159.10 272.0039
1159.20 272.1855
1159.30 272.3671
1159.40 272.5487
1159.50 272.7303
1159.60 272.9119
1159.70 273.0935
1159.80 273.2751
1159.90 273.4567
1160.00 273.6383
1160.10 273.8198
1160.20 274.0014
1160.30 274.183
1160.40 274.3646
1160.50 274.5462
1160.60 274.7278
1160.70 274.9094
1160.80 275.091
1160.90 275.2726
1161.00 275.4542
1161.10 275.6358
1161.20 275.8174
1161.30 275.999
1161.40 276.1806
1161.50 276.3622
1161.60 276.5438
1161.70 276.7254
1161.80 276.8847
1161.90 276.9551
1162.00 277.0254
1162.10 277.0957
1162.20 277.166
1162.30 277.2363
1162.40 277.3066
1162.50 277.3769
1162.60 277.4472
1162.70 277.5176
1162.80 277.5879
1162.90 277.6582
1163.00 277.7285
1163.10 277.7988
1163.20 277.8691
1163.30 277.9394
1163.40 278.0097
1163.50 278.0801
1163.60 278.1504
1163.70 278.2207
1163.80 278.291
1163.90 278.3613
1164.00 278.4316
1164.10 278.5019
1164.20 278.5722
1164.30 278.6426
1164.40 278.7129
1164.50 278.7832
1164.60 278.8535
1164.70 278.9238
1164.80 278.9941
1164.90 279.0644
1165.00 279.1347
1165.10 279.2051
1165.20 279.2754
1165.30 279.3457
1165.40 279.416
1165.50 279.4863
1165.60 279.5566
1165.70 279.6269
1165.80 279.6972
1165.90 279.7676
1166.00 279.8379
1166.10 279.4813
1166.20 279.0773
1166.30 278.6732
1166.40 278.2692
1166.50 277.8652
1166.60 277.4612
1166.70 277.0571
1166.80 276.6531
1166.90 276.2491
1167.00 275.8451
1167.10 275.441
1167.20 275.037
1167.30 274.633
1167.40 274.229
1167.50 273.8249
1167.60 273.4209
1167.70 273.0169
1167.80 272.6129
1167.90 272.2088
1168.00 271.8048
1168.10 271.4008
1168.20 270.9968
1168.30 270.5928
1168.40 270.1887
1168.50 269.7847
1168.60 269.3807
1168.70 268.9767
1168.80 268.5726
1168.90 268.1686
1169.00 267.7646
1169.10 267.3606
1169.20 266.9565
1169.30 266.5525
1169.40 266.1485
1169.50 265.7445
1169.60 265.3404
1169.70 264.9364
1169.80 264.5324
1169.90 264.1284
1170.00 263.7243
1170.10 263.3203
1170.20 262.9163
1170.30 262.5596
1170.40 262.2738
1170.50 261.9881
1170.60 261.7023
1170.70 261.4165
1170.80 261.1308
1170.90 260.845
1171.00 260.5593
1171.10 260.2735
1171.20 259.9877
1171.30 259.702
1171.40 259.4162
1171.50 259.1305
1171.60 258.8447
1171.70 258.5589
1171.80 258.2732
1171.90 257.9874
1172.00 257.7017
1172.10 257.4159
1172.20 257.1301
1172.30 256.8444
1172.40 256.5586
1172.50 256.2729
1172.60 255.9871
1172.70 255.7014
1172.80 255.4156
1172.90 255.1298
1173.00 254.8441
1173.10 254.5583
1173.20 254.2726
1173.30 253.9868
1173.40 253.701
1173.50 253.4153
1173.60 253.1295
1173.70 252.8438
1173.80 252.558
1173.90 252.2722
1174.00 251.9865
1174.10 251.7007
1174.20 251.415
1174.30 251.1292
1174.40 250.8434
1174.50 250.5577
1174.60 250.4654
1174.70 250.3946
1174.80 250.3239
1174.90 250.2531
1175.00 250.1823
1175.10 250.1115
1175.20 250.0408
1175.30 249.97
1175.40 249.8992
1175.50 249.8285
1175.60 249.7577
1175.70 249.6869
1175.80 249.6161
1175.90 249.5454
1176.00 249.4746
1176.10 249.4038
1176.20 249.333
1176.30 249.2623
1176.40 249.1915
1176.50 249.1207
1176.60 249.05
1176.70 248.9792
1176.80 248.9084
1176.90 248.8376
1177.00 248.7669
1177.10 248.6961
1177.20 248.6253
1177.30 248.5546
1177.40 248.4838
1177.50 248.413
1177.60 248.3422
1177.70 248.2715
1177.80 248.2007
1177.90 248.1299
1178.00 248.0591
1178.10 247.9884
1178.20 247.9176
1178.30 247.8468
1178.40 247.7761
1178.50 247.7053
1178.60 247.6345
1178.70 247.5637
1178.80 247.604
1178.90 247.8108
1179.00 248.0176
1179.10 248.2244
1179.20 248.4313
1179.30 248.6381
1179.40 248.8449
1179.50 249.0517
1179.60 249.2585
1179.70 249.4653
1179.80 249.6721
1179.90 249.879
1180.00 250.0858
1180.10 250.2926
1180.20 250.4994
1180.30 250.7062
1180.40 250.913
1180.50 251.1198
1180.60 251.3267
1180.70 251.5335
1180.80 251.7403
1180.90 251.9471
1181.00 252.1539
1181.10 252.3607
1181.20 252.5675
1181.30 252.7744
1181.40 252.9812
1181.50 253.188
1181.60 253.3948
1181.70 253.6016
1181.80 253.8084
1181.90 254.0152
1182.00 254.2221
1182.10 254.4289
1182.20 254.6357
1182.30 254.8425
1182.40 255.0493
1182.50 255.2561
1182.60 255.4629
1182.70 255.6698
1182.80 255.8766
1182.90 256.0834
1183.00 256.2902
1183.10 256.2312
1183.20 256.1057
1183.30 255.9803
1183.40 255.8548
1183.50 255.7294
1183.60 255.6039
1183.70 255.4784
1183.80 255.353
1183.90 255.2275
1184.00 255.1021
1184.10 254.9766
1184.20 254.8512
1184.30 254.7257
1184.40 254.6002
1184.50 254.4748
1184.60 254.3493
1184.70 254.2239
1184.80 254.0984
1184.90 253.973
1185.00 253.8475
1185.10 253.722
1185.20 253.5966
1185.30 253.4711
1185.40 253.3457
1185.50 253.2202
1185.60 253.0947
1185.70 252.9693
1185.80 252.8438
1185.90 252.7184
1186.00 252.5929
1186.10 252.4675
1186.20 252.342
1186.30 252.2165
1186.40 252.0911
1186.50 251.9656
1186.60 251.8402
1186.70 251.7147
1186.80 251.5893
1186.90 251.4638
1187.00 251.3383
1187.10 251.2129
1187.20 251.0874
1187.30 251.0684
1187.40 251.475
1187.50 251.8817
1187.60 252.2883
1187.70 252.695
1187.80 253.1016
1187.90 253.5082
1188.00 253.9149
1188.10 254.3215
1188.20 254.7282
1188.30 255.1348
1188.40 255.5414
1188.50 255.9481
1188.60 256.3547
1188.70 256.7614
1188.80 257.168
1188.90 257.5746
1189.00 257.9813
1189.10 258.3879
1189.20 258.7946
1189.30 259.2012
1189.40 259.6079
1189.50 260.0145
1189.60 260.4211
1189.70 260.8278
1189.80 261.2344
1189.90 261.6411
1190.00 262.0477
1190.10 262.4543
1190.20 262.861
1190.30 263.2676
1190.40 263.6743
1190.50 264.0809
1190.60 264.4875
1190.70 264.8942
1190.80 265.3008
1190.90 265.7075
1191.00 266.1141
1191.10 266.5208
1191.20 266.9274
1191.30 267.334
1191.40 267.7407
1191.50 268.1473
1191.60 268.3597
1191.70 268.3777
1191.80 268.3957
1191.90 268.4137
1192.00 268.4318
1192.10 268.4498
1192.20 268.4678
1192.30 268.4859
1192.40 268.5039
1192.50 268.5219
1192.60 268.54
1192.70 268.558
1192.80 268.576
1192.90 268.5941
1193.00 268.6121
1193.10 268.6301
1193.20 268.6481
1193.30 268.6662
1193.40 268.6842
1193.50 268.7022
1193.60 268.7203
1193.70 268.7383
1193.80 268.7563
1193.90 268.7744
1194.00 268.7924
1194.10 268.8104
1194.20 268.8284
1194.30 268.8465
1194.40 268.8645
1194.50 268.8825
1194.60 268.9006
1194.70 268.9186
1194.80 268.9366
1194.90 268.9547
1195.00 268.9727
1195.10 268.9907
1195.20 269.0088
1195.30 269.0268
1195.40 269.0448
1195.50 269.0628
1195.60 269.0809
1195.70 269.0989
1195.80 269.1169
1195.90 269.1186
1196.00 269.1162
1196.10 269.1139
1196.20 269.1115
1196.30 269.1091
1196.40 269.1067
1196.50 269.1043
1196.60 269.1019
1196.70 269.0995
1196.80 269.0971
1196.90 269.0947
1197.00 269.0924
1197.10 269.09
1197.20 269.0876
1197.30 269.0852
1197.40 269.0828
1197.50 269.0804
1197.60 269.078
1197.70 269.0756
1197.80 269.0732
1197.90 269.0709
1198.00 269.0685
1198.10 269.0661
1198.20 269.0637
1198.30 269.0613
1198.40 269.0589
1198.50 269.0565
1198.60 269.0541
1198.70 269.0518
1198.80 269.0494
1198.90 269.047
1199.00 269.0446
1199.10 269.0422
1199.20 269.0398
1199.30 269.0374
1199.40 269.035
1199.50 269.0326
1199.60 269.0303
1199.70 269.0279
1199.80 269.0255
1199.90 269.0231
1200.00 269.0207
1200.10 269.0183
1200.20 268.7453
1200.30 268.4723
1200.40 268.1992
1200.50 267.9262
1200.60 267.6532
1200.70 267.3802
1200.80 267.1071
1200.90 266.8341
1201.00 266.5611
1201.10 266.2881
1201.20 266.015
1201.30 265.742
1201.40 265.469
1201.50 265.196
1201.60 264.923
1201.70 264.6499
1201.80 264.3769
1201.90 264.1039
1202.00 263.8309
1202.10 263.5578
1202.20 263.2848
1202.30 263.0118
1202.40 262.7388
1202.50 262.4657
1202.60 262.1927
1202.70 261.9197
1202.80 261.6467
1202.90 261.3736
1203.00 261.1006
1203.10 260.8276
1203.20 260.5546
1203.30 260.2815
1203.40 260.0085
1203.50 259.7355
1203.60 259.4625
1203.70 259.1894
1203.80 258.9164
1203.90 258.6434
1204.00 258.3704
1204.10 258.0974
1204.20 257.8243
1204.30 257.5513
1204.40 257.3706
1204.50 257.5592
1204.60 257.7479
1204.70 257.9365
1204.80 258.1252
1204.90 258.3138
1205.00 258.5024
1205.10 258.6911
1205.20 258.8797
1205.30 259.0683
1205.40 259.257
1205.50 259.4456
1205.60 259.6342
1205.70 259.8229
1205.80 260.0115
1205.90 260.2002
1206.00 260.3888
1206.10 260.5774
1206.20 260.7661
1206.30 260.9547
1206.40 261.1433
1206.50 261.332
1206.60 261.5206
1206.70 261.7093
1206.80 261.8979
1206.90 262.0865
1207.00 262.2752
1207.10 262.4638
1207.20 262.6524
1207.30 262.8411
1207.40 263.0297
1207.50 263.2183
1207.60 263.407
1207.70 263.5956
1207.80 263.7843
1207.90 263.9729
1208.00 264.1615
1208.10 264.3502
1208.20 264.5388
1208.30 264.7274
1208.40 264.9161
1208.50 265.1047
1208.60 265.2933
1208.70 265.5985
1208.80 266.0786
1208.90 266.5586
1209.00 267.0386
1209.10 267.5186
1209.20 267.9987
1209.30 268.4787
1209.40 268.9587
1209.50 269.4387
1209.60 269.9188
1209.70 270.3988
1209.80 270.8788
1209.90 271.3588
1210.00 271.8389
1210.10 272.3189
1210.20 272.7989
1210.30 273.2789
1210.40 273.7589
1210.50 274.239
1210.60 274.719
1210.70 275.199
1210.80 275.679
1210.90 276.1591
1211.00 276.6391
1211.10 277.1191
1211.20 277.5991
1211.30 278.0792
1211.40 278.5592
1211.50 279.0392
1211.60 279.5192
1211.70 279.9993
1211.80 280.4793
1211.90 280.9593
1212.00 281.4393
1212.10 281.9194
1212.20 282.3994
1212.30 282.8794
1212.40 283.3594
1212.50 283.8395
1212.60 284.3195
1212.70 284.7995
1212.80 285.2795
1212.90 285.7596
1213.00 286.0336
1213.10 286.1016
1213.20 286.1696
1213.30 286.2377
1213.40 286.3057
1213.50 286.3737
1213.60 286.4418
1213.70 286.5098
1213.80 286.5778
1213.90 286.6459
1214.00 286.7139
1214.10 286.7819
1214.20 286.85
1214.30 286.918
1214.40 286.986
1214.50 287.0541
1214.60 287.1221
1214.70 287.1901
1214.80 287.2582
1214.90 287.3262
1215.00 287.3942
1215.10 287.4622
1215.20 287.5303
1215.30 287.5983
1215.40 287.6663
1215.50 287.7344
1215.60 287.8024
1215.70 287.8704
1215.80 287.9385
1215.90 288.0065
1216.00 288.0745
1216.10 288.1426
1216.20 288.2106
1216.30 288.2786
1216.40 288.3467
1216.50 288.4147
1216.60 288.4827
1216.70 288.5508
1216.80 288.6188
1216.90 288.6868
1217.00 288.7548
1217.10 288.8229
1217.20 288.8909
1217.30 288.9752
1217.40 289.0702
1217.50 289.1653
1217.60 289.2603
1217.70 289.3554
1217.80 289.4505
1217.90 289.5455
1218.00 289.6406
1218.10 289.7357
1218.20 289.8307
1218.30 289.9258
1218.40 290.0208
1218.50 290.1159
1218.60 290.211
1218.70 290.306
1218.80 290.4011
1218.90 290.4961
1219.00 290.5912
1219.10 290.6863
1219.20 290.7813
1219.30 290.8764
1219.40 290.9715
1219.50 291.0665
1219.60 291.1616
1219.70 291.2566
1219.80 291.3517
1219.90 291.4468
1220.00 291.5418
1220.10 291.6369
1220.20 291.7319
1220.30 291.827
1220.40 291.9221
1220.50 292.0171
1220.60 292.1122
1220.70 292.2072
1220.80 292.3023
1220.90 292.3974
1221.00 292.4924
1221.10 292.5875
1221.20 292.6826
1221.30 292.7776
1221.40 292.8727
1221.50 292.9677
1221.60 293.178
1221.70 293.4376
1221.80 293.6972
1221.90 293.9569
1222.00 294.2165
1222.10 294.4761
1222.20 294.7357
1222.30 294.9953
1222.40 295.255
1222.50 295.5146
1222.60 295.7742
1222.70 296.0338
1222.80 296.2935
1222.90 296.5531
1223.00 296.8127
1223.10 297.0723
1223.20 297.3319
1223.30 297.5916
1223.40 297.8512
1223.50 298.1108
1223.60 298.3704
1223.70 298.6301
1223.80 298.8897
1223.90 299.1493
1224.00 299.4089
1224.10 299.6685
1224.20 299.9282
1224.30 300.1878
1224.40 300.4474
1224.50 300.707
1224.60 300.9667
1224.70 301.2263
1224.80 301.4859
1224.90 301.7455
1225.00 302.0051
1225.10 302.2648
1225.20 302.5244
1225.30 302.784
1225.40 303.0436
1225.50 303.3033
1225.60 303.5629
1225.70 303.8225
1225.80 304.0821
1225.90 304.1158
1226.00 304.0527
1226.10 303.9896
1226.20 303.9265
1226.30 303.8634
1226.40 303.8003
1226.50 303.7372
1226.60 303.6741
1226.70 303.611
1226.80 303.5478
1226.90 303.4847
1227.00 303.4216
1227.10 303.3585
1227.20 303.2954
1227.30 303.2323
1227.40 303.1692
1227.50 303.1061
1227.60 303.043
1227.70 302.9798
1227.80 302.9167
1227.90 302.8536
1228.00 302.7905
1228.10 302.7274
1228.20 302.6643
1228.30 302.6012
1228.40 302.5381
1228.50 302.475
1228.60 302.4119
1228.70 302.3487
1228.80 302.2856
1228.90 302.2225
1229.00 302.1594
1229.10 302.0963
1229.20 302.0332
1229.30 301.9701
1229.40 301.907
1229.50 301.8439
1229.60 301.7808
1229.70 301.7176
1229.80 301.6545
1229.90 301.5914
1230.00 301.5283
1230.10 301.4652
1230.20 301.664
1230.30 301.9283
1230.40 302.1925
1230.50 302.4568
1230.60 302.7211
1230.70 302.9853
1230.80 303.2496
1230.90 303.5139
1231.00 303.7781
1231.10 304.0424
1231.20 304.3067
1231.30 304.5709
1231.40 304.8352
1231.50 305.0995
1231.60 305.3637
1231.70 305.628
1231.80 305.8923
1231.90 306.1565
1232.00 306.4208
1232.10 306.6851
1232.20 306.9493
1232.30 307.2136
1232.40 307.4779
1232.50 307.7421
1232.60 308.0064
1232.70 308.2707
1232.80 308.5349
1232.90 308.7992
1233.00 309.0635
1233.10 309.3277
1233.20 309.592
1233.30 309.8563
1233.40 310.1206
1233.50 310.3848
1233.60 310.6491
1233.70 310.9134
1233.80 311.1776
1233.90 311.4419
1234.00 311.7062
1234.10 311.9704
1234.20 312.2347
1234.30 312.499
1234.40 312.7632
1234.50 312.8777
1234.60 312.9279
1234.70 312.9782
1234.80 313.0284
1234.90 313.0787
1235.00 313.1289
1235.10 313.1792
1235.20 313.2294
1235.30 313.2796
1235.40 313.3299
1235.50 313.3801
1235.60 313.4304
1235.70 313.4806
1235.80 313.5309
1235.90 313.5811
1236.00 313.6314
1236.10 313.6816
1236.20 313.7319
1236.30 313.7821
1236.40 313.8323
1236.50 313.8826
1236.60 313.9328
1236.70 313.9831
1236.80 314.0333
1236.90 314.0836
1237.00 314.1338
1237.10 314.1841
1237.20 314.2343
1237.30 314.2846
1237.40 314.3348
1237.50 314.385
1237.60 314.4353
1237.70 314.4855
1237.80 314.5358
1237.90 314.586
1238.00 314.6363
1238.10 314.6865
1238.20 314.7368
1238.30 314.787
1238.40 314.8373
1238.50 314.8875
1238.60 314.9377
1238.70 314.988
1238.80 314.8126
1238.90 314.5404
1239.00 314.2683
1239.10 313.9961
1239.20 313.724
1239.30 313.4518
1239.40 313.1797
1239.50 312.9075
1239.60 312.6354
1239.70 312.3633
1239.80 312.0911
1239.90 311.819
1240.00 311.5468
1240.10 311.2747
1240.20 311.0025
1240.30 310.7304
1240.40 310.4582
1240.50 310.1861
1240.60 309.914
1240.70 309.6418
1240.80 309.3697
1240.90 309.0975
1241.00 308.8254
1241.10 308.5532
1241.20 308.2811
1241.30 308.0089
1241.40 307.7368
1241.50 307.4646
1241.60 307.1925
1241.70 306.9204
1241.80 306.6482
1241.90 306.3761
1242.00 306.1039
1242.10 305.8318
1242.20 305.5596
1242.30 305.2875
1242.40 305.0153
1242.50 304.7432
1242.60 304.4711
1242.70 304.1989
1242.80 303.9268
1242.90 303.6546
1243.00 303.3825
1243.10 303.2914
1243.20 303.2779
1243.30 303.2645
1243.40 303.251
1243.50 303.2376
1243.60 303.2241
1243.70 303.2106
1243.80 303.1972
1243.90 303.1837
1244.00 303.1703
1244.10 303.1568
1244.20 303.1433
1244.30 303.1299
1244.40 303.1164
1244.50 303.103
1244.60 303.0895
1244.70 303.076
1244.80 303.0626
1244.90 303.0491
1245.00 303.0357
1245.10 303.0222
1245.20 303.0087
1245.30 302.9953
1245.40 302.9818
1245.50 302.9684
1245.60 302.9549
1245.70 302.9414
1245.80 302.928
1245.90 302.9145
1246.00 302.9011
1246.10 302.8876
1246.20 302.8741
1246.30 302.8607
1246.40 302.8472
1246.50 302.8338
1246.60 302.8203
1246.70 302.8068
1246.80 302.7934
1246.90 302.7799
1247.00 302.7665
1247.10 302.753
1247.20 302.7395
1247.30 302.7261
1247.40 302.6146
1247.50 302.4377
1247.60 302.2609
1247.70 302.084
1247.80 301.9071
1247.90 301.7303
1248.00 301.5534
1248.10 301.3766
1248.20 301.1997
1248.30 301.0228
1248.40 300.846
1248.50 300.6691
1248.60 300.4922
1248.70 300.3154
1248.80 300.1385
1248.90 299.9617
1249.00 299.7848
1249.10 299.6079
1249.20 299.4311
1249.30 299.2542
1249.40 299.0774
1249.50 298.9005
1249.60 298.7236
1249.70 298.5468
1249.80 298.3699
1249.90 298.1931
1250.00 298.0162
1250.10 297.8393
1250.20 297.6625
1250.30 297.4856
1250.40 297.3088
1250.50 297.1319
1250.60 296.955
1250.70 296.7782
1250.80 296.6013
1250.90 296.4245
1251.00 296.2476
1251.10 296.0707
1251.20 295.8939
1251.30 295.717
1251.40 295.5401
1251.50 295.3633
1251.60 295.1864
1251.70 295.1678
1251.80 295.3075
1251.90 295.4472
1252.00 295.5869
1252.10 295.7266
1252.20 295.8663
1252.30 296.006
1252.40 296.1457
1252.50 296.2853
1252.60 296.425
1252.70 296.5647
1252.80 296.7044
1252.90 296.8441
1253.00 296.9838
1253.10 297.1235
1253.20 297.2632
1253.30 297.4029
1253.40 297.5425
1253.50 297.6822
1253.60 297.8219
1253.70 297.9616
1253.80 298.1013
1253.90 298.241
1254.00 298.3807
1254.10 298.5204
1254.20 298.6601
1254.30 298.7997
1254.40 298.9394
1254.50 299.0791
1254.60 299.2188
1254.70 299.3585
1254.80 299.4982
1254.90 299.6379
1255.00 299.7776
1255.10 299.9172
1255.20 300.0569
1255.30 300.1966
1255.40 300.3363
1255.50 300.476
1255.60 300.6157
1255.70 300.7554
1255.80 300.8951
1255.90 301.0348
1256.00 301.1096
1256.10 301.087
1256.20 301.0645
1256.30 301.042
1256.40 301.0195
1256.50 300.9969
1256.60 300.9744
1256.70 300.9519
1256.80 300.9294
1256.90 300.9069
1257.00 300.8843
1257.10 300.8618
1257.20 300.8393
1257.30 300.8168
1257.40 300.7942
1257.50 300.7717
1257.60 300.7492
1257.70 300.7267
1257.80 300.7042
1257.90 300.6816
1258.00 300.6591
1258.10 300.6366
1258.20 300.6141
1258.30 300.5915
1258.40 300.569
1258.50 300.5465
1258.60 300.524
1258.70 300.5015
1258.80 300.4789
1258.90 300.4564
1259.00 300.4339
1259.10 300.4114
1259.20 300.3888
1259.30 300.3663
1259.40 300.3438
1259.50 300.3213
1259.60 300.2988
1259.70 300.2762
1259.80 300.2537
1259.90 300.2312
1260.00 300.2087
1260.10 300.1861
1260.20 300.1636
1260.30 300.2471
1260.40 300.7545
1260.50 301.2619
1260.60 301.7693
1260.70 302.2767
1260.80 302.7842
1260.90 303.2916
1261.00 303.799
1261.10 304.3064
1261.20 304.8138
1261.30 305.3212
1261.40 305.8286
1261.50 306.3361
1261.60 306.8435
1261.70 307.3509
1261.80 307.8583
1261.90 308.3657
1262.00 308.8731
1262.10 309.3805
1262.20 309.888
1262.30 310.3954
1262.40 310.9028
1262.50 311.4102
1262.60 311.9176
1262.70 312.425
1262.80 312.9324
1262.90 313.4399
1263.00 313.9473
1263.10 314.4547
1263.20 314.9621
1263.30 315.4695
1263.40 315.9769
1263.50 316.4843
1263.60 316.9918
1263.70 317.4992
1263.80 318.0066
1263.90 318.514
1264.00 319.0214
1264.10 319.5288
1264.20 320.0362
1264.30 320.5437
1264.40 321.0511
1264.50 321.5585
1264.60 322.0521
1264.70 322.4218
1264.80 322.7915
1264.90 323.1611
1265.00 323.5308
1265.10 323.9005
1265.20 324.2701
1265.30 324.6398
1265.40 325.0095
1265.50 325.3791
1265.60 325.7488
1265.70 326.1185
1265.80 326.4881
1265.90 326.8578
1266.00 327.2275
1266.10 327.5971
1266.20 327.9668
1266.30 328.3365
1266.40 328.7061
1266.50 329.0758
1266.60 329.4455
1266.70 329.8151
1266.80 330.1848
1266.90 330.5545
1267.00 330.9241
1267.10 331.2938
1267.20 331.6635
1267.30 332.0331
1267.40 332.4028
1267.50 332.7725
1267.60 333.1421
1267.70 333.5118
1267.80 333.8815
1267.90 334.2512
1268.00 334.6208
1268.10 334.9905
1268.20 335.3602
1268.30 335.7298
1268.40 336.0995
1268.50 336.4692
1268.60 336.8388
1268.70 337.2085
1268.80 337.5782
1268.90 337.9478
1269.00 338.2754
1269.10 338.6031
1269.20 338.9307
1269.30 339.2583
1269.40 339.5859
1269.50 339.9135
1269.60 340.2411
1269.70 340.5688
1269.80 340.8964
1269.90 341.224
1270.00 341.5516
1270.10 341.8792
1270.20 342.2068
1270.30 342.5345
1270.40 342.8621
1270.50 343.1897
1270.60 343.5173
1270.70 343.8449
1270.80 344.1725
1270.90 344.5002
1271.00 344.8278
1271.10 345.1554
1271.20 345.483
1271.30 345.8106
1271.40 346.1382
1271.50 346.4659
1271.60 346.7935
1271.70 347.1211
1271.80 347.4487
1271.90 347.7763
1272.00 348.1039
1272.10 348.4316
1272.20 348.7592
1272.30 349.0868
1272.40 349.4144
1272.50 349.742
1272.60 350.0696
1272.70 350.3973
1272.80 350.7249
1272.90 351.0525
1273.00 351.3801
1273.10 351.7077
1273.20 352.0353
1273.30 352.2935
1273.40 352.5344
1273.50 352.7752
1273.60 353.0161
1273.70 353.2569
1273.80 353.4977
1273.90 353.7386
1274.00 353.9794
1274.10 354.2203
1274.20 354.4611
1274.30 354.7019
1274.40 354.9428
1274.50 355.1836
1274.60 355.4245
1274.70 355.6653
1274.80 355.9062
1274.90 356.147
1275.00 356.3878
1275.10 356.6287
1275.20 356.8695
1275.30 357.1104
1275.40 357.3512
1275.50 357.592
1275.60 357.8329
1275.70 358.0737
1275.80 358.3146
1275.90 358.5554
1276.00 358.7963
1276.10 359.0371
1276.20 359.2779
1276.30 359.5188
1276.40 359.7596
1276.50 360.0005
1276.60 360.2413
1276.70 360.4821
1276.80 360.723
1276.90 360.9638
1277.00 361.2047
1277.10 361.4455
1277.20 361.6864
1277.30 361.9272
1277.40 362.168
1277.50 362.4089
1277.60 362.5643
1277.70 362.6629
1277.80 362.7614
1277.90 362.8599
1278.00 362.9585
1278.10 363.057
1278.20 363.1556
1278.30 363.2541
1278.40 363.3526
1278.50 363.4512
1278.60 363.5497
1278.70 363.6482
1278.80 363.7468
1278.90 363.8453
1279.00 363.9438
1279.10 364.0424
1279.20 364.1409
1279.30 364.2394
1279.40 364.338
1279.50 364.4365
1279.60 364.5351
1279.70 364.6336
1279.80 364.7321
1279.90 364.8307
1280.00 364.9292
1280.10 365.0277
1280.20 365.1263
1280.30 365.2248
1280.40 365.3233
1280.50 365.4219
1280.60 365.5204
1280.70 365.6189
1280.80 365.7175
1280.90 365.816
1281.00 365.9146
1281.10 366.0131
1281.20 366.1116
1281.30 366.2102
1281.40 366.3087
1281.50 366.4072
1281.60 366.5058
1281.70 366.6043
1281.80 366.7028
1281.90 366.6656
1282.00 366.4927
1282.10 366.3197
1282.20 366.1468
1282.30 365.9738
1282.40 365.8009
1282.50 365.6279
1282.60 365.455
1282.70 365.282
1282.80 365.1091
1282.90 364.9361
1283.00 364.7632
1283.10 364.5902
1283.20 364.4173
1283.30 364.2443
1283.40 364.0714
1283.50 363.8984
1283.60 363.7255
1283.70 363.5525
1283.80 363.3796
1283.90 363.2066
1284.00 363.0337
1284.10 362.8607
1284.20 362.6878
1284.30 362.5148
1284.40 362.3419
1284.50 362.1689
1284.60 361.996
1284.70 361.823
1284.80 361.6501
1284.90 361.4771
1285.00 361.3042
1285.10 361.1312
1285.20 360.9583
1285.30 360.7853
1285.40 360.6124
1285.50 360.4394
1285.60 360.2665
1285.70 360.0935
1285.80 359.9206
1285.90 359.7476
1286.00 359.5747
1286.10 359.4017
1286.20 359.3292
1286.30 359.4911
1286.40 359.6529
1286.50 359.8148
1286.60 359.9766
1286.70 360.1384
1286.80 360.3003
1286.90 360.4621
1287.00 360.624
1287.10 360.7858
1287.20 360.9477
1287.30 361.1095
1287.40 361.2714
1287.50 361.4332
1287.60 361.5951
1287.70 361.7569
1287.80 361.9188
1287.90 362.0806
1288.00 362.2425
1288.10 362.4043
1288.20 362.5662
1288.30 362.728
1288.40 362.8898
1288.50 363.0517
1288.60 363.2135
1288.70 363.3754
1288.80 363.5372
1288.90 363.6991
1289.00 363.8609
1289.10 364.0228
1289.20 364.1846
1289.30 364.3465
1289.40 364.5083
1289.50 364.6702
1289.60 364.832
1289.70 364.9939
1289.80 365.1557
1289.90 365.3176
1290.00 365.4794
1290.10 365.6412
1290.20 365.8031
1290.30 365.9649
1290.40 366.1268
1290.50 366.2565
1290.60 366.0972
1290.70 365.9378
1290.80 365.7785
1290.90 365.6192
1291.00 365.4598
1291.10 365.3005
1291.20 365.1412
1291.30 364.9818
1291.40 364.8225
1291.50 364.6632
1291.60 364.5038
1291.70 364.3445
1291.80 364.1852
1291.90 364.0258
1292.00 363.8665
1292.10 363.7072
1292.20 363.5478
1292.30 363.3885
1292.40 363.2292
1292.50 363.0698
1292.60 362.9105
1292.70 362.7512
1292.80 362.5918
1292.90 362.4325
1293.00 362.2731
1293.10 362.1138
1293.20 361.9545
1293.30 361.7951
1293.40 361.6358
1293.50 361.4765
1293.60 361.3171
1293.70 361.1578
1293.80 360.9985
1293.90 360.8391
1294.00 360.6798
1294.10 360.5205
1294.20 360.3611
1294.30 360.2018
1294.40 360.0425
1294.50 359.8831
1294.60 359.7238
1294.70 359.5645
1294.80 359.4051
1294.90 359.4671
1295.00 359.5537
1295.10 359.6402
1295.20 359.7268
1295.30 359.8133
1295.40 359.8999
1295.50 359.9864
1295.60 360.073
1295.70 360.1595
1295.80 360.2461
1295.90 360.3327
1296.00 360.4192
1296.10 360.5058
1296.20 360.5923
1296.30 360.6789
1296.40 360.7654
1296.50 360.852
1296.60 360.9385
1296.70 361.0251
1296.80 361.1117
1296.90 361.1982
1297.00 361.2848
1297.10 361.3713
1297.20 361.4579
1297.30 361.5444
1297.40 361.631
1297.50 361.7176
1297.60 361.8041
1297.70 361.8907
1297.80 361.9772
1297.90 362.0638
1298.00 362.1503
1298.10 362.2369
1298.20 362.3234
1298.30 362.41
1298.40 362.4966
1298.50 362.5831
1298.60 362.6697
1298.70 362.7562
1298.80 362.8428
1298.90 362.9293
1299.00 363.0159
1299.10 363.1025
1299.20 362.9435
1299.30 362.6793
1299.40 362.4151
1299.50 362.1509
1299.60 361.8867
1299.70 361.6225
1299.80 361.3583
1299.90 361.0941
