# Version 2.1 - nm, norm@500 to 1, cut digits
# Wavelength(nm)  Flambda(ergs/cm^s/s/nm)
300.00 9.730555e-96
300.10 9.730555e-96
300.20 9.730555e-96
300.30 9.730555e-96
300.40 9.730555e-96
300.50 9.730555e-96
300.60 9.730555e-96
300.70 9.730555e-96
300.80 9.730555e-96
300.90 9.730555e-96
301.00 9.730555e-96
301.10 9.730555e-96
301.20 9.730555e-96
301.30 9.730555e-96
301.40 9.730555e-96
301.50 9.730555e-96
301.60 9.730555e-96
301.70 9.730555e-96
301.80 9.730555e-96
301.90 9.730555e-96
302.00 9.730555e-96
302.10 9.730555e-96
302.20 9.730555e-96
302.30 9.730555e-96
302.40 9.730555e-96
302.50 9.730555e-96
302.60 9.730555e-96
302.70 9.730555e-96
302.80 9.730555e-96
302.90 9.730555e-96
303.00 9.730555e-96
303.10 9.730555e-96
303.20 9.730555e-96
303.30 9.730555e-96
303.40 9.730555e-96
303.50 9.730555e-96
303.60 9.730555e-96
303.70 9.730555e-96
303.80 9.730555e-96
303.90 9.730555e-96
304.00 9.730555e-96
304.10 9.730555e-96
304.20 9.730555e-96
304.30 9.730555e-96
304.40 9.730555e-96
304.50 9.730555e-96
304.60 9.730555e-96
304.70 9.730555e-96
304.80 9.730555e-96
304.90 9.730555e-96
305.00 9.730555e-96
305.10 9.730555e-96
305.20 9.730555e-96
305.30 9.730555e-96
305.40 9.730555e-96
305.50 9.730555e-96
305.60 9.730555e-96
305.70 9.730555e-96
305.80 9.730555e-96
305.90 9.730555e-96
306.00 9.730555e-96
306.10 9.730555e-96
306.20 9.730555e-96
306.30 9.730555e-96
306.40 9.730555e-96
306.50 9.730555e-96
306.60 9.730555e-96
306.70 9.730555e-96
306.80 9.730555e-96
306.90 9.730555e-96
307.00 9.730555e-96
307.10 9.730555e-96
307.20 9.730555e-96
307.30 9.730555e-96
307.40 9.730555e-96
307.50 9.730555e-96
307.60 9.730555e-96
307.70 9.730555e-96
307.80 9.730555e-96
307.90 9.730555e-96
308.00 9.730555e-96
308.10 9.730555e-96
308.20 9.730555e-96
308.30 9.730555e-96
308.40 9.730555e-96
308.50 9.730555e-96
308.60 9.730555e-96
308.70 9.730555e-96
308.80 9.730555e-96
308.90 9.730555e-96
309.00 9.730555e-96
309.10 9.730555e-96
309.20 9.730555e-96
309.30 9.730555e-96
309.40 9.730555e-96
309.50 9.730555e-96
309.60 9.730555e-96
309.70 9.730555e-96
309.80 9.730555e-96
309.90 9.730555e-96
310.00 9.730555e-96
310.10 9.730555e-96
310.20 9.730555e-96
310.30 9.730555e-96
310.40 9.730555e-96
310.50 9.730555e-96
310.60 9.730555e-96
310.70 9.730555e-96
310.80 9.730555e-96
310.90 9.730555e-96
311.00 9.730555e-96
311.10 9.730555e-96
311.20 9.730555e-96
311.30 9.730555e-96
311.40 9.730555e-96
311.50 9.730555e-96
311.60 9.730555e-96
311.70 9.730555e-96
311.80 9.730555e-96
311.90 9.730555e-96
312.00 9.730555e-96
312.10 9.730555e-96
312.20 9.730555e-96
312.30 9.730555e-96
312.40 9.730555e-96
312.50 9.730555e-96
312.60 9.730555e-96
312.70 9.730555e-96
312.80 9.730555e-96
312.90 9.730555e-96
313.00 9.730555e-96
313.10 9.730555e-96
313.20 9.730555e-96
313.30 9.730555e-96
313.40 9.730555e-96
313.50 9.730555e-96
313.60 9.730555e-96
313.70 9.730555e-96
313.80 9.730555e-96
313.90 9.730555e-96
314.00 9.730555e-96
314.10 9.730555e-96
314.20 9.730555e-96
314.30 9.730555e-96
314.40 9.730555e-96
314.50 9.730555e-96
314.60 9.730555e-96
314.70 9.730555e-96
314.80 9.730555e-96
314.90 9.730555e-96
315.00 9.730555e-96
315.10 9.730555e-96
315.20 9.730555e-96
315.30 9.730555e-96
315.40 9.730555e-96
315.50 9.730555e-96
315.60 9.730555e-96
315.70 9.730555e-96
315.80 9.730555e-96
315.90 9.730555e-96
316.00 9.730555e-96
316.10 9.730555e-96
316.20 9.730555e-96
316.30 9.730555e-96
316.40 9.730555e-96
316.50 9.730555e-96
316.60 9.730555e-96
316.70 9.730555e-96
316.80 9.730555e-96
316.90 9.730555e-96
317.00 9.730555e-96
317.10 9.730555e-96
317.20 9.730555e-96
317.30 9.730555e-96
317.40 9.730555e-96
317.50 9.730555e-96
317.60 9.730555e-96
317.70 9.730555e-96
317.80 9.730555e-96
317.90 9.730555e-96
318.00 9.730555e-96
318.10 9.730555e-96
318.20 9.730555e-96
318.30 9.730555e-96
318.40 9.730555e-96
318.50 9.730555e-96
318.60 9.730555e-96
318.70 9.730555e-96
318.80 9.730555e-96
318.90 9.730555e-96
319.00 9.730555e-96
319.10 9.730555e-96
319.20 9.730555e-96
319.30 9.730555e-96
319.40 9.730555e-96
319.50 9.730555e-96
319.60 9.730555e-96
319.70 9.730555e-96
319.80 9.730555e-96
319.90 9.730555e-96
320.00 9.730555e-96
320.10 9.730555e-96
320.20 9.730555e-96
320.30 9.730555e-96
320.40 9.730555e-96
320.50 9.730555e-96
320.60 9.730555e-96
320.70 9.730555e-96
320.80 9.730555e-96
320.90 9.730555e-96
321.00 9.730555e-96
321.10 9.730555e-96
321.20 9.730555e-96
321.30 9.730555e-96
321.40 9.730555e-96
321.50 9.730555e-96
321.60 9.730555e-96
321.70 9.730555e-96
321.80 9.730555e-96
321.90 9.730555e-96
322.00 9.730555e-96
322.10 9.730555e-96
322.20 9.730555e-96
322.30 9.730555e-96
322.40 9.730555e-96
322.50 9.730555e-96
322.60 9.730555e-96
322.70 9.730555e-96
322.80 9.730555e-96
322.90 9.730555e-96
323.00 9.730555e-96
323.10 9.730555e-96
323.20 9.730555e-96
323.30 9.730555e-96
323.40 9.730555e-96
323.50 9.730555e-96
323.60 9.730555e-96
323.70 9.730555e-96
323.80 9.730555e-96
323.90 9.730555e-96
324.00 9.730555e-96
324.10 9.730555e-96
324.20 9.730555e-96
324.30 9.730555e-96
324.40 9.730555e-96
324.50 9.730555e-96
324.60 9.730555e-96
324.70 9.730555e-96
324.80 9.730555e-96
324.90 9.730555e-96
325.00 9.730555e-96
325.10 9.730555e-96
325.20 9.730555e-96
325.30 9.730555e-96
325.40 9.730555e-96
325.50 9.730555e-96
325.60 9.730555e-96
325.70 9.730555e-96
325.80 9.730555e-96
325.90 9.730555e-96
326.00 9.730555e-96
326.10 9.730555e-96
326.20 9.730555e-96
326.30 9.730555e-96
326.40 9.730555e-96
326.50 9.730555e-96
326.60 9.730555e-96
326.70 9.730555e-96
326.80 9.730555e-96
326.90 9.730555e-96
327.00 9.730555e-96
327.10 9.730555e-96
327.20 9.730555e-96
327.30 9.730555e-96
327.40 9.730555e-96
327.50 9.730555e-96
327.60 9.730555e-96
327.70 9.730555e-96
327.80 9.730555e-96
327.90 9.730555e-96
328.00 9.730555e-96
328.10 9.730555e-96
328.20 9.730555e-96
328.30 9.730555e-96
328.40 9.730555e-96
328.50 9.730555e-96
328.60 9.730555e-96
328.70 9.730555e-96
328.80 9.730555e-96
328.90 9.730555e-96
329.00 9.730555e-96
329.10 9.730555e-96
329.20 9.730555e-96
329.30 9.730555e-96
329.40 9.730555e-96
329.50 9.730555e-96
329.60 9.730555e-96
329.70 9.730555e-96
329.80 9.730555e-96
329.90 9.730555e-96
330.00 9.730555e-96
330.10 9.730555e-96
330.20 9.730555e-96
330.30 9.730555e-96
330.40 9.730555e-96
330.50 9.730555e-96
330.60 9.730555e-96
330.70 9.730555e-96
330.80 9.730555e-96
330.90 9.730555e-96
331.00 9.730555e-96
331.10 9.730555e-96
331.20 9.730555e-96
331.30 9.730555e-96
331.40 9.730555e-96
331.50 9.730555e-96
331.60 9.730555e-96
331.70 9.730555e-96
331.80 9.730555e-96
331.90 9.730555e-96
332.00 9.730555e-96
332.10 9.730555e-96
332.20 9.730555e-96
332.30 9.730555e-96
332.40 9.730555e-96
332.50 9.730555e-96
332.60 9.730555e-96
332.70 9.730555e-96
332.80 9.730555e-96
332.90 9.730555e-96
333.00 9.730555e-96
333.10 9.730555e-96
333.20 9.730555e-96
333.30 9.730555e-96
333.40 9.730555e-96
333.50 9.730555e-96
333.60 9.730555e-96
333.70 9.730555e-96
333.80 9.730555e-96
333.90 9.730555e-96
334.00 9.730555e-96
334.10 9.730555e-96
334.20 9.730555e-96
334.30 9.730555e-96
334.40 9.730555e-96
334.50 9.730555e-96
334.60 9.730555e-96
334.70 9.730555e-96
334.80 9.730555e-96
334.90 9.730555e-96
335.00 9.730555e-96
335.10 9.730555e-96
335.20 9.730555e-96
335.30 9.730555e-96
335.40 9.730555e-96
335.50 9.730555e-96
335.60 9.730555e-96
335.70 9.730555e-96
335.80 9.730555e-96
335.90 9.730555e-96
336.00 9.730555e-96
336.10 9.730555e-96
336.20 9.730555e-96
336.30 9.730555e-96
336.40 9.730555e-96
336.50 9.730555e-96
336.60 9.730555e-96
336.70 9.730555e-96
336.80 9.730555e-96
336.90 9.730555e-96
337.00 9.730555e-96
337.10 9.730555e-96
337.20 9.730555e-96
337.30 9.730555e-96
337.40 9.730555e-96
337.50 9.730555e-96
337.60 9.730555e-96
337.70 9.730555e-96
337.80 9.730555e-96
337.90 9.730555e-96
338.00 9.730555e-96
338.10 9.730555e-96
338.20 9.730555e-96
338.30 9.730555e-96
338.40 9.730555e-96
338.50 9.730555e-96
338.60 9.730555e-96
338.70 9.730555e-96
338.80 9.730555e-96
338.90 9.730555e-96
339.00 9.730555e-96
339.10 9.730555e-96
339.20 9.730555e-96
339.30 9.730555e-96
339.40 9.730555e-96
339.50 9.730555e-96
339.60 9.730555e-96
339.70 9.730555e-96
339.80 9.730555e-96
339.90 9.730555e-96
340.00 9.730555e-96
340.10 9.730555e-96
340.20 9.730555e-96
340.30 9.730555e-96
340.40 9.730555e-96
340.50 9.730555e-96
340.60 9.730555e-96
340.70 9.730555e-96
340.80 9.730555e-96
340.90 9.730555e-96
341.00 9.730555e-96
341.10 9.730555e-96
341.20 9.730555e-96
341.30 9.730555e-96
341.40 9.730555e-96
341.50 9.730555e-96
341.60 9.730555e-96
341.70 9.730555e-96
341.80 9.730555e-96
341.90 9.730555e-96
342.00 9.730555e-96
342.10 9.730555e-96
342.20 9.730555e-96
342.30 9.730555e-96
342.40 9.730555e-96
342.50 9.730555e-96
342.60 9.730555e-96
342.70 9.730555e-96
342.80 9.730555e-96
342.90 9.730555e-96
343.00 9.730555e-96
343.10 9.730555e-96
343.20 9.730555e-96
343.30 9.730555e-96
343.40 9.730555e-96
343.50 9.730555e-96
343.60 9.730555e-96
343.70 9.730555e-96
343.80 9.730555e-96
343.90 9.730555e-96
344.00 9.730555e-96
344.10 9.730555e-96
344.20 9.730555e-96
344.30 9.730555e-96
344.40 9.730555e-96
344.50 9.730555e-96
344.60 9.730555e-96
344.70 9.730555e-96
344.80 9.730555e-96
344.90 9.730555e-96
345.00 9.730555e-96
345.10 9.730555e-96
345.20 9.730555e-96
345.30 9.730555e-96
345.40 9.730555e-96
345.50 9.730555e-96
345.60 9.730555e-96
345.70 9.730555e-96
345.80 9.730555e-96
345.90 9.730555e-96
346.00 9.730555e-96
346.10 9.730555e-96
346.20 9.730555e-96
346.30 9.730555e-96
346.40 9.730555e-96
346.50 9.730555e-96
346.60 9.730555e-96
346.70 9.730555e-96
346.80 9.730555e-96
346.90 9.730555e-96
347.00 9.730555e-96
347.10 9.730555e-96
347.20 9.730555e-96
347.30 9.730555e-96
347.40 9.730555e-96
347.50 9.730555e-96
347.60 9.730555e-96
347.70 9.730555e-96
347.80 9.730555e-96
347.90 9.730555e-96
348.00 9.730555e-96
348.10 9.730555e-96
348.20 9.730555e-96
348.30 9.730555e-96
348.40 9.730555e-96
348.50 9.730555e-96
348.60 9.730555e-96
348.70 9.730555e-96
348.80 9.730555e-96
348.90 9.730555e-96
349.00 9.730555e-96
349.10 9.730555e-96
349.20 9.730555e-96
349.30 9.730555e-96
349.40 9.730555e-96
349.50 9.730555e-96
349.60 9.730555e-96
349.70 9.730555e-96
349.80 9.730555e-96
349.90 9.730555e-96
350.00 9.730555e-96
350.10 9.730555e-96
350.20 9.730555e-96
350.30 9.730555e-96
350.40 9.730555e-96
350.50 9.730555e-96
350.60 9.730555e-96
350.70 9.730555e-96
350.80 9.730555e-96
350.90 9.730555e-96
351.00 9.730555e-96
351.10 9.730555e-96
351.20 9.730555e-96
351.30 9.730555e-96
351.40 9.730555e-96
351.50 9.730555e-96
351.60 9.730555e-96
351.70 9.730555e-96
351.80 9.730555e-96
351.90 9.730555e-96
352.00 9.730555e-96
352.10 9.730555e-96
352.20 9.730555e-96
352.30 9.730555e-96
352.40 9.730555e-96
352.50 9.730555e-96
352.60 9.730555e-96
352.70 9.730555e-96
352.80 9.730555e-96
352.90 9.730555e-96
353.00 9.730555e-96
353.10 9.730555e-96
353.20 9.730555e-96
353.30 9.730555e-96
353.40 9.730555e-96
353.50 9.730555e-96
353.60 9.730555e-96
353.70 9.730555e-96
353.80 9.730555e-96
353.90 9.730555e-96
354.00 9.730555e-96
354.10 9.730555e-96
354.20 9.730555e-96
354.30 9.730555e-96
354.40 9.730555e-96
354.50 9.730555e-96
354.60 9.730555e-96
354.70 9.730555e-96
354.80 9.730555e-96
354.90 9.730555e-96
355.00 9.730555e-96
355.10 9.730555e-96
355.20 9.730555e-96
355.30 9.730555e-96
355.40 9.730555e-96
355.50 9.730555e-96
355.60 9.730555e-96
355.70 9.730555e-96
355.80 9.730555e-96
355.90 9.730555e-96
356.00 9.730555e-96
356.10 9.730555e-96
356.20 9.730555e-96
356.30 9.730555e-96
356.40 9.730555e-96
356.50 9.730555e-96
356.60 9.730555e-96
356.70 9.730555e-96
356.80 9.730555e-96
356.90 9.730555e-96
357.00 9.730555e-96
357.10 9.730555e-96
357.20 9.730555e-96
357.30 9.730555e-96
357.40 9.730555e-96
357.50 9.730555e-96
357.60 9.730555e-96
357.70 9.730555e-96
357.80 9.730555e-96
357.90 9.730555e-96
358.00 9.730555e-96
358.10 9.730555e-96
358.20 9.730555e-96
358.30 9.730555e-96
358.40 9.730555e-96
358.50 9.730555e-96
358.60 9.730555e-96
358.70 9.730555e-96
358.80 9.730555e-96
358.90 9.730555e-96
359.00 9.730555e-96
359.10 9.730555e-96
359.20 9.730555e-96
359.30 9.730555e-96
359.40 9.730555e-96
359.50 9.730555e-96
359.60 9.730555e-96
359.70 9.730555e-96
359.80 9.730555e-96
359.90 9.730555e-96
360.00 9.730555e-96
360.10 9.730555e-96
360.20 9.730555e-96
360.30 9.730555e-96
360.40 9.730555e-96
360.50 9.730555e-96
360.60 9.730555e-96
360.70 9.730555e-96
360.80 9.730555e-96
360.90 9.730555e-96
361.00 9.730555e-96
361.10 9.730555e-96
361.20 9.730555e-96
361.30 9.730555e-96
361.40 9.730555e-96
361.50 9.730555e-96
361.60 9.730555e-96
361.70 9.730555e-96
361.80 9.730555e-96
361.90 9.730555e-96
362.00 9.730555e-96
362.10 9.730555e-96
362.20 9.730555e-96
362.30 9.730555e-96
362.40 9.730555e-96
362.50 9.730555e-96
362.60 9.730555e-96
362.70 9.730555e-96
362.80 9.730555e-96
362.90 9.730555e-96
363.00 9.730555e-96
363.10 9.730555e-96
363.20 9.730555e-96
363.30 9.730555e-96
363.40 9.730555e-96
363.50 9.730555e-96
363.60 9.730555e-96
363.70 9.730555e-96
363.80 9.730555e-96
363.90 9.730555e-96
364.00 9.730555e-96
364.10 9.730555e-96
364.20 9.730555e-96
364.30 9.730555e-96
364.40 9.730555e-96
364.50 9.730555e-96
364.60 9.730555e-96
364.70 9.730555e-96
364.80 9.730555e-96
364.90 9.730555e-96
365.00 9.730555e-96
365.10 9.730555e-96
365.20 9.730555e-96
365.30 9.730555e-96
365.40 9.730555e-96
365.50 9.730555e-96
365.60 9.730555e-96
365.70 9.730555e-96
365.80 9.730555e-96
365.90 9.730555e-96
366.00 9.730555e-96
366.10 9.730555e-96
366.20 9.730555e-96
366.30 9.730555e-96
366.40 9.730555e-96
366.50 9.730555e-96
366.60 9.730555e-96
366.70 9.730555e-96
366.80 9.730555e-96
366.90 9.730555e-96
367.00 9.730555e-96
367.10 9.730555e-96
367.20 9.730555e-96
367.30 9.730555e-96
367.40 9.730555e-96
367.50 9.730555e-96
367.60 9.730555e-96
367.70 9.730555e-96
367.80 9.730555e-96
367.90 9.730555e-96
368.00 9.730555e-96
368.10 9.730555e-96
368.20 9.730555e-96
368.30 9.730555e-96
368.40 9.730555e-96
368.50 9.730555e-96
368.60 9.730555e-96
368.70 9.730555e-96
368.80 9.730555e-96
368.90 9.730555e-96
369.00 9.730555e-96
369.10 9.730555e-96
369.20 9.730555e-96
369.30 9.730555e-96
369.40 9.730555e-96
369.50 9.730555e-96
369.60 9.730555e-96
369.70 9.730555e-96
369.80 9.730555e-96
369.90 9.730555e-96
370.00 9.730555e-96
370.10 9.730555e-96
370.20 9.730555e-96
370.30 9.730555e-96
370.40 9.730555e-96
370.50 9.730555e-96
370.60 9.730555e-96
370.70 9.730555e-96
370.80 9.730555e-96
370.90 9.730555e-96
371.00 9.730555e-96
371.10 9.730555e-96
371.20 9.730555e-96
371.30 9.730555e-96
371.40 9.730555e-96
371.50 9.730555e-96
371.60 9.730555e-96
371.70 9.730555e-96
371.80 9.730555e-96
371.90 9.730555e-96
372.00 9.730555e-96
372.10 9.730555e-96
372.20 9.730555e-96
372.30 9.730555e-96
372.40 9.730555e-96
372.50 9.730555e-96
372.60 9.730555e-96
372.70 9.730555e-96
372.80 9.730555e-96
372.90 9.730555e-96
373.00 9.730555e-96
373.10 9.730555e-96
373.20 9.730555e-96
373.30 9.730555e-96
373.40 9.730555e-96
373.50 9.730555e-96
373.60 9.730555e-96
373.70 9.730555e-96
373.80 9.730555e-96
373.90 9.730555e-96
374.00 9.730555e-96
374.10 9.730555e-96
374.20 9.730555e-96
374.30 9.730555e-96
374.40 9.730555e-96
374.50 9.730555e-96
374.60 9.730555e-96
374.70 9.730555e-96
374.80 9.730555e-96
374.90 9.730555e-96
375.00 9.730555e-96
375.10 9.730555e-96
375.20 9.730555e-96
375.30 9.730555e-96
375.40 9.730555e-96
375.50 9.730555e-96
375.60 9.730555e-96
375.70 9.730555e-96
375.80 9.730555e-96
375.90 9.730555e-96
376.00 9.730555e-96
376.10 9.730555e-96
376.20 9.730555e-96
376.30 9.730555e-96
376.40 9.730555e-96
376.50 9.730555e-96
376.60 9.730555e-96
376.70 9.730555e-96
376.80 9.730555e-96
376.90 9.730555e-96
377.00 9.730555e-96
377.10 9.730555e-96
377.20 9.730555e-96
377.30 9.730555e-96
377.40 9.730555e-96
377.50 9.730555e-96
377.60 9.730555e-96
377.70 9.730555e-96
377.80 9.730555e-96
377.90 9.730555e-96
378.00 9.730555e-96
378.10 9.730555e-96
378.20 9.730555e-96
378.30 9.730555e-96
378.40 9.730555e-96
378.50 9.730555e-96
378.60 9.730555e-96
378.70 9.730555e-96
378.80 9.730555e-96
378.90 9.730555e-96
379.00 9.730555e-96
379.10 9.730555e-96
379.20 9.730555e-96
379.30 9.730555e-96
379.40 9.730555e-96
379.50 9.730555e-96
379.60 9.730555e-96
379.70 9.730555e-96
379.80 9.730555e-96
379.90 9.730555e-96
380.00 9.730555e-96
380.10 9.730555e-96
380.20 9.730555e-96
380.30 9.730555e-96
380.40 9.730555e-96
380.50 9.730555e-96
380.60 9.730555e-96
380.70 9.730555e-96
380.80 9.730555e-96
380.90 9.730555e-96
381.00 9.730555e-96
381.10 9.730555e-96
381.20 9.730555e-96
381.30 9.730555e-96
381.40 9.730555e-96
381.50 9.730555e-96
381.60 9.730555e-96
381.70 9.730555e-96
381.80 9.730555e-96
381.90 9.730555e-96
382.00 9.730555e-96
382.10 9.730555e-96
382.20 9.730555e-96
382.30 9.730555e-96
382.40 9.730555e-96
382.50 9.730555e-96
382.60 9.730555e-96
382.70 9.730555e-96
382.80 9.730555e-96
382.90 9.730555e-96
383.00 9.730555e-96
383.10 9.730555e-96
383.20 9.730555e-96
383.30 9.730555e-96
383.40 9.730555e-96
383.50 9.730555e-96
383.60 9.730555e-96
383.70 9.730555e-96
383.80 9.730555e-96
383.90 9.730555e-96
384.00 9.730555e-96
384.10 9.730555e-96
384.20 9.730555e-96
384.30 9.730555e-96
384.40 9.730555e-96
384.50 9.730555e-96
384.60 9.730555e-96
384.70 9.730555e-96
384.80 9.730555e-96
384.90 9.730555e-96
385.00 9.730555e-96
385.10 9.730555e-96
385.20 9.730555e-96
385.30 9.730555e-96
385.40 9.730555e-96
385.50 9.730555e-96
385.60 9.730555e-96
385.70 9.730555e-96
385.80 9.730555e-96
385.90 9.730555e-96
386.00 9.730555e-96
386.10 9.730555e-96
386.20 9.730555e-96
386.30 9.730555e-96
386.40 9.730555e-96
386.50 9.730555e-96
386.60 9.730555e-96
386.70 9.730555e-96
386.80 9.730555e-96
386.90 9.730555e-96
387.00 9.730555e-96
387.10 9.730555e-96
387.20 9.730555e-96
387.30 9.730555e-96
387.40 9.730555e-96
387.50 9.730555e-96
387.60 9.730555e-96
387.70 9.730555e-96
387.80 9.730555e-96
387.90 9.730555e-96
388.00 9.730555e-96
388.10 9.730555e-96
388.20 9.730555e-96
388.30 9.730555e-96
388.40 9.730555e-96
388.50 9.730555e-96
388.60 9.730555e-96
388.70 9.730555e-96
388.80 9.730555e-96
388.90 9.730555e-96
389.00 9.730555e-96
389.10 9.730555e-96
389.20 9.730555e-96
389.30 9.730555e-96
389.40 9.730555e-96
389.50 9.730555e-96
389.60 9.730555e-96
389.70 9.730555e-96
389.80 9.730555e-96
389.90 9.730555e-96
390.00 9.730555e-96
390.10 9.730555e-96
390.20 9.730555e-96
390.30 9.730555e-96
390.40 9.730555e-96
390.50 9.730555e-96
390.60 9.730555e-96
390.70 9.730555e-96
390.80 9.730555e-96
390.90 9.730555e-96
391.00 9.730555e-96
391.10 9.730555e-96
391.20 9.730555e-96
391.30 9.730555e-96
391.40 9.730555e-96
391.50 9.730555e-96
391.60 9.730555e-96
391.70 9.730555e-96
391.80 9.730555e-96
391.90 9.730555e-96
392.00 9.730555e-96
392.10 9.730555e-96
392.20 9.730555e-96
392.30 9.730555e-96
392.40 9.730555e-96
392.50 9.730555e-96
392.60 9.730555e-96
392.70 9.730555e-96
392.80 9.730555e-96
392.90 9.730555e-96
393.00 9.730555e-96
393.10 9.730555e-96
393.20 9.730555e-96
393.30 9.730555e-96
393.40 9.730555e-96
393.50 9.730555e-96
393.60 9.730555e-96
393.70 9.730555e-96
393.80 9.730555e-96
393.90 9.730555e-96
394.00 9.730555e-96
394.10 9.730555e-96
394.20 9.730555e-96
394.30 9.730555e-96
394.40 9.730555e-96
394.50 9.730555e-96
394.60 9.730555e-96
394.70 9.730555e-96
394.80 9.730555e-96
394.90 9.730555e-96
395.00 9.633249e-96
395.10 9.535944e-96
395.20 9.438638e-96
395.30 9.341333e-96
395.40 9.244027e-96
395.50 9.146722e-96
395.60 9.049416e-96
395.70 8.952111e-96
395.80 8.854805e-96
395.90 8.757499e-96
396.00 8.660194e-96
396.10 8.562888e-96
396.20 8.465583e-96
396.30 8.368277e-96
396.40 8.270972e-96
396.50 8.173666e-96
396.60 8.076361e-96
396.70 7.979055e-96
396.80 7.881749e-96
396.90 7.784444e-96
397.00 7.687138e-96
397.10 7.589833e-96
397.20 7.492527e-96
397.30 7.395222e-96
397.40 7.297916e-96
397.50 7.200611e-96
397.60 7.103305e-96
397.70 7.006e-96
397.80 0.00570212
397.90 0.01976954
398.00 0.0383318
398.10 0.05561059
398.20 0.06643757
398.30 0.06707834
398.40 0.06707834
398.50 0.06707834
398.60 0.06707834
398.70 0.06707834
398.80 0.06707834
398.90 0.06707834
399.00 0.07291278
399.10 0.09431626
399.20 0.1271649
399.30 0.1659372
399.40 0.2059523
399.50 0.244183
399.60 0.2784367
399.70 0.3084714
399.80 0.3373709
399.90 0.3686802
400.00 0.4035339
400.10 0.4403909
400.20 0.4757475
400.30 0.5062154
400.40 0.5306724
400.50 0.550105
400.60 0.5664064
400.70 0.5825339
400.80 0.6016411
400.90 0.6259294
401.00 0.6565289
401.10 0.6930643
401.20 0.7331912
401.30 0.7725025
401.40 0.8057629
401.50 0.8285711
401.60 0.8386374
401.70 0.8386374
401.80 0.8386374
401.90 0.8386374
402.00 0.8386374
402.10 0.8386374
402.20 0.8386374
402.30 0.8386374
402.40 0.8553686
402.50 0.8893711
402.60 0.9367581
402.70 0.9912679
402.80 1.0472
402.90 1.100013
403.00 1.146018
403.10 1.185051
403.20 1.220106
403.30 1.253812
403.40 1.286843
403.50 1.318624
403.60 1.349079
403.70 1.377511
403.80 1.401288
403.90 1.418201
404.00 1.427262
404.10 1.428775
404.20 1.428775
404.30 1.428775
404.40 1.428775
404.50 1.428775
404.60 1.428775
404.70 1.428775
404.80 1.428775
404.90 1.428775
405.00 1.428775
405.10 1.428775
405.20 1.428775
405.30 1.428775
405.40 1.428775
405.50 1.428775
405.60 1.428775
405.70 1.431904
405.80 1.441027
405.90 1.454517
406.00 1.468882
406.10 1.480028
406.20 1.484262
406.30 1.484262
406.40 1.484262
406.50 1.484262
406.60 1.484262
406.70 1.484262
406.80 1.484262
406.90 1.484262
407.00 1.484262
407.10 1.484262
407.20 1.484262
407.30 1.484262
407.40 1.484262
407.50 1.484262
407.60 1.484262
407.70 1.484262
407.80 1.47856
407.90 1.464493
408.00 1.44593
408.10 1.428652
408.20 1.417825
408.30 1.417184
408.40 1.417184
408.50 1.417184
408.60 1.417184
408.70 1.421579
408.80 1.433295
408.90 1.448459
409.00 1.457848
409.10 1.449212
409.20 1.425917
409.30 1.39379
409.40 1.358503
409.50 1.323419
409.60 1.289892
409.70 1.259857
409.80 1.230958
409.90 1.199649
410.00 1.164795
410.10 1.127938
410.20 1.092581
410.30 1.062113
410.40 1.040032
410.50 1.030507
410.60 1.030727
410.70 1.034774
410.80 1.036687
410.90 1.032091
411.00 1.018114
411.10 0.9949224
411.20 0.9664513
411.30 0.9389925
411.40 0.9190606
411.50 0.9119673
411.60 0.9200184
411.70 0.9386076
411.80 0.95491
411.90 0.9664372
412.00 0.9716383
412.10 0.9716383
412.20 0.9716383
412.30 0.9716383
412.40 0.9549071
412.50 0.9209046
412.60 0.8735176
412.70 0.8190079
412.80 0.7630756
412.90 0.7102628
413.00 0.6673465
413.10 0.6362677
413.20 0.6121771
413.30 0.5897373
413.40 0.5649621
413.50 0.5355952
413.60 0.5051394
413.70 0.4767082
413.80 0.4529308
413.90 0.4360178
414.00 0.4269566
414.10 0.425444
414.20 0.425444
414.30 0.425444
414.40 0.425444
414.50 0.425444
414.60 0.425444
414.70 0.425444
414.80 0.425444
414.90 0.425444
415.00 0.425444
415.10 0.425444
415.20 0.425444
415.30 0.425444
415.40 0.425444
415.50 0.425444
415.60 0.425444
415.70 0.4223146
415.80 0.413192
415.90 0.3997023
416.00 0.3853373
416.10 0.3741912
416.20 0.3699566
416.30 0.3699566
416.40 0.3699566
416.50 0.3699566
416.60 0.3699566
416.70 0.3699566
416.80 0.3699566
416.90 0.3699566
417.00 0.3699566
417.10 0.3699566
417.20 0.3699566
417.30 0.3699566
417.40 0.3699566
417.50 0.3699566
417.60 0.3762169
417.70 0.3936654
417.80 0.419922
417.90 0.4525441
418.00 0.4883024
418.10 0.5235361
418.20 0.556074
418.30 0.5869707
418.40 0.6199538
418.50 0.6590727
418.60 0.7075856
418.70 0.7619041
418.80 0.8157284
418.90 0.8666048
419.00 0.911416
419.10 0.9477774
419.20 0.9733684
419.30 0.985432
419.40 0.9819902
419.50 0.9788436
419.60 0.978117
419.70 0.978117
419.80 0.978117
419.90 0.978117
420.00 0.978117
420.10 0.978117
420.20 0.978117
420.30 0.992797
420.40 1.020899
420.50 1.053147
420.60 1.082909
420.70 1.105451
420.80 1.118706
420.90 1.123193
421.00 1.121808
421.10 1.118089
421.20 1.114957
421.30 1.115172
421.40 1.121213
421.50 1.133541
421.60 1.150147
421.70 1.168587
421.80 1.186089
421.90 1.200172
422.00 1.210111
422.10 1.215061
422.20 1.215061
422.30 1.215061
422.40 1.215061
422.50 1.215061
422.60 1.215061
422.70 1.215061
422.80 1.215061
422.90 1.215061
423.00 1.211972
423.10 1.204017
423.20 1.193054
423.30 1.181787
423.40 1.173532
423.50 1.171117
423.60 1.172471
423.70 1.179653
423.80 1.195638
423.90 1.221842
424.00 1.258122
424.10 1.302461
424.20 1.35006
424.30 1.394147
424.40 1.428685
424.50 1.450345
424.60 1.458668
424.70 1.458668
424.80 1.458668
424.90 1.458668
425.00 1.458668
425.10 1.458668
425.20 1.458668
425.30 1.458668
425.40 1.458668
425.50 1.458668
425.60 1.458668
425.70 1.458668
425.80 1.458668
425.90 1.458668
426.00 1.458668
426.10 1.458668
426.20 1.458668
426.30 1.458668
426.40 1.458668
426.50 1.461346
426.60 1.467843
426.70 1.476956
426.80 1.486611
426.90 1.494566
427.00 1.498145
427.10 1.498145
427.20 1.498145
427.30 1.498145
427.40 1.498145
427.50 1.498145
427.60 1.491884
427.70 1.487296
427.80 1.48651
427.90 1.488175
428.00 1.490078
428.10 1.489303
428.20 1.48179
428.30 1.462806
428.40 1.429823
428.50 1.390704
428.60 1.342191
428.70 1.283478
428.80 1.217937
428.90 1.151897
429.00 1.091862
429.10 1.042734
429.20 1.007589
429.30 0.9888797
429.40 0.9875935
429.50 0.9875935
429.60 0.9875935
429.70 0.9875935
429.80 0.9884703
429.90 0.9913815
430.00 0.9957038
430.10 0.9999087
430.20 1.002445
430.30 0.988977
430.40 0.9615205
430.50 0.9271803
430.60 0.8937758
430.70 0.8669967
430.80 0.8487539
430.90 0.8389433
431.00 0.8360488
431.10 0.8367253
431.20 0.835859
431.30 0.8276688
431.40 0.8093077
431.50 0.7824071
431.60 0.7516263
431.70 0.7219643
431.80 0.6975335
431.90 0.6817684
432.00 0.6764606
432.10 0.6810384
432.20 0.6895561
432.30 0.6956333
432.40 0.6978746
432.50 0.6978746
432.60 0.6978746
432.70 0.6978746
432.80 0.6978746
432.90 0.6978746
433.00 0.6978746
433.10 0.6978746
433.20 0.6978746
433.30 0.6978746
433.40 0.6978746
433.50 0.6978746
433.60 0.6965207
433.70 0.6893391
433.80 0.6762211
433.90 0.6576256
434.00 0.6330149
434.10 0.6040234
434.20 0.5761357
434.30 0.5568525
434.40 0.5518793
434.50 0.5633694
434.60 0.5909047
434.70 0.6284669
434.80 0.6663255
434.90 0.7037567
435.00 0.7410189
435.10 0.7790927
435.20 0.8186729
435.30 0.8591374
435.40 0.89901
435.50 0.9358562
435.60 0.9658335
435.70 0.9850093
435.80 0.9913611
435.90 0.9913611
436.00 0.9913611
436.10 0.9913611
436.20 0.9913611
436.30 0.9913611
436.40 0.9913611
436.50 0.9886829
436.60 0.982186
436.70 0.9730735
436.80 0.9634184
436.90 0.9554632
437.00 0.9518845
437.10 0.9518845
437.20 0.9518845
437.30 0.9518845
437.40 0.9518845
437.50 0.9518845
437.60 0.9518845
437.70 0.9390247
437.80 0.9197282
437.90 0.8978903
438.00 0.8782196
438.10 0.8650692
438.20 0.861779
438.30 0.8694268
438.40 0.8843254
438.50 0.8925488
438.60 0.8932804
438.70 0.8932804
438.80 0.8932804
438.90 0.8932804
439.00 0.8932804
439.10 0.8932804
439.20 0.8932804
439.30 0.8932804
439.40 0.8932804
439.50 0.8932804
439.60 0.8932804
439.70 0.8990619
439.80 0.913996
439.90 0.9344972
440.00 0.9576819
440.10 0.9819167
440.20 1.006725
440.30 1.031391
440.40 1.053242
440.50 1.068815
440.60 1.076892
440.70 1.078879
440.80 1.076768
440.90 1.070723
441.00 1.059769
441.10 1.049468
441.20 1.041811
441.30 1.037934
441.40 1.036925
441.50 1.035782
441.60 1.032197
441.70 1.03458
441.80 1.043293
441.90 1.057811
442.00 1.076997
442.10 1.099288
442.20 1.123508
442.30 1.150013
442.40 1.17941
442.50 1.209029
442.60 1.235803
442.70 1.260245
442.80 1.283118
442.90 1.304772
443.00 1.325939
443.10 1.347228
443.20 1.369027
443.30 1.391273
443.40 1.412651
443.50 1.432054
443.60 1.449442
443.70 1.464436
443.80 1.473424
443.90 1.474307
444.00 1.468332
444.10 1.456688
444.20 1.440038
444.30 1.419852
444.40 1.398698
444.50 1.380315
444.60 1.367933
444.70 1.363874
444.80 1.369547
444.90 1.383191
445.00 1.399598
445.10 1.412643
445.20 1.417583
445.30 1.411763
445.40 1.395073
445.50 1.37124
445.60 1.34752
445.70 1.331891
445.80 1.329823
445.90 1.336892
446.00 1.34791
446.10 1.36253
446.20 1.378073
446.30 1.391717
446.40 1.401753
446.50 1.406661
446.60 1.406661
446.70 1.406661
446.80 1.406661
446.90 1.406661
447.00 1.406661
447.10 1.408056
447.20 1.415354
447.30 1.4303
447.40 1.453952
447.50 1.487133
447.60 1.530746
447.70 1.584387
447.80 1.639457
447.90 1.691965
448.00 1.738295
448.10 1.776462
448.20 1.80528
448.30 1.823783
448.40 1.833478
448.50 1.838731
448.60 1.844238
448.70 1.847144
448.80 1.849708
448.90 1.85318
449.00 1.857207
449.10 1.860649
449.20 1.862913
449.30 1.864977
449.40 1.868487
449.50 1.873771
449.60 1.879657
449.70 1.879654
449.80 1.869074
449.90 1.848798
450.00 1.821291
450.10 1.792851
450.20 1.765507
450.30 1.739629
450.40 1.714757
450.50 1.691367
450.60 1.670413
450.70 1.652488
450.80 1.640209
450.90 1.638629
451.00 1.648406
451.10 1.662832
451.20 1.679345
451.30 1.69793
451.40 1.720119
451.50 1.748239
451.60 1.783895
451.70 1.818906
451.80 1.853084
451.90 1.885023
452.00 1.911458
452.10 1.929664
452.20 1.938552
452.30 1.937908
452.40 1.929447
452.50 1.917382
452.60 1.906211
452.70 1.898251
452.80 1.894053
452.90 1.893235
453.00 1.893849
453.10 1.8923
453.20 1.884855
453.30 1.869823
453.40 1.849454
453.50 1.830051
453.60 1.812663
453.70 1.799983
453.80 1.794922
453.90 1.796842
454.00 1.803876
454.10 1.813711
454.20 1.823003
454.30 1.827027
454.40 1.821466
454.50 1.8067
454.60 1.783222
454.70 1.749719
454.80 1.706187
454.90 1.655113
455.00 1.608272
455.10 1.572478
455.20 1.552643
455.30 1.551323
455.40 1.565943
455.50 1.588329
455.60 1.608497
455.70 1.617732
455.80 1.613448
455.90 1.606379
456.00 1.595361
456.10 1.580741
456.20 1.565198
456.30 1.551554
456.40 1.541518
456.50 1.53661
456.60 1.53661
456.70 1.53661
456.80 1.53661
456.90 1.538154
457.00 1.549218
457.10 1.566335
457.20 1.582094
457.30 1.591932
457.40 1.591985
457.50 1.578938
457.60 1.549817
457.70 1.503202
457.80 1.441958
457.90 1.377
458.00 1.312679
458.10 1.253205
458.20 1.202653
458.30 1.164588
458.40 1.139994
458.50 1.126518
458.60 1.120279
458.70 1.120124
458.80 1.121134
458.90 1.120315
459.00 1.118202
459.10 1.117441
459.20 1.120433
459.30 1.127149
459.40 1.135551
459.50 1.143819
459.60 1.150987
459.70 1.155717
459.80 1.15671
459.90 1.154615
460.00 1.154615
460.10 1.154615
460.20 1.154615
460.30 1.154615
460.40 1.154615
460.50 1.154615
460.60 1.15905
460.70 1.168077
460.80 1.179321
460.90 1.188074
461.00 1.193591
461.10 1.195303
461.20 1.192395
461.30 1.18339
461.40 1.16615
461.50 1.138414
461.60 1.102401
461.70 1.05764
461.80 1.005375
461.90 0.9490727
462.00 0.8936203
462.10 0.8435956
462.20 0.8062391
462.30 0.7848596
462.40 0.7780568
462.50 0.7803516
462.60 0.7850711
462.70 0.7870341
462.80 0.7832906
462.90 0.7734573
463.00 0.7600748
463.10 0.7482479
463.20 0.7435189
463.30 0.7498937
463.40 0.7682487
463.50 0.793921
463.60 0.8242518
463.70 0.8532815
463.80 0.874748
463.90 0.8868835
464.00 0.8909307
464.10 0.8900421
464.20 0.8887359
464.30 0.8920214
464.40 0.9042698
464.50 0.9243863
464.60 0.9494274
464.70 0.9774283
464.80 1.00593
464.90 1.032502
465.00 1.048262
465.10 1.050499
465.20 1.038574
465.30 1.014472
465.40 0.983876
465.50 0.954973
465.60 0.9358295
465.70 0.9324279
465.80 0.9442397
465.90 0.9589329
466.00 0.9772693
466.10 0.9991258
466.20 1.023107
466.30 1.047606
466.40 1.07173
466.50 1.09498
466.60 1.117169
466.70 1.13833
466.80 1.158764
466.90 1.177493
467.00 1.186314
467.10 1.186875
467.20 1.182072
467.30 1.173972
467.40 1.164963
467.50 1.158892
467.60 1.159709
467.70 1.170125
467.80 1.18918
467.90 1.207911
468.00 1.22395
468.10 1.236038
468.20 1.243828
468.30 1.247233
468.40 1.247233
468.50 1.247233
468.60 1.247233
468.70 1.244482
468.80 1.240908
468.90 1.238255
469.00 1.236342
469.10 1.233661
469.20 1.228404
469.30 1.219624
469.40 1.207712
469.50 1.19416
469.60 1.18622
469.70 1.185264
469.80 1.190378
469.90 1.200243
470.00 1.209687
470.10 1.218252
470.20 1.227254
470.30 1.237794
470.40 1.250318
470.50 1.264224
470.60 1.273739
470.70 1.277224
470.80 1.274574
470.90 1.266843
471.00 1.255551
471.10 1.243117
471.20 1.232704
471.30 1.226772
471.40 1.226947
471.50 1.234414
471.60 1.246613
471.70 1.26473
471.80 1.289366
471.90 1.319772
472.00 1.353887
472.10 1.388945
472.20 1.417503
472.30 1.4345
472.40 1.438144
472.50 1.429367
472.60 1.41158
472.70 1.393135
472.80 1.378203
472.90 1.3672
473.00 1.358802
473.10 1.353894
473.20 1.350411
473.30 1.345977
473.40 1.338608
473.50 1.32742
473.60 1.313582
473.70 1.300634
473.80 1.292879
473.90 1.293649
474.00 1.303232
474.10 1.318026
474.20 1.332549
474.30 1.34224
474.40 1.344113
474.50 1.336045
474.60 1.318212
474.70 1.29394
474.80 1.268742
474.90 1.248426
475.00 1.237373
475.10 1.237439
475.20 1.248388
475.30 1.267696
475.40 1.290528
475.50 1.312285
475.60 1.329036
475.70 1.337617
475.80 1.336798
475.90 1.326684
476.00 1.308608
476.10 1.286751
476.20 1.26277
476.30 1.238466
476.40 1.217947
476.50 1.202034
476.60 1.189595
476.70 1.178222
476.80 1.166149
476.90 1.152473
477.00 1.136985
477.10 1.119817
477.20 1.101934
477.30 1.086307
477.40 1.075337
477.50 1.069061
477.60 1.066434
477.70 1.066013
477.80 1.066539
477.90 1.068087
478.00 1.072201
478.10 1.080613
478.20 1.094225
478.30 1.113072
478.40 1.136738
478.50 1.162624
478.60 1.190241
478.70 1.217423
478.80 1.241687
478.90 1.261019
479.00 1.273793
479.10 1.279072
479.20 1.279072
479.30 1.279072
479.40 1.279072
479.50 1.279072
479.60 1.273958
479.70 1.264406
479.80 1.253068
479.90 1.242161
480.00 1.232718
480.10 1.224153
480.20 1.21515
480.30 1.206337
480.40 1.202282
480.50 1.201649
480.60 1.203474
480.70 1.206392
480.80 1.207635
480.90 1.204373
481.00 1.198982
481.10 1.195277
481.20 1.192086
481.30 1.188437
481.40 1.183313
481.50 1.175462
481.60 1.163263
481.70 1.145146
481.80 1.122967
481.90 1.097959
482.00 1.068636
482.10 1.034124
482.20 1.001296
482.30 0.9737397
482.40 0.9537226
482.50 0.9426512
482.60 0.9401154
482.70 0.9401154
482.80 0.9401154
482.90 0.9401154
483.00 0.9401154
483.10 0.9378141
483.20 0.9316709
483.30 0.9225167
483.40 0.9105218
483.50 0.8960381
483.60 0.8795453
483.70 0.8611489
483.80 0.8462894
483.90 0.8347446
484.00 0.8233447
484.10 0.810506
484.20 0.7962618
484.30 0.7811877
484.40 0.7660529
484.50 0.7540042
484.60 0.746796
484.70 0.7446248
484.80 0.7479254
484.90 0.7545384
485.00 0.7616853
485.10 0.7667784
485.20 0.7681698
485.30 0.7654337
485.40 0.7595113
485.50 0.7516727
485.60 0.7436377
485.70 0.7377167
485.80 0.7361892
485.90 0.7399042
486.00 0.7472293
486.10 0.753011
486.20 0.7543523
486.30 0.7541574
486.40 0.7505525
486.50 0.7432145
486.60 0.7334652
486.70 0.7236778
486.80 0.715316
486.90 0.7087184
487.00 0.7043228
487.10 0.7053755
487.20 0.7209414
487.30 0.7468426
487.40 0.7778845
487.50 0.8097051
487.60 0.8397125
487.70 0.8676816
487.80 0.894957
487.90 0.9220347
488.00 0.9472736
488.10 0.9678762
488.20 0.9813673
488.30 0.9857583
488.40 0.9782965
488.50 0.9570074
488.60 0.92939
488.70 0.9022085
488.80 0.877944
488.90 0.858612
489.00 0.8458378
489.10 0.8448711
489.20 0.8561156
489.30 0.8706639
489.40 0.883958
489.50 0.8912367
489.60 0.8912367
489.70 0.8912367
489.80 0.8912367
489.90 0.8912367
490.00 0.8912367
490.10 0.8912367
490.20 0.8912367
490.30 0.8913649
490.40 0.8928196
490.50 0.8949247
490.60 0.8964893
490.70 0.8975742
490.80 0.9011509
490.90 0.9114913
491.00 0.9275077
491.10 0.9454426
491.20 0.9654355
491.30 0.9865528
491.40 1.006933
491.50 1.024694
491.60 1.038325
491.70 1.046883
491.80 1.048019
491.90 1.042791
492.00 1.037998
492.10 1.037452
492.20 1.038592
492.30 1.04219
492.40 1.048884
492.50 1.058644
492.60 1.070505
492.70 1.083188
492.80 1.095902
492.90 1.108749
493.00 1.122394
493.10 1.136836
493.20 1.153877
493.30 1.172851
493.40 1.193835
493.50 1.217539
493.60 1.244583
493.70 1.274405
493.80 1.299822
493.90 1.318345
494.00 1.330957
494.10 1.33991
494.20 1.347123
494.30 1.352806
494.40 1.356244
494.50 1.356244
494.60 1.356244
494.70 1.354686
494.80 1.348082
494.90 1.335213
495.00 1.316531
495.10 1.29381
495.20 1.26871
495.30 1.242914
495.40 1.218798
495.50 1.198384
495.60 1.182386
495.70 1.170345
495.80 1.16088
495.90 1.152586
496.00 1.14678
496.10 1.150383
496.20 1.165228
496.30 1.186321
496.40 1.209275
496.50 1.230693
496.60 1.24777
496.70 1.25863
496.80 1.262566
496.90 1.262566
497.00 1.262566
497.10 1.259608
497.20 1.243672
497.30 1.216713
497.40 1.181945
497.50 1.142338
497.60 1.099649
497.70 1.054658
497.80 1.011449
497.90 0.9704241
498.00 0.9326518
498.10 0.8997609
498.20 0.8733018
498.30 0.8554799
498.40 0.8493407
498.50 0.857448
498.60 0.8739221
498.70 0.8943124
498.80 0.9176357
498.90 0.9423918
499.00 0.9666995
499.10 0.9837562
499.20 0.9889879
499.30 0.9854306
499.40 0.9779846
499.50 0.97276
499.60 0.9733028
499.70 0.9746846
499.80 0.9788208
499.90 0.9869825
500.00 1
500.10 1.018275
500.20 1.040833
500.30 1.062928
500.40 1.074793
500.50 1.076013
500.60 1.067591
500.70 1.051496
500.80 1.036439
500.90 1.021596
501.00 1.00558
501.10 0.9876451
501.20 0.9676521
501.30 0.9465349
501.40 0.9261548
501.50 0.9102899
501.60 0.9017567
501.70 0.9004294
501.80 0.9054056
501.90 0.9146487
502.00 0.9246504
502.10 0.9347346
502.20 0.943762
502.30 0.950891
502.40 0.9556672
502.50 0.9580535
502.60 0.958645
502.70 0.9586999
502.80 0.9591372
502.90 0.958695
503.00 0.9550018
503.10 0.9462574
503.20 0.930872
503.30 0.911898
503.40 0.8909138
503.50 0.8672093
503.60 0.8401652
503.70 0.8103435
503.80 0.7792794
503.90 0.7489854
504.00 0.721415
504.10 0.697856
504.20 0.6793175
504.30 0.6670909
504.40 0.6618167
504.50 0.6618167
504.60 0.6618167
504.70 0.6618167
504.80 0.6618167
504.90 0.6618167
505.00 0.6642594
505.10 0.668105
505.20 0.6710537
505.30 0.6717956
505.40 0.6717956
505.50 0.6717956
505.60 0.6717956
505.70 0.6717956
505.80 0.6717956
505.90 0.6717956
506.00 0.6700169
506.10 0.6606323
506.20 0.6464641
506.30 0.6291325
506.40 0.6094264
506.50 0.5894907
506.60 0.5724139
506.70 0.5615534
506.80 0.5576171
506.90 0.5576171
507.00 0.5576171
507.10 0.5600175
507.20 0.5666847
507.30 0.5771621
507.40 0.5899817
507.50 0.6029676
507.60 0.6145206
507.70 0.6246291
507.80 0.6304946
507.90 0.6337286
508.00 0.6354891
508.10 0.6354764
508.20 0.6332153
508.30 0.6279748
508.40 0.6179103
508.50 0.6052062
508.60 0.588732
508.70 0.5683418
508.80 0.5450184
508.90 0.5202623
509.00 0.4959546
509.10 0.4745859
509.20 0.4581098
509.30 0.4471187
509.40 0.4412706
509.50 0.4392165
509.60 0.4386737
509.70 0.4372919
509.80 0.4331557
509.90 0.424994
510.00 0.4142396
510.10 0.4028733
510.20 0.3927561
510.30 0.3863705
510.40 0.3866491
510.50 0.3959053
510.60 0.4153782
510.70 0.4441919
510.80 0.4724537
510.90 0.4978477
511.00 0.518627
511.10 0.5338405
511.20 0.5438142
511.30 0.549965
511.40 0.5541658
511.50 0.5562331
511.60 0.5562817
511.70 0.5561869
511.80 0.5564088
511.90 0.5561794
512.00 0.5545805
512.10 0.5517458
512.20 0.5476904
512.30 0.5421168
512.40 0.5351541
512.50 0.5268016
512.60 0.5163509
512.70 0.5036133
512.80 0.4904617
512.90 0.4780575
513.00 0.4681051
513.10 0.4617045
513.20 0.4600493
513.30 0.4600493
513.40 0.4600493
513.50 0.4600493
513.60 0.4629313
513.70 0.4687149
513.80 0.4750769
513.90 0.480979
514.00 0.4865269
514.10 0.4927171
514.20 0.5011723
514.30 0.5135557
514.40 0.5305776
514.50 0.5516882
514.60 0.5752226
514.70 0.5987148
514.80 0.6197491
514.90 0.6367436
515.00 0.6469188
515.10 0.6525692
515.20 0.657967
515.30 0.6662618
515.40 0.6778993
515.50 0.693813
515.60 0.7145792
515.70 0.7393689
515.80 0.7672392
515.90 0.7979057
516.00 0.8309412
516.10 0.8654264
516.20 0.8983518
516.30 0.9293035
516.40 0.9596079
516.50 0.9885797
516.60 1.013394
516.70 1.030972
516.80 1.041506
516.90 1.046582
517.00 1.048823
517.10 1.04919
517.20 1.048454
517.30 1.047763
517.40 1.047959
517.50 1.049958
517.60 1.053783
517.70 1.058397
517.80 1.063145
517.90 1.068611
518.00 1.076245
518.10 1.087103
518.20 1.100761
518.30 1.115767
518.40 1.130941
518.50 1.141228
518.60 1.146605
518.70 1.148678
518.80 1.150042
518.90 1.153512
519.00 1.161569
519.10 1.175544
519.20 1.195739
519.30 1.221193
519.40 1.249815
519.50 1.279429
519.60 1.307784
519.70 1.332725
519.80 1.352927
519.90 1.368174
520.00 1.376413
520.10 1.375905
520.20 1.367191
520.30 1.352629
520.40 1.334612
520.50 1.314269
520.60 1.291486
520.70 1.266562
520.80 1.2411
520.90 1.217217
521.00 1.197247
521.10 1.183273
521.20 1.175878
521.30 1.173722
521.40 1.17449
521.50 1.175487
521.60 1.174161
521.70 1.169452
521.80 1.162399
521.90 1.155895
522.00 1.152681
522.10 1.153372
522.20 1.156804
522.30 1.161283
522.40 1.165291
522.50 1.168282
522.60 1.171925
522.70 1.178025
522.80 1.1865
522.90 1.199181
523.00 1.21675
523.10 1.237479
523.20 1.257795
523.30 1.274061
523.40 1.284568
523.50 1.290264
523.60 1.290789
523.70 1.288924
523.80 1.289712
523.90 1.29737
524.00 1.31472
524.10 1.341016
524.20 1.371225
524.30 1.398203
524.40 1.416228
524.50 1.422707
524.60 1.41794
524.70 1.404145
524.80 1.384343
524.90 1.367349
525.00 1.354731
525.10 1.345235
525.20 1.336888
525.30 1.327852
525.40 1.316214
525.50 1.300963
525.60 1.285661
525.70 1.272361
525.80 1.261697
525.90 1.251515
526.00 1.239181
526.10 1.223633
526.20 1.204711
526.30 1.18234
526.40 1.157854
526.50 1.13513
526.60 1.118954
526.70 1.112466
526.80 1.116346
526.90 1.128856
527.00 1.146061
527.10 1.162554
527.20 1.173525
527.30 1.177398
527.40 1.174999
527.50 1.167648
527.60 1.157331
527.70 1.145943
527.80 1.133702
527.90 1.119645
528.00 1.103073
528.10 1.084355
528.20 1.065123
528.30 1.047951
528.40 1.035404
528.50 1.029006
528.60 1.029053
528.70 1.034424
528.80 1.042978
528.90 1.052659
529.00 1.061226
529.10 1.066714
529.20 1.068642
529.30 1.06792
529.40 1.066139
529.50 1.06511
529.60 1.06674
529.70 1.072537
529.80 1.083054
529.90 1.097952
530.00 1.116299
530.10 1.136718
530.20 1.157104
530.30 1.174621
530.40 1.186829
530.50 1.193245
530.60 1.195235
530.70 1.194663
530.80 1.193023
530.90 1.191512
531.00 1.190703
531.10 1.190006
531.20 1.189042
531.30 1.187748
531.40 1.186178
531.50 1.184388
531.60 1.182774
531.70 1.181437
531.80 1.18004
531.90 1.177665
532.00 1.173376
532.10 1.166981
532.20 1.159223
532.30 1.151322
532.40 1.144197
532.50 1.138172
532.60 1.1328
532.70 1.127051
532.80 1.119864
532.90 1.110464
533.00 1.098952
533.10 1.087743
533.20 1.081046
533.30 1.082442
533.40 1.09274
533.50 1.109637
533.60 1.12875
533.70 1.144792
533.80 1.153555
533.90 1.151891
534.00 1.137249
534.10 1.109988
534.20 1.074345
534.30 1.036653
534.40 1.002753
534.50 0.9762223
534.60 0.9583946
534.70 0.9496602
534.80 0.9497699
534.90 0.9519116
535.00 0.9555446
535.10 0.9615916
535.20 0.9701398
535.30 0.9805466
535.40 0.9921166
535.50 1.003392
535.60 1.009935
535.70 1.010744
535.80 1.00655
535.90 1.000328
536.00 0.9954538
536.10 0.9934463
536.20 0.9940569
536.30 0.9959883
536.40 0.9966714
536.50 0.9922819
536.60 0.983644
536.70 0.972553
536.80 0.9581393
536.90 0.9405533
537.00 0.9211064
537.10 0.9018474
537.20 0.8849443
537.30 0.871285
537.40 0.8606691
537.50 0.8530352
537.60 0.8479737
537.70 0.8446394
537.80 0.8426179
537.90 0.8416444
538.00 0.8440606
538.10 0.8481005
538.20 0.8484986
538.30 0.847085
538.40 0.8444571
538.50 0.8405683
538.60 0.8351436
538.70 0.8277003
538.80 0.8177817
538.90 0.8046314
539.00 0.7880071
539.10 0.7685441
539.20 0.7499146
539.30 0.73227
539.40 0.7161246
539.50 0.7021451
539.60 0.6908935
539.70 0.6829232
539.80 0.6779351
539.90 0.6745367
540.00 0.6720088
540.10 0.6709597
540.20 0.6724187
540.30 0.6773295
540.40 0.6857289
540.50 0.6967411
540.60 0.7097384
540.70 0.724459
540.80 0.7405474
540.90 0.7577129
541.00 0.7755225
541.10 0.793766
541.20 0.8122751
541.30 0.831039
541.40 0.849891
541.50 0.8686577
541.60 0.8867591
541.70 0.9029089
541.80 0.9157916
541.90 0.9244777
542.00 0.9282047
542.10 0.9266598
542.20 0.924874
542.30 0.9231429
542.40 0.9217528
542.50 0.9209922
542.60 0.9207192
542.70 0.9203682
542.80 0.9190803
542.90 0.9157998
543.00 0.9097421
543.10 0.9002225
543.20 0.8866041
543.30 0.8695988
543.40 0.8524143
543.50 0.8379307
543.60 0.8289515
543.70 0.8276185
543.80 0.8348152
543.90 0.8504095
544.00 0.8740248
544.10 0.9044292
544.20 0.939146
544.30 0.9755092
544.40 1.011361
544.50 1.045111
544.60 1.076324
544.70 1.105081
544.80 1.131389
544.90 1.155633
545.00 1.178816
545.10 1.20236
545.20 1.227413
545.30 1.253445
545.40 1.27819
545.50 1.299188
545.60 1.314833
545.70 1.324318
545.80 1.327009
545.90 1.322808
546.00 1.313124
546.10 1.300508
546.20 1.287867
546.30 1.278257
546.40 1.274056
546.50 1.276814
546.60 1.28269
546.70 1.287024
546.80 1.288686
546.90 1.288686
547.00 1.288686
547.10 1.288686
547.20 1.288686
547.30 1.288686
547.40 1.288686
547.50 1.288686
547.60 1.288686
547.70 1.288686
547.80 1.288686
547.90 1.288686
548.00 1.286228
548.10 1.28446
548.20 1.288509
548.30 1.295974
548.40 1.305403
548.50 1.315514
548.60 1.32456
548.70 1.330768
548.80 1.332511
548.90 1.332511
549.00 1.332511
549.10 1.332511
549.20 1.329016
549.30 1.32193
549.40 1.311234
549.50 1.296628
549.60 1.277895
549.70 1.255128
549.80 1.229396
549.90 1.202651
550.00 1.849179
550.10 1.849179
550.20 1.849179
550.30 1.847536
550.40 1.838486
550.50 1.81821
550.60 1.784358
550.70 1.73779
550.80 1.680016
550.90 1.611292
551.00 1.532612
551.10 1.450065
551.20 1.368337
551.30 1.291918
551.40 1.222996
551.50 1.161248
551.60 1.103482
551.70 1.044701
551.80 0.9799338
551.90 0.913969
552.00 0.846929
552.10 0.7729514
552.20 0.6889505
552.30 0.5978523
552.40 0.5070647
552.50 0.4247264
552.60 0.3555949
552.70 0.3011341
552.80 0.2618762
552.90 0.2367227
553.00 0.2249352
553.10 0.23687
553.20 0.2634951
553.30 0.29728
553.40 0.3334775
553.50 0.370374
553.60 0.4098253
553.70 0.4555447
553.80 0.509131
553.90 0.5659018
554.00 0.6193419
554.10 0.6674275
554.20 0.7092804
554.30 0.7441451
554.40 0.7716023
554.50 0.7926521
554.60 0.8083098
554.70 0.8189618
554.80 0.8249572
554.90 0.8271595
555.00 0.8261592
555.10 0.8196329
555.20 0.8070159
555.30 0.7883533
555.40 0.7647801
555.50 0.7395037
555.60 0.7168882
555.70 0.7013683
555.80 0.6970116
555.90 0.7183128
556.00 0.7984003
556.10 0.9239649
556.20 1.073521
556.30 1.221602
556.40 1.345717
556.50 1.440623
556.60 1.52296
556.70 1.612934
556.80 1.720241
556.90 1.842454
557.00 1.968483
557.10 2.075951
557.20 2.162903
557.30 2.227671
557.40 2.268486
557.50 2.283004
557.60 2.269396
557.70 2.228911
557.80 2.17117
557.90 2.114399
558.00 2.060959
558.10 2.012874
558.20 1.971021
558.30 1.941644
558.40 1.929632
558.50 1.928538
558.60 1.930134
558.70 1.926512
558.80 1.920517
558.90 1.918315
559.00 1.918315
559.10 1.918315
559.20 1.918315
559.30 1.918315
559.40 1.918315
559.50 1.918315
559.60 1.919902
559.70 1.92879
559.80 1.941415
559.90 1.933998
560.00 1.866486
560.10 1.750925
560.20 1.608937
560.30 1.465913
560.40 1.345481
560.50 1.255882
560.60 1.184206
560.70 1.113724
560.80 1.038024
560.90 0.9619007
561.00 0.8934051
561.10 0.8371363
561.20 0.7947258
561.30 0.7657801
561.40 0.75124
561.50 0.7529597
561.60 0.7709557
561.70 0.8051351
561.80 0.8508274
561.90 0.8937847
562.00 0.933168
562.10 0.9658973
562.20 0.9876043
562.30 0.9888471
562.40 0.9734026
562.50 0.9534462
562.60 0.9361926
562.70 0.9291625
562.80 0.9291625
562.90 0.9291625
563.00 0.9291699
563.10 0.9350804
563.20 0.9435224
563.30 0.9530999
563.40 0.9636309
563.50 0.975716
563.60 0.9894667
563.70 1.000493
563.80 1.011516
563.90 1.022196
564.00 1.032106
564.10 1.040676
564.20 1.048457
564.30 1.057509
564.40 1.068114
564.50 1.07781
564.60 1.081758
564.70 1.073802
564.80 1.049163
564.90 1.007202
565.00 0.9513407
565.10 0.8883522
565.20 0.8284425
565.30 0.7816311
565.40 0.7516389
565.50 0.7354593
565.60 0.7255568
565.70 0.7114322
565.80 0.6827488
565.90 0.6397916
566.00 0.6004082
566.10 0.5676789
566.20 0.545972
566.30 0.5392408
566.40 0.5392408
566.50 0.5392408
566.60 0.5392408
566.70 0.5447665
566.80 0.5585204
566.90 0.5798618
567.00 0.6100512
567.10 0.6454225
567.20 0.6896886
567.30 0.7416993
567.40 0.7980325
567.50 0.8540088
567.60 0.9033796
567.70 0.9410006
567.80 0.9655876
567.90 0.9798349
568.00 0.9885012
568.10 0.9953083
568.20 0.998824
568.30 0.9937208
568.40 0.9794323
568.50 0.9644284
568.60 0.949821
568.70 0.9382842
568.80 0.9313167
568.90 0.9271873
569.00 0.9219461
569.10 0.9110142
569.20 0.8897815
569.30 0.8553265
569.40 0.8089745
569.50 0.77194
569.60 0.7575794
569.70 0.7769675
569.80 0.8352827
569.90 0.924619
570.00 1.020037
570.10 1.112746
570.20 1.192128
570.30 1.249909
570.40 1.284546
570.50 1.300016
570.60 1.303673
570.70 1.29919
570.80 1.295156
570.90 1.303054
571.00 1.326742
571.10 1.362881
571.20 1.406338
571.30 1.451993
571.40 1.492962
571.50 1.523
571.60 1.54089
571.70 1.54882
571.80 1.54952
571.90 1.545404
572.00 1.538082
572.10 1.530066
572.20 1.526521
572.30 1.533245
572.40 1.549718
572.50 1.566618
572.60 1.581623
572.70 1.590762
572.80 1.592161
572.90 1.592161
573.00 1.592161
573.10 1.592161
573.20 1.592161
573.30 1.595293
573.40 1.612401
573.50 1.627672
573.60 1.631338
573.70 1.612168
573.80 1.562884
573.90 1.483562
574.00 1.388144
574.10 1.295435
574.20 1.216053
574.30 1.158272
574.40 1.123635
574.50 1.113155
574.60 1.125
574.70 1.143902
574.80 1.15108
574.90 1.129622
575.00 1.075737
575.10 0.9983163
575.20 0.9021513
575.30 0.7949078
575.40 0.6870743
575.50 0.5889754
575.60 0.5063762
575.70 0.4576738
575.80 0.445587
575.90 0.4655302
576.00 0.5094293
576.10 0.5650083
576.20 0.6167584
576.30 0.6509779
576.40 0.6586827
576.50 0.6417831
576.60 0.6267777
576.70 0.6176387
576.80 0.61624
576.90 0.61624
577.00 0.61624
577.10 0.61624
577.20 0.61624
577.30 0.6135691
577.40 0.5997287
577.50 0.5693208
577.60 0.5313897
577.70 0.4950466
577.80 0.4690058
577.90 0.4589916
578.00 0.4589916
578.10 0.4623494
578.20 0.4762523
578.30 0.5013824
578.40 0.538166
578.50 0.580393
578.60 0.6193527
578.70 0.6587485
578.80 0.7047595
578.90 0.7624797
579.00 0.8302413
579.10 0.9002137
579.20 0.9735166
579.30 1.05165
579.40 1.135742
579.50 1.226324
579.60 1.322116
579.70 1.403796
579.80 1.464745
579.90 1.503615
580.00 1.521389
580.10 1.521315
580.20 1.511211
580.30 1.502838
580.40 1.508958
580.50 1.53585
580.60 1.569074
580.70 1.615688
580.80 1.677147
580.90 1.750175
581.00 1.828558
581.10 1.904103
581.20 1.967271
581.30 2.008806
581.40 2.020733
581.50 2.020706
581.60 2.020706
581.70 2.020706
581.80 2.020706
581.90 2.020706
582.00 2.020706
582.10 2.017348
582.20 2.003445
582.30 1.978315
582.40 1.94853
582.50 1.930998
582.60 1.921481
582.70 1.913292
582.80 1.89969
582.90 1.876954
583.00 1.844383
583.10 1.803676
583.20 1.757896
583.30 1.71105
583.40 1.666843
583.50 1.627917
583.60 1.59829
583.70 1.58307
583.80 1.58772
583.90 1.61877
584.00 1.681785
584.10 1.779399
584.20 1.907853
584.30 2.054783
584.40 2.20206
584.50 2.331206
584.60 2.426199
584.70 2.476734
584.80 2.481689
584.90 2.448006
585.00 2.387875
585.10 2.316653
585.20 2.253485
585.30 2.211489
585.40 2.196293
585.50 2.200461
585.60 2.209796
585.70 2.22424
585.80 2.242795
585.90 2.261533
586.00 2.275609
586.10 2.283652
586.20 2.2865
586.30 2.2865
586.40 2.279501
586.50 2.249816
586.60 2.204872
586.70 2.15372
586.80 2.104413
586.90 2.061648
587.00 2.026457
587.10 1.997192
587.20 1.969668
587.30 1.938382
587.40 1.898496
587.50 1.84684
587.60 1.781499
587.70 1.718685
587.80 1.657062
587.90 1.590512
588.00 1.508369
588.10 1.401026
588.20 1.262901
588.30 1.09708
588.40 0.9195044
588.50 0.7634676
588.60 0.6352502
588.70 0.5381008
588.80 0.4716868
588.90 0.4323424
589.00 0.4140903
589.10 0.412038
589.20 0.4181305
589.30 0.4287107
589.40 0.4460502
589.50 0.4696733
589.60 0.5022822
589.70 0.5459478
589.80 0.6007415
589.90 0.6658623
590.00 0.7379102
590.10 0.8088669
590.20 0.8695796
590.30 0.911838
590.40 0.9311234
590.50 0.9314557
590.60 0.9314557
590.70 0.9314557
590.80 0.9314557
590.90 0.9314557
591.00 0.9314557
591.10 0.9314557
591.20 0.9314557
591.30 0.9314557
591.40 0.9314557
591.50 0.9314557
591.60 0.9306319
591.70 0.9102236
591.80 0.8693978
591.90 0.8113906
592.00 0.7450168
592.10 0.6818758
592.20 0.6345788
592.30 0.6118948
592.40 0.6118948
592.50 0.6118948
592.60 0.6118948
592.70 0.6118948
592.80 0.6118948
592.90 0.6118948
593.00 0.6118948
593.10 0.6120758
593.20 0.6170122
593.30 0.6209627
593.40 0.6179705
593.50 0.6026565
593.60 0.5719351
593.70 0.5242557
593.80 0.4576119
593.90 0.3737534
594.00 0.2876296
594.10 0.2086294
594.20 0.1450692
594.30 0.1028108
594.40 0.0835254
594.50 0.08319305
594.60 0.08319305
594.70 0.08319305
594.80 0.0940453
594.90 0.1336351
595.00 0.2041268
595.10 0.3025995
595.20 0.4228598
595.30 0.5573214
595.40 0.6979493
595.50 0.8367761
595.60 0.9668393
595.70 1.083038
595.80 1.182019
595.90 1.261832
596.00 1.322191
596.10 1.366044
596.20 1.397064
596.30 1.415181
596.40 1.419327
596.50 1.419327
596.60 1.419327
596.70 1.419327
596.80 1.419327
596.90 1.419327
597.00 1.419327
597.10 1.416876
597.20 1.405847
597.30 1.391316
597.40 1.376969
597.50 1.364492
597.60 1.35327
597.70 1.342839
597.80 1.336134
597.90 1.336134
598.00 1.336134
598.10 1.336134
598.20 1.336134
598.30 1.336134
598.40 1.336134
598.50 1.336134
598.60 1.336134
598.70 1.336134
598.80 1.325282
598.90 1.285692
599.00 1.2152
599.10 1.116728
599.20 0.9964675
599.30 0.8670064
599.40 0.7497468
599.50 0.6569588
599.60 0.5962293
599.70 0.5699956
599.80 0.576274
599.90 0.6086137
600.00 0
600.10 0
600.20 0
600.30 0
600.40 0
600.50 0
600.60 0
600.70 0
600.80 0
600.90 0
601.00 0
601.10 0
601.20 0
601.30 0.200022
601.40 0.9347302
601.50 1.841554
601.60 2.773348
601.70 3.598594
601.80 4.210382
601.90 4.486093
602.00 4.342145
602.10 3.781283
602.20 2.86653
602.30 1.741583
602.40 0.6482219
602.50 0
602.60 0
602.70 0
602.80 0
602.90 0
603.00 0
603.10 0.255316
603.20 0.4175863
603.30 0.4549859
603.40 0.4411255
603.50 0.4843134
603.60 0.6524517
603.70 0.9357873
603.80 1.244467
603.90 1.437176
604.00 1.400311
604.10 1.111552
604.20 0.6223563
604.30 0.02326028
604.40 0
604.50 0
604.60 0
604.70 0
604.80 0
604.90 0.2226456
605.00 0.6801352
605.10 0.9514295
605.20 0.9580016
605.30 0.7141085
605.40 0.2768967
605.50 0
605.60 0
605.70 0
605.80 0
605.90 0
606.00 0
606.10 0
606.20 0
606.30 0
606.40 0.7269256
606.50 1.77495
606.60 2.775112
606.70 3.62549
606.80 4.221796
606.90 4.485341
607.00 4.420462
607.10 4.120062
607.20 3.672483
607.30 3.112068
607.40 2.497432
607.50 1.93743
607.60 1.513055
607.70 1.194334
607.80 0.8906443
607.90 0.5947999
608.00 0.362827
608.10 0.186969
608.20 0.08026376
608.30 0.1413093
608.40 0.4430279
608.50 0.8896332
608.60 1.309272
608.70 1.637703
608.80 1.874953
608.90 2.024984
609.00 2.094977
609.10 2.156848
609.20 2.32127
609.30 2.590403
609.40 2.863224
609.50 3.074212
609.60 3.178574
609.70 3.107927
609.80 2.809687
609.90 2.333682
610.00 1.812946
610.10 1.358002
610.20 1.006686
610.30 0.7221478
610.40 0.4527379
610.50 0.1506348
610.60 0
610.70 0
610.80 0
610.90 0
611.00 0
611.10 0
611.20 0.4781993
611.30 1.221836
611.40 1.837804
611.50 2.154654
611.60 2.107406
611.70 1.762771
611.80 1.250028
611.90 0.7122591
612.00 0.2542063
612.10 0
612.20 0
612.30 0
612.40 0
612.50 0
612.60 0
612.70 0
612.80 0
612.90 0
613.00 0
613.10 0
613.20 0
613.30 0
613.40 0
613.50 0
613.60 0
613.70 0
613.80 0
613.90 0
614.00 0
614.10 0.3416564
614.20 0.6893746
614.30 0.9875836
614.40 1.256982
614.50 1.541281
614.60 1.851805
614.70 2.165889
614.80 2.469594
614.90 2.759693
615.00 2.990817
615.10 3.074882
615.20 2.953396
615.30 2.65376
615.40 2.219455
615.50 1.67645
615.60 1.071554
615.70 0.4741371
615.80 0
615.90 0
616.00 0
616.10 0
616.20 0
616.30 0
616.40 0
616.50 0
616.60 0
616.70 0.1862124
616.80 0.4115104
616.90 0.3894644
617.00 0.1757176
617.10 0
617.20 0
617.30 0
617.40 0
617.50 0.006481331
617.60 0.3472535
617.70 0.7436094
617.80 1.123456
617.90 1.397903
618.00 1.539681
618.10 1.573928
618.20 1.549611
618.30 1.503727
618.40 1.41788
618.50 1.265697
618.60 1.099787
618.70 1.034574
618.80 1.190177
618.90 1.61129
619.00 2.259644
619.10 2.986629
619.20 3.623077
619.30 4.094631
619.40 4.359825
619.50 4.429308
619.60 4.354141
619.70 4.21306
619.80 4.114453
619.90 4.132908
620.00 4.256632
620.10 4.400515
620.20 4.463565
620.30 4.404251
620.40 4.217363
620.50 3.955234
620.60 3.721576
620.70 3.549512
620.80 3.434003
620.90 3.352403
621.00 3.231313
621.10 2.98864
621.20 2.602389
621.30 2.119642
621.40 1.621138
621.50 1.192163
621.60 0.9204494
621.70 0.8851049
621.80 1.109371
621.90 1.538714
622.00 2.057867
622.10 2.581422
622.20 3.053205
622.30 3.414778
622.40 3.659162
622.50 3.801009
622.60 3.844314
622.70 3.785307
622.80 3.632008
622.90 3.413012
623.00 3.12048
623.10 2.710605
623.20 2.205525
623.30 1.704848
623.40 1.310562
623.50 1.067649
623.60 0.9917184
623.70 1.096184
623.80 1.347914
623.90 1.674732
624.00 1.939694
624.10 2.051763
624.20 2.039763
624.30 1.965704
624.40 1.852358
624.50 1.685014
624.60 1.451519
624.70 1.122727
624.80 0.7035441
624.90 0.2367758
625.00 0
625.10 0
625.20 0
625.30 0
625.40 0
625.50 0
625.60 0
625.70 0
625.80 0.09888988
625.90 1.125572
626.00 2.094005
626.10 2.88509
626.20 3.397361
626.30 3.591289
626.40 3.521839
626.50 3.323637
626.60 3.156686
626.70 3.075664
626.80 3.04403
626.90 2.978937
627.00 2.78363
627.10 2.405975
627.20 1.828235
627.30 1.124648
627.40 0.4216155
627.50 0
627.60 0
627.70 0
627.80 0.5447721
627.90 1.441948
628.00 2.400345
628.10 3.279871
628.20 4.012042
628.30 4.584273
628.40 4.956442
628.50 5.046232
628.60 4.869173
628.70 4.52715
628.80 4.115355
628.90 3.652583
629.00 3.154709
629.10 2.687673
629.20 2.311772
629.30 2.066699
629.40 1.919414
629.50 1.777643
629.60 1.591753
629.70 1.405603
629.80 1.312555
629.90 1.391702
630.00 1.674187
630.10 2.126417
630.20 2.66407
630.30 3.208896
630.40 3.644559
630.50 3.822196
630.60 3.680078
630.70 3.279435
630.80 2.772205
630.90 2.304458
631.00 1.941049
631.10 1.681904
631.20 1.504023
631.30 1.396107
631.40 1.318134
631.50 1.217092
631.60 1.110692
631.70 1.052337
631.80 1.090961
631.90 1.263931
632.00 1.550246
632.10 1.853734
632.20 2.080935
632.30 2.21967
632.40 2.302686
632.50 2.329828
632.60 2.302355
632.70 2.290914
632.80 2.361825
632.90 2.533153
633.00 2.786463
633.10 3.059521
633.20 3.294319
633.30 3.438197
633.40 3.4324
633.50 3.266777
633.60 2.980915
633.70 2.615639
633.80 2.183525
633.90 1.685604
634.00 1.177805
634.10 0.7228551
634.20 0.3766831
634.30 0.1712574
634.40 0.09237194
634.50 0.140816
634.60 0.3198813
634.70 0.6177385
634.80 1.023607
634.90 1.512207
635.00 2.01395
635.10 2.439044
635.20 2.74192
635.30 2.934435
635.40 3.01646
635.50 2.955008
635.60 2.731791
635.70 2.400278
635.80 2.051688
635.90 1.739342
636.00 1.474499
636.10 1.262513
636.20 1.132414
636.30 1.142243
636.40 1.34617
636.50 1.73094
636.60 2.213978
636.70 2.691171
636.80 3.053683
636.90 3.219594
637.00 3.154149
637.10 2.857125
637.20 2.373585
637.30 1.801232
637.40 1.283582
637.50 0.9805181
637.60 0.9643306
637.70 1.201536
637.80 1.639488
637.90 2.229108
638.00 2.896
638.10 3.546568
638.20 4.110538
638.30 4.548547
638.40 4.855049
638.50 5.041551
638.60 5.136696
638.70 5.183558
638.80 5.199401
638.90 5.15965
639.00 5.043912
639.10 4.831567
639.20 4.475708
639.30 3.964218
639.40 3.377855
639.50 2.838807
639.60 2.419946
639.70 2.137088
639.80 1.969967
639.90 1.867604
640.00 1.769567
640.10 1.629642
640.20 1.420156
640.30 1.118396
640.40 0.7268428
640.50 0.3165805
640.60 0.003488778
640.70 0
640.80 0
640.90 0.1582745
641.00 0.4423239
641.10 0.7524509
641.20 1.056323
641.30 1.361341
641.40 1.672782
641.50 1.97849
641.60 2.25915
641.70 2.501804
641.80 2.704936
641.90 2.829193
642.00 2.80391
642.10 2.593504
642.20 2.228956
642.30 1.778455
642.40 1.332673
642.50 0.9878907
642.60 0.8218539
642.70 0.8689132
642.80 1.131986
642.90 1.581514
643.00 2.142766
643.10 2.700283
643.20 3.137188
643.30 3.414515
643.40 3.543293
643.50 3.534842
643.60 3.416704
643.70 3.256558
643.80 3.13701
643.90 3.120276
644.00 3.208446
644.10 3.347582
644.20 3.449737
644.30 3.42749
644.40 3.234259
644.50 2.882488
644.60 2.452877
644.70 2.043648
644.80 1.752493
644.90 1.651293
645.00 1.740688
645.10 1.944423
645.20 2.186018
645.30 2.401798
645.40 2.553228
645.50 2.668992
645.60 2.78916
645.70 2.9343
645.80 3.151745
645.90 3.471189
646.00 3.830761
646.10 4.135345
646.20 4.304044
646.30 4.299277
646.40 4.138407
646.50 3.89177
646.60 3.625455
646.70 3.379287
646.80 3.163073
646.90 2.920124
647.00 2.633504
647.10 2.365273
647.20 2.132492
647.30 1.907004
647.40 1.691071
647.50 1.524694
647.60 1.487616
647.70 1.625458
647.80 1.906699
647.90 2.263114
648.00 2.608457
648.10 2.885221
648.20 3.099816
648.30 3.325495
648.40 3.622239
648.50 3.986976
648.60 4.388635
648.70 4.797493
648.80 5.176515
648.90 5.442958
649.00 5.512341
649.10 5.372878
649.20 5.100531
649.30 4.79091
649.40 4.494785
649.50 4.201925
649.60 3.881838
649.70 3.534319
649.80 3.147628
649.90 2.71214
650.00 2.289214
650.10 1.973977
650.20 1.862437
650.30 2.040791
650.40 2.535383
650.50 3.299972
650.60 4.174313
650.70 4.940167
650.80 5.454518
650.90 5.667101
651.00 5.585429
651.10 5.245837
651.20 4.749247
651.30 4.212773
651.40 3.726126
651.50 3.417246
651.60 3.351275
651.70 3.46958
651.80 3.661436
651.90 3.807908
652.00 3.86683
652.10 3.87478
652.20 3.879795
652.30 3.914856
652.40 4.002931
652.50 4.144104
652.60 4.314466
652.70 4.505035
652.80 4.693992
652.90 4.819405
653.00 4.892568
653.10 5.006917
653.20 5.194005
653.30 5.405483
653.40 5.560935
653.50 5.579595
653.60 5.434374
653.70 5.155634
653.80 4.806861
653.90 4.5156
654.00 4.387268
654.10 4.445669
654.20 4.675746
654.30 5.016181
654.40 5.355188
654.50 5.569149
654.60 5.618096
654.70 5.556278
654.80 5.485867
654.90 5.490323
655.00 5.556259
655.10 5.65318
655.20 5.771205
655.30 5.84
655.40 5.796786
655.50 5.642397
655.60 5.402362
655.70 5.143446
655.80 4.89405
655.90 4.629202
656.00 4.367473
656.10 4.141144
656.20 3.955815
656.30 3.812975
656.40 3.752244
656.50 3.80332
656.60 3.946176
656.70 4.156437
656.80 4.407141
656.90 4.665287
657.00 4.917976
657.10 5.129085
657.20 5.283464
657.30 5.401939
657.40 5.444259
657.50 5.346043
657.60 5.081584
657.70 4.696272
657.80 4.280657
657.90 3.914176
658.00 3.652054
658.10 3.554585
658.20 3.672029
658.30 3.974672
658.40 4.380953
658.50 4.801684
658.60 5.124071
658.70 5.242466
658.80 5.130848
658.90 4.898187
659.00 4.72848
659.10 4.741611
659.20 4.960901
659.30 5.388867
659.40 6.030267
659.50 6.806568
659.60 7.575422
659.70 8.210189
659.80 8.607378
659.90 8.675782
660.00 8.414086
660.10 7.97617
660.20 7.535618
660.30 7.15469
660.40 6.807188
660.50 6.463864
660.60 6.13537
660.70 5.856804
660.80 5.640751
660.90 5.486441
661.00 5.393456
661.10 5.365237
661.20 5.406822
661.30 5.516297
661.40 5.671413
661.50 5.798667
661.60 5.817989
661.70 5.692175
661.80 5.435916
661.90 5.118238
662.00 4.847722
662.10 4.719328
662.20 4.788532
662.30 5.069171
662.40 5.534743
662.50 6.106196
662.60 6.641303
662.70 7.016386
662.80 7.206001
662.90 7.238018
663.00 7.144473
663.10 6.966245
663.20 6.741281
663.30 6.485199
663.40 6.186826
663.50 5.819799
663.60 5.404426
663.70 5.011093
663.80 4.691872
663.90 4.495707
664.00 4.45764
664.10 4.60488
664.20 4.915686
664.30 5.308718
664.40 5.70792
664.50 6.056625
664.60 6.332515
664.70 6.527931
664.80 6.630216
664.90 6.640072
665.00 6.561188
665.10 6.388703
665.20 6.137058
665.30 5.842558
665.40 5.568393
665.50 5.374169
665.60 5.329389
665.70 5.484757
665.80 5.826843
665.90 6.261921
666.00 6.633943
666.10 6.828842
666.20 6.83852
666.30 6.703585
666.40 6.426689
666.50 6.056229
666.60 5.697246
666.70 5.424472
666.80 5.282445
666.90 5.300304
667.00 5.448077
667.10 5.647304
667.20 5.84011
667.30 6.041213
667.40 6.310212
667.50 6.654384
667.60 6.990795
667.70 7.23347
667.80 7.380466
667.90 7.435264
668.00 7.411848
668.10 7.385391
668.20 7.463516
668.30 7.723777
668.40 8.164981
668.50 8.726773
668.60 9.306359
668.70 9.752064
668.80 9.918851
668.90 9.754429
669.00 9.307143
669.10 8.690131
669.20 8.044062
669.30 7.50535
669.40 7.167646
669.50 7.04821
669.60 7.086218
669.70 7.198959
669.80 7.333276
669.90 7.427566
670.00 7.435144
670.10 7.367662
670.20 7.24641
670.30 7.114226
670.40 7.056156
670.50 7.164455
670.60 7.468058
670.70 7.899004
670.80 8.360436
670.90 8.769078
671.00 9.054225
671.10 9.142655
671.20 8.999033
671.30 8.701117
671.40 8.356298
671.50 8.048413
671.60 7.849095
671.70 7.781909
671.80 7.812859
671.90 7.848987
672.00 7.815221
672.10 7.722962
672.20 7.601071
672.30 7.495722
672.40 7.486437
672.50 7.613139
672.60 7.826204
672.70 8.022559
672.80 8.137287
672.90 8.149494
673.00 8.11192
673.10 8.099581
673.20 8.120101
673.30 8.151756
673.40 8.154693
673.50 8.06602
673.60 7.8519
673.70 7.50284
673.80 7.011086
673.90 6.446811
674.00 5.954033
674.10 5.678925
674.20 5.715198
674.30 6.084896
674.40 6.699609
674.50 7.403206
674.60 8.081096
674.70 8.614768
674.80 8.891841
674.90 8.87063
675.00 8.569249
675.10 8.067852
675.20 7.504764
675.30 7.032452
675.40 6.769623
675.50 6.749267
675.60 6.920655
675.70 7.1889
675.80 7.458517
675.90 7.6604
676.00 7.72886
676.10 7.649817
676.20 7.485525
676.30 7.325858
676.40 7.203702
676.50 7.112747
676.60 7.090916
676.70 7.159782
676.80 7.305016
676.90 7.514721
677.00 7.744462
677.10 7.916314
677.20 8.01278
677.30 8.0828
677.40 8.180672
677.50 8.350849
677.60 8.585878
677.70 8.834569
677.80 9.095315
677.90 9.398764
678.00 9.72135
678.10 9.979593
678.20 10.06033
678.30 9.878034
678.40 9.448331
678.50 8.874764
678.60 8.24367
678.70 7.614569
678.80 7.071828
678.90 6.710478
679.00 6.607986
679.10 6.787614
679.20 7.20988
679.30 7.769879
679.40 8.297743
679.50 8.645821
679.60 8.751097
679.70 8.640376
679.80 8.396498
679.90 8.115601
680.00 7.865632
680.10 7.677238
680.20 7.558858
680.30 7.512352
680.40 7.558795
680.50 7.713982
680.60 7.942089
680.70 8.170063
680.80 8.370381
680.90 8.533915
681.00 8.619514
681.10 8.588209
681.20 8.422544
681.30 8.129559
681.40 7.76794
681.50 7.429733
681.60 7.218751
681.70 7.217012
681.80 7.438086
681.90 7.848518
682.00 8.381266
682.10 8.949631
682.20 9.454932
682.30 9.842232
682.40 10.1255
682.50 10.26816
682.60 10.21055
682.70 9.953159
682.80 9.535486
682.90 9.055754
683.00 8.596236
683.10 8.181405
683.20 7.837784
683.30 7.618162
683.40 7.593941
683.50 7.804398
683.60 8.205958
683.70 8.667986
683.80 9.030118
683.90 9.217905
684.00 9.233837
684.10 9.096524
684.20 8.865692
684.30 8.604481
684.40 8.411952
684.50 8.411971
684.60 8.636076
684.70 9.019982
684.80 9.443671
684.90 9.761262
685.00 9.864223
685.10 9.717097
685.20 9.34243
685.30 8.823259
685.40 8.268648
685.50 7.776139
685.60 7.415984
685.70 7.231019
685.80 7.214021
685.90 7.317538
686.00 7.532819
686.10 7.823683
686.20 8.089083
686.30 8.305932
686.40 8.494815
686.50 8.633751
686.60 8.71362
686.70 8.738822
686.80 8.737904
686.90 8.766515
687.00 8.866948
687.10 9.011739
687.20 9.118748
687.30 9.120149
687.40 8.97007
687.50 8.692932
687.60 8.419641
687.70 8.251765
687.80 8.22845
687.90 8.388557
688.00 8.715275
688.10 9.140262
688.20 9.561912
688.30 9.859994
688.40 9.936257
688.50 9.77078
688.60 9.423145
688.70 8.966562
688.80 8.45409
688.90 7.939884
689.00 7.468224
689.10 7.054866
689.20 6.723243
689.30 6.505152
689.40 6.441803
689.50 6.55054
689.60 6.803341
689.70 7.144386
689.80 7.50111
689.90 7.79931
690.00 7.98228
690.10 8.036988
690.20 8.000727
690.30 7.914774
690.40 7.859794
690.50 7.953652
690.60 8.240528
690.70 8.696844
690.80 9.25501
690.90 9.813682
691.00 10.26386
691.10 10.55107
691.20 10.68457
691.30 10.67407
691.40 10.51597
691.50 10.20705
691.60 9.763062
691.70 9.245828
691.80 8.719165
691.90 8.235507
692.00 7.865365
692.10 7.650087
692.20 7.635431
692.30 7.818805
692.40 8.118017
692.50 8.449373
692.60 8.729195
692.70 8.900355
692.80 8.974722
692.90 9.019706
693.00 9.104865
693.10 9.22611
693.20 9.295552
693.30 9.234208
693.40 9.023488
693.50 8.693817
693.60 8.234259
693.70 7.658284
693.80 7.093104
693.90 6.669725
694.00 6.481588
694.10 6.57759
694.20 6.922145
694.30 7.420766
694.40 7.988089
694.50 8.539378
694.60 8.995638
694.70 9.30705
694.80 9.464561
694.90 9.515561
695.00 9.530395
695.10 9.555972
695.20 9.600192
695.30 9.642535
695.40 9.661902
695.50 9.671019
695.60 9.690849
695.70 9.710859
695.80 9.675953
695.90 9.586629
696.00 9.528795
696.10 9.549338
696.20 9.601492
696.30 9.605492
696.40 9.526474
696.50 9.338448
696.60 9.042006
696.70 8.701478
696.80 8.385819
696.90 8.129459
697.00 7.937466
697.10 7.81694
697.20 7.782928
697.30 7.858507
697.40 8.009665
697.50 8.180403
697.60 8.373395
697.70 8.575039
697.80 8.75186
697.90 8.913161
698.00 9.051544
698.10 9.11611
698.20 9.063461
698.30 8.870899
698.40 8.575962
698.50 8.247607
698.60 7.948062
698.70 7.691803
698.80 7.481015
698.90 7.309918
699.00 7.14122
699.10 6.963249
699.20 6.800595
699.30 6.696636
699.40 6.647596
699.50 6.632497
699.60 6.684281
699.70 6.834445
699.80 7.066721
699.90 7.367036
700.00 7.705015
700.10 8.03387
700.20 8.309778
700.30 8.486352
700.40 8.537075
700.50 8.464793
700.60 8.289042
700.70 8.037771
700.80 7.795728
700.90 7.639963
701.00 7.566843
701.10 7.577311
701.20 7.699763
701.30 7.929025
701.40 8.224642
701.50 8.517281
701.60 8.738044
701.70 8.856529
701.80 8.893918
701.90 8.897776
702.00 8.897202
702.10 8.905407
702.20 8.912401
702.30 8.90541
702.40 8.875972
702.50 8.795943
702.60 8.662935
702.70 8.497085
702.80 8.330024
702.90 8.229029
703.00 8.259947
703.10 8.450095
703.20 8.754368
703.30 9.072833
703.40 9.309462
703.50 9.413681
703.60 9.405588
703.70 9.324296
703.80 9.193794
703.90 9.057056
704.00 8.927477
704.10 8.791549
704.20 8.66378
704.30 8.574049
704.40 8.564205
704.50 8.673892
704.60 8.917231
704.70 9.266323
704.80 9.656297
704.90 10.00377
705.00 10.2177
705.10 10.24334
705.20 10.10634
705.30 9.862304
705.40 9.549036
705.50 9.21309
705.60 8.94124
705.70 8.809096
705.80 8.816472
705.90 8.913085
706.00 9.040704
706.10 9.191547
706.20 9.406537
706.30 9.684526
706.40 9.937283
706.50 10.10567
706.60 10.20796
706.70 10.25747
706.80 10.29587
706.90 10.37482
707.00 10.47242
707.10 10.53585
707.20 10.52662
707.30 10.44588
707.40 10.34748
707.50 10.26039
707.60 10.17264
707.70 10.10421
707.80 10.11991
707.90 10.23138
708.00 10.38783
708.10 10.54328
708.20 10.6402
708.30 10.6349
708.40 10.52915
708.50 10.34419
708.60 10.15449
708.70 10.04689
708.80 10.03508
708.90 10.09166
709.00 10.18055
709.10 10.27446
709.20 10.39752
709.30 10.59889
709.40 10.85459
709.50 11.0835
709.60 11.24012
709.70 11.30901
709.80 11.3059
709.90 11.2863
710.00 11.2852
710.10 11.30833
710.20 11.37295
710.30 11.51364
710.40 11.75516
710.50 12.08338
710.60 12.43018
710.70 12.68803
710.80 12.7794
710.90 12.70779
711.00 12.51351
711.10 12.2574
711.20 11.98577
711.30 11.69759
711.40 11.4086
711.50 11.17303
711.60 11.05407
711.70 11.0734
711.80 11.19261
711.90 11.36002
712.00 11.52585
712.10 11.63897
712.20 11.65352
712.30 11.53618
712.40 11.32318
712.50 11.0991
712.60 10.94095
712.70 10.92509
712.80 11.07933
712.90 11.33899
713.00 11.60372
713.10 11.82962
713.20 12.01307
713.30 12.12921
713.40 12.1601
713.50 12.12122
713.60 12.05568
713.70 11.99564
713.80 11.91283
713.90 11.75732
714.00 11.49786
714.10 11.13322
714.20 10.69485
714.30 10.24126
714.40 9.822288
714.50 9.429757
714.60 9.038174
714.70 8.660467
714.80 8.341113
714.90 8.129845
715.00 8.053695
715.10 8.126076
715.20 8.370217
715.30 8.765716
715.40 9.239787
715.50 9.698692
715.60 10.03729
715.70 10.19647
715.80 10.18136
715.90 10.05218
716.00 9.903194
716.10 9.807757
716.20 9.800933
716.30 9.874761
716.40 9.998518
716.50 10.1515
716.60 10.28311
716.70 10.3335
716.80 10.29379
716.90 10.18924
717.00 10.0629
717.10 9.965295
717.20 9.972151
717.30 10.14772
717.40 10.51184
717.50 11.03125
717.60 11.60352
717.70 12.11802
717.80 12.49037
717.90 12.65766
718.00 12.59286
718.10 12.31474
718.20 11.88021
718.30 11.39412
718.40 11.00389
718.50 10.83995
718.60 10.93952
718.70 11.2493
718.80 11.7009
718.90 12.2586
719.00 12.8958
719.10 13.56731
719.20 14.20438
719.30 14.71166
719.40 14.98983
719.50 14.97677
719.60 14.67552
719.70 14.14433
719.80 13.46704
719.90 12.73562
720.00 12.05768
720.10 11.54562
720.20 11.27625
720.30 11.24479
720.40 11.38347
720.50 11.5857
720.60 11.74981
720.70 11.8344
720.80 11.83595
720.90 11.76751
721.00 11.63922
721.10 11.44818
721.20 11.20792
721.30 10.96331
721.40 10.76568
721.50 10.64929
721.60 10.58735
721.70 10.50769
721.80 10.37352
721.90 10.2339
722.00 10.19162
722.10 10.28277
722.20 10.46106
722.30 10.67922
722.40 10.91611
722.50 11.15509
722.60 11.36114
722.70 11.47887
722.80 11.46371
722.90 11.30488
723.00 11.0325
723.10 10.73863
723.20 10.52767
723.30 10.41687
723.40 10.30685
723.50 10.12276
723.60 9.914831
723.70 9.742866
723.80 9.671303
723.90 9.808741
724.00 10.20353
724.10 10.82727
724.20 11.64128
724.30 12.5644
724.40 13.46147
724.50 14.19008
724.60 14.6017
724.70 14.5748
724.80 14.08409
724.90 13.20673
725.00 12.13087
725.10 11.11188
725.20 10.30149
725.30 9.736071
725.40 9.476585
725.50 9.603323
725.60 10.08408
725.70 10.79028
725.80 11.56578
725.90 12.22196
726.00 12.61976
726.10 12.74494
726.20 12.70428
726.30 12.62902
726.40 12.52866
726.50 12.33816
726.60 12.06325
726.70 11.76628
726.80 11.47605
726.90 11.18783
727.00 10.94266
727.10 10.83876
727.20 10.97222
727.30 11.39621
727.40 12.08342
727.50 12.92783
727.60 13.75896
727.70 14.38175
727.80 14.65046
727.90 14.52409
728.00 14.06269
728.10 13.40701
728.20 12.74555
728.30 12.23251
728.40 11.92087
728.50 11.7836
728.60 11.76853
728.70 11.81974
728.80 11.85417
728.90 11.74447
729.00 11.37204
729.10 10.6809
729.20 9.727243
729.30 8.697685
729.40 7.828163
729.50 7.29119
729.60 7.18862
729.70 7.546946
729.80 8.269677
729.90 9.126499
730.00 9.836878
730.10 10.16804
730.20 10.00466
730.30 9.409369
730.40 8.583155
730.50 7.782504
730.60 7.228765
730.70 7.034891
730.80 7.214781
730.90 7.712724
731.00 8.383904
731.10 9.036778
731.20 9.498143
731.30 9.679107
731.40 9.619719
731.50 9.472181
731.60 9.427473
731.70 9.603156
731.80 10.01395
731.90 10.59766
732.00 11.25824
732.10 11.86605
732.20 12.26676
732.30 12.32849
732.40 12.03259
732.50 11.46604
732.60 10.79494
732.70 10.19645
732.80 9.759594
732.90 9.503934
733.00 9.381638
733.10 9.313269
733.20 9.252303
733.30 9.200084
733.40 9.148172
733.50 9.039816
733.60 8.799087
733.70 8.4107
733.80 7.990167
733.90 7.722844
734.00 7.732672
734.10 8.062888
734.20 8.687129
734.30 9.473213
734.40 10.21986
734.50 10.738
734.60 10.88097
734.70 10.59481
734.80 9.957105
734.90 9.17975
735.00 8.563411
735.10 8.342272
735.20 8.511091
735.30 8.894907
735.40 9.307089
735.50 9.60825
735.60 9.713367
735.70 9.607377
735.80 9.374839
735.90 9.144589
736.00 9.005166
736.10 8.939804
736.20 8.884136
736.30 8.797836
736.40 8.675922
736.50 8.558986
736.60 8.47278
736.70 8.409768
736.80 8.389142
736.90 8.446294
737.00 8.591862
737.10 8.783497
737.20 8.94424
737.30 9.005133
737.40 8.966797
737.50 8.913288
737.60 8.929253
737.70 9.038172
737.80 9.186265
737.90 9.280406
738.00 9.278005
738.10 9.195955
738.20 9.06705
738.30 8.938492
738.40 8.877916
738.50 8.947306
738.60 9.182281
738.70 9.581752
738.80 10.07704
738.90 10.58472
739.00 11.07166
739.10 11.5134
739.20 11.84172
739.30 11.95579
739.40 11.78993
739.50 11.37336
739.60 10.81874
739.70 10.24025
739.80 9.69826
739.90 9.246148
740.00 8.914974
740.10 8.694911
740.20 8.570531
740.30 8.516948
740.40 8.470672
740.50 8.354637
740.60 8.158158
740.70 7.955954
740.80 7.837819
740.90 7.825525
741.00 7.85681
741.10 7.845071
741.20 7.737999
741.30 7.495561
741.40 7.116728
741.50 6.660994
741.60 6.220885
741.70 5.885606
741.80 5.714206
741.90 5.756381
742.00 6.025502
742.10 6.453293
742.20 6.925593
742.30 7.343547
742.40 7.670298
742.50 7.929693
742.60 8.148672
742.70 8.362147
742.80 8.617957
742.90 8.910474
743.00 9.163804
743.10 9.300558
743.20 9.296116
743.30 9.176733
743.40 9.028294
743.50 8.988077
743.60 9.146226
743.70 9.528957
743.80 10.04941
743.90 10.53158
744.00 10.84848
744.10 10.88369
744.20 10.54991
744.30 9.91099
744.40 9.144972
744.50 8.419639
744.60 7.841842
744.70 7.451322
744.80 7.218044
744.90 7.06061
745.00 6.931687
745.10 6.797486
745.20 6.640327
745.30 6.494461
745.40 6.399928
745.50 6.423567
745.60 6.607301
745.70 6.868405
745.80 7.077023
745.90 7.150205
746.00 7.014858
746.10 6.654816
746.20 6.162766
746.30 5.664066
746.40 5.258651
746.50 5.010297
746.60 4.943865
746.70 5.045264
746.80 5.278466
746.90 5.61433
747.00 6.034429
747.10 6.538577
747.20 7.097187
747.30 7.637169
747.40 8.114624
747.50 8.491401
747.60 8.67415
747.70 8.581628
747.80 8.182762
747.90 7.534001
748.00 6.811734
748.10 6.237708
748.20 5.959343
748.30 5.988873
748.40 6.253325
748.50 6.634456
748.60 6.98703
748.70 7.1736
748.80 7.115934
748.90 6.798271
749.00 6.267333
749.10 5.627213
749.20 5.033153
749.30 4.640089
749.40 4.52219
749.50 4.648743
749.60 4.945014
749.70 5.314472
749.80 5.609512
749.90 5.699474
750.00 5.557244
750.10 5.259676
750.20 4.918556
750.30 4.613227
750.40 4.38344
750.50 4.256461
750.60 4.245673
750.70 4.329673
750.80 4.464291
750.90 4.609617
751.00 4.735941
751.10 4.824856
751.20 4.874932
751.30 4.890768
751.40 4.853061
751.50 4.709077
751.60 4.407138
751.70 3.946907
751.80 3.42031
751.90 2.978067
752.00 2.697009
752.10 2.560745
752.20 2.591218
752.30 2.842291
752.40 3.271293
752.50 3.771484
752.60 4.249276
752.70 4.625222
752.80 4.849924
752.90 4.921036
753.00 4.864174
753.10 4.733345
753.20 4.584296
753.30 4.449416
753.40 4.412361
753.50 4.590264
753.60 4.968477
753.70 5.388899
753.80 5.695076
753.90 5.787493
754.00 5.630211
754.10 5.2685
754.20 4.795495
754.30 4.297632
754.40 3.867026
754.50 3.614717
754.60 3.602657
754.70 3.81286
754.80 4.162579
754.90 4.535341
755.00 4.814801
755.10 4.920886
755.20 4.846876
755.30 4.653682
755.40 4.427974
755.50 4.23507
755.60 4.129743
755.70 4.166927
755.80 4.360735
755.90 4.676093
756.00 5.047542
756.10 5.38785
756.20 5.64641
756.30 5.813258
756.40 5.896723
756.50 5.952999
756.60 6.045353
756.70 6.190323
756.80 6.371999
756.90 6.569624
757.00 6.74913
757.10 6.875043
757.20 6.936959
757.30 6.922297
757.40 6.817844
757.50 6.613043
757.60 6.307523
757.70 5.929729
757.80 5.512416
757.90 5.074606
758.00 4.603007
758.10 4.099398
758.20 3.614861
758.30 3.204631
758.40 2.91906
758.50 2.794505
758.60 2.820749
758.70 2.946863
758.80 3.13577
758.90 3.386968
759.00 3.675017
759.10 3.948102
759.20 4.206738
759.30 4.470983
759.40 4.819957
759.50 5.338552
759.60 6.013809
759.70 6.745095
759.80 7.40866
759.90 7.902216
760.00 8.13126
760.10 7.991795
760.20 7.411318
760.30 6.468345
760.40 5.335443
760.50 4.189752
760.60 3.173624
760.70 2.415774
760.80 1.996646
760.90 1.915077
761.00 2.113263
761.10 2.473336
761.20 2.820719
761.30 2.993194
761.40 2.931115
761.50 2.738294
761.60 2.606901
761.70 2.668514
761.80 2.969735
761.90 3.492418
762.00 4.159366
762.10 4.809957
762.20 5.217
762.30 5.234452
762.40 4.859531
762.50 4.175962
762.60 3.320466
762.70 2.460591
762.80 1.764016
762.90 1.335098
763.00 1.179619
763.10 1.211867
763.20 1.347254
763.30 1.529182
763.40 1.695788
763.50 1.794288
763.60 1.813273
763.70 1.71695
763.80 1.460321
763.90 1.113438
764.00 0.8128751
764.10 0.6407256
764.20 0.6170819
764.30 0.7462857
764.40 0.9982081
764.50 1.28595
764.60 1.502765
764.70 1.58711
764.80 1.546663
764.90 1.43811
765.00 1.325678
765.10 1.277289
765.20 1.330789
765.30 1.428592
765.40 1.452809
765.50 1.354822
765.60 1.146452
765.70 0.8277842
765.80 0.4512822
765.90 0.1573302
766.00 0.07739887
766.10 0.2505829
766.20 0.6426945
766.30 1.176086
766.40 1.744289
766.50 2.207155
766.60 2.413133
766.70 2.302739
766.80 1.948004
766.90 1.442473
767.00 0.8738496
767.10 0.3574621
767.20 0
767.30 0
767.40 0
767.50 0
767.60 0.3221302
767.70 0.7157264
767.80 1.11495
767.90 1.499459
768.00 1.917233
768.10 2.396944
768.20 2.868766
768.30 3.238502
768.40 3.45556
768.50 3.509471
768.60 3.437654
768.70 3.298197
768.80 3.123049
768.90 2.927209
769.00 2.736743
769.10 2.588978
769.20 2.533561
769.30 2.604834
769.40 2.728379
769.50 2.785248
769.60 2.736811
769.70 2.578424
769.80 2.32979
769.90 2.049586
770.00 1.793537
770.10 1.617899
770.20 1.563003
770.30 1.601653
770.40 1.649887
770.50 1.601936
770.60 1.282686
770.70 0.50077
770.80 0
770.90 0
771.00 0
771.10 0
771.20 0
771.30 0
771.40 0
771.50 0
771.60 0
771.70 1.143109
771.80 2.310797
771.90 2.980837
772.00 3.162176
772.10 2.949105
772.20 2.470086
772.30 1.85572
772.40 1.205926
772.50 0.5789695
772.60 0.02728622
772.70 0
772.80 0
772.90 0
773.00 0.7474241
773.10 1.661034
773.20 2.551478
773.30 3.237118
773.40 3.621567
773.50 3.726517
773.60 3.615927
773.70 3.366014
773.80 3.057585
773.90 2.762331
774.00 2.510092
774.10 2.311985
774.20 2.139435
774.30 1.952802
774.40 1.736485
774.50 1.486351
774.60 1.278126
774.70 1.138051
774.80 1.019299
774.90 0.9739149
775.00 1.140523
775.10 1.588381
775.20 2.27945
775.30 3.099308
775.40 3.840013
775.50 4.250799
775.60 4.159622
775.70 3.553865
775.80 2.625089
775.90 1.62706
776.00 0.681492
776.10 0
776.20 0
776.30 0
776.40 0.136839
776.50 0.6957685
776.60 1.272149
776.70 1.716962
776.80 1.954875
776.90 2.086591
777.00 2.239258
777.10 2.444181
777.20 2.683158
777.30 2.961491
777.40 3.332591
777.50 3.810991
777.60 4.371873
777.70 4.966657
777.80 5.449506
777.90 5.678087
778.00 5.594031
778.10 5.24741
778.20 4.748432
778.30 4.187958
778.40 3.694028
778.50 3.371283
778.60 3.190534
778.70 3.035789
778.80 2.885227
778.90 2.85907
779.00 2.957553
779.10 3.085034
779.20 3.261794
779.30 3.51982
779.40 3.795734
779.50 3.998274
779.60 4.076222
779.70 3.979956
779.80 3.652215
779.90 3.148731
780.00 2.657406
780.10 2.392658
780.20 2.410402
780.30 2.546502
780.40 2.677787
780.50 2.772496
780.60 2.782024
780.70 2.678388
780.80 2.513282
780.90 2.42286
781.00 2.526826
781.10 2.885206
781.20 3.497026
781.30 4.284218
781.40 5.111185
781.50 5.800917
781.60 6.192718
781.70 6.224367
781.80 5.92558
781.90 5.420833
782.00 4.894741
782.10 4.509072
782.20 4.41896
782.30 4.697769
782.40 5.304149
782.50 6.126454
782.60 7.004112
782.70 7.768061
782.80 8.259474
782.90 8.416651
783.00 8.313911
783.10 8.060676
783.20 7.740044
783.30 7.407846
783.40 7.114843
783.50 6.921238
783.60 6.838572
783.70 6.879194
783.80 7.057641
783.90 7.329681
784.00 7.638317
784.10 7.939526
784.20 8.193057
784.30 8.336919
784.40 8.330225
784.50 8.196988
784.60 7.985826
784.70 7.730773
784.80 7.474962
784.90 7.361174
785.00 7.687684
785.10 8.655943
785.20 10.22371
785.30 12.18221
785.40 14.17058
785.50 15.81652
785.60 16.86615
785.70 17.19673
785.80 16.78318
785.90 15.71633
786.00 14.23204
786.10 12.66471
786.20 11.34189
786.30 10.43713
786.40 9.845268
786.50 9.381949
786.60 8.986269
786.70 8.72501
786.80 8.735758
786.90 9.094592
787.00 9.776997
787.10 10.6474
787.20 11.44647
787.30 11.94864
787.40 12.05796
787.50 11.73126
787.60 11.01737
787.70 10.16201
787.80 9.493659
787.90 9.22448
788.00 9.42807
788.10 10.05905
788.20 10.95046
788.30 11.80993
788.40 12.36799
788.50 12.52343
788.60 12.35839
788.70 12.00072
788.80 11.54754
788.90 11.14548
789.00 10.93374
789.10 10.86351
789.20 10.78676
789.30 10.65679
789.40 10.47735
789.50 10.24316
789.60 10.0031
789.70 9.896404
789.80 10.02253
789.90 10.34491
790.00 10.76373
790.10 11.18761
790.20 11.54395
790.30 11.78665
790.40 11.8979
790.50 11.91509
790.60 11.89884
790.70 11.84163
790.80 11.64885
790.90 11.26429
791.00 10.7231
791.10 10.07251
791.20 9.352775
791.30 8.684118
791.40 8.222097
791.50 8.0447
791.60 8.17769
791.70 8.586683
791.80 9.187321
791.90 9.895042
792.00 10.60742
792.10 11.21929
792.20 11.72861
792.30 12.16361
792.40 12.53465
792.50 12.85673
792.60 13.06903
792.70 13.02102
792.80 12.58631
792.90 11.79038
793.00 10.81487
793.10 9.86495
793.20 9.144493
793.30 8.782674
793.40 8.792856
793.50 9.197146
793.60 9.959478
793.70 10.91768
793.80 11.80738
793.90 12.39904
794.00 12.61207
794.10 12.50885
794.20 12.16351
794.30 11.55397
794.40 10.61002
794.50 9.368431
794.60 7.96274
794.70 6.593931
794.80 5.536652
794.90 4.993069
795.00 5.042461
795.10 5.665042
795.20 6.746543
795.30 8.085242
795.40 9.485982
795.50 10.77894
795.60 11.85655
795.70 12.69598
795.80 13.28522
795.90 13.66583
796.00 13.91103
796.10 14.10073
796.20 14.34777
796.30 14.7049
796.40 15.17987
796.50 15.78072
796.60 16.50632
796.70 17.33884
796.80 18.19145
796.90 18.94205
797.00 19.50429
797.10 19.84619
797.20 19.99885
797.30 19.97896
797.40 19.74567
797.50 19.25802
797.60 18.52538
797.70 17.6094
797.80 16.59712
797.90 15.60086
798.00 14.72326
798.10 14.04993
798.20 13.67875
798.30 13.69748
798.40 14.09096
798.50 14.74391
798.60 15.51903
798.70 16.29445
798.80 16.97155
798.90 17.46872
799.00 17.6733
799.10 17.50666
799.20 17.06681
799.30 16.58551
799.40 16.21731
799.50 15.9528
799.60 15.74506
799.70 15.58645
799.80 15.53897
799.90 15.6999
800.00 16.1113
800.10 16.71896
800.20 17.43728
800.30 18.17358
800.40 18.84571
800.50 19.40513
800.60 19.74392
800.70 19.70264
800.80 19.30848
800.90 18.7896
801.00 18.34182
801.10 18.01077
801.20 17.80454
801.30 17.73236
801.40 17.73631
801.50 17.76468
801.60 17.79254
801.70 17.79995
801.80 17.74883
801.90 17.62854
802.00 17.48455
802.10 17.43435
802.20 17.52625
802.30 17.75621
802.40 18.15097
802.50 18.77956
802.60 19.6287
802.70 20.5343
802.80 21.36457
802.90 21.98557
803.00 22.2941
803.10 22.29687
803.20 22.06844
803.30 21.68749
803.40 21.24092
803.50 20.78228
803.60 20.41351
803.70 20.25083
803.80 20.32002
803.90 20.54367
804.00 20.7722
804.10 20.9249
804.20 21.02881
804.30 21.18906
804.40 21.46685
804.50 21.84448
804.60 22.32867
804.70 22.9358
804.80 23.61158
804.90 24.25851
805.00 24.76989
805.10 25.04494
805.20 25.04332
805.30 24.81971
805.40 24.50354
805.50 24.19723
805.60 23.89499
805.70 23.59875
805.80 23.37121
805.90 23.26488
806.00 23.26656
806.10 23.32782
806.20 23.43868
806.30 23.6102
806.40 23.80745
806.50 23.95268
806.60 24.00819
806.70 23.96161
806.80 23.78205
806.90 23.48772
807.00 23.19819
807.10 23.03416
807.20 23.09031
807.30 23.42739
807.40 24.03856
807.50 24.84965
807.60 25.69412
807.70 26.3728
807.80 26.74895
807.90 26.77732
808.00 26.48881
808.10 26.01904
808.20 25.58432
808.30 25.35343
808.40 25.39648
808.50 25.70729
808.60 26.22051
808.70 26.85298
808.80 27.49057
808.90 27.99951
809.00 28.29451
809.10 28.34078
809.20 28.14206
809.30 27.75111
809.40 27.23654
809.50 26.63595
809.60 25.99832
809.70 25.46076
809.80 25.14105
809.90 25.0365
810.00 25.09418
810.10 25.23827
810.20 25.4061
810.30 25.59456
810.40 25.82844
810.50 26.12577
810.60 26.49618
810.70 26.91266
810.80 27.30949
810.90 27.5986
811.00 27.71447
811.10 27.65017
811.20 27.44718
811.30 27.19528
811.40 26.96443
811.50 26.7799
811.60 26.67788
811.70 26.68924
811.80 26.80131
811.90 26.98151
812.00 27.17976
812.10 27.35681
812.20 27.54358
812.30 27.82942
812.40 28.26675
812.50 28.81644
812.60 29.37591
812.70 29.86764
812.80 30.27611
812.90 30.59066
813.00 30.77588
813.10 30.76895
813.20 30.52675
813.30 30.11915
813.40 29.71351
813.50 29.4442
813.60 29.34358
813.70 29.37778
813.80 29.51421
813.90 29.69547
814.00 29.83183
814.10 29.79111
814.20 29.46767
814.30 28.91367
814.40 28.29006
814.50 27.80456
814.60 27.63112
814.70 27.77701
814.80 28.16239
814.90 28.74988
815.00 29.48698
815.10 30.26404
815.20 30.95729
815.30 31.46801
815.40 31.74967
815.50 31.84525
815.60 31.83648
815.70 31.75024
815.80 31.58683
815.90 31.3881
816.00 31.26381
816.10 31.34044
816.20 31.64388
816.30 32.08882
816.40 32.57804
816.50 33.04397
816.60 33.43788
816.70 33.75305
816.80 34.01294
816.90 34.23562
817.00 34.42377
817.10 34.58141
817.20 34.72707
817.30 34.855
817.40 34.93093
817.50 34.921
817.60 34.8312
817.70 34.70208
817.80 34.57423
817.90 34.49391
818.00 34.49643
818.10 34.53999
818.20 34.53922
818.30 34.42748
818.40 34.17427
818.50 33.81025
818.60 33.39135
818.70 32.98666
818.80 32.67398
818.90 32.49086
819.00 32.39147
819.10 32.28989
819.20 32.10018
819.30 31.74751
819.40 31.19784
819.50 30.54717
819.60 30.05258
819.70 30.00721
819.80 30.61187
819.90 31.86267
820.00 33.60273
820.10 35.60907
820.20 37.57018
820.30 39.20662
820.40 40.3568
820.50 40.90603
820.60 40.80798
820.70 40.17641
820.80 39.2577
820.90 38.31172
821.00 37.51952
821.10 36.96732
821.20 36.6626
821.30 36.56789
821.40 36.5994
821.50 36.61606
821.60 36.51011
821.70 36.21016
821.80 35.6787
821.90 34.99334
822.00 34.32262
822.10 33.81935
822.20 33.59366
822.30 33.71056
822.40 34.14335
822.50 34.80045
822.60 35.60648
822.70 36.49759
822.80 37.38308
822.90 38.12184
823.00 38.55473
823.10 38.6119
823.20 38.36781
823.30 37.99421
823.40 37.68262
823.50 37.55158
823.60 37.63555
823.70 37.95396
823.80 38.51865
823.90 39.30625
824.00 40.19383
824.10 40.96379
824.20 41.41365
824.30 41.45736
824.40 41.14537
824.50 40.63979
824.60 40.13606
824.70 39.77745
824.80 39.632
824.90 39.73903
825.00 40.08904
825.10 40.57878
825.20 41.08278
825.30 41.48384
825.40 41.68134
825.50 41.66526
825.60 41.49836
825.70 41.27166
825.80 41.1431
825.90 41.23118
826.00 41.52496
826.10 41.96711
826.20 42.49426
826.30 43.04393
826.40 43.56482
826.50 43.97951
826.60 44.11835
826.70 43.82538
826.80 43.10343
826.90 42.09403
827.00 41.02598
827.10 40.14037
827.20 39.58482
827.30 39.39031
827.40 39.51199
827.50 39.81596
827.60 40.14146
827.70 40.38437
827.80 40.46881
827.90 40.33123
828.00 39.98379
828.10 39.49037
828.20 38.92359
828.30 38.40128
828.40 38.04627
828.50 37.90691
828.60 38.08061
828.70 38.7437
828.80 39.96712
828.90 41.67556
829.00 43.63629
829.10 45.47607
829.20 46.79984
829.30 47.36267
829.40 47.185
829.50 46.46274
829.60 45.43004
829.70 44.30397
829.80 43.32773
829.90 42.77877
830.00 42.67226
830.10 42.75126
830.20 42.80782
830.30 42.73498
830.40 42.49907
830.50 42.14384
830.60 41.79574
830.70 41.57742
830.80 41.49206
830.90 41.56131
831.00 41.85485
831.10 42.39977
831.20 43.15377
831.30 43.99309
831.40 44.82031
831.50 45.56081
831.60 46.12375
831.70 46.48836
831.80 46.73948
831.90 46.98885
832.00 47.33731
832.10 47.86221
832.20 48.62081
832.30 49.57652
832.40 50.55789
832.50 51.33805
832.60 51.70772
832.70 51.57737
832.80 50.98444
832.90 50.0586
833.00 48.97243
833.10 47.8594
833.20 46.80995
833.30 45.89719
833.40 45.21195
833.50 44.88172
833.60 44.91523
833.70 45.15694
833.80 45.44403
833.90 45.64741
834.00 45.74308
834.10 45.77691
834.20 45.83977
834.30 46.03704
834.40 46.47001
834.50 47.21556
834.60 48.20356
834.70 49.29412
834.80 50.29614
834.90 50.9566
835.00 51.12182
835.10 50.75148
835.20 50.00409
835.30 49.20756
835.40 48.53447
835.50 48.06792
835.60 47.83537
835.70 47.81231
835.80 47.93808
835.90 48.10929
836.00 48.28113
836.10 48.43084
836.20 48.51868
836.30 48.51063
836.40 48.44101
836.50 48.46861
836.60 48.67382
836.70 49.00738
836.80 49.46395
836.90 50.00434
837.00 50.54677
837.10 51.02098
837.20 51.33601
837.30 51.41465
837.40 51.27175
837.50 51.01752
837.60 50.83122
837.70 50.89702
837.80 51.29447
837.90 51.94993
838.00 52.72041
838.10 53.43248
838.20 53.91752
838.30 54.11044
838.40 54.00242
838.50 53.57468
838.60 52.87494
838.70 52.02954
838.80 51.19626
838.90 50.48599
839.00 49.86989
839.10 49.30252
839.20 48.84442
839.30 48.60648
839.40 48.66285
839.50 48.99501
839.60 49.50256
839.70 50.01588
839.80 50.448
839.90 50.86872
840.00 51.28557
840.10 51.61733
840.20 51.79738
840.30 51.82032
840.40 51.83707
840.50 52.05334
840.60 52.56684
840.70 53.34087
840.80 54.17104
840.90 54.90579
841.00 55.58391
841.10 56.21252
841.20 56.58781
841.30 56.44425
841.40 55.78496
841.50 54.88646
841.60 54.06345
841.70 53.53434
841.80 53.36096
841.90 53.4612
842.00 53.67933
842.10 53.91523
842.20 54.22987
842.30 54.69823
842.40 55.22389
842.50 55.7012
842.60 56.25155
842.70 57.05659
842.80 58.08459
842.90 59.12698
843.00 59.92886
843.10 60.23809
843.20 59.89449
843.30 58.89835
843.40 57.42951
843.50 55.74201
843.60 54.08635
843.70 52.72147
843.80 51.89454
843.90 51.77266
844.00 52.30393
844.10 53.2945
844.20 54.55185
844.30 55.86211
844.40 56.98974
844.50 57.75117
844.60 58.08362
844.70 58.04658
844.80 57.68898
844.90 57.01127
845.00 56.07855
845.10 55.02505
845.20 54.00824
845.30 53.17823
845.40 52.63082
845.50 52.34858
845.60 52.22749
845.70 52.19698
845.80 52.25021
845.90 52.42235
846.00 52.79059
846.10 53.3624
846.20 54.03138
846.30 54.70959
846.40 55.32458
846.50 55.79755
846.60 56.09736
846.70 56.21667
846.80 56.18757
846.90 56.07222
847.00 55.94133
847.10 55.83619
847.20 55.84858
847.30 56.06163
847.40 56.31779
847.50 56.38588
847.60 56.2336
847.70 55.95914
847.80 55.66352
847.90 55.40829
848.00 55.18755
848.10 55.0095
848.20 54.94226
848.30 55.06396
848.40 55.4064
848.50 55.93033
848.60 56.45681
848.70 56.81871
848.80 57.01109
848.90 57.10798
849.00 57.20939
849.10 57.35065
849.20 57.48534
849.30 57.58044
849.40 57.64903
849.50 57.66599
849.60 57.53263
849.70 57.22544
849.80 56.87754
849.90 56.683
850.00 56.79095
850.10 57.1335
850.20 57.45039
850.30 57.56413
850.40 57.43917
850.50 57.1354
850.60 56.80662
850.70 56.58405
850.80 56.48672
850.90 56.54673
851.00 56.83095
851.10 57.26723
851.20 57.61464
851.30 57.61647
851.40 57.08573
851.50 56.00598
851.60 54.52081
851.70 52.6518
851.80 50.27179
851.90 47.35516
852.00 44.05478
852.10 40.68509
852.20 37.7409
852.30 35.75429
852.40 35.11152
852.50 35.98877
852.60 38.32844
852.70 41.7895
852.80 45.841
852.90 49.94349
853.00 53.68251
853.10 56.83723
853.20 59.34769
853.30 61.23878
853.40 62.60132
853.50 63.59616
853.60 64.34053
853.70 64.84782
853.80 65.10489
853.90 65.14476
854.00 65.00487
854.10 64.73629
854.20 64.44307
854.30 64.19618
854.40 63.97187
854.50 63.70157
854.60 63.31673
854.70 62.83167
854.80 62.35256
854.90 61.9818
855.00 61.84406
855.10 62.06505
855.20 62.67765
855.30 63.60739
855.40 64.76163
855.50 66.04752
855.60 67.31507
855.70 68.39266
855.80 69.15198
855.90 69.56482
856.00 69.72252
856.10 69.71601
856.20 69.62585
856.30 69.57792
856.40 69.66323
856.50 69.91324
856.60 70.33272
856.70 70.93455
856.80 71.72578
856.90 72.60928
857.00 73.33391
857.10 73.62525
857.20 73.33295
857.30 72.4653
857.40 71.14515
857.50 69.59602
857.60 68.0965
857.70 66.86687
857.80 66.05702
857.90 65.73247
858.00 65.88443
858.10 66.42829
858.20 67.15062
858.30 67.79561
858.40 68.23561
858.50 68.46722
858.60 68.51742
858.70 68.38189
858.80 68.01954
858.90 67.41001
859.00 66.558
859.10 65.51415
859.20 64.37414
859.30 63.27794
859.40 62.41892
859.50 61.94314
859.60 61.94623
859.70 62.48055
859.80 63.50471
859.90 64.86259
860.00 66.30803
860.10 67.61593
860.20 68.64742
860.30 69.36026
860.40 69.80221
860.50 70.02233
860.60 70.00586
860.70 69.72418
860.80 69.07926
860.90 67.96359
861.00 66.36048
861.10 64.32926
861.20 61.95239
861.30 59.34665
861.40 56.71423
861.50 54.30901
861.60 52.35152
861.70 50.87438
861.80 49.77103
861.90 48.98364
862.00 48.49945
862.10 48.25356
862.20 48.18599
862.30 48.24509
862.40 48.33795
862.50 48.36798
862.60 48.24611
862.70 47.83932
862.80 46.94238
862.90 45.49172
863.00 43.76843
863.10 42.30605
863.20 41.57845
863.30 41.8384
863.40 43.16804
863.50 45.45872
863.60 48.35212
863.70 51.3179
863.80 53.78529
863.90 55.26754
864.00 55.52835
864.10 54.70537
864.20 53.28402
864.30 51.757
864.40 50.36521
864.50 49.17578
864.60 48.19525
864.70 47.41985
864.80 46.8338
864.90 46.44297
865.00 46.31243
865.10 46.49193
865.20 46.96786
865.30 47.69366
865.40 48.59814
865.50 49.58383
865.60 50.55761
865.70 51.46704
865.80 52.33024
865.90 53.15991
866.00 53.96523
866.10 54.79164
866.20 55.6514
866.30 56.51955
866.40 57.37596
866.50 58.17038
866.60 58.77822
866.70 59.03837
866.80 58.84254
866.90 58.32664
867.00 57.84925
867.10 57.65733
867.20 57.7605
867.30 58.15795
867.40 58.88413
867.50 59.87765
867.60 61.00701
867.70 61.98208
867.80 62.36806
867.90 61.91597
868.00 60.71346
868.10 59.08158
868.20 57.45199
868.30 56.19086
868.40 55.51872
868.50 55.58289
868.60 56.40751
868.70 57.772
868.80 59.2502
868.90 60.37685
869.00 60.75929
869.10 60.24953
869.20 59.03874
869.30 57.44863
869.40 55.8152
869.50 54.52148
869.60 53.93155
869.70 54.14611
869.80 54.90228
869.90 55.86268
870.00 56.80363
870.10 57.52729
870.20 57.80822
870.30 57.43966
870.40 56.36483
870.50 54.86722
870.60 53.44332
870.70 52.47185
870.80 52.15414
870.90 52.50922
871.00 53.40575
871.10 54.63879
871.20 55.94067
871.30 57.07635
871.40 57.89482
871.50 58.32588
871.60 58.39536
871.70 58.25385
871.80 58.06601
871.90 57.81328
872.00 57.37075
872.10 56.75415
872.20 56.10681
872.30 55.60853
872.40 55.35418
872.50 55.38416
872.60 55.81756
872.70 56.64806
872.80 57.69867
872.90 58.7566
873.00 59.62301
873.10 60.11997
873.20 60.17834
873.30 59.85289
873.40 59.22428
873.50 58.43176
873.60 57.66084
873.70 57.07341
873.80 56.80131
873.90 56.88114
874.00 57.18511
874.10 57.53149
874.20 57.827
874.30 58.0671
874.40 58.29842
874.50 58.57194
874.60 58.89738
874.70 59.22853
874.80 59.46224
874.90 59.55252
875.00 59.55578
875.10 59.51461
875.20 59.4121
875.30 59.28252
875.40 59.29861
875.50 59.59719
875.60 60.1308
875.70 60.77094
875.80 61.42771
875.90 62.01844
876.00 62.38917
876.10 62.43459
876.20 62.22425
876.30 61.79571
876.40 61.14563
876.50 60.36026
876.60 59.55238
876.70 58.86491
876.80 58.5002
876.90 58.61501
877.00 59.32925
877.10 60.69892
877.20 62.59959
877.30 64.79439
877.40 67.03937
877.50 69.00481
877.60 70.31611
877.70 70.78055
877.80 70.23818
877.90 68.72245
878.00 66.67464
878.10 64.60147
878.20 62.79261
878.30 61.47512
878.40 60.7253
878.50 60.4019
878.60 60.32762
878.70 60.32855
878.80 60.30805
878.90 60.32219
879.00 60.52057
879.10 61.04241
879.20 62.09645
879.30 63.76388
879.40 65.81486
879.50 67.82312
879.60 69.32757
879.70 69.97044
879.80 69.6637
879.90 68.61721
880.00 67.17275
880.10 65.69966
880.20 64.52193
880.30 63.86467
880.40 63.81382
880.50 64.28813
880.60 65.09452
880.70 66.00108
880.80 66.79917
880.90 67.40142
881.00 67.86997
881.10 68.32238
881.20 68.81079
881.30 69.32607
881.40 69.89042
881.50 70.55543
881.60 71.33491
881.70 72.13464
881.80 72.73816
881.90 72.89332
882.00 72.47858
882.10 71.64793
882.20 70.92216
882.30 71.04901
882.40 72.42107
882.50 74.93617
882.60 78.11633
882.70 81.1436
882.80 83.13626
882.90 83.42964
883.00 81.695
883.10 78.07213
883.20 73.24096
883.30 68.23121
883.40 64.20934
883.50 62.10985
883.60 62.20215
883.70 64.00622
883.80 66.83345
883.90 69.99576
884.00 72.8674
884.10 75.10092
884.20 76.47015
884.30 76.75704
884.40 75.94691
884.50 74.3415
884.60 72.42557
884.70 70.7163
884.80 69.5875
884.90 69.19982
885.00 69.56781
885.10 70.62874
885.20 72.1644
885.30 73.76652
885.40 74.97871
885.50 75.46056
885.60 75.15
885.70 74.27288
885.80 73.17177
885.90 72.13872
886.00 71.39167
886.10 71.10971
886.20 71.38963
886.30 72.19266
886.40 73.35851
886.50 74.53871
886.60 75.35038
886.70 75.60865
886.80 75.29777
886.90 74.51761
887.00 73.40156
887.10 72.14759
887.20 71.01481
887.30 70.23419
887.40 69.95882
887.50 70.31629
887.60 71.33622
887.70 72.81632
887.80 74.34823
887.90 75.65085
888.00 76.70442
888.10 77.36953
888.20 77.24661
888.30 76.20176
888.40 74.83921
888.50 73.96919
888.60 74.04144
888.70 75.1912
888.80 77.26927
888.90 79.81081
889.00 82.17339
889.10 83.7853
889.20 84.33926
889.30 83.73928
889.40 82.00178
889.50 79.59531
889.60 77.5734
889.70 76.82245
889.80 77.39857
889.90 78.92156
890.00 80.99048
890.10 83.12749
890.20 84.8555
890.30 85.82164
890.40 85.81757
890.50 84.79536
890.60 82.9384
890.70 80.61474
890.80 78.28395
890.90 76.38408
891.00 75.14504
891.10 74.57331
891.20 74.59987
891.30 75.11074
891.40 75.98524
891.50 77.06693
891.60 78.00747
891.70 78.21001
891.80 77.23201
891.90 75.20563
892.00 72.61156
892.10 70.00416
892.20 67.85702
892.30 66.42616
892.40 65.80279
892.50 65.96943
892.60 66.76997
892.70 67.88698
892.80 68.9658
892.90 69.75395
893.00 70.23925
893.10 70.77735
893.20 71.76908
893.30 73.29677
893.40 75.15392
893.50 76.97576
893.60 78.34054
893.70 78.96071
893.80 78.69529
893.90 77.31359
894.00 74.53407
894.10 70.35353
894.20 65.14571
894.30 59.64362
894.40 54.82343
894.50 51.54284
894.60 50.32398
894.70 51.244
894.80 53.96244
894.90 57.90591
895.00 62.45305
895.10 67.00398
895.20 71.10701
895.30 74.50636
895.40 77.19525
895.50 79.34321
895.60 81.0849
895.70 82.38557
895.80 83.07944
895.90 83.08928
896.00 82.38243
896.10 81.03314
896.20 79.2986
896.30 77.51593
896.40 76.03743
896.50 75.12277
896.60 74.83726
896.70 75.21576
896.80 76.18783
896.90 77.49454
897.00 78.86802
897.10 80.14756
897.20 81.33401
897.30 82.48193
897.40 83.64805
897.50 84.83561
897.60 86.02109
897.70 87.18546
897.80 88.19629
897.90 88.83893
898.00 89.00159
898.10 88.79154
898.20 88.5725
898.30 88.80543
898.40 89.55514
898.50 90.24498
898.60 90.14169
898.70 88.89716
898.80 86.619
898.90 83.72221
899.00 80.77491
899.10 78.33578
899.20 76.89833
899.30 76.80938
899.40 78.11346
899.50 80.55274
899.60 83.59431
899.70 86.3198
899.80 88.08824
899.90 89.33704
900.00 89.29728
900.10 89.25752
900.20 89.21775
900.30 89.17799
900.40 89.13823
900.50 89.09847
900.60 89.05871
900.70 89.01895
900.80 88.97919
900.90 89.28374
901.00 89.76566
901.10 90.24758
901.20 90.72949
901.30 91.21141
901.40 91.69333
901.50 92.17525
901.60 92.65717
901.70 93.13909
901.80 93.621
901.90 94.10292
902.00 94.58484
902.10 95.06676
902.20 95.54868
902.30 96.0306
902.40 96.51251
902.50 96.99443
902.60 97.47635
902.70 97.95827
902.80 98.44019
902.90 98.92211
903.00 99.40402
903.10 99.88594
903.20 100.3679
903.30 100.8498
903.40 101.3317
903.50 101.8136
903.60 102.2955
903.70 102.7775
903.80 103.2594
903.90 103.7413
904.00 104.2232
904.10 104.7051
904.20 105.187
904.30 105.6177
904.40 105.995
904.50 106.3722
904.60 106.7495
904.70 107.1268
904.80 107.504
904.90 107.8813
905.00 108.2586
905.10 108.6358
905.20 109.0131
905.30 109.3904
905.40 109.7676
905.50 110.1449
905.60 110.5222
905.70 110.8995
905.80 111.2767
905.90 111.654
906.00 112.0313
906.10 112.4085
906.20 112.7858
906.30 113.1631
906.40 113.5403
906.50 113.9176
906.60 114.2949
906.70 114.6722
906.80 115.0494
906.90 115.4267
907.00 115.804
907.10 116.1812
907.20 116.5585
907.30 116.9358
907.40 117.313
907.50 117.6903
907.60 118.0676
907.70 118.3735
907.80 118.2414
907.90 118.1092
908.00 117.9771
908.10 117.8449
908.20 117.7128
908.30 117.5806
908.40 117.4485
908.50 117.3163
908.60 117.1842
908.70 117.052
908.80 116.9199
908.90 116.7878
909.00 116.6556
909.10 116.5235
909.20 116.3913
909.30 116.2592
909.40 116.127
909.50 115.9949
909.60 115.8627
909.70 115.7306
909.80 115.5984
909.90 115.4663
910.00 115.3341
910.10 115.202
910.20 115.0698
910.30 114.9377
910.40 114.8055
910.50 114.6734
910.60 114.5412
910.70 114.4091
910.80 114.2769
910.90 114.1448
911.00 114.0126
911.10 113.8805
911.20 113.8011
911.30 113.7554
911.40 113.7098
911.50 113.6641
911.60 113.6184
911.70 113.5727
911.80 113.5271
911.90 113.4814
912.00 113.4357
912.10 113.3901
912.20 113.3444
912.30 113.2987
912.40 113.2531
912.50 113.2074
912.60 113.1617
912.70 113.1161
912.80 113.0704
912.90 113.0247
913.00 112.9791
913.10 112.9334
913.20 112.8877
913.30 112.842
913.40 112.7964
913.50 112.7507
913.60 112.705
913.70 112.6594
913.80 112.6137
913.90 112.568
914.00 112.5224
914.10 112.4767
914.20 112.431
914.30 112.3854
914.40 112.3397
914.50 112.294
914.60 112.2484
914.70 112.6323
914.80 113.0693
914.90 113.5063
915.00 113.9433
915.10 114.3803
915.20 114.8173
915.30 115.2543
915.40 115.6913
915.50 116.1283
915.60 116.5653
915.70 117.0023
915.80 117.4393
915.90 117.8763
916.00 118.3133
916.10 118.7503
916.20 119.1873
916.30 119.6243
916.40 120.0613
916.50 120.4983
916.60 120.9353
916.70 121.3723
916.80 121.8093
916.90 122.2463
917.00 122.6833
917.10 123.1203
917.20 123.5574
917.30 123.9944
917.40 124.4314
917.50 124.8684
917.60 125.3054
917.70 125.7424
917.80 126.1794
917.90 126.6164
918.00 127.0534
918.10 127.487
918.20 127.5903
918.30 127.6935
918.40 127.7967
918.50 127.9
918.60 128.0032
918.70 128.1064
918.80 128.2097
918.90 128.3129
919.00 128.4161
919.10 128.5193
919.20 128.6226
919.30 128.7258
919.40 128.829
919.50 128.9323
919.60 129.0355
919.70 129.1387
919.80 129.242
919.90 129.3452
920.00 129.4484
920.10 129.5516
920.20 129.6549
920.30 129.7581
920.40 129.8613
920.50 129.9646
920.60 130.0678
920.70 130.171
920.80 130.2743
920.90 130.3775
921.00 130.4807
921.10 130.5839
921.20 130.6872
921.30 130.7904
921.40 130.8936
921.50 130.9969
921.60 131.1001
921.70 131.1295
921.80 131.1542
921.90 131.1789
922.00 131.2036
922.10 131.2283
922.20 131.253
922.30 131.2777
922.40 131.3024
922.50 131.3271
922.60 131.3518
922.70 131.3765
922.80 131.4012
922.90 131.4259
923.00 131.4506
923.10 131.4753
923.20 131.5
923.30 131.5247
923.40 131.5494
923.50 131.5741
923.60 131.5988
923.70 131.6235
923.80 131.6482
923.90 131.6729
924.00 131.6976
924.10 131.7223
924.20 131.747
924.30 131.7717
924.40 131.7964
924.50 131.8211
924.60 131.8458
924.70 131.8705
924.80 131.8952
924.90 131.9199
925.00 131.9446
925.10 131.9693
925.20 131.802
925.30 131.5524
925.40 131.3029
925.50 131.0533
925.60 130.8038
925.70 130.5542
925.80 130.3046
925.90 130.0551
926.00 129.8055
926.10 129.556
926.20 129.3064
926.30 129.0569
926.40 128.8073
926.50 128.5578
926.60 128.3082
926.70 128.0586
926.80 127.8091
926.90 127.5595
927.00 127.31
927.10 127.0604
927.20 126.8109
927.30 126.5613
927.40 126.3117
927.50 126.0622
927.60 125.8126
927.70 125.5631
927.80 125.3135
927.90 125.064
928.00 124.8144
928.10 124.5648
928.20 124.3153
928.30 124.0657
928.40 123.8162
928.50 123.5666
928.60 123.3171
928.70 123.2537
928.80 123.6462
928.90 124.0387
929.00 124.4311
929.10 124.8236
929.20 125.2161
929.30 125.6086
929.40 126.0011
929.50 126.3935
929.60 126.786
929.70 127.1785
929.80 127.571
929.90 127.9634
930.00 128.3559
930.10 128.7484
930.20 129.1409
930.30 129.5334
930.40 129.9258
930.50 130.3183
930.60 130.7108
930.70 131.1033
930.80 131.4958
930.90 131.8882
931.00 132.2807
931.10 132.6732
931.20 133.0657
931.30 133.4582
931.40 133.8506
931.50 134.2431
931.60 134.6356
931.70 135.0281
931.80 135.4206
931.90 135.813
932.00 136.2055
932.10 136.598
932.20 136.9905
932.30 136.8111
932.40 136.3866
932.50 135.9621
932.60 135.5376
932.70 135.1131
932.80 134.6886
932.90 134.2642
933.00 133.8397
933.10 133.4152
933.20 132.9907
933.30 132.5662
933.40 132.1417
933.50 131.7172
933.60 131.2928
933.70 130.8683
933.80 130.4438
933.90 130.0193
934.00 129.5948
934.10 129.1703
934.20 128.7459
934.30 128.3214
934.40 127.8969
934.50 127.4724
934.60 127.0479
934.70 126.6234
934.80 126.1989
934.90 125.7745
935.00 125.35
935.10 124.9255
935.20 124.501
935.30 124.0765
935.40 123.652
935.50 123.2275
935.60 122.8031
935.70 122.3786
935.80 121.9541
935.90 122.1414
936.00 122.3678
936.10 122.5941
936.20 122.8205
936.30 123.0469
936.40 123.2733
936.50 123.4996
936.60 123.726
936.70 123.9524
936.80 124.1787
936.90 124.4051
937.00 124.6315
937.10 124.8578
937.20 125.0842
937.30 125.3106
937.40 125.537
937.50 125.7633
937.60 125.9897
937.70 126.2161
937.80 126.4424
937.90 126.6688
938.00 126.8952
938.10 127.1215
938.20 127.3479
938.30 127.5743
938.40 127.8007
938.50 128.027
938.60 128.2534
938.70 128.4798
938.80 128.7061
938.90 128.9325
939.00 129.1589
939.10 129.3852
939.20 129.6116
939.30 129.838
939.40 130.0629
939.50 130.2167
939.60 130.3705
939.70 130.5244
939.80 130.6782
939.90 130.832
940.00 130.9858
940.10 131.1396
940.20 131.2934
940.30 131.4473
940.40 131.6011
940.50 131.7549
940.60 131.9087
940.70 132.0625
940.80 132.2164
940.90 132.3702
941.00 132.524
941.10 132.6778
941.20 132.8316
941.30 132.9854
941.40 133.1393
941.50 133.2931
941.60 133.4469
941.70 133.6007
941.80 133.7545
941.90 133.9083
942.00 134.0622
942.10 134.216
942.20 134.3698
942.30 134.5236
942.40 134.6774
942.50 134.8313
942.60 134.9851
942.70 135.1389
942.80 135.2927
942.90 135.4465
943.00 135.6003
943.10 136.1042
943.20 136.6345
943.30 137.1647
943.40 137.695
943.50 138.2252
943.60 138.7555
943.70 139.2857
943.80 139.816
943.90 140.3462
944.00 140.8764
944.10 141.4067
944.20 141.9369
944.30 142.4672
944.40 142.9974
944.50 143.5277
944.60 144.0579
944.70 144.5882
944.80 145.1184
944.90 145.6487
945.00 146.1789
945.10 146.7091
945.20 147.2394
945.30 147.7696
945.40 148.2999
945.50 148.8301
945.60 149.3604
945.70 149.8906
945.80 150.4209
945.90 150.9511
946.00 151.4814
946.10 152.0116
946.20 152.5418
946.30 153.0721
946.40 153.6023
946.50 154.1326
946.60 154.6628
946.70 154.9607
946.80 155.1442
946.90 155.3277
947.00 155.5111
947.10 155.6946
947.20 155.878
947.30 156.0615
947.40 156.245
947.50 156.4284
947.60 156.6119
947.70 156.7954
947.80 156.9788
947.90 157.1623
948.00 157.3458
948.10 157.5292
948.20 157.7127
948.30 157.8961
948.40 158.0796
948.50 158.2631
948.60 158.4465
948.70 158.63
948.80 158.8135
948.90 158.9969
949.00 159.1804
949.10 159.3639
949.20 159.5473
949.30 159.7308
949.40 159.9142
949.50 160.0977
949.60 160.2812
949.70 160.4646
949.80 160.6481
949.90 160.8316
950.00 161.015
950.10 161.1985
950.20 161.382
950.30 161.4778
950.40 161.3107
950.50 161.1437
950.60 160.9766
950.70 160.8096
950.80 160.6425
950.90 160.4754
951.00 160.3084
951.10 160.1413
951.20 159.9743
951.30 159.8072
951.40 159.6402
951.50 159.4731
951.60 159.306
951.70 159.139
951.80 158.9719
951.90 158.8049
952.00 158.6378
952.10 158.4707
952.20 158.3037
952.30 158.1366
952.40 157.9696
952.50 157.8025
952.60 157.6355
952.70 157.4684
952.80 157.3013
952.90 157.1343
953.00 156.9672
953.10 156.8002
953.20 156.6331
953.30 156.4661
953.40 156.299
953.50 156.1319
953.60 155.9649
953.70 155.7978
953.80 155.6308
953.90 155.4637
954.00 155.6467
954.10 156.0099
954.20 156.3732
954.30 156.7364
954.40 157.0997
954.50 157.4629
954.60 157.8262
954.70 158.1895
954.80 158.5527
954.90 158.916
955.00 159.2792
955.10 159.6425
955.20 160.0058
955.30 160.369
955.40 160.7323
955.50 161.0955
955.60 161.4588
955.70 161.822
955.80 162.1853
955.90 162.5486
956.00 162.9118
956.10 163.2751
956.20 163.6383
956.30 164.0016
956.40 164.3649
956.50 164.7281
956.60 165.0914
956.70 165.4546
956.80 165.8179
956.90 166.1812
957.00 166.5444
957.10 166.9077
957.20 167.2709
957.30 167.6342
957.40 167.9974
957.50 168.3607
957.60 168.724
957.70 168.4572
957.80 168.1356
957.90 167.8141
958.00 167.4925
958.10 167.171
958.20 166.8494
958.30 166.5279
958.40 166.2063
958.50 165.8847
958.60 165.5632
958.70 165.2416
958.80 164.9201
958.90 164.5985
959.00 164.277
959.10 163.9554
959.20 163.6338
959.30 163.3123
959.40 162.9907
959.50 162.6692
959.60 162.3476
959.70 162.0261
959.80 161.7045
959.90 161.3829
960.00 161.0614
960.10 160.7398
960.20 160.4183
960.30 160.0967
960.40 159.7752
960.50 159.4536
960.60 159.1321
960.70 158.8105
960.80 158.4889
960.90 158.1674
961.00 157.8458
961.10 157.5243
961.20 157.2027
961.30 156.8928
961.40 157.1536
961.50 157.4144
961.60 157.6752
961.70 157.936
961.80 158.1969
961.90 158.4577
962.00 158.7185
962.10 158.9793
962.20 159.2401
962.30 159.5009
962.40 159.7617
962.50 160.0225
962.60 160.2833
962.70 160.5442
962.80 160.805
962.90 161.0658
963.00 161.3266
963.10 161.5874
963.20 161.8482
963.30 162.109
963.40 162.3698
963.50 162.6306
963.60 162.8915
963.70 163.1523
963.80 163.4131
963.90 163.6739
964.00 163.9347
964.10 164.1955
964.20 164.4563
964.30 164.7171
964.40 164.9779
964.50 165.2388
964.60 165.4996
964.70 165.7604
964.80 166.0212
964.90 166.282
965.00 166.5428
965.10 166.5571
965.20 166.561
965.30 166.565
965.40 166.569
965.50 166.573
965.60 166.577
965.70 166.5809
965.80 166.5849
965.90 166.5889
966.00 166.5929
966.10 166.5968
966.20 166.6008
966.30 166.6048
966.40 166.6088
966.50 166.6128
966.60 166.6167
966.70 166.6207
966.80 166.6247
966.90 166.6287
967.00 166.6326
967.10 166.6366
967.20 166.6406
967.30 166.6446
967.40 166.6486
967.50 166.6525
967.60 166.6565
967.70 166.6605
967.80 166.6645
967.90 166.6684
968.00 166.6724
968.10 166.6764
968.20 166.6804
968.30 166.6844
968.40 166.6883
968.50 166.6923
968.60 166.6963
968.70 166.7003
968.80 166.6446
968.90 166.568
969.00 166.4914
969.10 166.4148
969.20 166.3381
969.30 166.2615
969.40 166.1849
969.50 166.1083
969.60 166.0317
969.70 165.9551
969.80 165.8784
969.90 165.8018
970.00 165.7252
970.10 165.6486
970.20 165.572
970.30 165.4954
970.40 165.4187
970.50 165.3421
970.60 165.2655
970.70 165.1889
970.80 165.1123
970.90 165.0356
971.00 164.959
971.10 164.8824
971.20 164.8058
971.30 164.7292
971.40 164.6526
971.50 164.5759
971.60 164.4993
971.70 164.4227
971.80 164.3461
971.90 164.2695
972.00 164.1929
972.10 164.1162
972.20 164.0396
972.30 163.963
972.40 163.8864
972.50 163.9695
972.60 164.3246
972.70 164.6797
972.80 165.0348
972.90 165.3899
973.00 165.7449
973.10 166.1
973.20 166.4551
973.30 166.8102
973.40 167.1653
973.50 167.5204
973.60 167.8755
973.70 168.2306
973.80 168.5857
973.90 168.9407
974.00 169.2958
974.10 169.6509
974.20 170.006
974.30 170.3611
974.40 170.7162
974.50 171.0713
974.60 171.4264
974.70 171.7815
974.80 172.1365
974.90 172.4916
975.00 172.8467
975.10 173.2018
975.20 173.5569
975.30 173.912
975.40 174.2671
975.50 174.6222
975.60 174.9773
975.70 175.3324
975.80 175.6874
975.90 176.0425
976.00 176.3976
976.10 176.7527
976.20 177.1078
976.30 176.9902
976.40 176.7893
976.50 176.5883
976.60 176.3873
976.70 176.1864
976.80 175.9854
976.90 175.7844
977.00 175.5835
977.10 175.3825
977.20 175.1815
977.30 174.9806
977.40 174.7796
977.50 174.5786
977.60 174.3776
977.70 174.1767
977.80 173.9757
977.90 173.7747
978.00 173.5738
978.10 173.3728
978.20 173.1718
978.30 172.9709
978.40 172.7699
978.50 172.5689
978.60 172.368
978.70 172.167
978.80 171.966
978.90 171.7651
979.00 171.5641
979.10 171.3631
979.20 171.1622
979.30 170.9612
979.40 170.7602
979.50 170.5592
979.60 170.3583
979.70 170.1573
979.80 169.9563
979.90 169.7554
980.00 169.6481
980.10 169.9675
980.20 170.2869
980.30 170.6063
980.40 170.9256
980.50 171.245
980.60 171.5644
980.70 171.8838
980.80 172.2032
980.90 172.5226
981.00 172.842
981.10 173.1614
981.20 173.4808
981.30 173.8002
981.40 174.1196
981.50 174.439
981.60 174.7584
981.70 175.0778
981.80 175.3972
981.90 175.7166
982.00 176.036
982.10 176.3553
982.20 176.6747
982.30 176.9941
982.40 177.3135
982.50 177.6329
982.60 177.9523
982.70 178.2717
982.80 178.5911
982.90 178.9105
983.00 179.2299
983.10 179.5493
983.20 179.8687
983.30 180.1881
983.40 180.5075
983.50 180.8269
983.60 181.1463
983.70 181.4657
983.80 181.5554
983.90 181.2368
984.00 180.9183
984.10 180.5997
984.20 180.2812
984.30 179.9626
984.40 179.6441
984.50 179.3255
984.60 179.0069
984.70 178.6884
984.80 178.3698
984.90 178.0513
985.00 177.7327
985.10 177.4142
985.20 177.0956
985.30 176.7771
985.40 176.4585
985.50 176.1399
985.60 175.8214
985.70 175.5028
985.80 175.1843
985.90 174.8657
986.00 174.5472
986.10 174.2286
986.20 173.9101
986.30 173.5915
986.40 173.2729
986.50 172.9544
986.60 172.6358
986.70 172.3173
986.80 171.9987
986.90 171.6802
987.00 171.3616
987.10 171.0431
987.20 170.7245
987.30 170.4059
987.40 170.0874
987.50 169.7688
987.60 169.583
987.70 169.5963
987.80 169.6096
987.90 169.6229
988.00 169.6362
988.10 169.6494
988.20 169.6627
988.30 169.676
988.40 169.6893
988.50 169.7026
988.60 169.7159
988.70 169.7292
988.80 169.7424
988.90 169.7557
989.00 169.769
989.10 169.7823
989.20 169.7956
989.30 169.8089
989.40 169.8222
989.50 169.8354
989.60 169.8487
989.70 169.862
989.80 169.8753
989.90 169.8886
990.00 169.9019
990.10 169.9152
990.20 169.9285
990.30 169.9417
990.40 169.955
990.50 169.9683
990.60 169.9816
990.70 169.9949
990.80 170.0082
990.90 170.0215
991.00 170.0347
991.10 170.048
991.20 170.0613
991.30 170.0746
991.40 170.0537
991.50 169.9493
991.60 169.8448
991.70 169.7404
991.80 169.6359
991.90 169.5314
992.00 169.427
992.10 169.3225
992.20 169.2181
992.30 169.1136
992.40 169.0092
992.50 168.9047
992.60 168.8002
992.70 168.6958
992.80 168.5913
992.90 168.4869
993.00 168.3824
993.10 168.278
993.20 168.1735
993.30 168.069
993.40 167.9646
993.50 167.8601
993.60 167.7557
993.70 167.6512
993.80 167.5467
993.90 167.4423
994.00 167.3378
994.10 167.2334
994.20 167.1289
994.30 167.0245
994.40 166.92
994.50 166.8155
994.60 166.7111
994.70 166.6066
994.80 166.5022
994.90 166.3977
995.00 166.2933
995.10 166.1888
995.20 166.0693
995.30 165.4642
995.40 164.8591
995.50 164.2539
995.60 163.6488
995.70 163.0437
995.80 162.4385
995.90 161.8334
996.00 161.2283
996.10 160.6231
996.20 160.018
996.30 159.4129
996.40 158.8077
996.50 158.2026
996.60 157.5975
996.70 156.9923
996.80 156.3872
996.90 155.7821
997.00 155.177
997.10 154.5718
997.20 153.9667
997.30 153.3616
997.40 152.7564
997.50 152.1513
997.60 151.5462
997.70 150.941
997.80 150.3359
997.90 149.7308
998.00 149.1256
998.10 148.5205
998.20 147.9154
998.30 147.3103
998.40 146.7051
998.50 146.1
998.60 145.4949
998.70 144.8897
998.80 144.2846
998.90 143.6795
999.00 143.0743
999.10 142.7966
999.20 142.7031
999.30 142.6095
999.40 142.516
999.50 142.4224
999.60 142.3289
999.70 142.2354
999.80 142.1418
999.90 142.0483
1000.00 141.9547
1000.10 141.8612
1000.20 141.7676
1000.30 141.6741
1000.40 141.5806
1000.50 141.487
1000.60 141.3935
1000.70 141.2999
1000.80 141.2064
1000.90 141.1128
1001.00 141.0193
1001.10 140.9258
1001.20 140.8322
1001.30 140.7387
1001.40 140.6451
1001.50 140.5516
1001.60 140.458
1001.70 140.3645
1001.80 140.271
1001.90 140.1774
1002.00 140.0839
1002.10 139.9903
1002.20 139.8968
1002.30 139.8032
1002.40 139.7097
1002.50 139.6162
1002.60 139.5226
1002.70 139.4291
1002.80 139.3355
1002.90 139.2709
1003.00 139.4664
1003.10 139.6619
1003.20 139.8574
1003.30 140.0528
1003.40 140.2483
1003.50 140.4438
1003.60 140.6393
1003.70 140.8348
1003.80 141.0303
1003.90 141.2258
1004.00 141.4212
1004.10 141.6167
1004.20 141.8122
1004.30 142.0077
1004.40 142.2032
1004.50 142.3987
1004.60 142.5942
1004.70 142.7897
1004.80 142.9851
1004.90 143.1806
1005.00 143.3761
1005.10 143.5716
1005.20 143.7671
1005.30 143.9626
1005.40 144.1581
1005.50 144.3535
1005.60 144.549
1005.70 144.7445
1005.80 144.94
1005.90 145.1355
1006.00 145.331
1006.10 145.5265
1006.20 145.722
1006.30 145.9174
1006.40 146.1129
1006.50 146.3084
1006.60 146.5039
1006.70 146.6994
1006.80 146.9693
1006.90 147.351
1007.00 147.7326
1007.10 148.1142
1007.20 148.4958
1007.30 148.8775
1007.40 149.2591
1007.50 149.6407
1007.60 150.0224
1007.70 150.404
1007.80 150.7856
1007.90 151.1672
1008.00 151.5489
1008.10 151.9305
1008.20 152.3121
1008.30 152.6937
1008.40 153.0754
1008.50 153.457
1008.60 153.8386
1008.70 154.2203
1008.80 154.6019
1008.90 154.9835
1009.00 155.3651
1009.10 155.7468
1009.20 156.1284
1009.30 156.51
1009.40 156.8917
1009.50 157.2733
1009.60 157.6549
1009.70 158.0365
1009.80 158.4182
1009.90 158.7998
1010.00 159.1814
1010.10 159.5631
1010.20 159.9447
1010.30 160.3263
1010.40 160.7079
1010.50 161.0896
1010.60 161.4712
1010.70 161.574
1010.80 161.491
1010.90 161.4079
1011.00 161.3249
1011.10 161.2418
1011.20 161.1587
1011.30 161.0757
1011.40 160.9926
1011.50 160.9096
1011.60 160.8265
1011.70 160.7435
1011.80 160.6604
1011.90 160.5774
1012.00 160.4943
1012.10 160.4113
1012.20 160.3282
1012.30 160.2452
1012.40 160.1621
1012.50 160.079
1012.60 159.996
1012.70 159.9129
1012.80 159.8299
1012.90 159.7468
1013.00 159.6638
1013.10 159.5807
1013.20 159.4977
1013.30 159.4146
1013.40 159.3316
1013.50 159.2485
1013.60 159.1655
1013.70 159.0824
1013.80 158.9993
1013.90 158.9163
1014.00 158.8332
1014.10 158.7502
1014.20 158.6671
1014.30 158.5841
1014.40 158.501
1014.50 158.418
1014.60 158.6599
1014.70 159.041
1014.80 159.4222
1014.90 159.8034
1015.00 160.1845
1015.10 160.5657
1015.20 160.9468
1015.30 161.328
1015.40 161.7092
1015.50 162.0903
1015.60 162.4715
1015.70 162.8526
1015.80 163.2338
1015.90 163.615
1016.00 163.9961
1016.10 164.3773
1016.20 164.7585
1016.30 165.1396
1016.40 165.5208
1016.50 165.9019
1016.60 166.2831
1016.70 166.6643
1016.80 167.0454
1016.90 167.4266
1017.00 167.8077
1017.10 168.1889
1017.20 168.5701
1017.30 168.9512
1017.40 169.3324
1017.50 169.7136
1017.60 170.0947
1017.70 170.4759
1017.80 170.857
1017.90 171.2382
1018.00 171.6194
1018.10 172.0005
1018.20 172.3817
1018.30 172.7628
1018.40 173.144
1018.50 173.3227
1018.60 173.3663
1018.70 173.41
1018.80 173.4536
1018.90 173.4973
1019.00 173.541
1019.10 173.5846
1019.20 173.6283
1019.30 173.6719
1019.40 173.7156
1019.50 173.7592
1019.60 173.8029
1019.70 173.8465
1019.80 173.8902
1019.90 173.9339
1020.00 173.9775
1020.10 174.0212
1020.20 174.0648
1020.30 174.1085
1020.40 174.1521
1020.50 174.1958
1020.60 174.2395
1020.70 174.2831
1020.80 174.3268
1020.90 174.3704
1021.00 174.4141
1021.10 174.4577
1021.20 174.5014
1021.30 174.5451
1021.40 174.5887
1021.50 174.6324
1021.60 174.676
1021.70 174.7197
1021.80 174.7633
1021.90 174.807
1022.00 174.8506
1022.10 174.8943
1022.20 174.938
1022.30 174.9816
1022.40 174.942
1022.50 174.8192
1022.60 174.6964
1022.70 174.5736
1022.80 174.4508
1022.90 174.328
1023.00 174.2052
1023.10 174.0824
1023.20 173.9596
1023.30 173.8368
1023.40 173.714
1023.50 173.5912
1023.60 173.4683
1023.70 173.3455
1023.80 173.2227
1023.90 173.0999
1024.00 172.9771
1024.10 172.8543
1024.20 172.7315
1024.30 172.6087
1024.40 172.4859
1024.50 172.3631
1024.60 172.2403
1024.70 172.1175
1024.80 171.9947
1024.90 171.8719
1025.00 171.749
1025.10 171.6262
1025.20 171.5034
1025.30 171.3806
1025.40 171.2578
1025.50 171.135
1025.60 171.0122
1025.70 170.8894
1025.80 170.7666
1025.90 170.6438
1026.00 170.521
1026.10 170.3982
1026.20 170.2754
1026.30 170.1778
1026.40 170.3071
1026.50 170.4365
1026.60 170.5659
1026.70 170.6952
1026.80 170.8246
1026.90 170.954
1027.00 171.0833
1027.10 171.2127
1027.20 171.3421
1027.30 171.4714
1027.40 171.6008
1027.50 171.7302
1027.60 171.8595
1027.70 171.9889
1027.80 172.1183
1027.90 172.2476
1028.00 172.377
1028.10 172.5064
1028.20 172.6358
1028.30 172.7651
1028.40 172.8945
1028.50 173.0239
1028.60 173.1532
1028.70 173.2826
1028.80 173.412
1028.90 173.5413
1029.00 173.6707
1029.10 173.8001
1029.20 173.9294
1029.30 174.0588
1029.40 174.1882
1029.50 174.3175
1029.60 174.4469
1029.70 174.5763
1029.80 174.7056
1029.90 174.835
1030.00 174.9644
1030.10 175.0937
1030.20 175.2231
1030.30 175.3074
1030.40 175.3724
1030.50 175.4374
1030.60 175.5024
1030.70 175.5674
1030.80 175.6324
1030.90 175.6974
1031.00 175.7624
1031.10 175.8274
1031.20 175.8924
1031.30 175.9574
1031.40 176.0224
1031.50 176.0874
1031.60 176.1524
1031.70 176.2174
1031.80 176.2823
1031.90 176.3473
1032.00 176.4123
1032.10 176.4773
1032.20 176.5423
1032.30 176.6073
1032.40 176.6723
1032.50 176.7373
1032.60 176.8023
1032.70 176.8673
1032.80 176.9323
1032.90 176.9973
1033.00 177.0623
1033.10 177.1273
1033.20 177.1923
1033.30 177.2573
1033.40 177.3223
1033.50 177.3873
1033.60 177.4523
1033.70 177.5173
1033.80 177.5823
1033.90 177.6473
1034.00 177.7122
1034.10 177.7772
1034.20 177.877
1034.30 178.2895
1034.40 178.7021
1034.50 179.1146
1034.60 179.5271
1034.70 179.9397
1034.80 180.3522
1034.90 180.7647
1035.00 181.1773
1035.10 181.5898
1035.20 182.0023
1035.30 182.4149
1035.40 182.8274
1035.50 183.24
1035.60 183.6525
1035.70 184.065
1035.80 184.4776
1035.90 184.8901
1036.00 185.3026
1036.10 185.7152
1036.20 186.1277
1036.30 186.5402
1036.40 186.9528
1036.50 187.3653
1036.60 187.7778
1036.70 188.1904
1036.80 188.6029
1036.90 189.0155
1037.00 189.428
1037.10 189.8405
1037.20 190.2531
1037.30 190.6656
1037.40 191.0781
1037.50 191.4907
1037.60 191.9032
1037.70 192.3157
1037.80 192.7283
1037.90 193.1408
1038.00 193.5533
1038.10 193.9659
1038.20 194.1796
1038.30 194.095
1038.40 194.0104
1038.50 193.9258
1038.60 193.8412
1038.70 193.7566
1038.80 193.672
1038.90 193.5874
1039.00 193.5028
1039.10 193.4182
1039.20 193.3336
1039.30 193.249
1039.40 193.1644
1039.50 193.0798
1039.60 192.9952
1039.70 192.9106
1039.80 192.826
1039.90 192.7414
1040.00 192.6568
1040.10 192.5722
1040.20 192.4876
1040.30 192.403
1040.40 192.3184
1040.50 192.2338
1040.60 192.1492
1040.70 192.0646
1040.80 191.98
1040.90 191.8955
1041.00 191.8109
1041.10 191.7263
1041.20 191.6417
1041.30 191.5571
1041.40 191.4725
1041.50 191.3879
1041.60 191.3033
1041.70 191.2187
1041.80 191.1341
1041.90 191.0495
1042.00 190.9649
1042.10 190.8803
1042.20 191.0648
1042.30 191.4288
1042.40 191.7928
1042.50 192.1568
1042.60 192.5208
1042.70 192.8848
1042.80 193.2488
1042.90 193.6128
1043.00 193.9768
1043.10 194.3408
1043.20 194.7048
1043.30 195.0688
1043.40 195.4327
1043.50 195.7967
1043.60 196.1607
1043.70 196.5247
1043.80 196.8887
1043.90 197.2527
1044.00 197.6167
1044.10 197.9807
1044.20 198.3447
1044.30 198.7087
1044.40 199.0727
1044.50 199.4367
1044.60 199.8006
1044.70 200.1646
1044.80 200.5286
1044.90 200.8926
1045.00 201.2566
1045.10 201.6206
1045.20 201.9846
1045.30 202.3486
1045.40 202.7126
1045.50 203.0766
1045.60 203.4406
1045.70 203.8046
1045.80 204.1685
1045.90 204.5325
1046.00 204.8965
1046.10 205.2605
1046.20 205.3166
1046.30 205.2407
1046.40 205.1648
1046.50 205.0889
1046.60 205.0129
1046.70 204.937
1046.80 204.8611
1046.90 204.7852
1047.00 204.7093
1047.10 204.6334
1047.20 204.5575
1047.30 204.4816
1047.40 204.4057
1047.50 204.3298
1047.60 204.2539
1047.70 204.1779
1047.80 204.102
1047.90 204.0261
1048.00 203.9502
1048.10 203.8743
1048.20 203.7984
1048.30 203.7225
1048.40 203.6466
1048.50 203.5707
1048.60 203.4948
1048.70 203.4189
1048.80 203.3429
1048.90 203.267
1049.00 203.1911
1049.10 203.1152
1049.20 203.0393
1049.30 202.9634
1049.40 202.8875
1049.50 202.8116
1049.60 202.7357
1049.70 202.6598
1049.80 202.5838
1049.90 202.5079
1050.00 202.432
1050.10 202.3561
1050.20 202.3673
1050.30 202.4159
1050.40 202.4645
1050.50 202.513
1050.60 202.5616
1050.70 202.6102
1050.80 202.6587
1050.90 202.7073
1051.00 202.7559
1051.10 202.8044
1051.20 202.853
1051.30 202.9015
1051.40 202.9501
1051.50 202.9987
1051.60 203.0472
1051.70 203.0958
1051.80 203.1444
1051.90 203.1929
1052.00 203.2415
1052.10 203.29
1052.20 203.3386
1052.30 203.3872
1052.40 203.4357
1052.50 203.4843
1052.60 203.5329
1052.70 203.5814
1052.80 203.63
1052.90 203.6786
1053.00 203.7271
1053.10 203.7757
1053.20 203.8242
1053.30 203.8728
1053.40 203.9214
1053.50 203.9699
1053.60 204.0185
1053.70 204.0671
1053.80 204.1156
1053.90 204.1642
1054.00 204.2128
1054.10 204.2613
1054.20 204.3445
1054.30 204.4624
1054.40 204.5802
1054.50 204.6981
1054.60 204.816
1054.70 204.9338
1054.80 205.0517
1054.90 205.1695
1055.00 205.2874
1055.10 205.4052
1055.20 205.5231
1055.30 205.641
1055.40 205.7588
1055.50 205.8767
1055.60 205.9945
1055.70 206.1124
1055.80 206.2302
1055.90 206.3481
1056.00 206.466
1056.10 206.5838
1056.20 206.7017
1056.30 206.8195
1056.40 206.9374
1056.50 207.0552
1056.60 207.1731
1056.70 207.291
1056.80 207.4088
1056.90 207.5267
1057.00 207.6445
1057.10 207.7624
1057.20 207.8803
1057.30 207.9981
1057.40 208.116
1057.50 208.2338
1057.60 208.3517
1057.70 208.4695
1057.80 208.5874
1057.90 208.7053
1058.00 208.8231
1058.10 208.941
1058.20 209.0564
1058.30 209.1661
1058.40 209.2759
1058.50 209.3857
1058.60 209.4954
1058.70 209.6052
1058.80 209.7149
1058.90 209.8247
1059.00 209.9344
1059.10 210.0442
1059.20 210.1539
1059.30 210.2637
1059.40 210.3734
1059.50 210.4832
1059.60 210.5929
1059.70 210.7027
1059.80 210.8124
1059.90 210.9222
1060.00 211.0319
1060.10 211.1417
1060.20 211.2514
1060.30 211.3612
1060.40 211.471
1060.50 211.5807
1060.60 211.6905
1060.70 211.8002
1060.80 211.91
1060.90 212.0197
1061.00 212.1295
1061.10 212.2392
1061.20 212.349
1061.30 212.4587
1061.40 212.5685
1061.50 212.6782
1061.60 212.788
1061.70 212.8977
1061.80 213.0075
1061.90 213.1172
1062.00 213.227
1062.10 213.3367
1062.20 213.4465
1062.30 213.5845
1062.40 213.7256
1062.50 213.8667
1062.60 214.0079
1062.70 214.149
1062.80 214.2901
1062.90 214.4312
1063.00 214.5723
1063.10 214.7135
1063.20 214.8546
1063.30 214.9957
1063.40 215.1368
1063.50 215.278
1063.60 215.4191
1063.70 215.5602
1063.80 215.7013
1063.90 215.8424
1064.00 215.9836
1064.10 216.1247
1064.20 216.2658
1064.30 216.4069
1064.40 216.548
1064.50 216.6892
1064.60 216.8303
1064.70 216.9714
1064.80 217.1125
1064.90 217.2537
1065.00 217.3948
1065.10 217.5359
1065.20 217.677
1065.30 217.8181
1065.40 217.9593
1065.50 218.1004
1065.60 218.2415
1065.70 218.3826
1065.80 218.5238
1065.90 218.6649
1066.00 218.806
1066.10 218.9471
1066.20 219.0882
1066.30 219.238
1066.40 219.4006
1066.50 219.5632
1066.60 219.7258
1066.70 219.8884
1066.80 220.051
1066.90 220.2136
1067.00 220.3762
1067.10 220.5388
1067.20 220.7014
1067.30 220.864
1067.40 221.0266
1067.50 221.1892
1067.60 221.3518
1067.70 221.5144
1067.80 221.677
1067.90 221.8396
1068.00 222.0022
1068.10 222.1649
1068.20 222.3275
1068.30 222.4901
1068.40 222.6527
1068.50 222.8153
1068.60 222.9779
1068.70 223.1405
1068.80 223.3031
1068.90 223.4657
1069.00 223.6283
1069.10 223.7909
1069.20 223.9535
1069.30 224.1161
1069.40 224.2787
1069.50 224.4413
1069.60 224.6039
1069.70 224.7665
1069.80 224.9291
1069.90 225.0917
1070.00 225.2544
1070.10 225.417
1070.20 225.5796
1070.30 225.7422
1070.40 225.8851
1070.50 226.0259
1070.60 226.1667
1070.70 226.3074
1070.80 226.4482
1070.90 226.589
1071.00 226.7297
1071.10 226.8705
1071.20 227.0113
1071.30 227.152
1071.40 227.2928
1071.50 227.4336
1071.60 227.5743
1071.70 227.7151
1071.80 227.8559
1071.90 227.9966
1072.00 228.1374
1072.10 228.2782
1072.20 228.419
1072.30 228.5597
1072.40 228.7005
1072.50 228.8413
1072.60 228.982
1072.70 229.1228
1072.80 229.2636
1072.90 229.4043
1073.00 229.5451
1073.10 229.6859
1073.20 229.8266
1073.30 229.9674
1073.40 230.1082
1073.50 230.2489
1073.60 230.3897
1073.70 230.5305
1073.80 230.6713
1073.90 230.812
1074.00 230.9528
1074.10 231.0936
1074.20 231.2343
1074.30 231.3751
1074.40 231.5184
1074.50 231.6717
1074.60 231.8249
1074.70 231.9782
1074.80 232.1315
1074.90 232.2848
1075.00 232.4381
1075.10 232.5914
1075.20 232.7446
1075.30 232.8979
1075.40 233.0512
1075.50 233.2045
1075.60 233.3578
1075.70 233.5111
1075.80 233.6643
1075.90 233.8176
1076.00 233.9709
1076.10 234.1242
1076.20 234.2775
1076.30 234.4308
1076.40 234.584
1076.50 234.7373
1076.60 234.8906
1076.70 235.0439
1076.80 235.1972
1076.90 235.3505
1077.00 235.5037
1077.10 235.657
1077.20 235.8103
1077.30 235.9636
1077.40 236.1169
1077.50 236.2702
1077.60 236.4234
1077.70 236.5767
1077.80 236.73
1077.90 236.8833
1078.00 237.0366
1078.10 237.1899
1078.20 237.3431
1078.30 237.4964
1078.40 237.6497
1078.50 237.7371
1078.60 237.7256
1078.70 237.7141
1078.80 237.7026
1078.90 237.691
1079.00 237.6795
1079.10 237.668
1079.20 237.6565
1079.30 237.645
1079.40 237.6335
1079.50 237.622
1079.60 237.6105
1079.70 237.599
1079.80 237.5875
1079.90 237.576
1080.00 237.5645
1080.10 237.553
1080.20 237.5415
1080.30 237.53
1080.40 237.5185
1080.50 237.5069
1080.60 237.4954
1080.70 237.4839
1080.80 237.4724
1080.90 237.4609
1081.00 237.4494
1081.10 237.4379
1081.20 237.4264
1081.30 237.4149
1081.40 237.4034
1081.50 237.3919
1081.60 237.3804
1081.70 237.3689
1081.80 237.3574
1081.90 237.3459
1082.00 237.3344
1082.10 237.3229
1082.20 237.3113
1082.30 237.2998
1082.40 237.2883
1082.50 237.2768
1082.60 237.4498
1082.70 237.8073
1082.80 238.1647
1082.90 238.5222
1083.00 238.8797
1083.10 239.2372
1083.20 239.5946
1083.30 239.9521
1083.40 240.3096
1083.50 240.667
1083.60 241.0245
1083.70 241.382
1083.80 241.7394
1083.90 242.0969
1084.00 242.4544
1084.10 242.8118
1084.20 243.1693
1084.30 243.5268
1084.40 243.8842
1084.50 244.2417
1084.60 244.5992
1084.70 244.9567
1084.80 245.3141
1084.90 245.6716
1085.00 246.0291
1085.10 246.3865
1085.20 246.744
1085.30 247.1015
1085.40 247.4589
1085.50 247.8164
1085.60 248.1739
1085.70 248.5313
1085.80 248.8888
1085.90 249.2463
1086.00 249.6037
1086.10 249.9612
1086.20 250.3187
1086.30 250.6762
1086.40 251.0336
1086.50 251.3911
1086.60 251.7486
1086.70 251.9849
1086.80 252.1404
1086.90 252.2959
1087.00 252.4514
1087.10 252.6069
1087.20 252.7624
1087.30 252.9179
1087.40 253.0734
1087.50 253.2289
1087.60 253.3844
1087.70 253.5399
1087.80 253.6954
1087.90 253.8509
1088.00 254.0064
1088.10 254.1619
1088.20 254.3174
1088.30 254.4729
1088.40 254.6284
1088.50 254.7839
1088.60 254.9394
1088.70 255.0949
1088.80 255.2504
1088.90 255.4059
1089.00 255.5614
1089.10 255.7169
1089.20 255.8724
1089.30 256.0279
1089.40 256.1834
1089.50 256.3389
1089.60 256.4944
1089.70 256.6499
1089.80 256.8054
1089.90 256.9609
1090.00 257.1164
1090.10 257.2719
1090.20 257.4274
1090.30 257.5829
1090.40 257.7384
1090.50 257.8939
1090.60 258.0494
1090.70 258.2049
1090.80 258.2552
1090.90 258.2005
1091.00 258.1457
1091.10 258.0909
1091.20 258.0361
1091.30 257.9813
1091.40 257.9265
1091.50 257.8718
1091.60 257.817
1091.70 257.7622
1091.80 257.7074
1091.90 257.6526
1092.00 257.5978
1092.10 257.5431
1092.20 257.4883
1092.30 257.4335
1092.40 257.3787
1092.50 257.3239
1092.60 257.2691
1092.70 257.2144
1092.80 257.1596
1092.90 257.1048
1093.00 257.05
1093.10 256.9952
1093.20 256.9404
1093.30 256.8857
1093.40 256.8309
1093.50 256.7761
1093.60 256.7213
1093.70 256.6665
1093.80 256.6117
1093.90 256.557
1094.00 256.5022
1094.10 256.4474
1094.20 256.3926
1094.30 256.3378
1094.40 256.283
1094.50 256.2283
1094.60 256.1735
1094.70 256.1187
1094.80 256.0639
1094.90 256.143
1095.00 256.4229
1095.10 256.7028
1095.20 256.9828
1095.30 257.2627
1095.40 257.5426
1095.50 257.8225
1095.60 258.1024
1095.70 258.3823
1095.80 258.6623
1095.90 258.9422
1096.00 259.2221
1096.10 259.502
1096.20 259.7819
1096.30 260.0618
1096.40 260.3418
1096.50 260.6217
1096.60 260.9016
1096.70 261.1815
1096.80 261.4614
1096.90 261.7414
1097.00 262.0213
1097.10 262.3012
1097.20 262.5811
1097.30 262.861
1097.40 263.1409
1097.50 263.4209
1097.60 263.7008
1097.70 263.9807
1097.80 264.2606
1097.90 264.5405
1098.00 264.8205
1098.10 265.1004
1098.20 265.3803
1098.30 265.6602
1098.40 265.9401
1098.50 266.22
1098.60 266.5
1098.70 266.7799
1098.80 267.0598
1098.90 267.3397
1099.00 267.5738
1099.10 267.3949
1099.20 267.2161
1099.30 267.0373
1099.40 266.8584
1099.50 266.6796
1099.60 266.5008
1099.70 266.3219
1099.80 266.1431
1099.90 265.9643
1100.00 265.7854
1100.10 265.6066
1100.20 265.4278
1100.30 265.249
1100.40 265.0701
1100.50 264.8913
1100.60 264.7125
1100.70 264.5336
1100.80 264.3548
1100.90 264.176
1101.00 263.9971
1101.10 263.8183
1101.20 263.6395
1101.30 263.4606
1101.40 263.2818
1101.50 263.103
1101.60 262.9241
1101.70 262.7453
1101.80 262.5665
1101.90 262.3877
1102.00 262.2088
1102.10 262.03
1102.20 261.8512
1102.30 261.6723
1102.40 261.4935
1102.50 261.3147
1102.60 261.1358
1102.70 260.957
1102.80 260.7782
1102.90 260.5993
1103.00 260.4205
1103.10 260.2417
1103.20 260.0578
1103.30 259.8726
1103.40 259.6874
1103.50 259.5022
1103.60 259.3171
1103.70 259.1319
1103.80 258.9467
1103.90 258.7615
1104.00 258.5763
1104.10 258.3912
1104.20 258.206
1104.30 258.0208
1104.40 257.8356
1104.50 257.6504
1104.60 257.4653
1104.70 257.2801
1104.80 257.0949
1104.90 256.9097
1105.00 256.7246
1105.10 256.5394
1105.20 256.3542
1105.30 256.169
1105.40 255.9838
1105.50 255.7987
1105.60 255.6135
1105.70 255.4283
1105.80 255.2431
1105.90 255.0579
1106.00 254.8728
1106.10 254.6876
1106.20 254.5024
1106.30 254.3172
1106.40 254.132
1106.50 253.9469
1106.60 253.7617
1106.70 253.5765
1106.80 253.3913
1106.90 253.2062
1107.00 253.021
1107.10 252.8358
1107.20 252.6506
1107.30 252.4959
1107.40 252.3868
1107.50 252.2777
1107.60 252.1685
1107.70 252.0594
1107.80 251.9503
1107.90 251.8412
1108.00 251.7321
1108.10 251.623
1108.20 251.5139
1108.30 251.4048
1108.40 251.2957
1108.50 251.1866
1108.60 251.0775
1108.70 250.9683
1108.80 250.8592
1108.90 250.7501
1109.00 250.641
1109.10 250.5319
1109.20 250.4228
1109.30 250.3137
1109.40 250.2046
1109.50 250.0955
1109.60 249.9864
1109.70 249.8773
1109.80 249.7682
1109.90 249.659
1110.00 249.5499
1110.10 249.4408
1110.20 249.3317
1110.30 249.2226
1110.40 249.1135
1110.50 249.0044
1110.60 248.8953
1110.70 248.7862
1110.80 248.6771
1110.90 248.568
1111.00 248.4589
1111.10 248.3497
1111.20 248.2406
1111.30 248.1315
1111.40 248.0224
1111.50 247.8018
1111.60 247.5687
1111.70 247.3357
1111.80 247.1026
1111.90 246.8696
1112.00 246.6366
1112.10 246.4035
1112.20 246.1705
1112.30 245.9374
1112.40 245.7044
1112.50 245.4713
1112.60 245.2383
1112.70 245.0052
1112.80 244.7722
1112.90 244.5392
1113.00 244.3061
1113.10 244.0731
1113.20 243.84
1113.30 243.607
1113.40 243.3739
1113.50 243.1409
1113.60 242.9079
1113.70 242.6748
1113.80 242.4418
1113.90 242.2087
1114.00 241.9757
1114.10 241.7426
1114.20 241.5096
1114.30 241.2765
1114.40 241.0435
1114.50 240.8105
1114.60 240.5774
1114.70 240.3444
1114.80 240.1113
1114.90 239.8783
1115.00 239.6452
1115.10 239.4122
1115.20 239.1792
1115.30 238.9461
1115.40 238.7131
1115.50 238.48
1115.60 238.4142
1115.70 238.7385
1115.80 239.0629
1115.90 239.3872
1116.00 239.7116
1116.10 240.0359
1116.20 240.3603
1116.30 240.6846
1116.40 241.009
1116.50 241.3333
1116.60 241.6577
1116.70 241.982
1116.80 242.3064
1116.90 242.6307
1117.00 242.9551
1117.10 243.2795
1117.20 243.6038
1117.30 243.9282
1117.40 244.2525
1117.50 244.5769
1117.60 244.9012
1117.70 245.2256
1117.80 245.5499
1117.90 245.8743
1118.00 246.1986
1118.10 246.523
1118.20 246.8473
1118.30 247.1717
1118.40 247.496
1118.50 247.8204
1118.60 248.1447
1118.70 248.4691
1118.80 248.7934
1118.90 249.1178
1119.00 249.4421
1119.10 249.7665
1119.20 250.0908
1119.30 250.4152
1119.40 250.7395
1119.50 251.0639
1119.60 251.3882
1119.70 251.7126
1119.80 251.859
1119.90 251.8869
1120.00 251.9148
1120.10 251.9427
1120.20 251.9706
1120.30 251.9985
1120.40 252.0264
1120.50 252.0543
1120.60 252.0821
1120.70 252.11
1120.80 252.1379
1120.90 252.1658
1121.00 252.1937
1121.10 252.2216
1121.20 252.2495
1121.30 252.2774
1121.40 252.3053
1121.50 252.3332
1121.60 252.361
1121.70 252.3889
1121.80 252.4168
1121.90 252.4447
1122.00 252.4726
1122.10 252.5005
1122.20 252.5284
1122.30 252.5563
1122.40 252.5842
1122.50 252.612
1122.60 252.6399
1122.70 252.6678
1122.80 252.6957
1122.90 252.7236
1123.00 252.7515
1123.10 252.7794
1123.20 252.8073
1123.30 252.8352
1123.40 252.863
1123.50 252.8909
1123.60 252.9188
1123.70 252.9467
1123.80 252.9746
1123.90 253.0025
1124.00 252.8911
1124.10 252.7643
1124.20 252.6374
1124.30 252.5106
1124.40 252.3837
1124.50 252.2568
1124.60 252.13
1124.70 252.0031
1124.80 251.8763
1124.90 251.7494
1125.00 251.6226
1125.10 251.4957
1125.20 251.3689
1125.30 251.242
1125.40 251.1152
1125.50 250.9883
1125.60 250.8615
1125.70 250.7346
1125.80 250.6078
1125.90 250.4809
1126.00 250.3541
1126.10 250.2272
1126.20 250.1003
1126.30 249.9735
1126.40 249.8466
1126.50 249.7198
1126.60 249.5929
1126.70 249.4661
1126.80 249.3392
1126.90 249.2124
1127.00 249.0855
1127.10 248.9587
1127.20 248.8318
1127.30 248.705
1127.40 248.5781
1127.50 248.4513
1127.60 248.3244
1127.70 248.1975
1127.80 248.0707
1127.90 247.9438
1128.00 247.817
1128.10 247.6931
1128.20 247.5955
1128.30 247.498
1128.40 247.4005
1128.50 247.3029
1128.60 247.2054
1128.70 247.1079
1128.80 247.0103
1128.90 246.9128
1129.00 246.8153
1129.10 246.7177
1129.20 246.6202
1129.30 246.5227
1129.40 246.4251
1129.50 246.3276
1129.60 246.2301
1129.70 246.1325
1129.80 246.035
1129.90 245.9374
1130.00 245.8399
1130.10 245.7424
1130.20 245.6448
1130.30 245.5473
1130.40 245.4498
1130.50 245.3522
1130.60 245.2547
1130.70 245.1572
1130.80 245.0596
1130.90 244.9621
1131.00 244.8646
1131.10 244.767
1131.20 244.6695
1131.30 244.572
1131.40 244.4744
1131.50 244.3769
1131.60 244.2794
1131.70 244.1818
1131.80 244.0843
1131.90 243.9868
1132.00 243.8892
1132.10 243.7917
1132.20 243.6942
1132.30 243.7027
1132.40 244.1354
1132.50 244.5682
1132.60 245.0009
1132.70 245.4337
1132.80 245.8664
1132.90 246.2991
1133.00 246.7319
1133.10 247.1646
1133.20 247.5974
1133.30 248.0301
1133.40 248.4629
1133.50 248.8956
1133.60 249.3283
1133.70 249.7611
1133.80 250.1938
1133.90 250.6266
1134.00 251.0593
1134.10 251.4921
1134.20 251.9248
1134.30 252.3575
1134.40 252.7903
1134.50 253.223
1134.60 253.6558
1134.70 254.0885
1134.80 254.5213
1134.90 254.954
1135.00 255.3868
1135.10 255.8195
1135.20 256.2522
1135.30 256.685
1135.40 257.1177
1135.50 257.5505
1135.60 257.9832
1135.70 258.416
1135.80 258.8487
1135.90 259.2814
1136.00 259.7142
1136.10 260.1469
1136.20 260.5797
1136.30 261.0124
1136.40 261.4452
1136.50 261.6417
1136.60 261.2871
1136.70 260.9326
1136.80 260.578
1136.90 260.2234
1137.00 259.8689
1137.10 259.5143
1137.20 259.1597
1137.30 258.8052
1137.40 258.4506
1137.50 258.096
1137.60 257.7415
1137.70 257.3869
1137.80 257.0323
1137.90 256.6778
1138.00 256.3232
1138.10 255.9686
1138.20 255.6141
1138.30 255.2595
1138.40 254.9049
1138.50 254.5504
1138.60 254.1958
1138.70 253.8412
1138.80 253.4867
1138.90 253.1321
1139.00 252.7775
1139.10 252.423
1139.20 252.0684
1139.30 251.7138
1139.40 251.3593
1139.50 251.0047
1139.60 250.6501
1139.70 250.2956
1139.80 249.941
1139.90 249.5864
1140.00 249.2319
1140.10 248.8773
1140.20 248.5227
1140.30 248.1682
1140.40 247.8136
1140.50 247.459
1140.60 247.1045
1140.70 246.8109
1140.80 246.6599
1140.90 246.5089
1141.00 246.3578
1141.10 246.2068
1141.20 246.0558
1141.30 245.9047
1141.40 245.7537
1141.50 245.6027
1141.60 245.4516
1141.70 245.3006
1141.80 245.1496
1141.90 244.9985
1142.00 244.8475
1142.10 244.6965
1142.20 244.5454
1142.30 244.3944
1142.40 244.2433
1142.50 244.0923
1142.60 243.9413
1142.70 243.7902
1142.80 243.6392
1142.90 243.4882
1143.00 243.3371
1143.10 243.1861
1143.20 243.0351
1143.30 242.884
1143.40 242.733
1143.50 242.582
1143.60 242.4309
1143.70 242.2799
1143.80 242.1289
1143.90 241.9778
1144.00 241.8268
1144.10 241.6758
1144.20 241.5247
1144.30 241.3737
1144.40 241.2226
1144.50 241.0716
1144.60 240.9206
1144.70 240.7695
1144.80 240.6185
1144.90 240.5681
1145.00 240.9205
1145.10 241.2728
1145.20 241.6252
1145.30 241.9775
1145.40 242.3298
1145.50 242.6822
1145.60 243.0345
1145.70 243.3868
1145.80 243.7392
1145.90 244.0915
1146.00 244.4439
1146.10 244.7962
1146.20 245.1485
1146.30 245.5009
1146.40 245.8532
1146.50 246.2056
1146.60 246.5579
1146.70 246.9102
1146.80 247.2626
1146.90 247.6149
1147.00 247.9672
1147.10 248.3196
1147.20 248.6719
1147.30 249.0243
1147.40 249.3766
1147.50 249.7289
1147.60 250.0813
1147.70 250.4336
1147.80 250.7859
1147.90 251.1383
1148.00 251.4906
1148.10 251.843
1148.20 252.1953
1148.30 252.5476
1148.40 252.9
1148.50 253.2523
1148.60 253.6046
1148.70 253.957
1148.80 254.3093
1148.90 254.6617
1149.00 255.014
1149.10 255.3663
1149.20 255.7013
1149.30 256.0362
1149.40 256.3712
1149.50 256.7061
1149.60 257.0411
1149.70 257.376
1149.80 257.711
1149.90 258.0459
1150.00 258.3809
1150.10 258.7158
1150.20 259.0507
1150.30 259.3857
1150.40 259.7206
1150.50 260.0556
1150.60 260.3905
1150.70 260.7255
1150.80 261.0604
1150.90 261.3954
1151.00 261.7303
1151.10 262.0653
1151.20 262.4002
1151.30 262.7352
1151.40 263.0701
1151.50 263.4051
1151.60 263.74
1151.70 264.0749
1151.80 264.4099
1151.90 264.7448
1152.00 265.0798
1152.10 265.4147
1152.20 265.7497
1152.30 266.0846
1152.40 266.4196
1152.50 266.7545
1152.60 267.0895
1152.70 267.4244
1152.80 267.7594
1152.90 268.0943
1153.00 268.4292
1153.10 268.7642
1153.20 269.0991
1153.30 269.4341
1153.40 269.5156
1153.50 269.5338
1153.60 269.552
1153.70 269.5702
1153.80 269.5884
1153.90 269.6066
1154.00 269.6248
1154.10 269.643
1154.20 269.6612
1154.30 269.6794
1154.40 269.6976
1154.50 269.7158
1154.60 269.734
1154.70 269.7522
1154.80 269.7704
1154.90 269.7886
1155.00 269.8068
1155.10 269.825
1155.20 269.8432
1155.30 269.8614
1155.40 269.8796
1155.50 269.8978
1155.60 269.916
1155.70 269.9342
1155.80 269.9524
1155.90 269.9706
1156.00 269.9888
1156.10 270.007
1156.20 270.0252
1156.30 270.0434
1156.40 270.0616
1156.50 270.0798
1156.60 270.098
1156.70 270.1162
1156.80 270.1344
1156.90 270.1526
1157.00 270.1708
1157.10 270.189
1157.20 270.2072
1157.30 270.2254
1157.40 270.2436
1157.50 270.2618
1157.60 270.3693
1157.70 270.5362
1157.80 270.7032
1157.90 270.8701
1158.00 271.0371
1158.10 271.2041
1158.20 271.371
1158.30 271.538
1158.40 271.7049
1158.50 271.8719
1158.60 272.0388
1158.70 272.2058
1158.80 272.3728
1158.90 272.5397
1159.00 272.7067
1159.10 272.8736
1159.20 273.0406
1159.30 273.2075
1159.40 273.3745
1159.50 273.5415
1159.60 273.7084
1159.70 273.8754
1159.80 274.0423
1159.90 274.2093
1160.00 274.3762
1160.10 274.5432
1160.20 274.7101
1160.30 274.8771
1160.40 275.0441
1160.50 275.211
1160.60 275.378
1160.70 275.5449
1160.80 275.7119
1160.90 275.8788
1161.00 276.0458
1161.10 276.2128
1161.20 276.3797
1161.30 276.5467
1161.40 276.7136
1161.50 276.8806
1161.60 277.0475
1161.70 277.2145
1161.80 277.361
1161.90 277.4256
1162.00 277.4903
1162.10 277.5549
1162.20 277.6196
1162.30 277.6842
1162.40 277.7489
1162.50 277.8135
1162.60 277.8781
1162.70 277.9428
1162.80 278.0074
1162.90 278.0721
1163.00 278.1367
1163.10 278.2014
1163.20 278.266
1163.30 278.3307
1163.40 278.3953
1163.50 278.4599
1163.60 278.5246
1163.70 278.5892
1163.80 278.6539
1163.90 278.7185
1164.00 278.7832
1164.10 278.8478
1164.20 278.9124
1164.30 278.9771
1164.40 279.0417
1164.50 279.1064
1164.60 279.171
1164.70 279.2357
1164.80 279.3003
1164.90 279.365
1165.00 279.4296
1165.10 279.4942
1165.20 279.5589
1165.30 279.6235
1165.40 279.6882
1165.50 279.7528
1165.60 279.8175
1165.70 279.8821
1165.80 279.9468
1165.90 280.0114
1166.00 280.076
1166.10 279.7482
1166.20 279.3767
1166.30 279.0053
1166.40 278.6338
1166.50 278.2624
1166.60 277.8909
1166.70 277.5195
1166.80 277.148
1166.90 276.7766
1167.00 276.4051
1167.10 276.0337
1167.20 275.6622
1167.30 275.2908
1167.40 274.9193
1167.50 274.5479
1167.60 274.1764
1167.70 273.805
1167.80 273.4335
1167.90 273.0621
1168.00 272.6906
1168.10 272.3192
1168.20 271.9477
1168.30 271.5763
1168.40 271.2048
1168.50 270.8334
1168.60 270.4619
1168.70 270.0905
1168.80 269.719
1168.90 269.3476
1169.00 268.9761
1169.10 268.6047
1169.20 268.2332
1169.30 267.8618
1169.40 267.4903
1169.50 267.1189
1169.60 266.7474
1169.70 266.376
1169.80 266.0045
1169.90 265.6331
1170.00 265.2616
1170.10 264.8901
1170.20 264.5187
1170.30 264.1907
1170.40 263.928
1170.50 263.6653
1170.60 263.4026
1170.70 263.1399
1170.80 262.8771
1170.90 262.6144
1171.00 262.3517
1171.10 262.089
1171.20 261.8262
1171.30 261.5635
1171.40 261.3008
1171.50 261.0381
1171.60 260.7754
1171.70 260.5126
1171.80 260.2499
1171.90 259.9872
1172.00 259.7245
1172.10 259.4618
1172.20 259.199
1172.30 258.9363
1172.40 258.6736
1172.50 258.4109
1172.60 258.1482
1172.70 257.8854
1172.80 257.6227
1172.90 257.36
1173.00 257.0973
1173.10 256.8345
1173.20 256.5718
1173.30 256.3091
1173.40 256.0464
1173.50 255.7837
1173.60 255.5209
1173.70 255.2582
1173.80 254.9955
1173.90 254.7328
1174.00 254.4701
1174.10 254.2073
1174.20 253.9446
1174.30 253.6819
1174.40 253.4192
1174.50 253.1564
1174.60 253.0716
1174.70 253.0065
1174.80 252.9415
1174.90 252.8764
1175.00 252.8113
1175.10 252.7463
1175.20 252.6812
1175.30 252.6161
1175.40 252.5511
1175.50 252.486
1175.60 252.4209
1175.70 252.3559
1175.80 252.2908
1175.90 252.2257
1176.00 252.1607
1176.10 252.0956
1176.20 252.0305
1176.30 251.9655
1176.40 251.9004
1176.50 251.8353
1176.60 251.7703
1176.70 251.7052
1176.80 251.6401
1176.90 251.5751
1177.00 251.51
1177.10 251.4449
1177.20 251.3799
1177.30 251.3148
1177.40 251.2497
1177.50 251.1847
1177.60 251.1196
1177.70 251.0545
1177.80 250.9895
1177.90 250.9244
1178.00 250.8593
1178.10 250.7943
1178.20 250.7292
1178.30 250.6641
1178.40 250.5991
1178.50 250.534
1178.60 250.4689
1178.70 250.4039
1178.80 250.4409
1178.90 250.631
1179.00 250.8212
1179.10 251.0113
1179.20 251.2015
1179.30 251.3916
1179.40 251.5817
1179.50 251.7719
1179.60 251.962
1179.70 252.1522
1179.80 252.3423
1179.90 252.5324
1180.00 252.7226
1180.10 252.9127
1180.20 253.1029
1180.30 253.293
1180.40 253.4831
1180.50 253.6733
1180.60 253.8634
1180.70 254.0536
1180.80 254.2437
1180.90 254.4338
1181.00 254.624
1181.10 254.8141
1181.20 255.0043
1181.30 255.1944
1181.40 255.3845
1181.50 255.5747
1181.60 255.7648
1181.70 255.955
1181.80 256.1451
1181.90 256.3353
1182.00 256.5254
1182.10 256.7155
1182.20 256.9057
1182.30 257.0958
1182.40 257.286
1182.50 257.4761
1182.60 257.6662
1182.70 257.8564
1182.80 258.0465
1182.90 258.2367
1183.00 258.4268
1183.10 258.3726
1183.20 258.2572
1183.30 258.1419
1183.40 258.0265
1183.50 257.9112
1183.60 257.7958
1183.70 257.6805
1183.80 257.5651
1183.90 257.4498
1184.00 257.3345
1184.10 257.2191
1184.20 257.1038
1184.30 256.9884
1184.40 256.8731
1184.50 256.7577
1184.60 256.6424
1184.70 256.5271
1184.80 256.4117
1184.90 256.2964
1185.00 256.181
1185.10 256.0657
1185.20 255.9503
1185.30 255.835
1185.40 255.7197
1185.50 255.6043
1185.60 255.489
1185.70 255.3736
1185.80 255.2583
1185.90 255.1429
1186.00 255.0276
1186.10 254.9123
1186.20 254.7969
1186.30 254.6816
1186.40 254.5662
1186.50 254.4509
1186.60 254.3355
1186.70 254.2202
1186.80 254.1049
1186.90 253.9895
1187.00 253.8742
1187.10 253.7588
1187.20 253.6435
1187.30 253.626
1187.40 253.9998
1187.50 254.3737
1187.60 254.7475
1187.70 255.1214
1187.80 255.4953
1187.90 255.8691
1188.00 256.243
1188.10 256.6168
1188.20 256.9907
1188.30 257.3646
1188.40 257.7384
1188.50 258.1123
1188.60 258.4861
1188.70 258.86
1188.80 259.2338
1188.90 259.6077
1189.00 259.9816
1189.10 260.3554
1189.20 260.7293
1189.30 261.1031
1189.40 261.477
1189.50 261.8508
1189.60 262.2247
1189.70 262.5986
1189.80 262.9724
1189.90 263.3463
1190.00 263.7201
1190.10 264.094
1190.20 264.4678
1190.30 264.8417
1190.40 265.2156
1190.50 265.5894
1190.60 265.9633
1190.70 266.3371
1190.80 266.711
1190.90 267.0848
1191.00 267.4587
1191.10 267.8326
1191.20 268.2064
1191.30 268.5803
1191.40 268.9541
1191.50 269.328
1191.60 269.5232
1191.70 269.5398
1191.80 269.5564
1191.90 269.5729
1192.00 269.5895
1192.10 269.6061
1192.20 269.6227
1192.30 269.6392
1192.40 269.6558
1192.50 269.6724
1192.60 269.689
1192.70 269.7056
1192.80 269.7221
1192.90 269.7387
1193.00 269.7553
1193.10 269.7719
1193.20 269.7884
1193.30 269.805
1193.40 269.8216
1193.50 269.8382
1193.60 269.8547
1193.70 269.8713
1193.80 269.8879
1193.90 269.9045
1194.00 269.9211
1194.10 269.9376
1194.20 269.9542
1194.30 269.9708
1194.40 269.9874
1194.50 270.0039
1194.60 270.0205
1194.70 270.0371
1194.80 270.0537
1194.90 270.0702
1195.00 270.0868
1195.10 270.1034
1195.20 270.12
1195.30 270.1366
1195.40 270.1531
1195.50 270.1697
1195.60 270.1863
1195.70 270.2029
1195.80 270.2194
1195.90 270.221
1196.00 270.2188
1196.10 270.2166
1196.20 270.2144
1196.30 270.2122
1196.40 270.21
1196.50 270.2078
1196.60 270.2056
1196.70 270.2034
1196.80 270.2012
1196.90 270.199
1197.00 270.1968
1197.10 270.1946
1197.20 270.1924
1197.30 270.1902
1197.40 270.1881
1197.50 270.1859
1197.60 270.1837
1197.70 270.1815
1197.80 270.1793
1197.90 270.1771
1198.00 270.1749
1198.10 270.1727
1198.20 270.1705
1198.30 270.1683
1198.40 270.1661
1198.50 270.1639
1198.60 270.1617
1198.70 270.1595
1198.80 270.1573
1198.90 270.1551
1199.00 270.1529
1199.10 270.1507
1199.20 270.1485
1199.30 270.1463
1199.40 270.1441
1199.50 270.1419
1199.60 270.1397
1199.70 270.1375
1199.80 270.1353
1199.90 270.1332
1200.00 270.131
1200.10 270.1288
1200.20 269.8777
1200.30 269.6267
1200.40 269.3757
1200.50 269.1247
1200.60 268.8737
1200.70 268.6227
1200.80 268.3717
1200.90 268.1207
1201.00 267.8696
1201.10 267.6186
1201.20 267.3676
1201.30 267.1166
1201.40 266.8656
1201.50 266.6146
1201.60 266.3636
1201.70 266.1126
1201.80 265.8615
1201.90 265.6105
1202.00 265.3595
1202.10 265.1085
1202.20 264.8575
1202.30 264.6065
1202.40 264.3555
1202.50 264.1045
1202.60 263.8534
1202.70 263.6024
1202.80 263.3514
1202.90 263.1004
1203.00 262.8494
1203.10 262.5984
1203.20 262.3474
1203.30 262.0964
1203.40 261.8453
1203.50 261.5943
1203.60 261.3433
1203.70 261.0923
1203.80 260.8413
1203.90 260.5903
1204.00 260.3393
1204.10 260.0883
1204.20 259.8372
1204.30 259.5862
1204.40 259.4201
1204.50 259.5935
1204.60 259.767
1204.70 259.9404
1204.80 260.1138
1204.90 260.2873
1205.00 260.4607
1205.10 260.6341
1205.20 260.8075
1205.30 260.981
1205.40 261.1544
1205.50 261.3278
1205.60 261.5013
1205.70 261.6747
1205.80 261.8481
1205.90 262.0215
1206.00 262.195
1206.10 262.3684
1206.20 262.5418
1206.30 262.7153
1206.40 262.8887
1206.50 263.0621
1206.60 263.2355
1206.70 263.409
1206.80 263.5824
1206.90 263.7558
1207.00 263.9293
1207.10 264.1027
1207.20 264.2761
1207.30 264.4495
1207.40 264.623
1207.50 264.7964
1207.60 264.9698
1207.70 265.1433
1207.80 265.3167
1207.90 265.4901
1208.00 265.6635
1208.10 265.837
1208.20 266.0104
1208.30 266.1838
1208.40 266.3572
1208.50 266.5307
1208.60 266.7041
1208.70 266.9847
1208.80 267.426
1208.90 267.8673
1209.00 268.3087
1209.10 268.75
1209.20 269.1913
1209.30 269.6326
1209.40 270.074
1209.50 270.5153
1209.60 270.9566
1209.70 271.3979
1209.80 271.8393
1209.90 272.2806
1210.00 272.7219
1210.10 273.1632
1210.20 273.6046
1210.30 274.0459
1210.40 274.4872
1210.50 274.9285
1210.60 275.3699
1210.70 275.8112
1210.80 276.2525
1210.90 276.6938
1211.00 277.1352
1211.10 277.5765
1211.20 278.0178
1211.30 278.4591
1211.40 278.9004
1211.50 279.3418
1211.60 279.7831
1211.70 280.2244
1211.80 280.6657
1211.90 281.1071
1212.00 281.5484
1212.10 281.9897
1212.20 282.431
1212.30 282.8724
1212.40 283.3137
1212.50 283.755
1212.60 284.1963
1212.70 284.6377
1212.80 285.079
1212.90 285.5203
1213.00 285.7722
1213.10 285.8348
1213.20 285.8973
1213.30 285.9599
1213.40 286.0224
1213.50 286.085
1213.60 286.1475
1213.70 286.2101
1213.80 286.2726
1213.90 286.3352
1214.00 286.3977
1214.10 286.4603
1214.20 286.5228
1214.30 286.5854
1214.40 286.6479
1214.50 286.7104
1214.60 286.773
1214.70 286.8355
1214.80 286.8981
1214.90 286.9606
1215.00 287.0232
1215.10 287.0857
1215.20 287.1483
1215.30 287.2108
1215.40 287.2734
1215.50 287.3359
1215.60 287.3985
1215.70 287.461
1215.80 287.5236
1215.90 287.5861
1216.00 287.6487
1216.10 287.7112
1216.20 287.7737
1216.30 287.8363
1216.40 287.8988
1216.50 287.9614
1216.60 288.0239
1216.70 288.0865
1216.80 288.149
1216.90 288.2116
1217.00 288.2741
1217.10 288.3367
1217.20 288.3992
1217.30 288.4767
1217.40 288.5641
1217.50 288.6515
1217.60 288.7389
1217.70 288.8263
1217.80 288.9137
1217.90 289.0011
1218.00 289.0885
1218.10 289.1759
1218.20 289.2632
1218.30 289.3506
1218.40 289.438
1218.50 289.5254
1218.60 289.6128
1218.70 289.7002
1218.80 289.7876
1218.90 289.875
1219.00 289.9624
1219.10 290.0498
1219.20 290.1372
1219.30 290.2246
1219.40 290.312
1219.50 290.3994
1219.60 290.4868
1219.70 290.5742
1219.80 290.6616
1219.90 290.749
1220.00 290.8364
1220.10 290.9238
1220.20 291.0112
1220.30 291.0986
1220.40 291.186
1220.50 291.2734
1220.60 291.3608
1220.70 291.4482
1220.80 291.5356
1220.90 291.623
1221.00 291.7104
1221.10 291.7978
1221.20 291.8852
1221.30 291.9726
1221.40 292.06
1221.50 292.1474
1221.60 292.3407
1221.70 292.5794
1221.80 292.818
1221.90 293.0567
1222.00 293.2954
1222.10 293.5341
1222.20 293.7728
1222.30 294.0115
1222.40 294.2502
1222.50 294.4889
1222.60 294.7276
1222.70 294.9663
1222.80 295.205
1222.90 295.4437
1223.00 295.6823
1223.10 295.921
1223.20 296.1597
1223.30 296.3984
1223.40 296.6371
1223.50 296.8758
1223.60 297.1145
1223.70 297.3532
1223.80 297.5919
1223.90 297.8306
1224.00 298.0693
1224.10 298.3079
1224.20 298.5466
1224.30 298.7853
1224.40 299.024
1224.50 299.2627
1224.60 299.5014
1224.70 299.7401
1224.80 299.9788
1224.90 300.2175
1225.00 300.4562
1225.10 300.6949
1225.20 300.9336
1225.30 301.1722
1225.40 301.4109
1225.50 301.6496
1225.60 301.8883
1225.70 302.127
1225.80 302.3657
1225.90 302.3967
1226.00 302.3387
1226.10 302.2806
1226.20 302.2226
1226.30 302.1646
1226.40 302.1066
1226.50 302.0486
1226.60 301.9905
1226.70 301.9325
1226.80 301.8745
1226.90 301.8165
1227.00 301.7584
1227.10 301.7004
1227.20 301.6424
1227.30 301.5844
1227.40 301.5264
1227.50 301.4683
1227.60 301.4103
1227.70 301.3523
1227.80 301.2943
1227.90 301.2362
1228.00 301.1782
1228.10 301.1202
1228.20 301.0622
1228.30 301.0042
1228.40 300.9461
1228.50 300.8881
1228.60 300.8301
1228.70 300.7721
1228.80 300.714
1228.90 300.656
1229.00 300.598
1229.10 300.54
1229.20 300.482
1229.30 300.4239
1229.40 300.3659
1229.50 300.3079
1229.60 300.2499
1229.70 300.1918
1229.80 300.1338
1229.90 300.0758
1230.00 300.0178
1230.10 299.9597
1230.20 300.1425
1230.30 300.3855
1230.40 300.6284
1230.50 300.8714
1230.60 301.1144
1230.70 301.3573
1230.80 301.6003
1230.90 301.8432
1231.00 302.0862
1231.10 302.3292
1231.20 302.5721
1231.30 302.8151
1231.40 303.0581
1231.50 303.301
1231.60 303.544
1231.70 303.7869
1231.80 304.0299
1231.90 304.2729
1232.00 304.5158
1232.10 304.7588
1232.20 305.0018
1232.30 305.2447
1232.40 305.4877
1232.50 305.7306
1232.60 305.9736
1232.70 306.2166
1232.80 306.4595
1232.90 306.7025
1233.00 306.9454
1233.10 307.1884
1233.20 307.4314
1233.30 307.6743
1233.40 307.9173
1233.50 308.1603
1233.60 308.4032
1233.70 308.6462
1233.80 308.8891
1233.90 309.1321
1234.00 309.3751
1234.10 309.618
1234.20 309.861
1234.30 310.104
1234.40 310.3469
1234.50 310.4521
1234.60 310.4983
1234.70 310.5445
1234.80 310.5907
1234.90 310.6369
1235.00 310.6831
1235.10 310.7293
1235.20 310.7755
1235.30 310.8217
1235.40 310.8679
1235.50 310.9141
1235.60 310.9603
1235.70 311.0065
1235.80 311.0527
1235.90 311.0989
1236.00 311.1451
1236.10 311.1913
1236.20 311.2375
1236.30 311.2836
1236.40 311.3298
1236.50 311.376
1236.60 311.4222
1236.70 311.4684
1236.80 311.5146
1236.90 311.5608
1237.00 311.607
1237.10 311.6532
1237.20 311.6994
1237.30 311.7456
1237.40 311.7918
1237.50 311.838
1237.60 311.8842
1237.70 311.9304
1237.80 311.9766
1237.90 312.0228
1238.00 312.069
1238.10 312.1152
1238.20 312.1613
1238.30 312.2075
1238.40 312.2537
1238.50 312.2999
1238.60 312.3461
1238.70 312.3923
1238.80 312.231
1238.90 311.9808
1239.00 311.7306
1239.10 311.4804
1239.20 311.2302
1239.30 310.98
1239.40 310.7298
1239.50 310.4796
1239.60 310.2294
1239.70 309.9792
1239.80 309.729
1239.90 309.4788
1240.00 309.2286
1240.10 308.9784
1240.20 308.7282
1240.30 308.478
1240.40 308.2278
1240.50 307.9776
1240.60 307.7274
1240.70 307.4772
1240.80 307.2269
1240.90 306.9767
1241.00 306.7265
1241.10 306.4763
1241.20 306.2261
1241.30 305.9759
1241.40 305.7257
1241.50 305.4755
1241.60 305.2253
1241.70 304.9751
1241.80 304.7249
1241.90 304.4747
1242.00 304.2245
1242.10 303.9743
1242.20 303.7241
1242.30 303.4739
1242.40 303.2237
1242.50 302.9735
1242.60 302.7233
1242.70 302.4731
1242.80 302.2229
1242.90 301.9727
1243.00 301.7225
1243.10 301.6387
1243.20 301.6264
1243.30 301.614
1243.40 301.6016
1243.50 301.5892
1243.60 301.5769
1243.70 301.5645
1243.80 301.5521
1243.90 301.5397
1244.00 301.5274
1244.10 301.515
1244.20 301.5026
1244.30 301.4902
1244.40 301.4779
1244.50 301.4655
1244.60 301.4531
1244.70 301.4407
1244.80 301.4284
1244.90 301.416
1245.00 301.4036
1245.10 301.3912
1245.20 301.3789
1245.30 301.3665
1245.40 301.3541
1245.50 301.3417
1245.60 301.3294
1245.70 301.317
1245.80 301.3046
1245.90 301.2922
1246.00 301.2799
1246.10 301.2675
1246.20 301.2551
1246.30 301.2427
1246.40 301.2303
1246.50 301.218
1246.60 301.2056
1246.70 301.1932
1246.80 301.1808
1246.90 301.1685
1247.00 301.1561
1247.10 301.1437
1247.20 301.1313
1247.30 301.119
1247.40 301.0165
1247.50 300.8539
1247.60 300.6913
1247.70 300.5287
1247.80 300.3661
1247.90 300.2035
1248.00 300.0409
1248.10 299.8782
1248.20 299.7156
1248.30 299.553
1248.40 299.3904
1248.50 299.2278
1248.60 299.0652
1248.70 298.9026
1248.80 298.74
1248.90 298.5774
1249.00 298.4148
1249.10 298.2522
1249.20 298.0896
1249.30 297.927
1249.40 297.7644
1249.50 297.6018
1249.60 297.4392
1249.70 297.2766
1249.80 297.114
1249.90 296.9514
1250.00 296.7888
1250.10 296.6262
1250.20 296.4636
1250.30 296.301
1250.40 296.1384
1250.50 295.9758
1250.60 295.8132
1250.70 295.6506
1250.80 295.488
1250.90 295.3254
1251.00 295.1628
1251.10 295.0002
1251.20 294.8376
1251.30 294.675
1251.40 294.5124
1251.50 294.3498
1251.60 294.1872
1251.70 294.1701
1251.80 294.2985
1251.90 294.4269
1252.00 294.5554
1252.10 294.6838
1252.20 294.8122
1252.30 294.9407
1252.40 295.0691
1252.50 295.1975
1252.60 295.3259
1252.70 295.4544
1252.80 295.5828
1252.90 295.7112
1253.00 295.8396
1253.10 295.9681
1253.20 296.0965
1253.30 296.2249
1253.40 296.3533
1253.50 296.4818
1253.60 296.6102
1253.70 296.7386
1253.80 296.867
1253.90 296.9955
1254.00 297.1239
1254.10 297.2523
1254.20 297.3808
1254.30 297.5092
1254.40 297.6376
1254.50 297.766
1254.60 297.8945
1254.70 298.0229
1254.80 298.1513
1254.90 298.2797
1255.00 298.4082
1255.10 298.5366
1255.20 298.665
1255.30 298.7934
1255.40 298.9219
1255.50 299.0503
1255.60 299.1787
1255.70 299.3072
1255.80 299.4356
1255.90 299.564
1256.00 299.6328
1256.10 299.6121
1256.20 299.5914
1256.30 299.5707
1256.40 299.55
1256.50 299.5292
1256.60 299.5085
1256.70 299.4878
1256.80 299.4671
1256.90 299.4464
1257.00 299.4257
1257.10 299.405
1257.20 299.3843
1257.30 299.3636
1257.40 299.3429
1257.50 299.3222
1257.60 299.3015
1257.70 299.2808
1257.80 299.2601
1257.90 299.2394
1258.00 299.2186
1258.10 299.1979
1258.20 299.1772
1258.30 299.1565
1258.40 299.1358
1258.50 299.1151
1258.60 299.0944
1258.70 299.0737
1258.80 299.053
1258.90 299.0323
1259.00 299.0116
1259.10 298.9909
1259.20 298.9702
1259.30 298.9495
1259.40 298.9288
1259.50 298.908
1259.60 298.8873
1259.70 298.8666
1259.80 298.8459
1259.90 298.8252
1260.00 298.8045
1260.10 298.7838
1260.20 298.7631
1260.30 298.8398
1260.40 299.3063
1260.50 299.7729
1260.60 300.2394
1260.70 300.7059
1260.80 301.1724
1260.90 301.6389
1261.00 302.1054
1261.10 302.5719
1261.20 303.0384
1261.30 303.5049
1261.40 303.9714
1261.50 304.4379
1261.60 304.9044
1261.70 305.3709
1261.80 305.8374
1261.90 306.3039
1262.00 306.7704
1262.10 307.2369
1262.20 307.7035
1262.30 308.17
1262.40 308.6365
1262.50 309.103
1262.60 309.5695
1262.70 310.036
1262.80 310.5025
1262.90 310.969
1263.00 311.4355
1263.10 311.902
1263.20 312.3685
1263.30 312.835
1263.40 313.3015
1263.50 313.768
1263.60 314.2345
1263.70 314.701
1263.80 315.1676
1263.90 315.6341
1264.00 316.1006
1264.10 316.5671
1264.20 317.0336
1264.30 317.5001
1264.40 317.9666
1264.50 318.4331
1264.60 318.8869
1264.70 319.2268
1264.80 319.5667
1264.90 319.9065
1265.00 320.2464
1265.10 320.5863
1265.20 320.9261
1265.30 321.266
1265.40 321.6059
1265.50 321.9457
1265.60 322.2856
1265.70 322.6254
1265.80 322.9653
1265.90 323.3052
1266.00 323.645
1266.10 323.9849
1266.20 324.3248
1266.30 324.6646
1266.40 325.0045
1266.50 325.3444
1266.60 325.6842
1266.70 326.0241
1266.80 326.364
1266.90 326.7038
1267.00 327.0437
1267.10 327.3835
1267.20 327.7234
1267.30 328.0633
1267.40 328.4031
1267.50 328.743
1267.60 329.0829
1267.70 329.4227
1267.80 329.7626
1267.90 330.1025
1268.00 330.4423
1268.10 330.7822
1268.20 331.1221
1268.30 331.4619
1268.40 331.8018
1268.50 332.1417
1268.60 332.4815
1268.70 332.8214
1268.80 333.1612
1268.90 333.5011
1269.00 333.8023
1269.10 334.1035
1269.20 334.4047
1269.30 334.7059
1269.40 335.0071
1269.50 335.3083
1269.60 335.6095
1269.70 335.9107
1269.80 336.2119
1269.90 336.5131
1270.00 336.8144
1270.10 337.1156
1270.20 337.4168
1270.30 337.718
1270.40 338.0192
1270.50 338.3204
1270.60 338.6216
1270.70 338.9228
1270.80 339.224
1270.90 339.5252
1271.00 339.8264
1271.10 340.1276
1271.20 340.4288
1271.30 340.73
1271.40 341.0312
1271.50 341.3324
1271.60 341.6336
1271.70 341.9348
1271.80 342.236
1271.90 342.5372
1272.00 342.8384
1272.10 343.1396
1272.20 343.4408
1272.30 343.742
1272.40 344.0432
1272.50 344.3444
1272.60 344.6456
1272.70 344.9469
1272.80 345.2481
1272.90 345.5493
1273.00 345.8505
1273.10 346.1517
1273.20 346.4529
1273.30 346.6903
1273.40 346.9117
1273.50 347.1331
1273.60 347.3545
1273.70 347.5759
1273.80 347.7974
1273.90 348.0188
1274.00 348.2402
1274.10 348.4616
1274.20 348.6831
1274.30 348.9045
1274.40 349.1259
1274.50 349.3473
1274.60 349.5688
1274.70 349.7902
1274.80 350.0116
1274.90 350.233
1275.00 350.4545
1275.10 350.6759
1275.20 350.8973
1275.30 351.1187
1275.40 351.3402
1275.50 351.5616
1275.60 351.783
1275.70 352.0044
1275.80 352.2259
1275.90 352.4473
1276.00 352.6687
1276.10 352.8901
1276.20 353.1116
1276.30 353.333
1276.40 353.5544
1276.50 353.7758
1276.60 353.9973
1276.70 354.2187
1276.80 354.4401
1276.90 354.6615
1277.00 354.883
1277.10 355.1044
1277.20 355.3258
1277.30 355.5472
1277.40 355.7687
1277.50 355.9901
1277.60 356.133
1277.70 356.2236
1277.80 356.3142
1277.90 356.4048
1278.00 356.4954
1278.10 356.586
1278.20 356.6766
1278.30 356.7672
1278.40 356.8577
1278.50 356.9483
1278.60 357.0389
1278.70 357.1295
1278.80 357.2201
1278.90 357.3107
1279.00 357.4013
1279.10 357.4919
1279.20 357.5825
1279.30 357.6731
1279.40 357.7637
1279.50 357.8543
1279.60 357.9448
1279.70 358.0354
1279.80 358.126
1279.90 358.2166
1280.00 358.3072
1280.10 358.3978
1280.20 358.4884
1280.30 358.579
1280.40 358.6696
1280.50 358.7602
1280.60 358.8508
1280.70 358.9414
1280.80 359.0319
1280.90 359.1225
1281.00 359.2131
1281.10 359.3037
1281.20 359.3943
1281.30 359.4849
1281.40 359.5755
1281.50 359.6661
1281.60 359.7567
1281.70 359.8473
1281.80 359.9379
1281.90 359.9037
1282.00 359.7446
1282.10 359.5856
1282.20 359.4266
1282.30 359.2676
1282.40 359.1086
1282.50 358.9496
1282.60 358.7906
1282.70 358.6316
1282.80 358.4726
1282.90 358.3136
1283.00 358.1546
1283.10 357.9956
1283.20 357.8366
1283.30 357.6776
1283.40 357.5186
1283.50 357.3595
1283.60 357.2005
1283.70 357.0415
1283.80 356.8825
1283.90 356.7235
1284.00 356.5645
1284.10 356.4055
1284.20 356.2465
1284.30 356.0875
1284.40 355.9285
1284.50 355.7695
1284.60 355.6105
1284.70 355.4515
1284.80 355.2925
1284.90 355.1335
1285.00 354.9744
1285.10 354.8154
1285.20 354.6564
1285.30 354.4974
1285.40 354.3384
1285.50 354.1794
1285.60 354.0204
1285.70 353.8614
1285.80 353.7024
1285.90 353.5434
1286.00 353.3844
1286.10 353.2254
1286.20 353.1587
1286.30 353.3075
1286.40 353.4563
1286.50 353.6051
1286.60 353.7539
1286.70 353.9027
1286.80 354.0515
1286.90 354.2003
1287.00 354.3491
1287.10 354.4979
1287.20 354.6467
1287.30 354.7955
1287.40 354.9443
1287.50 355.0931
1287.60 355.2419
1287.70 355.3907
1287.80 355.5395
1287.90 355.6883
1288.00 355.8371
1288.10 355.9859
1288.20 356.1347
1288.30 356.2835
1288.40 356.4323
1288.50 356.5811
1288.60 356.7299
1288.70 356.8787
1288.80 357.0275
1288.90 357.1763
1289.00 357.3251
1289.10 357.4739
1289.20 357.6227
1289.30 357.7715
1289.40 357.9203
1289.50 358.0691
1289.60 358.2179
1289.70 358.3667
1289.80 358.5155
1289.90 358.6643
1290.00 358.8131
1290.10 358.9619
1290.20 359.1107
1290.30 359.2595
1290.40 359.4083
1290.50 359.5275
1290.60 359.381
1290.70 359.2345
1290.80 359.0881
1290.90 358.9416
1291.00 358.7951
1291.10 358.6486
1291.20 358.5021
1291.30 358.3556
1291.40 358.2091
1291.50 358.0626
1291.60 357.9161
1291.70 357.7697
1291.80 357.6232
1291.90 357.4767
1292.00 357.3302
1292.10 357.1837
1292.20 357.0372
1292.30 356.8907
1292.40 356.7442
1292.50 356.5977
1292.60 356.4513
1292.70 356.3048
1292.80 356.1583
1292.90 356.0118
1293.00 355.8653
1293.10 355.7188
1293.20 355.5723
1293.30 355.4258
1293.40 355.2793
1293.50 355.1329
1293.60 354.9864
1293.70 354.8399
1293.80 354.6934
1293.90 354.5469
1294.00 354.4004
1294.10 354.2539
1294.20 354.1074
1294.30 353.9609
1294.40 353.8145
1294.50 353.668
1294.60 353.5215
1294.70 353.375
1294.80 353.2285
1294.90 353.2855
1295.00 353.3651
1295.10 353.4446
1295.20 353.5242
1295.30 353.6038
1295.40 353.6834
1295.50 353.7629
1295.60 353.8425
1295.70 353.9221
1295.80 354.0017
1295.90 354.0813
1296.00 354.1608
1296.10 354.2404
1296.20 354.32
1296.30 354.3996
1296.40 354.4791
1296.50 354.5587
1296.60 354.6383
1296.70 354.7179
1296.80 354.7975
1296.90 354.877
1297.00 354.9566
1297.10 355.0362
1297.20 355.1158
1297.30 355.1953
1297.40 355.2749
1297.50 355.3545
1297.60 355.4341
1297.70 355.5137
1297.80 355.5932
1297.90 355.6728
1298.00 355.7524
1298.10 355.832
1298.20 355.9115
1298.30 355.9911
1298.40 356.0707
1298.50 356.1503
1298.60 356.2299
1298.70 356.3094
1298.80 356.389
1298.90 356.4686
1299.00 356.5482
1299.10 356.6277
1299.20 356.4816
1299.30 356.2387
1299.40 355.9958
1299.50 355.7529
1299.60 355.51
1299.70 355.2671
1299.80 355.0242
1299.90 354.7813
