# Version 2.1 - nm, norm@500 to 1, cut digits
# Wavelength(nm)  Flambda(ergs/cm^s/s/nm)
300.00 1.167038e-95
300.10 1.167038e-95
300.20 1.167038e-95
300.30 1.167038e-95
300.40 1.167038e-95
300.50 1.167038e-95
300.60 1.167038e-95
300.70 1.167038e-95
300.80 1.167038e-95
300.90 1.167038e-95
301.00 1.167038e-95
301.10 1.167038e-95
301.20 1.167038e-95
301.30 1.167038e-95
301.40 1.167038e-95
301.50 1.167038e-95
301.60 1.167038e-95
301.70 1.167038e-95
301.80 1.167038e-95
301.90 1.167038e-95
302.00 1.167038e-95
302.10 1.167038e-95
302.20 1.167038e-95
302.30 1.167038e-95
302.40 1.167038e-95
302.50 1.167038e-95
302.60 1.167038e-95
302.70 1.167038e-95
302.80 1.167038e-95
302.90 1.167038e-95
303.00 1.167038e-95
303.10 1.167038e-95
303.20 1.167038e-95
303.30 1.167038e-95
303.40 1.167038e-95
303.50 1.167038e-95
303.60 1.167038e-95
303.70 1.167038e-95
303.80 1.167038e-95
303.90 1.167038e-95
304.00 1.167038e-95
304.10 1.167038e-95
304.20 1.167038e-95
304.30 1.167038e-95
304.40 1.167038e-95
304.50 1.167038e-95
304.60 1.167038e-95
304.70 1.167038e-95
304.80 1.167038e-95
304.90 1.167038e-95
305.00 1.167038e-95
305.10 1.167038e-95
305.20 1.167038e-95
305.30 1.167038e-95
305.40 1.167038e-95
305.50 1.167038e-95
305.60 1.167038e-95
305.70 1.167038e-95
305.80 1.167038e-95
305.90 1.167038e-95
306.00 1.167038e-95
306.10 1.167038e-95
306.20 1.167038e-95
306.30 1.167038e-95
306.40 1.167038e-95
306.50 1.167038e-95
306.60 1.167038e-95
306.70 1.167038e-95
306.80 1.167038e-95
306.90 1.167038e-95
307.00 1.167038e-95
307.10 1.167038e-95
307.20 1.167038e-95
307.30 1.167038e-95
307.40 1.167038e-95
307.50 1.167038e-95
307.60 1.167038e-95
307.70 1.167038e-95
307.80 1.167038e-95
307.90 1.167038e-95
308.00 1.167038e-95
308.10 1.167038e-95
308.20 1.167038e-95
308.30 1.167038e-95
308.40 1.167038e-95
308.50 1.167038e-95
308.60 1.167038e-95
308.70 1.167038e-95
308.80 1.167038e-95
308.90 1.167038e-95
309.00 1.167038e-95
309.10 1.167038e-95
309.20 1.167038e-95
309.30 1.167038e-95
309.40 1.167038e-95
309.50 1.167038e-95
309.60 1.167038e-95
309.70 1.167038e-95
309.80 1.167038e-95
309.90 1.167038e-95
310.00 1.167038e-95
310.10 1.167038e-95
310.20 1.167038e-95
310.30 1.167038e-95
310.40 1.167038e-95
310.50 1.167038e-95
310.60 1.167038e-95
310.70 1.167038e-95
310.80 1.167038e-95
310.90 1.167038e-95
311.00 1.167038e-95
311.10 1.167038e-95
311.20 1.167038e-95
311.30 1.167038e-95
311.40 1.167038e-95
311.50 1.167038e-95
311.60 1.167038e-95
311.70 1.167038e-95
311.80 1.167038e-95
311.90 1.167038e-95
312.00 1.167038e-95
312.10 1.167038e-95
312.20 1.167038e-95
312.30 1.167038e-95
312.40 1.167038e-95
312.50 1.167038e-95
312.60 1.167038e-95
312.70 1.167038e-95
312.80 1.167038e-95
312.90 1.167038e-95
313.00 1.167038e-95
313.10 1.167038e-95
313.20 1.167038e-95
313.30 1.167038e-95
313.40 1.167038e-95
313.50 1.167038e-95
313.60 1.167038e-95
313.70 1.167038e-95
313.80 1.167038e-95
313.90 1.167038e-95
314.00 1.167038e-95
314.10 1.167038e-95
314.20 1.167038e-95
314.30 1.167038e-95
314.40 1.167038e-95
314.50 1.167038e-95
314.60 1.167038e-95
314.70 1.167038e-95
314.80 1.167038e-95
314.90 1.167038e-95
315.00 1.167038e-95
315.10 1.167038e-95
315.20 1.167038e-95
315.30 1.167038e-95
315.40 1.167038e-95
315.50 1.167038e-95
315.60 1.167038e-95
315.70 1.167038e-95
315.80 1.167038e-95
315.90 1.167038e-95
316.00 1.167038e-95
316.10 1.167038e-95
316.20 1.167038e-95
316.30 1.167038e-95
316.40 1.167038e-95
316.50 1.167038e-95
316.60 1.167038e-95
316.70 1.167038e-95
316.80 1.167038e-95
316.90 1.167038e-95
317.00 1.167038e-95
317.10 1.167038e-95
317.20 1.167038e-95
317.30 1.167038e-95
317.40 1.167038e-95
317.50 1.167038e-95
317.60 1.167038e-95
317.70 1.167038e-95
317.80 1.167038e-95
317.90 1.167038e-95
318.00 1.167038e-95
318.10 1.167038e-95
318.20 1.167038e-95
318.30 1.167038e-95
318.40 1.167038e-95
318.50 1.167038e-95
318.60 1.167038e-95
318.70 1.167038e-95
318.80 1.167038e-95
318.90 1.167038e-95
319.00 1.167038e-95
319.10 1.167038e-95
319.20 1.167038e-95
319.30 1.167038e-95
319.40 1.167038e-95
319.50 1.167038e-95
319.60 1.167038e-95
319.70 1.167038e-95
319.80 1.167038e-95
319.90 1.167038e-95
320.00 1.167038e-95
320.10 1.167038e-95
320.20 1.167038e-95
320.30 1.167038e-95
320.40 1.167038e-95
320.50 1.167038e-95
320.60 1.167038e-95
320.70 1.167038e-95
320.80 1.167038e-95
320.90 1.167038e-95
321.00 1.167038e-95
321.10 1.167038e-95
321.20 1.167038e-95
321.30 1.167038e-95
321.40 1.167038e-95
321.50 1.167038e-95
321.60 1.167038e-95
321.70 1.167038e-95
321.80 1.167038e-95
321.90 1.167038e-95
322.00 1.167038e-95
322.10 1.167038e-95
322.20 1.167038e-95
322.30 1.167038e-95
322.40 1.167038e-95
322.50 1.167038e-95
322.60 1.167038e-95
322.70 1.167038e-95
322.80 1.167038e-95
322.90 1.167038e-95
323.00 1.167038e-95
323.10 1.167038e-95
323.20 1.167038e-95
323.30 1.167038e-95
323.40 1.167038e-95
323.50 1.167038e-95
323.60 1.167038e-95
323.70 1.167038e-95
323.80 1.167038e-95
323.90 1.167038e-95
324.00 1.167038e-95
324.10 1.167038e-95
324.20 1.167038e-95
324.30 1.167038e-95
324.40 1.167038e-95
324.50 1.167038e-95
324.60 1.167038e-95
324.70 1.167038e-95
324.80 1.167038e-95
324.90 1.167038e-95
325.00 1.167038e-95
325.10 1.167038e-95
325.20 1.167038e-95
325.30 1.167038e-95
325.40 1.167038e-95
325.50 1.167038e-95
325.60 1.167038e-95
325.70 1.167038e-95
325.80 1.167038e-95
325.90 1.167038e-95
326.00 1.167038e-95
326.10 1.167038e-95
326.20 1.167038e-95
326.30 1.167038e-95
326.40 1.167038e-95
326.50 1.167038e-95
326.60 1.167038e-95
326.70 1.167038e-95
326.80 1.167038e-95
326.90 1.167038e-95
327.00 1.167038e-95
327.10 1.167038e-95
327.20 1.167038e-95
327.30 1.167038e-95
327.40 1.167038e-95
327.50 1.167038e-95
327.60 1.167038e-95
327.70 1.167038e-95
327.80 1.167038e-95
327.90 1.167038e-95
328.00 1.167038e-95
328.10 1.167038e-95
328.20 1.167038e-95
328.30 1.167038e-95
328.40 1.167038e-95
328.50 1.167038e-95
328.60 1.167038e-95
328.70 1.167038e-95
328.80 1.167038e-95
328.90 1.167038e-95
329.00 1.167038e-95
329.10 1.167038e-95
329.20 1.167038e-95
329.30 1.167038e-95
329.40 1.167038e-95
329.50 1.167038e-95
329.60 1.167038e-95
329.70 1.167038e-95
329.80 1.167038e-95
329.90 1.167038e-95
330.00 1.167038e-95
330.10 1.167038e-95
330.20 1.167038e-95
330.30 1.167038e-95
330.40 1.167038e-95
330.50 1.167038e-95
330.60 1.167038e-95
330.70 1.167038e-95
330.80 1.167038e-95
330.90 1.167038e-95
331.00 1.167038e-95
331.10 1.167038e-95
331.20 1.167038e-95
331.30 1.167038e-95
331.40 1.167038e-95
331.50 1.167038e-95
331.60 1.167038e-95
331.70 1.167038e-95
331.80 1.167038e-95
331.90 1.167038e-95
332.00 1.167038e-95
332.10 1.167038e-95
332.20 1.167038e-95
332.30 1.167038e-95
332.40 1.167038e-95
332.50 1.167038e-95
332.60 1.167038e-95
332.70 1.167038e-95
332.80 1.167038e-95
332.90 1.167038e-95
333.00 1.167038e-95
333.10 1.167038e-95
333.20 1.167038e-95
333.30 1.167038e-95
333.40 1.167038e-95
333.50 1.167038e-95
333.60 1.167038e-95
333.70 1.167038e-95
333.80 1.167038e-95
333.90 1.167038e-95
334.00 1.167038e-95
334.10 1.167038e-95
334.20 1.167038e-95
334.30 1.167038e-95
334.40 1.167038e-95
334.50 1.167038e-95
334.60 1.167038e-95
334.70 1.167038e-95
334.80 1.167038e-95
334.90 1.167038e-95
335.00 1.167038e-95
335.10 1.167038e-95
335.20 1.167038e-95
335.30 1.167038e-95
335.40 1.167038e-95
335.50 1.167038e-95
335.60 1.167038e-95
335.70 1.167038e-95
335.80 1.167038e-95
335.90 1.167038e-95
336.00 1.167038e-95
336.10 1.167038e-95
336.20 1.167038e-95
336.30 1.167038e-95
336.40 1.167038e-95
336.50 1.167038e-95
336.60 1.167038e-95
336.70 1.167038e-95
336.80 1.167038e-95
336.90 1.167038e-95
337.00 1.167038e-95
337.10 1.167038e-95
337.20 1.167038e-95
337.30 1.167038e-95
337.40 1.167038e-95
337.50 1.167038e-95
337.60 1.167038e-95
337.70 1.167038e-95
337.80 1.167038e-95
337.90 1.167038e-95
338.00 1.167038e-95
338.10 1.167038e-95
338.20 1.167038e-95
338.30 1.167038e-95
338.40 1.167038e-95
338.50 1.167038e-95
338.60 1.167038e-95
338.70 1.167038e-95
338.80 1.167038e-95
338.90 1.167038e-95
339.00 1.167038e-95
339.10 1.167038e-95
339.20 1.167038e-95
339.30 1.167038e-95
339.40 1.167038e-95
339.50 1.167038e-95
339.60 1.167038e-95
339.70 1.167038e-95
339.80 1.167038e-95
339.90 1.167038e-95
340.00 1.167038e-95
340.10 1.167038e-95
340.20 1.167038e-95
340.30 1.167038e-95
340.40 1.167038e-95
340.50 1.167038e-95
340.60 1.167038e-95
340.70 1.167038e-95
340.80 1.167038e-95
340.90 1.167038e-95
341.00 1.167038e-95
341.10 1.167038e-95
341.20 1.167038e-95
341.30 1.167038e-95
341.40 1.167038e-95
341.50 1.167038e-95
341.60 1.167038e-95
341.70 1.167038e-95
341.80 1.167038e-95
341.90 1.167038e-95
342.00 1.167038e-95
342.10 1.167038e-95
342.20 1.167038e-95
342.30 1.167038e-95
342.40 1.167038e-95
342.50 1.167038e-95
342.60 1.167038e-95
342.70 1.167038e-95
342.80 1.167038e-95
342.90 1.167038e-95
343.00 1.167038e-95
343.10 1.167038e-95
343.20 1.167038e-95
343.30 1.167038e-95
343.40 1.167038e-95
343.50 1.167038e-95
343.60 1.167038e-95
343.70 1.167038e-95
343.80 1.167038e-95
343.90 1.167038e-95
344.00 1.167038e-95
344.10 1.167038e-95
344.20 1.167038e-95
344.30 1.167038e-95
344.40 1.167038e-95
344.50 1.167038e-95
344.60 1.167038e-95
344.70 1.167038e-95
344.80 1.167038e-95
344.90 1.167038e-95
345.00 1.167038e-95
345.10 1.167038e-95
345.20 1.167038e-95
345.30 1.167038e-95
345.40 1.167038e-95
345.50 1.167038e-95
345.60 1.167038e-95
345.70 1.167038e-95
345.80 1.167038e-95
345.90 1.167038e-95
346.00 1.167038e-95
346.10 1.167038e-95
346.20 1.167038e-95
346.30 1.167038e-95
346.40 1.167038e-95
346.50 1.167038e-95
346.60 1.167038e-95
346.70 1.167038e-95
346.80 1.167038e-95
346.90 1.167038e-95
347.00 1.167038e-95
347.10 1.167038e-95
347.20 1.167038e-95
347.30 1.167038e-95
347.40 1.167038e-95
347.50 1.167038e-95
347.60 1.167038e-95
347.70 1.167038e-95
347.80 1.167038e-95
347.90 1.167038e-95
348.00 1.167038e-95
348.10 1.167038e-95
348.20 1.167038e-95
348.30 1.167038e-95
348.40 1.167038e-95
348.50 1.167038e-95
348.60 1.167038e-95
348.70 1.167038e-95
348.80 1.167038e-95
348.90 1.167038e-95
349.00 1.167038e-95
349.10 1.167038e-95
349.20 1.167038e-95
349.30 1.167038e-95
349.40 1.167038e-95
349.50 1.167038e-95
349.60 1.167038e-95
349.70 1.167038e-95
349.80 1.167038e-95
349.90 1.167038e-95
350.00 1.167038e-95
350.10 1.167038e-95
350.20 1.167038e-95
350.30 1.167038e-95
350.40 1.167038e-95
350.50 1.167038e-95
350.60 1.167038e-95
350.70 1.167038e-95
350.80 1.167038e-95
350.90 1.167038e-95
351.00 1.167038e-95
351.10 1.167038e-95
351.20 1.167038e-95
351.30 1.167038e-95
351.40 1.167038e-95
351.50 1.167038e-95
351.60 1.167038e-95
351.70 1.167038e-95
351.80 1.167038e-95
351.90 1.167038e-95
352.00 1.167038e-95
352.10 1.167038e-95
352.20 1.167038e-95
352.30 1.167038e-95
352.40 1.167038e-95
352.50 1.167038e-95
352.60 1.167038e-95
352.70 1.167038e-95
352.80 1.167038e-95
352.90 1.167038e-95
353.00 1.167038e-95
353.10 1.167038e-95
353.20 1.167038e-95
353.30 1.167038e-95
353.40 1.167038e-95
353.50 1.167038e-95
353.60 1.167038e-95
353.70 1.167038e-95
353.80 1.167038e-95
353.90 1.167038e-95
354.00 1.167038e-95
354.10 1.167038e-95
354.20 1.167038e-95
354.30 1.167038e-95
354.40 1.167038e-95
354.50 1.167038e-95
354.60 1.167038e-95
354.70 1.167038e-95
354.80 1.167038e-95
354.90 1.167038e-95
355.00 1.167038e-95
355.10 1.167038e-95
355.20 1.167038e-95
355.30 1.167038e-95
355.40 1.167038e-95
355.50 1.167038e-95
355.60 1.167038e-95
355.70 1.167038e-95
355.80 1.167038e-95
355.90 1.167038e-95
356.00 1.167038e-95
356.10 1.167038e-95
356.20 1.167038e-95
356.30 1.167038e-95
356.40 1.167038e-95
356.50 1.167038e-95
356.60 1.167038e-95
356.70 1.167038e-95
356.80 1.167038e-95
356.90 1.167038e-95
357.00 1.167038e-95
357.10 1.167038e-95
357.20 1.167038e-95
357.30 1.167038e-95
357.40 1.167038e-95
357.50 1.167038e-95
357.60 1.167038e-95
357.70 1.167038e-95
357.80 1.167038e-95
357.90 1.167038e-95
358.00 1.167038e-95
358.10 1.167038e-95
358.20 1.167038e-95
358.30 1.167038e-95
358.40 1.167038e-95
358.50 1.167038e-95
358.60 1.167038e-95
358.70 1.167038e-95
358.80 1.167038e-95
358.90 1.167038e-95
359.00 1.167038e-95
359.10 1.167038e-95
359.20 1.167038e-95
359.30 1.167038e-95
359.40 1.167038e-95
359.50 1.167038e-95
359.60 1.167038e-95
359.70 1.167038e-95
359.80 1.167038e-95
359.90 1.167038e-95
360.00 1.167038e-95
360.10 1.167038e-95
360.20 1.167038e-95
360.30 1.167038e-95
360.40 1.167038e-95
360.50 1.167038e-95
360.60 1.167038e-95
360.70 1.167038e-95
360.80 1.167038e-95
360.90 1.167038e-95
361.00 1.167038e-95
361.10 1.167038e-95
361.20 1.167038e-95
361.30 1.167038e-95
361.40 1.167038e-95
361.50 1.167038e-95
361.60 1.167038e-95
361.70 1.167038e-95
361.80 1.167038e-95
361.90 1.167038e-95
362.00 1.167038e-95
362.10 1.167038e-95
362.20 1.167038e-95
362.30 1.167038e-95
362.40 1.167038e-95
362.50 1.167038e-95
362.60 1.167038e-95
362.70 1.167038e-95
362.80 1.167038e-95
362.90 1.167038e-95
363.00 1.167038e-95
363.10 1.167038e-95
363.20 1.167038e-95
363.30 1.167038e-95
363.40 1.167038e-95
363.50 1.167038e-95
363.60 1.167038e-95
363.70 1.167038e-95
363.80 1.167038e-95
363.90 1.167038e-95
364.00 1.167038e-95
364.10 1.167038e-95
364.20 1.167038e-95
364.30 1.167038e-95
364.40 1.167038e-95
364.50 1.167038e-95
364.60 1.167038e-95
364.70 1.167038e-95
364.80 1.167038e-95
364.90 1.167038e-95
365.00 1.167038e-95
365.10 1.167038e-95
365.20 1.167038e-95
365.30 1.167038e-95
365.40 1.167038e-95
365.50 1.167038e-95
365.60 1.167038e-95
365.70 1.167038e-95
365.80 1.167038e-95
365.90 1.167038e-95
366.00 1.167038e-95
366.10 1.167038e-95
366.20 1.167038e-95
366.30 1.167038e-95
366.40 1.167038e-95
366.50 1.167038e-95
366.60 1.167038e-95
366.70 1.167038e-95
366.80 1.167038e-95
366.90 1.167038e-95
367.00 1.167038e-95
367.10 1.167038e-95
367.20 1.167038e-95
367.30 1.167038e-95
367.40 1.167038e-95
367.50 1.167038e-95
367.60 1.167038e-95
367.70 1.167038e-95
367.80 1.167038e-95
367.90 1.167038e-95
368.00 1.167038e-95
368.10 1.167038e-95
368.20 1.167038e-95
368.30 1.167038e-95
368.40 1.167038e-95
368.50 1.167038e-95
368.60 1.167038e-95
368.70 1.167038e-95
368.80 1.167038e-95
368.90 1.167038e-95
369.00 1.167038e-95
369.10 1.167038e-95
369.20 1.167038e-95
369.30 1.167038e-95
369.40 1.167038e-95
369.50 1.167038e-95
369.60 1.167038e-95
369.70 1.167038e-95
369.80 1.167038e-95
369.90 1.167038e-95
370.00 1.167038e-95
370.10 1.167038e-95
370.20 1.167038e-95
370.30 1.167038e-95
370.40 1.167038e-95
370.50 1.167038e-95
370.60 1.167038e-95
370.70 1.167038e-95
370.80 1.167038e-95
370.90 1.167038e-95
371.00 1.167038e-95
371.10 1.167038e-95
371.20 1.167038e-95
371.30 1.167038e-95
371.40 1.167038e-95
371.50 1.167038e-95
371.60 1.167038e-95
371.70 1.167038e-95
371.80 1.167038e-95
371.90 1.167038e-95
372.00 1.167038e-95
372.10 1.167038e-95
372.20 1.167038e-95
372.30 1.167038e-95
372.40 1.167038e-95
372.50 1.167038e-95
372.60 1.167038e-95
372.70 1.167038e-95
372.80 1.167038e-95
372.90 1.167038e-95
373.00 1.167038e-95
373.10 1.167038e-95
373.20 1.167038e-95
373.30 1.167038e-95
373.40 1.167038e-95
373.50 1.167038e-95
373.60 1.167038e-95
373.70 1.167038e-95
373.80 1.167038e-95
373.90 1.167038e-95
374.00 1.167038e-95
374.10 1.167038e-95
374.20 1.167038e-95
374.30 1.167038e-95
374.40 1.167038e-95
374.50 1.167038e-95
374.60 1.167038e-95
374.70 1.167038e-95
374.80 1.167038e-95
374.90 1.167038e-95
375.00 1.167038e-95
375.10 1.167038e-95
375.20 1.167038e-95
375.30 1.167038e-95
375.40 1.167038e-95
375.50 1.167038e-95
375.60 1.167038e-95
375.70 1.167038e-95
375.80 1.167038e-95
375.90 1.167038e-95
376.00 1.167038e-95
376.10 1.167038e-95
376.20 1.167038e-95
376.30 1.167038e-95
376.40 1.167038e-95
376.50 1.167038e-95
376.60 1.167038e-95
376.70 1.167038e-95
376.80 1.167038e-95
376.90 1.167038e-95
377.00 1.167038e-95
377.10 1.167038e-95
377.20 1.167038e-95
377.30 1.167038e-95
377.40 1.167038e-95
377.50 1.167038e-95
377.60 1.167038e-95
377.70 1.167038e-95
377.80 1.167038e-95
377.90 1.167038e-95
378.00 1.167038e-95
378.10 1.167038e-95
378.20 1.167038e-95
378.30 1.167038e-95
378.40 1.167038e-95
378.50 1.167038e-95
378.60 1.167038e-95
378.70 1.167038e-95
378.80 1.167038e-95
378.90 1.167038e-95
379.00 1.167038e-95
379.10 1.167038e-95
379.20 1.167038e-95
379.30 1.167038e-95
379.40 1.167038e-95
379.50 1.167038e-95
379.60 1.167038e-95
379.70 1.167038e-95
379.80 1.167038e-95
379.90 1.167038e-95
380.00 1.167038e-95
380.10 1.167038e-95
380.20 1.167038e-95
380.30 1.167038e-95
380.40 1.167038e-95
380.50 1.167038e-95
380.60 1.167038e-95
380.70 1.167038e-95
380.80 1.167038e-95
380.90 1.167038e-95
381.00 1.167038e-95
381.10 1.167038e-95
381.20 1.167038e-95
381.30 1.167038e-95
381.40 1.167038e-95
381.50 1.167038e-95
381.60 1.167038e-95
381.70 1.167038e-95
381.80 1.167038e-95
381.90 1.167038e-95
382.00 1.167038e-95
382.10 1.167038e-95
382.20 1.167038e-95
382.30 1.167038e-95
382.40 1.167038e-95
382.50 1.167038e-95
382.60 1.167038e-95
382.70 1.167038e-95
382.80 1.167038e-95
382.90 1.167038e-95
383.00 1.167038e-95
383.10 1.167038e-95
383.20 1.167038e-95
383.30 1.167038e-95
383.40 1.167038e-95
383.50 1.167038e-95
383.60 1.167038e-95
383.70 1.167038e-95
383.80 1.167038e-95
383.90 1.167038e-95
384.00 1.167038e-95
384.10 1.167038e-95
384.20 1.167038e-95
384.30 1.167038e-95
384.40 1.167038e-95
384.50 1.167038e-95
384.60 1.167038e-95
384.70 1.167038e-95
384.80 1.167038e-95
384.90 1.167038e-95
385.00 1.167038e-95
385.10 1.167038e-95
385.20 1.167038e-95
385.30 1.167038e-95
385.40 1.167038e-95
385.50 1.167038e-95
385.60 1.167038e-95
385.70 1.167038e-95
385.80 1.167038e-95
385.90 1.167038e-95
386.00 1.167038e-95
386.10 1.167038e-95
386.20 1.167038e-95
386.30 1.167038e-95
386.40 1.167038e-95
386.50 1.167038e-95
386.60 1.167038e-95
386.70 1.167038e-95
386.80 1.167038e-95
386.90 1.167038e-95
387.00 1.167038e-95
387.10 1.167038e-95
387.20 1.167038e-95
387.30 1.167038e-95
387.40 1.167038e-95
387.50 1.167038e-95
387.60 1.167038e-95
387.70 1.167038e-95
387.80 1.167038e-95
387.90 1.167038e-95
388.00 1.167038e-95
388.10 1.167038e-95
388.20 1.167038e-95
388.30 1.167038e-95
388.40 1.167038e-95
388.50 1.167038e-95
388.60 1.167038e-95
388.70 1.167038e-95
388.80 1.167038e-95
388.90 1.167038e-95
389.00 1.167038e-95
389.10 1.167038e-95
389.20 1.167038e-95
389.30 1.167038e-95
389.40 1.167038e-95
389.50 1.167038e-95
389.60 1.167038e-95
389.70 1.167038e-95
389.80 1.167038e-95
389.90 1.167038e-95
390.00 1.167038e-95
390.10 1.167038e-95
390.20 1.167038e-95
390.30 1.167038e-95
390.40 1.167038e-95
390.50 1.167038e-95
390.60 1.167038e-95
390.70 1.167038e-95
390.80 1.167038e-95
390.90 1.167038e-95
391.00 1.167038e-95
391.10 1.167038e-95
391.20 1.167038e-95
391.30 1.167038e-95
391.40 1.167038e-95
391.50 1.167038e-95
391.60 1.167038e-95
391.70 1.167038e-95
391.80 1.167038e-95
391.90 1.167038e-95
392.00 1.167038e-95
392.10 1.167038e-95
392.20 1.167038e-95
392.30 1.167038e-95
392.40 1.167038e-95
392.50 1.167038e-95
392.60 1.167038e-95
392.70 1.167038e-95
392.80 1.167038e-95
392.90 1.167038e-95
393.00 1.167038e-95
393.10 1.167038e-95
393.20 1.167038e-95
393.30 1.167038e-95
393.40 1.167038e-95
393.50 1.167038e-95
393.60 1.167038e-95
393.70 1.167038e-95
393.80 1.167038e-95
393.90 1.167038e-95
394.00 1.167038e-95
394.10 1.167038e-95
394.20 1.167038e-95
394.30 1.167038e-95
394.40 1.167038e-95
394.50 1.167038e-95
394.60 1.167038e-95
394.70 1.167038e-95
394.80 1.167038e-95
394.90 1.167038e-95
395.00 1.155368e-95
395.10 1.143698e-95
395.20 1.132027e-95
395.30 1.120357e-95
395.40 1.108686e-95
395.50 1.097016e-95
395.60 1.085346e-95
395.70 1.073675e-95
395.80 1.062005e-95
395.90 1.050335e-95
396.00 1.038664e-95
396.10 1.026994e-95
396.20 1.015323e-95
396.30 1.003653e-95
396.40 9.919827e-96
396.50 9.803123e-96
396.60 9.686419e-96
396.70 9.569715e-96
396.80 9.453011e-96
396.90 9.336307e-96
397.00 9.219603e-96
397.10 9.1029e-96
397.20 8.986196e-96
397.30 8.869492e-96
397.40 8.752788e-96
397.50 8.636084e-96
397.60 0.002230525
397.70 0.01234378
397.80 0.02994026
397.90 0.05315394
398.00 0.07775159
398.10 0.09814765
398.20 0.1100283
398.30 0.1107035
398.40 0.1107035
398.50 0.1107035
398.60 0.1107035
398.70 0.1107035
398.80 0.1107035
398.90 0.1107035
399.00 0.1111901
399.10 0.1259672
399.20 0.1516507
399.30 0.1827881
399.40 0.2147754
399.50 0.2450852
399.60 0.2720875
399.70 0.295663
399.80 0.3186261
399.90 0.3443618
400.00 0.3742907
400.10 0.4076445
400.20 0.4414432
400.30 0.4723986
400.40 0.4990189
400.50 0.5212778
400.60 0.540194
400.70 0.5582624
400.80 0.5780963
400.90 0.6010437
401.00 0.6276092
401.10 0.6575567
401.20 0.6893415
401.30 0.7197217
401.40 0.7446745
401.50 0.7605942
401.60 0.7653457
401.70 0.7653457
401.80 0.7653457
401.90 0.7653457
402.00 0.7653457
402.10 0.7653457
402.20 0.7653457
402.30 0.7676724
402.40 0.7861976
402.50 0.8195668
402.60 0.8623421
402.70 0.9068666
402.80 0.9465931
402.90 0.9772466
403.00 0.9969118
403.10 1.008036
403.20 1.016051
403.30 1.025519
403.40 1.038377
403.50 1.054511
403.60 1.074152
403.70 1.097031
403.80 1.120615
403.90 1.142199
404.00 1.15964
404.10 1.171918
404.20 1.178669
404.30 1.179669
404.40 1.179669
404.50 1.179669
404.60 1.179669
404.70 1.179669
404.80 1.179669
404.90 1.179669
405.00 1.179669
405.10 1.179669
405.20 1.179669
405.30 1.179669
405.40 1.179669
405.50 1.179669
405.60 1.179669
405.70 1.180275
405.80 1.188367
405.90 1.202328
406.00 1.218635
406.10 1.233448
406.20 1.243329
406.30 1.246404
406.40 1.246404
406.50 1.246404
406.60 1.246404
406.70 1.246404
406.80 1.246404
406.90 1.246404
407.00 1.246404
407.10 1.246404
407.20 1.246404
407.30 1.246404
407.40 1.246404
407.50 1.246404
407.60 1.244173
407.70 1.23406
407.80 1.216463
407.90 1.19325
408.00 1.168652
408.10 1.148256
408.20 1.136375
408.30 1.1357
408.40 1.1357
408.50 1.1357
408.60 1.141927
408.70 1.156669
408.80 1.175584
408.90 1.194216
409.00 1.208372
409.10 1.201748
409.20 1.177457
409.30 1.14632
409.40 1.114332
409.50 1.084022
409.60 1.05702
409.70 1.033445
409.80 1.010482
409.90 0.9847458
410.00 0.9548169
410.10 0.9214631
410.20 0.8876644
410.30 0.8603374
410.40 0.8420372
410.50 0.8323499
410.60 0.828866
410.70 0.8265729
410.80 0.8210054
410.90 0.8100964
411.00 0.7930379
411.10 0.7706555
411.20 0.7461567
411.30 0.7242959
411.40 0.7099626
411.50 0.7072581
411.60 0.7181143
411.70 0.7343957
411.80 0.7492104
411.90 0.7608389
412.00 0.7680528
412.10 0.7704275
412.20 0.7704275
412.30 0.7681008
412.40 0.7495756
412.50 0.7162065
412.60 0.6734311
412.70 0.6289066
412.80 0.5891801
412.90 0.5585266
413.00 0.5388614
413.10 0.5277374
413.20 0.5197219
413.30 0.5102547
413.40 0.4973963
413.50 0.481262
413.60 0.4616208
413.70 0.4387424
413.80 0.4151585
413.90 0.3935743
414.00 0.3761335
414.10 0.363855
414.20 0.3571042
414.30 0.3561045
414.40 0.3561045
414.50 0.3561045
414.60 0.3561045
414.70 0.3561045
414.80 0.3561045
414.90 0.3561045
415.00 0.3561045
415.10 0.3561045
415.20 0.3561045
415.30 0.3561045
415.40 0.3561045
415.50 0.3561045
415.60 0.3561045
415.70 0.3554982
415.80 0.3474062
415.90 0.3334457
416.00 0.3171382
416.10 0.3023254
416.20 0.2924438
416.30 0.2893696
416.40 0.2893696
416.50 0.2893696
416.60 0.2893696
416.70 0.2893696
416.80 0.2893696
416.90 0.2893696
417.00 0.2893696
417.10 0.2893696
417.20 0.2893696
417.30 0.2893696
417.40 0.2893696
417.50 0.2893696
417.60 0.2943174
417.70 0.3080213
417.80 0.3276205
417.90 0.3508281
418.00 0.3751888
418.10 0.3980974
418.20 0.4184031
418.30 0.4377572
418.40 0.4597495
418.50 0.4880713
418.60 0.5198122
418.70 0.5539216
418.80 0.5918445
418.90 0.6323106
419.00 0.6731967
419.10 0.7127279
419.20 0.7486477
419.30 0.7732398
419.40 0.7833658
419.50 0.7833658
419.60 0.7833658
419.70 0.7833658
419.80 0.7833658
419.90 0.7833658
420.00 0.7833658
420.10 0.7833658
420.20 0.7867808
420.30 0.8024093
420.40 0.8287972
420.50 0.8622292
420.60 0.896722
420.70 0.9271688
420.80 0.9504745
420.90 0.9658417
421.00 0.9750921
421.10 0.9813625
421.20 0.9878402
421.30 0.9977606
421.40 1.013873
421.50 1.036886
421.60 1.064885
421.70 1.095014
421.80 1.123619
421.90 1.147016
422.00 1.163801
422.10 1.174734
422.20 1.178644
422.30 1.178644
422.40 1.178644
422.50 1.178644
422.60 1.178644
422.70 1.178644
422.80 1.178644
422.90 1.178644
423.00 1.178644
423.10 1.178644
423.20 1.178644
423.30 1.178644
423.40 1.178644
423.50 1.178644
423.60 1.178644
423.70 1.178707
423.80 1.187238
423.90 1.206491
424.00 1.237038
424.10 1.277272
424.20 1.322576
424.30 1.366003
424.40 1.401296
424.50 1.424907
424.60 1.435998
424.70 1.435998
424.80 1.435998
424.90 1.435998
425.00 1.435998
425.10 1.435998
425.20 1.435998
425.30 1.435998
425.40 1.435998
425.50 1.435998
425.60 1.435998
425.70 1.435998
425.80 1.435998
425.90 1.435998
426.00 1.435998
426.10 1.435998
426.20 1.435998
426.30 1.435998
426.40 1.438014
426.50 1.442872
426.60 1.450372
426.70 1.45931
426.80 1.467693
426.90 1.473664
427.00 1.475533
427.10 1.475533
427.20 1.475533
427.30 1.475533
427.40 1.475533
427.50 1.475533
427.60 1.476013
427.70 1.477616
427.80 1.481087
427.90 1.485066
428.00 1.487581
428.10 1.486501
428.20 1.478823
428.30 1.460742
428.40 1.438749
428.50 1.410428
428.60 1.37246
428.70 1.323608
428.80 1.26677
428.90 1.207672
429.00 1.152143
429.10 1.104459
429.20 1.067147
429.30 1.042555
429.40 1.032429
429.50 1.032429
429.60 1.032429
429.70 1.032429
429.80 1.032429
429.90 1.032429
430.00 1.032429
430.10 1.032429
430.20 1.029014
430.30 1.009757
430.40 0.9769239
430.50 0.9369376
430.60 0.8969617
430.70 0.862897
430.80 0.8374038
430.90 0.8210564
431.00 0.812921
431.10 0.8104098
431.20 0.8090334
431.30 0.8029573
431.40 0.7884538
431.50 0.7659474
431.60 0.7388418
431.70 0.7109441
431.80 0.6859039
431.90 0.6674897
432.00 0.6579162
432.10 0.6568419
432.20 0.6626921
432.30 0.6690134
432.40 0.6708548
432.50 0.6708548
432.60 0.6708548
432.70 0.6708548
432.80 0.6708548
432.90 0.6708548
433.00 0.6708548
433.10 0.6708548
433.20 0.6708548
433.30 0.6708548
433.40 0.6708548
433.50 0.6708548
433.60 0.6708548
433.70 0.6707913
433.80 0.6653709
433.90 0.6547062
434.00 0.6377638
434.10 0.6154804
434.20 0.5926275
434.30 0.5763801
434.40 0.5720748
434.50 0.5815397
434.60 0.6044417
434.70 0.638392
434.80 0.6712706
434.90 0.7028919
435.00 0.7342002
435.10 0.7666691
435.20 0.8008369
435.30 0.8354442
435.40 0.8684821
435.50 0.8975586
435.60 0.9192401
435.70 0.9301031
435.80 0.9301031
435.90 0.9301031
436.00 0.9301031
436.10 0.9301031
436.20 0.9301031
436.30 0.9301031
436.40 0.9280871
436.50 0.9232294
436.60 0.9157295
436.70 0.9067908
436.80 0.8984082
436.90 0.8924371
437.00 0.8905681
437.10 0.8905681
437.20 0.8905681
437.30 0.8905681
437.40 0.8905681
437.50 0.8905681
437.60 0.8851407
437.70 0.8698336
437.80 0.8467634
437.90 0.8230435
438.00 0.8058058
438.10 0.7991262
438.20 0.8055183
438.30 0.8250703
438.40 0.8448217
438.50 0.8603729
438.60 0.8694927
438.70 0.8704821
438.80 0.8704821
438.90 0.8704821
439.00 0.8704821
439.10 0.8704821
439.20 0.8704821
439.30 0.8704821
439.40 0.8704821
439.50 0.8704821
439.60 0.8704821
439.70 0.8744545
439.80 0.8890909
439.90 0.9119459
440.00 0.9392105
440.10 0.9673168
440.20 0.9938968
440.30 1.018396
440.40 1.039405
440.50 1.054334
440.60 1.062636
440.70 1.065831
440.80 1.066142
440.90 1.064175
441.00 1.058814
441.10 1.049162
441.20 1.036775
441.30 1.024411
441.40 1.012183
441.50 1.000189
441.60 0.9917336
441.70 0.9887411
441.80 0.9924792
441.90 1.003202
442.00 1.020989
442.10 1.045144
442.20 1.074354
442.30 1.107986
442.40 1.145415
442.50 1.182049
442.60 1.21448
442.70 1.242737
442.80 1.267604
442.90 1.289947
443.00 1.310858
443.10 1.331168
443.20 1.351645
443.30 1.372315
443.40 1.391599
443.50 1.408316
443.60 1.422821
443.70 1.435282
443.80 1.44227
443.90 1.441354
444.00 1.433376
444.10 1.419479
444.20 1.400507
444.30 1.378064
444.40 1.355125
444.50 1.336018
444.60 1.32436
444.70 1.322429
444.80 1.331375
444.90 1.34926
445.00 1.37058
445.10 1.389003
445.20 1.400212
445.30 1.402489
445.40 1.396307
445.50 1.384983
445.60 1.374695
445.70 1.372282
445.80 1.380909
445.90 1.391565
446.00 1.405255
446.10 1.421932
446.20 1.439631
446.30 1.456251
446.40 1.470751
446.50 1.482233
446.60 1.489701
446.70 1.493495
446.80 1.495565
446.90 1.497942
447.00 1.50179
447.10 1.50787
447.20 1.517526
447.30 1.532639
447.40 1.554764
447.50 1.585431
447.60 1.626411
447.70 1.677948
447.80 1.737765
447.90 1.798153
448.00 1.851558
448.10 1.894236
448.20 1.923753
448.30 1.93868
448.40 1.940911
448.50 1.935824
448.60 1.929667
448.70 1.928677
448.80 1.929143
448.90 1.932173
449.00 1.937728
449.10 1.944765
449.20 1.952525
449.30 1.961461
449.40 1.972645
449.50 1.985994
449.60 2.00012
449.70 2.010096
449.80 2.00845
449.90 1.995898
450.00 1.973886
450.10 1.94578
450.20 1.919199
450.30 1.8947
450.40 1.871816
450.50 1.85087
450.60 1.832619
450.70 1.817267
450.80 1.804877
450.90 1.800449
451.00 1.804285
451.10 1.815249
451.20 1.830378
451.30 1.84784
451.40 1.868918
451.50 1.893822
451.60 1.919637
451.70 1.946021
451.80 1.972669
451.90 1.997666
452.00 2.016446
452.10 2.024871
452.20 2.021347
452.30 2.006226
452.40 1.982331
452.50 1.955153
452.60 1.930597
452.70 1.912294
452.80 1.901377
452.90 1.897134
453.00 1.897042
453.10 1.896871
453.20 1.892048
453.30 1.880154
453.40 1.863055
453.50 1.846338
453.60 1.831833
453.70 1.819425
453.80 1.812977
453.90 1.812536
454.00 1.817352
454.10 1.82606
454.20 1.836116
454.30 1.843575
454.40 1.844334
454.50 1.835469
454.60 1.815668
454.70 1.7853
454.80 1.746301
454.90 1.70311
455.00 1.662257
455.10 1.629828
455.20 1.610191
455.30 1.605677
455.40 1.614242
455.50 1.628975
455.60 1.641411
455.70 1.644289
455.80 1.635662
455.90 1.625006
456.00 1.611316
456.10 1.594639
456.20 1.57694
456.30 1.56032
456.40 1.545819
456.50 1.534338
456.60 1.52687
456.70 1.523075
456.80 1.521006
456.90 1.518902
457.00 1.52477
457.10 1.536353
457.20 1.54945
457.30 1.559102
457.40 1.560711
457.50 1.549979
457.60 1.522838
457.70 1.477206
457.80 1.41739
457.90 1.353535
458.00 1.290491
458.10 1.232664
458.20 1.184127
458.30 1.148376
458.40 1.126393
458.50 1.115929
458.60 1.118209
458.70 1.127434
458.80 1.13819
458.90 1.146907
459.00 1.153705
459.10 1.160556
459.20 1.169237
459.30 1.179431
459.40 1.188848
459.50 1.195461
459.60 1.198402
459.70 1.1971
459.80 1.191459
459.90 1.182989
460.00 1.177736
460.10 1.177736
460.20 1.177736
460.30 1.177736
460.40 1.177736
460.50 1.178527
460.60 1.183446
460.70 1.192811
460.80 1.206738
460.90 1.220147
461.00 1.232215
461.10 1.24176
461.20 1.247002
461.30 1.245872
461.40 1.236093
461.50 1.215553
461.60 1.18262
461.70 1.140717
461.80 1.091951
461.90 1.03962
462.00 0.9886286
462.10 0.9447227
462.20 0.9151667
462.30 0.9019369
462.40 0.9035739
462.50 0.9147968
462.60 0.9289143
462.70 0.9400834
462.80 0.944325
462.90 0.9401582
463.00 0.9294061
463.10 0.9171857
463.20 0.9094992
463.30 0.9110774
463.40 0.9237028
463.50 0.9440336
463.60 0.9689576
463.70 0.9954631
463.80 1.016275
463.90 1.028673
464.00 1.032535
464.10 1.029983
464.20 1.024872
464.30 1.021579
464.40 1.02389
464.50 1.033401
464.60 1.048755
464.70 1.066802
464.80 1.083936
464.90 1.096297
465.00 1.100394
465.10 1.094031
465.20 1.076616
465.30 1.04982
465.40 1.018666
465.50 0.9903801
465.60 0.9718372
465.70 0.9679576
465.80 0.9778805
465.90 0.9904677
466.00 1.006111
466.10 1.024454
466.20 1.044031
466.30 1.063337
466.40 1.081882
466.50 1.099971
466.60 1.118345
466.70 1.13771
466.80 1.158521
466.90 1.180681
467.00 1.194212
467.10 1.199489
467.20 1.198752
467.30 1.194152
467.40 1.188354
467.50 1.185348
467.60 1.189009
467.70 1.201837
467.80 1.221066
467.90 1.238632
468.00 1.25209
468.10 1.260116
468.20 1.262364
468.30 1.262364
468.40 1.262364
468.50 1.262364
468.60 1.257121
468.70 1.247897
468.80 1.236674
468.90 1.224927
469.00 1.212575
469.10 1.198687
469.20 1.182246
469.30 1.163116
469.40 1.142515
469.50 1.123978
469.60 1.113277
469.70 1.110086
469.80 1.113486
469.90 1.122693
470.00 1.13413
470.10 1.147219
470.20 1.163505
470.30 1.183833
470.40 1.208
470.50 1.233717
470.60 1.255183
470.70 1.269383
470.80 1.274395
470.90 1.269979
471.00 1.257193
471.10 1.238958
471.20 1.219655
471.30 1.203323
471.40 1.192024
471.50 1.188197
471.60 1.194631
471.70 1.209835
471.80 1.234334
471.90 1.267642
472.00 1.307423
472.10 1.349353
472.20 1.385461
472.30 1.411291
472.40 1.424152
472.50 1.423796
472.60 1.412732
472.70 1.395968
472.80 1.379567
472.90 1.368337
473.00 1.363638
473.10 1.364021
473.20 1.36696
473.30 1.369809
473.40 1.370204
473.50 1.36658
473.60 1.359119
473.70 1.350333
473.80 1.343767
473.90 1.34255
474.00 1.347487
474.10 1.355977
474.20 1.363712
474.30 1.367342
474.40 1.365196
474.50 1.356342
474.60 1.341698
474.70 1.324397
474.80 1.308754
474.90 1.299096
475.00 1.298621
475.10 1.308566
475.20 1.328761
475.30 1.357107
475.40 1.389084
475.50 1.420235
475.60 1.446876
475.70 1.465927
475.80 1.475898
475.90 1.476613
476.00 1.46892
476.10 1.454871
476.20 1.437641
476.30 1.42083
476.40 1.406952
476.50 1.396668
476.60 1.388239
476.70 1.378652
476.80 1.365827
476.90 1.349043
477.00 1.328741
477.10 1.305894
477.20 1.283878
477.30 1.263713
477.40 1.247099
477.50 1.235563
477.60 1.228292
477.70 1.223901
477.80 1.221133
477.90 1.219997
478.00 1.22201
478.10 1.229064
478.20 1.242489
478.30 1.259506
478.40 1.279037
478.50 1.302163
478.60 1.328482
478.70 1.35592
478.80 1.382139
478.90 1.405164
479.00 1.423308
479.10 1.435498
479.20 1.441527
479.30 1.442254
479.40 1.442254
479.50 1.440828
479.60 1.434463
479.70 1.425008
479.80 1.414259
479.90 1.403218
480.00 1.391781
480.10 1.378692
480.20 1.362497
480.30 1.347678
480.40 1.333886
480.50 1.321225
480.60 1.310671
480.70 1.302914
480.80 1.296931
480.90 1.290954
481.00 1.284224
481.10 1.280277
481.20 1.27921
481.30 1.27921
481.40 1.27921
481.50 1.276945
481.60 1.269582
481.70 1.25764
481.80 1.240991
481.90 1.218403
482.00 1.189477
482.10 1.154655
482.20 1.115261
482.30 1.077829
482.40 1.047956
482.50 1.027633
482.60 1.016704
482.70 1.012346
482.80 1.010555
482.90 1.011466
483.00 1.014689
483.10 1.016109
483.20 1.011946
483.30 0.9999
483.40 0.9846943
483.50 0.9679874
483.60 0.9505249
483.70 0.9327519
483.80 0.9223517
483.90 0.9193001
484.00 0.9205898
484.10 0.9239549
484.20 0.9279923
484.30 0.9314759
484.40 0.9337379
484.50 0.9360044
484.60 0.9404878
484.70 0.9485252
484.80 0.9597397
484.90 0.9726899
485.00 0.9853846
485.10 0.9957657
485.20 1.001847
485.30 1.002233
485.40 0.9970704
485.50 0.987445
485.60 0.9754447
485.70 0.9640313
485.80 0.9563084
485.90 0.9541979
486.00 0.9573128
486.10 0.963041
486.20 0.967056
486.30 0.964561
486.40 0.9598932
486.50 0.952089
486.60 0.9421435
486.70 0.9323664
486.80 0.9243793
486.90 0.9187302
487.00 0.9157843
487.10 0.9211677
487.20 0.9401369
487.30 0.9706772
487.40 1.008118
487.50 1.046348
487.60 1.082084
487.70 1.114366
487.80 1.144313
487.90 1.172937
488.00 1.199287
488.10 1.221195
488.20 1.236542
488.30 1.243157
488.40 1.237937
488.50 1.218635
488.60 1.192316
488.70 1.164878
488.80 1.138659
488.90 1.115634
489.00 1.09749
489.10 1.0853
489.20 1.085462
489.30 1.094591
489.40 1.104306
489.50 1.109662
489.60 1.109662
489.70 1.109662
489.80 1.109662
489.90 1.109662
490.00 1.109662
490.10 1.109662
490.20 1.109572
490.30 1.109987
490.40 1.112296
490.50 1.115465
490.60 1.117714
490.70 1.118377
490.80 1.119645
490.90 1.125303
491.00 1.137786
491.10 1.15385
491.20 1.172408
491.30 1.192868
491.40 1.213601
491.50 1.232704
491.60 1.24838
491.70 1.256132
491.80 1.254437
491.90 1.246247
492.00 1.236472
492.10 1.230184
492.20 1.231496
492.30 1.238616
492.40 1.249506
492.50 1.263941
492.60 1.280756
492.70 1.298408
492.80 1.315755
492.90 1.329004
493.00 1.33719
493.10 1.344506
493.20 1.355257
493.30 1.37223
493.40 1.391439
493.50 1.412726
493.60 1.436939
493.70 1.463911
493.80 1.485009
493.90 1.498003
494.00 1.503577
494.10 1.503997
494.20 1.501579
494.30 1.497368
494.40 1.491581
494.50 1.483635
494.60 1.475908
494.70 1.465473
494.80 1.449942
494.90 1.427974
495.00 1.399882
495.10 1.367457
495.20 1.332855
495.30 1.298548
495.40 1.267466
495.50 1.241743
495.60 1.221814
495.70 1.206728
495.80 1.194558
495.90 1.183366
496.00 1.1723
496.10 1.16732
496.20 1.17344
496.30 1.19149
496.40 1.212075
496.50 1.231894
496.60 1.248284
496.70 1.25943
496.80 1.264453
496.90 1.264453
497.00 1.264453
497.10 1.258978
497.20 1.240009
497.30 1.209469
497.40 1.170705
497.50 1.127083
497.60 1.081118
497.70 1.034494
497.80 0.9880856
497.90 0.9436751
498.00 0.9027957
498.10 0.8665585
498.20 0.8362487
498.30 0.8141183
498.40 0.8035949
498.50 0.8076505
498.60 0.8209096
498.70 0.8396061
498.80 0.8626016
498.90 0.8884557
499.00 0.9153938
499.10 0.9407491
499.20 0.9559711
499.30 0.9624697
499.40 0.9638232
499.50 0.9650216
499.60 0.9689074
499.70 0.9723714
499.80 0.9775326
499.90 0.9862341
500.00 1
500.10 1.019886
500.20 1.04553
500.30 1.068356
500.40 1.083704
500.50 1.090468
500.60 1.08908
500.70 1.081161
500.80 1.067952
500.90 1.054615
501.00 1.040482
501.10 1.024418
501.20 1.00586
501.30 0.9854002
501.40 0.9692351
501.50 0.9586464
501.60 0.9539671
501.70 0.9553302
501.80 0.9622259
501.90 0.9729747
502.00 0.9850604
502.10 0.9958417
502.20 1.003769
502.30 1.008269
502.40 1.008994
502.50 1.006305
502.60 1.001425
502.70 0.996351
502.80 0.9927574
502.90 0.9900595
503.00 0.986484
503.10 0.9804869
503.20 0.9700604
503.30 0.9528806
503.40 0.9336718
503.50 0.912384
503.60 0.8881717
503.70 0.8611997
503.80 0.8326063
503.90 0.8042513
504.00 0.7781447
504.10 0.7556622
504.20 0.737883
504.30 0.7260776
504.40 0.7206298
504.50 0.7205483
504.60 0.7205483
504.70 0.7205483
504.80 0.7205483
504.90 0.7216057
505.00 0.7267481
505.10 0.7341873
505.20 0.7420849
505.30 0.749071
505.40 0.7541216
505.50 0.7564604
505.60 0.7564604
505.70 0.7564604
505.80 0.7564604
505.90 0.7564604
506.00 0.7564604
506.10 0.7514185
506.20 0.7389373
506.30 0.7218516
506.40 0.7021239
506.50 0.6823047
506.60 0.6659153
506.70 0.6547692
506.80 0.6497454
506.90 0.6497454
507.00 0.6497454
507.10 0.6530157
507.20 0.6607485
507.30 0.6722737
507.40 0.6860875
507.50 0.7002807
507.60 0.7137382
507.70 0.7267502
507.80 0.7400033
507.90 0.7530013
508.00 0.765347
508.10 0.7762266
508.20 0.784508
508.30 0.7888609
508.40 0.787077
508.50 0.7791976
508.60 0.7659385
508.70 0.7472421
508.80 0.7242466
508.90 0.6983924
509.00 0.6714543
509.10 0.646099
509.20 0.6246865
509.30 0.6083311
509.40 0.5972625
509.50 0.5907073
509.60 0.5868215
509.70 0.5833575
509.80 0.5781964
509.90 0.571462
510.00 0.5629758
510.10 0.553366
510.20 0.54402
510.30 0.5373482
510.40 0.5365823
510.50 0.5444424
510.60 0.5623334
510.70 0.589378
510.80 0.6231751
510.90 0.655498
511.00 0.6834773
511.10 0.7057304
511.20 0.7220916
511.30 0.7335508
511.40 0.7371703
511.50 0.7351521
511.60 0.7302572
511.70 0.724582
511.80 0.7191045
511.90 0.7136877
512.00 0.7079394
512.10 0.7021544
512.20 0.6961531
512.30 0.689354
512.40 0.6816895
512.50 0.6729789
512.60 0.6621515
512.70 0.6495737
512.80 0.6358201
512.90 0.6216536
513.00 0.6084536
513.10 0.5974129
513.20 0.5903452
513.30 0.5893947
513.40 0.5893947
513.50 0.5893947
513.60 0.5893947
513.70 0.5913201
513.80 0.5937746
513.90 0.5962514
514.00 0.5993806
514.10 0.6045197
514.20 0.6132961
514.30 0.6269295
514.40 0.6455018
514.50 0.6679237
514.60 0.692148
514.70 0.7155309
514.80 0.7357582
514.90 0.7504989
515.00 0.7566285
515.10 0.7572281
515.20 0.7561417
515.30 0.7566919
515.40 0.761858
515.50 0.7740173
515.60 0.7933873
515.70 0.8171318
515.80 0.8446145
515.90 0.8755201
516.00 0.9092333
516.10 0.9446679
516.20 0.9808047
516.30 1.016253
516.40 1.051601
516.50 1.086124
516.60 1.116671
516.70 1.141448
516.80 1.160206
516.90 1.174008
517.00 1.184811
517.10 1.191851
517.20 1.195849
517.30 1.197893
517.40 1.198908
517.50 1.199867
517.60 1.200863
517.70 1.200913
517.80 1.199556
517.90 1.197822
518.00 1.197688
518.10 1.200706
518.20 1.206843
518.30 1.214838
518.40 1.223624
518.50 1.230402
518.60 1.233515
518.70 1.234574
518.80 1.235941
518.90 1.239968
519.00 1.248434
519.10 1.262034
519.20 1.280726
519.30 1.303502
519.40 1.328519
519.50 1.353977
519.60 1.378112
519.70 1.3995
519.80 1.417632
519.90 1.430973
520.00 1.438717
520.10 1.439655
520.20 1.433583
520.30 1.421973
520.40 1.406487
520.50 1.387664
520.60 1.365107
520.70 1.339117
520.80 1.311156
520.90 1.28326
521.00 1.258066
521.10 1.238223
521.20 1.224943
521.30 1.217379
521.40 1.213506
521.50 1.210916
521.60 1.207439
521.70 1.201958
521.80 1.194939
521.90 1.188579
522.00 1.184989
522.10 1.184505
522.20 1.186257
522.30 1.189132
522.40 1.192194
522.50 1.195218
522.60 1.199913
522.70 1.207011
522.80 1.217114
522.90 1.231738
523.00 1.251213
523.10 1.273549
523.20 1.295099
523.30 1.312335
523.40 1.323761
523.50 1.330449
523.60 1.334801
523.70 1.337374
523.80 1.341931
523.90 1.351892
524.00 1.36935
524.10 1.393204
524.20 1.418797
524.30 1.440119
524.40 1.452865
524.50 1.455657
524.60 1.449617
524.70 1.437318
524.80 1.421532
524.90 1.405733
525.00 1.394461
525.10 1.386423
525.20 1.379611
525.30 1.37324
525.40 1.367612
525.50 1.360805
525.60 1.352937
525.70 1.345349
525.80 1.338241
525.90 1.329634
526.00 1.317455
526.10 1.301311
526.20 1.281703
526.30 1.259028
526.40 1.234557
526.50 1.21159
526.60 1.194287
526.70 1.185472
526.80 1.185708
526.90 1.193473
527.00 1.205498
527.10 1.217334
527.20 1.225014
527.30 1.227318
527.40 1.225009
527.50 1.219027
527.60 1.210655
527.70 1.201017
527.80 1.189868
527.90 1.177961
528.00 1.164806
528.10 1.15016
528.20 1.135032
528.30 1.121182
528.40 1.110392
528.50 1.104617
528.60 1.105543
528.70 1.111994
528.80 1.121837
528.90 1.132958
529.00 1.143162
529.10 1.15058
529.20 1.154609
529.30 1.155838
529.40 1.155525
529.50 1.15519
529.60 1.156461
529.70 1.160609
529.80 1.168082
529.90 1.178696
530.00 1.19194
530.10 1.206936
530.20 1.222147
530.30 1.235255
530.40 1.244238
530.50 1.249017
530.60 1.251176
530.70 1.252526
530.80 1.254422
530.90 1.257796
531.00 1.26296
531.10 1.26924
531.20 1.27546
531.30 1.280766
531.40 1.284504
531.50 1.286194
531.60 1.285791
531.70 1.284569
531.80 1.284015
531.90 1.282514
532.00 1.278686
532.10 1.272447
532.20 1.264851
532.30 1.257154
532.40 1.250142
532.50 1.244082
532.60 1.238345
532.70 1.232191
532.80 1.224287
532.90 1.213881
533.00 1.201469
533.10 1.189889
533.20 1.183748
533.30 1.186832
533.40 1.199814
533.50 1.220222
533.60 1.243574
533.70 1.264569
533.80 1.278875
533.90 1.282862
534.00 1.273376
534.10 1.250365
534.20 1.217883
534.30 1.182927
534.40 1.15161
534.50 1.126396
534.60 1.108211
534.70 1.097128
534.80 1.092687
534.90 1.092687
535.00 1.094721
535.10 1.100325
535.20 1.109395
535.30 1.119937
535.40 1.128795
535.50 1.13519
535.60 1.137688
535.70 1.135351
535.80 1.129043
535.90 1.12183
536.00 1.116944
536.10 1.115338
536.20 1.115752
536.30 1.115734
536.40 1.112096
536.50 1.101213
536.60 1.087968
536.70 1.072006
536.80 1.053012
536.90 1.031445
537.00 1.008618
537.10 0.9864711
537.20 0.9670596
537.30 0.9511871
537.40 0.9386666
537.50 0.9294968
537.60 0.9234159
537.70 0.9199914
537.80 0.9192437
537.90 0.9192437
538.00 0.9215229
538.10 0.9242437
538.20 0.9242437
538.30 0.9242437
538.40 0.9242437
538.50 0.923241
538.60 0.9192021
538.70 0.9116922
538.80 0.900482
538.90 0.8853335
539.00 0.8666636
539.10 0.8456458
539.20 0.822925
539.30 0.8005026
539.40 0.7803468
539.50 0.7629166
539.60 0.7486329
539.70 0.7379655
539.80 0.7306886
539.90 0.7253593
540.00 0.7209467
540.10 0.7179059
540.20 0.7173058
540.30 0.7201493
540.40 0.7265022
540.50 0.7352329
540.60 0.7452825
540.70 0.7562777
540.80 0.7678658
540.90 0.7796021
541.00 0.7910059
541.10 0.8018196
541.20 0.8125974
541.30 0.8244307
541.40 0.8383071
541.50 0.8547163
541.60 0.8733187
541.70 0.8913702
541.80 0.905427
541.90 0.914987
542.00 0.9196684
542.10 0.9196684
542.20 0.9196684
542.30 0.9196684
542.40 0.9196684
542.50 0.9196684
542.60 0.9196029
542.70 0.9186597
542.80 0.9164606
542.90 0.9122423
543.00 0.9051798
543.10 0.8944233
543.20 0.879014
543.30 0.8598579
543.40 0.8394735
543.50 0.8201836
543.60 0.8044589
543.70 0.794527
543.80 0.7917779
543.90 0.797088
544.00 0.81134
544.10 0.8343406
544.20 0.8641124
544.30 0.8971268
544.40 0.9305085
544.50 0.9634577
544.60 0.9955796
544.70 1.026831
544.80 1.057122
544.90 1.086683
545.00 1.114535
545.10 1.14093
545.20 1.166964
545.30 1.192436
545.40 1.215683
545.50 1.234996
545.60 1.249531
545.70 1.259061
545.80 1.263067
545.90 1.261059
546.00 1.253758
546.10 1.242993
546.20 1.231365
546.30 1.222108
546.40 1.21795
546.50 1.220723
546.60 1.223612
546.70 1.22563
546.80 1.226579
546.90 1.226626
547.00 1.226626
547.10 1.226626
547.20 1.226626
547.30 1.226626
547.40 1.226626
547.50 1.226626
547.60 1.226626
547.70 1.226626
547.80 1.226959
547.90 1.229009
548.00 1.230702
548.10 1.234762
548.20 1.245171
548.30 1.259387
548.40 1.276505
548.50 1.294226
548.60 1.309665
548.70 1.320091
548.80 1.323208
548.90 1.323208
549.00 1.323208
549.10 1.323208
549.20 1.323208
549.30 1.321626
549.40 1.317077
549.50 1.309384
549.60 1.298262
549.70 1.283394
549.80 1.265066
549.90 1.244472
550.00 1.790075
550.10 1.790075
550.20 1.790075
550.30 1.787166
550.40 1.777107
550.50 1.75759
550.60 1.727643
550.70 1.688738
550.80 1.643149
550.90 1.59394
551.00 1.540487
551.10 1.484984
551.20 1.431855
551.30 1.384859
551.40 1.3442
551.50 1.306131
551.60 1.264423
551.70 1.212357
551.80 1.144423
551.90 1.070522
552.00 0.9958041
552.10 0.9158087
552.20 0.8280475
552.30 0.7351002
552.40 0.6433671
552.50 0.5598683
552.60 0.4885336
552.70 0.4301564
552.80 0.3849764
552.90 0.3522812
553.00 0.3293641
553.10 0.3289617
553.20 0.3446927
553.30 0.3704992
553.40 0.4018767
553.50 0.4365248
553.60 0.4745345
553.70 0.5164461
553.80 0.5606072
553.90 0.6041422
554.00 0.6428973
554.10 0.6753557
554.20 0.7010992
554.30 0.7199529
554.40 0.7320902
554.50 0.7386358
554.60 0.740336
554.70 0.740336
554.80 0.7395042
554.90 0.7343775
555.00 0.7244467
555.10 0.7074959
555.20 0.6814733
555.30 0.6459341
555.40 0.6031379
555.50 0.5588347
555.60 0.5202376
555.70 0.4941737
555.80 0.4863806
555.90 0.4863806
556.00 0.5071816
556.10 0.5753314
556.20 0.674276
556.30 0.7815979
556.40 0.8751722
556.50 0.9467598
556.60 1.008552
556.70 1.079264
556.80 1.169996
556.90 1.280341
557.00 1.40364
557.10 1.517191
557.20 1.617227
557.30 1.699701
557.40 1.760337
557.50 1.794113
557.60 1.797324
557.70 1.771127
557.80 1.724593
557.90 1.680941
558.00 1.642186
558.10 1.609727
558.20 1.583984
558.30 1.572909
558.40 1.581349
558.50 1.601966
558.60 1.62564
558.70 1.640763
558.80 1.640785
558.90 1.640785
559.00 1.640785
559.10 1.640785
559.20 1.640785
559.30 1.640785
559.40 1.640785
559.50 1.640785
559.60 1.640785
559.70 1.642594
559.80 1.649877
559.90 1.661612
560.00 1.655459
560.10 1.603805
560.20 1.522714
560.30 1.433074
560.40 1.355971
560.50 1.300519
560.60 1.257344
560.70 1.211397
560.80 1.154942
560.90 1.090343
561.00 1.02432
561.10 0.9622353
561.20 0.9078351
561.30 0.8631584
561.40 0.8316143
561.50 0.8175867
561.60 0.8225159
561.70 0.8458458
561.80 0.8828086
561.90 0.9135306
562.00 0.9371019
562.10 0.9512955
562.20 0.9535809
562.30 0.9458021
562.40 0.9252242
562.50 0.8980617
562.60 0.8726874
562.70 0.8575653
562.80 0.8575424
562.90 0.8575424
563.00 0.8576012
563.10 0.8627065
563.20 0.8686906
563.30 0.8736294
563.40 0.8769073
563.50 0.8787664
563.60 0.8808907
563.70 0.8834631
563.80 0.8830488
563.90 0.8793333
564.00 0.872436
564.10 0.8624602
564.20 0.8503679
564.30 0.838711
564.40 0.8296332
564.50 0.8234862
564.60 0.8168481
564.70 0.8029365
564.80 0.7756263
564.90 0.7336019
565.00 0.6797123
565.10 0.6195886
565.20 0.5627468
565.30 0.5195803
565.40 0.4946087
565.50 0.4857345
565.60 0.4867274
565.70 0.488792
565.80 0.4824578
565.90 0.46131
566.00 0.4377387
566.10 0.4235451
566.20 0.4212597
566.30 0.4212597
566.40 0.4212597
566.50 0.4212597
566.60 0.4212597
566.70 0.4212597
566.80 0.4258988
566.90 0.4407916
567.00 0.4683898
567.10 0.5056942
567.20 0.5562754
567.30 0.6179187
567.40 0.6853332
567.50 0.7525563
567.60 0.8125971
567.70 0.8593255
567.80 0.8908634
567.90 0.9095026
568.00 0.9198193
568.10 0.9262353
568.20 0.9289715
568.30 0.9242269
568.40 0.9168333
568.50 0.9068457
568.60 0.8948658
568.70 0.8840132
568.80 0.8770459
568.90 0.8733242
569.00 0.8694876
569.10 0.8612466
569.20 0.8434344
569.30 0.81184
569.40 0.7664982
569.50 0.7218443
569.60 0.6988716
569.70 0.7068868
569.80 0.7506012
569.90 0.8285982
570.00 0.920797
570.10 1.009063
570.20 1.084095
570.30 1.139613
570.40 1.175574
570.50 1.19632
570.60 1.208636
570.70 1.221017
570.80 1.239245
570.90 1.267242
571.00 1.306226
571.10 1.351688
571.20 1.398006
571.30 1.440607
571.40 1.475072
571.50 1.497926
571.60 1.509804
571.70 1.514356
571.80 1.515345
571.90 1.515428
572.00 1.515282
572.10 1.515578
572.20 1.519503
572.30 1.531761
572.40 1.546112
572.50 1.560244
572.60 1.571607
572.70 1.576598
572.80 1.576598
572.90 1.576598
573.00 1.576598
573.10 1.576598
573.20 1.576598
573.30 1.576598
573.40 1.580507
573.50 1.590363
573.60 1.588515
573.70 1.565469
573.80 1.515613
573.90 1.440256
574.00 1.348057
574.10 1.259791
574.20 1.184759
574.30 1.129242
574.40 1.09328
574.50 1.083021
574.60 1.091072
574.70 1.102937
574.80 1.101807
574.90 1.073994
575.00 1.014744
575.10 0.9273229
575.20 0.8244397
575.30 0.7152566
575.40 0.6100995
575.50 0.5181629
575.60 0.4511205
575.70 0.4116792
575.80 0.3968895
575.90 0.4006185
576.00 0.4163404
576.10 0.4355286
576.20 0.4470232
576.30 0.4413824
576.40 0.4270321
576.50 0.4128992
576.60 0.4015369
576.70 0.3965455
576.80 0.3965455
576.90 0.3965455
577.00 0.3965455
577.10 0.3965455
577.20 0.3965455
577.30 0.3965455
577.40 0.3926364
577.50 0.3733011
577.60 0.3437548
577.70 0.3126328
577.80 0.2881452
577.90 0.2759314
578.00 0.2818279
578.10 0.2974564
578.20 0.3234906
578.30 0.3607273
578.40 0.4094286
578.50 0.4577666
578.60 0.5034003
578.70 0.5498059
578.80 0.6012115
578.90 0.6602902
579.00 0.7277753
579.10 0.8029462
579.20 0.8801689
579.30 0.9600098
579.40 1.04258
579.50 1.127178
579.60 1.205224
579.70 1.272866
579.80 1.329149
579.90 1.374164
580.00 1.407653
580.10 1.430745
580.20 1.449369
580.30 1.472854
580.40 1.497351
580.50 1.52199
580.60 1.555481
580.70 1.604387
580.80 1.670615
580.90 1.751762
581.00 1.841763
581.10 1.9313
581.20 2.008698
581.30 2.062981
581.40 2.087297
581.50 2.087297
581.60 2.087297
581.70 2.087297
581.80 2.087297
581.90 2.087297
582.00 2.0814
582.10 2.065772
582.20 2.039738
582.30 2.002501
582.40 1.960572
582.50 1.927778
582.60 1.901611
582.70 1.878483
582.80 1.854802
582.90 1.828143
583.00 1.797353
583.10 1.76289
583.20 1.725802
583.30 1.68756
583.40 1.650265
583.50 1.616398
583.60 1.590068
583.70 1.576202
583.80 1.580268
583.90 1.60921
584.00 1.668993
584.10 1.761804
584.20 1.882622
584.30 2.01775
584.40 2.148568
584.50 2.257081
584.60 2.328121
584.70 2.352236
584.80 2.328369
584.90 2.262895
585.00 2.172894
585.10 2.083356
585.20 2.005959
585.30 1.951675
585.40 1.92736
585.50 1.92736
585.60 1.92736
585.70 1.92736
585.80 1.933322
585.90 1.942873
586.00 1.950854
586.10 1.954679
586.20 1.954679
586.30 1.954679
586.40 1.947906
586.50 1.921875
586.60 1.882042
586.70 1.834517
586.80 1.785057
586.90 1.73756
587.00 1.693473
587.10 1.652315
587.20 1.612181
587.30 1.570581
587.40 1.525307
587.50 1.474575
587.60 1.42803
587.70 1.390616
587.80 1.36031
587.90 1.330346
588.00 1.289368
588.10 1.225585
588.20 1.129168
588.30 0.9990729
588.40 0.8467913
588.50 0.7136385
588.60 0.6091082
588.70 0.536088
588.80 0.4937257
588.90 0.4780534
589.00 0.4780534
589.10 0.4780534
589.20 0.4780534
589.30 0.4780534
589.40 0.4837819
589.50 0.5041575
589.60 0.5425499
589.70 0.6003525
589.80 0.6697807
589.90 0.7470879
590.00 0.8270446
590.10 0.9011337
590.20 0.9606103
590.30 0.9968357
590.40 1.009162
590.50 1.009162
590.60 1.009162
590.70 1.009162
590.80 1.009162
590.90 1.009162
591.00 1.009162
591.10 1.009162
591.20 1.009162
591.30 1.009162
591.40 1.009162
591.50 1.009162
591.60 0.9969909
591.70 0.9644084
591.80 0.90976
591.90 0.835296
592.00 0.7493574
592.10 0.6648185
592.20 0.5978768
592.30 0.5614602
592.40 0.558427
592.50 0.558427
592.60 0.558427
592.70 0.558427
592.80 0.558427
592.90 0.558427
593.00 0.558427
593.10 0.5592588
593.20 0.5671712
593.30 0.5776974
593.40 0.5820868
593.50 0.5702928
593.60 0.5396997
593.70 0.4890502
593.80 0.4168721
593.90 0.3300139
594.00 0.2420765
594.10 0.164163
594.20 0.1046863
594.30 0.06846094
594.40 0.05613491
594.50 0.05613491
594.60 0.05613491
594.70 0.05613491
594.80 0.05613491
594.90 0.08040668
595.00 0.1353979
595.10 0.2181418
595.20 0.3223244
595.30 0.4398163
595.40 0.561994
595.50 0.6811055
595.60 0.7916414
595.70 0.8906762
595.80 0.9769903
595.90 1.050505
596.00 1.112388
596.10 1.165653
596.20 1.212264
596.30 1.249447
596.40 1.273036
596.50 1.280963
596.60 1.280963
596.70 1.280963
596.80 1.280963
596.90 1.280963
597.00 1.280963
597.10 1.280132
597.20 1.272219
597.30 1.261693
597.40 1.251575
597.50 1.242994
597.60 1.235194
597.70 1.228041
597.80 1.224829
597.90 1.224829
598.00 1.224829
598.10 1.224829
598.20 1.224829
598.30 1.224829
598.40 1.224829
598.50 1.224829
598.60 1.224829
598.70 1.224829
598.80 1.224829
598.90 1.200557
599.00 1.145566
599.10 1.062822
599.20 0.9586391
599.30 0.8411472
599.40 0.7229648
599.50 0.6273575
599.60 0.5618492
599.70 0.5286237
599.80 0.5254523
599.90 0.5458082
600.00 0
600.10 0
600.20 0
600.30 0
600.40 0
600.50 0
600.60 0
600.70 0
600.80 0
600.90 0
601.00 0
601.10 0
601.20 0
601.30 0
601.40 0.1598123
601.50 0.9401666
601.60 1.801108
601.70 2.632368
601.80 3.325711
601.90 3.754805
602.00 3.822534
602.10 3.492894
602.20 2.780765
602.30 1.81024
602.40 0.8334448
602.50 0.08052176
602.60 0
602.70 0
602.80 0
602.90 0
603.00 0.2040844
603.10 0.3399746
603.20 0.313899
603.30 0.1421604
603.40 0
603.50 0
603.60 0
603.70 0
603.80 0.3122689
603.90 0.5950809
604.00 0.7032583
604.10 0.5799155
604.20 0.2433165
604.30 0
604.40 0
604.50 0
604.60 0
604.70 0
604.80 0
604.90 0.03254389
605.00 0.5079261
605.10 0.8417544
605.20 0.929988
605.30 0.7708561
605.40 0.3988988
605.50 0
605.60 0
605.70 0
605.80 0
605.90 0
606.00 0
606.10 0
606.20 0
606.30 0
606.40 0.1222491
606.50 1.05831
606.60 1.935208
606.70 2.639709
606.80 3.088146
606.90 3.237528
607.00 3.102054
607.10 2.778461
607.20 2.364812
607.30 1.897776
607.40 1.425122
607.50 1.045862
607.60 0.8190989
607.70 0.670638
607.80 0.474954
607.90 0.2306641
608.00 0.02987389
608.10 0
608.20 0
608.30 0
608.40 0.3300567
608.50 0.8471135
608.60 1.339372
608.70 1.730768
608.80 2.00236
608.90 2.146827
609.00 2.187635
609.10 2.224837
609.20 2.385718
609.30 2.676219
609.40 2.98585
609.50 3.242857
609.60 3.394348
609.70 3.35695
609.80 3.068855
609.90 2.554165
610.00 1.92443
610.10 1.302876
610.20 0.7534411
610.30 0.274726
610.40 0
610.50 0
610.60 0
610.70 0
610.80 0
610.90 0
611.00 0
611.10 0
611.20 0.1129674
611.30 0.8682189
611.40 1.480599
611.50 1.785926
611.60 1.728965
611.70 1.367073
611.80 0.8107052
611.90 0.2159818
612.00 0
612.10 0
612.20 0
612.30 0
612.40 0
612.50 0
612.60 0
612.70 0
612.80 0
612.90 0
613.00 0
613.10 0
613.20 0
613.30 0
613.40 0
613.50 0
613.60 0
613.70 0
613.80 0
613.90 0
614.00 0
614.10 0.09944373
614.20 0.3959732
614.30 0.6531734
614.40 0.8932675
614.50 1.153912
614.60 1.441182
614.70 1.72955
614.80 1.999392
614.90 2.245134
615.00 2.437382
615.10 2.508599
615.20 2.396705
615.30 2.113756
615.40 1.68944
615.50 1.139465
615.60 0.5067614
615.70 0
615.80 0
615.90 0
616.00 0
616.10 0
616.20 0
616.30 0
616.40 0
616.50 0
616.60 0
616.70 0
616.80 0.1387669
616.90 0.1047304
617.00 0
617.10 0
617.20 0
617.30 0
617.40 0
617.50 0
617.60 0.4245098
617.70 0.9237343
617.80 1.394919
617.90 1.726008
618.00 1.878171
618.10 1.873387
618.20 1.770815
618.30 1.6384
618.40 1.483009
618.50 1.284869
618.60 1.077734
618.70 0.9394198
618.80 0.9693843
618.90 1.222845
619.00 1.690657
619.10 2.262776
619.20 2.815823
619.30 3.311139
619.40 3.70132
619.50 3.957049
619.60 4.078875
619.70 4.090853
619.80 4.059332
619.90 4.04386
620.00 4.051869
620.10 4.045952
620.20 3.981283
620.30 3.852298
620.40 3.659583
620.50 3.434745
620.60 3.245432
620.70 3.107378
620.80 3.021781
620.90 2.972385
621.00 2.88623
621.10 2.674994
621.20 2.313167
621.30 1.852304
621.40 1.367538
621.50 0.9276924
621.60 0.6090399
621.70 0.5007492
621.80 0.6458994
621.90 1.009749
622.00 1.503262
622.10 2.041275
622.20 2.54848
622.30 2.963515
622.40 3.271012
622.50 3.461912
622.60 3.518468
622.70 3.417492
622.80 3.170581
622.90 2.832462
623.00 2.419341
623.10 1.899228
623.20 1.306288
623.30 0.7534198
623.40 0.3350282
623.50 0.08215373
623.60 0.00693559
623.70 0.116729
623.80 0.3674063
623.90 0.6898745
624.00 0.9598651
624.10 1.102717
624.20 1.15665
624.30 1.179537
624.40 1.181923
624.50 1.132186
624.60 1.000073
624.70 0.7465434
624.80 0.3782149
624.90 0
625.00 0
625.10 0
625.20 0
625.30 0
625.40 0
625.50 0
625.60 0
625.70 0
625.80 0
625.90 0.6696742
626.00 1.686296
626.10 2.540083
626.20 3.0999
626.30 3.287232
626.40 3.129909
626.50 2.768182
626.60 2.395029
626.70 2.096822
626.80 1.871122
626.90 1.674847
627.00 1.42836
627.10 1.070233
627.20 0.567485
627.30 0
627.40 0
627.50 0
627.60 0
627.70 0
627.80 0.1200069
627.90 1.054567
628.00 2.032558
628.10 2.922717
628.20 3.656393
628.30 4.207288
628.40 4.534356
628.50 4.582153
628.60 4.396468
628.70 4.081353
628.80 3.716905
628.90 3.325619
629.00 2.930786
629.10 2.581272
629.20 2.304307
629.30 2.105633
629.40 1.936074
629.50 1.691217
629.60 1.325415
629.70 0.9599102
629.80 0.7939313
629.90 0.9547234
630.00 1.463946
630.10 2.238005
630.20 3.086396
630.30 3.823664
630.40 4.288694
630.50 4.34256
630.60 3.971745
630.70 3.290937
630.80 2.504448
630.90 1.829515
631.00 1.391825
631.10 1.173113
631.20 1.075932
631.30 1.033045
631.40 0.9687225
631.50 0.8271133
631.60 0.6884587
631.70 0.6649225
631.80 0.8027438
631.90 1.110435
632.00 1.536747
632.10 1.965481
632.20 2.290802
632.30 2.488541
632.40 2.573877
632.50 2.536728
632.60 2.388173
632.70 2.217591
632.80 2.11964
632.90 2.133809
633.00 2.250671
633.10 2.416285
633.20 2.583286
633.30 2.705128
633.40 2.713293
633.50 2.587831
633.60 2.361381
633.70 2.067395
633.80 1.717202
633.90 1.313282
634.00 0.9110057
634.10 0.5642299
634.20 0.3137657
634.30 0.1761587
634.40 0.1260905
634.50 0.1622462
634.60 0.2855051
634.70 0.4926125
634.80 0.7953954
634.90 1.177669
635.00 1.5719
635.10 1.897626
635.20 2.125792
635.30 2.280222
635.40 2.376904
635.50 2.407999
635.60 2.363754
635.70 2.287641
635.80 2.239682
635.90 2.222587
636.00 2.200586
636.10 2.137563
636.20 2.033972
636.30 1.959904
636.40 2.003877
636.50 2.180365
636.60 2.442021
636.70 2.736016
636.80 2.983449
636.90 3.095577
637.00 3.020048
637.10 2.737056
637.20 2.273138
637.30 1.7179
637.40 1.215994
637.50 0.9282486
637.60 0.9277466
637.70 1.166362
637.80 1.574322
637.90 2.109399
638.00 2.711814
638.10 3.296341
638.20 3.79441
638.30 4.165553
638.40 4.409645
638.50 4.549157
638.60 4.619587
638.70 4.66114
638.80 4.68024
638.90 4.64908
639.00 4.555622
639.10 4.390054
639.20 4.11176
639.30 3.706947
639.40 3.242278
639.50 2.816454
639.60 2.477666
639.70 2.229358
639.80 2.05096
639.90 1.903021
640.00 1.751386
640.10 1.570569
640.20 1.336189
640.30 1.028923
640.40 0.6571428
640.50 0.2842711
640.60 0.001185215
640.70 0
640.80 0
640.90 0.08494259
641.00 0.3377466
641.10 0.6424819
641.20 0.9688351
641.30 1.314976
641.40 1.661876
641.50 1.970973
641.60 2.214598
641.70 2.378957
641.80 2.468236
641.90 2.465639
642.00 2.333106
642.10 2.058573
642.20 1.677694
642.30 1.255609
642.40 0.8767888
642.50 0.6309542
642.60 0.5815892
642.70 0.7436241
642.80 1.10462
642.90 1.628707
643.00 2.239159
643.10 2.819548
643.20 3.249676
643.30 3.491378
643.40 3.568826
643.50 3.512802
643.60 3.365528
643.70 3.190309
643.80 3.058007
643.90 3.023722
644.00 3.085264
644.10 3.186824
644.20 3.250226
644.30 3.201993
644.40 3.005992
644.50 2.683803
644.60 2.32106
644.70 2.011466
644.80 1.837823
644.90 1.845066
645.00 2.000921
645.10 2.214024
645.20 2.413368
645.30 2.543333
645.40 2.574682
645.50 2.548661
645.60 2.516462
645.70 2.522988
645.80 2.64697
645.90 2.934073
646.00 3.322887
646.10 3.711262
646.20 4.000573
646.30 4.139957
646.40 4.13884
646.50 4.047425
646.60 3.898965
646.70 3.708399
646.80 3.486991
646.90 3.196717
647.00 2.842836
647.10 2.499551
647.20 2.183191
647.30 1.863055
647.40 1.549332
647.50 1.301469
647.60 1.222731
647.70 1.368054
647.80 1.699126
647.90 2.147499
648.00 2.633798
648.10 3.091209
648.20 3.49071
648.30 3.859938
648.40 4.222203
648.50 4.559021
648.60 4.858277
648.70 5.133972
648.80 5.387585
648.90 5.549821
649.00 5.53566
649.10 5.342553
649.20 5.047761
649.30 4.725602
649.40 4.405432
649.50 4.065375
649.60 3.682239
649.70 3.276891
649.80 2.854605
649.90 2.413935
650.00 2.01254
650.10 1.739712
650.20 1.687879
650.30 1.941241
650.40 2.515789
650.50 3.336145
650.60 4.236134
650.70 5.020052
650.80 5.55442
650.90 5.793396
651.00 5.743978
651.10 5.431919
651.20 4.951664
651.30 4.42282
651.40 3.935306
651.50 3.603487
651.60 3.473066
651.70 3.476314
651.80 3.523288
651.90 3.537901
652.00 3.510509
652.10 3.490306
652.20 3.516852
652.30 3.601252
652.40 3.747808
652.50 3.946055
652.60 4.166779
652.70 4.393655
652.80 4.597633
652.90 4.707054
653.00 4.73106
653.10 4.776006
653.20 4.888413
653.30 5.026226
653.40 5.113226
653.50 5.075818
653.60 4.892696
653.70 4.602696
653.80 4.270592
653.90 4.00138
654.00 3.868718
654.10 3.894093
654.20 4.084208
654.30 4.407789
654.40 4.786806
654.50 5.117751
654.60 5.352562
654.70 5.511469
654.80 5.641589
654.90 5.777791
655.00 5.89479
655.10 5.976621
655.20 6.039464
655.30 6.047524
655.40 5.974204
655.50 5.823826
655.60 5.602259
655.70 5.35131
655.80 5.081216
655.90 4.765744
656.00 4.427428
656.10 4.127403
656.20 3.917571
656.30 3.822711
656.40 3.877081
656.50 4.07639
656.60 4.356571
656.70 4.668366
656.80 4.971107
656.90 5.225449
657.00 5.422168
657.10 5.551357
657.20 5.616519
657.30 5.644957
657.40 5.624864
657.50 5.513036
657.60 5.289079
657.70 4.995415
657.80 4.696394
657.90 4.445296
658.00 4.285242
658.10 4.256902
658.20 4.393296
658.30 4.674016
658.40 5.040255
658.50 5.417793
658.60 5.710752
658.70 5.822375
658.80 5.714925
658.90 5.480436
659.00 5.288157
659.10 5.257402
659.20 5.433062
659.30 5.82848
659.40 6.434917
659.50 7.171206
659.60 7.901469
659.70 8.486927
659.80 8.801395
659.90 8.746194
660.00 8.328494
660.10 7.721915
660.20 7.132233
660.30 6.6566
660.40 6.295255
660.50 6.019089
660.60 5.813123
660.70 5.687934
660.80 5.633207
660.90 5.617624
661.00 5.61599
661.10 5.62575
661.20 5.664801
661.30 5.747625
661.40 5.86444
661.50 5.952031
661.60 5.93498
661.70 5.774371
661.80 5.481812
661.90 5.131799
662.00 4.843276
662.10 4.715518
662.20 4.808748
662.30 5.137143
662.40 5.656663
662.50 6.263403
662.60 6.803658
662.70 7.162675
662.80 7.330898
662.90 7.351052
663.00 7.269224
663.10 7.135363
663.20 6.984997
663.30 6.811414
663.40 6.578314
663.50 6.241659
663.60 5.809598
663.70 5.354117
663.80 4.946569
663.90 4.668125
664.00 4.575574
664.10 4.688361
664.20 4.975679
664.30 5.35026
664.40 5.719547
664.50 6.025021
664.60 6.260609
664.70 6.442095
664.80 6.573214
664.90 6.658634
665.00 6.696719
665.10 6.667379
665.20 6.563712
665.30 6.398635
665.40 6.218968
665.50 6.081734
665.60 6.046125
665.70 6.155972
665.80 6.408368
665.90 6.717868
666.00 6.939576
666.10 6.982041
666.20 6.861096
666.30 6.639534
666.40 6.344269
666.50 6.030941
666.60 5.790902
666.70 5.675413
666.80 5.70005
666.90 5.867627
667.00 6.139716
667.10 6.434119
667.20 6.688699
667.30 6.918575
667.40 7.18269
667.50 7.491013
667.60 7.779605
667.70 7.97898
667.80 8.082877
667.90 8.103522
668.00 8.068561
668.10 8.047665
668.20 8.130362
668.30 8.379091
668.40 8.788469
668.50 9.311747
668.60 9.861926
668.70 10.29475
668.80 10.46933
668.90 10.33158
669.00 9.914377
669.10 9.3149
669.20 8.669016
669.30 8.1019
669.40 7.706092
669.50 7.519797
669.60 7.507244
669.70 7.597424
669.80 7.732355
669.90 7.843585
670.00 7.886097
670.10 7.869112
670.20 7.793799
670.30 7.679067
670.40 7.605329
670.50 7.675263
670.60 7.941776
670.70 8.370385
670.80 8.880031
670.90 9.378359
671.00 9.77771
671.10 9.994189
671.20 9.978573
671.30 9.778293
671.40 9.476359
671.50 9.155348
671.60 8.908946
671.70 8.789481
671.80 8.77846
671.90 8.791756
672.00 8.746847
672.10 8.630188
672.20 8.462721
672.30 8.296706
672.40 8.215198
672.50 8.257644
672.60 8.37867
672.70 8.48776
672.80 8.53032
672.90 8.50151
673.00 8.467307
673.10 8.510872
673.20 8.639769
673.30 8.814079
673.40 8.974775
673.50 9.047969
673.60 8.97986
673.70 8.739906
673.80 8.309618
673.90 7.763176
674.00 7.253718
674.10 6.931242
674.20 6.899223
674.30 7.188997
674.40 7.727924
674.50 8.382115
674.60 9.057731
674.70 9.648817
674.80 10.03874
674.90 10.16013
675.00 9.985895
675.10 9.555791
675.20 8.991397
675.30 8.441519
675.40 8.038424
675.50 7.851776
675.60 7.864169
675.70 8.00232
675.80 8.18139
675.90 8.326227
676.00 8.359476
676.10 8.263776
676.20 8.097826
676.30 7.949665
676.40 7.860948
676.50 7.832926
676.60 7.901249
676.70 8.075061
676.80 8.321971
676.90 8.609279
677.00 8.881516
677.10 9.065971
677.20 9.156002
677.30 9.210953
677.40 9.288476
677.50 9.42441
677.60 9.603485
677.70 9.774348
677.80 9.942755
677.90 10.15004
678.00 10.3759
678.10 10.54968
678.20 10.57957
678.30 10.39158
678.40 10.00552
678.50 9.520131
678.60 9.015615
678.70 8.541876
678.80 8.163775
678.90 7.958157
679.00 7.989287
679.10 8.27708
679.20 8.772374
679.30 9.350599
679.40 9.840169
679.50 10.10118
679.60 10.0815
679.70 9.823345
679.80 9.436785
679.90 9.067981
680.00 8.810836
680.10 8.689142
680.20 8.693013
680.30 8.800619
680.40 9.00624
680.50 9.280739
680.60 9.556298
680.70 9.756017
680.80 9.856175
680.90 9.863685
681.00 9.768384
681.10 9.578568
681.20 9.312345
681.30 8.967472
681.40 8.582663
681.50 8.236329
681.60 8.025523
681.70 8.034641
681.80 8.28566
681.90 8.765381
682.00 9.408263
682.10 10.10588
682.20 10.74175
682.30 11.23807
682.40 11.56903
682.50 11.63532
682.60 11.34383
682.70 10.73783
682.80 9.93491
682.90 9.115617
683.00 8.423578
683.10 7.920417
683.20 7.649034
683.30 7.637432
683.40 7.904081
683.50 8.423389
683.60 9.09176
683.70 9.74746
683.80 10.23128
683.90 10.50767
684.00 10.61055
684.10 10.5508
684.20 10.37642
684.30 10.14611
684.40 9.959023
684.50 9.934601
684.60 10.08923
684.70 10.34948
684.80 10.61436
684.90 10.78736
685.00 10.80129
685.10 10.62869
685.20 10.28464
685.30 9.841967
685.40 9.393965
685.50 9.014838
685.60 8.740512
685.70 8.580362
685.80 8.510194
685.90 8.482749
686.00 8.5084
686.10 8.602957
686.20 8.731985
686.30 8.903089
686.40 9.139817
686.50 9.417922
686.60 9.700574
686.70 9.946209
686.80 10.14407
686.90 10.32087
687.00 10.51583
687.10 10.70517
687.20 10.81436
687.30 10.79693
687.40 10.62342
687.50 10.31793
687.60 9.989962
687.70 9.730385
687.80 9.587061
687.90 9.616938
688.00 9.837666
688.10 10.21328
688.20 10.65319
688.30 11.02241
688.40 11.18131
688.50 11.08535
688.60 10.79699
688.70 10.39166
688.80 9.922538
688.90 9.437169
689.00 8.971893
689.10 8.545332
689.20 8.190461
689.30 7.939303
689.40 7.81851
689.50 7.840887
689.60 7.983166
689.70 8.193889
689.80 8.425841
689.90 8.632324
690.00 8.76141
690.10 8.797172
690.20 8.777497
690.30 8.749871
690.40 8.798526
690.50 9.024162
690.60 9.438815
690.70 9.984133
690.80 10.57801
690.90 11.13071
691.00 11.55651
691.10 11.82762
691.20 11.96204
691.30 11.96518
691.40 11.83087
691.50 11.54902
691.60 11.12279
691.70 10.59622
691.80 10.00853
691.90 9.397591
692.00 8.828219
692.10 8.363778
692.20 8.101608
692.30 8.079826
692.40 8.244553
692.50 8.544459
692.60 8.913161
692.70 9.278771
692.80 9.622226
692.90 9.962724
693.00 10.31125
693.10 10.61933
693.20 10.78793
693.30 10.74878
693.40 10.50519
693.50 10.10891
693.60 9.559677
693.70 8.877985
693.80 8.202335
693.90 7.673021
694.00 7.397879
694.10 7.456037
694.20 7.822377
694.30 8.386369
694.40 9.040814
694.50 9.671654
694.60 10.17496
694.70 10.48703
694.80 10.59892
694.90 10.57918
695.00 10.51871
695.10 10.47769
695.20 10.47169
695.30 10.47828
695.40 10.46948
695.50 10.44179
695.60 10.40942
695.70 10.38319
695.80 10.33185
695.90 10.2669
696.00 10.26382
696.10 10.3503
696.20 10.46575
696.30 10.51303
696.40 10.45003
696.50 10.25473
696.60 9.936861
696.70 9.583528
696.80 9.29184
696.90 9.1105
697.00 9.031314
697.10 9.025118
697.20 9.071613
697.30 9.155914
697.40 9.225894
697.50 9.248923
697.60 9.263722
697.70 9.289105
697.80 9.312505
697.90 9.363456
698.00 9.455684
698.10 9.540121
698.20 9.558288
698.30 9.472558
698.40 9.311763
698.50 9.136102
698.60 8.99737
698.70 8.91413
698.80 8.891702
698.90 8.910791
699.00 8.920717
699.10 8.9024
699.20 8.866112
699.30 8.834923
699.40 8.798283
699.50 8.731021
699.60 8.66261
699.70 8.622347
699.80 8.597701
699.90 8.593214
700.00 8.607263
700.10 8.63587
700.20 8.674672
700.30 8.692464
700.40 8.66331
700.50 8.593531
700.60 8.50686
700.70 8.417599
700.80 8.373757
700.90 8.418492
701.00 8.517392
701.10 8.649248
701.20 8.841105
701.30 9.096459
701.40 9.384296
701.50 9.637202
701.60 9.797017
701.70 9.863579
701.80 9.885246
701.90 9.904461
702.00 9.93346
702.10 9.978415
702.20 10.01954
702.30 10.02663
702.40 9.981882
702.50 9.866107
702.60 9.687581
702.70 9.472737
702.80 9.262007
702.90 9.14141
703.00 9.19877
703.10 9.460213
703.20 9.8531
703.30 10.24436
703.40 10.51999
703.50 10.62828
703.60 10.59341
703.70 10.46658
703.80 10.28697
703.90 10.10317
704.00 9.931365
704.10 9.760936
704.20 9.604546
704.30 9.473341
704.40 9.378481
704.50 9.344905
704.60 9.406509
704.70 9.595295
704.80 9.906303
704.90 10.28654
705.00 10.65357
705.10 10.9383
705.20 11.1243
705.30 11.2121
705.40 11.1971
705.50 11.09569
705.60 10.96968
705.70 10.89135
705.80 10.8786
705.90 10.91289
706.00 10.96644
706.10 11.02973
706.20 11.12566
706.30 11.24348
706.40 11.29627
706.50 11.23179
706.60 11.09141
706.70 10.93048
706.80 10.81728
706.90 10.81622
707.00 10.91679
707.10 11.0651
707.20 11.20994
707.30 11.32801
707.40 11.43325
707.50 11.5122
707.60 11.52552
707.70 11.48528
707.80 11.45615
707.90 11.46463
708.00 11.49145
708.10 11.51639
708.20 11.50517
708.30 11.43787
708.40 11.32901
708.50 11.20434
708.60 11.13029
708.70 11.16768
708.80 11.29993
708.90 11.48206
709.00 11.67244
709.10 11.84099
709.20 12.00992
709.30 12.21531
709.40 12.41251
709.50 12.51863
709.60 12.5073
709.70 12.39325
709.80 12.22752
709.90 12.08981
710.00 12.0245
710.10 12.04223
710.20 12.16065
710.30 12.40578
710.40 12.77691
710.50 13.22179
710.60 13.64618
710.70 13.94465
710.80 14.05878
710.90 14.00321
711.00 13.81759
711.10 13.55605
711.20 13.26608
711.30 12.96152
711.40 12.68071
711.50 12.49399
711.60 12.45583
711.70 12.56486
711.80 12.76449
711.90 12.99643
712.00 13.20485
712.10 13.33138
712.20 13.32539
712.30 13.15868
712.40 12.88027
712.50 12.5843
712.60 12.35438
712.70 12.27345
712.80 12.37234
712.90 12.589
713.00 12.84218
713.10 13.09811
713.20 13.33632
713.30 13.50704
713.40 13.57761
713.50 13.56112
713.60 13.49952
713.70 13.42334
713.80 13.30806
713.90 13.11915
714.00 12.8427
714.10 12.48298
714.20 12.06826
714.30 11.64759
714.40 11.24971
714.50 10.85655
714.60 10.45816
714.70 10.08377
714.80 9.78072
714.90 9.596445
715.00 9.555644
715.10 9.668176
715.20 9.95174
715.30 10.37881
715.40 10.8696
715.50 11.32877
715.60 11.64737
715.70 11.76271
715.80 11.69272
715.90 11.51356
716.00 11.3282
716.10 11.21287
716.20 11.19711
716.30 11.26058
716.40 11.3648
716.50 11.48899
716.60 11.59016
716.70 11.61572
716.80 11.55738
716.90 11.43989
717.00 11.31306
717.10 11.23769
717.20 11.29161
717.30 11.53285
717.40 11.96471
717.50 12.53815
717.60 13.14525
717.70 13.67482
717.80 14.04311
717.90 14.189
718.00 14.08932
718.10 13.77037
718.20 13.29818
718.30 12.78308
718.40 12.37859
718.50 12.21841
718.60 12.33338
718.70 12.66735
718.80 13.15359
718.90 13.75222
719.00 14.42752
719.10 15.13013
719.20 15.78726
719.30 16.29787
719.40 16.56191
719.50 16.52544
719.60 16.20056
719.70 15.64918
719.80 14.95098
719.90 14.19212
720.00 13.48303
720.10 12.93495
720.20 12.61757
720.30 12.53008
720.40 12.62835
720.50 12.82512
720.60 13.02662
720.70 13.19114
720.80 13.30035
720.90 13.33866
721.00 13.28886
721.10 13.13834
721.20 12.90593
721.30 12.65262
721.40 12.4495
721.50 12.34184
721.60 12.31053
721.70 12.28661
721.80 12.21662
721.90 12.12347
722.00 12.08362
722.10 12.11361
722.20 12.16658
722.30 12.2238
722.40 12.31063
722.50 12.44251
722.60 12.59689
722.70 12.71684
722.80 12.7544
722.90 12.69592
723.00 12.54237
723.10 12.34623
723.20 12.19314
723.30 12.10438
723.40 11.98982
723.50 11.76824
723.60 11.48096
723.70 11.18864
723.80 10.95783
723.90 10.91425
724.00 11.12635
724.10 11.58291
724.20 12.25458
724.30 13.07977
724.40 13.96797
724.50 14.78941
724.60 15.36912
724.70 15.54479
724.80 15.25543
724.90 14.55957
725.00 13.62441
725.10 12.68124
725.20 11.87605
725.30 11.24808
725.40 10.88468
725.50 10.90432
725.60 11.30218
725.70 11.95514
725.80 12.69895
725.90 13.35983
726.00 13.81533
726.10 14.04539
726.20 14.13567
726.30 14.1829
726.40 14.16351
726.50 13.99716
726.60 13.68766
726.70 13.31195
726.80 12.91767
726.90 12.51878
727.00 12.17264
727.10 11.97851
727.20 12.01858
727.30 12.34039
727.40 12.93766
727.50 13.70246
727.60 14.44197
727.70 14.97274
727.80 15.18415
727.90 15.05625
728.00 14.62786
728.10 13.99989
728.20 13.34211
728.30 12.80848
728.40 12.46621
728.50 12.33621
728.60 12.41444
728.70 12.6436
728.80 12.89235
728.90 13.00441
729.00 12.87359
729.10 12.43651
729.20 11.70177
729.30 10.80155
729.40 9.968885
729.50 9.408686
729.60 9.249152
729.70 9.538778
729.80 10.18418
729.90 10.93526
730.00 11.52081
730.10 11.7465
730.20 11.51875
730.30 10.91009
730.40 10.10572
730.50 9.332424
730.60 8.802453
730.70 8.631583
730.80 8.819856
730.90 9.297616
731.00 9.906762
731.10 10.43675
731.20 10.69759
731.30 10.60694
731.40 10.26144
731.50 9.882893
731.60 9.707057
731.70 9.865277
731.80 10.37498
731.90 11.15911
732.00 12.08746
732.10 12.98519
732.20 13.64345
732.30 13.86901
732.40 13.59065
732.50 12.87585
732.60 11.93407
732.70 11.02973
732.80 10.3067
732.90 9.806168
733.00 9.515327
733.10 9.392766
733.20 9.396295
733.30 9.518537
733.40 9.71056
733.50 9.834409
733.60 9.7498
733.70 9.418221
733.80 8.973953
733.90 8.657575
734.00 8.651294
734.10 9.006496
734.20 9.674252
734.30 10.52113
734.40 11.35514
734.50 11.97876
734.60 12.21345
734.70 11.97
734.80 11.32474
734.90 10.51578
735.00 9.868872
735.10 9.631389
735.20 9.793054
735.30 10.16007
735.40 10.52883
735.50 10.76732
735.60 10.81581
735.70 10.66788
735.80 10.39482
735.90 10.11946
736.00 9.948934
736.10 9.885018
736.20 9.85766
736.30 9.807643
736.40 9.729129
736.50 9.688647
736.60 9.748636
736.70 9.923458
736.80 10.2224
736.90 10.63223
737.00 11.09427
737.10 11.51111
737.20 11.76038
737.30 11.74172
737.40 11.45527
737.50 11.02017
737.60 10.59267
737.70 10.29453
737.80 10.14966
737.90 10.09091
738.00 10.06221
738.10 10.04577
738.20 10.04054
738.30 10.0714
738.40 10.17295
738.50 10.36348
738.60 10.64913
738.70 11.00297
738.80 11.34527
738.90 11.61102
739.00 11.82464
739.10 12.03003
739.20 12.19696
739.30 12.23753
739.40 12.09043
739.50 11.79435
739.60 11.43951
739.70 11.07967
739.80 10.708
739.90 10.3513
740.00 10.07274
740.10 9.915041
740.20 9.886019
740.30 9.940614
740.40 9.967719
740.50 9.847659
740.60 9.563074
740.70 9.214732
740.80 8.923451
740.90 8.713036
741.00 8.541723
741.10 8.375251
741.20 8.210424
741.30 8.010916
741.40 7.730253
741.50 7.382522
741.60 7.038603
741.70 6.780241
741.80 6.656553
741.90 6.712991
742.00 6.965515
742.10 7.34634
742.20 7.746134
742.30 8.085032
742.40 8.343343
742.50 8.558862
742.60 8.772388
742.70 9.017602
742.80 9.326416
742.90 9.677401
743.00 9.986515
743.10 10.17224
743.20 10.2073
743.30 10.10637
743.40 9.939204
743.50 9.837287
743.60 9.900033
743.70 10.16861
743.80 10.57695
743.90 10.97021
744.00 11.23298
744.10 11.25966
744.20 10.96804
744.30 10.40504
744.40 9.714022
744.50 9.037802
744.60 8.476133
744.70 8.077576
744.80 7.821009
744.90 7.634229
745.00 7.487351
745.10 7.361264
745.20 7.231421
745.30 7.118225
745.40 7.059691
745.50 7.117905
745.60 7.333626
745.70 7.633744
745.80 7.896919
745.90 8.03869
746.00 7.977116
746.10 7.686355
746.20 7.257798
746.30 6.810439
746.40 6.427506
746.50 6.155864
746.60 6.018687
746.70 6.015264
746.80 6.127588
746.90 6.348277
747.00 6.668114
747.10 7.083694
747.20 7.577322
747.30 8.100999
747.40 8.613865
747.50 9.052955
747.60 9.286572
747.70 9.206942
747.80 8.78169
747.90 8.080498
748.00 7.300153
748.10 6.692933
748.20 6.425286
748.30 6.497663
748.40 6.827671
748.50 7.301114
748.60 7.76131
748.70 8.048976
748.80 8.076476
748.90 7.820231
749.00 7.320089
749.10 6.679315
749.20 6.047976
749.30 5.58628
749.40 5.388067
749.50 5.426893
749.60 5.629063
749.70 5.920086
749.80 6.170053
749.90 6.252218
750.00 6.14069
750.10 5.893828
750.20 5.593731
750.30 5.312465
750.40 5.106023
750.50 5.015587
750.60 5.054522
750.70 5.188792
750.80 5.354179
750.90 5.4977
751.00 5.584051
751.10 5.600175
751.20 5.562583
751.30 5.492436
751.40 5.376565
751.50 5.163877
751.60 4.803756
751.70 4.294549
751.80 3.713847
751.90 3.186419
752.00 2.776887
752.10 2.46373
752.20 2.272606
752.30 2.28845
752.40 2.52175
752.50 2.907264
752.60 3.357489
752.70 3.785747
752.80 4.136566
752.90 4.396007
753.00 4.563369
753.10 4.648817
753.20 4.669188
753.30 4.64037
753.40 4.64164
753.50 4.813101
753.60 5.185661
753.70 5.634589
753.80 6.013515
753.90 6.224489
754.00 6.237523
754.10 6.084917
754.20 5.821203
754.30 5.491625
754.40 5.163123
754.50 4.943858
754.60 4.904165
754.70 5.034793
754.80 5.264283
754.90 5.490513
755.00 5.610009
755.10 5.556838
755.20 5.339372
755.30 5.033548
755.40 4.729298
755.50 4.492313
755.60 4.378687
755.70 4.426482
755.80 4.62676
755.90 4.931586
756.00 5.277428
756.10 5.590517
756.20 5.84029
756.30 6.030331
756.40 6.157159
756.50 6.24311
756.60 6.320645
756.70 6.392329
756.80 6.455814
756.90 6.529521
757.00 6.614933
757.10 6.705297
757.20 6.806063
757.30 6.904785
757.40 6.975112
757.50 6.976335
757.60 6.865387
757.70 6.630525
757.80 6.298264
757.90 5.903577
758.00 5.452664
758.10 4.961076
758.20 4.479836
758.30 4.054566
758.40 3.732356
758.50 3.557087
758.60 3.530507
758.70 3.612217
758.80 3.773328
758.90 4.018831
759.00 4.32111
759.10 4.621557
759.20 4.900546
759.30 5.148603
759.40 5.417635
759.50 5.799675
759.60 6.323938
759.70 6.910711
759.80 7.436043
759.90 7.805169
760.00 7.957071
760.10 7.825118
760.20 7.348372
760.30 6.596936
760.40 5.717903
760.50 4.840755
760.60 4.034775
760.70 3.374439
760.80 2.928147
760.90 2.706189
761.00 2.683881
761.10 2.794129
761.20 2.925869
761.30 2.963646
761.40 2.851738
761.50 2.67914
761.60 2.61486
761.70 2.757935
761.80 3.116723
761.90 3.643581
762.00 4.262941
762.10 4.833179
762.20 5.152995
762.30 5.08556
762.40 4.614665
762.50 3.867577
762.60 3.046421
762.70 2.34701
762.80 1.913384
762.90 1.756587
763.00 1.780096
763.10 1.838164
763.20 1.847686
763.30 1.797291
763.40 1.680615
763.50 1.501017
763.60 1.299586
763.70 1.080099
763.80 0.8237429
763.90 0.5608362
764.00 0.3464937
764.10 0.2106574
764.20 0.1637068
764.30 0.2387976
764.40 0.4443087
764.50 0.7275355
764.60 0.9864877
764.70 1.136367
764.80 1.168007
764.90 1.127214
765.00 1.056847
765.10 1.008917
765.20 1.028546
765.30 1.087751
765.40 1.103482
765.50 1.045404
765.60 0.9210808
765.70 0.7155492
765.80 0.4614773
765.90 0.2802308
766.00 0.303283
766.10 0.5822776
766.20 1.073607
766.30 1.673651
766.40 2.264642
766.50 2.70281
766.60 2.825608
766.70 2.573408
766.80 2.039063
766.90 1.351198
767.00 0.63706
767.10 0.03897367
767.20 0
767.30 0
767.40 0
767.50 0
767.60 0.1215181
767.70 0.4714744
767.80 0.8030512
767.90 1.121667
768.00 1.496692
768.10 1.960085
768.20 2.437609
768.30 2.827628
768.40 3.071154
768.50 3.154646
768.60 3.110459
768.70 2.982669
768.80 2.790796
768.90 2.548606
769.00 2.317713
769.10 2.197568
769.20 2.253105
769.30 2.48519
769.40 2.781918
769.50 2.992941
769.60 3.060516
769.70 2.968179
769.80 2.712381
769.90 2.334144
770.00 1.899929
770.10 1.502232
770.20 1.22723
770.30 1.092276
770.40 1.032046
770.50 0.9336207
770.60 0.6339773
770.70 0
770.80 0
770.90 0
771.00 0
771.10 0
771.20 0
771.30 0
771.40 0
771.50 0
771.60 0.3837504
771.70 2.045802
771.80 3.355526
771.90 4.15145
772.00 4.410577
772.10 4.1999
772.20 3.644218
772.30 2.883529
772.40 2.028794
772.50 1.171884
772.60 0.3930359
772.70 0
772.80 0
772.90 0
773.00 0.4280615
773.10 1.311198
773.20 2.262424
773.30 3.077196
773.40 3.611812
773.50 3.83011
773.60 3.757363
773.70 3.46978
773.80 3.071102
773.90 2.670092
774.00 2.341042
774.10 2.126836
774.20 2.001948
774.30 1.9049
774.40 1.781207
774.50 1.570209
774.60 1.279904
774.70 0.8669139
774.80 0.2538554
774.90 0
775.00 0
775.10 0
775.20 0
775.30 0.9057272
775.40 2.074415
775.50 3.071593
775.60 3.6353
775.70 3.662426
775.80 3.262332
775.90 2.640018
776.00 1.907236
776.10 1.250127
776.20 0.9322581
776.30 0.9868167
776.40 1.235207
776.50 1.503941
776.60 1.698476
776.70 1.759912
776.80 1.712144
776.90 1.702378
777.00 1.864645
777.10 2.214675
777.20 2.676601
777.30 3.179691
777.40 3.728328
777.50 4.311911
777.60 4.890897
777.70 5.412936
777.80 5.751891
777.90 5.812311
778.00 5.585692
778.10 5.139342
778.20 4.585247
778.30 4.029826
778.40 3.606164
778.50 3.396306
778.60 3.346642
778.70 3.317966
778.80 3.255524
778.90 3.245243
779.00 3.245382
779.10 3.126797
779.20 2.926628
779.30 2.737661
779.40 2.556154
779.50 2.349996
779.60 2.141137
779.70 1.938336
779.80 1.702211
779.90 1.460936
780.00 1.343909
780.10 1.498381
780.20 1.922173
780.30 2.422089
780.40 2.87684
780.50 3.269297
780.60 3.548033
780.70 3.663919
780.80 3.667356
780.90 3.702996
781.00 3.876526
781.10 4.23301
781.20 4.783665
781.30 5.480909
781.40 6.208945
781.50 6.791427
781.60 7.072886
781.70 7.003262
781.80 6.635611
781.90 6.141208
782.00 5.722946
782.10 5.494676
782.20 5.551609
782.30 5.949582
782.40 6.645528
782.50 7.510537
782.60 8.37043
782.70 9.058674
782.80 9.440533
782.90 9.493217
783.00 9.315254
783.10 9.020635
783.20 8.691207
783.30 8.362906
783.40 8.070369
783.50 7.895425
783.60 7.869574
783.70 7.977834
783.80 8.197729
783.90 8.46434
784.00 8.702984
784.10 8.879724
784.20 8.984953
784.30 8.99803
784.40 8.923252
784.50 8.80879
784.60 8.707102
784.70 8.622862
784.80 8.570729
784.90 8.672802
785.00 9.202435
785.10 10.34657
785.20 12.03555
785.30 14.03475
785.40 15.9692
785.50 17.45943
785.60 18.26552
785.70 18.30008
785.80 17.58429
785.90 16.26386
786.00 14.62339
786.10 13.04025
786.20 11.83799
786.30 11.13767
786.40 10.76414
786.50 10.45678
786.60 10.11707
786.70 9.81542
786.80 9.744855
786.90 10.04498
787.00 10.72361
787.10 11.66299
787.20 12.60784
787.30 13.32342
787.40 13.67692
787.50 13.55743
787.60 12.96208
787.70 12.12665
787.80 11.39496
787.90 11.04371
788.00 11.21625
788.10 11.89819
788.20 12.90775
788.30 13.90807
788.40 14.58705
788.50 14.79991
788.60 14.59401
788.70 14.07747
788.80 13.35143
788.90 12.6112
789.00 12.07542
789.10 11.76289
789.20 11.56881
789.30 11.43548
789.40 11.3331
789.50 11.23544
789.60 11.1648
789.70 11.23903
789.80 11.54624
789.90 12.03045
790.00 12.5644
790.10 13.03591
790.20 13.37881
790.30 13.57491
790.40 13.62065
790.50 13.55319
790.60 13.43722
790.70 13.2687
790.80 12.95088
790.90 12.42471
791.00 11.66701
791.10 10.68165
791.20 9.560786
791.30 8.49918
791.40 7.751096
791.50 7.490527
791.60 7.778617
791.70 8.547399
791.80 9.629809
791.90 10.86147
792.00 12.05705
792.10 13.0224
792.20 13.69423
792.30 14.09282
792.40 14.32864
792.50 14.52904
792.60 14.65395
792.70 14.57108
792.80 14.1826
792.90 13.53056
793.00 12.806
793.10 12.20387
793.20 11.89799
793.30 11.96012
793.40 12.33958
793.50 13.01489
793.60 13.92475
793.70 14.89012
793.80 15.63738
793.90 15.95184
794.00 15.80525
794.10 15.31472
794.20 14.57181
794.30 13.56437
794.40 12.23232
794.50 10.62483
794.60 8.919756
794.70 7.362744
794.80 6.229031
794.90 5.685731
795.00 5.773595
795.10 6.445731
795.20 7.573548
795.30 8.959613
795.40 10.43449
795.50 11.85403
795.60 13.11865
795.70 14.1965
795.80 15.05269
795.90 15.69553
796.00 16.14575
796.10 16.4449
796.20 16.73042
796.30 17.12201
796.40 17.669
796.50 18.3667
796.60 19.18191
796.70 20.06453
796.80 20.89773
796.90 21.55112
797.00 21.96683
797.10 22.15556
797.20 22.19336
797.30 22.15019
797.40 22.01395
797.50 21.72597
797.60 21.24029
797.70 20.51571
797.80 19.55805
797.90 18.47691
798.00 17.42183
798.10 16.54023
798.20 15.98234
798.30 15.88096
798.40 16.24894
798.50 16.97414
798.60 17.91163
798.70 18.90766
798.80 19.79573
798.90 20.40512
799.00 20.55911
799.10 20.21004
799.20 19.53758
799.30 18.84359
799.40 18.33016
799.50 18.01628
799.60 17.87063
799.70 17.86854
799.80 18.02174
799.90 18.37161
800.00 18.91135
800.10 19.56015
800.20 20.25334
800.30 20.95295
800.40 21.61741
800.50 22.19242
800.60 22.53306
800.70 22.45085
800.80 21.97189
800.90 21.34568
801.00 20.79706
801.10 20.3721
801.20 20.09537
801.30 20.01252
801.40 20.06267
801.50 20.16273
801.60 20.24706
801.70 20.27682
801.80 20.22629
801.90 20.12446
802.00 20.06798
802.10 20.19736
802.20 20.5614
802.30 21.12392
802.40 21.84584
802.50 22.75141
802.60 23.76398
802.70 24.65449
802.80 25.29429
802.90 25.60383
803.00 25.56085
803.10 25.24764
803.20 24.79451
803.30 24.29159
803.40 23.81503
803.50 23.41798
803.60 23.16825
803.70 23.13784
803.80 23.32862
803.90 23.65475
804.00 23.98691
804.10 24.2649
804.20 24.51875
804.30 24.84253
804.40 25.26592
804.50 25.72794
804.60 26.19809
804.70 26.6949
804.80 27.18913
804.90 27.60458
805.00 27.87235
805.10 27.94252
805.20 27.82154
805.30 27.59144
805.40 27.38229
805.50 27.27399
805.60 27.21987
805.70 27.19449
805.80 27.24888
805.90 27.43707
806.00 27.747
806.10 28.09779
806.20 28.44076
806.30 28.76735
806.40 29.03583
806.50 29.16222
806.60 29.11864
806.70 28.92778
806.80 28.59866
806.90 28.17493
807.00 27.78602
807.10 27.53288
807.20 27.49159
807.30 27.72068
807.40 28.22891
807.50 28.98036
807.60 29.83563
807.70 30.59896
807.80 31.11962
807.90 31.33669
808.00 31.25238
808.10 30.95767
808.20 30.62801
808.30 30.41859
808.40 30.41778
808.50 30.65757
808.60 31.10202
808.70 31.6649
808.80 32.22611
808.90 32.66627
809.00 32.91317
809.10 32.93192
809.20 32.72617
809.30 32.34411
809.40 31.84178
809.50 31.25757
809.60 30.665
809.70 30.21809
809.80 30.02539
809.90 30.05695
810.00 30.24763
810.10 30.53432
810.20 30.83242
810.30 31.09302
810.40 31.32351
810.50 31.5533
810.60 31.80919
810.70 32.09128
810.80 32.37508
810.90 32.59684
811.00 32.68064
811.10 32.60039
811.20 32.38724
811.30 32.12051
811.40 31.85512
811.50 31.61866
811.60 31.47981
811.70 31.50575
811.80 31.69837
811.90 32.01778
812.00 32.41156
812.10 32.82795
812.20 33.2554
812.30 33.73699
812.40 34.29648
812.50 34.88465
812.60 35.41759
812.70 35.85432
812.80 36.19749
812.90 36.43085
813.00 36.51828
813.10 36.40668
813.20 36.0624
813.30 35.56315
813.40 35.07526
813.50 34.72332
813.60 34.53421
813.70 34.48719
813.80 34.5747
813.90 34.76726
814.00 34.97784
814.10 35.05917
814.20 34.90234
814.30 34.55979
814.40 34.17993
814.50 33.94404
814.60 33.98552
814.70 34.26445
814.80 34.65764
814.90 35.10943
815.00 35.59861
815.10 36.07581
815.20 36.47874
815.30 36.7526
815.40 36.88584
815.50 36.94495
815.60 36.99478
815.70 37.02466
815.80 37.01019
815.90 36.96565
816.00 36.98273
816.10 37.19772
816.20 37.661
816.30 38.30516
816.40 39.0179
816.50 39.697
816.60 40.26312
816.70 40.67899
816.80 40.94224
816.90 41.07493
817.00 41.12149
817.10 41.13794
817.20 41.17057
817.30 41.2155
817.40 41.23853
817.50 41.20747
817.60 41.11603
817.70 40.99385
817.80 40.88091
817.90 40.80483
818.00 40.77249
818.10 40.74474
818.20 40.66297
818.30 40.47425
818.40 40.1591
818.50 39.76406
818.60 39.35529
818.70 39.00966
818.80 38.78506
818.90 38.6738
819.00 38.60381
819.10 38.48053
819.20 38.22068
819.30 37.77353
819.40 37.13979
819.50 36.44825
819.60 35.97465
819.70 36.01962
819.80 36.77352
819.90 38.20334
820.00 40.13063
820.10 42.31179
820.20 44.41831
820.30 46.16281
820.40 47.36919
820.50 47.9183
820.60 47.76594
820.70 47.02126
820.80 45.93931
820.90 44.81302
821.00 43.86272
821.10 43.19912
821.20 42.83578
821.30 42.71448
821.40 42.71956
821.50 42.70899
821.60 42.60171
821.70 42.3577
821.80 41.95079
821.90 41.43508
822.00 40.95026
822.10 40.64407
822.20 40.61416
822.30 40.87876
822.40 41.3544
822.50 41.92315
822.60 42.53752
822.70 43.19506
822.80 43.86159
822.90 44.43427
823.00 44.78788
823.10 44.8674
823.20 44.74115
823.30 44.57139
823.40 44.52266
823.50 44.66497
823.60 44.97992
823.70 45.44847
823.80 46.08251
823.90 46.88829
824.00 47.77292
824.10 48.56776
824.20 49.12207
824.30 49.35611
824.40 49.27992
824.50 49.00781
824.60 48.69324
824.70 48.43368
824.80 48.26671
824.90 48.23106
825.00 48.36113
825.10 48.62828
825.20 48.96876
825.30 49.29522
825.40 49.51197
825.50 49.58903
825.60 49.55204
825.70 49.4731
825.80 49.49073
825.90 49.68806
826.00 50.03562
826.10 50.47784
826.20 50.97227
826.30 51.49119
826.40 52.0057
826.50 52.44878
826.60 52.65997
826.70 52.46614
826.80 51.81722
826.90 50.80958
827.00 49.66781
827.10 48.65958
827.20 47.97616
827.30 47.6936
827.40 47.78628
827.50 48.12652
827.60 48.55958
827.70 48.96489
827.80 49.23599
827.90 49.29181
828.00 49.11698
828.10 48.73705
828.20 48.21861
828.30 47.6897
828.40 47.26093
828.50 46.95446
828.60 46.87921
828.70 47.2845
828.80 48.30972
828.90 49.88595
829.00 51.77764
829.10 53.62554
829.20 55.00618
829.30 55.60069
829.40 55.40561
829.50 54.66774
829.60 53.70317
829.70 52.77164
829.80 52.08379
829.90 51.86232
830.00 52.0687
830.10 52.36747
830.20 52.49392
830.30 52.35792
830.40 51.96583
830.50 51.40099
830.60 50.86076
830.70 50.55627
830.80 50.53799
830.90 50.80564
831.00 51.32217
831.10 52.00358
831.20 52.7771
831.30 53.52992
831.40 54.17424
831.50 54.66324
831.60 54.96876
831.70 55.13533
831.80 55.28153
831.90 55.53681
832.00 56.00766
832.10 56.72829
832.20 57.67518
832.30 58.74461
832.40 59.75571
832.50 60.51477
832.60 60.84561
832.70 60.68254
832.80 60.07743
832.90 59.16691
833.00 58.12436
833.10 57.07386
833.20 56.09763
833.30 55.26072
833.40 54.63277
833.50 54.33152
833.60 54.35042
833.70 54.54249
833.80 54.79299
833.90 55.00988
834.00 55.24244
834.10 55.57951
834.20 56.11696
834.30 56.91264
834.40 57.89842
834.50 58.97656
834.60 59.9867
834.70 60.7894
834.80 61.28396
834.90 61.3518
835.00 60.99376
835.10 60.30566
835.20 59.51137
835.30 58.92886
835.40 58.60347
835.50 58.47917
835.60 58.44748
835.70 58.36849
835.80 58.20179
835.90 57.94588
836.00 57.65892
836.10 57.40878
836.20 57.22579
836.30 57.10913
836.40 57.08274
836.50 57.26689
836.60 57.69144
836.70 58.2647
836.80 58.958
836.90 59.68833
837.00 60.33984
837.10 60.8658
837.20 61.22932
837.30 61.3977
837.40 61.39868
837.50 61.30762
837.60 61.26344
837.70 61.45122
837.80 61.99433
837.90 62.84593
838.00 63.83759
838.10 64.73867
838.20 65.32044
838.30 65.49553
838.40 65.26312
838.50 64.59742
838.60 63.55616
838.70 62.32043
838.80 61.13194
838.90 60.18246
839.00 59.47005
839.10 58.93937
839.20 58.61492
839.30 58.58322
839.40 58.90858
839.50 59.51139
839.60 60.27
839.70 61.05376
839.80 61.76283
839.90 62.43488
840.00 63.06662
840.10 63.55042
840.20 63.74993
840.30 63.62213
840.40 63.37361
840.50 63.27595
840.60 63.46321
840.70 63.91101
840.80 64.4356
840.90 64.97203
841.00 65.60397
841.10 66.31978
841.20 66.94177
841.30 67.22064
841.40 67.08927
841.50 66.72774
841.60 66.38268
841.70 66.22267
841.80 66.25774
841.90 66.39441
842.00 66.54107
842.10 66.64929
842.20 66.77512
842.30 67.00678
842.40 67.25793
842.50 67.4169
842.60 67.62802
842.70 68.14308
842.80 69.03573
842.90 70.15307
843.00 71.24168
843.10 72.00646
843.20 72.18887
843.30 71.65074
843.40 70.42423
843.50 68.69991
843.60 66.77701
843.70 64.98866
843.80 63.69579
843.90 63.18733
844.00 63.47931
844.10 64.39654
844.20 65.70601
844.30 67.13412
844.40 68.375
844.50 69.15677
844.60 69.37136
844.70 69.09776
844.80 68.44308
844.90 67.50201
845.00 66.44895
845.10 65.50344
845.20 64.83325
845.30 64.51685
845.40 64.5148
845.50 64.65471
845.60 64.73722
845.70 64.66618
845.80 64.47972
845.90 64.33006
846.00 64.4336
846.10 64.91894
846.20 65.77558
846.30 66.97139
846.40 68.35622
846.50 69.66543
846.60 70.69318
846.70 71.30187
846.80 71.48128
846.90 71.33459
847.00 70.96192
847.10 70.43062
847.20 69.89713
847.30 69.51205
847.40 69.17656
847.50 68.71369
847.60 68.10895
847.70 67.41905
847.80 66.7513
847.90 66.24003
848.00 65.94722
848.10 65.91543
848.20 66.17221
848.30 66.69291
848.40 67.41811
848.50 68.2432
848.60 68.92696
848.70 69.30691
848.80 69.4445
848.90 69.49225
849.00 69.6225
849.10 69.90006
849.20 70.27744
849.30 70.67893
849.40 71.01474
849.50 71.15397
849.60 70.94493
849.70 70.37306
849.80 69.64
849.90 69.05657
850.00 68.90422
850.10 69.17401
850.20 69.5574
850.30 69.80824
850.40 69.82538
850.50 69.60534
850.60 69.25468
850.70 68.87797
850.80 68.50204
850.90 68.23323
851.00 68.24271
851.10 68.53018
851.20 68.87353
851.30 68.96255
851.40 68.5042
851.50 67.39044
851.60 65.71211
851.70 63.42114
851.80 60.35056
851.90 56.52982
852.00 52.21861
852.10 47.87718
852.20 44.18101
852.30 41.79136
852.40 41.14496
852.50 42.41619
852.60 45.49276
852.70 49.93903
852.80 55.09346
852.90 60.23793
853.00 64.79976
853.10 68.50246
853.20 71.30781
853.30 73.29084
853.40 74.62357
853.50 75.56929
853.60 76.31228
853.70 76.89836
853.80 77.30635
853.90 77.51513
854.00 77.49439
854.10 77.24781
854.20 76.90305
854.30 76.62094
854.40 76.47735
854.50 76.46696
854.60 76.52677
854.70 76.60774
854.80 76.69634
854.90 76.75197
855.00 76.79517
855.10 76.92425
855.20 77.22885
855.30 77.75719
855.40 78.55466
855.50 79.63594
855.60 80.89296
855.70 82.14798
855.80 83.23402
855.90 84.03836
856.00 84.53722
856.10 84.72613
856.20 84.63814
856.30 84.39771
856.40 84.14702
856.50 83.99946
856.60 84.02901
856.70 84.29417
856.80 84.82778
856.90 85.55673
857.00 86.26524
857.10 86.69091
857.20 86.64886
857.30 86.10453
857.40 85.14405
857.50 83.95692
857.60 82.79819
857.70 81.87661
857.80 81.3276
857.90 81.1685
858.00 81.363
858.10 81.84197
858.20 82.42069
858.30 82.89552
858.40 83.19515
858.50 83.35389
858.60 83.41597
858.70 83.36064
858.80 83.11058
858.90 82.61378
859.00 81.85055
859.10 80.8576
859.20 79.74025
859.30 78.68932
859.40 77.92901
859.50 77.60089
859.60 77.79366
859.70 78.52646
859.80 79.70294
859.90 81.12725
860.00 82.54132
860.10 83.72311
860.20 84.54646
860.30 85.00847
860.40 85.24545
860.50 85.37993
860.60 85.37946
860.70 85.14037
860.80 84.48163
860.90 83.2347
861.00 81.38727
861.10 79.03175
861.20 76.24036
861.30 73.10435
861.40 69.8253
861.50 66.69633
861.60 64.03279
861.70 61.98525
861.80 60.49932
861.90 59.53883
862.00 59.12883
862.10 59.17012
862.20 59.49874
862.30 59.94451
862.40 60.32914
862.50 60.50955
862.60 60.37502
862.70 59.82687
862.80 58.74268
862.90 57.14536
863.00 55.36416
863.10 53.9136
863.20 53.20726
863.30 53.42219
863.40 54.58148
863.50 56.61025
863.60 59.27154
863.70 62.13575
863.80 64.61382
863.90 66.15082
864.00 66.48571
864.10 65.73756
864.20 64.35368
864.30 62.79117
864.40 61.28571
864.50 59.9534
864.60 58.88242
864.70 58.13465
864.80 57.71686
864.90 57.61099
865.00 57.81174
865.10 58.28829
865.20 58.98192
865.30 59.83914
865.40 60.81777
865.50 61.85319
865.60 62.87739
865.70 63.87393
865.80 64.89218
865.90 65.93966
866.00 66.99788
866.10 68.06651
866.20 69.08899
866.30 69.98722
866.40 70.72481
866.50 71.24893
866.60 71.43673
866.70 71.18784
866.80 70.48727
866.90 69.54007
867.00 68.74259
867.10 68.35979
867.20 68.40382
867.30 68.8758
867.40 69.80569
867.50 71.10956
867.60 72.63543
867.70 74.06448
867.80 74.92302
867.90 74.93177
868.00 74.15402
868.10 72.86003
868.20 71.43777
868.30 70.26973
868.40 69.64736
868.50 69.77253
868.60 70.67091
868.70 72.08067
868.80 73.52621
868.90 74.54344
869.00 74.78443
869.10 74.1346
869.20 72.78085
869.30 71.04889
869.40 69.30092
869.50 67.92415
869.60 67.25196
869.70 67.35507
869.80 67.97143
869.90 68.79507
870.00 69.65935
870.10 70.42685
870.20 70.90299
870.30 70.86425
870.40 70.19513
870.50 69.09926
870.60 68.00796
870.70 67.24859
870.80 66.97524
870.90 67.19459
871.00 67.80334
871.10 68.64674
871.20 69.50801
871.30 70.19683
871.40 70.60014
871.50 70.6819
871.60 70.49883
871.70 70.20608
871.80 69.9535
871.90 69.71798
872.00 69.36403
872.10 68.88095
872.20 68.39533
872.30 68.07296
872.40 68.00093
872.50 68.21181
872.60 68.80573
872.70 69.78237
872.80 70.99999
872.90 72.26495
873.00 73.36608
873.10 74.11357
873.20 74.43073
873.30 74.34807
873.40 73.9131
873.50 73.24444
873.60 72.53562
873.70 71.9801
873.80 71.74054
873.90 71.87726
874.00 72.27848
874.10 72.74779
874.20 73.14017
874.30 73.41712
874.40 73.63326
874.50 73.84973
874.60 74.06521
874.70 74.22776
874.80 74.24366
874.90 74.08511
875.00 73.82162
875.10 73.51891
875.20 73.21034
875.30 72.99442
875.40 73.1133
875.50 73.73193
875.60 74.79335
875.70 76.12933
875.80 77.54553
875.90 78.80106
876.00 79.55111
876.10 79.50859
876.20 78.66775
876.30 77.14396
876.40 75.12297
876.50 72.9177
876.60 70.85957
876.70 69.24128
876.80 68.29446
876.90 68.1463
877.00 68.90329
877.10 70.57564
877.20 72.91434
877.30 75.54306
877.40 78.19003
877.50 80.61951
877.60 82.58476
877.70 83.92409
877.80 84.33608
877.90 83.64887
878.00 82.1486
878.10 80.29377
878.20 78.42512
878.30 76.8646
878.40 75.74781
878.50 74.97809
878.60 74.49026
878.70 74.28027
878.80 74.38743
878.90 74.87002
879.00 75.70735
879.10 76.8323
879.20 78.36708
879.30 80.38759
879.40 82.65461
879.50 84.72202
879.60 86.13384
879.70 86.57466
879.80 86.02212
879.90 84.754
880.00 83.16358
880.10 81.62262
880.20 80.38321
880.30 79.5898
880.40 79.31216
880.50 79.50055
880.60 80.02548
880.70 80.7334
880.80 81.46337
880.90 82.13001
881.00 82.7652
881.10 83.4399
881.20 84.17289
881.30 84.93735
881.40 85.73133
881.50 86.58805
881.60 87.53326
881.70 88.52422
881.80 89.40359
881.90 89.93939
882.00 89.94818
882.10 89.46415
882.20 88.87765
882.30 88.97448
882.40 90.3124
882.50 92.94189
882.60 96.45566
882.70 99.96773
882.80 102.4618
882.90 103.1155
883.00 101.4688
883.10 97.56726
883.20 92.08143
883.30 86.17149
883.40 81.24402
883.50 78.52268
883.60 78.52691
883.70 80.73909
883.80 84.25266
883.90 88.15773
884.00 91.63718
884.10 94.21774
884.20 95.63072
884.30 95.72309
884.40 94.54808
884.50 92.44439
884.60 89.93887
884.70 87.59095
884.80 85.81975
884.90 84.82165
885.00 84.66683
885.10 85.3868
885.20 86.81772
885.30 88.54306
885.40 90.05338
885.50 90.96087
885.60 91.13907
885.70 90.71553
885.80 89.98709
885.90 89.24919
886.00 88.72626
886.10 88.60821
886.20 89.02821
886.30 90.02665
886.40 91.55098
886.50 93.30504
886.60 94.83988
886.70 95.81559
886.80 96.02684
886.90 95.43753
887.00 94.13737
887.10 92.35853
887.20 90.45491
887.30 88.82272
887.40 87.81487
887.50 87.74278
887.60 88.75092
887.70 90.6167
887.80 92.7752
887.90 94.78767
888.00 96.58586
888.10 97.95742
888.20 98.37643
888.30 97.65457
888.40 96.55372
888.50 96.00098
888.60 96.27904
888.70 97.3516
888.80 99.04696
888.90 100.9531
889.00 102.4925
889.10 103.1724
889.20 102.7747
889.30 101.2873
889.40 98.76172
889.50 95.74481
889.60 93.4469
889.70 92.83098
889.80 93.77618
889.90 95.73614
890.00 98.39296
890.10 101.3175
890.20 103.895
890.30 105.569
890.40 105.9909
890.50 105.0549
890.60 102.9681
890.70 100.1822
890.80 97.2834
890.90 94.8633
891.00 93.27608
891.10 92.5874
891.20 92.72783
891.30 93.5349
891.40 94.8417
891.50 96.48302
891.60 98.19046
891.70 99.51286
891.80 99.99277
891.90 99.49414
892.00 98.15558
892.10 96.25834
892.20 94.1093
892.30 91.95744
892.40 90.05401
892.50 88.64559
892.60 87.89461
892.70 87.77273
892.80 88.1177
892.90 88.74842
893.00 89.52222
893.10 90.44213
893.20 91.59287
893.30 92.9697
893.40 94.40793
893.50 95.6389
893.60 96.35665
893.70 96.33971
893.80 95.46921
893.90 93.53092
894.00 90.23822
894.10 85.5797
894.20 79.90932
894.30 73.91572
894.40 68.54758
894.50 64.69782
894.60 63.00377
894.70 63.67982
894.80 66.47621
894.90 70.83247
895.00 76.0821
895.10 81.56948
895.20 86.77754
895.30 91.38046
895.40 95.36346
895.50 98.90833
895.60 102.1091
895.70 104.8186
895.80 106.6908
895.90 107.4853
896.00 107.0052
896.10 105.2127
896.20 102.4306
896.30 99.209
896.40 96.19356
896.50 93.9668
896.60 92.87602
896.70 93.10027
896.80 94.46506
896.90 96.44883
897.00 98.53558
897.10 100.3926
897.20 101.9454
897.30 103.2263
897.40 104.342
897.50 105.4024
897.60 106.4603
897.70 107.5379
897.80 108.5442
897.90 109.2701
898.00 109.5617
898.10 109.5006
898.20 109.4685
898.30 109.9543
898.40 110.9923
898.50 111.8998
898.60 111.8868
898.70 110.6754
898.80 108.4033
898.90 105.4559
899.00 102.4051
899.10 99.83785
899.20 98.28171
899.30 98.10224
899.40 99.34881
899.50 101.7648
899.60 104.8645
899.70 107.7693
899.80 109.8645
899.90 111.69
900.00 111.656
900.10 111.6219
900.20 111.5879
900.30 111.5538
900.40 111.5197
900.50 111.4857
900.60 111.4516
900.70 111.4176
900.80 111.3835
900.90 111.6444
901.00 112.0572
901.10 112.4701
901.20 112.8829
901.30 113.2958
901.40 113.7086
901.50 114.1215
901.60 114.5343
901.70 114.9472
901.80 115.36
901.90 115.7729
902.00 116.1857
902.10 116.5986
902.20 117.0114
902.30 117.4243
902.40 117.8371
902.50 118.25
902.60 118.6628
902.70 119.0757
902.80 119.4886
902.90 119.9014
903.00 120.3143
903.10 120.7271
903.20 121.14
903.30 121.5528
903.40 121.9657
903.50 122.3785
903.60 122.7914
903.70 123.2042
903.80 123.6171
903.90 124.0299
904.00 124.4428
904.10 124.8556
904.20 125.2685
904.30 125.6374
904.40 125.9606
904.50 126.2838
904.60 126.607
904.70 126.9302
904.80 127.2534
904.90 127.5766
905.00 127.8998
905.10 128.223
905.20 128.5462
905.30 128.8694
905.40 129.1926
905.50 129.5158
905.60 129.839
905.70 130.1622
905.80 130.4854
905.90 130.8086
906.00 131.1318
906.10 131.455
906.20 131.7782
906.30 132.1014
906.40 132.4246
906.50 132.7478
906.60 133.071
906.70 133.3942
906.80 133.7174
906.90 134.0406
907.00 134.3638
907.10 134.687
907.20 135.0102
907.30 135.3334
907.40 135.6566
907.50 135.9798
907.60 136.303
907.70 136.5651
907.80 136.4519
907.90 136.3387
908.00 136.2255
908.10 136.1122
908.20 135.999
908.30 135.8858
908.40 135.7726
908.50 135.6594
908.60 135.5462
908.70 135.433
908.80 135.3198
908.90 135.2066
909.00 135.0934
909.10 134.9802
909.20 134.8669
909.30 134.7537
909.40 134.6405
909.50 134.5273
909.60 134.4141
909.70 134.3009
909.80 134.1877
909.90 134.0745
910.00 133.9613
910.10 133.8481
910.20 133.7349
910.30 133.6216
910.40 133.5084
910.50 133.3952
910.60 133.282
910.70 133.1688
910.80 133.0556
910.90 132.9424
911.00 132.8292
911.10 132.716
911.20 132.648
911.30 132.6088
911.40 132.5697
911.50 132.5306
911.60 132.4915
911.70 132.4523
911.80 132.4132
911.90 132.3741
912.00 132.335
912.10 132.2958
912.20 132.2567
912.30 132.2176
912.40 132.1785
912.50 132.1393
912.60 132.1002
912.70 132.0611
912.80 132.022
912.90 131.9829
913.00 131.9437
913.10 131.9046
913.20 131.8655
913.30 131.8264
913.40 131.7872
913.50 131.7481
913.60 131.709
913.70 131.6699
913.80 131.6307
913.90 131.5916
914.00 131.5525
914.10 131.5134
914.20 131.4742
914.30 131.4351
914.40 131.396
914.50 131.3569
914.60 131.3178
914.70 131.6466
914.80 132.021
914.90 132.3954
915.00 132.7698
915.10 133.1441
915.20 133.5185
915.30 133.8929
915.40 134.2673
915.50 134.6416
915.60 135.016
915.70 135.3904
915.80 135.7647
915.90 136.1391
916.00 136.5135
916.10 136.8879
916.20 137.2622
916.30 137.6366
916.40 138.011
916.50 138.3854
916.60 138.7597
916.70 139.1341
916.80 139.5085
916.90 139.8828
917.00 140.2572
917.10 140.6316
917.20 141.006
917.30 141.3803
917.40 141.7547
917.50 142.1291
917.60 142.5035
917.70 142.8778
917.80 143.2522
917.90 143.6266
918.00 144.001
918.10 144.3725
918.20 144.4609
918.30 144.5493
918.40 144.6378
918.50 144.7262
918.60 144.8146
918.70 144.9031
918.80 144.9915
918.90 145.0799
919.00 145.1684
919.10 145.2568
919.20 145.3453
919.30 145.4337
919.40 145.5221
919.50 145.6106
919.60 145.699
919.70 145.7874
919.80 145.8759
919.90 145.9643
920.00 146.0527
920.10 146.1412
920.20 146.2296
920.30 146.318
920.40 146.4065
920.50 146.4949
920.60 146.5833
920.70 146.6718
920.80 146.7602
920.90 146.8487
921.00 146.9371
921.10 147.0255
921.20 147.114
921.30 147.2024
921.40 147.2908
921.50 147.3793
921.60 147.4677
921.70 147.4929
921.80 147.5141
921.90 147.5352
922.00 147.5564
922.10 147.5775
922.20 147.5987
922.30 147.6198
922.40 147.641
922.50 147.6622
922.60 147.6833
922.70 147.7045
922.80 147.7256
922.90 147.7468
923.00 147.768
923.10 147.7891
923.20 147.8103
923.30 147.8314
923.40 147.8526
923.50 147.8738
923.60 147.8949
923.70 147.9161
923.80 147.9372
923.90 147.9584
924.00 147.9795
924.10 148.0007
924.20 148.0219
924.30 148.043
924.40 148.0642
924.50 148.0853
924.60 148.1065
924.70 148.1277
924.80 148.1488
924.90 148.17
925.00 148.1911
925.10 148.2123
925.20 148.069
925.30 147.8552
925.40 147.6414
925.50 147.4276
925.60 147.2138
925.70 147
925.80 146.7863
925.90 146.5725
926.00 146.3587
926.10 146.1449
926.20 145.9311
926.30 145.7173
926.40 145.5035
926.50 145.2897
926.60 145.0759
926.70 144.8621
926.80 144.6483
926.90 144.4346
927.00 144.2208
927.10 144.007
927.20 143.7932
927.30 143.5794
927.40 143.3656
927.50 143.1518
927.60 142.938
927.70 142.7242
927.80 142.5104
927.90 142.2967
928.00 142.0829
928.10 141.8691
928.20 141.6553
928.30 141.4415
928.40 141.2277
928.50 141.0139
928.60 140.8001
928.70 140.7458
928.80 141.0821
928.90 141.4183
929.00 141.7545
929.10 142.0908
929.20 142.427
929.30 142.7632
929.40 143.0994
929.50 143.4357
929.60 143.7719
929.70 144.1081
929.80 144.4444
929.90 144.7806
930.00 145.1168
930.10 145.4531
930.20 145.7893
930.30 146.1255
930.40 146.4617
930.50 146.798
930.60 147.1342
930.70 147.4704
930.80 147.8067
930.90 148.1429
931.00 148.4791
931.10 148.8153
931.20 149.1516
931.30 149.4878
931.40 149.824
931.50 150.1603
931.60 150.4965
931.70 150.8327
931.80 151.169
931.90 151.5052
932.00 151.8414
932.10 152.1776
932.20 152.5139
932.30 152.3602
932.40 151.9965
932.50 151.6329
932.60 151.2692
932.70 150.9056
932.80 150.5419
932.90 150.1783
933.00 149.8146
933.10 149.451
933.20 149.0873
933.30 148.7237
933.40 148.3601
933.50 147.9964
933.60 147.6328
933.70 147.2691
933.80 146.9055
933.90 146.5418
934.00 146.1782
934.10 145.8145
934.20 145.4509
934.30 145.0872
934.40 144.7236
934.50 144.3599
934.60 143.9963
934.70 143.6326
934.80 143.269
934.90 142.9053
935.00 142.5417
935.10 142.178
935.20 141.8144
935.30 141.4507
935.40 141.0871
935.50 140.7234
935.60 140.3598
935.70 139.9961
935.80 139.6325
935.90 139.793
936.00 139.9869
936.10 140.1808
936.20 140.3747
936.30 140.5687
936.40 140.7626
936.50 140.9565
936.60 141.1504
936.70 141.3444
936.80 141.5383
936.90 141.7322
937.00 141.9261
937.10 142.1201
937.20 142.314
937.30 142.5079
937.40 142.7019
937.50 142.8958
937.60 143.0897
937.70 143.2836
937.80 143.4776
937.90 143.6715
938.00 143.8654
938.10 144.0593
938.20 144.2533
938.30 144.4472
938.40 144.6411
938.50 144.8351
938.60 145.029
938.70 145.2229
938.80 145.4168
938.90 145.6108
939.00 145.8047
939.10 145.9986
939.20 146.1925
939.30 146.3865
939.40 146.5792
939.50 146.7109
939.60 146.8427
939.70 146.9745
939.80 147.1062
939.90 147.238
940.00 147.3698
940.10 147.5016
940.20 147.6333
940.30 147.7651
940.40 147.8969
940.50 148.0287
940.60 148.1604
940.70 148.2922
940.80 148.424
940.90 148.5557
941.00 148.6875
941.10 148.8193
941.20 148.9511
941.30 149.0828
941.40 149.2146
941.50 149.3464
941.60 149.4782
941.70 149.6099
941.80 149.7417
941.90 149.8735
942.00 150.0053
942.10 150.137
942.20 150.2688
942.30 150.4006
942.40 150.5323
942.50 150.6641
942.60 150.7959
942.70 150.9277
942.80 151.0594
942.90 151.1912
943.00 151.323
943.10 151.7547
943.20 152.2089
943.30 152.6632
943.40 153.1174
943.50 153.5717
943.60 154.0259
943.70 154.4802
943.80 154.9344
943.90 155.3887
944.00 155.8429
944.10 156.2972
944.20 156.7514
944.30 157.2057
944.40 157.6599
944.50 158.1142
944.60 158.5684
944.70 159.0227
944.80 159.4769
944.90 159.9312
945.00 160.3854
945.10 160.8397
945.20 161.2939
945.30 161.7482
945.40 162.2024
945.50 162.6567
945.60 163.1109
945.70 163.5652
945.80 164.0194
945.90 164.4737
946.00 164.9279
946.10 165.3822
946.20 165.8365
946.30 166.2907
946.40 166.745
946.50 167.1992
946.60 167.6535
946.70 167.9087
946.80 168.0658
946.90 168.223
947.00 168.3802
947.10 168.5373
947.20 168.6945
947.30 168.8517
947.40 169.0089
947.50 169.166
947.60 169.3232
947.70 169.4804
947.80 169.6375
947.90 169.7947
948.00 169.9519
948.10 170.109
948.20 170.2662
948.30 170.4234
948.40 170.5806
948.50 170.7377
948.60 170.8949
948.70 171.0521
948.80 171.2092
948.90 171.3664
949.00 171.5236
949.10 171.6807
949.20 171.8379
949.30 171.9951
949.40 172.1523
949.50 172.3094
949.60 172.4666
949.70 172.6238
949.80 172.7809
949.90 172.9381
950.00 173.0953
950.10 173.2524
950.20 173.4096
950.30 173.4917
950.40 173.3486
950.50 173.2055
950.60 173.0624
950.70 172.9193
950.80 172.7761
950.90 172.633
951.00 172.4899
951.10 172.3468
951.20 172.2037
951.30 172.0606
951.40 171.9174
951.50 171.7743
951.60 171.6312
951.70 171.4881
951.80 171.345
951.90 171.2019
952.00 171.0588
952.10 170.9156
952.20 170.7725
952.30 170.6294
952.40 170.4863
952.50 170.3432
952.60 170.2001
952.70 170.0569
952.80 169.9138
952.90 169.7707
953.00 169.6276
953.10 169.4845
953.20 169.3414
953.30 169.1982
953.40 169.0551
953.50 168.912
953.60 168.7689
953.70 168.6258
953.80 168.4827
953.90 168.3396
954.00 168.4963
954.10 168.8075
954.20 169.1187
954.30 169.4299
954.40 169.7411
954.50 170.0523
954.60 170.3635
954.70 170.6747
954.80 170.9859
954.90 171.2971
955.00 171.6083
955.10 171.9195
955.20 172.2307
955.30 172.5418
955.40 172.853
955.50 173.1642
955.60 173.4754
955.70 173.7866
955.80 174.0978
955.90 174.409
956.00 174.7202
956.10 175.0314
956.20 175.3426
956.30 175.6538
956.40 175.965
956.50 176.2762
956.60 176.5874
956.70 176.8986
956.80 177.2098
956.90 177.521
957.00 177.8322
957.10 178.1434
957.20 178.4546
957.30 178.7658
957.40 179.077
957.50 179.3882
957.60 179.6994
957.70 179.4708
957.80 179.1954
957.90 178.9199
958.00 178.6444
958.10 178.369
958.20 178.0935
958.30 177.818
958.40 177.5425
958.50 177.2671
958.60 176.9916
958.70 176.7161
958.80 176.4407
958.90 176.1652
959.00 175.8897
959.10 175.6142
959.20 175.3388
959.30 175.0633
959.40 174.7878
959.50 174.5124
959.60 174.2369
959.70 173.9614
959.80 173.6859
959.90 173.4105
960.00 173.135
960.10 172.8595
960.20 172.5841
960.30 172.3086
960.40 172.0331
960.50 171.7576
960.60 171.4822
960.70 171.2067
960.80 170.9312
960.90 170.6557
961.00 170.3803
961.10 170.1048
961.20 169.8293
961.30 169.5638
961.40 169.7873
961.50 170.0107
961.60 170.2341
961.70 170.4576
961.80 170.681
961.90 170.9044
962.00 171.1279
962.10 171.3513
962.20 171.5747
962.30 171.7982
962.40 172.0216
962.50 172.245
962.60 172.4685
962.70 172.6919
962.80 172.9153
962.90 173.1388
963.00 173.3622
963.10 173.5856
963.20 173.809
963.30 174.0325
963.40 174.2559
963.50 174.4793
963.60 174.7028
963.70 174.9262
963.80 175.1496
963.90 175.3731
964.00 175.5965
964.10 175.8199
964.20 176.0434
964.30 176.2668
964.40 176.4902
964.50 176.7137
964.60 176.9371
964.70 177.1605
964.80 177.384
964.90 177.6074
965.00 177.8308
965.10 177.843
965.20 177.8464
965.30 177.8498
965.40 177.8533
965.50 177.8567
965.60 177.8601
965.70 177.8635
965.80 177.8669
965.90 177.8703
966.00 177.8737
966.10 177.8771
966.20 177.8805
966.30 177.8839
966.40 177.8873
966.50 177.8907
966.60 177.8942
966.70 177.8976
966.80 177.901
966.90 177.9044
967.00 177.9078
967.10 177.9112
967.20 177.9146
967.30 177.918
967.40 177.9214
967.50 177.9248
967.60 177.9282
967.70 177.9316
967.80 177.935
967.90 177.9385
968.00 177.9419
968.10 177.9453
968.20 177.9487
968.30 177.9521
968.40 177.9555
968.50 177.9589
968.60 177.9623
968.70 177.9657
968.80 177.918
968.90 177.8524
969.00 177.7868
969.10 177.7211
969.20 177.6555
969.30 177.5899
969.40 177.5242
969.50 177.4586
969.60 177.3929
969.70 177.3273
969.80 177.2617
969.90 177.196
970.00 177.1304
970.10 177.0648
970.20 176.9991
970.30 176.9335
970.40 176.8678
970.50 176.8022
970.60 176.7366
970.70 176.6709
970.80 176.6053
970.90 176.5397
971.00 176.474
971.10 176.4084
971.20 176.3428
971.30 176.2771
971.40 176.2115
971.50 176.1458
971.60 176.0802
971.70 176.0146
971.80 175.9489
971.90 175.8833
972.00 175.8177
972.10 175.752
972.20 175.6864
972.30 175.6208
972.40 175.5551
972.50 175.6263
972.60 175.9305
972.70 176.2347
972.80 176.5389
972.90 176.8431
973.00 177.1473
973.10 177.4515
973.20 177.7557
973.30 178.0599
973.40 178.3641
973.50 178.6683
973.60 178.9725
973.70 179.2767
973.80 179.5809
973.90 179.8851
974.00 180.1893
974.10 180.4935
974.20 180.7977
974.30 181.1019
974.40 181.4061
974.50 181.7103
974.60 182.0145
974.70 182.3187
974.80 182.6229
974.90 182.9271
975.00 183.2313
975.10 183.5355
975.20 183.8397
975.30 184.1439
975.40 184.4481
975.50 184.7523
975.60 185.0565
975.70 185.3607
975.80 185.6649
975.90 185.9691
976.00 186.2733
976.10 186.5775
976.20 186.8817
976.30 186.7809
976.40 186.6088
976.50 186.4366
976.60 186.2644
976.70 186.0923
976.80 185.9201
976.90 185.7479
977.00 185.5758
977.10 185.4036
977.20 185.2315
977.30 185.0593
977.40 184.8871
977.50 184.715
977.60 184.5428
977.70 184.3706
977.80 184.1985
977.90 184.0263
978.00 183.8541
978.10 183.682
978.20 183.5098
978.30 183.3376
978.40 183.1655
978.50 182.9933
978.60 182.8211
978.70 182.649
978.80 182.4768
978.90 182.3046
979.00 182.1325
979.10 181.9603
979.20 181.7881
979.30 181.616
979.40 181.4438
979.50 181.2716
979.60 181.0995
979.70 180.9273
979.80 180.7551
979.90 180.583
980.00 180.491
980.10 180.7647
980.20 181.0383
980.30 181.3119
980.40 181.5855
980.50 181.8591
980.60 182.1328
980.70 182.4064
980.80 182.68
980.90 182.9536
981.00 183.2272
981.10 183.5009
981.20 183.7745
981.30 184.0481
981.40 184.3217
981.50 184.5953
981.60 184.869
981.70 185.1426
981.80 185.4162
981.90 185.6898
982.00 185.9634
982.10 186.237
982.20 186.5107
982.30 186.7843
982.40 187.0579
982.50 187.3315
982.60 187.6051
982.70 187.8788
982.80 188.1524
982.90 188.426
983.00 188.6996
983.10 188.9732
983.20 189.2469
983.30 189.5205
983.40 189.7941
983.50 190.0677
983.60 190.3413
983.70 190.615
983.80 190.6918
983.90 190.4189
984.00 190.146
984.10 189.8731
984.20 189.6002
984.30 189.3273
984.40 189.0544
984.50 188.7815
984.60 188.5086
984.70 188.2357
984.80 187.9628
984.90 187.6899
985.00 187.417
985.10 187.1441
985.20 186.8712
985.30 186.5983
985.40 186.3254
985.50 186.0525
985.60 185.7796
985.70 185.5067
985.80 185.2338
985.90 184.9609
986.00 184.688
986.10 184.4151
986.20 184.1422
986.30 183.8693
986.40 183.5964
986.50 183.3235
986.60 183.0506
986.70 182.7777
986.80 182.5048
986.90 182.2319
987.00 181.959
987.10 181.6861
987.20 181.4132
987.30 181.1403
987.40 180.8674
987.50 180.5945
987.60 180.4353
987.70 180.4467
987.80 180.4581
987.90 180.4695
988.00 180.4808
988.10 180.4922
988.20 180.5036
988.30 180.515
988.40 180.5264
988.50 180.5378
988.60 180.5491
988.70 180.5605
988.80 180.5719
988.90 180.5833
989.00 180.5947
989.10 180.606
989.20 180.6174
989.30 180.6288
989.40 180.6402
989.50 180.6516
989.60 180.663
989.70 180.6743
989.80 180.6857
989.90 180.6971
990.00 180.7085
990.10 180.7199
990.20 180.7312
990.30 180.7426
990.40 180.754
990.50 180.7654
990.60 180.7768
990.70 180.7882
990.80 180.7995
990.90 180.8109
991.00 180.8223
991.10 180.8337
991.20 180.8451
991.30 180.8564
991.40 180.8386
991.50 180.7491
991.60 180.6596
991.70 180.5701
991.80 180.4806
991.90 180.3911
992.00 180.3016
992.10 180.2122
992.20 180.1227
992.30 180.0332
992.40 179.9437
992.50 179.8542
992.60 179.7647
992.70 179.6752
992.80 179.5858
992.90 179.4963
993.00 179.4068
993.10 179.3173
993.20 179.2278
993.30 179.1383
993.40 179.0488
993.50 178.9593
993.60 178.8699
993.70 178.7804
993.80 178.6909
993.90 178.6014
994.00 178.5119
994.10 178.4224
994.20 178.3329
994.30 178.2434
994.40 178.154
994.50 178.0645
994.60 177.975
994.70 177.8855
994.80 177.796
994.90 177.7065
995.00 177.617
995.10 177.5275
995.20 177.4252
995.30 176.9068
995.40 176.3884
995.50 175.87
995.60 175.3516
995.70 174.8332
995.80 174.3148
995.90 173.7964
996.00 173.278
996.10 172.7595
996.20 172.2411
996.30 171.7227
996.40 171.2043
996.50 170.6859
996.60 170.1675
996.70 169.6491
996.80 169.1307
996.90 168.6123
997.00 168.0939
997.10 167.5755
997.20 167.0571
997.30 166.5387
997.40 166.0203
997.50 165.5019
997.60 164.9835
997.70 164.4651
997.80 163.9467
997.90 163.4283
998.00 162.9099
998.10 162.3915
998.20 161.873
998.30 161.3546
998.40 160.8362
998.50 160.3178
998.60 159.7994
998.70 159.281
998.80 158.7626
998.90 158.2442
999.00 157.7258
999.10 157.4879
999.20 157.4078
999.30 157.3276
999.40 157.2475
999.50 157.1674
999.60 157.0872
999.70 157.0071
999.80 156.9269
999.90 156.8468
1000.00 156.7667
1000.10 156.6865
1000.20 156.6064
1000.30 156.5263
1000.40 156.4461
1000.50 156.366
1000.60 156.2859
1000.70 156.2057
1000.80 156.1256
1000.90 156.0454
1001.00 155.9653
1001.10 155.8852
1001.20 155.805
1001.30 155.7249
1001.40 155.6448
1001.50 155.5646
1001.60 155.4845
1001.70 155.4043
1001.80 155.3242
1001.90 155.2441
1002.00 155.1639
1002.10 155.0838
1002.20 155.0037
1002.30 154.9235
1002.40 154.8434
1002.50 154.7633
1002.60 154.6831
1002.70 154.603
1002.80 154.5228
1002.90 154.4675
1003.00 154.6349
1003.10 154.8024
1003.20 154.9699
1003.30 155.1373
1003.40 155.3048
1003.50 155.4723
1003.60 155.6398
1003.70 155.8072
1003.80 155.9747
1003.90 156.1422
1004.00 156.3096
1004.10 156.4771
1004.20 156.6446
1004.30 156.812
1004.40 156.9795
1004.50 157.147
1004.60 157.3145
1004.70 157.4819
1004.80 157.6494
1004.90 157.8169
1005.00 157.9843
1005.10 158.1518
1005.20 158.3193
1005.30 158.4867
1005.40 158.6542
1005.50 158.8217
1005.60 158.9892
1005.70 159.1566
1005.80 159.3241
1005.90 159.4916
1006.00 159.659
1006.10 159.8265
1006.20 159.994
1006.30 160.1614
1006.40 160.3289
1006.50 160.4964
1006.60 160.6639
1006.70 160.8313
1006.80 161.0626
1006.90 161.3895
1007.00 161.7164
1007.10 162.0434
1007.20 162.3703
1007.30 162.6972
1007.40 163.0242
1007.50 163.3511
1007.60 163.6781
1007.70 164.005
1007.80 164.3319
1007.90 164.6589
1008.00 164.9858
1008.10 165.3127
1008.20 165.6397
1008.30 165.9666
1008.40 166.2935
1008.50 166.6205
1008.60 166.9474
1008.70 167.2743
1008.80 167.6013
1008.90 167.9282
1009.00 168.2551
1009.10 168.5821
1009.20 168.909
1009.30 169.2359
1009.40 169.5629
1009.50 169.8898
1009.60 170.2167
1009.70 170.5437
1009.80 170.8706
1009.90 171.1975
1010.00 171.5245
1010.10 171.8514
1010.20 172.1783
1010.30 172.5053
1010.40 172.8322
1010.50 173.1591
1010.60 173.4861
1010.70 173.5741
1010.80 173.503
1010.90 173.4318
1011.00 173.3607
1011.10 173.2895
1011.20 173.2184
1011.30 173.1472
1011.40 173.0761
1011.50 173.0049
1011.60 172.9338
1011.70 172.8626
1011.80 172.7915
1011.90 172.7203
1012.00 172.6492
1012.10 172.578
1012.20 172.5069
1012.30 172.4357
1012.40 172.3646
1012.50 172.2934
1012.60 172.2223
1012.70 172.1511
1012.80 172.08
1012.90 172.0088
1013.00 171.9377
1013.10 171.8665
1013.20 171.7954
1013.30 171.7242
1013.40 171.6531
1013.50 171.5819
1013.60 171.5108
1013.70 171.4396
1013.80 171.3685
1013.90 171.2973
1014.00 171.2262
1014.10 171.155
1014.20 171.0839
1014.30 171.0127
1014.40 170.9416
1014.50 170.8704
1014.60 171.0777
1014.70 171.4042
1014.80 171.7307
1014.90 172.0573
1015.00 172.3838
1015.10 172.7103
1015.20 173.0369
1015.30 173.3634
1015.40 173.6899
1015.50 174.0165
1015.60 174.343
1015.70 174.6695
1015.80 174.9961
1015.90 175.3226
1016.00 175.6491
1016.10 175.9757
1016.20 176.3022
1016.30 176.6287
1016.40 176.9553
1016.50 177.2818
1016.60 177.6083
1016.70 177.9349
1016.80 178.2614
1016.90 178.5879
1017.00 178.9145
1017.10 179.241
1017.20 179.5675
1017.30 179.8941
1017.40 180.2206
1017.50 180.5471
1017.60 180.8737
1017.70 181.2002
1017.80 181.5267
1017.90 181.8533
1018.00 182.1798
1018.10 182.5063
1018.20 182.8329
1018.30 183.1594
1018.40 183.486
1018.50 183.639
1018.60 183.6764
1018.70 183.7138
1018.80 183.7512
1018.90 183.7886
1019.00 183.826
1019.10 183.8634
1019.20 183.9008
1019.30 183.9382
1019.40 183.9756
1019.50 184.013
1019.60 184.0504
1019.70 184.0878
1019.80 184.1252
1019.90 184.1626
1020.00 184.2
1020.10 184.2374
1020.20 184.2748
1020.30 184.3122
1020.40 184.3496
1020.50 184.387
1020.60 184.4244
1020.70 184.4618
1020.80 184.4992
1020.90 184.5366
1021.00 184.574
1021.10 184.6114
1021.20 184.6488
1021.30 184.6862
1021.40 184.7236
1021.50 184.761
1021.60 184.7984
1021.70 184.8358
1021.80 184.8732
1021.90 184.9106
1022.00 184.948
1022.10 184.9854
1022.20 185.0228
1022.30 185.0602
1022.40 185.0263
1022.50 184.9211
1022.60 184.8159
1022.70 184.7107
1022.80 184.6055
1022.90 184.5003
1023.00 184.3951
1023.10 184.2898
1023.20 184.1846
1023.30 184.0794
1023.40 183.9742
1023.50 183.869
1023.60 183.7638
1023.70 183.6586
1023.80 183.5534
1023.90 183.4482
1024.00 183.343
1024.10 183.2378
1024.20 183.1326
1024.30 183.0274
1024.40 182.9222
1024.50 182.8169
1024.60 182.7117
1024.70 182.6065
1024.80 182.5013
1024.90 182.3961
1025.00 182.2909
1025.10 182.1857
1025.20 182.0805
1025.30 181.9753
1025.40 181.8701
1025.50 181.7649
1025.60 181.6597
1025.70 181.5545
1025.80 181.4493
1025.90 181.344
1026.00 181.2388
1026.10 181.1336
1026.20 181.0284
1026.30 180.9448
1026.40 181.0556
1026.50 181.1665
1026.60 181.2773
1026.70 181.3881
1026.80 181.499
1026.90 181.6098
1027.00 181.7206
1027.10 181.8314
1027.20 181.9423
1027.30 182.0531
1027.40 182.1639
1027.50 182.2747
1027.60 182.3856
1027.70 182.4964
1027.80 182.6072
1027.90 182.7181
1028.00 182.8289
1028.10 182.9397
1028.20 183.0505
1028.30 183.1614
1028.40 183.2722
1028.50 183.383
1028.60 183.4938
1028.70 183.6047
1028.80 183.7155
1028.90 183.8263
1029.00 183.9372
1029.10 184.048
1029.20 184.1588
1029.30 184.2696
1029.40 184.3805
1029.50 184.4913
1029.60 184.6021
1029.70 184.7129
1029.80 184.8238
1029.90 184.9346
1030.00 185.0454
1030.10 185.1563
1030.20 185.2671
1030.30 185.3393
1030.40 185.395
1030.50 185.4507
1030.60 185.5063
1030.70 185.562
1030.80 185.6177
1030.90 185.6734
1031.00 185.7291
1031.10 185.7847
1031.20 185.8404
1031.30 185.8961
1031.40 185.9518
1031.50 186.0075
1031.60 186.0631
1031.70 186.1188
1031.80 186.1745
1031.90 186.2302
1032.00 186.2859
1032.10 186.3416
1032.20 186.3972
1032.30 186.4529
1032.40 186.5086
1032.50 186.5643
1032.60 186.62
1032.70 186.6756
1032.80 186.7313
1032.90 186.787
1033.00 186.8427
1033.10 186.8984
1033.20 186.954
1033.30 187.0097
1033.40 187.0654
1033.50 187.1211
1033.60 187.1768
1033.70 187.2324
1033.80 187.2881
1033.90 187.3438
1034.00 187.3995
1034.10 187.4552
1034.20 187.5406
1034.30 187.894
1034.40 188.2474
1034.50 188.6008
1034.60 188.9543
1034.70 189.3077
1034.80 189.6611
1034.90 190.0145
1035.00 190.3679
1035.10 190.7213
1035.20 191.0747
1035.30 191.4281
1035.40 191.7816
1035.50 192.135
1035.60 192.4884
1035.70 192.8418
1035.80 193.1952
1035.90 193.5486
1036.00 193.902
1036.10 194.2554
1036.20 194.6088
1036.30 194.9623
1036.40 195.3157
1036.50 195.6691
1036.60 196.0225
1036.70 196.3759
1036.80 196.7293
1036.90 197.0827
1037.00 197.4361
1037.10 197.7896
1037.20 198.143
1037.30 198.4964
1037.40 198.8498
1037.50 199.2032
1037.60 199.5566
1037.70 199.91
1037.80 200.2634
1037.90 200.6168
1038.00 200.9703
1038.10 201.3237
1038.20 201.5067
1038.30 201.4343
1038.40 201.3618
1038.50 201.2893
1038.60 201.2168
1038.70 201.1444
1038.80 201.0719
1038.90 200.9994
1039.00 200.9269
1039.10 200.8545
1039.20 200.782
1039.30 200.7095
1039.40 200.6371
1039.50 200.5646
1039.60 200.4921
1039.70 200.4196
1039.80 200.3472
1039.90 200.2747
1040.00 200.2022
1040.10 200.1297
1040.20 200.0573
1040.30 199.9848
1040.40 199.9123
1040.50 199.8399
1040.60 199.7674
1040.70 199.6949
1040.80 199.6224
1040.90 199.55
1041.00 199.4775
1041.10 199.405
1041.20 199.3326
1041.30 199.2601
1041.40 199.1876
1041.50 199.1151
1041.60 199.0427
1041.70 198.9702
1041.80 198.8977
1041.90 198.8252
1042.00 198.7528
1042.10 198.6803
1042.20 198.8384
1042.30 199.1502
1042.40 199.4621
1042.50 199.7739
1042.60 200.0857
1042.70 200.3975
1042.80 200.7094
1042.90 201.0212
1043.00 201.333
1043.10 201.6448
1043.20 201.9567
1043.30 202.2685
1043.40 202.5803
1043.50 202.8921
1043.60 203.204
1043.70 203.5158
1043.80 203.8276
1043.90 204.1394
1044.00 204.4513
1044.10 204.7631
1044.20 205.0749
1044.30 205.3867
1044.40 205.6986
1044.50 206.0104
1044.60 206.3222
1044.70 206.634
1044.80 206.9459
1044.90 207.2577
1045.00 207.5695
1045.10 207.8813
1045.20 208.1932
1045.30 208.505
1045.40 208.8168
1045.50 209.1286
1045.60 209.4405
1045.70 209.7523
1045.80 210.0641
1045.90 210.3759
1046.00 210.6878
1046.10 210.9996
1046.20 211.0476
1046.30 210.9826
1046.40 210.9175
1046.50 210.8525
1046.60 210.7875
1046.70 210.7225
1046.80 210.6574
1046.90 210.5924
1047.00 210.5274
1047.10 210.4623
1047.20 210.3973
1047.30 210.3323
1047.40 210.2672
1047.50 210.2022
1047.60 210.1372
1047.70 210.0722
1047.80 210.0071
1047.90 209.9421
1048.00 209.8771
1048.10 209.812
1048.20 209.747
1048.30 209.682
1048.40 209.6169
1048.50 209.5519
1048.60 209.4869
1048.70 209.4219
1048.80 209.3568
1048.90 209.2918
1049.00 209.2268
1049.10 209.1617
1049.20 209.0967
1049.30 209.0317
1049.40 208.9666
1049.50 208.9016
1049.60 208.8366
1049.70 208.7716
1049.80 208.7065
1049.90 208.6415
1050.00 208.5765
1050.10 208.5114
1050.20 208.521
1050.30 208.5627
1050.40 208.6043
1050.50 208.6459
1050.60 208.6875
1050.70 208.7291
1050.80 208.7707
1050.90 208.8123
1051.00 208.8539
1051.10 208.8955
1051.20 208.9371
1051.30 208.9787
1051.40 209.0203
1051.50 209.0619
1051.60 209.1035
1051.70 209.1451
1051.80 209.1867
1051.90 209.2283
1052.00 209.2699
1052.10 209.3115
1052.20 209.3531
1052.30 209.3947
1052.40 209.4363
1052.50 209.4779
1052.60 209.5195
1052.70 209.5611
1052.80 209.6027
1052.90 209.6443
1053.00 209.6859
1053.10 209.7275
1053.20 209.7692
1053.30 209.8108
1053.40 209.8524
1053.50 209.894
1053.60 209.9356
1053.70 209.9772
1053.80 210.0188
1053.90 210.0604
1054.00 210.102
1054.10 210.1436
1054.20 210.2149
1054.30 210.3158
1054.40 210.4168
1054.50 210.5178
1054.60 210.6187
1054.70 210.7197
1054.80 210.8207
1054.90 210.9216
1055.00 211.0226
1055.10 211.1236
1055.20 211.2245
1055.30 211.3255
1055.40 211.4265
1055.50 211.5274
1055.60 211.6284
1055.70 211.7294
1055.80 211.8303
1055.90 211.9313
1056.00 212.0323
1056.10 212.1332
1056.20 212.2342
1056.30 212.3352
1056.40 212.4361
1056.50 212.5371
1056.60 212.6381
1056.70 212.739
1056.80 212.84
1056.90 212.941
1057.00 213.0419
1057.10 213.1429
1057.20 213.2439
1057.30 213.3448
1057.40 213.4458
1057.50 213.5468
1057.60 213.6477
1057.70 213.7487
1057.80 213.8497
1057.90 213.9506
1058.00 214.0516
1058.10 214.1526
1058.20 214.2514
1058.30 214.3455
1058.40 214.4395
1058.50 214.5335
1058.60 214.6275
1058.70 214.7216
1058.80 214.8156
1058.90 214.9096
1059.00 215.0036
1059.10 215.0976
1059.20 215.1917
1059.30 215.2857
1059.40 215.3797
1059.50 215.4737
1059.60 215.5678
1059.70 215.6618
1059.80 215.7558
1059.90 215.8498
1060.00 215.9439
1060.10 216.0379
1060.20 216.1319
1060.30 216.2259
1060.40 216.3199
1060.50 216.414
1060.60 216.508
1060.70 216.602
1060.80 216.696
1060.90 216.7901
1061.00 216.8841
1061.10 216.9781
1061.20 217.0721
1061.30 217.1662
1061.40 217.2602
1061.50 217.3542
1061.60 217.4482
1061.70 217.5422
1061.80 217.6363
1061.90 217.7303
1062.00 217.8243
1062.10 217.9183
1062.20 218.0124
1062.30 218.1306
1062.40 218.2515
1062.50 218.3724
1062.60 218.4933
1062.70 218.6142
1062.80 218.7351
1062.90 218.856
1063.00 218.9768
1063.10 219.0977
1063.20 219.2186
1063.30 219.3395
1063.40 219.4604
1063.50 219.5813
1063.60 219.7022
1063.70 219.8231
1063.80 219.944
1063.90 220.0649
1064.00 220.1858
1064.10 220.3067
1064.20 220.4276
1064.30 220.5485
1064.40 220.6694
1064.50 220.7903
1064.60 220.9112
1064.70 221.0321
1064.80 221.153
1064.90 221.2739
1065.00 221.3948
1065.10 221.5157
1065.20 221.6366
1065.30 221.7575
1065.40 221.8784
1065.50 221.9993
1065.60 222.1202
1065.70 222.2411
1065.80 222.362
1065.90 222.4829
1066.00 222.6037
1066.10 222.7246
1066.20 222.8455
1066.30 222.9738
1066.40 223.1131
1066.50 223.2524
1066.60 223.3917
1066.70 223.531
1066.80 223.6703
1066.90 223.8096
1067.00 223.9489
1067.10 224.0882
1067.20 224.2275
1067.30 224.3668
1067.40 224.5061
1067.50 224.6454
1067.60 224.7847
1067.70 224.924
1067.80 225.0633
1067.90 225.2026
1068.00 225.3419
1068.10 225.4812
1068.20 225.6205
1068.30 225.7598
1068.40 225.8991
1068.50 226.0384
1068.60 226.1777
1068.70 226.317
1068.80 226.4563
1068.90 226.5956
1069.00 226.7349
1069.10 226.8742
1069.20 227.0135
1069.30 227.1528
1069.40 227.2921
1069.50 227.4314
1069.60 227.5707
1069.70 227.71
1069.80 227.8493
1069.90 227.9886
1070.00 228.1279
1070.10 228.2672
1070.20 228.4065
1070.30 228.5458
1070.40 228.6683
1070.50 228.7889
1070.60 228.9095
1070.70 229.0301
1070.80 229.1507
1070.90 229.2713
1071.00 229.3919
1071.10 229.5125
1071.20 229.633
1071.30 229.7536
1071.40 229.8742
1071.50 229.9948
1071.60 230.1154
1071.70 230.236
1071.80 230.3566
1071.90 230.4772
1072.00 230.5978
1072.10 230.7184
1072.20 230.839
1072.30 230.9596
1072.40 231.0802
1072.50 231.2008
1072.60 231.3214
1072.70 231.442
1072.80 231.5626
1072.90 231.6831
1073.00 231.8037
1073.10 231.9243
1073.20 232.0449
1073.30 232.1655
1073.40 232.2861
1073.50 232.4067
1073.60 232.5273
1073.70 232.6479
1073.80 232.7685
1073.90 232.8891
1074.00 233.0097
1074.10 233.1303
1074.20 233.2509
1074.30 233.3715
1074.40 233.4942
1074.50 233.6255
1074.60 233.7568
1074.70 233.8881
1074.80 234.0195
1074.90 234.1508
1075.00 234.2821
1075.10 234.4134
1075.20 234.5447
1075.30 234.676
1075.40 234.8074
1075.50 234.9387
1075.60 235.07
1075.70 235.2013
1075.80 235.3326
1075.90 235.4639
1076.00 235.5952
1076.10 235.7266
1076.20 235.8579
1076.30 235.9892
1076.40 236.1205
1076.50 236.2518
1076.60 236.3831
1076.70 236.5144
1076.80 236.6458
1076.90 236.7771
1077.00 236.9084
1077.10 237.0397
1077.20 237.171
1077.30 237.3023
1077.40 237.4337
1077.50 237.565
1077.60 237.6963
1077.70 237.8276
1077.80 237.9589
1077.90 238.0902
1078.00 238.2215
1078.10 238.3529
1078.20 238.4842
1078.30 238.6155
1078.40 238.7468
1078.50 238.8216
1078.60 238.8118
1078.70 238.8019
1078.80 238.7921
1078.90 238.7822
1079.00 238.7724
1079.10 238.7625
1079.20 238.7526
1079.30 238.7428
1079.40 238.7329
1079.50 238.7231
1079.60 238.7132
1079.70 238.7034
1079.80 238.6935
1079.90 238.6836
1080.00 238.6738
1080.10 238.6639
1080.20 238.6541
1080.30 238.6442
1080.40 238.6344
1080.50 238.6245
1080.60 238.6147
1080.70 238.6048
1080.80 238.5949
1080.90 238.5851
1081.00 238.5752
1081.10 238.5654
1081.20 238.5555
1081.30 238.5457
1081.40 238.5358
1081.50 238.5259
1081.60 238.5161
1081.70 238.5062
1081.80 238.4964
1081.90 238.4865
1082.00 238.4767
1082.10 238.4668
1082.20 238.4569
1082.30 238.4471
1082.40 238.4372
1082.50 238.4274
1082.60 238.5756
1082.70 238.8818
1082.80 239.188
1082.90 239.4943
1083.00 239.8005
1083.10 240.1067
1083.20 240.413
1083.30 240.7192
1083.40 241.0255
1083.50 241.3317
1083.60 241.6379
1083.70 241.9442
1083.80 242.2504
1083.90 242.5566
1084.00 242.8629
1084.10 243.1691
1084.20 243.4753
1084.30 243.7816
1084.40 244.0878
1084.50 244.3941
1084.60 244.7003
1084.70 245.0065
1084.80 245.3128
1084.90 245.619
1085.00 245.9252
1085.10 246.2315
1085.20 246.5377
1085.30 246.844
1085.40 247.1502
1085.50 247.4564
1085.60 247.7627
1085.70 248.0689
1085.80 248.3751
1085.90 248.6814
1086.00 248.9876
1086.10 249.2939
1086.20 249.6001
1086.30 249.9063
1086.40 250.2126
1086.50 250.5188
1086.60 250.825
1086.70 251.0275
1086.80 251.1607
1086.90 251.2939
1087.00 251.4271
1087.10 251.5603
1087.20 251.6935
1087.30 251.8267
1087.40 251.96
1087.50 252.0932
1087.60 252.2264
1087.70 252.3596
1087.80 252.4928
1087.90 252.626
1088.00 252.7593
1088.10 252.8925
1088.20 253.0257
1088.30 253.1589
1088.40 253.2921
1088.50 253.4253
1088.60 253.5585
1088.70 253.6918
1088.80 253.825
1088.90 253.9582
1089.00 254.0914
1089.10 254.2246
1089.20 254.3578
1089.30 254.491
1089.40 254.6243
1089.50 254.7575
1089.60 254.8907
1089.70 255.0239
1089.80 255.1571
1089.90 255.2903
1090.00 255.4235
1090.10 255.5568
1090.20 255.69
1090.30 255.8232
1090.40 255.9564
1090.50 256.0896
1090.60 256.2228
1090.70 256.3561
1090.80 256.3992
1090.90 256.3523
1091.00 256.3053
1091.10 256.2584
1091.20 256.2115
1091.30 256.1645
1091.40 256.1176
1091.50 256.0707
1091.60 256.0237
1091.70 255.9768
1091.80 255.9299
1091.90 255.8829
1092.00 255.836
1092.10 255.7891
1092.20 255.7421
1092.30 255.6952
1092.40 255.6483
1092.50 255.6013
1092.60 255.5544
1092.70 255.5075
1092.80 255.4606
1092.90 255.4136
1093.00 255.3667
1093.10 255.3198
1093.20 255.2728
1093.30 255.2259
1093.40 255.179
1093.50 255.132
1093.60 255.0851
1093.70 255.0382
1093.80 254.9912
1093.90 254.9443
1094.00 254.8974
1094.10 254.8504
1094.20 254.8035
1094.30 254.7566
1094.40 254.7096
1094.50 254.6627
1094.60 254.6158
1094.70 254.5688
1094.80 254.5219
1094.90 254.5897
1095.00 254.8295
1095.10 255.0693
1095.20 255.3091
1095.30 255.5489
1095.40 255.7887
1095.50 256.0285
1095.60 256.2683
1095.70 256.5081
1095.80 256.7479
1095.90 256.9877
1096.00 257.2275
1096.10 257.4673
1096.20 257.7071
1096.30 257.9469
1096.40 258.1867
1096.50 258.4265
1096.60 258.6663
1096.70 258.9061
1096.80 259.1459
1096.90 259.3857
1097.00 259.6255
1097.10 259.8653
1097.20 260.1051
1097.30 260.3449
1097.40 260.5847
1097.50 260.8245
1097.60 261.0643
1097.70 261.3041
1097.80 261.5439
1097.90 261.7837
1098.00 262.0235
1098.10 262.2633
1098.20 262.5031
1098.30 262.7429
1098.40 262.9827
1098.50 263.2225
1098.60 263.4623
1098.70 263.7021
1098.80 263.9419
1098.90 264.1817
1099.00 264.3822
1099.10 264.229
1099.20 264.0758
1099.30 263.9226
1099.40 263.7694
1099.50 263.6162
1099.60 263.463
1099.70 263.3098
1099.80 263.1566
1099.90 263.0034
1100.00 262.8502
1100.10 262.697
1100.20 262.5438
1100.30 262.3906
1100.40 262.2374
1100.50 262.0842
1100.60 261.931
1100.70 261.7778
1100.80 261.6246
1100.90 261.4714
1101.00 261.3182
1101.10 261.165
1101.20 261.0118
1101.30 260.8586
1101.40 260.7054
1101.50 260.5522
1101.60 260.399
1101.70 260.2458
1101.80 260.0926
1101.90 259.9394
1102.00 259.7862
1102.10 259.633
1102.20 259.4798
1102.30 259.3265
1102.40 259.1733
1102.50 259.0201
1102.60 258.8669
1102.70 258.7137
1102.80 258.5605
1102.90 258.4073
1103.00 258.2541
1103.10 258.1009
1103.20 257.9434
1103.30 257.7847
1103.40 257.6261
1103.50 257.4675
1103.60 257.3088
1103.70 257.1502
1103.80 256.9916
1103.90 256.8329
1104.00 256.6743
1104.10 256.5156
1104.20 256.357
1104.30 256.1984
1104.40 256.0397
1104.50 255.8811
1104.60 255.7224
1104.70 255.5638
1104.80 255.4052
1104.90 255.2465
1105.00 255.0879
1105.10 254.9292
1105.20 254.7706
1105.30 254.612
1105.40 254.4533
1105.50 254.2947
1105.60 254.136
1105.70 253.9774
1105.80 253.8188
1105.90 253.6601
1106.00 253.5015
1106.10 253.3428
1106.20 253.1842
1106.30 253.0256
1106.40 252.8669
1106.50 252.7083
1106.60 252.5496
1106.70 252.391
1106.80 252.2324
1106.90 252.0737
1107.00 251.9151
1107.10 251.7565
1107.20 251.5978
1107.30 251.4652
1107.40 251.3718
1107.50 251.2783
1107.60 251.1848
1107.70 251.0914
1107.80 250.9979
1107.90 250.9044
1108.00 250.8109
1108.10 250.7175
1108.20 250.624
1108.30 250.5305
1108.40 250.4371
1108.50 250.3436
1108.60 250.2501
1108.70 250.1566
1108.80 250.0632
1108.90 249.9697
1109.00 249.8762
1109.10 249.7828
1109.20 249.6893
1109.30 249.5958
1109.40 249.5023
1109.50 249.4089
1109.60 249.3154
1109.70 249.2219
1109.80 249.1285
1109.90 249.035
1110.00 248.9415
1110.10 248.848
1110.20 248.7546
1110.30 248.6611
1110.40 248.5676
1110.50 248.4742
1110.60 248.3807
1110.70 248.2872
1110.80 248.1937
1110.90 248.1003
1111.00 248.0068
1111.10 247.9133
1111.20 247.8199
1111.30 247.7264
1111.40 247.6329
1111.50 247.4439
1111.60 247.2442
1111.70 247.0446
1111.80 246.845
1111.90 246.6453
1112.00 246.4457
1112.10 246.246
1112.20 246.0464
1112.30 245.8467
1112.40 245.6471
1112.50 245.4475
1112.60 245.2478
1112.70 245.0482
1112.80 244.8485
1112.90 244.6489
1113.00 244.4492
1113.10 244.2496
1113.20 244.0499
1113.30 243.8503
1113.40 243.6507
1113.50 243.451
1113.60 243.2514
1113.70 243.0517
1113.80 242.8521
1113.90 242.6524
1114.00 242.4528
1114.10 242.2531
1114.20 242.0535
1114.30 241.8539
1114.40 241.6542
1114.50 241.4546
1114.60 241.2549
1114.70 241.0553
1114.80 240.8556
1114.90 240.656
1115.00 240.4563
1115.10 240.2567
1115.20 240.0571
1115.30 239.8574
1115.40 239.6578
1115.50 239.4581
1115.60 239.4017
1115.70 239.6796
1115.80 239.9575
1115.90 240.2353
1116.00 240.5132
1116.10 240.7911
1116.20 241.0689
1116.30 241.3468
1116.40 241.6246
1116.50 241.9025
1116.60 242.1804
1116.70 242.4582
1116.80 242.7361
1116.90 243.014
1117.00 243.2918
1117.10 243.5697
1117.20 243.8476
1117.30 244.1254
1117.40 244.4033
1117.50 244.6812
1117.60 244.959
1117.70 245.2369
1117.80 245.5148
1117.90 245.7926
1118.00 246.0705
1118.10 246.3484
1118.20 246.6262
1118.30 246.9041
1118.40 247.1819
1118.50 247.4598
1118.60 247.7377
1118.70 248.0155
1118.80 248.2934
1118.90 248.5713
1119.00 248.8491
1119.10 249.127
1119.20 249.4049
1119.30 249.6827
1119.40 249.9606
1119.50 250.2385
1119.60 250.5163
1119.70 250.7942
1119.80 250.9197
1119.90 250.9436
1120.00 250.9675
1120.10 250.9914
1120.20 251.0152
1120.30 251.0391
1120.40 251.063
1120.50 251.0869
1120.60 251.1108
1120.70 251.1347
1120.80 251.1586
1120.90 251.1825
1121.00 251.2064
1121.10 251.2303
1121.20 251.2542
1121.30 251.2781
1121.40 251.302
1121.50 251.3258
1121.60 251.3497
1121.70 251.3736
1121.80 251.3975
1121.90 251.4214
1122.00 251.4453
1122.10 251.4692
1122.20 251.4931
1122.30 251.517
1122.40 251.5409
1122.50 251.5648
1122.60 251.5887
1122.70 251.6126
1122.80 251.6364
1122.90 251.6603
1123.00 251.6842
1123.10 251.7081
1123.20 251.732
1123.30 251.7559
1123.40 251.7798
1123.50 251.8037
1123.60 251.8276
1123.70 251.8515
1123.80 251.8754
1123.90 251.8993
1124.00 251.8038
1124.10 251.6952
1124.20 251.5865
1124.30 251.4778
1124.40 251.3691
1124.50 251.2605
1124.60 251.1518
1124.70 251.0431
1124.80 250.9345
1124.90 250.8258
1125.00 250.7171
1125.10 250.6084
1125.20 250.4998
1125.30 250.3911
1125.40 250.2824
1125.50 250.1737
1125.60 250.0651
1125.70 249.9564
1125.80 249.8477
1125.90 249.7391
1126.00 249.6304
1126.10 249.5217
1126.20 249.413
1126.30 249.3044
1126.40 249.1957
1126.50 249.087
1126.60 248.9783
1126.70 248.8697
1126.80 248.761
1126.90 248.6523
1127.00 248.5437
1127.10 248.435
1127.20 248.3263
1127.30 248.2176
1127.40 248.109
1127.50 248.0003
1127.60 247.8916
1127.70 247.7829
1127.80 247.6743
1127.90 247.5656
1128.00 247.4569
1128.10 247.3508
1128.20 247.2672
1128.30 247.1837
1128.40 247.1001
1128.50 247.0165
1128.60 246.933
1128.70 246.8494
1128.80 246.7659
1128.90 246.6823
1129.00 246.5988
1129.10 246.5152
1129.20 246.4317
1129.30 246.3481
1129.40 246.2645
1129.50 246.181
1129.60 246.0974
1129.70 246.0139
1129.80 245.9303
1129.90 245.8468
1130.00 245.7632
1130.10 245.6797
1130.20 245.5961
1130.30 245.5125
1130.40 245.429
1130.50 245.3454
1130.60 245.2619
1130.70 245.1783
1130.80 245.0948
1130.90 245.0112
1131.00 244.9276
1131.10 244.8441
1131.20 244.7605
1131.30 244.677
1131.40 244.5934
1131.50 244.5099
1131.60 244.4263
1131.70 244.3428
1131.80 244.2592
1131.90 244.1756
1132.00 244.0921
1132.10 244.0085
1132.20 243.925
1132.30 243.9323
1132.40 244.303
1132.50 244.6737
1132.60 245.0444
1132.70 245.4152
1132.80 245.7859
1132.90 246.1566
1133.00 246.5273
1133.10 246.8981
1133.20 247.2688
1133.30 247.6395
1133.40 248.0102
1133.50 248.381
1133.60 248.7517
1133.70 249.1224
1133.80 249.4931
1133.90 249.8639
1134.00 250.2346
1134.10 250.6053
1134.20 250.976
1134.30 251.3467
1134.40 251.7175
1134.50 252.0882
1134.60 252.4589
1134.70 252.8296
1134.80 253.2004
1134.90 253.5711
1135.00 253.9418
1135.10 254.3125
1135.20 254.6833
1135.30 255.054
1135.40 255.4247
1135.50 255.7954
1135.60 256.1662
1135.70 256.5369
1135.80 256.9076
1135.90 257.2783
1136.00 257.649
1136.10 258.0198
1136.20 258.3905
1136.30 258.7612
1136.40 259.1319
1136.50 259.3003
1136.60 258.9966
1136.70 258.6928
1136.80 258.3891
1136.90 258.0853
1137.00 257.7816
1137.10 257.4778
1137.20 257.1741
1137.30 256.8703
1137.40 256.5666
1137.50 256.2628
1137.60 255.9591
1137.70 255.6553
1137.80 255.3516
1137.90 255.0478
1138.00 254.744
1138.10 254.4403
1138.20 254.1365
1138.30 253.8328
1138.40 253.529
1138.50 253.2253
1138.60 252.9215
1138.70 252.6178
1138.80 252.314
1138.90 252.0103
1139.00 251.7065
1139.10 251.4028
1139.20 251.099
1139.30 250.7953
1139.40 250.4915
1139.50 250.1878
1139.60 249.884
1139.70 249.5803
1139.80 249.2765
1139.90 248.9728
1140.00 248.669
1140.10 248.3653
1140.20 248.0615
1140.30 247.7578
1140.40 247.454
1140.50 247.1503
1140.60 246.8465
1140.70 246.5951
1140.80 246.4657
1140.90 246.3363
1141.00 246.2069
1141.10 246.0775
1141.20 245.9481
1141.30 245.8187
1141.40 245.6893
1141.50 245.56
1141.60 245.4306
1141.70 245.3012
1141.80 245.1718
1141.90 245.0424
1142.00 244.913
1142.10 244.7836
1142.20 244.6542
1142.30 244.5248
1142.40 244.3955
1142.50 244.2661
1142.60 244.1367
1142.70 244.0073
1142.80 243.8779
1142.90 243.7485
1143.00 243.6191
1143.10 243.4897
1143.20 243.3603
1143.30 243.231
1143.40 243.1016
1143.50 242.9722
1143.60 242.8428
1143.70 242.7134
1143.80 242.584
1143.90 242.4546
1144.00 242.3252
1144.10 242.1958
1144.20 242.0665
1144.30 241.9371
1144.40 241.8077
1144.50 241.6783
1144.60 241.5489
1144.70 241.4195
1144.80 241.2901
1144.90 241.247
1145.00 241.5488
1145.10 241.8507
1145.20 242.1525
1145.30 242.4543
1145.40 242.7562
1145.50 243.058
1145.60 243.3599
1145.70 243.6617
1145.80 243.9636
1145.90 244.2654
1146.00 244.5672
1146.10 244.8691
1146.20 245.1709
1146.30 245.4728
1146.40 245.7746
1146.50 246.0764
1146.60 246.3783
1146.70 246.6801
1146.80 246.982
1146.90 247.2838
1147.00 247.5856
1147.10 247.8875
1147.20 248.1893
1147.30 248.4912
1147.40 248.793
1147.50 249.0949
1147.60 249.3967
1147.70 249.6985
1147.80 250.0004
1147.90 250.3022
1148.00 250.6041
1148.10 250.9059
1148.20 251.2077
1148.30 251.5096
1148.40 251.8114
1148.50 252.1133
1148.60 252.4151
1148.70 252.7169
1148.80 253.0188
1148.90 253.3206
1149.00 253.6225
1149.10 253.9243
1149.20 254.2113
1149.30 254.4982
1149.40 254.7851
1149.50 255.0721
1149.60 255.359
1149.70 255.646
1149.80 255.9329
1149.90 256.2199
1150.00 256.5068
1150.10 256.7937
1150.20 257.0807
1150.30 257.3676
1150.40 257.6546
1150.50 257.9415
1150.60 258.2285
1150.70 258.5154
1150.80 258.8023
1150.90 259.0893
1151.00 259.3762
1151.10 259.6632
1151.20 259.9501
1151.30 260.2371
1151.40 260.524
1151.50 260.8109
1151.60 261.0979
1151.70 261.3848
1151.80 261.6718
1151.90 261.9587
1152.00 262.2457
1152.10 262.5326
1152.20 262.8195
1152.30 263.1065
1152.40 263.3934
1152.50 263.6804
1152.60 263.9673
1152.70 264.2542
1152.80 264.5412
1152.90 264.8281
1153.00 265.1151
1153.10 265.402
1153.20 265.689
1153.30 265.9759
1153.40 266.0458
1153.50 266.0614
1153.60 266.0769
1153.70 266.0925
1153.80 266.1081
1153.90 266.1237
1154.00 266.1393
1154.10 266.1549
1154.20 266.1705
1154.30 266.1861
1154.40 266.2017
1154.50 266.2173
1154.60 266.2329
1154.70 266.2485
1154.80 266.264
1154.90 266.2796
1155.00 266.2952
1155.10 266.3108
1155.20 266.3264
1155.30 266.342
1155.40 266.3576
1155.50 266.3732
1155.60 266.3888
1155.70 266.4044
1155.80 266.42
1155.90 266.4355
1156.00 266.4511
1156.10 266.4667
1156.20 266.4823
1156.30 266.4979
1156.40 266.5135
1156.50 266.5291
1156.60 266.5447
1156.70 266.5603
1156.80 266.5759
1156.90 266.5915
1157.00 266.6071
1157.10 266.6226
1157.20 266.6382
1157.30 266.6538
1157.40 266.6694
1157.50 266.685
1157.60 266.7771
1157.70 266.9201
1157.80 267.0631
1157.90 267.2061
1158.00 267.3492
1158.10 267.4922
1158.20 267.6352
1158.30 267.7783
1158.40 267.9213
1158.50 268.0643
1158.60 268.2074
1158.70 268.3504
1158.80 268.4934
1158.90 268.6364
1159.00 268.7795
1159.10 268.9225
1159.20 269.0655
1159.30 269.2086
1159.40 269.3516
1159.50 269.4946
1159.60 269.6376
1159.70 269.7807
1159.80 269.9237
1159.90 270.0667
1160.00 270.2098
1160.10 270.3528
1160.20 270.4958
1160.30 270.6388
1160.40 270.7819
1160.50 270.9249
1160.60 271.0679
1160.70 271.211
1160.80 271.354
1160.90 271.497
1161.00 271.64
1161.10 271.7831
1161.20 271.9261
1161.30 272.0691
1161.40 272.2122
1161.50 272.3552
1161.60 272.4982
1161.70 272.6412
1161.80 272.7667
1161.90 272.8221
1162.00 272.8775
1162.10 272.9329
1162.20 272.9883
1162.30 273.0436
1162.40 273.099
1162.50 273.1544
1162.60 273.2098
1162.70 273.2652
1162.80 273.3205
1162.90 273.3759
1163.00 273.4313
1163.10 273.4867
1163.20 273.542
1163.30 273.5974
1163.40 273.6528
1163.50 273.7082
1163.60 273.7636
1163.70 273.8189
1163.80 273.8743
1163.90 273.9297
1164.00 273.9851
1164.10 274.0405
1164.20 274.0958
1164.30 274.1512
1164.40 274.2066
1164.50 274.262
1164.60 274.3174
1164.70 274.3727
1164.80 274.4281
1164.90 274.4835
1165.00 274.5389
1165.10 274.5943
1165.20 274.6496
1165.30 274.705
1165.40 274.7604
1165.50 274.8158
1165.60 274.8712
1165.70 274.9265
1165.80 274.9819
1165.90 275.0373
1166.00 275.0927
1166.10 274.8118
1166.20 274.4936
1166.30 274.1754
1166.40 273.8572
1166.50 273.539
1166.60 273.2207
1166.70 272.9025
1166.80 272.5843
1166.90 272.2661
1167.00 271.9479
1167.10 271.6297
1167.20 271.3114
1167.30 270.9932
1167.40 270.675
1167.50 270.3568
1167.60 270.0386
1167.70 269.7204
1167.80 269.4022
1167.90 269.0839
1168.00 268.7657
1168.10 268.4475
1168.20 268.1293
1168.30 267.8111
1168.40 267.4929
1168.50 267.1746
1168.60 266.8564
1168.70 266.5382
1168.80 266.22
1168.90 265.9018
1169.00 265.5836
1169.10 265.2653
1169.20 264.9471
1169.30 264.6289
1169.40 264.3107
1169.50 263.9925
1169.60 263.6743
1169.70 263.3561
1169.80 263.0378
1169.90 262.7196
1170.00 262.4014
1170.10 262.0832
1170.20 261.765
1170.30 261.484
1170.40 261.259
1170.50 261.0339
1170.60 260.8088
1170.70 260.5837
1170.80 260.3587
1170.90 260.1336
1171.00 259.9085
1171.10 259.6835
1171.20 259.4584
1171.30 259.2333
1171.40 259.0083
1171.50 258.7832
1171.60 258.5581
1171.70 258.3331
1171.80 258.108
1171.90 257.8829
1172.00 257.6579
1172.10 257.4328
1172.20 257.2077
1172.30 256.9827
1172.40 256.7576
1172.50 256.5325
1172.60 256.3074
1172.70 256.0824
1172.80 255.8573
1172.90 255.6322
1173.00 255.4072
1173.10 255.1821
1173.20 254.957
1173.30 254.732
1173.40 254.5069
1173.50 254.2818
1173.60 254.0568
1173.70 253.8317
1173.80 253.6066
1173.90 253.3816
1174.00 253.1565
1174.10 252.9314
1174.20 252.7064
1174.30 252.4813
1174.40 252.2562
1174.50 252.0311
1174.60 251.9585
1174.70 251.9027
1174.80 251.847
1174.90 251.7912
1175.00 251.7355
1175.10 251.6798
1175.20 251.624
1175.30 251.5683
1175.40 251.5125
1175.50 251.4568
1175.60 251.4011
1175.70 251.3453
1175.80 251.2896
1175.90 251.2338
1176.00 251.1781
1176.10 251.1223
1176.20 251.0666
1176.30 251.0109
1176.40 250.9551
1176.50 250.8994
1176.60 250.8436
1176.70 250.7879
1176.80 250.7322
1176.90 250.6764
1177.00 250.6207
1177.10 250.5649
1177.20 250.5092
1177.30 250.4535
1177.40 250.3977
1177.50 250.342
1177.60 250.2862
1177.70 250.2305
1177.80 250.1747
1177.90 250.119
1178.00 250.0633
1178.10 250.0075
1178.20 249.9518
1178.30 249.896
1178.40 249.8403
1178.50 249.7846
1178.60 249.7288
1178.70 249.6731
1178.80 249.7048
1178.90 249.8677
1179.00 250.0306
1179.10 250.1934
1179.20 250.3563
1179.30 250.5192
1179.40 250.6821
1179.50 250.845
1179.60 251.0079
1179.70 251.1708
1179.80 251.3337
1179.90 251.4966
1180.00 251.6595
1180.10 251.8223
1180.20 251.9852
1180.30 252.1481
1180.40 252.311
1180.50 252.4739
1180.60 252.6368
1180.70 252.7997
1180.80 252.9626
1180.90 253.1255
1181.00 253.2884
1181.10 253.4512
1181.20 253.6141
1181.30 253.777
1181.40 253.9399
1181.50 254.1028
1181.60 254.2657
1181.70 254.4286
1181.80 254.5915
1181.90 254.7544
1182.00 254.9173
1182.10 255.0801
1182.20 255.243
1182.30 255.4059
1182.40 255.5688
1182.50 255.7317
1182.60 255.8946
1182.70 256.0575
1182.80 256.2204
1182.90 256.3833
1183.00 256.5462
1183.10 256.4997
1183.20 256.4009
1183.30 256.3021
1183.40 256.2032
1183.50 256.1044
1183.60 256.0056
1183.70 255.9068
1183.80 255.808
1183.90 255.7092
1184.00 255.6104
1184.10 255.5116
1184.20 255.4128
1184.30 255.3139
1184.40 255.2151
1184.50 255.1163
1184.60 255.0175
1184.70 254.9187
1184.80 254.8199
1184.90 254.7211
1185.00 254.6223
1185.10 254.5234
1185.20 254.4246
1185.30 254.3258
1185.40 254.227
1185.50 254.1282
1185.60 254.0294
1185.70 253.9306
1185.80 253.8318
1185.90 253.7329
1186.00 253.6341
1186.10 253.5353
1186.20 253.4365
1186.30 253.3377
1186.40 253.2389
1186.50 253.1401
1186.60 253.0413
1186.70 252.9424
1186.80 252.8436
1186.90 252.7448
1187.00 252.646
1187.10 252.5472
1187.20 252.4484
1187.30 252.4334
1187.40 252.7537
1187.50 253.0739
1187.60 253.3942
1187.70 253.7145
1187.80 254.0348
1187.90 254.355
1188.00 254.6753
1188.10 254.9956
1188.20 255.3159
1188.30 255.6362
1188.40 255.9564
1188.50 256.2767
1188.60 256.597
1188.70 256.9173
1188.80 257.2375
1188.90 257.5578
1189.00 257.8781
1189.10 258.1984
1189.20 258.5186
1189.30 258.8389
1189.40 259.1592
1189.50 259.4795
1189.60 259.7998
1189.70 260.12
1189.80 260.4403
1189.90 260.7606
1190.00 261.0809
1190.10 261.4011
1190.20 261.7214
1190.30 262.0417
1190.40 262.362
1190.50 262.6822
1190.60 263.0025
1190.70 263.3228
1190.80 263.6431
1190.90 263.9634
1191.00 264.2836
1191.10 264.6039
1191.20 264.9242
1191.30 265.2445
1191.40 265.5647
1191.50 265.885
1191.60 266.0523
1191.70 266.0665
1191.80 266.0807
1191.90 266.0949
1192.00 266.1091
1192.10 266.1233
1192.20 266.1375
1192.30 266.1517
1192.40 266.1659
1192.50 266.1801
1192.60 266.1943
1192.70 266.2085
1192.80 266.2227
1192.90 266.2369
1193.00 266.2511
1193.10 266.2653
1193.20 266.2795
1193.30 266.2937
1193.40 266.3079
1193.50 266.3221
1193.60 266.3363
1193.70 266.3505
1193.80 266.3647
1193.90 266.3789
1194.00 266.3931
1194.10 266.4073
1194.20 266.4215
1194.30 266.4357
1194.40 266.4499
1194.50 266.4641
1194.60 266.4783
1194.70 266.4925
1194.80 266.5067
1194.90 266.5209
1195.00 266.5351
1195.10 266.5493
1195.20 266.5635
1195.30 266.5777
1195.40 266.5919
1195.50 266.6061
1195.60 266.6203
1195.70 266.6345
1195.80 266.6487
1195.90 266.65
1196.00 266.6482
1196.10 266.6463
1196.20 266.6444
1196.30 266.6425
1196.40 266.6406
1196.50 266.6387
1196.60 266.6369
1196.70 266.635
1196.80 266.6331
1196.90 266.6312
1197.00 266.6293
1197.10 266.6275
1197.20 266.6256
1197.30 266.6237
1197.40 266.6218
1197.50 266.6199
1197.60 266.618
1197.70 266.6162
1197.80 266.6143
1197.90 266.6124
1198.00 266.6105
1198.10 266.6086
1198.20 266.6068
1198.30 266.6049
1198.40 266.603
1198.50 266.6011
1198.60 266.5992
1198.70 266.5974
1198.80 266.5955
1198.90 266.5936
1199.00 266.5917
1199.10 266.5898
1199.20 266.5879
1199.30 266.5861
1199.40 266.5842
1199.50 266.5823
1199.60 266.5804
1199.70 266.5785
1199.80 266.5767
1199.90 266.5748
1200.00 266.5729
1200.10 266.571
1200.20 266.356
1200.30 266.1409
1200.40 265.9259
1200.50 265.7109
1200.60 265.4958
1200.70 265.2808
1200.80 265.0658
1200.90 264.8507
1201.00 264.6357
1201.10 264.4206
1201.20 264.2056
1201.30 263.9906
1201.40 263.7755
1201.50 263.5605
1201.60 263.3454
1201.70 263.1304
1201.80 262.9154
1201.90 262.7003
1202.00 262.4853
1202.10 262.2703
1202.20 262.0552
1202.30 261.8402
1202.40 261.6251
1202.50 261.4101
1202.60 261.1951
1202.70 260.98
1202.80 260.765
1202.90 260.55
1203.00 260.3349
1203.10 260.1199
1203.20 259.9048
1203.30 259.6898
1203.40 259.4748
1203.50 259.2597
1203.60 259.0447
1203.70 258.8297
1203.80 258.6146
1203.90 258.3996
1204.00 258.1845
1204.10 257.9695
1204.20 257.7545
1204.30 257.5394
1204.40 257.3971
1204.50 257.5457
1204.60 257.6943
1204.70 257.8428
1204.80 257.9914
1204.90 258.14
1205.00 258.2886
1205.10 258.4371
1205.20 258.5857
1205.30 258.7343
1205.40 258.8828
1205.50 259.0314
1205.60 259.18
1205.70 259.3286
1205.80 259.4771
1205.90 259.6257
1206.00 259.7743
1206.10 259.9229
1206.20 260.0714
1206.30 260.22
1206.40 260.3686
1206.50 260.5171
1206.60 260.6657
1206.70 260.8143
1206.80 260.9629
1206.90 261.1114
1207.00 261.26
1207.10 261.4086
1207.20 261.5572
1207.30 261.7057
1207.40 261.8543
1207.50 262.0029
1207.60 262.1514
1207.70 262.3
1207.80 262.4486
1207.90 262.5972
1208.00 262.7457
1208.10 262.8943
1208.20 263.0429
1208.30 263.1915
1208.40 263.34
1208.50 263.4886
1208.60 263.6372
1208.70 263.8776
1208.80 264.2556
1208.90 264.6337
1209.00 265.0118
1209.10 265.3898
1209.20 265.7679
1209.30 266.146
1209.40 266.5241
1209.50 266.9021
1209.60 267.2802
1209.70 267.6583
1209.80 268.0364
1209.90 268.4144
1210.00 268.7925
1210.10 269.1706
1210.20 269.5487
1210.30 269.9267
1210.40 270.3048
1210.50 270.6829
1210.60 271.061
1210.70 271.439
1210.80 271.8171
1210.90 272.1952
1211.00 272.5733
1211.10 272.9513
1211.20 273.3294
1211.30 273.7075
1211.40 274.0856
1211.50 274.4636
1211.60 274.8417
1211.70 275.2198
1211.80 275.5979
1211.90 275.9759
1212.00 276.354
1212.10 276.7321
1212.20 277.1102
1212.30 277.4882
1212.40 277.8663
1212.50 278.2444
1212.60 278.6225
1212.70 279.0005
1212.80 279.3786
1212.90 279.7567
1213.00 279.9725
1213.10 280.0261
1213.20 280.0797
1213.30 280.1333
1213.40 280.1868
1213.50 280.2404
1213.60 280.294
1213.70 280.3476
1213.80 280.4012
1213.90 280.4548
1214.00 280.5083
1214.10 280.5619
1214.20 280.6155
1214.30 280.6691
1214.40 280.7227
1214.50 280.7762
1214.60 280.8298
1214.70 280.8834
1214.80 280.937
1214.90 280.9906
1215.00 281.0442
1215.10 281.0977
1215.20 281.1513
1215.30 281.2049
1215.40 281.2585
1215.50 281.3121
1215.60 281.3657
1215.70 281.4192
1215.80 281.4728
1215.90 281.5264
1216.00 281.58
1216.10 281.6336
1216.20 281.6872
1216.30 281.7407
1216.40 281.7943
1216.50 281.8479
1216.60 281.9015
1216.70 281.9551
1216.80 282.0086
1216.90 282.0622
1217.00 282.1158
1217.10 282.1694
1217.20 282.223
1217.30 282.2893
1217.40 282.3642
1217.50 282.4391
1217.60 282.514
1217.70 282.5888
1217.80 282.6637
1217.90 282.7386
1218.00 282.8134
1218.10 282.8883
1218.20 282.9632
1218.30 283.0381
1218.40 283.1129
1218.50 283.1878
1218.60 283.2627
1218.70 283.3375
1218.80 283.4124
1218.90 283.4873
1219.00 283.5622
1219.10 283.637
1219.20 283.7119
1219.30 283.7868
1219.40 283.8616
1219.50 283.9365
1219.60 284.0114
1219.70 284.0863
1219.80 284.1611
1219.90 284.236
1220.00 284.3109
1220.10 284.3857
1220.20 284.4606
1220.30 284.5355
1220.40 284.6104
1220.50 284.6852
1220.60 284.7601
1220.70 284.835
1220.80 284.9098
1220.90 284.9847
1221.00 285.0596
1221.10 285.1345
1221.20 285.2093
1221.30 285.2842
1221.40 285.3591
1221.50 285.434
1221.60 285.5996
1221.70 285.804
1221.80 286.0085
1221.90 286.213
1222.00 286.4175
1222.10 286.622
1222.20 286.8264
1222.30 287.0309
1222.40 287.2354
1222.50 287.4399
1222.60 287.6444
1222.70 287.8489
1222.80 288.0533
1222.90 288.2578
1223.00 288.4623
1223.10 288.6668
1223.20 288.8713
1223.30 289.0758
1223.40 289.2802
1223.50 289.4847
1223.60 289.6892
1223.70 289.8937
1223.80 290.0982
1223.90 290.3026
1224.00 290.5071
1224.10 290.7116
1224.20 290.9161
1224.30 291.1206
1224.40 291.3251
1224.50 291.5295
1224.60 291.734
1224.70 291.9385
1224.80 292.143
1224.90 292.3475
1225.00 292.552
1225.10 292.7564
1225.20 292.9609
1225.30 293.1654
1225.40 293.3699
1225.50 293.5744
1225.60 293.7788
1225.70 293.9833
1225.80 294.1878
1225.90 294.2144
1226.00 294.1647
1226.10 294.1149
1226.20 294.0652
1226.30 294.0155
1226.40 293.9658
1226.50 293.9161
1226.60 293.8664
1226.70 293.8167
1226.80 293.767
1226.90 293.7173
1227.00 293.6676
1227.10 293.6179
1227.20 293.5682
1227.30 293.5185
1227.40 293.4688
1227.50 293.4191
1227.60 293.3693
1227.70 293.3196
1227.80 293.2699
1227.90 293.2202
1228.00 293.1705
1228.10 293.1208
1228.20 293.0711
1228.30 293.0214
1228.40 292.9717
1228.50 292.922
1228.60 292.8723
1228.70 292.8226
1228.80 292.7729
1228.90 292.7232
1229.00 292.6735
1229.10 292.6237
1229.20 292.574
1229.30 292.5243
1229.40 292.4746
1229.50 292.4249
1229.60 292.3752
1229.70 292.3255
1229.80 292.2758
1229.90 292.2261
1230.00 292.1764
1230.10 292.1267
1230.20 292.2833
1230.30 292.4914
1230.40 292.6995
1230.50 292.9077
1230.60 293.1158
1230.70 293.324
1230.80 293.5321
1230.90 293.7402
1231.00 293.9484
1231.10 294.1565
1231.20 294.3647
1231.30 294.5728
1231.40 294.7809
1231.50 294.9891
1231.60 295.1972
1231.70 295.4054
1231.80 295.6135
1231.90 295.8217
1232.00 296.0298
1232.10 296.2379
1232.20 296.4461
1232.30 296.6542
1232.40 296.8624
1232.50 297.0705
1232.60 297.2786
1232.70 297.4868
1232.80 297.6949
1232.90 297.9031
1233.00 298.1112
1233.10 298.3193
1233.20 298.5275
1233.30 298.7356
1233.40 298.9438
1233.50 299.1519
1233.60 299.36
1233.70 299.5682
1233.80 299.7763
1233.90 299.9845
1234.00 300.1926
1234.10 300.4008
1234.20 300.6089
1234.30 300.817
1234.40 301.0252
1234.50 301.1153
1234.60 301.1549
1234.70 301.1945
1234.80 301.234
1234.90 301.2736
1235.00 301.3132
1235.10 301.3528
1235.20 301.3923
1235.30 301.4319
1235.40 301.4715
1235.50 301.5111
1235.60 301.5506
1235.70 301.5902
1235.80 301.6298
1235.90 301.6694
1236.00 301.7089
1236.10 301.7485
1236.20 301.7881
1236.30 301.8277
1236.40 301.8672
1236.50 301.9068
1236.60 301.9464
1236.70 301.986
1236.80 302.0255
1236.90 302.0651
1237.00 302.1047
1237.10 302.1442
1237.20 302.1838
1237.30 302.2234
1237.40 302.263
1237.50 302.3025
1237.60 302.3421
1237.70 302.3817
1237.80 302.4213
1237.90 302.4608
1238.00 302.5004
1238.10 302.54
1238.20 302.5796
1238.30 302.6191
1238.40 302.6587
1238.50 302.6983
1238.60 302.7379
1238.70 302.7774
1238.80 302.6393
1238.90 302.4249
1239.00 302.2106
1239.10 301.9962
1239.20 301.7819
1239.30 301.5675
1239.40 301.3532
1239.50 301.1388
1239.60 300.9245
1239.70 300.7102
1239.80 300.4958
1239.90 300.2815
1240.00 300.0671
1240.10 299.8528
1240.20 299.6384
1240.30 299.4241
1240.40 299.2097
1240.50 298.9954
1240.60 298.781
1240.70 298.5667
1240.80 298.3524
1240.90 298.138
1241.00 297.9237
1241.10 297.7093
1241.20 297.495
1241.30 297.2806
1241.40 297.0663
1241.50 296.8519
1241.60 296.6376
1241.70 296.4232
1241.80 296.2089
1241.90 295.9946
1242.00 295.7802
1242.10 295.5659
1242.20 295.3515
1242.30 295.1372
1242.40 294.9228
1242.50 294.7085
1242.60 294.4941
1242.70 294.2798
1242.80 294.0654
1242.90 293.8511
1243.00 293.6368
1243.10 293.565
1243.20 293.5544
1243.30 293.5438
1243.40 293.5332
1243.50 293.5226
1243.60 293.512
1243.70 293.5014
1243.80 293.4908
1243.90 293.4802
1244.00 293.4696
1244.10 293.459
1244.20 293.4484
1244.30 293.4378
1244.40 293.4272
1244.50 293.4166
1244.60 293.406
1244.70 293.3954
1244.80 293.3848
1244.90 293.3742
1245.00 293.3636
1245.10 293.353
1245.20 293.3424
1245.30 293.3318
1245.40 293.3212
1245.50 293.3106
1245.60 293.3
1245.70 293.2894
1245.80 293.2788
1245.90 293.2682
1246.00 293.2576
1246.10 293.247
1246.20 293.2364
1246.30 293.2258
1246.40 293.2152
1246.50 293.2046
1246.60 293.194
1246.70 293.1834
1246.80 293.1728
1246.90 293.1622
1247.00 293.1516
1247.10 293.141
1247.20 293.1304
1247.30 293.1198
1247.40 293.0319
1247.50 292.8926
1247.60 292.7534
1247.70 292.6141
1247.80 292.4748
1247.90 292.3355
1248.00 292.1962
1248.10 292.0569
1248.20 291.9176
1248.30 291.7783
1248.40 291.639
1248.50 291.4997
1248.60 291.3604
1248.70 291.2211
1248.80 291.0818
1248.90 290.9425
1249.00 290.8032
1249.10 290.6639
1249.20 290.5246
1249.30 290.3853
1249.40 290.246
1249.50 290.1067
1249.60 289.9674
1249.70 289.8281
1249.80 289.6888
1249.90 289.5495
1250.00 289.4102
1250.10 289.2709
1250.20 289.1316
1250.30 288.9923
1250.40 288.853
1250.50 288.7137
1250.60 288.5744
1250.70 288.4351
1250.80 288.2958
1250.90 288.1565
1251.00 288.0172
1251.10 287.8779
1251.20 287.7386
1251.30 287.5993
1251.40 287.46
1251.50 287.3207
1251.60 287.1814
1251.70 287.1668
1251.80 287.2768
1251.90 287.3868
1252.00 287.4968
1252.10 287.6069
1252.20 287.7169
1252.30 287.8269
1252.40 287.9369
1252.50 288.047
1252.60 288.157
1252.70 288.267
1252.80 288.377
1252.90 288.487
1253.00 288.5971
1253.10 288.7071
1253.20 288.8171
1253.30 288.9271
1253.40 289.0371
1253.50 289.1472
1253.60 289.2572
1253.70 289.3672
1253.80 289.4772
1253.90 289.5872
1254.00 289.6973
1254.10 289.8073
1254.20 289.9173
1254.30 290.0273
1254.40 290.1373
1254.50 290.2474
1254.60 290.3574
1254.70 290.4674
1254.80 290.5774
1254.90 290.6874
1255.00 290.7975
1255.10 290.9075
1255.20 291.0175
1255.30 291.1275
1255.40 291.2376
1255.50 291.3476
1255.60 291.4576
1255.70 291.5676
1255.80 291.6776
1255.90 291.7877
1256.00 291.8466
1256.10 291.8288
1256.20 291.8111
1256.30 291.7934
1256.40 291.7756
1256.50 291.7579
1256.60 291.7401
1256.70 291.7224
1256.80 291.7047
1256.90 291.6869
1257.00 291.6692
1257.10 291.6514
1257.20 291.6337
1257.30 291.616
1257.40 291.5982
1257.50 291.5805
1257.60 291.5627
1257.70 291.545
1257.80 291.5273
1257.90 291.5095
1258.00 291.4918
1258.10 291.4741
1258.20 291.4563
1258.30 291.4386
1258.40 291.4208
1258.50 291.4031
1258.60 291.3854
1258.70 291.3676
1258.80 291.3499
1258.90 291.3321
1259.00 291.3144
1259.10 291.2967
1259.20 291.2789
1259.30 291.2612
1259.40 291.2434
1259.50 291.2257
1259.60 291.208
1259.70 291.1902
1259.80 291.1725
1259.90 291.1548
1260.00 291.137
1260.10 291.1193
1260.20 291.1015
1260.30 291.1673
1260.40 291.5669
1260.50 291.9666
1260.60 292.3662
1260.70 292.7659
1260.80 293.1655
1260.90 293.5652
1261.00 293.9648
1261.10 294.3645
1261.20 294.7641
1261.30 295.1637
1261.40 295.5634
1261.50 295.963
1261.60 296.3627
1261.70 296.7623
1261.80 297.162
1261.90 297.5616
1262.00 297.9613
1262.10 298.3609
1262.20 298.7606
1262.30 299.1602
1262.40 299.5599
1262.50 299.9595
1262.60 300.3592
1262.70 300.7588
1262.80 301.1585
1262.90 301.5581
1263.00 301.9577
1263.10 302.3574
1263.20 302.757
1263.30 303.1567
1263.40 303.5563
1263.50 303.956
1263.60 304.3556
1263.70 304.7553
1263.80 305.1549
1263.90 305.5546
1264.00 305.9542
1264.10 306.3539
1264.20 306.7535
1264.30 307.1532
1264.40 307.5528
1264.50 307.9525
1264.60 308.3413
1264.70 308.6324
1264.80 308.9236
1264.90 309.2147
1265.00 309.5059
1265.10 309.797
1265.20 310.0882
1265.30 310.3793
1265.40 310.6705
1265.50 310.9617
1265.60 311.2528
1265.70 311.544
1265.80 311.8351
1265.90 312.1263
1266.00 312.4174
1266.10 312.7086
1266.20 312.9997
1266.30 313.2909
1266.40 313.5821
1266.50 313.8732
1266.60 314.1644
1266.70 314.4555
1266.80 314.7467
1266.90 315.0378
1267.00 315.329
1267.10 315.6201
1267.20 315.9113
1267.30 316.2025
1267.40 316.4936
1267.50 316.7848
1267.60 317.0759
1267.70 317.3671
1267.80 317.6582
1267.90 317.9494
1268.00 318.2405
1268.10 318.5317
1268.20 318.8229
1268.30 319.114
1268.40 319.4052
1268.50 319.6963
1268.60 319.9875
1268.70 320.2786
1268.80 320.5698
1268.90 320.861
1269.00 321.119
1269.10 321.377
1269.20 321.6351
1269.30 321.8931
1269.40 322.1511
1269.50 322.4092
1269.60 322.6672
1269.70 322.9252
1269.80 323.1833
1269.90 323.4413
1270.00 323.6993
1270.10 323.9574
1270.20 324.2154
1270.30 324.4735
1270.40 324.7315
1270.50 324.9895
1270.60 325.2476
1270.70 325.5056
1270.80 325.7636
1270.90 326.0217
1271.00 326.2797
1271.10 326.5377
1271.20 326.7958
1271.30 327.0538
1271.40 327.3118
1271.50 327.5699
1271.60 327.8279
1271.70 328.086
1271.80 328.344
1271.90 328.602
1272.00 328.8601
1272.10 329.1181
1272.20 329.3761
1272.30 329.6342
1272.40 329.8922
1272.50 330.1502
1272.60 330.4083
1272.70 330.6663
1272.80 330.9243
1272.90 331.1824
1273.00 331.4404
1273.10 331.6985
1273.20 331.9565
1273.30 332.1598
1273.40 332.3495
1273.50 332.5392
1273.60 332.7289
1273.70 332.9186
1273.80 333.1083
1273.90 333.298
1274.00 333.4877
1274.10 333.6774
1274.20 333.8671
1274.30 334.0568
1274.40 334.2464
1274.50 334.4361
1274.60 334.6258
1274.70 334.8155
1274.80 335.0052
1274.90 335.1949
1275.00 335.3846
1275.10 335.5743
1275.20 335.764
1275.30 335.9537
1275.40 336.1433
1275.50 336.333
1275.60 336.5227
1275.70 336.7124
1275.80 336.9021
1275.90 337.0918
1276.00 337.2815
1276.10 337.4712
1276.20 337.6609
1276.30 337.8506
1276.40 338.0403
1276.50 338.2299
1276.60 338.4196
1276.70 338.6093
1276.80 338.799
1276.90 338.9887
1277.00 339.1784
1277.10 339.3681
1277.20 339.5578
1277.30 339.7475
1277.40 339.9372
1277.50 340.1268
1277.60 340.2493
1277.70 340.3269
1277.80 340.4045
1277.90 340.4821
1278.00 340.5597
1278.10 340.6373
1278.20 340.7149
1278.30 340.7925
1278.40 340.8702
1278.50 340.9478
1278.60 341.0254
1278.70 341.103
1278.80 341.1806
1278.90 341.2582
1279.00 341.3358
1279.10 341.4134
1279.20 341.491
1279.30 341.5686
1279.40 341.6462
1279.50 341.7238
1279.60 341.8015
1279.70 341.8791
1279.80 341.9567
1279.90 342.0343
1280.00 342.1119
1280.10 342.1895
1280.20 342.2671
1280.30 342.3447
1280.40 342.4223
1280.50 342.4999
1280.60 342.5775
1280.70 342.6551
1280.80 342.7328
1280.90 342.8104
1281.00 342.888
1281.10 342.9656
1281.20 343.0432
1281.30 343.1208
1281.40 343.1984
1281.50 343.276
1281.60 343.3536
1281.70 343.4312
1281.80 343.5088
1281.90 343.4795
1282.00 343.3433
1282.10 343.2071
1282.20 343.0709
1282.30 342.9347
1282.40 342.7984
1282.50 342.6622
1282.60 342.526
1282.70 342.3898
1282.80 342.2536
1282.90 342.1173
1283.00 341.9811
1283.10 341.8449
1283.20 341.7087
1283.30 341.5725
1283.40 341.4363
1283.50 341.3
1283.60 341.1638
1283.70 341.0276
1283.80 340.8914
1283.90 340.7552
1284.00 340.6189
1284.10 340.4827
1284.20 340.3465
1284.30 340.2103
1284.40 340.0741
1284.50 339.9379
1284.60 339.8016
1284.70 339.6654
1284.80 339.5292
1284.90 339.393
1285.00 339.2568
1285.10 339.1205
1285.20 338.9843
1285.30 338.8481
1285.40 338.7119
1285.50 338.5757
1285.60 338.4395
1285.70 338.3032
1285.80 338.167
1285.90 338.0308
1286.00 337.8946
1286.10 337.7584
1286.20 337.7013
1286.30 337.8287
1286.40 337.9562
1286.50 338.0837
1286.60 338.2111
1286.70 338.3386
1286.80 338.4661
1286.90 338.5936
1287.00 338.721
1287.10 338.8485
1287.20 338.976
1287.30 339.1035
1287.40 339.2309
1287.50 339.3584
1287.60 339.4859
1287.70 339.6134
1287.80 339.7408
1287.90 339.8683
1288.00 339.9958
1288.10 340.1232
1288.20 340.2507
1288.30 340.3782
1288.40 340.5057
1288.50 340.6331
1288.60 340.7606
1288.70 340.8881
1288.80 341.0156
1288.90 341.143
1289.00 341.2705
1289.10 341.398
1289.20 341.5255
1289.30 341.6529
1289.40 341.7804
1289.50 341.9079
1289.60 342.0353
1289.70 342.1628
1289.80 342.2903
1289.90 342.4178
1290.00 342.5452
1290.10 342.6727
1290.20 342.8002
1290.30 342.9277
1290.40 343.0551
1290.50 343.1573
1290.60 343.0318
1290.70 342.9063
1290.80 342.7808
1290.90 342.6553
1291.00 342.5298
1291.10 342.4043
1291.20 342.2788
1291.30 342.1533
1291.40 342.0279
1291.50 341.9024
1291.60 341.7769
1291.70 341.6514
1291.80 341.5259
1291.90 341.4004
1292.00 341.2749
1292.10 341.1494
1292.20 341.0239
1292.30 340.8984
1292.40 340.7729
1292.50 340.6474
1292.60 340.5219
1292.70 340.3964
1292.80 340.2709
1292.90 340.1454
1293.00 340.0199
1293.10 339.8945
1293.20 339.769
1293.30 339.6435
1293.40 339.518
1293.50 339.3925
1293.60 339.267
1293.70 339.1415
1293.80 339.016
1293.90 338.8905
1294.00 338.765
1294.10 338.6395
1294.20 338.514
1294.30 338.3885
1294.40 338.263
1294.50 338.1375
1294.60 338.012
1294.70 337.8865
1294.80 337.761
1294.90 337.8099
1295.00 337.878
1295.10 337.9462
1295.20 338.0144
1295.30 338.0825
1295.40 338.1507
1295.50 338.2189
1295.60 338.2871
1295.70 338.3552
1295.80 338.4234
1295.90 338.4916
1296.00 338.5598
1296.10 338.6279
1296.20 338.6961
1296.30 338.7643
1296.40 338.8324
1296.50 338.9006
1296.60 338.9688
1296.70 339.037
1296.80 339.1051
1296.90 339.1733
1297.00 339.2415
1297.10 339.3097
1297.20 339.3778
1297.30 339.446
1297.40 339.5142
1297.50 339.5823
1297.60 339.6505
1297.70 339.7187
1297.80 339.7869
1297.90 339.855
1298.00 339.9232
1298.10 339.9914
1298.20 340.0596
1298.30 340.1277
1298.40 340.1959
1298.50 340.2641
1298.60 340.3323
1298.70 340.4004
1298.80 340.4686
1298.90 340.5368
1299.00 340.6049
1299.10 340.6731
1299.20 340.5479
1299.30 340.3398
1299.40 340.1317
1299.50 339.9237
1299.60 339.7156
1299.70 339.5075
1299.80 339.2994
1299.90 339.0913
