# Version 2.1 - nm, norm@500 to 1, cut digits
# Wavelength(nm)  Flambda(ergs/cm^s/s/nm)
300.00 1.345636e-95
300.10 1.345636e-95
300.20 1.345636e-95
300.30 1.345636e-95
300.40 1.345636e-95
300.50 1.345636e-95
300.60 1.345636e-95
300.70 1.345636e-95
300.80 1.345636e-95
300.90 1.345636e-95
301.00 1.345636e-95
301.10 1.345636e-95
301.20 1.345636e-95
301.30 1.345636e-95
301.40 1.345636e-95
301.50 1.345636e-95
301.60 1.345636e-95
301.70 1.345636e-95
301.80 1.345636e-95
301.90 1.345636e-95
302.00 1.345636e-95
302.10 1.345636e-95
302.20 1.345636e-95
302.30 1.345636e-95
302.40 1.345636e-95
302.50 1.345636e-95
302.60 1.345636e-95
302.70 1.345636e-95
302.80 1.345636e-95
302.90 1.345636e-95
303.00 1.345636e-95
303.10 1.345636e-95
303.20 1.345636e-95
303.30 1.345636e-95
303.40 1.345636e-95
303.50 1.345636e-95
303.60 1.345636e-95
303.70 1.345636e-95
303.80 1.345636e-95
303.90 1.345636e-95
304.00 1.345636e-95
304.10 1.345636e-95
304.20 1.345636e-95
304.30 1.345636e-95
304.40 1.345636e-95
304.50 1.345636e-95
304.60 1.345636e-95
304.70 1.345636e-95
304.80 1.345636e-95
304.90 1.345636e-95
305.00 1.345636e-95
305.10 1.345636e-95
305.20 1.345636e-95
305.30 1.345636e-95
305.40 1.345636e-95
305.50 1.345636e-95
305.60 1.345636e-95
305.70 1.345636e-95
305.80 1.345636e-95
305.90 1.345636e-95
306.00 1.345636e-95
306.10 1.345636e-95
306.20 1.345636e-95
306.30 1.345636e-95
306.40 1.345636e-95
306.50 1.345636e-95
306.60 1.345636e-95
306.70 1.345636e-95
306.80 1.345636e-95
306.90 1.345636e-95
307.00 1.345636e-95
307.10 1.345636e-95
307.20 1.345636e-95
307.30 1.345636e-95
307.40 1.345636e-95
307.50 1.345636e-95
307.60 1.345636e-95
307.70 1.345636e-95
307.80 1.345636e-95
307.90 1.345636e-95
308.00 1.345636e-95
308.10 1.345636e-95
308.20 1.345636e-95
308.30 1.345636e-95
308.40 1.345636e-95
308.50 1.345636e-95
308.60 1.345636e-95
308.70 1.345636e-95
308.80 1.345636e-95
308.90 1.345636e-95
309.00 1.345636e-95
309.10 1.345636e-95
309.20 1.345636e-95
309.30 1.345636e-95
309.40 1.345636e-95
309.50 1.345636e-95
309.60 1.345636e-95
309.70 1.345636e-95
309.80 1.345636e-95
309.90 1.345636e-95
310.00 1.345636e-95
310.10 1.345636e-95
310.20 1.345636e-95
310.30 1.345636e-95
310.40 1.345636e-95
310.50 1.345636e-95
310.60 1.345636e-95
310.70 1.345636e-95
310.80 1.345636e-95
310.90 1.345636e-95
311.00 1.345636e-95
311.10 1.345636e-95
311.20 1.345636e-95
311.30 1.345636e-95
311.40 1.345636e-95
311.50 1.345636e-95
311.60 1.345636e-95
311.70 1.345636e-95
311.80 1.345636e-95
311.90 1.345636e-95
312.00 1.345636e-95
312.10 1.345636e-95
312.20 1.345636e-95
312.30 1.345636e-95
312.40 1.345636e-95
312.50 1.345636e-95
312.60 1.345636e-95
312.70 1.345636e-95
312.80 1.345636e-95
312.90 1.345636e-95
313.00 1.345636e-95
313.10 1.345636e-95
313.20 1.345636e-95
313.30 1.345636e-95
313.40 1.345636e-95
313.50 1.345636e-95
313.60 1.345636e-95
313.70 1.345636e-95
313.80 1.345636e-95
313.90 1.345636e-95
314.00 1.345636e-95
314.10 1.345636e-95
314.20 1.345636e-95
314.30 1.345636e-95
314.40 1.345636e-95
314.50 1.345636e-95
314.60 1.345636e-95
314.70 1.345636e-95
314.80 1.345636e-95
314.90 1.345636e-95
315.00 1.345636e-95
315.10 1.345636e-95
315.20 1.345636e-95
315.30 1.345636e-95
315.40 1.345636e-95
315.50 1.345636e-95
315.60 1.345636e-95
315.70 1.345636e-95
315.80 1.345636e-95
315.90 1.345636e-95
316.00 1.345636e-95
316.10 1.345636e-95
316.20 1.345636e-95
316.30 1.345636e-95
316.40 1.345636e-95
316.50 1.345636e-95
316.60 1.345636e-95
316.70 1.345636e-95
316.80 1.345636e-95
316.90 1.345636e-95
317.00 1.345636e-95
317.10 1.345636e-95
317.20 1.345636e-95
317.30 1.345636e-95
317.40 1.345636e-95
317.50 1.345636e-95
317.60 1.345636e-95
317.70 1.345636e-95
317.80 1.345636e-95
317.90 1.345636e-95
318.00 1.345636e-95
318.10 1.345636e-95
318.20 1.345636e-95
318.30 1.345636e-95
318.40 1.345636e-95
318.50 1.345636e-95
318.60 1.345636e-95
318.70 1.345636e-95
318.80 1.345636e-95
318.90 1.345636e-95
319.00 1.345636e-95
319.10 1.345636e-95
319.20 1.345636e-95
319.30 1.345636e-95
319.40 1.345636e-95
319.50 1.345636e-95
319.60 1.345636e-95
319.70 1.345636e-95
319.80 1.345636e-95
319.90 1.345636e-95
320.00 1.345636e-95
320.10 1.345636e-95
320.20 1.345636e-95
320.30 1.345636e-95
320.40 1.345636e-95
320.50 1.345636e-95
320.60 1.345636e-95
320.70 1.345636e-95
320.80 1.345636e-95
320.90 1.345636e-95
321.00 1.345636e-95
321.10 1.345636e-95
321.20 1.345636e-95
321.30 1.345636e-95
321.40 1.345636e-95
321.50 1.345636e-95
321.60 1.345636e-95
321.70 1.345636e-95
321.80 1.345636e-95
321.90 1.345636e-95
322.00 1.345636e-95
322.10 1.345636e-95
322.20 1.345636e-95
322.30 1.345636e-95
322.40 1.345636e-95
322.50 1.345636e-95
322.60 1.345636e-95
322.70 1.345636e-95
322.80 1.345636e-95
322.90 1.345636e-95
323.00 1.345636e-95
323.10 1.345636e-95
323.20 1.345636e-95
323.30 1.345636e-95
323.40 1.345636e-95
323.50 1.345636e-95
323.60 1.345636e-95
323.70 1.345636e-95
323.80 1.345636e-95
323.90 1.345636e-95
324.00 1.345636e-95
324.10 1.345636e-95
324.20 1.345636e-95
324.30 1.345636e-95
324.40 1.345636e-95
324.50 1.345636e-95
324.60 1.345636e-95
324.70 1.345636e-95
324.80 1.345636e-95
324.90 1.345636e-95
325.00 1.345636e-95
325.10 1.345636e-95
325.20 1.345636e-95
325.30 1.345636e-95
325.40 1.345636e-95
325.50 1.345636e-95
325.60 1.345636e-95
325.70 1.345636e-95
325.80 1.345636e-95
325.90 1.345636e-95
326.00 1.345636e-95
326.10 1.345636e-95
326.20 1.345636e-95
326.30 1.345636e-95
326.40 1.345636e-95
326.50 1.345636e-95
326.60 1.345636e-95
326.70 1.345636e-95
326.80 1.345636e-95
326.90 1.345636e-95
327.00 1.345636e-95
327.10 1.345636e-95
327.20 1.345636e-95
327.30 1.345636e-95
327.40 1.345636e-95
327.50 1.345636e-95
327.60 1.345636e-95
327.70 1.345636e-95
327.80 1.345636e-95
327.90 1.345636e-95
328.00 1.345636e-95
328.10 1.345636e-95
328.20 1.345636e-95
328.30 1.345636e-95
328.40 1.345636e-95
328.50 1.345636e-95
328.60 1.345636e-95
328.70 1.345636e-95
328.80 1.345636e-95
328.90 1.345636e-95
329.00 1.345636e-95
329.10 1.345636e-95
329.20 1.345636e-95
329.30 1.345636e-95
329.40 1.345636e-95
329.50 1.345636e-95
329.60 1.345636e-95
329.70 1.345636e-95
329.80 1.345636e-95
329.90 1.345636e-95
330.00 1.345636e-95
330.10 1.345636e-95
330.20 1.345636e-95
330.30 1.345636e-95
330.40 1.345636e-95
330.50 1.345636e-95
330.60 1.345636e-95
330.70 1.345636e-95
330.80 1.345636e-95
330.90 1.345636e-95
331.00 1.345636e-95
331.10 1.345636e-95
331.20 1.345636e-95
331.30 1.345636e-95
331.40 1.345636e-95
331.50 1.345636e-95
331.60 1.345636e-95
331.70 1.345636e-95
331.80 1.345636e-95
331.90 1.345636e-95
332.00 1.345636e-95
332.10 1.345636e-95
332.20 1.345636e-95
332.30 1.345636e-95
332.40 1.345636e-95
332.50 1.345636e-95
332.60 1.345636e-95
332.70 1.345636e-95
332.80 1.345636e-95
332.90 1.345636e-95
333.00 1.345636e-95
333.10 1.345636e-95
333.20 1.345636e-95
333.30 1.345636e-95
333.40 1.345636e-95
333.50 1.345636e-95
333.60 1.345636e-95
333.70 1.345636e-95
333.80 1.345636e-95
333.90 1.345636e-95
334.00 1.345636e-95
334.10 1.345636e-95
334.20 1.345636e-95
334.30 1.345636e-95
334.40 1.345636e-95
334.50 1.345636e-95
334.60 1.345636e-95
334.70 1.345636e-95
334.80 1.345636e-95
334.90 1.345636e-95
335.00 1.345636e-95
335.10 1.345636e-95
335.20 1.345636e-95
335.30 1.345636e-95
335.40 1.345636e-95
335.50 1.345636e-95
335.60 1.345636e-95
335.70 1.345636e-95
335.80 1.345636e-95
335.90 1.345636e-95
336.00 1.345636e-95
336.10 1.345636e-95
336.20 1.345636e-95
336.30 1.345636e-95
336.40 1.345636e-95
336.50 1.345636e-95
336.60 1.345636e-95
336.70 1.345636e-95
336.80 1.345636e-95
336.90 1.345636e-95
337.00 1.345636e-95
337.10 1.345636e-95
337.20 1.345636e-95
337.30 1.345636e-95
337.40 1.345636e-95
337.50 1.345636e-95
337.60 1.345636e-95
337.70 1.345636e-95
337.80 1.345636e-95
337.90 1.345636e-95
338.00 1.345636e-95
338.10 1.345636e-95
338.20 1.345636e-95
338.30 1.345636e-95
338.40 1.345636e-95
338.50 1.345636e-95
338.60 1.345636e-95
338.70 1.345636e-95
338.80 1.345636e-95
338.90 1.345636e-95
339.00 1.345636e-95
339.10 1.345636e-95
339.20 1.345636e-95
339.30 1.345636e-95
339.40 1.345636e-95
339.50 1.345636e-95
339.60 1.345636e-95
339.70 1.345636e-95
339.80 1.345636e-95
339.90 1.345636e-95
340.00 1.345636e-95
340.10 1.345636e-95
340.20 1.345636e-95
340.30 1.345636e-95
340.40 1.345636e-95
340.50 1.345636e-95
340.60 1.345636e-95
340.70 1.345636e-95
340.80 1.345636e-95
340.90 1.345636e-95
341.00 1.345636e-95
341.10 1.345636e-95
341.20 1.345636e-95
341.30 1.345636e-95
341.40 1.345636e-95
341.50 1.345636e-95
341.60 1.345636e-95
341.70 1.345636e-95
341.80 1.345636e-95
341.90 1.345636e-95
342.00 1.345636e-95
342.10 1.345636e-95
342.20 1.345636e-95
342.30 1.345636e-95
342.40 1.345636e-95
342.50 1.345636e-95
342.60 1.345636e-95
342.70 1.345636e-95
342.80 1.345636e-95
342.90 1.345636e-95
343.00 1.345636e-95
343.10 1.345636e-95
343.20 1.345636e-95
343.30 1.345636e-95
343.40 1.345636e-95
343.50 1.345636e-95
343.60 1.345636e-95
343.70 1.345636e-95
343.80 1.345636e-95
343.90 1.345636e-95
344.00 1.345636e-95
344.10 1.345636e-95
344.20 1.345636e-95
344.30 1.345636e-95
344.40 1.345636e-95
344.50 1.345636e-95
344.60 1.345636e-95
344.70 1.345636e-95
344.80 1.345636e-95
344.90 1.345636e-95
345.00 1.345636e-95
345.10 1.345636e-95
345.20 1.345636e-95
345.30 1.345636e-95
345.40 1.345636e-95
345.50 1.345636e-95
345.60 1.345636e-95
345.70 1.345636e-95
345.80 1.345636e-95
345.90 1.345636e-95
346.00 1.345636e-95
346.10 1.345636e-95
346.20 1.345636e-95
346.30 1.345636e-95
346.40 1.345636e-95
346.50 1.345636e-95
346.60 1.345636e-95
346.70 1.345636e-95
346.80 1.345636e-95
346.90 1.345636e-95
347.00 1.345636e-95
347.10 1.345636e-95
347.20 1.345636e-95
347.30 1.345636e-95
347.40 1.345636e-95
347.50 1.345636e-95
347.60 1.345636e-95
347.70 1.345636e-95
347.80 1.345636e-95
347.90 1.345636e-95
348.00 1.345636e-95
348.10 1.345636e-95
348.20 1.345636e-95
348.30 1.345636e-95
348.40 1.345636e-95
348.50 1.345636e-95
348.60 1.345636e-95
348.70 1.345636e-95
348.80 1.345636e-95
348.90 1.345636e-95
349.00 1.345636e-95
349.10 1.345636e-95
349.20 1.345636e-95
349.30 1.345636e-95
349.40 1.345636e-95
349.50 1.345636e-95
349.60 1.345636e-95
349.70 1.345636e-95
349.80 1.345636e-95
349.90 1.345636e-95
350.00 1.345636e-95
350.10 1.345636e-95
350.20 1.345636e-95
350.30 1.345636e-95
350.40 1.345636e-95
350.50 1.345636e-95
350.60 1.345636e-95
350.70 1.345636e-95
350.80 1.345636e-95
350.90 1.345636e-95
351.00 1.345636e-95
351.10 1.345636e-95
351.20 1.345636e-95
351.30 1.345636e-95
351.40 1.345636e-95
351.50 1.345636e-95
351.60 1.345636e-95
351.70 1.345636e-95
351.80 1.345636e-95
351.90 1.345636e-95
352.00 1.345636e-95
352.10 1.345636e-95
352.20 1.345636e-95
352.30 1.345636e-95
352.40 1.345636e-95
352.50 1.345636e-95
352.60 1.345636e-95
352.70 1.345636e-95
352.80 1.345636e-95
352.90 1.345636e-95
353.00 1.345636e-95
353.10 1.345636e-95
353.20 1.345636e-95
353.30 1.345636e-95
353.40 1.345636e-95
353.50 1.345636e-95
353.60 1.345636e-95
353.70 1.345636e-95
353.80 1.345636e-95
353.90 1.345636e-95
354.00 1.345636e-95
354.10 1.345636e-95
354.20 1.345636e-95
354.30 1.345636e-95
354.40 1.345636e-95
354.50 1.345636e-95
354.60 1.345636e-95
354.70 1.345636e-95
354.80 1.345636e-95
354.90 1.345636e-95
355.00 1.345636e-95
355.10 1.345636e-95
355.20 1.345636e-95
355.30 1.345636e-95
355.40 1.345636e-95
355.50 1.345636e-95
355.60 1.345636e-95
355.70 1.345636e-95
355.80 1.345636e-95
355.90 1.345636e-95
356.00 1.345636e-95
356.10 1.345636e-95
356.20 1.345636e-95
356.30 1.345636e-95
356.40 1.345636e-95
356.50 1.345636e-95
356.60 1.345636e-95
356.70 1.345636e-95
356.80 1.345636e-95
356.90 1.345636e-95
357.00 1.345636e-95
357.10 1.345636e-95
357.20 1.345636e-95
357.30 1.345636e-95
357.40 1.345636e-95
357.50 1.345636e-95
357.60 1.345636e-95
357.70 1.345636e-95
357.80 1.345636e-95
357.90 1.345636e-95
358.00 1.345636e-95
358.10 1.345636e-95
358.20 1.345636e-95
358.30 1.345636e-95
358.40 1.345636e-95
358.50 1.345636e-95
358.60 1.345636e-95
358.70 1.345636e-95
358.80 1.345636e-95
358.90 1.345636e-95
359.00 1.345636e-95
359.10 1.345636e-95
359.20 1.345636e-95
359.30 1.345636e-95
359.40 1.345636e-95
359.50 1.345636e-95
359.60 1.345636e-95
359.70 1.345636e-95
359.80 1.345636e-95
359.90 1.345636e-95
360.00 1.345636e-95
360.10 1.345636e-95
360.20 1.345636e-95
360.30 1.345636e-95
360.40 1.345636e-95
360.50 1.345636e-95
360.60 1.345636e-95
360.70 1.345636e-95
360.80 1.345636e-95
360.90 1.345636e-95
361.00 1.345636e-95
361.10 1.345636e-95
361.20 1.345636e-95
361.30 1.345636e-95
361.40 1.345636e-95
361.50 1.345636e-95
361.60 1.345636e-95
361.70 1.345636e-95
361.80 1.345636e-95
361.90 1.345636e-95
362.00 1.345636e-95
362.10 1.345636e-95
362.20 1.345636e-95
362.30 1.345636e-95
362.40 1.345636e-95
362.50 1.345636e-95
362.60 1.345636e-95
362.70 1.345636e-95
362.80 1.345636e-95
362.90 1.345636e-95
363.00 1.345636e-95
363.10 1.345636e-95
363.20 1.345636e-95
363.30 1.345636e-95
363.40 1.345636e-95
363.50 1.345636e-95
363.60 1.345636e-95
363.70 1.345636e-95
363.80 1.345636e-95
363.90 1.345636e-95
364.00 1.345636e-95
364.10 1.345636e-95
364.20 1.345636e-95
364.30 1.345636e-95
364.40 1.345636e-95
364.50 1.345636e-95
364.60 1.345636e-95
364.70 1.345636e-95
364.80 1.345636e-95
364.90 1.345636e-95
365.00 1.345636e-95
365.10 1.345636e-95
365.20 1.345636e-95
365.30 1.345636e-95
365.40 1.345636e-95
365.50 1.345636e-95
365.60 1.345636e-95
365.70 1.345636e-95
365.80 1.345636e-95
365.90 1.345636e-95
366.00 1.345636e-95
366.10 1.345636e-95
366.20 1.345636e-95
366.30 1.345636e-95
366.40 1.345636e-95
366.50 1.345636e-95
366.60 1.345636e-95
366.70 1.345636e-95
366.80 1.345636e-95
366.90 1.345636e-95
367.00 1.345636e-95
367.10 1.345636e-95
367.20 1.345636e-95
367.30 1.345636e-95
367.40 1.345636e-95
367.50 1.345636e-95
367.60 1.345636e-95
367.70 1.345636e-95
367.80 1.345636e-95
367.90 1.345636e-95
368.00 1.345636e-95
368.10 1.345636e-95
368.20 1.345636e-95
368.30 1.345636e-95
368.40 1.345636e-95
368.50 1.345636e-95
368.60 1.345636e-95
368.70 1.345636e-95
368.80 1.345636e-95
368.90 1.345636e-95
369.00 1.345636e-95
369.10 1.345636e-95
369.20 1.345636e-95
369.30 1.345636e-95
369.40 1.345636e-95
369.50 1.345636e-95
369.60 1.345636e-95
369.70 1.345636e-95
369.80 1.345636e-95
369.90 1.345636e-95
370.00 1.345636e-95
370.10 1.345636e-95
370.20 1.345636e-95
370.30 1.345636e-95
370.40 1.345636e-95
370.50 1.345636e-95
370.60 1.345636e-95
370.70 1.345636e-95
370.80 1.345636e-95
370.90 1.345636e-95
371.00 1.345636e-95
371.10 1.345636e-95
371.20 1.345636e-95
371.30 1.345636e-95
371.40 1.345636e-95
371.50 1.345636e-95
371.60 1.345636e-95
371.70 1.345636e-95
371.80 1.345636e-95
371.90 1.345636e-95
372.00 1.345636e-95
372.10 1.345636e-95
372.20 1.345636e-95
372.30 1.345636e-95
372.40 1.345636e-95
372.50 1.345636e-95
372.60 1.345636e-95
372.70 1.345636e-95
372.80 1.345636e-95
372.90 1.345636e-95
373.00 1.345636e-95
373.10 1.345636e-95
373.20 1.345636e-95
373.30 1.345636e-95
373.40 1.345636e-95
373.50 1.345636e-95
373.60 1.345636e-95
373.70 1.345636e-95
373.80 1.345636e-95
373.90 1.345636e-95
374.00 1.345636e-95
374.10 1.345636e-95
374.20 1.345636e-95
374.30 1.345636e-95
374.40 1.345636e-95
374.50 1.345636e-95
374.60 1.345636e-95
374.70 1.345636e-95
374.80 1.345636e-95
374.90 1.345636e-95
375.00 1.345636e-95
375.10 1.345636e-95
375.20 1.345636e-95
375.30 1.345636e-95
375.40 1.345636e-95
375.50 1.345636e-95
375.60 1.345636e-95
375.70 1.345636e-95
375.80 1.345636e-95
375.90 1.345636e-95
376.00 1.345636e-95
376.10 1.345636e-95
376.20 1.345636e-95
376.30 1.345636e-95
376.40 1.345636e-95
376.50 1.345636e-95
376.60 1.345636e-95
376.70 1.345636e-95
376.80 1.345636e-95
376.90 1.345636e-95
377.00 1.345636e-95
377.10 1.345636e-95
377.20 1.345636e-95
377.30 1.345636e-95
377.40 1.345636e-95
377.50 1.345636e-95
377.60 1.345636e-95
377.70 1.345636e-95
377.80 1.345636e-95
377.90 1.345636e-95
378.00 1.345636e-95
378.10 1.345636e-95
378.20 1.345636e-95
378.30 1.345636e-95
378.40 1.345636e-95
378.50 1.345636e-95
378.60 1.345636e-95
378.70 1.345636e-95
378.80 1.345636e-95
378.90 1.345636e-95
379.00 1.345636e-95
379.10 1.345636e-95
379.20 1.345636e-95
379.30 1.345636e-95
379.40 1.345636e-95
379.50 1.345636e-95
379.60 1.345636e-95
379.70 1.345636e-95
379.80 1.345636e-95
379.90 1.345636e-95
380.00 1.345636e-95
380.10 1.345636e-95
380.20 1.345636e-95
380.30 1.345636e-95
380.40 1.345636e-95
380.50 1.345636e-95
380.60 1.345636e-95
380.70 1.345636e-95
380.80 1.345636e-95
380.90 1.345636e-95
381.00 1.345636e-95
381.10 1.345636e-95
381.20 1.345636e-95
381.30 1.345636e-95
381.40 1.345636e-95
381.50 1.345636e-95
381.60 1.345636e-95
381.70 1.345636e-95
381.80 1.345636e-95
381.90 1.345636e-95
382.00 1.345636e-95
382.10 1.345636e-95
382.20 1.345636e-95
382.30 1.345636e-95
382.40 1.345636e-95
382.50 1.345636e-95
382.60 1.345636e-95
382.70 1.345636e-95
382.80 1.345636e-95
382.90 1.345636e-95
383.00 1.345636e-95
383.10 1.345636e-95
383.20 1.345636e-95
383.30 1.345636e-95
383.40 1.345636e-95
383.50 1.345636e-95
383.60 1.345636e-95
383.70 1.345636e-95
383.80 1.345636e-95
383.90 1.345636e-95
384.00 1.345636e-95
384.10 1.345636e-95
384.20 1.345636e-95
384.30 1.345636e-95
384.40 1.345636e-95
384.50 1.345636e-95
384.60 1.345636e-95
384.70 1.345636e-95
384.80 1.345636e-95
384.90 1.345636e-95
385.00 1.345636e-95
385.10 1.345636e-95
385.20 1.345636e-95
385.30 1.345636e-95
385.40 1.345636e-95
385.50 1.345636e-95
385.60 1.345636e-95
385.70 1.345636e-95
385.80 1.345636e-95
385.90 1.345636e-95
386.00 1.345636e-95
386.10 1.345636e-95
386.20 1.345636e-95
386.30 1.345636e-95
386.40 1.345636e-95
386.50 1.345636e-95
386.60 1.345636e-95
386.70 1.345636e-95
386.80 1.345636e-95
386.90 1.345636e-95
387.00 1.345636e-95
387.10 1.345636e-95
387.20 1.345636e-95
387.30 1.345636e-95
387.40 1.345636e-95
387.50 1.345636e-95
387.60 1.345636e-95
387.70 1.345636e-95
387.80 1.345636e-95
387.90 1.345636e-95
388.00 1.345636e-95
388.10 1.345636e-95
388.20 1.345636e-95
388.30 1.345636e-95
388.40 1.345636e-95
388.50 1.345636e-95
388.60 1.345636e-95
388.70 1.345636e-95
388.80 1.345636e-95
388.90 1.345636e-95
389.00 1.345636e-95
389.10 1.345636e-95
389.20 1.345636e-95
389.30 1.345636e-95
389.40 1.345636e-95
389.50 1.345636e-95
389.60 1.345636e-95
389.70 1.345636e-95
389.80 1.345636e-95
389.90 1.345636e-95
390.00 1.345636e-95
390.10 1.345636e-95
390.20 1.345636e-95
390.30 1.345636e-95
390.40 1.345636e-95
390.50 1.345636e-95
390.60 1.345636e-95
390.70 1.345636e-95
390.80 1.345636e-95
390.90 1.345636e-95
391.00 1.345636e-95
391.10 1.345636e-95
391.20 1.345636e-95
391.30 1.345636e-95
391.40 1.345636e-95
391.50 1.345636e-95
391.60 1.345636e-95
391.70 1.345636e-95
391.80 1.345636e-95
391.90 1.345636e-95
392.00 1.345636e-95
392.10 1.345636e-95
392.20 1.345636e-95
392.30 1.345636e-95
392.40 1.345636e-95
392.50 1.345636e-95
392.60 1.345636e-95
392.70 1.345636e-95
392.80 1.345636e-95
392.90 1.345636e-95
393.00 1.345636e-95
393.10 1.345636e-95
393.20 1.345636e-95
393.30 1.345636e-95
393.40 1.345636e-95
393.50 1.345636e-95
393.60 1.345636e-95
393.70 1.345636e-95
393.80 1.345636e-95
393.90 1.345636e-95
394.00 1.345636e-95
394.10 1.345636e-95
394.20 1.345636e-95
394.30 1.345636e-95
394.40 1.345636e-95
394.50 1.345636e-95
394.60 1.345636e-95
394.70 1.345636e-95
394.80 1.345636e-95
394.90 1.345636e-95
395.00 1.33218e-95
395.10 1.318723e-95
395.20 1.305267e-95
395.30 1.291811e-95
395.40 1.278354e-95
395.50 1.264898e-95
395.60 1.251441e-95
395.70 1.237985e-95
395.80 1.224529e-95
395.90 1.211072e-95
396.00 1.197616e-95
396.10 1.18416e-95
396.20 1.170703e-95
396.30 1.157247e-95
396.40 1.143791e-95
396.50 1.130334e-95
396.60 1.116878e-95
396.70 0.0005003882
396.80 0.002839839
396.90 0.006524669
397.00 0.01113526
397.10 0.01596415
397.20 0.02040976
397.30 0.02542804
397.40 0.0338447
397.50 0.04878822
397.60 0.07124064
397.70 0.09979361
397.80 0.1324869
397.90 0.1665654
398.00 0.1976196
398.10 0.2207596
398.20 0.2331845
398.30 0.2338555
398.40 0.2338555
398.50 0.2338555
398.60 0.2338555
398.70 0.2338555
398.80 0.2338555
398.90 0.2338555
399.00 0.2338555
399.10 0.2383338
399.20 0.2521354
399.30 0.2703222
399.40 0.2887503
399.50 0.3057777
399.60 0.3206776
399.70 0.3335094
399.80 0.3464989
399.90 0.3625497
400.00 0.3833688
400.10 0.4093155
400.20 0.4383631
400.30 0.4676145
400.40 0.4951811
400.50 0.5196383
400.60 0.5407173
400.70 0.5600817
400.80 0.5793966
400.90 0.5987269
401.00 0.6176728
401.10 0.6362091
401.20 0.6540157
401.30 0.6697109
401.40 0.6812581
401.50 0.6864286
401.60 0.6864286
401.70 0.6864286
401.80 0.6864286
401.90 0.6864286
402.00 0.6864286
402.10 0.6864286
402.20 0.6864286
402.30 0.6923965
402.40 0.7119794
402.50 0.741909
402.60 0.7750205
402.70 0.8023158
402.80 0.8165793
402.90 0.8165793
403.00 0.8165793
403.10 0.8165793
403.20 0.8165793
403.30 0.8165793
403.40 0.8165793
403.50 0.8165793
403.60 0.819756
403.70 0.8331978
403.80 0.8547022
403.90 0.8810878
404.00 0.9087767
404.10 0.9350001
404.20 0.9574338
404.30 0.9736558
404.40 0.9821358
404.50 0.9821358
404.60 0.9821358
404.70 0.9821358
404.80 0.9821358
404.90 0.9821358
405.00 0.9821358
405.10 0.9821358
405.20 0.9821358
405.30 0.9821358
405.40 0.9821358
405.50 0.9821358
405.60 0.9821358
405.70 0.9821358
405.80 0.9881809
405.90 1.00172
406.00 1.019461
406.10 1.038206
406.20 1.055138
406.30 1.068421
406.40 1.078799
406.50 1.087859
406.60 1.097042
406.70 1.106791
406.80 1.114846
406.90 1.119826
407.00 1.120648
407.10 1.117156
407.20 1.11271
407.30 1.107692
407.40 1.099275
407.50 1.084332
407.60 1.06188
407.70 1.033327
407.80 1.000633
407.90 0.9665547
408.00 0.9355006
408.10 0.9123606
408.20 0.8999357
408.30 0.8992647
408.40 0.9053878
408.50 0.9204934
408.60 0.943686
408.70 0.9716041
408.80 0.9990225
408.90 1.021018
409.00 1.033732
409.10 1.0304
409.20 1.016598
409.30 0.9984115
409.40 0.9799833
409.50 0.962956
409.60 0.9480561
409.70 0.9352243
409.80 0.9222348
409.90 0.906184
410.00 0.8856106
410.10 0.8657557
410.20 0.8477775
410.30 0.8330192
410.40 0.821354
410.50 0.8121861
410.60 0.803848
410.70 0.792964
410.80 0.7774791
410.90 0.7586782
411.00 0.7397323
411.10 0.7211961
411.20 0.7040728
411.30 0.691633
411.40 0.6861431
411.50 0.6897156
411.60 0.700654
411.70 0.712493
411.80 0.7241121
411.90 0.7349874
412.00 0.7444304
412.10 0.7516702
412.20 0.7561549
412.30 0.7508182
412.40 0.7312353
412.50 0.7013057
412.60 0.6681941
412.70 0.6408988
412.80 0.6266354
412.90 0.6266354
413.00 0.6266354
413.10 0.6266354
413.20 0.6266354
413.30 0.6266354
413.40 0.6266354
413.50 0.6266354
413.60 0.6234586
413.70 0.6100169
413.80 0.5885125
413.90 0.5621269
414.00 0.534438
414.10 0.5082145
414.20 0.4857809
414.30 0.4695589
414.40 0.4610789
414.50 0.4610789
414.60 0.4610789
414.70 0.4610789
414.80 0.4610789
414.90 0.4610789
415.00 0.4610789
415.10 0.4610789
415.20 0.4610789
415.30 0.4610789
415.40 0.4610789
415.50 0.4610789
415.60 0.4610789
415.70 0.4610789
415.80 0.4550337
415.90 0.4419874
416.00 0.4255641
416.10 0.4090521
416.20 0.3951658
416.30 0.3853894
416.40 0.3778604
416.50 0.368934
416.60 0.3597509
416.70 0.3495011
416.80 0.3391065
416.90 0.3304423
417.00 0.3250091
417.10 0.3236724
417.20 0.3236724
417.30 0.3236724
417.40 0.3236724
417.50 0.3236724
417.60 0.326425
417.70 0.3338976
417.80 0.3427845
417.90 0.35119
418.00 0.3579173
418.10 0.3620214
418.20 0.3638512
418.30 0.3657561
418.40 0.3647366
418.50 0.3608456
418.60 0.3581208
418.70 0.3616626
418.80 0.3746818
418.90 0.3976426
419.00 0.4299597
419.10 0.4708373
419.20 0.5082802
419.30 0.5391183
419.40 0.5606909
419.50 0.5711582
419.60 0.5711582
419.70 0.5711582
419.80 0.5711582
419.90 0.5711582
420.00 0.5709125
420.10 0.5648207
420.20 0.5635401
420.30 0.5731539
420.40 0.5951441
420.50 0.6276445
420.60 0.6660303
420.70 0.7050692
420.80 0.7404832
420.90 0.7697166
421.00 0.7919003
421.10 0.8104956
421.20 0.8297651
421.30 0.8523448
421.40 0.8811473
421.50 0.9171677
421.60 0.958772
421.70 1.00275
421.80 1.044512
421.90 1.078992
422.00 1.103954
422.10 1.120557
422.20 1.131309
422.30 1.139487
422.40 1.14371
422.50 1.144422
422.60 1.144422
422.70 1.144422
422.80 1.144422
422.90 1.144422
423.00 1.144422
423.10 1.144422
423.20 1.144422
423.30 1.144422
423.40 1.144422
423.50 1.144422
423.60 1.144422
423.70 1.144422
423.80 1.144422
423.90 1.152585
424.00 1.172857
424.10 1.204321
424.20 1.242973
424.30 1.282149
424.40 1.315777
424.50 1.340272
424.60 1.354338
424.70 1.358526
424.80 1.358526
424.90 1.358526
425.00 1.358526
425.10 1.358526
425.20 1.358526
425.30 1.358526
425.40 1.358526
425.50 1.358526
425.60 1.358526
425.70 1.358526
425.80 1.358526
425.90 1.358033
426.00 1.356716
426.10 1.355624
426.20 1.355738
426.30 1.3568
426.40 1.360135
426.50 1.3675
426.60 1.375811
426.70 1.383823
426.80 1.389802
426.90 1.39257
427.00 1.39257
427.10 1.39257
427.20 1.39257
427.30 1.39257
427.40 1.393437
427.50 1.400882
427.60 1.411771
427.70 1.421814
427.80 1.430905
427.90 1.437778
428.00 1.440946
428.10 1.439529
428.20 1.437699
428.30 1.435794
428.40 1.43069
428.50 1.419476
428.60 1.399008
428.70 1.367548
428.80 1.327111
428.90 1.282154
429.00 1.237123
429.10 1.195099
429.20 1.157656
429.30 1.126818
429.40 1.105246
429.50 1.094778
429.60 1.094778
429.70 1.094778
429.80 1.094778
429.90 1.094778
430.00 1.094778
430.10 1.094778
430.20 1.084989
430.30 1.060883
430.40 1.023136
430.50 0.978414
430.60 0.9324218
430.70 0.8908991
430.80 0.8573379
430.90 0.8332067
431.00 0.8184488
431.10 0.8117222
431.20 0.809746
431.30 0.8070604
431.40 0.7990059
431.50 0.7843051
431.60 0.7643645
431.70 0.7410501
431.80 0.7170908
431.90 0.6964278
432.00 0.6816909
432.10 0.6728828
432.20 0.6683754
432.30 0.665739
432.40 0.6626638
432.50 0.6619515
432.60 0.6619515
432.70 0.6619515
432.80 0.6619515
432.90 0.6619515
433.00 0.6619515
433.10 0.6619515
433.20 0.6619515
433.30 0.6619515
433.40 0.6619515
433.50 0.6619515
433.60 0.6619515
433.70 0.6619515
433.80 0.6651573
433.90 0.6662795
434.00 0.6612433
434.10 0.6499485
434.20 0.6358139
434.30 0.6250131
434.40 0.6219622
434.50 0.6278993
434.60 0.6426343
434.70 0.6647934
434.80 0.6882592
434.90 0.7094167
435.00 0.730086
435.10 0.7523093
435.20 0.7763672
435.30 0.8002158
435.40 0.8212638
435.50 0.8373617
435.60 0.8459053
435.70 0.8459053
435.80 0.8459053
435.90 0.8459053
436.00 0.8459053
436.10 0.8447629
436.20 0.8416047
436.30 0.8370353
436.40 0.8308516
436.50 0.823353
436.60 0.8150423
436.70 0.8070305
436.80 0.8010518
436.90 0.7982834
437.00 0.7982834
437.10 0.798655
437.20 0.7990943
437.30 0.7990943
437.40 0.7982273
437.50 0.7907823
437.60 0.7771407
437.70 0.7596254
437.80 0.7416472
437.90 0.726369
438.00 0.7164732
438.10 0.7192552
438.20 0.7330596
438.30 0.7540308
438.40 0.7789757
438.50 0.8034656
438.60 0.823485
438.70 0.8355682
438.80 0.8368629
438.90 0.8368629
439.00 0.8368629
439.10 0.8368629
439.20 0.8368629
439.30 0.8368629
439.40 0.8368629
439.50 0.8368629
439.60 0.8368629
439.70 0.8380284
439.80 0.8499161
439.90 0.8702443
440.00 0.8950791
440.10 0.9205649
440.20 0.944046
440.30 0.9647563
440.40 0.9829869
440.50 0.9958777
440.60 1.003854
440.70 1.008472
440.80 1.01211
440.90 1.015934
441.00 1.018719
441.10 1.017954
441.20 1.011978
441.30 1.001279
441.40 0.9875418
441.50 0.9722551
441.60 0.9577134
441.70 0.9475175
441.80 0.9440883
441.90 0.9487381
442.00 0.9632234
442.10 0.9881009
442.20 1.021968
442.30 1.062873
442.40 1.108533
442.50 1.152053
442.60 1.189816
442.70 1.221177
442.80 1.246892
442.90 1.26847
443.00 1.287421
443.10 1.304818
443.20 1.321893
443.30 1.338795
443.40 1.353704
443.50 1.365421
443.60 1.374825
443.70 1.382825
443.80 1.386509
443.90 1.383178
444.00 1.373043
444.10 1.357097
444.20 1.336372
444.30 1.312531
444.40 1.288886
444.50 1.270246
444.60 1.260484
444.70 1.261645
444.80 1.274429
444.90 1.296805
445.00 1.323282
445.10 1.347727
445.20 1.366743
445.30 1.380043
445.40 1.388868
445.50 1.395712
445.60 1.404789
445.70 1.41937
445.80 1.433341
445.90 1.448139
446.00 1.464471
446.10 1.482712
446.20 1.502033
446.30 1.521492
446.40 1.541053
446.50 1.560742
446.60 1.57971
446.70 1.597021
446.80 1.612703
446.90 1.627046
447.00 1.640121
447.10 1.651841
447.20 1.663576
447.30 1.67776
447.40 1.696072
447.50 1.720907
447.60 1.755097
447.70 1.799765
447.80 1.853012
447.90 1.910435
448.00 1.966869
448.10 2.012507
448.20 2.040723
448.30 2.049558
448.40 2.041295
448.50 2.022301
448.60 2.002281
448.70 1.990198
448.80 1.988904
448.90 1.991091
449.00 1.998333
449.10 2.009798
449.20 2.024563
449.30 2.042316
449.40 2.063254
449.50 2.08673
449.60 2.111165
449.70 2.134176
449.80 2.14501
449.90 2.144104
450.00 2.133173
450.10 2.114673
450.20 2.091287
450.30 2.070577
450.40 2.052201
450.50 2.036243
450.60 2.023132
450.70 2.012517
450.80 2.003196
450.90 1.99517
451.00 1.990496
451.10 1.988583
451.20 1.988634
451.30 1.99075
451.40 1.995605
451.50 2.00336
451.60 2.013582
451.70 2.026007
451.80 2.040197
451.90 2.053672
452.00 2.060423
452.10 2.054673
452.20 2.034258
452.30 2.000276
452.40 1.956876
452.50 1.913356
452.60 1.875593
452.70 1.844392
452.80 1.825021
452.90 1.816369
453.00 1.815308
453.10 1.817055
453.20 1.816227
453.30 1.809588
453.40 1.798325
453.50 1.786608
453.60 1.777204
453.70 1.769203
453.80 1.762314
453.90 1.758643
454.00 1.760022
454.10 1.7665
454.20 1.776841
454.30 1.788479
454.40 1.797919
454.50 1.801675
454.60 1.797051
454.70 1.782957
454.80 1.760011
454.90 1.731234
455.00 1.701802
455.10 1.676517
455.20 1.658662
455.30 1.650078
455.40 1.649613
455.50 1.652629
455.60 1.653419
455.70 1.647284
455.80 1.633313
455.90 1.618516
456.00 1.602183
456.10 1.583942
456.20 1.564621
456.30 1.545163
456.40 1.525602
456.50 1.505913
456.60 1.486945
456.70 1.469633
456.80 1.453951
456.90 1.439608
457.00 1.433641
457.10 1.43668
457.20 1.44509
457.30 1.453742
457.40 1.457381
457.50 1.450674
457.60 1.428357
457.70 1.38759
457.80 1.334343
457.90 1.27692
458.00 1.220487
458.10 1.16938
458.20 1.12736
458.30 1.097553
458.40 1.080871
458.50 1.081476
458.60 1.093957
458.70 1.111425
458.80 1.132362
458.90 1.153595
459.00 1.172194
459.10 1.189046
459.20 1.204927
459.30 1.219147
459.40 1.229244
459.50 1.233061
459.60 1.229931
459.70 1.220387
459.80 1.206005
459.90 1.18937
460.00 1.175466
460.10 1.16848
460.20 1.168385
460.30 1.168385
460.40 1.168385
460.50 1.170601
460.60 1.175812
460.70 1.184925
460.80 1.199221
460.90 1.218038
461.00 1.238239
461.10 1.257882
461.20 1.273993
461.30 1.283839
461.40 1.28513
461.50 1.276117
461.60 1.255537
461.70 1.223288
461.80 1.183106
461.90 1.140289
462.00 1.099882
462.10 1.069455
462.20 1.052957
462.30 1.052014
462.40 1.065196
462.50 1.085434
462.60 1.108046
462.70 1.131088
462.80 1.146046
462.90 1.150036
463.00 1.143747
463.10 1.131922
463.20 1.120736
463.30 1.11556
463.40 1.119292
463.50 1.130674
463.60 1.146206
463.70 1.164105
463.80 1.181432
463.90 1.193239
464.00 1.19655
464.10 1.191891
464.20 1.181912
464.30 1.169776
464.40 1.158167
464.50 1.148501
464.60 1.140706
464.70 1.133997
464.80 1.127306
464.90 1.11887
465.00 1.106524
465.10 1.088756
465.20 1.065088
465.30 1.036624
465.40 1.007216
465.50 0.9819563
465.60 0.9656684
465.70 0.961426
465.80 0.9679744
465.90 0.9766821
466.00 0.9873999
466.10 0.9994742
466.20 1.011457
466.30 1.022098
466.40 1.031503
466.50 1.041065
466.60 1.052752
466.70 1.068145
466.80 1.087879
466.90 1.111576
467.00 1.130581
467.10 1.141972
467.20 1.146917
467.30 1.147509
467.40 1.146598
467.50 1.14806
467.60 1.155373
467.70 1.170552
467.80 1.188543
467.90 1.203149
468.00 1.212005
468.10 1.213796
468.20 1.213796
468.30 1.213796
468.40 1.213796
468.50 1.207696
468.60 1.195215
468.70 1.177747
468.80 1.156809
468.90 1.133389
469.00 1.107548
469.10 1.07923
469.20 1.048585
469.30 1.016612
469.40 0.9870107
469.50 0.9651685
469.60 0.9514704
469.70 0.9454323
469.80 0.9462022
469.90 0.9537918
470.00 0.9671076
470.10 0.9854471
470.20 1.010554
470.30 1.042856
470.40 1.081267
470.50 1.120949
470.60 1.157292
470.70 1.185218
470.80 1.200442
470.90 1.200949
471.00 1.187081
471.10 1.162224
471.20 1.134062
471.30 1.109649
471.40 1.090436
471.50 1.076918
471.60 1.069325
471.70 1.076849
471.80 1.099275
471.90 1.134038
472.00 1.178099
472.10 1.224668
472.20 1.268444
472.30 1.304503
472.40 1.329121
472.50 1.34044
472.60 1.339523
472.70 1.330804
472.80 1.320572
472.90 1.314686
473.00 1.315935
473.10 1.323604
473.20 1.335199
473.30 1.347901
473.40 1.359001
473.50 1.366117
473.60 1.368047
473.70 1.365692
473.80 1.361275
473.90 1.357403
474.00 1.355535
474.10 1.354657
474.20 1.352408
474.30 1.348373
474.40 1.34361
474.50 1.337727
474.60 1.331106
474.70 1.324775
474.80 1.323547
474.90 1.32937
475.00 1.34356
475.10 1.366402
475.20 1.397832
475.30 1.4365
475.40 1.478544
475.50 1.52029
475.60 1.558563
475.70 1.590629
475.80 1.614755
475.90 1.63039
476.00 1.637649
476.10 1.637784
476.20 1.63356
476.30 1.628404
476.40 1.624777
476.50 1.623065
476.60 1.620831
476.70 1.614449
476.80 1.601571
476.90 1.581777
477.00 1.556379
477.10 1.529857
477.20 1.504329
477.30 1.4809
477.40 1.45986
477.50 1.441936
477.60 1.428801
477.70 1.419258
477.80 1.412147
477.90 1.407386
478.00 1.40634
478.10 1.410972
478.20 1.417518
478.30 1.425987
478.40 1.438301
478.50 1.455834
478.60 1.478335
478.70 1.50402
478.80 1.530927
478.90 1.55729
479.00 1.581466
479.10 1.602277
479.20 1.619144
479.30 1.632614
479.40 1.642548
479.50 1.647229
479.60 1.648603
479.70 1.647667
479.80 1.645148
479.90 1.640854
480.00 1.633451
480.10 1.621608
480.20 1.604635
480.30 1.58265
480.40 1.556452
480.50 1.528131
480.60 1.501267
480.70 1.479345
480.80 1.463828
480.90 1.454555
481.00 1.451359
481.10 1.453811
481.20 1.458718
481.30 1.462756
481.40 1.467241
481.50 1.473593
481.60 1.482265
481.70 1.483839
481.80 1.476117
481.90 1.458611
482.00 1.432455
482.10 1.399881
482.20 1.363537
482.30 1.326326
482.40 1.291749
482.50 1.264297
482.60 1.247191
482.70 1.240674
482.80 1.242847
482.90 1.250474
483.00 1.259721
483.10 1.266178
483.20 1.265817
483.30 1.256429
483.40 1.238661
483.50 1.220163
483.60 1.202701
483.70 1.18777
483.80 1.184336
483.90 1.193264
484.00 1.212003
484.10 1.237518
484.20 1.266527
484.30 1.294413
484.40 1.317782
484.50 1.337787
484.60 1.357264
484.70 1.378802
484.80 1.400099
484.90 1.420818
485.00 1.440209
485.10 1.457106
485.20 1.469206
485.30 1.473879
485.40 1.470164
485.50 1.458807
485.60 1.442245
485.70 1.424113
485.80 1.408416
485.90 1.398412
486.00 1.395465
486.10 1.39837
486.20 1.403427
486.30 1.405375
486.40 1.399597
486.50 1.391747
486.60 1.382294
486.70 1.373283
486.80 1.366428
486.90 1.362524
487.00 1.361809
487.10 1.370343
487.20 1.39205
487.30 1.425197
487.40 1.466507
487.50 1.510664
487.60 1.551578
487.70 1.587343
487.80 1.618684
487.90 1.647247
488.00 1.67311
488.10 1.695139
488.20 1.711873
488.30 1.721058
488.40 1.719338
488.50 1.704266
488.60 1.681765
488.70 1.65608
488.80 1.629173
488.90 1.602809
489.00 1.578634
489.10 1.557823
489.20 1.540956
489.30 1.530097
489.40 1.52275
489.50 1.514905
489.60 1.505923
489.70 1.498265
489.80 1.491674
489.90 1.485592
490.00 1.479679
490.10 1.473183
490.20 1.470685
490.30 1.471465
490.40 1.474779
490.50 1.479175
490.60 1.482199
490.70 1.482227
490.80 1.480205
490.90 1.478952
491.00 1.480722
491.10 1.486536
491.20 1.496776
491.30 1.510716
491.40 1.525861
491.50 1.539
491.60 1.547516
491.70 1.5495
491.80 1.544021
491.90 1.532364
492.00 1.517914
492.10 1.504877
492.20 1.497222
492.30 1.497665
492.40 1.50689
492.50 1.522575
492.60 1.54036
492.70 1.555562
492.80 1.564741
492.90 1.567209
493.00 1.564928
493.10 1.561828
493.20 1.562312
493.30 1.569482
493.40 1.58405
493.50 1.60036
493.60 1.618796
493.70 1.63914
493.80 1.652645
493.90 1.656995
494.00 1.652408
494.10 1.640995
494.20 1.625445
494.30 1.607874
494.40 1.589775
494.50 1.571356
494.60 1.551879
494.70 1.529968
494.80 1.503878
494.90 1.473312
495.00 1.437672
495.10 1.396829
495.20 1.351748
495.30 1.308307
495.40 1.269977
495.50 1.23889
495.60 1.215057
495.70 1.196918
495.80 1.181941
495.90 1.167603
496.00 1.152573
496.10 1.137458
496.20 1.131041
496.30 1.136065
496.40 1.15179
496.50 1.167876
496.60 1.182056
496.70 1.192741
496.80 1.198882
496.90 1.199729
497.00 1.199729
497.10 1.191195
497.20 1.169489
497.30 1.136342
497.40 1.095031
497.50 1.049208
497.60 1.002244
497.70 0.9569425
497.80 0.914721
497.90 0.8763124
498.00 0.8426401
498.10 0.8141872
498.20 0.790907
498.30 0.7732536
498.40 0.7626598
498.50 0.7608008
498.60 0.7685951
498.70 0.7835128
498.80 0.8042882
498.90 0.8296745
499.00 0.8581805
499.10 0.8871008
499.20 0.9136948
499.30 0.9336005
499.40 0.9470189
499.50 0.9570075
499.60 0.9652179
499.70 0.9712952
499.80 0.9774772
499.90 0.9862567
500.00 1
500.10 1.020586
500.20 1.042891
500.30 1.064976
500.40 1.083961
500.50 1.097871
500.60 1.106317
500.70 1.110313
500.80 1.11082
500.90 1.107739
501.00 1.101191
501.10 1.092303
501.20 1.082979
501.30 1.075147
501.40 1.069772
501.50 1.067293
501.60 1.068303
501.70 1.073282
501.80 1.082302
501.90 1.094307
502.00 1.106883
502.10 1.11709
502.20 1.122887
502.30 1.123406
502.40 1.118472
502.50 1.108972
502.60 1.096901
502.70 1.085123
502.80 1.076231
502.90 1.070621
503.00 1.067483
503.10 1.065746
503.20 1.062978
503.30 1.055863
503.40 1.041548
503.50 1.025238
503.60 1.006802
503.70 0.9858431
503.80 0.9628632
503.90 0.9393681
504.00 0.9172915
504.10 0.8980248
504.20 0.8826617
504.30 0.8723457
504.40 0.8670764
504.50 0.8654903
504.60 0.8654903
504.70 0.8654903
504.80 0.8648996
504.90 0.8667697
505.00 0.8719414
505.10 0.8812671
505.20 0.8954019
505.30 0.9104863
505.40 0.9247576
505.50 0.9363652
505.60 0.9433985
505.70 0.9446321
505.80 0.9446321
505.90 0.9446321
506.00 0.9446321
506.10 0.9446321
506.20 0.9382333
506.30 0.9257768
506.40 0.9100516
506.50 0.893965
506.60 0.8797855
506.70 0.8691007
506.80 0.8629592
506.90 0.8621122
507.00 0.8621122
507.10 0.8663341
507.20 0.8749465
507.30 0.8870352
507.40 0.9011625
507.50 0.9159348
507.60 0.930992
507.70 0.9470196
507.80 0.9644249
507.90 0.9826557
508.00 1.000328
508.10 1.015807
508.20 1.028005
508.30 1.036555
508.40 1.041223
508.50 1.041396
508.60 1.033602
508.70 1.018684
508.80 0.9979088
508.90 0.9725225
509.00 0.9440165
509.10 0.9150962
509.20 0.8885022
509.30 0.8662225
509.40 0.8501438
509.50 0.8396281
509.60 0.8333307
509.70 0.8294513
509.80 0.8265133
509.90 0.8232404
510.00 0.8185427
510.10 0.8121003
510.20 0.8045388
510.30 0.7979839
510.40 0.7958323
510.50 0.8011579
510.60 0.8154868
510.70 0.8380071
510.80 0.8667164
510.90 0.89899
511.00 0.9308811
511.10 0.9578046
511.20 0.9759191
511.30 0.9836919
511.40 0.9825103
511.50 0.9749971
511.60 0.963642
511.70 0.9506856
511.80 0.9377473
511.90 0.925573
512.00 0.914528
512.10 0.9051077
512.20 0.8968765
512.30 0.888905
512.40 0.8808586
512.50 0.8723222
512.60 0.8620198
512.70 0.8506293
512.80 0.8370999
512.90 0.8215847
513.00 0.8049077
513.10 0.7882984
513.20 0.7742887
513.30 0.7658339
513.40 0.7648703
513.50 0.7648703
513.60 0.7648703
513.70 0.7648703
513.80 0.7648703
513.90 0.7648703
514.00 0.7648703
514.10 0.768161
514.20 0.7767073
514.30 0.7910219
514.40 0.8103115
514.50 0.832824
514.60 0.8561413
514.70 0.8775766
514.80 0.8951338
514.90 0.903896
515.00 0.9039601
515.10 0.8975289
515.20 0.8875588
515.30 0.8773568
515.40 0.8705523
515.50 0.8703715
515.60 0.8792891
515.70 0.8985303
515.80 0.9233657
515.90 0.9522275
516.00 0.9842878
516.10 1.018313
516.20 1.053324
516.30 1.089291
516.40 1.126381
516.50 1.163879
516.60 1.200009
516.70 1.232835
516.80 1.261527
516.90 1.286335
517.00 1.308147
517.10 1.323875
517.20 1.334113
517.30 1.339781
517.40 1.341853
517.50 1.341299
517.60 1.338306
517.70 1.332041
517.80 1.322347
517.90 1.310789
518.00 1.299923
518.10 1.291867
518.20 1.287131
518.30 1.284817
518.40 1.284047
518.50 1.284675
518.60 1.284675
518.70 1.284675
518.80 1.285941
518.90 1.29043
519.00 1.298812
519.10 1.310847
519.20 1.326024
519.30 1.34311
519.40 1.359861
519.50 1.375856
519.60 1.390387
519.70 1.40302
519.80 1.413652
519.90 1.422363
520.00 1.428827
520.10 1.431694
520.20 1.42974
520.30 1.423105
520.40 1.412309
520.50 1.397034
520.60 1.376523
520.70 1.351054
520.80 1.321787
520.90 1.290485
521.00 1.260001
521.10 1.233566
521.20 1.213169
521.30 1.198709
521.40 1.188714
521.50 1.181363
521.60 1.175177
521.70 1.169589
521.80 1.164282
521.90 1.158852
522.00 1.155017
522.10 1.152946
522.20 1.152241
522.30 1.152676
522.40 1.154194
522.50 1.157032
522.60 1.162608
522.70 1.170539
522.80 1.182118
522.90 1.198305
523.00 1.218919
523.10 1.241762
523.20 1.263363
523.30 1.280615
523.40 1.292435
523.50 1.299982
523.60 1.305306
523.70 1.310262
523.80 1.316542
523.90 1.326473
524.00 1.342282
524.10 1.360926
524.20 1.37817
524.30 1.390033
524.40 1.394498
524.50 1.391976
524.60 1.384642
524.70 1.375354
524.80 1.366335
524.90 1.358896
525.00 1.354412
525.10 1.35392
525.20 1.357524
525.30 1.364149
525.40 1.371308
525.50 1.376701
525.60 1.379716
525.70 1.380612
525.80 1.378967
525.90 1.373199
526.00 1.362171
526.10 1.346443
526.20 1.327393
526.30 1.306039
526.40 1.28347
526.50 1.26193
526.60 1.244399
526.70 1.233043
526.80 1.228221
526.90 1.228829
527.00 1.232764
527.10 1.237253
527.20 1.239792
527.30 1.239748
527.40 1.237742
527.50 1.234112
527.60 1.229072
527.70 1.222595
527.80 1.214884
527.90 1.208211
528.00 1.201405
528.10 1.193983
528.20 1.18652
528.30 1.180284
528.40 1.176386
528.50 1.174982
528.60 1.176795
528.70 1.18382
528.80 1.194689
528.90 1.206948
529.00 1.218631
529.10 1.228149
529.20 1.234772
529.30 1.238605
529.40 1.240348
529.50 1.240996
529.60 1.241674
529.70 1.243223
529.80 1.245913
529.90 1.249788
530.00 1.254956
530.10 1.261301
530.20 1.268187
530.30 1.274191
530.40 1.278023
530.50 1.280171
530.60 1.282399
530.70 1.286304
530.80 1.292943
530.90 1.302883
531.00 1.316111
531.10 1.331556
531.20 1.347235
531.30 1.361258
531.40 1.372051
531.50 1.378423
531.60 1.379725
531.70 1.379725
531.80 1.379725
531.90 1.379725
532.00 1.378075
532.10 1.374667
532.20 1.370348
532.30 1.36592
532.40 1.361526
532.50 1.356934
532.60 1.351359
532.70 1.345117
532.80 1.336828
532.90 1.325832
533.00 1.313128
533.10 1.301926
533.20 1.297027
533.30 1.302208
533.40 1.317904
533.50 1.341598
533.60 1.369018
533.70 1.39525
533.80 1.416123
533.90 1.427618
534.00 1.425991
534.10 1.410623
534.20 1.38501
534.30 1.358833
534.40 1.335078
534.50 1.315087
534.60 1.299104
534.70 1.286957
534.80 1.278419
534.90 1.272928
535.00 1.268866
535.10 1.268513
535.20 1.269838
535.30 1.270939
535.40 1.27132
535.50 1.270476
535.60 1.267188
535.70 1.26068
535.80 1.251933
535.90 1.243904
536.00 1.239376
536.10 1.238449
536.20 1.238559
536.30 1.235847
536.40 1.226513
536.50 1.210556
536.60 1.191957
536.70 1.170487
536.80 1.146618
536.90 1.121201
537.00 1.095454
537.10 1.071015
537.20 1.049626
537.30 1.031912
537.40 1.01772
537.50 1.007131
537.60 1.000107
537.70 0.9968212
537.80 0.9968212
537.90 0.9968212
538.00 0.9981243
538.10 0.9983438
538.20 0.9983438
538.30 0.9983438
538.40 0.9983438
538.50 0.9983438
538.60 0.9965315
538.70 0.9895065
538.80 0.9773714
538.90 0.9606235
539.00 0.9405589
539.10 0.9190058
539.20 0.8972052
539.30 0.876049
539.40 0.8561963
539.50 0.8377926
539.60 0.820671
539.70 0.8070933
539.80 0.7972103
539.90 0.7896202
540.00 0.7829403
540.10 0.7773788
540.20 0.7739771
540.30 0.7737435
540.40 0.7767781
540.50 0.781683
540.60 0.7868842
540.70 0.7918827
540.80 0.7963573
540.90 0.7996138
541.00 0.8010825
541.10 0.8007908
541.20 0.8000489
541.30 0.8013888
541.40 0.8073184
541.50 0.8192067
541.60 0.8370727
541.70 0.8548608
541.80 0.8689904
541.90 0.8786027
542.00 0.8829991
542.10 0.8829991
542.20 0.8829991
542.30 0.8829991
542.40 0.8829991
542.50 0.8829991
542.60 0.8829991
542.70 0.8813095
542.80 0.8780193
542.90 0.8728281
543.00 0.8649186
543.10 0.8532779
543.20 0.8365761
543.30 0.8159171
543.40 0.7926738
543.50 0.7682192
543.60 0.7443743
543.70 0.723314
543.80 0.7070221
543.90 0.6977024
544.00 0.6979109
544.10 0.7089056
544.20 0.7295518
544.30 0.75309
544.40 0.7789061
544.50 0.806751
544.60 0.8363624
544.70 0.8673312
544.80 0.8989477
544.90 0.9306275
545.00 0.9624654
545.10 0.990774
545.20 1.016167
545.30 1.038905
545.40 1.058295
545.50 1.073795
545.60 1.085677
545.70 1.094537
545.80 1.100053
545.90 1.101234
546.00 1.097789
546.10 1.090411
546.20 1.081078
546.30 1.07302
546.40 1.069239
546.50 1.069239
546.60 1.069239
546.70 1.069239
546.80 1.069239
546.90 1.071462
547.00 1.076697
547.10 1.085145
547.20 1.096333
547.30 1.108896
547.40 1.120939
547.50 1.131345
547.60 1.140134
547.70 1.147574
547.80 1.154307
547.90 1.161324
548.00 1.168628
548.10 1.180435
548.20 1.197459
548.30 1.219918
548.40 1.246355
548.50 1.27324
548.60 1.296333
548.70 1.31179
548.80 1.316568
548.90 1.316568
549.00 1.316568
549.10 1.316568
549.20 1.316568
549.30 1.316568
549.40 1.316568
549.50 1.316568
549.60 1.316568
549.70 1.313766
549.80 1.307083
549.90 1.296581
550.00 1.597692
550.10 1.618812
550.20 1.646782
550.30 1.673755
550.40 1.693178
550.50 1.702228
550.60 1.701954
550.70 1.695234
550.80 1.684914
550.90 1.672193
551.00 1.657732
551.10 1.643893
551.20 1.634396
551.30 1.631698
551.40 1.63325
551.50 1.630849
551.60 1.614553
551.70 1.575774
551.80 1.508679
551.90 1.42948
552.00 1.349885
552.10 1.267714
552.20 1.181495
552.30 1.093131
552.40 1.007139
552.50 0.9284499
552.60 0.859549
552.70 0.8002407
552.80 0.750342
552.90 0.7097294
553.00 0.6770785
553.10 0.659646
553.20 0.6591028
553.30 0.6718935
553.40 0.6941949
553.50 0.7218477
553.60 0.7512886
553.70 0.7813616
553.80 0.8088239
553.90 0.8254221
554.00 0.8278049
554.10 0.8150382
554.20 0.788556
554.30 0.7571474
554.40 0.7270417
554.50 0.7010264
554.60 0.6790541
554.70 0.6604533
554.80 0.6436205
554.90 0.6260774
555.00 0.6045597
555.10 0.5744952
555.20 0.5319332
555.30 0.4757859
555.40 0.4096941
555.50 0.3424824
555.60 0.2847499
555.70 0.2461072
555.80 0.2341604
555.90 0.2341604
556.00 0.2341604
556.10 0.2341604
556.20 0.2555123
556.30 0.2982231
556.40 0.3423742
556.50 0.3762145
556.60 0.4048489
556.70 0.4434906
556.80 0.5043301
556.90 0.5897843
557.00 0.6959393
557.10 0.8091796
557.20 0.9196239
557.30 1.020246
557.40 1.103634
557.50 1.161448
557.60 1.187671
557.70 1.183245
557.80 1.156085
557.90 1.13393
558.00 1.11846
558.10 1.110106
558.20 1.108618
558.30 1.118967
558.40 1.145063
558.50 1.180103
558.60 1.214758
558.70 1.239909
558.80 1.250585
558.90 1.250585
559.00 1.250585
559.10 1.250585
559.20 1.250585
559.30 1.250585
559.40 1.250585
559.50 1.250585
559.60 1.250585
559.70 1.250585
559.80 1.250585
559.90 1.258445
560.00 1.274836
560.10 1.29904
560.20 1.308394
560.30 1.299467
560.40 1.288207
560.50 1.284234
560.60 1.283793
560.70 1.275303
560.80 1.2498
560.90 1.206102
561.00 1.148569
561.10 1.083212
561.20 1.016411
561.30 0.9534125
561.40 0.9007773
561.50 0.8660502
561.60 0.8525308
561.70 0.8590646
561.80 0.8808131
561.90 0.8922547
562.00 0.8922547
562.10 0.8922547
562.20 0.8922547
562.30 0.8819062
562.40 0.8558103
562.50 0.8207693
562.60 0.7861144
562.70 0.7609636
562.80 0.7502882
562.90 0.7502882
563.00 0.7504135
563.10 0.7540131
563.20 0.7561387
563.30 0.7561387
563.40 0.7561387
563.50 0.7561387
563.60 0.7561387
563.70 0.7561387
563.80 0.7561387
563.90 0.7482783
564.00 0.7318877
564.10 0.7076837
564.20 0.6769778
564.30 0.643194
564.40 0.6103028
564.50 0.5827182
564.60 0.5619512
564.70 0.5408718
564.80 0.5119667
564.90 0.4730829
565.00 0.4260601
565.10 0.3745174
565.20 0.3262852
565.30 0.2914755
565.40 0.2753655
565.50 0.2772758
565.60 0.2932595
565.70 0.3175536
565.80 0.3426126
565.90 0.3615
566.00 0.3721406
566.10 0.3721406
566.20 0.3721406
566.30 0.3721406
566.40 0.3721406
566.50 0.3721406
566.60 0.3721406
566.70 0.3721406
566.80 0.3721406
566.90 0.3769715
567.00 0.3988661
567.10 0.4359778
567.20 0.4914061
567.30 0.5597788
567.40 0.6303341
567.50 0.6955204
567.60 0.7493916
567.70 0.7876874
567.80 0.8095518
567.90 0.8173562
568.00 0.8173562
568.10 0.8173562
568.20 0.8173562
568.30 0.8173562
568.40 0.8173562
568.50 0.815073
568.60 0.8076471
568.70 0.7985745
568.80 0.7921427
568.90 0.7892706
569.00 0.7876713
569.10 0.7837846
569.20 0.7720713
569.30 0.7468602
569.40 0.7063988
569.50 0.6546387
569.60 0.6215213
569.70 0.6131931
569.80 0.6333577
569.90 0.681431
570.00 0.7514541
570.10 0.8267958
570.20 0.890048
570.30 0.9381684
570.40 0.9731994
570.50 0.999648
570.60 1.022991
570.70 1.050101
570.80 1.089393
570.90 1.143032
571.00 1.200175
571.10 1.255037
571.20 1.301753
571.30 1.336857
571.40 1.359679
571.50 1.370844
571.60 1.373494
571.70 1.373025
571.80 1.374338
571.90 1.380223
572.00 1.388598
572.10 1.395096
572.20 1.402556
572.30 1.412028
572.40 1.42234
572.50 1.431561
572.60 1.437012
572.70 1.437012
572.80 1.437012
572.90 1.437012
573.00 1.437012
573.10 1.437012
573.20 1.437012
573.30 1.437012
573.40 1.437012
573.50 1.438621
573.60 1.429291
573.70 1.402655
573.80 1.355839
573.90 1.291754
574.00 1.217322
574.10 1.14198
574.20 1.078728
574.30 1.030608
574.40 1.002137
574.50 0.9929719
574.60 0.995159
574.70 0.9963814
574.80 0.9838474
574.90 0.9493847
575.00 0.8926588
575.10 0.8195188
575.20 0.739314
575.30 0.6621742
575.40 0.5952742
575.50 0.5425964
575.60 0.5056511
575.70 0.4820473
575.80 0.4646559
575.90 0.4509666
576.00 0.4425913
576.10 0.4360937
576.20 0.4286333
576.30 0.4191614
576.40 0.4088496
576.50 0.3996287
576.60 0.3941774
576.70 0.3941774
576.80 0.3941774
576.90 0.3941774
577.00 0.3941774
577.10 0.3941774
577.20 0.3941774
577.30 0.3941774
577.40 0.3941774
577.50 0.3916781
577.60 0.3759971
577.70 0.3544863
577.80 0.3393351
577.90 0.338486
578.00 0.3547896
578.10 0.3861863
578.20 0.4269969
578.30 0.4781149
578.40 0.5329948
578.50 0.5860699
578.60 0.637427
578.70 0.6899613
578.80 0.7448776
578.90 0.8012962
579.00 0.8578222
579.10 0.9130119
579.20 0.9656579
579.30 1.015389
579.40 1.063034
579.50 1.109184
579.60 1.153261
579.70 1.196292
579.80 1.241798
579.90 1.286561
580.00 1.323134
580.10 1.350375
580.20 1.369698
580.30 1.384577
580.40 1.399169
580.50 1.4188
580.60 1.450087
580.70 1.498404
580.80 1.566141
580.90 1.65228
581.00 1.751432
581.10 1.853442
581.20 1.94457
581.30 2.011677
581.40 2.046736
581.50 2.048074
581.60 2.048074
581.70 2.048074
581.80 2.042767
581.90 2.029299
582.00 2.006764
582.10 1.975367
582.20 1.934556
582.30 1.883438
582.40 1.827938
582.50 1.776557
582.60 1.729375
582.70 1.687365
582.80 1.651564
582.90 1.621527
583.00 1.595567
583.10 1.572386
583.20 1.550167
583.30 1.526763
583.40 1.50189
583.50 1.477622
583.60 1.457873
583.70 1.446947
583.80 1.449892
583.90 1.473697
584.00 1.524417
584.10 1.603456
584.20 1.704431
584.30 1.812856
584.40 1.910862
584.50 1.982507
584.60 2.014963
584.70 2.000688
584.80 1.938798
584.90 1.852659
585.00 1.753506
585.10 1.651497
585.20 1.560368
585.30 1.493262
585.40 1.458203
585.50 1.456865
585.60 1.456865
585.70 1.456865
585.80 1.456865
585.90 1.456865
586.00 1.456865
586.10 1.456865
586.20 1.456865
586.30 1.456865
586.40 1.450924
586.50 1.431947
586.60 1.402242
586.70 1.363386
586.80 1.317512
586.90 1.267123
587.00 1.21412
587.10 1.159678
587.20 1.105186
587.30 1.052522
587.40 1.003273
587.50 0.9676379
587.60 0.9506613
587.70 0.9512488
587.80 0.9665768
587.90 0.9895107
588.00 1.008609
588.10 1.009965
588.20 0.9786322
588.30 0.9079372
588.40 0.8050782
588.50 0.7138016
588.60 0.650059
588.70 0.6160171
588.80 0.6101703
588.90 0.6101703
589.00 0.6101703
589.10 0.6101703
589.20 0.6101703
589.30 0.6101703
589.40 0.6101703
589.50 0.618726
589.60 0.6492578
589.70 0.7021948
589.80 0.7746169
589.90 0.8589504
590.00 0.9426397
590.10 1.013065
590.20 1.062325
590.30 1.087424
590.40 1.089179
590.50 1.089179
590.60 1.089179
590.70 1.089179
590.80 1.089179
590.90 1.089179
591.00 1.089179
591.10 1.089179
591.20 1.089179
591.30 1.089179
591.40 1.089179
591.50 1.079258
591.60 1.052331
591.70 1.005416
591.80 0.9358505
591.90 0.8443494
592.00 0.7379569
592.10 0.6303219
592.20 0.5413565
592.30 0.4887471
592.40 0.4790085
592.50 0.4790085
592.60 0.4790085
592.70 0.4790085
592.80 0.4790085
592.90 0.4790085
593.00 0.4790085
593.10 0.4790085
593.20 0.4820034
593.30 0.486183
593.40 0.4896749
593.50 0.4836548
593.60 0.4555894
593.70 0.4047238
593.80 0.3323017
593.90 0.2479682
594.00 0.1642788
594.10 0.093854
594.20 0.04459397
594.30 0.01949479
594.40 0.0177398
594.50 0.0177398
594.60 0.0177398
594.70 0.0177398
594.80 0.0177398
594.90 0.01896355
595.00 0.0482944
595.10 0.1029298
595.20 0.1768745
595.30 0.2618724
595.40 0.3491488
595.50 0.431845
595.60 0.5068845
595.70 0.5745749
595.80 0.6367406
595.90 0.6958968
596.00 0.7551324
596.10 0.8173234
596.20 0.8819124
596.30 0.942607
596.40 0.9912685
596.50 1.021957
596.60 1.032956
596.70 1.032956
596.80 1.032956
596.90 1.032956
597.00 1.032956
597.10 1.032956
597.20 1.029961
597.30 1.025781
597.40 1.022289
597.50 1.019754
597.60 1.017287
597.70 1.015216
597.80 1.015216
597.90 1.015216
598.00 1.015216
598.10 1.015216
598.20 1.015216
598.30 1.015216
598.40 1.015216
598.50 1.015216
598.60 1.015216
598.70 1.015216
598.80 1.015216
598.90 1.013992
599.00 0.9846613
599.10 0.9300258
599.20 0.8560812
599.30 0.7710832
599.40 0.6838069
599.50 0.6011106
599.60 0.5340268
599.70 0.4936848
599.80 0.477689
599.90 0.4799087
600.00 0
600.10 0
600.20 0
600.30 0
600.40 0
600.50 0
600.60 0
600.70 0
600.80 0
600.90 0
601.00 0
601.10 0
601.20 0
601.30 0
601.40 0
601.50 0
601.60 0.3182247
601.70 1.093938
601.80 1.846796
601.90 2.455035
602.00 2.810288
602.10 2.825731
602.20 2.448521
602.30 1.766109
602.40 1.025557
602.50 0.4565735
602.60 0.1589916
602.70 0.1096842
602.80 0.2348463
602.90 0.4184789
603.00 0.5136033
603.10 0.4309293
603.20 0.1463939
603.30 0
603.40 0
603.50 0
603.60 0
603.70 0
603.80 0
603.90 0
604.00 0
604.10 0
604.20 0
604.30 0
604.40 0
604.50 0
604.60 0
604.70 0
604.80 0
604.90 0
605.00 0.2307558
605.10 0.6254149
605.20 0.8197992
605.30 0.790109
605.40 0.5369688
605.50 0.04462411
605.60 0
605.70 0
605.80 0
605.90 0
606.00 0
606.10 0
606.20 0
606.30 0
606.40 0
606.50 0
606.60 0.6250298
606.70 1.073674
606.80 1.283169
606.90 1.263198
607.00 1.040506
607.10 0.7097024
607.20 0.3747553
607.30 0.07273162
607.40 0
607.50 0
607.60 0
607.70 0
607.80 0
607.90 0
608.00 0
608.10 0
608.20 0
608.30 0
608.40 0.1484716
608.50 0.7232312
608.60 1.278096
608.70 1.726497
608.80 2.024714
608.90 2.150387
609.00 2.147702
609.10 2.14793
609.20 2.291553
609.30 2.589286
609.40 2.926033
609.50 3.226934
609.60 3.431961
609.70 3.443417
609.80 3.191484
609.90 2.66284
610.00 1.930752
610.10 1.126544
610.20 0.3453444
610.30 0
610.40 0
610.50 0
610.60 0
610.70 0
610.80 0
610.90 0
611.00 0
611.10 0
611.20 0
611.30 0.3124992
611.40 0.8728698
611.50 1.138806
611.60 1.072788
611.70 0.7148334
611.80 0.1408824
611.90 0
612.00 0
612.10 0
612.20 0
612.30 0
612.40 0
612.50 0
612.60 0
612.70 0
612.80 0
612.90 0
613.00 0
613.10 0
613.20 0
613.30 0
613.40 0
613.50 0
613.60 0
613.70 0
613.80 0
613.90 0
614.00 0
614.10 0
614.20 0
614.30 0.1405364
614.40 0.3216603
614.50 0.5295684
614.60 0.7626097
614.70 0.99326
614.80 1.195542
614.90 1.361064
615.00 1.484779
615.10 1.532757
615.20 1.442724
615.30 1.204592
615.40 0.8266872
615.50 0.3093274
615.60 0
615.70 0
615.80 0
615.90 0
616.00 0
616.10 0
616.20 0
616.30 0
616.40 0
616.50 0
616.60 0
616.70 0
616.80 0
616.90 0
617.00 0
617.10 0
617.20 0
617.30 0
617.40 0
617.50 0
617.60 0.4987332
617.70 1.10186
617.80 1.663156
617.90 2.047139
618.00 2.201973
618.10 2.14358
618.20 1.940668
618.30 1.698764
618.40 1.459139
618.50 1.212669
618.60 0.9644368
618.70 0.7356578
618.80 0.5895748
618.90 0.5917159
619.00 0.7739159
619.10 1.087919
619.20 1.48314
619.30 1.973261
619.40 2.506311
619.50 2.999952
619.60 3.38484
619.70 3.607561
619.80 3.671235
619.90 3.610035
620.00 3.457407
620.10 3.244787
620.20 3.008463
620.30 2.793041
620.40 2.607074
620.50 2.45108
620.60 2.337635
620.70 2.25722
620.80 2.219563
620.90 2.218498
621.00 2.187272
621.10 2.035741
621.20 1.735486
621.30 1.340295
621.40 0.9117713
621.50 0.4906841
621.60 0.1316013
621.70 0
621.80 0
621.90 0.2006667
622.00 0.620808
622.10 1.137481
622.20 1.654702
622.30 2.111784
622.40 2.482935
622.50 2.727004
622.60 2.797541
622.70 2.646282
622.80 2.288888
622.90 1.81201
623.00 1.263865
623.10 0.6312646
623.20 0
623.30 0
623.40 0
623.50 0
623.60 0
623.70 0
623.80 0
623.90 0
624.00 0
624.10 0
624.20 0
624.30 0.001727464
624.40 0.1639765
624.50 0.2806999
624.60 0.2989354
624.70 0.1689642
624.80 0
624.90 0
625.00 0
625.10 0
625.20 0
625.30 0
625.40 0
625.50 0
625.60 0
625.70 0
625.80 0
625.90 0
626.00 0.9929231
626.10 1.867825
626.20 2.450383
626.30 2.614202
626.40 2.347446
626.50 1.78737
626.60 1.157731
626.70 0.5820898
626.80 0.1053566
626.90 0
627.00 0
627.10 0
627.20 0
627.30 0
627.40 0
627.50 0
627.60 0
627.70 0
627.80 0
627.90 0.4378392
628.00 1.367789
628.10 2.204263
628.20 2.883654
628.30 3.362721
628.40 3.60229
628.50 3.588343
628.60 3.404995
628.70 3.151301
628.80 2.880328
628.90 2.617963
629.00 2.395958
629.10 2.235817
629.20 2.116949
629.30 1.997705
629.40 1.810369
629.50 1.441767
629.60 0.8552688
629.70 0.2698145
629.80 0.01573249
629.90 0.2770773
630.00 1.060734
630.10 2.220378
630.20 3.433308
630.30 4.380061
630.40 4.849976
630.50 4.728542
630.60 4.069949
630.70 3.054008
630.80 1.941756
630.90 1.032159
631.00 0.525374
631.10 0.379379
631.20 0.401264
631.30 0.4515999
631.40 0.4110972
631.50 0.2242671
631.60 0.0516612
631.70 0.07808393
631.80 0.3424963
631.90 0.8128536
632.00 1.400014
632.10 1.969011
632.20 2.405029
632.30 2.669174
632.40 2.751161
632.50 2.627959
632.60 2.323372
632.70 1.945819
632.80 1.621877
632.90 1.417621
633.00 1.336812
633.10 1.341118
633.20 1.401532
633.30 1.48354
633.40 1.510386
633.50 1.4501
633.60 1.323208
633.70 1.150395
633.80 0.9403967
633.90 0.6975012
634.00 0.4720595
634.10 0.3015189
634.20 0.2026516
634.30 0.1694027
634.40 0.1630326
634.50 0.1794171
634.60 0.2160315
634.70 0.2817299
634.80 0.4186937
634.90 0.6245604
635.00 0.8398256
635.10 1.003109
635.20 1.110429
635.30 1.200327
635.40 1.309851
635.50 1.46654
635.60 1.673195
635.70 1.956121
635.80 2.32759
635.90 2.72011
636.00 3.035623
636.10 3.183443
636.20 3.12447
636.30 2.940071
636.40 2.759465
636.50 2.634361
636.60 2.569766
636.70 2.58783
636.80 2.657111
636.90 2.686248
637.00 2.602577
637.10 2.360731
637.20 1.95959
637.30 1.470678
637.40 1.029104
637.50 0.7846499
637.60 0.805878
637.70 1.028111
637.80 1.363253
637.90 1.781794
638.00 2.248761
638.10 2.697053
638.20 3.065723
638.30 3.315882
638.40 3.454913
638.50 3.518724
638.60 3.549566
638.70 3.580586
638.80 3.602721
638.90 3.585836
639.00 3.530367
639.10 3.44221
639.20 3.292559
639.30 3.06637
639.40 2.805693
639.50 2.569161
639.60 2.367132
639.70 2.185682
639.80 2.005394
639.90 1.805793
640.00 1.591689
640.10 1.368214
640.20 1.117414
640.30 0.8261415
640.40 0.510268
640.50 0.2177506
640.60 0
640.70 0
640.80 0
640.90 0
641.00 0.1671787
641.10 0.4410456
641.20 0.7734145
641.30 1.14983
641.40 1.519116
641.50 1.809153
641.60 1.982845
641.70 2.026302
641.80 1.951276
641.90 1.773452
642.00 1.502785
642.10 1.160663
642.20 0.7864613
642.30 0.4361003
642.40 0.1789857
642.50 0.08887276
642.60 0.2046456
642.70 0.5132312
642.80 0.9819113
642.90 1.568842
643.00 2.200432
643.10 2.767859
643.20 3.15557
643.30 3.329437
643.40 3.329951
643.50 3.212442
643.60 3.03619
643.70 2.853588
643.80 2.713813
643.90 2.657893
644.00 2.677882
644.10 2.719676
644.20 2.724614
644.30 2.644152
644.40 2.459378
644.50 2.202851
644.60 1.960449
644.70 1.812426
644.80 1.81463
644.90 1.971281
645.00 2.207071
645.10 2.416755
645.20 2.542356
645.30 2.543663
645.40 2.406542
645.50 2.186447
645.60 1.946015
645.70 1.760351
645.80 1.745558
645.90 1.965878
646.00 2.365259
646.10 2.839671
646.20 3.27355
646.30 3.601569
646.40 3.821461
646.50 3.951725
646.60 3.977652
646.70 3.878619
646.80 3.667038
646.90 3.33362
647.00 2.913912
647.10 2.493209
647.20 2.085572
647.30 1.659144
647.40 1.234291
647.50 0.8927828
647.60 0.7624832
647.70 0.906986
647.80 1.281534
647.90 1.822627
648.00 2.466494
648.10 3.138579
648.20 3.763093
648.30 4.302469
648.40 4.727508
648.50 4.999842
648.60 5.134494
648.70 5.204856
648.80 5.265557
648.90 5.27122
649.00 5.142615
649.10 4.89016
649.20 4.586978
649.30 4.27223
649.40 3.943407
649.50 3.564208
649.60 3.123315
649.70 2.669139
649.80 2.230072
649.90 1.81609
650.00 1.475309
650.10 1.28209
650.20 1.316808
650.30 1.654431
650.40 2.295411
650.50 3.129859
650.60 3.996174
650.70 4.744844
650.80 5.26584
650.90 5.522955
651.00 5.521937
651.10 5.271929
651.20 4.851161
651.30 4.373497
651.40 3.922241
651.50 3.584191
651.60 3.374661
651.70 3.218549
651.80 3.061557
651.90 2.892699
652.00 2.748049
652.10 2.690466
652.20 2.744748
652.30 2.890893
652.40 3.107064
652.50 3.369006
652.60 3.642418
652.70 3.902073
652.80 4.111152
652.90 4.190051
653.00 4.144235
653.10 4.089752
653.20 4.090243
653.30 4.1156
653.40 4.101253
653.50 3.989182
653.60 3.767717
653.70 3.484425
653.80 3.200886
653.90 2.982849
654.00 2.854391
654.10 2.832144
654.20 2.952392
654.30 3.227804
654.40 3.633031
654.50 4.100328
654.60 4.57413
654.70 5.026069
654.80 5.423507
654.90 5.731434
655.00 5.91006
655.10 5.964736
655.20 5.94644
655.30 5.869891
655.40 5.760571
655.50 5.627294
655.60 5.448288
655.70 5.227636
655.80 4.949669
655.90 4.588427
656.00 4.170189
656.10 3.791303
656.20 3.563706
656.30 3.542484
656.40 3.75185
656.50 4.140838
656.60 4.5894
656.70 5.017651
656.80 5.369097
656.90 5.598635
657.00 5.702839
657.10 5.708817
657.20 5.645595
657.30 5.547335
657.40 5.442476
657.50 5.320416
657.60 5.169676
657.70 5.025313
657.80 4.910503
657.90 4.838258
658.00 4.831652
658.10 4.901086
658.20 5.053207
658.30 5.282042
658.40 5.56477
658.50 5.853572
658.60 6.083326
658.70 6.17701
658.80 6.083579
658.90 5.864575
659.00 5.655855
659.10 5.566774
659.20 5.668604
659.30 5.98863
659.40 6.500126
659.50 7.124514
659.60 7.745307
659.70 8.217596
659.80 8.393508
659.90 8.171617
660.00 7.570269
660.10 6.777049
660.20 6.026439
660.30 5.456381
660.40 5.103652
660.50 4.941577
660.60 4.920878
660.70 5.017413
660.80 5.189988
660.90 5.367446
661.00 5.492268
661.10 5.5538
661.20 5.586345
661.30 5.62595
661.40 5.680824
661.50 5.706836
661.60 5.640797
661.70 5.444408
661.80 5.124126
661.90 4.756287
662.00 4.465029
662.10 4.347965
662.20 4.467258
662.30 4.836465
662.40 5.390677
662.50 5.999599
662.60 6.505469
662.70 6.814685
662.80 6.940401
662.90 6.942603
663.00 6.883263
663.10 6.821041
663.20 6.785388
663.30 6.73923
663.40 6.614305
663.50 6.345516
663.60 5.92357
663.70 5.417139
663.80 4.918756
663.90 4.54792
664.00 4.387133
664.10 4.443611
664.20 4.676372
664.30 4.996658
664.40 5.296207
664.50 5.518428
664.60 5.680181
664.70 5.828462
664.80 5.98938
664.90 6.172735
665.00 6.369651
665.10 6.540518
665.20 6.649454
665.30 6.676039
665.40 6.640857
665.50 6.592977
665.60 6.572786
665.70 6.611244
665.80 6.720217
665.90 6.832277
666.00 6.829084
666.10 6.657484
666.20 6.365194
666.30 6.040858
666.40 5.742876
666.50 5.532627
666.60 5.475517
666.70 5.586408
666.80 5.839632
666.90 6.20138
667.00 6.62448
667.10 7.027884
667.20 7.348332
667.30 7.600338
667.40 7.837406
667.50 8.072468
667.60 8.272759
667.70 8.396937
667.80 8.433249
667.90 8.405077
668.00 8.356838
668.10 8.345237
668.20 8.427904
668.30 8.641576
668.40 8.975489
668.50 9.405305
668.60 9.87255
668.70 10.25431
668.80 10.42625
668.90 10.33597
669.00 9.992418
669.10 9.46325
669.20 8.867242
669.30 8.304416
669.40 7.858667
669.50 7.594223
669.60 7.512716
669.70 7.564768
669.80 7.690182
669.90 7.81629
670.00 7.903847
670.10 7.958
670.20 7.952002
670.30 7.870218
670.40 7.78048
670.50 7.791986
670.60 7.98673
670.70 8.37918
670.80 8.916343
670.90 9.500413
671.00 10.02701
671.10 10.40394
671.20 10.56654
671.30 10.51667
671.40 10.29724
671.50 9.98274
671.60 9.690157
671.70 9.507574
671.80 9.439358
671.90 9.420057
672.00 9.36319
672.10 9.22175
672.20 9.004122
672.30 8.766968
672.40 8.591845
672.50 8.514512
672.60 8.49896
672.70 8.47899
672.80 8.418479
672.90 8.335161
673.00 8.308247
673.10 8.425775
673.20 8.694642
673.30 9.052838
673.40 9.419352
673.50 9.710768
673.60 9.849811
673.70 9.779174
673.80 9.466946
673.90 8.987147
674.00 8.493762
674.10 8.130556
674.20 8.006557
674.30 8.163542
674.40 8.556258
674.50 9.091866
674.60 9.712432
674.70 10.3375
674.80 10.85353
674.90 11.16279
675.00 11.17778
675.10 10.87931
675.20 10.35647
675.30 9.74157
675.40 9.175471
675.50 8.7732
675.60 8.564766
675.70 8.512395
675.80 8.552491
675.90 8.607313
676.00 8.589313
676.10 8.477931
676.20 8.322438
676.30 8.20157
676.40 8.165913
676.50 8.227074
676.60 8.414822
676.70 8.720409
676.80 9.088958
676.90 9.461508
677.00 9.771597
677.10 9.959309
677.20 10.03353
677.30 10.06342
677.40 10.10684
677.50 10.18498
677.60 10.27292
677.70 10.32302
677.80 10.3508
677.90 10.40918
678.00 10.48393
678.10 10.52755
678.20 10.48482
678.30 10.30339
678.40 10.00734
678.50 9.681198
678.60 9.390486
678.70 9.167993
678.80 9.046621
678.90 9.072163
679.00 9.285686
679.10 9.70095
679.20 10.25918
679.30 10.81819
679.40 11.21719
679.50 11.33775
679.60 11.14677
679.70 10.70456
679.80 10.15039
679.90 9.688352
680.00 9.441039
680.10 9.420936
680.20 9.593568
680.30 9.906028
680.40 10.31598
680.50 10.73439
680.60 11.05439
680.70 11.1997
680.80 11.15365
680.90 10.94482
681.00 10.60667
681.10 10.21223
681.20 9.827402
681.30 9.43727
681.40 9.049955
681.50 8.718991
681.60 8.524623
681.70 8.548053
681.80 8.821198
681.90 9.359884
682.00 10.10568
682.10 10.92845
682.20 11.69602
682.30 12.30498
682.40 12.67645
682.50 12.63203
682.60 12.03951
682.70 10.99797
682.80 9.723996
682.90 8.498068
683.00 7.537645
683.10 6.950989
683.20 6.800355
683.30 7.077312
683.40 7.72572
683.50 8.632239
683.60 9.618234
683.70 10.49139
683.80 11.10633
683.90 11.48401
684.00 11.69921
684.10 11.75132
684.20 11.66841
684.30 11.49852
684.40 11.33333
684.50 11.27699
684.60 11.32367
684.70 11.3929
684.80 11.41782
684.90 11.37758
685.00 11.26732
685.10 11.07275
685.20 10.79747
685.30 10.4946
685.40 10.22845
685.50 10.03524
685.60 9.900685
685.70 9.787155
685.80 9.648851
685.90 9.442405
686.00 9.203847
686.10 9.019666
686.20 8.950194
686.30 9.044892
686.40 9.329597
686.50 9.778793
686.60 10.32016
686.70 10.85176
686.80 11.3093
686.90 11.67745
687.00 11.98816
687.10 12.22455
687.20 12.32838
687.30 12.28623
687.40 12.09366
687.50 11.77243
687.60 11.39405
687.70 11.0276
687.80 10.72933
687.90 10.57682
688.00 10.63401
688.10 10.9125
688.20 11.34385
688.30 11.7831
688.40 12.04406
688.50 12.05161
688.60 11.86738
688.70 11.56407
688.80 11.19092
688.90 10.78272
689.00 10.36202
689.10 9.949975
689.20 9.590218
689.30 9.312628
689.40 9.121676
689.50 9.022906
689.60 9.001414
689.70 9.015724
689.80 9.057311
689.90 9.121095
690.00 9.165748
690.10 9.172561
690.20 9.177336
690.30 9.232492
690.40 9.420725
690.50 9.811262
690.60 10.37076
690.70 10.99726
690.80 11.59489
690.90 12.09689
691.00 12.45624
691.10 12.68427
691.20 12.80963
691.30 12.83141
691.40 12.7403
691.50 12.51756
691.60 12.14862
691.70 11.64959
691.80 11.02267
691.90 10.28264
692.00 9.481496
692.10 8.708168
692.20 8.123854
692.30 7.820037
692.40 7.786129
692.50 8.0195
692.60 8.482788
692.70 9.089213
692.80 9.778405
692.90 10.50141
693.00 11.18738
693.10 11.73016
693.20 12.02292
693.30 12.01748
693.40 11.74714
693.50 11.2892
693.60 10.65815
693.70 9.88263
693.80 9.10612
693.90 8.470976
694.00 8.096653
694.10 8.098009
694.20 8.46633
694.30 9.077393
694.40 9.80204
694.50 10.49442
694.60 11.02412
694.70 11.31313
694.80 11.35334
694.90 11.23727
695.00 11.07731
695.10 10.94736
695.20 10.87235
695.30 10.829
695.40 10.78193
695.50 10.70548
695.60 10.60339
695.70 10.51524
695.80 10.44511
695.90 10.41886
696.00 10.49173
696.10 10.66276
696.20 10.85686
696.30 10.96037
696.40 10.92437
696.50 10.734
696.60 10.41093
696.70 10.06703
696.80 9.830903
696.90 9.767239
697.00 9.850138
697.10 10.00252
697.20 10.15678
697.30 10.24667
697.40 10.19901
697.50 10.016
697.60 9.783243
697.70 9.562922
697.80 9.372361
697.90 9.266794
698.00 9.288109
698.10 9.393538
698.20 9.508242
698.30 9.576835
698.40 9.613897
698.50 9.662893
698.60 9.757207
698.70 9.91963
698.80 10.15941
698.90 10.44004
699.00 10.69622
699.10 10.9001
699.20 11.04135
699.30 11.11319
699.40 11.09651
699.50 10.96228
699.60 10.73291
699.70 10.4324
699.80 10.05435
699.90 9.628695
700.00 9.193701
700.10 8.804899
700.20 8.512828
700.30 8.309673
700.40 8.172297
700.50 8.11134
700.60 8.154517
700.70 8.296157
700.80 8.529774
700.90 8.848344
701.00 9.177532
701.10 9.467126
701.20 9.740223
701.30 10.01204
701.40 10.267
701.50 10.44553
701.60 10.50878
701.70 10.49843
701.80 10.49669
701.90 10.53567
702.00 10.60333
702.10 10.69565
702.20 10.78083
702.30 10.80683
702.40 10.74436
702.50 10.58804
702.60 10.36029
702.70 10.0942
702.80 9.839265
702.90 9.700824
703.00 9.790345
703.10 10.13029
703.20 10.61554
703.30 11.07741
703.40 11.38579
703.50 11.4914
703.60 11.42219
703.70 11.24211
703.80 11.00839
703.90 10.77363
704.00 10.55663
704.10 10.35159
704.20 10.16763
704.30 9.989155
704.40 9.784013
704.50 9.554899
704.60 9.360449
704.70 9.313045
704.80 9.490955
704.90 9.887275
705.00 10.43784
705.10 11.05899
705.20 11.67738
705.30 12.21733
705.40 12.61595
705.50 12.84667
705.60 12.93202
705.70 12.93414
705.80 12.89453
705.90 12.84001
706.00 12.78701
706.10 12.72435
706.20 12.64827
706.30 12.53554
706.40 12.30775
706.50 11.92619
706.60 11.46101
706.70 11.02141
706.80 10.70728
706.90 10.59566
707.00 10.69261
707.10 10.9469
707.20 11.29367
707.30 11.67758
707.40 12.05637
707.50 12.35886
707.60 12.51094
707.70 12.51277
707.80 12.42389
707.90 12.28929
708.00 12.13478
708.10 11.97732
708.20 11.81743
708.30 11.66954
708.40 11.56475
708.50 11.53304
708.60 11.62459
708.70 11.85962
708.80 12.18094
708.90 12.52269
709.00 12.8388
709.10 13.09762
709.20 13.31702
709.30 13.51217
709.40 13.61333
709.50 13.54148
709.60 13.29877
709.70 12.94051
709.80 12.56262
709.90 12.27216
710.00 12.12307
710.10 12.13195
710.20 12.31569
710.30 12.68642
710.40 13.20827
710.50 13.78031
710.60 14.27938
710.70 14.61108
710.80 14.74792
710.90 14.71882
711.00 14.55942
711.10 14.31047
711.20 14.0174
711.30 13.71359
711.40 13.46569
711.50 13.36086
711.60 13.43737
711.70 13.66207
711.80 13.95758
711.90 14.26092
712.00 14.51224
712.10 14.6476
712.20 14.61366
712.30 14.39148
712.40 14.044
712.50 13.67136
712.60 13.35986
712.70 13.19514
712.80 13.2099
712.90 13.35045
713.00 13.56821
713.10 13.84599
713.20 14.14165
713.30 14.37472
713.40 14.49475
713.50 14.51047
713.60 14.45907
713.70 14.36641
713.80 14.21508
713.90 13.99452
714.00 13.7158
714.10 13.39052
714.20 13.04038
714.30 12.69756
714.40 12.35939
714.50 11.99558
714.60 11.61837
714.70 11.27735
714.80 11.02012
714.90 10.88733
715.00 10.89855
715.10 11.05796
715.20 11.37425
715.30 11.81218
715.40 12.28838
715.50 12.71264
715.60 12.9791
715.70 13.02495
715.80 12.88446
715.90 12.64993
716.00 12.42851
716.10 12.29454
716.20 12.26763
716.30 12.31191
716.40 12.3811
716.50 12.45594
716.60 12.50722
716.70 12.49649
716.80 12.41687
716.90 12.2905
717.00 12.17274
717.10 12.13391
717.20 12.24878
717.30 12.5623
717.40 13.05467
717.50 13.65875
717.60 14.26739
717.70 14.77711
717.80 15.11148
717.90 15.21658
718.00 15.07631
718.10 14.72542
718.20 14.23743
718.30 13.72177
718.40 13.32865
718.50 13.18596
718.60 13.3134
718.70 13.65516
718.80 14.15195
718.90 14.76119
719.00 15.4373
719.10 16.12894
719.20 16.76332
719.30 17.23931
719.40 17.46351
719.50 17.39747
719.60 17.06489
719.70 16.52795
719.80 15.85447
719.90 15.11598
720.00 14.41827
720.10 13.86248
720.20 13.5031
720.30 13.34485
720.40 13.3797
720.50 13.5538
720.60 13.79151
720.70 14.05394
720.80 14.30364
720.90 14.48661
721.00 14.54918
721.10 14.46626
721.20 14.26256
721.30 14.01669
721.40 13.82159
721.50 13.73426
721.60 13.74773
721.70 13.80272
721.80 13.82686
721.90 13.80513
722.00 13.7717
722.10 13.71482
722.20 13.59041
722.30 13.42067
722.40 13.2933
722.50 13.26695
722.60 13.33802
722.70 13.45182
722.80 13.5594
722.90 13.64418
723.00 13.66675
723.10 13.62083
723.20 13.55953
723.30 13.50808
723.40 13.39605
723.50 13.13964
723.60 12.76469
723.70 12.3284
723.80 11.8951
723.90 11.60453
724.00 11.54769
724.10 11.73798
724.20 12.1612
724.30 12.78759
724.40 13.59528
724.50 14.48198
724.60 15.24962
724.70 15.69191
724.80 15.70323
724.90 15.31183
725.00 14.64309
725.10 13.87724
725.20 13.14109
725.30 12.47486
725.40 11.99568
725.50 11.86572
725.60 12.11837
725.70 12.64753
725.80 13.29038
725.90 13.907
726.00 14.40728
726.10 14.7647
726.20 15.02913
726.30 15.24211
726.40 15.33618
726.50 15.21601
726.60 14.88246
726.70 14.42673
726.80 13.91885
726.90 13.39756
727.00 12.93837
727.10 12.63439
727.20 12.54224
727.30 12.698
727.40 13.12503
727.50 13.72098
727.60 14.27697
727.70 14.6397
727.80 14.75563
727.90 14.63544
728.00 14.28561
728.10 13.74421
728.20 13.14204
728.30 12.62094
728.40 12.26261
728.50 12.15264
728.60 12.35391
728.70 12.81154
728.80 13.33757
728.90 13.74767
729.00 13.96104
729.10 13.90888
729.20 13.53332
729.30 12.88112
729.40 12.1634
729.50 11.61412
729.60 11.38806
729.70 11.56044
729.80 12.04932
729.90 12.59647
730.00 12.96439
730.10 13.02689
730.20 12.72764
730.30 12.14725
730.40 11.43486
730.50 10.75881
730.60 10.30243
730.70 10.1765
730.80 10.3619
730.90 10.77504
731.00 11.2516
731.10 11.57093
731.20 11.53443
731.30 11.07514
731.40 10.36052
731.50 9.691584
731.60 9.347923
731.70 9.469836
731.80 10.07716
731.90 11.07821
732.00 12.30553
732.10 13.53522
732.20 14.49906
732.30 14.93388
732.40 14.70114
732.50 13.83626
732.60 12.59251
732.70 11.33469
732.80 10.27146
732.90 9.470741
733.00 8.969163
733.10 8.781076
733.20 8.873524
733.30 9.227637
733.40 9.742244
733.50 10.17769
733.60 10.31548
733.70 10.08794
733.80 9.644979
733.90 9.28507
734.00 9.256994
734.10 9.619459
734.20 10.29609
734.30 11.16199
734.40 12.05271
734.50 12.77431
734.60 13.11781
734.70 12.95212
734.80 12.34598
734.90 11.55547
735.00 10.91599
735.10 10.67415
735.20 10.8135
735.30 11.12907
735.40 11.40947
735.50 11.54296
735.60 11.50942
735.70 11.31486
735.80 11.00675
735.90 10.69014
736.00 10.48971
736.10 10.43271
736.20 10.4466
736.30 10.4506
736.40 10.43814
736.50 10.50649
736.60 10.76405
736.70 11.25434
736.80 11.97224
736.90 12.83831
737.00 13.7025
737.10 14.39874
737.20 14.75128
737.30 14.62406
737.40 14.01648
737.50 13.08712
737.60 12.07919
737.70 11.24103
737.80 10.70215
737.90 10.43649
738.00 10.37363
738.10 10.44919
738.20 10.61539
738.30 10.86433
738.40 11.18228
738.50 11.52571
738.60 11.85948
738.70 12.12304
738.80 12.22746
738.90 12.13823
739.00 11.95748
739.10 11.82024
739.20 11.75115
739.30 11.68697
739.40 11.57711
739.50 11.4704
739.60 11.41911
739.70 11.38928
739.80 11.2817
739.90 11.08436
740.00 10.89994
740.10 10.8406
740.20 10.94568
740.30 11.14568
740.40 11.27218
740.50 11.15578
740.60 10.77122
740.70 10.24754
740.80 9.739199
740.90 9.270969
741.00 8.832645
741.10 8.464984
741.20 8.232951
741.30 8.108139
741.40 7.984798
741.50 7.81314
741.60 7.628662
741.70 7.496518
741.80 7.448315
741.90 7.520141
742.00 7.730313
742.10 8.01693
742.20 8.285739
742.30 8.489274
742.40 8.633094
742.50 8.771381
742.60 8.960959
742.70 9.231225
742.80 9.589615
742.90 9.994488
743.00 10.357
743.10 10.59617
743.20 10.68317
743.30 10.6155
743.40 10.43529
743.50 10.25588
743.60 10.18187
743.70 10.27196
743.80 10.49388
743.90 10.73398
744.00 10.9017
744.10 10.91455
744.20 10.70361
744.30 10.28886
744.40 9.754653
744.50 9.198305
744.60 8.702091
744.70 8.323038
744.80 8.053977
744.90 7.840965
745.00 7.680542
745.10 7.575362
745.20 7.49327
745.30 7.43395
745.40 7.429696
745.50 7.531251
745.60 7.774633
745.70 8.105644
745.80 8.424049
745.90 8.64978
746.00 8.694955
746.10 8.522342
746.20 8.214515
746.30 7.872526
746.40 7.550103
746.50 7.267124
746.60 7.042653
746.70 6.894535
746.80 6.831068
746.90 6.875528
747.00 7.032139
747.10 7.293311
747.20 7.65915
747.30 8.120047
747.40 8.642481
747.50 9.13401
747.60 9.420021
747.70 9.364339
747.80 8.935268
747.90 8.21544
748.00 7.414732
748.10 6.808259
748.20 6.575996
748.30 6.702065
748.40 7.097377
748.50 7.662106
748.60 8.235775
748.70 8.641147
748.80 8.78431
748.90 8.632687
749.00 8.213555
749.10 7.621108
749.20 6.986719
749.30 6.465583
749.40 6.171533
749.50 6.086059
749.60 6.142565
749.70 6.302761
749.80 6.471192
749.90 6.536261
750.00 6.47576
750.10 6.317984
750.20 6.097675
750.30 5.871294
750.40 5.712997
750.50 5.680045
750.60 5.78475
750.70 5.978221
750.80 6.173454
750.90 6.303451
751.00 6.327889
751.10 6.242113
751.20 6.086173
751.30 5.902509
751.40 5.687447
751.50 5.39609
751.60 4.983177
751.70 4.445361
751.80 3.834452
751.90 3.229743
752.00 2.674008
752.10 2.140285
752.20 1.657398
752.30 1.346729
752.40 1.291469
752.50 1.488778
752.60 1.866292
752.70 2.333989
752.80 2.832263
752.90 3.332211
753.00 3.796793
753.10 4.174766
753.20 4.427863
753.30 4.547931
753.40 4.602103
753.50 4.751483
753.60 5.087603
753.70 5.541461
753.80 5.991879
753.90 6.350596
754.00 6.598157
754.10 6.746447
754.20 6.792423
754.30 6.720886
754.40 6.558822
754.50 6.402097
754.60 6.327242
754.70 6.337789
754.80 6.383383
754.90 6.389595
755.00 6.278695
755.10 6.009376
755.20 5.610231
755.30 5.172146
755.40 4.782658
755.50 4.502919
755.60 4.386545
755.70 4.445343
755.80 4.639182
755.90 4.906024
756.00 5.189883
756.10 5.441277
756.20 5.65971
756.30 5.867223
756.40 6.044276
756.50 6.164661
756.60 6.215746
756.70 6.180574
756.80 6.075737
756.90 5.972414
757.00 5.92114
757.10 5.955401
757.20 6.102153
757.30 6.350088
757.40 6.656715
757.50 6.942755
757.60 7.109402
757.70 7.090245
757.80 6.90113
757.90 6.596399
758.00 6.208736
758.10 5.771541
758.20 5.331832
758.30 4.918435
758.40 4.570311
758.50 4.338376
758.60 4.240788
758.70 4.254813
758.80 4.365108
758.90 4.583873
759.00 4.88261
759.10 5.197812
759.20 5.483512
759.30 5.690127
759.40 5.827938
759.50 5.991783
759.60 6.26696
759.70 6.608805
759.80 6.902616
759.90 7.071308
760.00 7.104863
760.10 6.993434
760.20 6.696765
760.30 6.267937
760.40 5.807511
760.50 5.36912
760.60 4.915676
760.70 4.440924
760.80 3.991354
760.90 3.592305
761.00 3.266791
761.10 3.023085
761.20 2.846493
761.30 2.695092
761.40 2.522876
761.50 2.391503
761.60 2.424972
761.70 2.669709
761.80 3.080541
761.90 3.572696
762.00 4.078663
762.10 4.49397
762.20 4.668591
762.30 4.488946
762.40 3.921505
762.50 3.143975
762.60 2.433395
762.70 2.009623
762.80 1.972944
762.90 2.204509
763.00 2.473732
763.10 2.563046
763.20 2.397777
763.30 2.029976
763.40 1.530514
763.50 0.9801335
763.60 0.4893642
763.70 0.1164174
763.80 0
763.90 0
764.00 0
764.10 0
764.20 0
764.30 0
764.40 0
764.50 0
764.60 0.1967401
764.70 0.425732
764.80 0.5546284
764.90 0.6106739
765.00 0.6038873
765.10 0.5602734
765.20 0.5315539
765.30 0.532832
765.40 0.5356207
765.50 0.5371949
765.60 0.5386509
765.70 0.5053657
765.80 0.4401217
765.90 0.4286603
766.00 0.592357
766.10 0.9962422
766.20 1.587032
766.30 2.23315
766.40 2.810249
766.50 3.180598
766.60 3.178935
766.70 2.750006
766.80 2.008331
766.90 1.121165
767.00 0.2606603
767.10 0
767.20 0
767.30 0
767.40 0
767.50 0
767.60 0
767.70 0.09747659
767.80 0.3100311
767.90 0.5130439
768.00 0.8001404
768.10 1.205365
768.20 1.654087
768.30 2.042191
768.40 2.30361
768.50 2.421596
768.60 2.419012
768.70 2.317175
768.80 2.116913
768.90 1.829234
769.00 1.560173
769.10 1.487454
769.20 1.692162
769.30 2.128801
769.40 2.642228
769.50 3.050219
769.60 3.273035
769.70 3.279132
769.80 3.033079
769.90 2.548332
770.00 1.901092
770.10 1.226863
770.20 0.6686041
770.30 0.3039425
770.40 0.09834505
770.50 0
770.60 0
770.70 0
770.80 0
770.90 0
771.00 0
771.10 0
771.20 0
771.30 0
771.40 0
771.50 0
771.60 1.423863
771.70 3.136959
771.80 4.542482
771.90 5.45134
772.00 5.798131
772.10 5.606951
772.20 4.987945
772.30 4.083348
772.40 3.010868
772.50 1.90179
772.60 0.8686342
772.70 0.02067531
772.80 0
772.90 0
773.00 0
773.10 0.726676
773.20 1.688874
773.30 2.619627
773.40 3.320834
773.50 3.679109
773.60 3.664284
773.70 3.346703
773.80 2.853849
773.90 2.337397
774.00 1.927407
774.10 1.707395
774.20 1.658012
774.30 1.692308
774.40 1.706207
774.50 1.56554
774.60 1.18403
774.70 0.4253561
774.80 0
774.90 0
775.00 0
775.10 0
775.20 0
775.30 0
775.40 0
775.50 1.204889
775.60 2.630926
775.70 3.531178
775.80 3.892936
775.90 3.838007
776.00 3.455786
776.10 2.962433
776.20 2.686389
776.30 2.660564
776.40 2.659238
776.50 2.506017
776.60 2.157552
776.70 1.684099
776.80 1.244933
776.90 1.040261
777.00 1.203337
777.10 1.727143
777.20 2.461895
777.30 3.237151
777.40 3.989152
777.50 4.673357
777.60 5.232897
777.70 5.614232
777.80 5.728154
777.90 5.551383
778.00 5.145022
778.10 4.595051
778.20 4.007305
778.30 3.501544
778.40 3.207603
778.50 3.16998
778.60 3.305407
778.70 3.453276
778.80 3.517492
778.90 3.529955
779.00 3.394085
779.10 2.944327
779.20 2.23828
779.30 1.445687
779.40 0.6455587
779.50 0
779.60 0
779.70 0
779.80 0
779.90 0
780.00 0
780.10 0.1465713
780.20 1.099327
780.30 2.063955
780.40 2.931088
780.50 3.705148
780.60 4.334758
780.70 4.745317
780.80 4.981567
780.90 5.188801
781.00 5.445197
781.10 5.771671
781.20 6.195436
781.30 6.714723
781.40 7.250016
781.50 7.63943
781.60 7.746675
781.70 7.54235
781.80 7.107712
781.90 6.665598
782.00 6.428587
782.10 6.435522
782.20 6.69143
782.30 7.223617
782.40 7.989957
782.50 8.847564
782.60 9.616825
782.70 10.1475
782.80 10.34852
782.90 10.25265
783.00 9.984339
783.10 9.655123
783.20 9.338841
783.30 9.041153
783.40 8.771734
783.50 8.636038
783.60 8.690743
783.70 8.884221
783.80 9.144541
783.90 9.38316
784.00 9.506678
784.10 9.497713
784.20 9.38977
784.30 9.22098
784.40 9.057793
784.50 8.97809
784.60 9.035605
784.70 9.194054
784.80 9.427592
784.90 9.820338
785.00 10.59018
785.10 11.88962
785.20 13.61647
785.30 15.51838
785.40 17.22962
785.50 18.39005
785.60 18.79742
785.70 18.41995
785.80 17.34118
785.90 15.77152
786.00 14.0411
786.10 12.55773
786.20 11.61454
786.30 11.25076
786.40 11.20786
786.50 11.1398
786.60 10.90359
786.70 10.56925
786.80 10.39166
786.90 10.58754
787.00 11.20881
787.10 12.17139
787.20 13.24527
787.30 14.20099
787.40 14.86501
787.50 15.04124
787.60 14.65557
787.70 13.91188
787.80 13.14881
787.90 12.71106
788.00 12.82741
788.10 13.52742
788.20 14.62281
788.30 15.74107
788.40 16.53509
788.50 16.811
788.60 16.56441
788.70 15.86788
788.80 14.82025
788.90 13.66924
789.00 12.72653
789.10 12.10292
789.20 11.7615
789.30 11.63377
789.40 11.64583
789.50 11.74445
789.60 11.91355
789.70 12.23226
789.80 12.7663
789.90 13.43712
790.00 14.08923
790.10 14.59041
790.20 14.88836
790.30 15.00495
790.40 14.95658
790.50 14.77725
790.60 14.53228
790.70 14.22278
790.80 13.75646
790.90 13.07489
791.00 12.07599
791.10 10.70339
791.20 9.113909
791.30 7.590456
791.40 6.504251
791.50 6.148683
791.60 6.629126
791.70 7.836395
791.80 9.501887
791.90 11.36349
792.00 13.13543
792.10 14.51543
792.20 15.36037
792.30 15.67801
792.40 15.70871
792.50 15.72544
792.60 15.71989
792.70 15.59518
792.80 15.30049
792.90 14.89753
793.00 14.57567
793.10 14.50076
793.20 14.7917
793.30 15.43534
793.40 16.29632
793.50 17.29453
793.60 18.3385
793.70 19.23963
793.80 19.73249
793.90 19.63945
794.00 19.0068
794.10 18.01836
794.20 16.78273
794.30 15.30243
794.40 13.53601
794.50 11.54603
794.60 9.557927
794.70 7.860271
794.80 6.707957
794.90 6.206791
795.00 6.341105
795.10 7.030132
795.20 8.135352
795.30 9.480432
795.40 10.94452
795.50 12.43004
795.60 13.85612
795.70 15.18089
795.80 16.34047
795.90 17.29655
796.00 17.99571
796.10 18.42322
796.20 18.74002
796.30 19.14919
796.40 19.75375
796.50 20.53177
796.60 21.40827
796.70 22.29235
796.80 23.03471
796.90 23.50348
797.00 23.6846
797.10 23.64701
797.20 23.52308
797.30 23.45103
797.40 23.45946
797.50 23.46974
797.60 23.36288
797.70 22.95866
797.80 22.1501
797.90 21.03466
798.00 19.81519
798.10 18.7133
798.20 17.94008
798.30 17.68038
798.40 17.98482
798.50 18.75423
798.60 19.84425
798.70 21.06884
798.80 22.18041
798.90 22.89817
799.00 22.97037
799.10 22.39586
799.20 21.45338
799.30 20.51856
799.40 19.84373
799.50 19.48569
799.60 19.43711
799.70 19.65164
799.80 20.07059
799.90 20.65485
800.00 21.33063
800.10 21.98645
800.20 22.59163
800.30 23.18677
800.40 23.78956
800.50 24.34197
800.60 24.65898
800.70 24.52651
800.80 23.96707
800.90 23.24054
801.00 22.5946
801.10 22.07243
801.20 21.71948
801.30 21.62824
801.40 21.73841
801.50 21.92993
801.60 22.08586
801.70 22.14426
801.80 22.09843
801.90 22.02994
802.00 22.09882
802.10 22.46661
802.20 23.17902
802.30 24.15821
802.40 25.27711
802.50 26.49615
802.60 27.65691
802.70 28.45814
802.80 28.78539
802.90 28.64042
803.00 28.11464
803.10 27.38854
803.20 26.6595
803.30 26.02653
803.40 25.54509
803.50 25.26375
803.60 25.19781
803.70 25.35265
803.80 25.69693
803.90 26.13973
804.00 26.58967
804.10 27.01956
804.20 27.46126
804.30 27.98632
804.40 28.57853
804.50 29.12175
804.60 29.53635
804.70 29.84245
804.80 30.04765
804.90 30.11104
805.00 30.02136
805.10 29.80281
805.20 29.52608
805.30 29.30467
805.40 29.25957
805.50 29.43344
805.60 29.72661
805.70 30.07773
805.80 30.51784
805.90 31.09884
806.00 31.81124
806.10 32.53549
806.20 33.17308
806.30 33.68902
806.40 34.03538
806.50 34.12601
806.60 33.94874
806.70 33.57303
806.80 33.06236
806.90 32.49224
807.00 31.99578
807.10 31.63886
807.20 31.466
807.30 31.52815
807.40 31.85498
807.50 32.46622
807.60 33.27071
807.70 34.09247
807.80 34.77296
807.90 35.23431
808.00 35.43885
808.10 35.40887
808.20 35.24982
808.30 35.08619
808.40 35.0248
808.50 35.14794
808.60 35.46316
808.70 35.88655
808.80 36.29901
808.90 36.61025
809.00 36.77166
809.10 36.75091
809.20 36.55125
809.30 36.21083
809.40 35.76402
809.50 35.24735
809.60 34.76261
809.70 34.47541
809.80 34.47314
809.90 34.6905
810.00 35.05046
810.10 35.51233
810.20 35.96769
810.30 36.30801
810.40 36.51611
810.50 36.63485
810.60 36.71271
810.70 36.78728
810.80 36.89297
810.90 37.00455
811.00 37.03756
811.10 36.94141
811.20 36.73059
811.30 36.46385
811.40 36.17108
811.50 35.88098
811.60 35.70185
811.70 35.74598
811.80 36.03519
811.90 36.52256
812.00 37.15649
812.10 37.87187
812.20 38.59931
812.30 39.31461
812.40 40.00007
812.50 40.59626
812.60 41.05156
812.70 41.37868
812.80 41.60518
812.90 41.70833
813.00 41.65381
813.10 41.40603
813.20 40.94704
813.30 40.3594
813.40 39.79526
813.50 39.35609
813.60 39.05914
813.70 38.9034
813.80 38.91655
813.90 39.10992
814.00 39.40698
814.10 39.65085
814.20 39.73646
814.30 39.71265
814.40 39.69905
814.50 39.82647
814.60 40.16196
814.70 40.60346
814.80 40.97724
814.90 41.20667
815.00 41.31541
815.10 41.34126
815.20 41.31177
815.30 41.23704
815.40 41.15478
815.50 41.15891
815.60 41.28595
815.70 41.47413
815.80 41.66672
815.90 41.83884
816.00 42.05011
816.10 42.43994
816.20 43.08865
816.30 43.95883
816.40 44.92591
816.50 45.84762
816.60 46.6084
816.70 47.13159
816.80 47.37924
816.90 47.37729
817.00 47.22448
817.10 47.0444
817.20 46.91823
817.30 46.84492
817.40 46.79304
817.50 46.73512
817.60 46.64846
817.70 46.54527
817.80 46.46161
817.90 46.39724
818.00 46.31919
818.10 46.19494
818.20 46.00745
818.30 45.72677
818.40 45.35018
818.50 44.94259
818.60 44.57922
818.70 44.34182
818.80 44.25629
818.90 44.25295
819.00 44.22899
819.10 44.08517
819.20 43.74829
819.30 43.20484
819.40 42.50353
819.50 41.80859
819.60 41.4004
819.70 41.56685
819.80 42.46922
819.90 44.03676
820.00 46.07489
820.10 48.33024
820.20 50.47601
820.30 52.23591
820.40 53.42732
820.50 53.9341
820.60 53.71834
820.70 52.87444
820.80 51.64987
820.90 50.36076
821.00 49.26484
821.10 48.49817
821.20 48.08168
821.30 47.93292
821.40 47.90107
821.50 47.85364
821.60 47.75277
821.70 47.60486
821.80 47.40145
821.90 47.15999
822.00 46.9695
822.10 46.95936
822.20 47.20251
822.30 47.65101
822.40 48.14938
822.50 48.55225
822.60 48.85438
822.70 49.13839
822.80 49.45092
822.90 49.74993
823.00 49.96673
823.10 50.07106
823.20 50.11746
823.30 50.24262
823.40 50.56115
823.50 51.07053
823.60 51.68071
823.70 52.32091
823.80 53.00213
823.90 53.77114
824.00 54.58373
824.10 55.35192
824.20 56.00809
824.30 56.48735
824.40 56.74309
824.50 56.81477
824.60 56.78595
824.70 56.68331
824.80 56.49941
824.90 56.26918
825.00 56.08511
825.10 56.02391
825.20 56.11209
825.30 56.31032
825.40 56.53704
825.50 56.73697
825.60 56.88248
825.70 57.01394
825.80 57.23238
825.90 57.56565
826.00 57.96087
826.10 58.36921
826.20 58.78041
826.30 59.21693
826.40 59.68309
826.50 60.13139
826.60 60.42641
826.70 60.38456
826.80 59.8865
826.90 58.95871
827.00 57.8027
827.10 56.70236
827.20 55.89464
827.30 55.512
827.40 55.55746
827.50 55.92173
827.60 56.47026
827.70 57.06899
827.80 57.57741
827.90 57.8964
828.00 57.97369
828.10 57.7799
828.20 57.36814
828.30 56.87075
828.40 56.37291
828.50 55.85889
828.60 55.44514
828.70 55.4628
828.80 56.13516
828.90 57.40745
829.00 59.05833
829.10 60.77548
829.20 62.12871
829.30 62.72135
829.40 62.51717
829.50 61.81443
829.60 61.01817
829.70 60.42724
829.80 60.19105
829.90 60.43949
830.00 61.0627
830.10 61.64243
830.20 61.85582
830.30 61.64291
830.40 61.06496
830.50 60.25364
830.60 59.48924
830.70 59.08899
830.80 59.16488
830.90 59.68632
831.00 60.47152
831.10 61.28934
831.20 62.03044
831.30 62.60579
831.40 62.94768
831.50 63.05132
831.60 62.97736
831.70 62.85728
831.80 62.84714
831.90 63.091
832.00 63.69491
832.10 64.63086
832.20 65.76538
832.30 66.90992
832.40 67.88445
832.50 68.55602
832.60 68.80775
832.70 68.61194
832.80 68.03648
832.90 67.21711
833.00 66.31498
833.10 65.43165
833.20 64.63167
833.30 63.96396
833.40 63.46349
833.50 63.22544
833.60 63.2227
833.70 63.33137
833.80 63.512
833.90 63.73092
834.00 64.13493
834.10 64.86544
834.20 66.01793
834.30 67.58001
834.40 69.25452
834.50 70.70979
834.60 71.67293
834.70 72.01586
834.80 71.77069
834.90 71.01378
835.00 69.95962
835.10 68.88496
835.20 68.08684
835.30 67.84503
835.40 68.02548
835.50 68.38404
835.60 68.63253
835.70 68.48229
835.80 67.92394
835.90 67.09702
836.00 66.19763
836.10 65.41376
836.20 64.8703
836.30 64.61241
836.40 64.64783
836.50 65.03432
836.60 65.72958
836.70 66.59029
836.80 67.5577
836.90 68.49457
837.00 69.24688
837.10 69.80398
837.20 70.20664
837.30 70.48618
837.40 70.68607
837.50 70.82765
837.60 70.9834
837.70 71.32544
837.80 72.02825
837.90 73.08568
838.00 74.307
838.10 75.40024
838.20 76.07107
838.30 76.20806
838.40 75.8215
838.50 74.87786
838.60 73.44431
838.70 71.76374
838.80 70.17533
838.90 68.96801
839.00 68.17713
839.10 67.73798
839.20 67.62327
839.30 67.8792
839.40 68.55155
839.50 69.48234
839.60 70.52985
839.70 71.6274
839.80 72.66498
839.90 73.63297
840.00 74.51335
840.10 75.17022
840.20 75.38133
840.30 75.05488
840.40 74.45861
840.50 73.93433
840.60 73.65605
840.70 73.61828
840.80 73.67999
840.90 73.90095
841.00 74.42049
841.10 75.2019
841.20 76.11725
841.30 76.95888
841.40 77.56765
841.50 77.97647
841.60 78.31888
841.70 78.6816
841.80 79.00223
841.90 79.17879
842.00 79.21534
842.10 79.13867
842.20 78.99372
842.30 78.88027
842.40 78.73249
842.50 78.43902
842.60 78.1648
842.70 78.23927
842.80 78.87617
842.90 80.01131
843.00 81.4128
843.10 82.74881
843.20 83.64463
843.30 83.78122
843.40 82.98407
843.50 81.3413
843.60 79.19656
843.70 76.95999
843.80 75.12212
843.90 74.11811
844.00 74.05673
844.10 74.80207
844.20 76.08302
844.30 77.5644
844.40 78.86655
844.50 79.61637
844.60 79.65151
844.70 79.07178
844.80 78.05656
844.90 76.82361
845.00 75.68502
845.10 74.9615
845.20 74.82214
845.30 75.24032
845.40 75.9926
845.50 76.70555
845.60 77.06327
845.70 76.94165
845.80 76.43805
845.90 75.85486
846.00 75.58439
846.10 75.91288
846.20 76.96321
846.30 78.78295
846.40 81.12599
846.50 83.49104
846.60 85.4465
846.70 86.6852
846.80 87.13916
846.90 86.9604
847.00 86.282
847.10 85.2022
847.20 83.9548
847.30 82.77215
847.40 81.64424
847.50 80.48266
847.60 79.29868
847.70 78.08728
847.80 76.95621
847.90 76.13016
848.00 75.76015
848.10 75.93307
848.20 76.6182
848.30 77.6507
848.40 78.84948
848.50 80.02766
848.60 80.8764
848.70 81.25211
848.80 81.30337
848.90 81.27949
849.00 81.43961
849.10 81.88434
849.20 82.56834
849.30 83.36268
849.40 84.04224
849.50 84.33986
849.60 84.04222
849.70 83.14827
849.80 81.93889
849.90 80.86248
850.00 80.36188
850.10 80.51032
850.20 80.95621
850.30 81.37739
850.40 81.5897
850.50 81.50237
850.60 81.1484
850.70 80.58747
850.80 79.85515
850.90 79.15225
851.00 78.78105
851.10 78.84067
851.20 79.15203
851.30 79.35478
851.40 79.03174
851.50 77.95652
851.60 76.14
851.70 73.44151
851.80 69.65188
851.90 64.87438
852.00 59.49652
852.10 54.14481
852.20 49.69269
852.30 46.92926
852.40 46.32751
852.50 48.0459
852.60 51.90518
852.70 57.3723
852.80 63.65596
852.90 69.84613
853.00 75.19535
853.10 79.3714
853.20 82.36902
853.30 84.32682
853.40 85.51595
853.50 86.32108
853.60 87.00509
853.70 87.6551
853.80 88.24045
853.90 88.66677
854.00 88.8124
854.10 88.61517
854.20 88.22564
854.30 87.91649
854.40 87.89556
854.50 88.2454
854.60 88.91552
854.70 89.77304
854.80 90.6399
854.90 91.28092
855.00 91.57103
855.10 91.56309
855.20 91.41834
855.30 91.35099
855.40 91.59383
855.50 92.30909
855.60 93.45497
855.70 94.85893
855.80 96.31335
855.90 97.59731
856.00 98.52963
856.10 98.97426
856.20 98.89605
856.30 98.40788
856.40 97.7118
856.50 97.02577
856.60 96.51382
856.70 96.29301
856.80 96.42938
856.90 96.88859
857.00 97.52037
857.10 98.09911
857.20 98.40635
857.30 98.35096
857.40 97.96168
857.50 97.36635
857.60 96.76791
857.70 96.34313
857.80 96.19703
857.90 96.27894
858.00 96.51734
858.10 96.86977
858.20 97.20544
858.30 97.40848
858.40 97.49097
858.50 97.53674
858.60 97.61048
858.70 97.67031
858.80 97.59474
858.90 97.29199
859.00 96.7102
859.10 95.8639
859.20 94.86374
859.30 93.95615
859.40 93.39075
859.50 93.29205
859.60 93.73232
859.70 94.6833
859.80 95.98004
859.90 97.38679
860.00 98.64882
860.10 99.56542
860.20 100.0377
860.30 100.1173
860.40 100.0527
860.50 100.0584
860.60 100.0801
860.70 99.91823
860.80 99.29099
860.90 97.95834
861.00 95.91497
861.10 93.29195
861.20 90.14179
861.30 86.5134
861.40 82.59205
861.50 78.7026
861.60 75.26728
861.70 72.58825
861.80 70.68742
861.90 69.56134
862.00 69.28543
862.10 69.7207
862.20 70.57196
862.30 71.5182
862.40 72.27677
862.50 72.65128
862.60 72.50959
862.70 71.80805
862.80 70.54822
862.90 68.87078
863.00 67.14637
863.10 65.82358
863.20 65.20092
863.30 65.33708
863.40 66.17172
863.50 67.68244
863.60 69.81827
863.70 72.32197
863.80 74.62442
863.90 76.11905
864.00 76.53066
864.10 75.94347
864.20 74.71775
864.30 73.2262
864.40 71.6792
864.50 70.25165
864.60 69.13788
864.70 68.48576
864.80 68.33276
864.90 68.6291
865.00 69.27257
865.10 70.12327
865.20 71.06469
865.30 72.03778
865.40 73.04377
865.50 74.06841
865.60 75.08365
865.70 76.12409
865.80 77.27854
865.90 78.54674
866.00 79.8734
866.10 81.19489
866.20 82.36385
866.30 83.23468
866.40 83.75127
866.50 83.86133
866.60 83.45382
866.70 82.5201
866.80 81.17536
866.90 79.70448
867.00 78.52562
867.10 77.90827
867.20 77.86713
867.30 78.40593
867.40 79.54607
867.50 81.17896
867.60 83.13594
867.70 85.08299
867.80 86.52906
867.90 87.17444
868.00 87.04385
868.10 86.31655
868.20 85.29028
868.30 84.34069
868.40 83.83496
868.50 84.03488
868.60 84.96623
868.70 86.33029
868.80 87.61961
868.90 88.40738
869.00 88.43425
869.10 87.64063
869.20 86.19319
869.30 84.39811
869.40 82.62605
869.50 81.24022
869.60 80.50591
869.70 80.44697
869.80 80.82263
869.90 81.39387
870.00 82.08571
870.10 82.85488
870.20 83.56439
870.30 83.98474
870.40 83.92808
870.50 83.47197
870.60 82.92446
870.70 82.51675
870.80 82.32574
870.90 82.34054
871.00 82.50454
871.10 82.74433
871.20 82.9301
871.30 82.94805
871.40 82.74624
871.50 82.33868
871.60 81.82042
871.70 81.34101
871.80 81.01831
871.90 80.82467
872.00 80.62043
872.10 80.3591
872.20 80.13444
872.30 80.0801
872.40 80.26573
872.50 80.71058
872.60 81.48085
872.70 82.58454
872.80 83.93957
872.90 85.39365
873.00 86.73478
873.10 87.7713
873.20 88.42199
873.30 88.68142
873.40 88.54765
873.50 88.10165
873.60 87.53316
873.70 87.06445
873.80 86.88831
873.90 87.09319
874.00 87.59807
874.10 88.20134
874.20 88.69752
874.30 89.00414
874.40 89.18268
874.50 89.30363
874.60 89.35049
874.70 89.2674
874.80 88.98086
874.90 88.4904
875.00 87.87827
875.10 87.23713
875.20 86.66729
875.30 86.34857
875.40 86.60047
875.50 87.61416
875.60 89.32393
875.70 91.51956
875.80 93.87716
875.90 95.95559
876.00 97.17257
876.10 97.0117
876.20 95.36355
876.30 92.44221
876.40 88.68067
876.50 84.68125
876.60 81.05228
876.70 78.27108
876.80 76.592
876.90 76.09156
877.00 76.84951
877.10 78.81195
877.20 81.57674
877.30 84.60358
877.40 87.60308
877.50 90.48762
877.60 93.20624
877.70 95.65255
877.80 97.35269
877.90 97.86401
878.00 97.23621
878.10 95.82582
878.20 94.01806
878.30 92.24134
878.40 90.70286
878.50 89.37507
878.60 88.35283
878.70 87.86728
878.80 88.14274
878.90 89.23609
879.00 90.89268
879.10 92.76523
879.20 94.84692
879.30 97.20048
879.40 99.59209
879.50 101.5825
879.60 102.7577
879.70 102.8852
879.80 102.0353
879.90 100.5581
880.00 98.88799
880.10 97.37157
880.20 96.14207
880.30 95.22134
880.40 94.65139
880.50 94.42991
880.60 94.52528
880.70 94.90411
880.80 95.48381
880.90 96.18828
881.00 97.0051
881.10 97.9354
881.20 98.95027
881.30 100.0006
881.40 101.0511
881.50 102.1072
881.60 103.2089
881.70 104.3882
881.80 105.5815
881.90 106.6025
882.00 107.1963
882.10 107.2288
882.20 106.88
882.30 106.9278
882.40 108.1158
882.50 110.7014
882.60 114.4066
882.70 118.3193
882.80 121.3151
882.90 122.417
883.00 121.0183
883.10 117.0312
883.20 111.0615
883.30 104.3607
883.40 98.55944
883.50 95.18722
883.60 95.06933
883.70 97.67592
883.80 101.8687
883.90 106.5009
884.00 110.5536
884.10 113.4158
884.20 114.7807
884.30 114.597
884.40 113.0077
884.50 110.3765
884.60 107.2482
884.70 104.1974
884.80 101.6739
884.90 99.90838
885.00 99.04247
885.10 99.23562
885.20 100.4118
885.30 102.1749
885.40 103.9815
885.50 105.4079
885.60 106.2483
885.70 106.4846
885.80 106.3274
885.90 106.0544
886.00 105.8816
886.10 105.9993
886.20 106.5807
886.30 107.7727
886.40 109.6756
886.50 112.0885
886.60 114.5055
886.70 116.3984
886.80 117.3155
886.90 117.0354
887.00 115.5805
887.10 113.2125
887.20 110.3891
887.30 107.7047
887.40 105.7613
887.50 105.1007
887.60 106.0151
887.70 108.2709
887.80 111.1301
887.90 113.9696
888.00 116.6594
888.10 118.9025
888.20 120.0388
888.30 119.819
888.40 119.1647
888.50 119.0931
888.60 119.6344
888.70 120.5178
888.80 121.5537
888.90 122.4348
889.00 122.7175
889.10 122.0563
889.20 120.373
889.30 117.7728
889.40 114.3514
889.50 110.7221
889.60 108.219
889.70 107.8371
889.80 109.2201
889.90 111.6338
890.00 114.8995
890.10 118.6885
890.20 122.2427
890.30 124.767
890.40 125.7454
890.50 125.0006
890.60 122.7564
890.70 119.5451
890.80 116.0836
890.90 113.13
891.00 111.1833
891.10 110.3858
891.20 110.6729
891.30 111.8275
891.40 113.6318
891.50 115.9209
891.60 118.5577
891.70 121.3272
891.80 123.7863
891.90 125.4387
892.00 125.9393
892.10 125.1699
892.20 123.1833
892.30 120.1997
892.40 116.6723
892.50 113.1939
892.60 110.3551
892.70 108.5293
892.80 107.8329
892.90 108.1975
893.00 109.3108
893.10 110.688
893.20 111.9703
893.30 113.0327
893.40 113.7811
893.50 114.1004
893.60 113.8682
893.70 112.9715
893.80 111.3311
893.90 108.772
894.00 105.0227
894.10 100.061
894.20 94.18663
894.30 87.9738
894.40 82.26032
894.50 77.91922
894.60 75.69817
894.70 75.9849
894.80 78.67425
894.90 83.26667
895.00 89.08446
895.10 95.44527
895.20 101.7814
895.30 107.695
895.40 113.1617
895.50 118.366
895.60 123.3386
895.70 127.7883
895.80 131.1462
895.90 132.9646
896.00 132.8351
896.10 130.5673
896.20 126.5502
896.30 121.5863
896.40 116.6771
896.50 112.8069
896.60 110.6863
896.70 110.68
896.80 112.483
896.90 115.2507
897.00 118.1635
897.10 120.6764
897.20 122.6167
897.30 123.9829
897.40 124.9433
897.50 125.7464
897.60 126.5465
897.70 127.4214
897.80 128.3442
897.90 129.1293
898.00 129.5768
898.10 129.7264
898.20 129.9554
898.30 130.7535
898.40 132.1104
898.50 133.2492
898.60 133.3619
898.70 132.2894
898.80 130.2004
898.90 127.4093
899.00 124.4498
899.10 121.9027
899.20 120.302
899.30 120.0111
899.40 121.0824
899.50 123.2804
899.60 126.2224
899.70 129.1521
899.80 131.5382
899.90 134.0211
900.00 133.9975
900.10 133.9739
900.20 133.9504
900.30 133.9268
900.40 133.9032
900.50 133.8797
900.60 133.8561
900.70 133.8326
900.80 133.809
900.90 133.9895
901.00 134.2751
901.10 134.5607
901.20 134.8463
901.30 135.132
901.40 135.4176
901.50 135.7032
901.60 135.9888
901.70 136.2744
901.80 136.5601
901.90 136.8457
902.00 137.1313
902.10 137.4169
902.20 137.7025
902.30 137.9881
902.40 138.2738
902.50 138.5594
902.60 138.845
902.70 139.1306
902.80 139.4162
902.90 139.7019
903.00 139.9875
903.10 140.2731
903.20 140.5587
903.30 140.8443
903.40 141.13
903.50 141.4156
903.60 141.7012
903.70 141.9868
903.80 142.2724
903.90 142.558
904.00 142.8437
904.10 143.1293
904.20 143.4149
904.30 143.6701
904.40 143.8937
904.50 144.1173
904.60 144.3409
904.70 144.5645
904.80 144.7881
904.90 145.0117
905.00 145.2353
905.10 145.4589
905.20 145.6825
905.30 145.9061
905.40 146.1297
905.50 146.3533
905.60 146.5769
905.70 146.8005
905.80 147.0241
905.90 147.2477
906.00 147.4713
906.10 147.6949
906.20 147.9185
906.30 148.1421
906.40 148.3657
906.50 148.5893
906.60 148.8129
906.70 149.0364
906.80 149.26
906.90 149.4836
907.00 149.7072
907.10 149.9308
907.20 150.1544
907.30 150.378
907.40 150.6016
907.50 150.8252
907.60 151.0488
907.70 151.2301
907.80 151.1518
907.90 151.0735
908.00 150.9952
908.10 150.9169
908.20 150.8385
908.30 150.7602
908.40 150.6819
908.50 150.6036
908.60 150.5253
908.70 150.4469
908.80 150.3686
908.90 150.2903
909.00 150.212
909.10 150.1337
909.20 150.0553
909.30 149.977
909.40 149.8987
909.50 149.8204
909.60 149.7421
909.70 149.6637
909.80 149.5854
909.90 149.5071
910.00 149.4288
910.10 149.3505
910.20 149.2721
910.30 149.1938
910.40 149.1155
910.50 149.0372
910.60 148.9589
910.70 148.8805
910.80 148.8022
910.90 148.7239
911.00 148.6456
911.10 148.5672
911.20 148.5202
911.30 148.4931
911.40 148.4661
911.50 148.439
911.60 148.4119
911.70 148.3849
911.80 148.3578
911.90 148.3307
912.00 148.3037
912.10 148.2766
912.20 148.2495
912.30 148.2225
912.40 148.1954
912.50 148.1683
912.60 148.1413
912.70 148.1142
912.80 148.0871
912.90 148.0601
913.00 148.033
913.10 148.0059
913.20 147.9789
913.30 147.9518
913.40 147.9247
913.50 147.8977
913.60 147.8706
913.70 147.8435
913.80 147.8165
913.90 147.7894
914.00 147.7623
914.10 147.7353
914.20 147.7082
914.30 147.6811
914.40 147.6541
914.50 147.627
914.60 147.5999
914.70 147.8275
914.80 148.0865
914.90 148.3455
915.00 148.6045
915.10 148.8635
915.20 149.1225
915.30 149.3815
915.40 149.6405
915.50 149.8995
915.60 150.1585
915.70 150.4175
915.80 150.6765
915.90 150.9355
916.00 151.1945
916.10 151.4534
916.20 151.7124
916.30 151.9714
916.40 152.2304
916.50 152.4894
916.60 152.7484
916.70 153.0074
916.80 153.2664
916.90 153.5254
917.00 153.7844
917.10 154.0434
917.20 154.3024
917.30 154.5614
917.40 154.8204
917.50 155.0794
917.60 155.3384
917.70 155.5974
917.80 155.8564
917.90 156.1154
918.00 156.3744
918.10 156.6315
918.20 156.6926
918.30 156.7538
918.40 156.815
918.50 156.8762
918.60 156.9374
918.70 156.9985
918.80 157.0597
918.90 157.1209
919.00 157.1821
919.10 157.2433
919.20 157.3044
919.30 157.3656
919.40 157.4268
919.50 157.488
919.60 157.5492
919.70 157.6104
919.80 157.6715
919.90 157.7327
920.00 157.7939
920.10 157.8551
920.20 157.9163
920.30 157.9774
920.40 158.0386
920.50 158.0998
920.60 158.161
920.70 158.2222
920.80 158.2833
920.90 158.3445
921.00 158.4057
921.10 158.4669
921.20 158.5281
921.30 158.5893
921.40 158.6504
921.50 158.7116
921.60 158.7728
921.70 158.7902
921.80 158.8049
921.90 158.8195
922.00 158.8341
922.10 158.8488
922.20 158.8634
922.30 158.8781
922.40 158.8927
922.50 158.9073
922.60 158.922
922.70 158.9366
922.80 158.9513
922.90 158.9659
923.00 158.9805
923.10 158.9952
923.20 159.0098
923.30 159.0244
923.40 159.0391
923.50 159.0537
923.60 159.0684
923.70 159.083
923.80 159.0976
923.90 159.1123
924.00 159.1269
924.10 159.1415
924.20 159.1562
924.30 159.1708
924.40 159.1855
924.50 159.2001
924.60 159.2147
924.70 159.2294
924.80 159.244
924.90 159.2587
925.00 159.2733
925.10 159.2879
925.20 159.1888
925.30 159.0409
925.40 158.893
925.50 158.7451
925.60 158.5972
925.70 158.4493
925.80 158.3014
925.90 158.1535
926.00 158.0056
926.10 157.8576
926.20 157.7097
926.30 157.5618
926.40 157.4139
926.50 157.266
926.60 157.1181
926.70 156.9702
926.80 156.8223
926.90 156.6744
927.00 156.5265
927.10 156.3786
927.20 156.2307
927.30 156.0828
927.40 155.9349
927.50 155.787
927.60 155.6391
927.70 155.4912
927.80 155.3433
927.90 155.1954
928.00 155.0475
928.10 154.8996
928.20 154.7516
928.30 154.6037
928.40 154.4558
928.50 154.3079
928.60 154.16
928.70 154.1225
928.80 154.3551
928.90 154.5877
929.00 154.8203
929.10 155.0529
929.20 155.2855
929.30 155.5181
929.40 155.7507
929.50 155.9834
929.60 156.216
929.70 156.4486
929.80 156.6812
929.90 156.9138
930.00 157.1464
930.10 157.379
930.20 157.6116
930.30 157.8442
930.40 158.0769
930.50 158.3095
930.60 158.5421
930.70 158.7747
930.80 159.0073
930.90 159.2399
931.00 159.4725
931.10 159.7051
931.20 159.9377
931.30 160.1704
931.40 160.403
931.50 160.6356
931.60 160.8682
931.70 161.1008
931.80 161.3334
931.90 161.566
932.00 161.7986
932.10 162.0312
932.20 162.2638
932.30 162.1575
932.40 161.9059
932.50 161.6544
932.60 161.4028
932.70 161.1512
932.80 160.8996
932.90 160.648
933.00 160.3965
933.10 160.1449
933.20 159.8933
933.30 159.6417
933.40 159.3901
933.50 159.1386
933.60 158.887
933.70 158.6354
933.80 158.3838
933.90 158.1322
934.00 157.8807
934.10 157.6291
934.20 157.3775
934.30 157.1259
934.40 156.8743
934.50 156.6228
934.60 156.3712
934.70 156.1196
934.80 155.868
934.90 155.6165
935.00 155.3649
935.10 155.1133
935.20 154.8617
935.30 154.6101
935.40 154.3586
935.50 154.107
935.60 153.8554
935.70 153.6038
935.80 153.3522
935.90 153.4632
936.00 153.5974
936.10 153.7316
936.20 153.8657
936.30 153.9999
936.40 154.1341
936.50 154.2682
936.60 154.4024
936.70 154.5366
936.80 154.6707
936.90 154.8049
937.00 154.939
937.10 155.0732
937.20 155.2074
937.30 155.3415
937.40 155.4757
937.50 155.6099
937.60 155.744
937.70 155.8782
937.80 156.0123
937.90 156.1465
938.00 156.2807
938.10 156.4148
938.20 156.549
938.30 156.6832
938.40 156.8173
938.50 156.9515
938.60 157.0856
938.70 157.2198
938.80 157.354
938.90 157.4881
939.00 157.6223
939.10 157.7565
939.20 157.8906
939.30 158.0248
939.40 158.1581
939.50 158.2493
939.60 158.3404
939.70 158.4316
939.80 158.5227
939.90 158.6139
940.00 158.7051
940.10 158.7962
940.20 158.8874
940.30 158.9786
940.40 159.0697
940.50 159.1609
940.60 159.252
940.70 159.3432
940.80 159.4344
940.90 159.5255
941.00 159.6167
941.10 159.7079
941.20 159.799
941.30 159.8902
941.40 159.9814
941.50 160.0725
941.60 160.1637
941.70 160.2548
941.80 160.346
941.90 160.4372
942.00 160.5283
942.10 160.6195
942.20 160.7107
942.30 160.8018
942.40 160.893
942.50 160.9841
942.60 161.0753
942.70 161.1665
942.80 161.2576
942.90 161.3488
943.00 161.44
943.10 161.7386
943.20 162.0529
943.30 162.3671
943.40 162.6814
943.50 162.9957
943.60 163.3099
943.70 163.6242
943.80 163.9384
943.90 164.2527
944.00 164.567
944.10 164.8812
944.20 165.1955
944.30 165.5097
944.40 165.824
944.50 166.1383
944.60 166.4525
944.70 166.7668
944.80 167.081
944.90 167.3953
945.00 167.7096
945.10 168.0238
945.20 168.3381
945.30 168.6523
945.40 168.9666
945.50 169.2809
945.60 169.5951
945.70 169.9094
945.80 170.2236
945.90 170.5379
946.00 170.8522
946.10 171.1664
946.20 171.4807
946.30 171.7949
946.40 172.1092
946.50 172.4235
946.60 172.7377
946.70 172.9143
946.80 173.023
946.90 173.1318
947.00 173.2405
947.10 173.3492
947.20 173.458
947.30 173.5667
947.40 173.6754
947.50 173.7842
947.60 173.8929
947.70 174.0016
947.80 174.1104
947.90 174.2191
948.00 174.3278
948.10 174.4366
948.20 174.5453
948.30 174.654
948.40 174.7628
948.50 174.8715
948.60 174.9802
948.70 175.089
948.80 175.1977
948.90 175.3064
949.00 175.4152
949.10 175.5239
949.20 175.6326
949.30 175.7414
949.40 175.8501
949.50 175.9588
949.60 176.0676
949.70 176.1763
949.80 176.285
949.90 176.3938
950.00 176.5025
950.10 176.6112
950.20 176.72
950.30 176.7768
950.40 176.6777
950.50 176.5787
950.60 176.4797
950.70 176.3807
950.80 176.2817
950.90 176.1827
951.00 176.0837
951.10 175.9847
951.20 175.8857
951.30 175.7867
951.40 175.6876
951.50 175.5886
951.60 175.4896
951.70 175.3906
951.80 175.2916
951.90 175.1926
952.00 175.0936
952.10 174.9946
952.20 174.8956
952.30 174.7966
952.40 174.6975
952.50 174.5985
952.60 174.4995
952.70 174.4005
952.80 174.3015
952.90 174.2025
953.00 174.1035
953.10 174.0045
953.20 173.9055
953.30 173.8064
953.40 173.7074
953.50 173.6084
953.60 173.5094
953.70 173.4104
953.80 173.3114
953.90 173.2124
954.00 173.3208
954.10 173.5361
954.20 173.7514
954.30 173.9667
954.40 174.182
954.50 174.3973
954.60 174.6126
954.70 174.8279
954.80 175.0432
954.90 175.2585
955.00 175.4737
955.10 175.689
955.20 175.9043
955.30 176.1196
955.40 176.3349
955.50 176.5502
955.60 176.7655
955.70 176.9808
955.80 177.1961
955.90 177.4114
956.00 177.6267
956.10 177.842
956.20 178.0573
956.30 178.2725
956.40 178.4878
956.50 178.7031
956.60 178.9184
956.70 179.1337
956.80 179.349
956.90 179.5643
957.00 179.7796
957.10 179.9949
957.20 180.2102
957.30 180.4255
957.40 180.6408
957.50 180.8561
957.60 181.0714
957.70 180.9132
957.80 180.7227
957.90 180.5321
958.00 180.3415
958.10 180.1509
958.20 179.9604
958.30 179.7698
958.40 179.5792
958.50 179.3886
958.60 179.198
958.70 179.0075
958.80 178.8169
958.90 178.6263
959.00 178.4357
959.10 178.2452
959.20 178.0546
959.30 177.864
959.40 177.6734
959.50 177.4829
959.60 177.2923
959.70 177.1017
959.80 176.9111
959.90 176.7205
960.00 176.53
960.10 176.3394
960.20 176.1488
960.30 175.9582
960.40 175.7677
960.50 175.5771
960.60 175.3865
960.70 175.1959
960.80 175.0054
960.90 174.8148
961.00 174.6242
961.10 174.4336
961.20 174.243
961.30 174.0594
961.40 174.2139
961.50 174.3685
961.60 174.5231
961.70 174.6777
961.80 174.8322
961.90 174.9868
962.00 175.1414
962.10 175.296
962.20 175.4505
962.30 175.6051
962.40 175.7597
962.50 175.9143
962.60 176.0688
962.70 176.2234
962.80 176.378
962.90 176.5326
963.00 176.6871
963.10 176.8417
963.20 176.9963
963.30 177.1509
963.40 177.3054
963.50 177.46
963.60 177.6146
963.70 177.7692
963.80 177.9237
963.90 178.0783
964.00 178.2329
964.10 178.3875
964.20 178.542
964.30 178.6966
964.40 178.8512
964.50 179.0058
964.60 179.1603
964.70 179.3149
964.80 179.4695
964.90 179.6241
965.00 179.7786
965.10 179.7871
965.20 179.7894
965.30 179.7918
965.40 179.7942
965.50 179.7965
965.60 179.7989
965.70 179.8012
965.80 179.8036
965.90 179.806
966.00 179.8083
966.10 179.8107
966.20 179.813
966.30 179.8154
966.40 179.8177
966.50 179.8201
966.60 179.8225
966.70 179.8248
966.80 179.8272
966.90 179.8295
967.00 179.8319
967.10 179.8342
967.20 179.8366
967.30 179.839
967.40 179.8413
967.50 179.8437
967.60 179.846
967.70 179.8484
967.80 179.8508
967.90 179.8531
968.00 179.8555
968.10 179.8578
968.20 179.8602
968.30 179.8625
968.40 179.8649
968.50 179.8673
968.60 179.8696
968.70 179.872
968.80 179.839
968.90 179.7936
969.00 179.7482
969.10 179.7028
969.20 179.6573
969.30 179.6119
969.40 179.5665
969.50 179.5211
969.60 179.4757
969.70 179.4303
969.80 179.3849
969.90 179.3395
970.00 179.2941
970.10 179.2487
970.20 179.2033
970.30 179.1578
970.40 179.1124
970.50 179.067
970.60 179.0216
970.70 178.9762
970.80 178.9308
970.90 178.8854
971.00 178.84
971.10 178.7946
971.20 178.7492
971.30 178.7038
971.40 178.6584
971.50 178.6129
971.60 178.5675
971.70 178.5221
971.80 178.4767
971.90 178.4313
972.00 178.3859
972.10 178.3405
972.20 178.2951
972.30 178.2497
972.40 178.2043
972.50 178.2535
972.60 178.464
972.70 178.6744
972.80 178.8849
972.90 179.0953
973.00 179.3058
973.10 179.5162
973.20 179.7267
973.30 179.9371
973.40 180.1476
973.50 180.358
973.60 180.5685
973.70 180.7789
973.80 180.9894
973.90 181.1998
974.00 181.4103
974.10 181.6207
974.20 181.8312
974.30 182.0416
974.40 182.2521
974.50 182.4625
974.60 182.673
974.70 182.8834
974.80 183.0939
974.90 183.3043
975.00 183.5148
975.10 183.7252
975.20 183.9357
975.30 184.1461
975.40 184.3566
975.50 184.567
975.60 184.7775
975.70 184.9879
975.80 185.1984
975.90 185.4088
976.00 185.6193
976.10 185.8297
976.20 186.0402
976.30 185.9705
976.40 185.8514
976.50 185.7323
976.60 185.6132
976.70 185.4941
976.80 185.375
976.90 185.2559
977.00 185.1368
977.10 185.0177
977.20 184.8986
977.30 184.7794
977.40 184.6603
977.50 184.5412
977.60 184.4221
977.70 184.303
977.80 184.1839
977.90 184.0648
978.00 183.9457
978.10 183.8266
978.20 183.7075
978.30 183.5884
978.40 183.4693
978.50 183.3501
978.60 183.231
978.70 183.1119
978.80 182.9928
978.90 182.8737
979.00 182.7546
979.10 182.6355
979.20 182.5164
979.30 182.3973
979.40 182.2782
979.50 182.1591
979.60 182.04
979.70 181.9209
979.80 181.8017
979.90 181.6826
980.00 181.619
980.10 181.8083
980.20 181.9976
980.30 182.1869
980.40 182.3762
980.50 182.5655
980.60 182.7548
980.70 182.9441
980.80 183.1334
980.90 183.3227
981.00 183.512
981.10 183.7013
981.20 183.8906
981.30 184.0799
981.40 184.2692
981.50 184.4585
981.60 184.6478
981.70 184.8371
981.80 185.0264
981.90 185.2157
982.00 185.4049
982.10 185.5942
982.20 185.7835
982.30 185.9728
982.40 186.1621
982.50 186.3514
982.60 186.5407
982.70 186.73
982.80 186.9193
982.90 187.1086
983.00 187.2979
983.10 187.4872
983.20 187.6765
983.30 187.8658
983.40 188.0551
983.50 188.2444
983.60 188.4337
983.70 188.623
983.80 188.6762
983.90 188.4874
984.00 188.2986
984.10 188.1098
984.20 187.921
984.30 187.7322
984.40 187.5434
984.50 187.3546
984.60 187.1658
984.70 186.977
984.80 186.7882
984.90 186.5994
985.00 186.4106
985.10 186.2218
985.20 186.033
985.30 185.8442
985.40 185.6554
985.50 185.4666
985.60 185.2778
985.70 185.089
985.80 184.9002
985.90 184.7114
986.00 184.5226
986.10 184.3338
986.20 184.145
986.30 183.9562
986.40 183.7674
986.50 183.5786
986.60 183.3898
986.70 183.201
986.80 183.0122
986.90 182.8234
987.00 182.6346
987.10 182.4458
987.20 182.257
987.30 182.0682
987.40 181.8794
987.50 181.6906
987.60 181.5805
987.70 181.5884
987.80 181.5962
987.90 181.6041
988.00 181.612
988.10 181.6199
988.20 181.6277
988.30 181.6356
988.40 181.6435
988.50 181.6514
988.60 181.6592
988.70 181.6671
988.80 181.675
988.90 181.6829
989.00 181.6907
989.10 181.6986
989.20 181.7065
989.30 181.7143
989.40 181.7222
989.50 181.7301
989.60 181.738
989.70 181.7458
989.80 181.7537
989.90 181.7616
990.00 181.7695
990.10 181.7773
990.20 181.7852
990.30 181.7931
990.40 181.801
990.50 181.8088
990.60 181.8167
990.70 181.8246
990.80 181.8325
990.90 181.8403
991.00 181.8482
991.10 181.8561
991.20 181.864
991.30 181.8718
991.40 181.8595
991.50 181.7976
991.60 181.7357
991.70 181.6737
991.80 181.6118
991.90 181.5499
992.00 181.488
992.10 181.4261
992.20 181.3642
992.30 181.3023
992.40 181.2404
992.50 181.1785
992.60 181.1166
992.70 181.0546
992.80 180.9927
992.90 180.9308
993.00 180.8689
993.10 180.807
993.20 180.7451
993.30 180.6832
993.40 180.6213
993.50 180.5594
993.60 180.4975
993.70 180.4356
993.80 180.3736
993.90 180.3117
994.00 180.2498
994.10 180.1879
994.20 180.126
994.30 180.0641
994.40 180.0022
994.50 179.9403
994.60 179.8784
994.70 179.8165
994.80 179.7546
994.90 179.6926
995.00 179.6307
995.10 179.5688
995.20 179.498
995.30 179.1394
995.40 178.7807
995.50 178.4221
995.60 178.0634
995.70 177.7048
995.80 177.3462
995.90 176.9875
996.00 176.6289
996.10 176.2702
996.20 175.9116
996.30 175.5529
996.40 175.1943
996.50 174.8357
996.60 174.477
996.70 174.1184
996.80 173.7597
996.90 173.4011
997.00 173.0424
997.10 172.6838
997.20 172.3252
997.30 171.9665
997.40 171.6079
997.50 171.2492
997.60 170.8906
997.70 170.5319
997.80 170.1733
997.90 169.8147
998.00 169.456
998.10 169.0974
998.20 168.7387
998.30 168.3801
998.40 168.0214
998.50 167.6628
998.60 167.3042
998.70 166.9455
998.80 166.5869
998.90 166.2282
999.00 165.8696
999.10 165.705
999.20 165.6495
999.30 165.5941
999.40 165.5387
999.50 165.4832
999.60 165.4278
999.70 165.3723
999.80 165.3169
999.90 165.2615
1000.00 165.206
1000.10 165.1506
1000.20 165.0951
1000.30 165.0397
1000.40 164.9843
1000.50 164.9288
1000.60 164.8734
1000.70 164.8179
1000.80 164.7625
1000.90 164.7071
1001.00 164.6516
1001.10 164.5962
1001.20 164.5407
1001.30 164.4853
1001.40 164.4299
1001.50 164.3744
1001.60 164.319
1001.70 164.2635
1001.80 164.2081
1001.90 164.1527
1002.00 164.0972
1002.10 164.0418
1002.20 163.9863
1002.30 163.9309
1002.40 163.8755
1002.50 163.82
1002.60 163.7646
1002.70 163.7091
1002.80 163.6537
1002.90 163.6154
1003.00 163.7312
1003.10 163.8471
1003.20 163.963
1003.30 164.0788
1003.40 164.1947
1003.50 164.3105
1003.60 164.4264
1003.70 164.5423
1003.80 164.6581
1003.90 164.774
1004.00 164.8898
1004.10 165.0057
1004.20 165.1216
1004.30 165.2374
1004.40 165.3533
1004.50 165.4691
1004.60 165.585
1004.70 165.7009
1004.80 165.8167
1004.90 165.9326
1005.00 166.0484
1005.10 166.1643
1005.20 166.2801
1005.30 166.396
1005.40 166.5119
1005.50 166.6277
1005.60 166.7436
1005.70 166.8594
1005.80 166.9753
1005.90 167.0912
1006.00 167.207
1006.10 167.3229
1006.20 167.4387
1006.30 167.5546
1006.40 167.6705
1006.50 167.7863
1006.60 167.9022
1006.70 168.018
1006.80 168.178
1006.90 168.4042
1007.00 168.6304
1007.10 168.8566
1007.20 169.0827
1007.30 169.3089
1007.40 169.5351
1007.50 169.7613
1007.60 169.9875
1007.70 170.2136
1007.80 170.4398
1007.90 170.666
1008.00 170.8922
1008.10 171.1184
1008.20 171.3445
1008.30 171.5707
1008.40 171.7969
1008.50 172.0231
1008.60 172.2493
1008.70 172.4754
1008.80 172.7016
1008.90 172.9278
1009.00 173.154
1009.10 173.3802
1009.20 173.6063
1009.30 173.8325
1009.40 174.0587
1009.50 174.2849
1009.60 174.5111
1009.70 174.7372
1009.80 174.9634
1009.90 175.1896
1010.00 175.4158
1010.10 175.642
1010.20 175.8681
1010.30 176.0943
1010.40 176.3205
1010.50 176.5467
1010.60 176.7729
1010.70 176.8338
1010.80 176.7846
1010.90 176.7353
1011.00 176.6861
1011.10 176.6369
1011.20 176.5877
1011.30 176.5384
1011.40 176.4892
1011.50 176.44
1011.60 176.3908
1011.70 176.3416
1011.80 176.2923
1011.90 176.2431
1012.00 176.1939
1012.10 176.1447
1012.20 176.0954
1012.30 176.0462
1012.40 175.997
1012.50 175.9478
1012.60 175.8985
1012.70 175.8493
1012.80 175.8001
1012.90 175.7509
1013.00 175.7016
1013.10 175.6524
1013.20 175.6032
1013.30 175.554
1013.40 175.5048
1013.50 175.4555
1013.60 175.4063
1013.70 175.3571
1013.80 175.3079
1013.90 175.2586
1014.00 175.2094
1014.10 175.1602
1014.20 175.111
1014.30 175.0617
1014.40 175.0125
1014.50 174.9633
1014.60 175.1067
1014.70 175.3326
1014.80 175.5585
1014.90 175.7844
1015.00 176.0103
1015.10 176.2362
1015.20 176.4621
1015.30 176.688
1015.40 176.9139
1015.50 177.1398
1015.60 177.3657
1015.70 177.5916
1015.80 177.8175
1015.90 178.0434
1016.00 178.2693
1016.10 178.4952
1016.20 178.7211
1016.30 178.947
1016.40 179.1729
1016.50 179.3988
1016.60 179.6247
1016.70 179.8506
1016.80 180.0765
1016.90 180.3024
1017.00 180.5283
1017.10 180.7542
1017.20 180.9801
1017.30 181.206
1017.40 181.4319
1017.50 181.6579
1017.60 181.8838
1017.70 182.1097
1017.80 182.3356
1017.90 182.5615
1018.00 182.7874
1018.10 183.0133
1018.20 183.2392
1018.30 183.4651
1018.40 183.691
1018.50 183.7969
1018.60 183.8227
1018.70 183.8486
1018.80 183.8745
1018.90 183.9004
1019.00 183.9262
1019.10 183.9521
1019.20 183.978
1019.30 184.0039
1019.40 184.0297
1019.50 184.0556
1019.60 184.0815
1019.70 184.1074
1019.80 184.1332
1019.90 184.1591
1020.00 184.185
1020.10 184.2108
1020.20 184.2367
1020.30 184.2626
1020.40 184.2885
1020.50 184.3143
1020.60 184.3402
1020.70 184.3661
1020.80 184.392
1020.90 184.4178
1021.00 184.4437
1021.10 184.4696
1021.20 184.4955
1021.30 184.5213
1021.40 184.5472
1021.50 184.5731
1021.60 184.599
1021.70 184.6248
1021.80 184.6507
1021.90 184.6766
1022.00 184.7025
1022.10 184.7283
1022.20 184.7542
1022.30 184.7801
1022.40 184.7566
1022.50 184.6838
1022.60 184.6111
1022.70 184.5383
1022.80 184.4655
1022.90 184.3927
1023.00 184.3199
1023.10 184.2471
1023.20 184.1743
1023.30 184.1016
1023.40 184.0288
1023.50 183.956
1023.60 183.8832
1023.70 183.8104
1023.80 183.7376
1023.90 183.6649
1024.00 183.5921
1024.10 183.5193
1024.20 183.4465
1024.30 183.3737
1024.40 183.3009
1024.50 183.2281
1024.60 183.1554
1024.70 183.0826
1024.80 183.0098
1024.90 182.937
1025.00 182.8642
1025.10 182.7914
1025.20 182.7187
1025.30 182.6459
1025.40 182.5731
1025.50 182.5003
1025.60 182.4275
1025.70 182.3547
1025.80 182.282
1025.90 182.2092
1026.00 182.1364
1026.10 182.0636
1026.20 181.9908
1026.30 181.933
1026.40 182.0096
1026.50 182.0863
1026.60 182.163
1026.70 182.2397
1026.80 182.3163
1026.90 182.393
1027.00 182.4697
1027.10 182.5464
1027.20 182.623
1027.30 182.6997
1027.40 182.7764
1027.50 182.853
1027.60 182.9297
1027.70 183.0064
1027.80 183.0831
1027.90 183.1597
1028.00 183.2364
1028.10 183.3131
1028.20 183.3898
1028.30 183.4664
1028.40 183.5431
1028.50 183.6198
1028.60 183.6964
1028.70 183.7731
1028.80 183.8498
1028.90 183.9265
1029.00 184.0031
1029.10 184.0798
1029.20 184.1565
1029.30 184.2331
1029.40 184.3098
1029.50 184.3865
1029.60 184.4632
1029.70 184.5398
1029.80 184.6165
1029.90 184.6932
1030.00 184.7699
1030.10 184.8465
1030.20 184.9232
1030.30 184.9732
1030.40 185.0117
1030.50 185.0502
1030.60 185.0887
1030.70 185.1273
1030.80 185.1658
1030.90 185.2043
1031.00 185.2428
1031.10 185.2813
1031.20 185.3199
1031.30 185.3584
1031.40 185.3969
1031.50 185.4354
1031.60 185.4739
1031.70 185.5125
1031.80 185.551
1031.90 185.5895
1032.00 185.628
1032.10 185.6665
1032.20 185.7051
1032.30 185.7436
1032.40 185.7821
1032.50 185.8206
1032.60 185.8591
1032.70 185.8977
1032.80 185.9362
1032.90 185.9747
1033.00 186.0132
1033.10 186.0518
1033.20 186.0903
1033.30 186.1288
1033.40 186.1673
1033.50 186.2058
1033.60 186.2444
1033.70 186.2829
1033.80 186.3214
1033.90 186.3599
1034.00 186.3984
1034.10 186.437
1034.20 186.4961
1034.30 186.7406
1034.40 186.9851
1034.50 187.2296
1034.60 187.4741
1034.70 187.7186
1034.80 187.9631
1034.90 188.2076
1035.00 188.4521
1035.10 188.6966
1035.20 188.9411
1035.30 189.1856
1035.40 189.4301
1035.50 189.6745
1035.60 189.919
1035.70 190.1635
1035.80 190.408
1035.90 190.6525
1036.00 190.897
1036.10 191.1415
1036.20 191.386
1036.30 191.6305
1036.40 191.875
1036.50 192.1195
1036.60 192.364
1036.70 192.6085
1036.80 192.853
1036.90 193.0975
1037.00 193.342
1037.10 193.5865
1037.20 193.831
1037.30 194.0755
1037.40 194.32
1037.50 194.5645
1037.60 194.809
1037.70 195.0535
1037.80 195.298
1037.90 195.5425
1038.00 195.787
1038.10 196.0315
1038.20 196.1581
1038.30 196.108
1038.40 196.0579
1038.50 196.0077
1038.60 195.9576
1038.70 195.9074
1038.80 195.8573
1038.90 195.8072
1039.00 195.757
1039.10 195.7069
1039.20 195.6567
1039.30 195.6066
1039.40 195.5565
1039.50 195.5063
1039.60 195.4562
1039.70 195.4061
1039.80 195.3559
1039.90 195.3058
1040.00 195.2556
1040.10 195.2055
1040.20 195.1554
1040.30 195.1052
1040.40 195.0551
1040.50 195.005
1040.60 194.9548
1040.70 194.9047
1040.80 194.8545
1040.90 194.8044
1041.00 194.7543
1041.10 194.7041
1041.20 194.654
1041.30 194.6039
1041.40 194.5537
1041.50 194.5036
1041.60 194.4534
1041.70 194.4033
1041.80 194.3532
1041.90 194.303
1042.00 194.2529
1042.10 194.2027
1042.20 194.3121
1042.30 194.5279
1042.40 194.7436
1042.50 194.9593
1042.60 195.175
1042.70 195.3908
1042.80 195.6065
1042.90 195.8222
1043.00 196.0379
1043.10 196.2537
1043.20 196.4694
1043.30 196.6851
1043.40 196.9009
1043.50 197.1166
1043.60 197.3323
1043.70 197.548
1043.80 197.7638
1043.90 197.9795
1044.00 198.1952
1044.10 198.4109
1044.20 198.6267
1044.30 198.8424
1044.40 199.0581
1044.50 199.2739
1044.60 199.4896
1044.70 199.7053
1044.80 199.921
1044.90 200.1368
1045.00 200.3525
1045.10 200.5682
1045.20 200.7839
1045.30 200.9997
1045.40 201.2154
1045.50 201.4311
1045.60 201.6468
1045.70 201.8626
1045.80 202.0783
1045.90 202.294
1046.00 202.5098
1046.10 202.7255
1046.20 202.7587
1046.30 202.7137
1046.40 202.6687
1046.50 202.6237
1046.60 202.5788
1046.70 202.5338
1046.80 202.4888
1046.90 202.4438
1047.00 202.3988
1047.10 202.3538
1047.20 202.3088
1047.30 202.2638
1047.40 202.2188
1047.50 202.1739
1047.60 202.1289
1047.70 202.0839
1047.80 202.0389
1047.90 201.9939
1048.00 201.9489
1048.10 201.9039
1048.20 201.8589
1048.30 201.8139
1048.40 201.7689
1048.50 201.724
1048.60 201.679
1048.70 201.634
1048.80 201.589
1048.90 201.544
1049.00 201.499
1049.10 201.454
1049.20 201.409
1049.30 201.364
1049.40 201.3191
1049.50 201.2741
1049.60 201.2291
1049.70 201.1841
1049.80 201.1391
1049.90 201.0941
1050.00 201.0491
1050.10 201.0041
1050.20 201.0108
1050.30 201.0396
1050.40 201.0683
1050.50 201.0971
1050.60 201.1259
1050.70 201.1547
1050.80 201.1835
1050.90 201.2123
1051.00 201.241
1051.10 201.2698
1051.20 201.2986
1051.30 201.3274
1051.40 201.3562
1051.50 201.385
1051.60 201.4137
1051.70 201.4425
1051.80 201.4713
1051.90 201.5001
1052.00 201.5289
1052.10 201.5576
1052.20 201.5864
1052.30 201.6152
1052.40 201.644
1052.50 201.6728
1052.60 201.7016
1052.70 201.7303
1052.80 201.7591
1052.90 201.7879
1053.00 201.8167
1053.10 201.8455
1053.20 201.8742
1053.30 201.903
1053.40 201.9318
1053.50 201.9606
1053.60 201.9894
1053.70 202.0182
1053.80 202.0469
1053.90 202.0757
1054.00 202.1045
1054.10 202.1333
1054.20 202.1826
1054.30 202.2525
1054.40 202.3223
1054.50 202.3922
1054.60 202.462
1054.70 202.5319
1054.80 202.6017
1054.90 202.6716
1055.00 202.7414
1055.10 202.8113
1055.20 202.8811
1055.30 202.951
1055.40 203.0208
1055.50 203.0907
1055.60 203.1605
1055.70 203.2304
1055.80 203.3002
1055.90 203.3701
1056.00 203.4399
1056.10 203.5098
1056.20 203.5796
1056.30 203.6495
1056.40 203.7193
1056.50 203.7892
1056.60 203.859
1056.70 203.9289
1056.80 203.9987
1056.90 204.0686
1057.00 204.1384
1057.10 204.2083
1057.20 204.2781
1057.30 204.348
1057.40 204.4178
1057.50 204.4877
1057.60 204.5575
1057.70 204.6274
1057.80 204.6972
1057.90 204.7671
1058.00 204.8369
1058.10 204.9068
1058.20 204.9752
1058.30 205.0402
1058.40 205.1053
1058.50 205.1703
1058.60 205.2354
1058.70 205.3004
1058.80 205.3655
1058.90 205.4305
1059.00 205.4956
1059.10 205.5606
1059.20 205.6257
1059.30 205.6907
1059.40 205.7558
1059.50 205.8208
1059.60 205.8858
1059.70 205.9509
1059.80 206.0159
1059.90 206.081
1060.00 206.146
1060.10 206.2111
1060.20 206.2761
1060.30 206.3412
1060.40 206.4062
1060.50 206.4713
1060.60 206.5363
1060.70 206.6014
1060.80 206.6664
1060.90 206.7315
1061.00 206.7965
1061.10 206.8616
1061.20 206.9266
1061.30 206.9916
1061.40 207.0567
1061.50 207.1217
1061.60 207.1868
1061.70 207.2518
1061.80 207.3169
1061.90 207.3819
1062.00 207.447
1062.10 207.512
1062.20 207.5771
1062.30 207.6589
1062.40 207.7425
1062.50 207.8261
1062.60 207.9098
1062.70 207.9934
1062.80 208.077
1062.90 208.1607
1063.00 208.2443
1063.10 208.328
1063.20 208.4116
1063.30 208.4952
1063.40 208.5789
1063.50 208.6625
1063.60 208.7462
1063.70 208.8298
1063.80 208.9134
1063.90 208.9971
1064.00 209.0807
1064.10 209.1644
1064.20 209.248
1064.30 209.3316
1064.40 209.4153
1064.50 209.4989
1064.60 209.5825
1064.70 209.6662
1064.80 209.7498
1064.90 209.8335
1065.00 209.9171
1065.10 210.0007
1065.20 210.0844
1065.30 210.168
1065.40 210.2517
1065.50 210.3353
1065.60 210.4189
1065.70 210.5026
1065.80 210.5862
1065.90 210.6699
1066.00 210.7535
1066.10 210.8371
1066.20 210.9208
1066.30 211.0095
1066.40 211.1059
1066.50 211.2022
1066.60 211.2986
1066.70 211.395
1066.80 211.4914
1066.90 211.5877
1067.00 211.6841
1067.10 211.7805
1067.20 211.8768
1067.30 211.9732
1067.40 212.0696
1067.50 212.166
1067.60 212.2623
1067.70 212.3587
1067.80 212.4551
1067.90 212.5514
1068.00 212.6478
1068.10 212.7442
1068.20 212.8406
1068.30 212.9369
1068.40 213.0333
1068.50 213.1297
1068.60 213.226
1068.70 213.3224
1068.80 213.4188
1068.90 213.5152
1069.00 213.6115
1069.10 213.7079
1069.20 213.8043
1069.30 213.9006
1069.40 213.997
1069.50 214.0934
1069.60 214.1897
1069.70 214.2861
1069.80 214.3825
1069.90 214.4789
1070.00 214.5752
1070.10 214.6716
1070.20 214.768
1070.30 214.8643
1070.40 214.9491
1070.50 215.0325
1070.60 215.1159
1070.70 215.1994
1070.80 215.2828
1070.90 215.3662
1071.00 215.4496
1071.10 215.5331
1071.20 215.6165
1071.30 215.6999
1071.40 215.7834
1071.50 215.8668
1071.60 215.9502
1071.70 216.0337
1071.80 216.1171
1071.90 216.2005
1072.00 216.2839
1072.10 216.3674
1072.20 216.4508
1072.30 216.5342
1072.40 216.6177
1072.50 216.7011
1072.60 216.7845
1072.70 216.8679
1072.80 216.9514
1072.90 217.0348
1073.00 217.1182
1073.10 217.2017
1073.20 217.2851
1073.30 217.3685
1073.40 217.452
1073.50 217.5354
1073.60 217.6188
1073.70 217.7022
1073.80 217.7857
1073.90 217.8691
1074.00 217.9525
1074.10 218.036
1074.20 218.1194
1074.30 218.2028
1074.40 218.2877
1074.50 218.3786
1074.60 218.4694
1074.70 218.5603
1074.80 218.6511
1074.90 218.742
1075.00 218.8328
1075.10 218.9237
1075.20 219.0145
1075.30 219.1054
1075.40 219.1962
1075.50 219.287
1075.60 219.3779
1075.70 219.4687
1075.80 219.5596
1075.90 219.6504
1076.00 219.7413
1076.10 219.8321
1076.20 219.923
1076.30 220.0138
1076.40 220.1047
1076.50 220.1955
1076.60 220.2864
1076.70 220.3772
1076.80 220.468
1076.90 220.5589
1077.00 220.6497
1077.10 220.7406
1077.20 220.8314
1077.30 220.9223
1077.40 221.0131
1077.50 221.104
1077.60 221.1948
1077.70 221.2857
1077.80 221.3765
1077.90 221.4674
1078.00 221.5582
1078.10 221.6491
1078.20 221.7399
1078.30 221.8307
1078.40 221.9216
1078.50 221.9734
1078.60 221.9666
1078.70 221.9597
1078.80 221.9529
1078.90 221.9461
1079.00 221.9393
1079.10 221.9325
1079.20 221.9256
1079.30 221.9188
1079.40 221.912
1079.50 221.9052
1079.60 221.8984
1079.70 221.8915
1079.80 221.8847
1079.90 221.8779
1080.00 221.8711
1080.10 221.8643
1080.20 221.8574
1080.30 221.8506
1080.40 221.8438
1080.50 221.837
1080.60 221.8302
1080.70 221.8233
1080.80 221.8165
1080.90 221.8097
1081.00 221.8029
1081.10 221.7961
1081.20 221.7893
1081.30 221.7824
1081.40 221.7756
1081.50 221.7688
1081.60 221.762
1081.70 221.7552
1081.80 221.7483
1081.90 221.7415
1082.00 221.7347
1082.10 221.7279
1082.20 221.7211
1082.30 221.7142
1082.40 221.7074
1082.50 221.7006
1082.60 221.8031
1082.70 222.015
1082.80 222.2268
1082.90 222.4387
1083.00 222.6506
1083.10 222.8624
1083.20 223.0743
1083.30 223.2861
1083.40 223.498
1083.50 223.7099
1083.60 223.9217
1083.70 224.1336
1083.80 224.3455
1083.90 224.5573
1084.00 224.7692
1084.10 224.981
1084.20 225.1929
1084.30 225.4048
1084.40 225.6166
1084.50 225.8285
1084.60 226.0403
1084.70 226.2522
1084.80 226.4641
1084.90 226.6759
1085.00 226.8878
1085.10 227.0996
1085.20 227.3115
1085.30 227.5234
1085.40 227.7352
1085.50 227.9471
1085.60 228.159
1085.70 228.3708
1085.80 228.5827
1085.90 228.7945
1086.00 229.0064
1086.10 229.2183
1086.20 229.4301
1086.30 229.642
1086.40 229.8538
1086.50 230.0657
1086.60 230.2776
1086.70 230.4176
1086.80 230.5098
1086.90 230.6019
1087.00 230.6941
1087.10 230.7863
1087.20 230.8784
1087.30 230.9706
1087.40 231.0627
1087.50 231.1549
1087.60 231.2471
1087.70 231.3392
1087.80 231.4314
1087.90 231.5235
1088.00 231.6157
1088.10 231.7079
1088.20 231.8
1088.30 231.8922
1088.40 231.9843
1088.50 232.0765
1088.60 232.1687
1088.70 232.2608
1088.80 232.353
1088.90 232.4451
1089.00 232.5373
1089.10 232.6295
1089.20 232.7216
1089.30 232.8138
1089.40 232.9059
1089.50 232.9981
1089.60 233.0903
1089.70 233.1824
1089.80 233.2746
1089.90 233.3668
1090.00 233.4589
1090.10 233.5511
1090.20 233.6432
1090.30 233.7354
1090.40 233.8276
1090.50 233.9197
1090.60 234.0119
1090.70 234.104
1090.80 234.1339
1090.90 234.1014
1091.00 234.0689
1091.10 234.0365
1091.20 234.004
1091.30 233.9715
1091.40 233.9391
1091.50 233.9066
1091.60 233.8741
1091.70 233.8417
1091.80 233.8092
1091.90 233.7767
1092.00 233.7443
1092.10 233.7118
1092.20 233.6793
1092.30 233.6469
1092.40 233.6144
1092.50 233.5819
1092.60 233.5494
1092.70 233.517
1092.80 233.4845
1092.90 233.452
1093.00 233.4196
1093.10 233.3871
1093.20 233.3546
1093.30 233.3222
1093.40 233.2897
1093.50 233.2572
1093.60 233.2248
1093.70 233.1923
1093.80 233.1598
1093.90 233.1274
1094.00 233.0949
1094.10 233.0624
1094.20 233.03
1094.30 232.9975
1094.40 232.965
1094.50 232.9325
1094.60 232.9001
1094.70 232.8676
1094.80 232.8351
1094.90 232.882
1095.00 233.0479
1095.10 233.2138
1095.20 233.3797
1095.30 233.5456
1095.40 233.7115
1095.50 233.8774
1095.60 234.0433
1095.70 234.2092
1095.80 234.3751
1095.90 234.541
1096.00 234.7069
1096.10 234.8728
1096.20 235.0387
1096.30 235.2046
1096.40 235.3705
1096.50 235.5364
1096.60 235.7023
1096.70 235.8682
1096.80 236.0341
1096.90 236.2
1097.00 236.3659
1097.10 236.5318
1097.20 236.6977
1097.30 236.8636
1097.40 237.0295
1097.50 237.1954
1097.60 237.3613
1097.70 237.5272
1097.80 237.6931
1097.90 237.859
1098.00 238.0249
1098.10 238.1908
1098.20 238.3567
1098.30 238.5226
1098.40 238.6885
1098.50 238.8544
1098.60 239.0203
1098.70 239.1862
1098.80 239.3521
1098.90 239.518
1099.00 239.6567
1099.10 239.5507
1099.20 239.4447
1099.30 239.3387
1099.40 239.2327
1099.50 239.1268
1099.60 239.0208
1099.70 238.9148
1099.80 238.8088
1099.90 238.7028
1100.00 238.5968
1100.10 238.4908
1100.20 238.3848
1100.30 238.2788
1100.40 238.1729
1100.50 238.0669
1100.60 237.9609
1100.70 237.8549
1100.80 237.7489
1100.90 237.6429
1101.00 237.5369
1101.10 237.4309
1101.20 237.325
1101.30 237.219
1101.40 237.113
1101.50 237.007
1101.60 236.901
1101.70 236.795
1101.80 236.689
1101.90 236.583
1102.00 236.4771
1102.10 236.3711
1102.20 236.2651
1102.30 236.1591
1102.40 236.0531
1102.50 235.9471
1102.60 235.8411
1102.70 235.7351
1102.80 235.6292
1102.90 235.5232
1103.00 235.4172
1103.10 235.3112
1103.20 235.2022
1103.30 235.0924
1103.40 234.9827
1103.50 234.8729
1103.60 234.7632
1103.70 234.6534
1103.80 234.5437
1103.90 234.4339
1104.00 234.3242
1104.10 234.2144
1104.20 234.1047
1104.30 233.9949
1104.40 233.8852
1104.50 233.7754
1104.60 233.6657
1104.70 233.5559
1104.80 233.4462
1104.90 233.3364
1105.00 233.2267
1105.10 233.1169
1105.20 233.0072
1105.30 232.8974
1105.40 232.7877
1105.50 232.6779
1105.60 232.5682
1105.70 232.4584
1105.80 232.3487
1105.90 232.2389
1106.00 232.1292
1106.10 232.0194
1106.20 231.9097
1106.30 231.7999
1106.40 231.6902
1106.50 231.5804
1106.60 231.4707
1106.70 231.3609
1106.80 231.2512
1106.90 231.1414
1107.00 231.0317
1107.10 230.9219
1107.20 230.8122
1107.30 230.7205
1107.40 230.6558
1107.50 230.5911
1107.60 230.5265
1107.70 230.4618
1107.80 230.3971
1107.90 230.3325
1108.00 230.2678
1108.10 230.2032
1108.20 230.1385
1108.30 230.0738
1108.40 230.0092
1108.50 229.9445
1108.60 229.8798
1108.70 229.8152
1108.80 229.7505
1108.90 229.6858
1109.00 229.6212
1109.10 229.5565
1109.20 229.4918
1109.30 229.4272
1109.40 229.3625
1109.50 229.2978
1109.60 229.2332
1109.70 229.1685
1109.80 229.1038
1109.90 229.0392
1110.00 228.9745
1110.10 228.9098
1110.20 228.8452
1110.30 228.7805
1110.40 228.7158
1110.50 228.6512
1110.60 228.5865
1110.70 228.5219
1110.80 228.4572
1110.90 228.3925
1111.00 228.3279
1111.10 228.2632
1111.20 228.1985
1111.30 228.1339
1111.40 228.0692
1111.50 227.9384
1111.60 227.8003
1111.70 227.6622
1111.80 227.5241
1111.90 227.3859
1112.00 227.2478
1112.10 227.1097
1112.20 226.9716
1112.30 226.8335
1112.40 226.6954
1112.50 226.5572
1112.60 226.4191
1112.70 226.281
1112.80 226.1429
1112.90 226.0048
1113.00 225.8666
1113.10 225.7285
1113.20 225.5904
1113.30 225.4523
1113.40 225.3142
1113.50 225.1761
1113.60 225.0379
1113.70 224.8998
1113.80 224.7617
1113.90 224.6236
1114.00 224.4855
1114.10 224.3473
1114.20 224.2092
1114.30 224.0711
1114.40 223.933
1114.50 223.7949
1114.60 223.6568
1114.70 223.5186
1114.80 223.3805
1114.90 223.2424
1115.00 223.1043
1115.10 222.9662
1115.20 222.828
1115.30 222.6899
1115.40 222.5518
1115.50 222.4137
1115.60 222.3747
1115.70 222.5669
1115.80 222.7591
1115.90 222.9514
1116.00 223.1436
1116.10 223.3358
1116.20 223.5281
1116.30 223.7203
1116.40 223.9125
1116.50 224.1048
1116.60 224.297
1116.70 224.4892
1116.80 224.6815
1116.90 224.8737
1117.00 225.0659
1117.10 225.2582
1117.20 225.4504
1117.30 225.6426
1117.40 225.8349
1117.50 226.0271
1117.60 226.2193
1117.70 226.4116
1117.80 226.6038
1117.90 226.796
1118.00 226.9883
1118.10 227.1805
1118.20 227.3727
1118.30 227.565
1118.40 227.7572
1118.50 227.9494
1118.60 228.1417
1118.70 228.3339
1118.80 228.5261
1118.90 228.7184
1119.00 228.9106
1119.10 229.1028
1119.20 229.2951
1119.30 229.4873
1119.40 229.6795
1119.50 229.8718
1119.60 230.064
1119.70 230.2562
1119.80 230.343
1119.90 230.3596
1120.00 230.3761
1120.10 230.3926
1120.20 230.4092
1120.30 230.4257
1120.40 230.4422
1120.50 230.4587
1120.60 230.4753
1120.70 230.4918
1120.80 230.5083
1120.90 230.5249
1121.00 230.5414
1121.10 230.5579
1121.20 230.5744
1121.30 230.591
1121.40 230.6075
1121.50 230.624
1121.60 230.6406
1121.70 230.6571
1121.80 230.6736
1121.90 230.6902
1122.00 230.7067
1122.10 230.7232
1122.20 230.7397
1122.30 230.7563
1122.40 230.7728
1122.50 230.7893
1122.60 230.8059
1122.70 230.8224
1122.80 230.8389
1122.90 230.8554
1123.00 230.872
1123.10 230.8885
1123.20 230.905
1123.30 230.9216
1123.40 230.9381
1123.50 230.9546
1123.60 230.9711
1123.70 230.9877
1123.80 231.0042
1123.90 231.0207
1124.00 230.9547
1124.10 230.8795
1124.20 230.8044
1124.30 230.7292
1124.40 230.654
1124.50 230.5788
1124.60 230.5036
1124.70 230.4284
1124.80 230.3533
1124.90 230.2781
1125.00 230.2029
1125.10 230.1277
1125.20 230.0525
1125.30 229.9774
1125.40 229.9022
1125.50 229.827
1125.60 229.7518
1125.70 229.6766
1125.80 229.6014
1125.90 229.5263
1126.00 229.4511
1126.10 229.3759
1126.20 229.3007
1126.30 229.2255
1126.40 229.1504
1126.50 229.0752
1126.60 229
1126.70 228.9248
1126.80 228.8496
1126.90 228.7744
1127.00 228.6993
1127.10 228.6241
1127.20 228.5489
1127.30 228.4737
1127.40 228.3985
1127.50 228.3234
1127.60 228.2482
1127.70 228.173
1127.80 228.0978
1127.90 228.0226
1128.00 227.9474
1128.10 227.874
1128.20 227.8162
1128.30 227.7584
1128.40 227.7006
1128.50 227.6428
1128.60 227.585
1128.70 227.5272
1128.80 227.4694
1128.90 227.4116
1129.00 227.3537
1129.10 227.2959
1129.20 227.2381
1129.30 227.1803
1129.40 227.1225
1129.50 227.0647
1129.60 227.0069
1129.70 226.9491
1129.80 226.8913
1129.90 226.8335
1130.00 226.7757
1130.10 226.7179
1130.20 226.6601
1130.30 226.6023
1130.40 226.5445
1130.50 226.4867
1130.60 226.4289
1130.70 226.371
1130.80 226.3132
1130.90 226.2554
1131.00 226.1976
1131.10 226.1398
1131.20 226.082
1131.30 226.0242
1131.40 225.9664
1131.50 225.9086
1131.60 225.8508
1131.70 225.793
1131.80 225.7352
1131.90 225.6774
1132.00 225.6196
1132.10 225.5618
1132.20 225.504
1132.30 225.509
1132.40 225.7655
1132.50 226.022
1132.60 226.2784
1132.70 226.5349
1132.80 226.7914
1132.90 227.0479
1133.00 227.3043
1133.10 227.5608
1133.20 227.8173
1133.30 228.0738
1133.40 228.3302
1133.50 228.5867
1133.60 228.8432
1133.70 229.0997
1133.80 229.3561
1133.90 229.6126
1134.00 229.8691
1134.10 230.1255
1134.20 230.382
1134.30 230.6385
1134.40 230.895
1134.50 231.1514
1134.60 231.4079
1134.70 231.6644
1134.80 231.9209
1134.90 232.1773
1135.00 232.4338
1135.10 232.6903
1135.20 232.9468
1135.30 233.2032
1135.40 233.4597
1135.50 233.7162
1135.60 233.9727
1135.70 234.2291
1135.80 234.4856
1135.90 234.7421
1136.00 234.9986
1136.10 235.255
1136.20 235.5115
1136.30 235.768
1136.40 236.0245
1136.50 236.1409
1136.60 235.9308
1136.70 235.7207
1136.80 235.5105
1136.90 235.3004
1137.00 235.0902
1137.10 234.8801
1137.20 234.67
1137.30 234.4598
1137.40 234.2497
1137.50 234.0395
1137.60 233.8294
1137.70 233.6192
1137.80 233.4091
1137.90 233.199
1138.00 232.9888
1138.10 232.7787
1138.20 232.5685
1138.30 232.3584
1138.40 232.1483
1138.50 231.9381
1138.60 231.728
1138.70 231.5178
1138.80 231.3077
1138.90 231.0975
1139.00 230.8874
1139.10 230.6773
1139.20 230.4671
1139.30 230.257
1139.40 230.0468
1139.50 229.8367
1139.60 229.6266
1139.70 229.4164
1139.80 229.2063
1139.90 228.9961
1140.00 228.786
1140.10 228.5758
1140.20 228.3657
1140.30 228.1556
1140.40 227.9454
1140.50 227.7353
1140.60 227.5251
1140.70 227.3512
1140.80 227.2617
1140.90 227.1722
1141.00 227.0826
1141.10 226.9931
1141.20 226.9036
1141.30 226.8141
1141.40 226.7246
1141.50 226.6351
1141.60 226.5456
1141.70 226.456
1141.80 226.3665
1141.90 226.277
1142.00 226.1875
1142.10 226.098
1142.20 226.0085
1142.30 225.919
1142.40 225.8295
1142.50 225.7399
1142.60 225.6504
1142.70 225.5609
1142.80 225.4714
1142.90 225.3819
1143.00 225.2924
1143.10 225.2029
1143.20 225.1133
1143.30 225.0238
1143.40 224.9343
1143.50 224.8448
1143.60 224.7553
1143.70 224.6658
1143.80 224.5763
1143.90 224.4867
1144.00 224.3972
1144.10 224.3077
1144.20 224.2182
1144.30 224.1287
1144.40 224.0392
1144.50 223.9497
1144.60 223.8601
1144.70 223.7706
1144.80 223.6811
1144.90 223.6513
1145.00 223.8601
1145.10 224.0689
1145.20 224.2777
1145.30 224.4865
1145.40 224.6954
1145.50 224.9042
1145.60 225.113
1145.70 225.3218
1145.80 225.5306
1145.90 225.7395
1146.00 225.9483
1146.10 226.1571
1146.20 226.3659
1146.30 226.5747
1146.40 226.7836
1146.50 226.9924
1146.60 227.2012
1146.70 227.41
1146.80 227.6188
1146.90 227.8277
1147.00 228.0365
1147.10 228.2453
1147.20 228.4541
1147.30 228.6629
1147.40 228.8718
1147.50 229.0806
1147.60 229.2894
1147.70 229.4982
1147.80 229.7071
1147.90 229.9159
1148.00 230.1247
1148.10 230.3335
1148.20 230.5423
1148.30 230.7512
1148.40 230.96
1148.50 231.1688
1148.60 231.3776
1148.70 231.5864
1148.80 231.7953
1148.90 232.0041
1149.00 232.2129
1149.10 232.4217
1149.20 232.6202
1149.30 232.8187
1149.40 233.0173
1149.50 233.2158
1149.60 233.4143
1149.70 233.6128
1149.80 233.8113
1149.90 234.0098
1150.00 234.2083
1150.10 234.4068
1150.20 234.6054
1150.30 234.8039
1150.40 235.0024
1150.50 235.2009
1150.60 235.3994
1150.70 235.5979
1150.80 235.7964
1150.90 235.9949
1151.00 236.1935
1151.10 236.392
1151.20 236.5905
1151.30 236.789
1151.40 236.9875
1151.50 237.186
1151.60 237.3845
1151.70 237.583
1151.80 237.7816
1151.90 237.9801
1152.00 238.1786
1152.10 238.3771
1152.20 238.5756
1152.30 238.7741
1152.40 238.9726
1152.50 239.1712
1152.60 239.3697
1152.70 239.5682
1152.80 239.7667
1152.90 239.9652
1153.00 240.1637
1153.10 240.3622
1153.20 240.5607
1153.30 240.7593
1153.40 240.8076
1153.50 240.8184
1153.60 240.8292
1153.70 240.8399
1153.80 240.8507
1153.90 240.8615
1154.00 240.8723
1154.10 240.8831
1154.20 240.8939
1154.30 240.9047
1154.40 240.9154
1154.50 240.9262
1154.60 240.937
1154.70 240.9478
1154.80 240.9586
1154.90 240.9694
1155.00 240.9802
1155.10 240.991
1155.20 241.0017
1155.30 241.0125
1155.40 241.0233
1155.50 241.0341
1155.60 241.0449
1155.70 241.0557
1155.80 241.0665
1155.90 241.0772
1156.00 241.088
1156.10 241.0988
1156.20 241.1096
1156.30 241.1204
1156.40 241.1312
1156.50 241.142
1156.60 241.1528
1156.70 241.1635
1156.80 241.1743
1156.90 241.1851
1157.00 241.1959
1157.10 241.2067
1157.20 241.2175
1157.30 241.2283
1157.40 241.239
1157.50 241.2498
1157.60 241.3135
1157.70 241.4125
1157.80 241.5114
1157.90 241.6104
1158.00 241.7093
1158.10 241.8083
1158.20 241.9072
1158.30 242.0062
1158.40 242.1051
1158.50 242.2041
1158.60 242.303
1158.70 242.402
1158.80 242.5009
1158.90 242.5999
1159.00 242.6988
1159.10 242.7978
1159.20 242.8967
1159.30 242.9957
1159.40 243.0946
1159.50 243.1936
1159.60 243.2925
1159.70 243.3915
1159.80 243.4904
1159.90 243.5894
1160.00 243.6883
1160.10 243.7873
1160.20 243.8862
1160.30 243.9852
1160.40 244.0841
1160.50 244.1831
1160.60 244.282
1160.70 244.381
1160.80 244.4799
1160.90 244.5789
1161.00 244.6778
1161.10 244.7768
1161.20 244.8757
1161.30 244.9747
1161.40 245.0736
1161.50 245.1726
1161.60 245.2715
1161.70 245.3705
1161.80 245.4573
1161.90 245.4956
1162.00 245.5339
1162.10 245.5722
1162.20 245.6105
1162.30 245.6489
1162.40 245.6872
1162.50 245.7255
1162.60 245.7638
1162.70 245.8021
1162.80 245.8404
1162.90 245.8787
1163.00 245.917
1163.10 245.9554
1163.20 245.9937
1163.30 246.032
1163.40 246.0703
1163.50 246.1086
1163.60 246.1469
1163.70 246.1852
1163.80 246.2235
1163.90 246.2619
1164.00 246.3002
1164.10 246.3385
1164.20 246.3768
1164.30 246.4151
1164.40 246.4534
1164.50 246.4917
1164.60 246.53
1164.70 246.5684
1164.80 246.6067
1164.90 246.645
1165.00 246.6833
1165.10 246.7216
1165.20 246.7599
1165.30 246.7982
1165.40 246.8365
1165.50 246.8749
1165.60 246.9132
1165.70 246.9515
1165.80 246.9898
1165.90 247.0281
1166.00 247.0664
1166.10 246.8721
1166.20 246.652
1166.30 246.4318
1166.40 246.2117
1166.50 245.9915
1166.60 245.7714
1166.70 245.5512
1166.80 245.3311
1166.90 245.1109
1167.00 244.8908
1167.10 244.6706
1167.20 244.4505
1167.30 244.2303
1167.40 244.0102
1167.50 243.79
1167.60 243.5699
1167.70 243.3498
1167.80 243.1296
1167.90 242.9095
1168.00 242.6893
1168.10 242.4692
1168.20 242.249
1168.30 242.0289
1168.40 241.8087
1168.50 241.5886
1168.60 241.3684
1168.70 241.1483
1168.80 240.9281
1168.90 240.708
1169.00 240.4878
1169.10 240.2677
1169.20 240.0475
1169.30 239.8274
1169.40 239.6072
1169.50 239.3871
1169.60 239.1669
1169.70 238.9468
1169.80 238.7266
1169.90 238.5065
1170.00 238.2863
1170.10 238.0662
1170.20 237.846
1170.30 237.6517
1170.40 237.496
1170.50 237.3403
1170.60 237.1846
1170.70 237.0288
1170.80 236.8731
1170.90 236.7174
1171.00 236.5617
1171.10 236.406
1171.20 236.2503
1171.30 236.0946
1171.40 235.9389
1171.50 235.7832
1171.60 235.6275
1171.70 235.4718
1171.80 235.3161
1171.90 235.1604
1172.00 235.0047
1172.10 234.8489
1172.20 234.6932
1172.30 234.5375
1172.40 234.3818
1172.50 234.2261
1172.60 234.0704
1172.70 233.9147
1172.80 233.759
1172.90 233.6033
1173.00 233.4476
1173.10 233.2919
1173.20 233.1362
1173.30 232.9805
1173.40 232.8248
1173.50 232.669
1173.60 232.5133
1173.70 232.3576
1173.80 232.2019
1173.90 232.0462
1174.00 231.8905
1174.10 231.7348
1174.20 231.5791
1174.30 231.4234
1174.40 231.2677
1174.50 231.112
1174.60 231.0617
1174.70 231.0231
1174.80 230.9846
1174.90 230.946
1175.00 230.9074
1175.10 230.8689
1175.20 230.8303
1175.30 230.7918
1175.40 230.7532
1175.50 230.7146
1175.60 230.6761
1175.70 230.6375
1175.80 230.5989
1175.90 230.5604
1176.00 230.5218
1176.10 230.4833
1176.20 230.4447
1176.30 230.4061
1176.40 230.3676
1176.50 230.329
1176.60 230.2904
1176.70 230.2519
1176.80 230.2133
1176.90 230.1747
1177.00 230.1362
1177.10 230.0976
1177.20 230.0591
1177.30 230.0205
1177.40 229.9819
1177.50 229.9434
1177.60 229.9048
1177.70 229.8662
1177.80 229.8277
1177.90 229.7891
1178.00 229.7506
1178.10 229.712
1178.20 229.6734
1178.30 229.6349
1178.40 229.5963
1178.50 229.5577
1178.60 229.5192
1178.70 229.4806
1178.80 229.5025
1178.90 229.6152
1179.00 229.7279
1179.10 229.8406
1179.20 229.9533
1179.30 230.066
1179.40 230.1787
1179.50 230.2914
1179.60 230.4041
1179.70 230.5168
1179.80 230.6295
1179.90 230.7421
1180.00 230.8548
1180.10 230.9675
1180.20 231.0802
1180.30 231.1929
1180.40 231.3056
1180.50 231.4183
1180.60 231.531
1180.70 231.6437
1180.80 231.7564
1180.90 231.8691
1181.00 231.9817
1181.10 232.0944
1181.20 232.2071
1181.30 232.3198
1181.40 232.4325
1181.50 232.5452
1181.60 232.6579
1181.70 232.7706
1181.80 232.8833
1181.90 232.996
1182.00 233.1087
1182.10 233.2213
1182.20 233.334
1182.30 233.4467
1182.40 233.5594
1182.50 233.6721
1182.60 233.7848
1182.70 233.8975
1182.80 234.0102
1182.90 234.1229
1183.00 234.2356
1183.10 234.2034
1183.20 234.135
1183.30 234.0667
1183.40 233.9983
1183.50 233.93
1183.60 233.8616
1183.70 233.7932
1183.80 233.7249
1183.90 233.6565
1184.00 233.5882
1184.10 233.5198
1184.20 233.4514
1184.30 233.3831
1184.40 233.3147
1184.50 233.2464
1184.60 233.178
1184.70 233.1096
1184.80 233.0413
1184.90 232.9729
1185.00 232.9046
1185.10 232.8362
1185.20 232.7678
1185.30 232.6995
1185.40 232.6311
1185.50 232.5628
1185.60 232.4944
1185.70 232.426
1185.80 232.3577
1185.90 232.2893
1186.00 232.221
1186.10 232.1526
1186.20 232.0842
1186.30 232.0159
1186.40 231.9475
1186.50 231.8792
1186.60 231.8108
1186.70 231.7424
1186.80 231.6741
1186.90 231.6057
1187.00 231.5373
1187.10 231.469
1187.20 231.4006
1187.30 231.3903
1187.40 231.6118
1187.50 231.8334
1187.60 232.055
1187.70 232.2766
1187.80 232.4981
1187.90 232.7197
1188.00 232.9413
1188.10 233.1628
1188.20 233.3844
1188.30 233.606
1188.40 233.8276
1188.50 234.0491
1188.60 234.2707
1188.70 234.4923
1188.80 234.7139
1188.90 234.9354
1189.00 235.157
1189.10 235.3786
1189.20 235.6002
1189.30 235.8217
1189.40 236.0433
1189.50 236.2649
1189.60 236.4865
1189.70 236.708
1189.80 236.9296
1189.90 237.1512
1190.00 237.3728
1190.10 237.5943
1190.20 237.8159
1190.30 238.0375
1190.40 238.2591
1190.50 238.4806
1190.60 238.7022
1190.70 238.9238
1190.80 239.1454
1190.90 239.3669
1191.00 239.5885
1191.10 239.8101
1191.20 240.0317
1191.30 240.2532
1191.40 240.4748
1191.50 240.6964
1191.60 240.8121
1191.70 240.8219
1191.80 240.8317
1191.90 240.8415
1192.00 240.8514
1192.10 240.8612
1192.20 240.871
1192.30 240.8808
1192.40 240.8907
1192.50 240.9005
1192.60 240.9103
1192.70 240.9201
1192.80 240.93
1192.90 240.9398
1193.00 240.9496
1193.10 240.9594
1193.20 240.9693
1193.30 240.9791
1193.40 240.9889
1193.50 240.9987
1193.60 241.0086
1193.70 241.0184
1193.80 241.0282
1193.90 241.038
1194.00 241.0479
1194.10 241.0577
1194.20 241.0675
1194.30 241.0773
1194.40 241.0872
1194.50 241.097
1194.60 241.1068
1194.70 241.1166
1194.80 241.1265
1194.90 241.1363
1195.00 241.1461
1195.10 241.1559
1195.20 241.1658
1195.30 241.1756
1195.40 241.1854
1195.50 241.1952
1195.60 241.2051
1195.70 241.2149
1195.80 241.2247
1195.90 241.2256
1196.00 241.2243
1196.10 241.223
1196.20 241.2217
1196.30 241.2204
1196.40 241.2191
1196.50 241.2178
1196.60 241.2165
1196.70 241.2152
1196.80 241.2139
1196.90 241.2126
1197.00 241.2113
1197.10 241.21
1197.20 241.2087
1197.30 241.2074
1197.40 241.2061
1197.50 241.2048
1197.60 241.2035
1197.70 241.2022
1197.80 241.2009
1197.90 241.1996
1198.00 241.1983
1198.10 241.197
1198.20 241.1957
1198.30 241.1944
1198.40 241.1931
1198.50 241.1918
1198.60 241.1905
1198.70 241.1892
1198.80 241.1879
1198.90 241.1866
1199.00 241.1853
1199.10 241.184
1199.20 241.1827
1199.30 241.1814
1199.40 241.1801
1199.50 241.1788
1199.60 241.1775
1199.70 241.1762
1199.80 241.1749
1199.90 241.1736
1200.00 241.1723
1200.10 241.171
1200.20 241.0222
1200.30 240.8734
1200.40 240.7247
1200.50 240.5759
1200.60 240.4271
1200.70 240.2784
1200.80 240.1296
1200.90 239.9808
1201.00 239.8321
1201.10 239.6833
1201.20 239.5345
1201.30 239.3858
1201.40 239.237
1201.50 239.0882
1201.60 238.9395
1201.70 238.7907
1201.80 238.6419
1201.90 238.4931
1202.00 238.3444
1202.10 238.1956
1202.20 238.0468
1202.30 237.8981
1202.40 237.7493
1202.50 237.6005
1202.60 237.4518
1202.70 237.303
1202.80 237.1542
1202.90 237.0055
1203.00 236.8567
1203.10 236.7079
1203.20 236.5592
1203.30 236.4104
1203.40 236.2616
1203.50 236.1129
1203.60 235.9641
1203.70 235.8153
1203.80 235.6666
1203.90 235.5178
1204.00 235.369
1204.10 235.2203
1204.20 235.0715
1204.30 234.9227
1204.40 234.8243
1204.50 234.9271
1204.60 235.0298
1204.70 235.1326
1204.80 235.2354
1204.90 235.3382
1205.00 235.441
1205.10 235.5438
1205.20 235.6466
1205.30 235.7493
1205.40 235.8521
1205.50 235.9549
1205.60 236.0577
1205.70 236.1605
1205.80 236.2633
1205.90 236.3661
1206.00 236.4688
1206.10 236.5716
1206.20 236.6744
1206.30 236.7772
1206.40 236.88
1206.50 236.9828
1206.60 237.0856
1206.70 237.1883
1206.80 237.2911
1206.90 237.3939
1207.00 237.4967
1207.10 237.5995
1207.20 237.7023
1207.30 237.8051
1207.40 237.9078
1207.50 238.0106
1207.60 238.1134
1207.70 238.2162
1207.80 238.319
1207.90 238.4218
1208.00 238.5246
1208.10 238.6273
1208.20 238.7301
1208.30 238.8329
1208.40 238.9357
1208.50 239.0385
1208.60 239.1413
1208.70 239.3076
1208.80 239.5691
1208.90 239.8307
1209.00 240.0922
1209.10 240.3538
1209.20 240.6154
1209.30 240.8769
1209.40 241.1385
1209.50 241.4
1209.60 241.6616
1209.70 241.9232
1209.80 242.1847
1209.90 242.4463
1210.00 242.7078
1210.10 242.9694
1210.20 243.231
1210.30 243.4925
1210.40 243.7541
1210.50 244.0156
1210.60 244.2772
1210.70 244.5388
1210.80 244.8003
1210.90 245.0619
1211.00 245.3234
1211.10 245.585
1211.20 245.8466
1211.30 246.1081
1211.40 246.3697
1211.50 246.6312
1211.60 246.8928
1211.70 247.1544
1211.80 247.4159
1211.90 247.6775
1212.00 247.939
1212.10 248.2006
1212.20 248.4622
1212.30 248.7237
1212.40 248.9853
1212.50 249.2468
1212.60 249.5084
1212.70 249.77
1212.80 250.0315
1212.90 250.2931
1213.00 250.4424
1213.10 250.4795
1213.20 250.5165
1213.30 250.5536
1213.40 250.5907
1213.50 250.6277
1213.60 250.6648
1213.70 250.7019
1213.80 250.739
1213.90 250.776
1214.00 250.8131
1214.10 250.8502
1214.20 250.8872
1214.30 250.9243
1214.40 250.9614
1214.50 250.9984
1214.60 251.0355
1214.70 251.0726
1214.80 251.1096
1214.90 251.1467
1215.00 251.1838
1215.10 251.2209
1215.20 251.2579
1215.30 251.295
1215.40 251.3321
1215.50 251.3691
1215.60 251.4062
1215.70 251.4433
1215.80 251.4803
1215.90 251.5174
1216.00 251.5545
1216.10 251.5916
1216.20 251.6286
1216.30 251.6657
1216.40 251.7028
1216.50 251.7398
1216.60 251.7769
1216.70 251.814
1216.80 251.851
1216.90 251.8881
1217.00 251.9252
1217.10 251.9623
1217.20 251.9993
1217.30 252.0452
1217.40 252.097
1217.50 252.1488
1217.60 252.2006
1217.70 252.2524
1217.80 252.3042
1217.90 252.356
1218.00 252.4078
1218.10 252.4596
1218.20 252.5114
1218.30 252.5632
1218.40 252.615
1218.50 252.6668
1218.60 252.7186
1218.70 252.7704
1218.80 252.8222
1218.90 252.874
1219.00 252.9258
1219.10 252.9776
1219.20 253.0294
1219.30 253.0812
1219.40 253.133
1219.50 253.1848
1219.60 253.2366
1219.70 253.2884
1219.80 253.3402
1219.90 253.392
1220.00 253.4438
1220.10 253.4956
1220.20 253.5474
1220.30 253.5992
1220.40 253.651
1220.50 253.7028
1220.60 253.7546
1220.70 253.8064
1220.80 253.8582
1220.90 253.91
1221.00 253.9617
1221.10 254.0135
1221.20 254.0653
1221.30 254.1171
1221.40 254.1689
1221.50 254.2207
1221.60 254.3353
1221.70 254.4768
1221.80 254.6182
1221.90 254.7597
1222.00 254.9012
1222.10 255.0426
1222.20 255.1841
1222.30 255.3256
1222.40 255.467
1222.50 255.6085
1222.60 255.75
1222.70 255.8914
1222.80 256.0329
1222.90 256.1744
1223.00 256.3158
1223.10 256.4573
1223.20 256.5987
1223.30 256.7402
1223.40 256.8817
1223.50 257.0231
1223.60 257.1646
1223.70 257.3061
1223.80 257.4475
1223.90 257.589
1224.00 257.7305
1224.10 257.8719
1224.20 258.0134
1224.30 258.1549
1224.40 258.2963
1224.50 258.4378
1224.60 258.5793
1224.70 258.7207
1224.80 258.8622
1224.90 259.0037
1225.00 259.1451
1225.10 259.2866
1225.20 259.4281
1225.30 259.5695
1225.40 259.711
1225.50 259.8524
1225.60 259.9939
1225.70 260.1354
1225.80 260.2768
1225.90 260.2952
1226.00 260.2608
1226.10 260.2264
1226.20 260.192
1226.30 260.1577
1226.40 260.1233
1226.50 260.0889
1226.60 260.0545
1226.70 260.0201
1226.80 259.9857
1226.90 259.9513
1227.00 259.9169
1227.10 259.8826
1227.20 259.8482
1227.30 259.8138
1227.40 259.7794
1227.50 259.745
1227.60 259.7106
1227.70 259.6762
1227.80 259.6418
1227.90 259.6074
1228.00 259.5731
1228.10 259.5387
1228.20 259.5043
1228.30 259.4699
1228.40 259.4355
1228.50 259.4011
1228.60 259.3667
1228.70 259.3323
1228.80 259.298
1228.90 259.2636
1229.00 259.2292
1229.10 259.1948
1229.20 259.1604
1229.30 259.126
1229.40 259.0916
1229.50 259.0572
1229.60 259.0228
1229.70 258.9885
1229.80 258.9541
1229.90 258.9197
1230.00 258.8853
1230.10 258.8509
1230.20 258.9592
1230.30 259.1032
1230.40 259.2472
1230.50 259.3912
1230.60 259.5352
1230.70 259.6792
1230.80 259.8232
1230.90 259.9672
1231.00 260.1112
1231.10 260.2552
1231.20 260.3992
1231.30 260.5432
1231.40 260.6872
1231.50 260.8312
1231.60 260.9752
1231.70 261.1192
1231.80 261.2632
1231.90 261.4072
1232.00 261.5512
1232.10 261.6952
1232.20 261.8392
1232.30 261.9832
1232.40 262.1271
1232.50 262.2711
1232.60 262.4151
1232.70 262.5591
1232.80 262.7031
1232.90 262.8471
1233.00 262.9911
1233.10 263.1351
1233.20 263.2791
1233.30 263.4231
1233.40 263.5671
1233.50 263.7111
1233.60 263.8551
1233.70 263.9991
1233.80 264.1431
1233.90 264.2871
1234.00 264.4311
1234.10 264.5751
1234.20 264.7191
1234.30 264.8631
1234.40 265.0071
1234.50 265.0694
1234.60 265.0968
1234.70 265.1242
1234.80 265.1516
1234.90 265.179
1235.00 265.2063
1235.10 265.2337
1235.20 265.2611
1235.30 265.2885
1235.40 265.3158
1235.50 265.3432
1235.60 265.3706
1235.70 265.398
1235.80 265.4254
1235.90 265.4527
1236.00 265.4801
1236.10 265.5075
1236.20 265.5349
1236.30 265.5622
1236.40 265.5896
1236.50 265.617
1236.60 265.6444
1236.70 265.6718
1236.80 265.6991
1236.90 265.7265
1237.00 265.7539
1237.10 265.7813
1237.20 265.8086
1237.30 265.836
1237.40 265.8634
1237.50 265.8908
1237.60 265.9182
1237.70 265.9455
1237.80 265.9729
1237.90 266.0003
1238.00 266.0277
1238.10 266.0551
1238.20 266.0824
1238.30 266.1098
1238.40 266.1372
1238.50 266.1646
1238.60 266.1919
1238.70 266.2193
1238.80 266.1237
1238.90 265.9754
1239.00 265.8272
1239.10 265.6789
1239.20 265.5306
1239.30 265.3823
1239.40 265.234
1239.50 265.0857
1239.60 264.9374
1239.70 264.7891
1239.80 264.6408
1239.90 264.4926
1240.00 264.3443
1240.10 264.196
1240.20 264.0477
1240.30 263.8994
1240.40 263.7511
1240.50 263.6028
1240.60 263.4545
1240.70 263.3062
1240.80 263.158
1240.90 263.0097
1241.00 262.8614
1241.10 262.7131
1241.20 262.5648
1241.30 262.4165
1241.40 262.2682
1241.50 262.1199
1241.60 261.9717
1241.70 261.8234
1241.80 261.6751
1241.90 261.5268
1242.00 261.3785
1242.10 261.2302
1242.20 261.0819
1242.30 260.9336
1242.40 260.7853
1242.50 260.6371
1242.60 260.4888
1242.70 260.3405
1242.80 260.1922
1242.90 260.0439
1243.00 259.8956
1243.10 259.846
1243.20 259.8387
1243.30 259.8313
1243.40 259.824
1243.50 259.8167
1243.60 259.8093
1243.70 259.802
1243.80 259.7946
1243.90 259.7873
1244.00 259.78
1244.10 259.7726
1244.20 259.7653
1244.30 259.758
1244.40 259.7506
1244.50 259.7433
1244.60 259.736
1244.70 259.7286
1244.80 259.7213
1244.90 259.714
1245.00 259.7066
1245.10 259.6993
1245.20 259.692
1245.30 259.6846
1245.40 259.6773
1245.50 259.67
1245.60 259.6626
1245.70 259.6553
1245.80 259.648
1245.90 259.6406
1246.00 259.6333
1246.10 259.626
1246.20 259.6186
1246.30 259.6113
1246.40 259.604
1246.50 259.5966
1246.60 259.5893
1246.70 259.582
1246.80 259.5746
1246.90 259.5673
1247.00 259.5599
1247.10 259.5526
1247.20 259.5453
1247.30 259.5379
1247.40 259.4772
1247.50 259.3808
1247.60 259.2845
1247.70 259.1881
1247.80 259.0917
1247.90 258.9953
1248.00 258.899
1248.10 258.8026
1248.20 258.7062
1248.30 258.6099
1248.40 258.5135
1248.50 258.4171
1248.60 258.3208
1248.70 258.2244
1248.80 258.128
1248.90 258.0316
1249.00 257.9353
1249.10 257.8389
1249.20 257.7425
1249.30 257.6462
1249.40 257.5498
1249.50 257.4534
1249.60 257.3571
1249.70 257.2607
1249.80 257.1643
1249.90 257.068
1250.00 256.9716
1250.10 256.8752
1250.20 256.7788
1250.30 256.6825
1250.40 256.5861
1250.50 256.4897
1250.60 256.3934
1250.70 256.297
1250.80 256.2006
1250.90 256.1043
1251.00 256.0079
1251.10 255.9115
1251.20 255.8152
1251.30 255.7188
1251.40 255.6224
1251.50 255.526
1251.60 255.4297
1251.70 255.4195
1251.80 255.4957
1251.90 255.5718
1252.00 255.6479
1252.10 255.724
1252.20 255.8001
1252.30 255.8762
1252.40 255.9524
1252.50 256.0285
1252.60 256.1046
1252.70 256.1807
1252.80 256.2568
1252.90 256.3329
1253.00 256.409
1253.10 256.4852
1253.20 256.5613
1253.30 256.6374
1253.40 256.7135
1253.50 256.7896
1253.60 256.8657
1253.70 256.9418
1253.80 257.018
1253.90 257.0941
1254.00 257.1702
1254.10 257.2463
1254.20 257.3224
1254.30 257.3985
1254.40 257.4746
1254.50 257.5508
1254.60 257.6269
1254.70 257.703
1254.80 257.7791
1254.90 257.8552
1255.00 257.9313
1255.10 258.0074
1255.20 258.0836
1255.30 258.1597
1255.40 258.2358
1255.50 258.3119
1255.60 258.388
1255.70 258.4641
1255.80 258.5402
1255.90 258.6164
1256.00 258.6571
1256.10 258.6449
1256.20 258.6326
1256.30 258.6203
1256.40 258.608
1256.50 258.5958
1256.60 258.5835
1256.70 258.5712
1256.80 258.5589
1256.90 258.5467
1257.00 258.5344
1257.10 258.5221
1257.20 258.5099
1257.30 258.4976
1257.40 258.4853
1257.50 258.473
1257.60 258.4608
1257.70 258.4485
1257.80 258.4362
1257.90 258.424
1258.00 258.4117
1258.10 258.3994
1258.20 258.3871
1258.30 258.3749
1258.40 258.3626
1258.50 258.3503
1258.60 258.338
1258.70 258.3258
1258.80 258.3135
1258.90 258.3012
1259.00 258.289
1259.10 258.2767
1259.20 258.2644
1259.30 258.2521
1259.40 258.2399
1259.50 258.2276
1259.60 258.2153
1259.70 258.2031
1259.80 258.1908
1259.90 258.1785
1260.00 258.1662
1260.10 258.154
1260.20 258.1417
1260.30 258.1872
1260.40 258.4637
1260.50 258.7401
1260.60 259.0166
1260.70 259.2931
1260.80 259.5696
1260.90 259.8461
1261.00 260.1226
1261.10 260.399
1261.20 260.6755
1261.30 260.952
1261.40 261.2285
1261.50 261.505
1261.60 261.7815
1261.70 262.0579
1261.80 262.3344
1261.90 262.6109
1262.00 262.8874
1262.10 263.1639
1262.20 263.4404
1262.30 263.7169
1262.40 263.9933
1262.50 264.2698
1262.60 264.5463
1262.70 264.8228
1262.80 265.0993
1262.90 265.3758
1263.00 265.6522
1263.10 265.9287
1263.20 266.2052
1263.30 266.4817
1263.40 266.7582
1263.50 267.0347
1263.60 267.3112
1263.70 267.5876
1263.80 267.8641
1263.90 268.1406
1264.00 268.4171
1264.10 268.6936
1264.20 268.9701
1264.30 269.2465
1264.40 269.523
1264.50 269.7995
1264.60 270.0685
1264.70 270.2699
1264.80 270.4713
1264.90 270.6728
1265.00 270.8742
1265.10 271.0756
1265.20 271.2771
1265.30 271.4785
1265.40 271.6799
1265.50 271.8813
1265.60 272.0828
1265.70 272.2842
1265.80 272.4856
1265.90 272.687
1266.00 272.8885
1266.10 273.0899
1266.20 273.2913
1266.30 273.4928
1266.40 273.6942
1266.50 273.8956
1266.60 274.097
1266.70 274.2985
1266.80 274.4999
1266.90 274.7013
1267.00 274.9028
1267.10 275.1042
1267.20 275.3056
1267.30 275.507
1267.40 275.7085
1267.50 275.9099
1267.60 276.1113
1267.70 276.3127
1267.80 276.5142
1267.90 276.7156
1268.00 276.917
1268.10 277.1185
1268.20 277.3199
1268.30 277.5213
1268.40 277.7227
1268.50 277.9242
1268.60 278.1256
1268.70 278.327
1268.80 278.5284
1268.90 278.7299
1269.00 278.9084
1269.10 279.0869
1269.20 279.2654
1269.30 279.4439
1269.40 279.6224
1269.50 279.801
1269.60 279.9795
1269.70 280.158
1269.80 280.3365
1269.90 280.515
1270.00 280.6935
1270.10 280.8721
1270.20 281.0506
1270.30 281.2291
1270.40 281.4076
1270.50 281.5861
1270.60 281.7646
1270.70 281.9431
1270.80 282.1217
1270.90 282.3002
1271.00 282.4787
1271.10 282.6572
1271.20 282.8357
1271.30 283.0142
1271.40 283.1927
1271.50 283.3713
1271.60 283.5498
1271.70 283.7283
1271.80 283.9068
1271.90 284.0853
1272.00 284.2638
1272.10 284.4423
1272.20 284.6209
1272.30 284.7994
1272.40 284.9779
1272.50 285.1564
1272.60 285.3349
1272.70 285.5134
1272.80 285.6919
1272.90 285.8705
1273.00 286.049
1273.10 286.2275
1273.20 286.406
1273.30 286.5467
1273.40 286.6779
1273.50 286.8092
1273.60 286.9404
1273.70 287.0716
1273.80 287.2028
1273.90 287.3341
1274.00 287.4653
1274.10 287.5965
1274.20 287.7278
1274.30 287.859
1274.40 287.9902
1274.50 288.1215
1274.60 288.2527
1274.70 288.3839
1274.80 288.5152
1274.90 288.6464
1275.00 288.7776
1275.10 288.9089
1275.20 289.0401
1275.30 289.1713
1275.40 289.3026
1275.50 289.4338
1275.60 289.565
1275.70 289.6963
1275.80 289.8275
1275.90 289.9587
1276.00 290.0899
1276.10 290.2212
1276.20 290.3524
1276.30 290.4836
1276.40 290.6149
1276.50 290.7461
1276.60 290.8773
1276.70 291.0086
1276.80 291.1398
1276.90 291.271
1277.00 291.4023
1277.10 291.5335
1277.20 291.6647
1277.30 291.796
1277.40 291.9272
1277.50 292.0584
1277.60 292.1431
1277.70 292.1968
1277.80 292.2505
1277.90 292.3042
1278.00 292.3579
1278.10 292.4116
1278.20 292.4653
1278.30 292.519
1278.40 292.5727
1278.50 292.6264
1278.60 292.68
1278.70 292.7337
1278.80 292.7874
1278.90 292.8411
1279.00 292.8948
1279.10 292.9485
1279.20 293.0022
1279.30 293.0559
1279.40 293.1096
1279.50 293.1633
1279.60 293.217
1279.70 293.2706
1279.80 293.3243
1279.90 293.378
1280.00 293.4317
1280.10 293.4854
1280.20 293.5391
1280.30 293.5928
1280.40 293.6465
1280.50 293.7002
1280.60 293.7539
1280.70 293.8076
1280.80 293.8612
1280.90 293.9149
1281.00 293.9686
1281.10 294.0223
1281.20 294.076
1281.30 294.1297
1281.40 294.1834
1281.50 294.2371
1281.60 294.2908
1281.70 294.3445
1281.80 294.3982
1281.90 294.3779
1282.00 294.2836
1282.10 294.1894
1282.20 294.0952
1282.30 294.0009
1282.40 293.9067
1282.50 293.8125
1282.60 293.7182
1282.70 293.624
1282.80 293.5297
1282.90 293.4355
1283.00 293.3413
1283.10 293.247
1283.20 293.1528
1283.30 293.0585
1283.40 292.9643
1283.50 292.8701
1283.60 292.7758
1283.70 292.6816
1283.80 292.5873
1283.90 292.4931
1284.00 292.3989
1284.10 292.3046
1284.20 292.2104
1284.30 292.1162
1284.40 292.0219
1284.50 291.9277
1284.60 291.8334
1284.70 291.7392
1284.80 291.645
1284.90 291.5507
1285.00 291.4565
1285.10 291.3622
1285.20 291.268
1285.30 291.1738
1285.40 291.0795
1285.50 290.9853
1285.60 290.8911
1285.70 290.7968
1285.80 290.7026
1285.90 290.6083
1286.00 290.5141
1286.10 290.4199
1286.20 290.3804
1286.30 290.4685
1286.40 290.5567
1286.50 290.6449
1286.60 290.7331
1286.70 290.8213
1286.80 290.9095
1286.90 290.9977
1287.00 291.0859
1287.10 291.174
1287.20 291.2622
1287.30 291.3504
1287.40 291.4386
1287.50 291.5268
1287.60 291.615
1287.70 291.7032
1287.80 291.7914
1287.90 291.8796
1288.00 291.9677
1288.10 292.0559
1288.20 292.1441
1288.30 292.2323
1288.40 292.3205
1288.50 292.4087
1288.60 292.4969
1288.70 292.5851
1288.80 292.6733
1288.90 292.7614
1289.00 292.8496
1289.10 292.9378
1289.20 293.026
1289.30 293.1142
1289.40 293.2024
1289.50 293.2906
1289.60 293.3788
1289.70 293.467
1289.80 293.5551
1289.90 293.6433
1290.00 293.7315
1290.10 293.8197
1290.20 293.9079
1290.30 293.9961
1290.40 294.0843
1290.50 294.155
1290.60 294.0681
1290.70 293.9813
1290.80 293.8945
1290.90 293.8077
1291.00 293.7209
1291.10 293.634
1291.20 293.5472
1291.30 293.4604
1291.40 293.3736
1291.50 293.2868
1291.60 293.1999
1291.70 293.1131
1291.80 293.0263
1291.90 292.9395
1292.00 292.8527
1292.10 292.7658
1292.20 292.679
1292.30 292.5922
1292.40 292.5054
1292.50 292.4186
1292.60 292.3317
1292.70 292.2449
1292.80 292.1581
1292.90 292.0713
1293.00 291.9845
1293.10 291.8976
1293.20 291.8108
1293.30 291.724
1293.40 291.6372
1293.50 291.5504
1293.60 291.4636
1293.70 291.3767
1293.80 291.2899
1293.90 291.2031
1294.00 291.1163
1294.10 291.0295
1294.20 290.9426
1294.30 290.8558
1294.40 290.769
1294.50 290.6822
1294.60 290.5954
1294.70 290.5085
1294.80 290.4217
1294.90 290.4555
1295.00 290.5026
1295.10 290.5498
1295.20 290.597
1295.30 290.6441
1295.40 290.6913
1295.50 290.7385
1295.60 290.7856
1295.70 290.8328
1295.80 290.88
1295.90 290.9271
1296.00 290.9743
1296.10 291.0214
1296.20 291.0686
1296.30 291.1158
1296.40 291.1629
1296.50 291.2101
1296.60 291.2573
1296.70 291.3044
1296.80 291.3516
1296.90 291.3988
1297.00 291.4459
1297.10 291.4931
1297.20 291.5402
1297.30 291.5874
1297.40 291.6346
1297.50 291.6817
1297.60 291.7289
1297.70 291.7761
1297.80 291.8232
1297.90 291.8704
1298.00 291.9175
1298.10 291.9647
1298.20 292.0119
1298.30 292.059
1298.40 292.1062
1298.50 292.1534
1298.60 292.2005
1298.70 292.2477
1298.80 292.2949
1298.90 292.342
1299.00 292.3892
1299.10 292.4363
1299.20 292.3497
1299.30 292.2058
1299.40 292.0618
1299.50 291.9179
1299.60 291.7739
1299.70 291.6299
1299.80 291.486
1299.90 291.342
