# Version 2.1 - nm, norm@500 to 1, cut digits
# Wavelength(nm)  Flambda(ergs/cm^s/s/nm)
300.00 1.473744e-95
300.10 1.473744e-95
300.20 1.473744e-95
300.30 1.473744e-95
300.40 1.473744e-95
300.50 1.473744e-95
300.60 1.473744e-95
300.70 1.473744e-95
300.80 1.473744e-95
300.90 1.473744e-95
301.00 1.473744e-95
301.10 1.473744e-95
301.20 1.473744e-95
301.30 1.473744e-95
301.40 1.473744e-95
301.50 1.473744e-95
301.60 1.473744e-95
301.70 1.473744e-95
301.80 1.473744e-95
301.90 1.473744e-95
302.00 1.473744e-95
302.10 1.473744e-95
302.20 1.473744e-95
302.30 1.473744e-95
302.40 1.473744e-95
302.50 1.473744e-95
302.60 1.473744e-95
302.70 1.473744e-95
302.80 1.473744e-95
302.90 1.473744e-95
303.00 1.473744e-95
303.10 1.473744e-95
303.20 1.473744e-95
303.30 1.473744e-95
303.40 1.473744e-95
303.50 1.473744e-95
303.60 1.473744e-95
303.70 1.473744e-95
303.80 1.473744e-95
303.90 1.473744e-95
304.00 1.473744e-95
304.10 1.473744e-95
304.20 1.473744e-95
304.30 1.473744e-95
304.40 1.473744e-95
304.50 1.473744e-95
304.60 1.473744e-95
304.70 1.473744e-95
304.80 1.473744e-95
304.90 1.473744e-95
305.00 1.473744e-95
305.10 1.473744e-95
305.20 1.473744e-95
305.30 1.473744e-95
305.40 1.473744e-95
305.50 1.473744e-95
305.60 1.473744e-95
305.70 1.473744e-95
305.80 1.473744e-95
305.90 1.473744e-95
306.00 1.473744e-95
306.10 1.473744e-95
306.20 1.473744e-95
306.30 1.473744e-95
306.40 1.473744e-95
306.50 1.473744e-95
306.60 1.473744e-95
306.70 1.473744e-95
306.80 1.473744e-95
306.90 1.473744e-95
307.00 1.473744e-95
307.10 1.473744e-95
307.20 1.473744e-95
307.30 1.473744e-95
307.40 1.473744e-95
307.50 1.473744e-95
307.60 1.473744e-95
307.70 1.473744e-95
307.80 1.473744e-95
307.90 1.473744e-95
308.00 1.473744e-95
308.10 1.473744e-95
308.20 1.473744e-95
308.30 1.473744e-95
308.40 1.473744e-95
308.50 1.473744e-95
308.60 1.473744e-95
308.70 1.473744e-95
308.80 1.473744e-95
308.90 1.473744e-95
309.00 1.473744e-95
309.10 1.473744e-95
309.20 1.473744e-95
309.30 1.473744e-95
309.40 1.473744e-95
309.50 1.473744e-95
309.60 1.473744e-95
309.70 1.473744e-95
309.80 1.473744e-95
309.90 1.473744e-95
310.00 1.473744e-95
310.10 1.473744e-95
310.20 1.473744e-95
310.30 1.473744e-95
310.40 1.473744e-95
310.50 1.473744e-95
310.60 1.473744e-95
310.70 1.473744e-95
310.80 1.473744e-95
310.90 1.473744e-95
311.00 1.473744e-95
311.10 1.473744e-95
311.20 1.473744e-95
311.30 1.473744e-95
311.40 1.473744e-95
311.50 1.473744e-95
311.60 1.473744e-95
311.70 1.473744e-95
311.80 1.473744e-95
311.90 1.473744e-95
312.00 1.473744e-95
312.10 1.473744e-95
312.20 1.473744e-95
312.30 1.473744e-95
312.40 1.473744e-95
312.50 1.473744e-95
312.60 1.473744e-95
312.70 1.473744e-95
312.80 1.473744e-95
312.90 1.473744e-95
313.00 1.473744e-95
313.10 1.473744e-95
313.20 1.473744e-95
313.30 1.473744e-95
313.40 1.473744e-95
313.50 1.473744e-95
313.60 1.473744e-95
313.70 1.473744e-95
313.80 1.473744e-95
313.90 1.473744e-95
314.00 1.473744e-95
314.10 1.473744e-95
314.20 1.473744e-95
314.30 1.473744e-95
314.40 1.473744e-95
314.50 1.473744e-95
314.60 1.473744e-95
314.70 1.473744e-95
314.80 1.473744e-95
314.90 1.473744e-95
315.00 1.473744e-95
315.10 1.473744e-95
315.20 1.473744e-95
315.30 1.473744e-95
315.40 1.473744e-95
315.50 1.473744e-95
315.60 1.473744e-95
315.70 1.473744e-95
315.80 1.473744e-95
315.90 1.473744e-95
316.00 1.473744e-95
316.10 1.473744e-95
316.20 1.473744e-95
316.30 1.473744e-95
316.40 1.473744e-95
316.50 1.473744e-95
316.60 1.473744e-95
316.70 1.473744e-95
316.80 1.473744e-95
316.90 1.473744e-95
317.00 1.473744e-95
317.10 1.473744e-95
317.20 1.473744e-95
317.30 1.473744e-95
317.40 1.473744e-95
317.50 1.473744e-95
317.60 1.473744e-95
317.70 1.473744e-95
317.80 1.473744e-95
317.90 1.473744e-95
318.00 1.473744e-95
318.10 1.473744e-95
318.20 1.473744e-95
318.30 1.473744e-95
318.40 1.473744e-95
318.50 1.473744e-95
318.60 1.473744e-95
318.70 1.473744e-95
318.80 1.473744e-95
318.90 1.473744e-95
319.00 1.473744e-95
319.10 1.473744e-95
319.20 1.473744e-95
319.30 1.473744e-95
319.40 1.473744e-95
319.50 1.473744e-95
319.60 1.473744e-95
319.70 1.473744e-95
319.80 1.473744e-95
319.90 1.473744e-95
320.00 1.473744e-95
320.10 1.473744e-95
320.20 1.473744e-95
320.30 1.473744e-95
320.40 1.473744e-95
320.50 1.473744e-95
320.60 1.473744e-95
320.70 1.473744e-95
320.80 1.473744e-95
320.90 1.473744e-95
321.00 1.473744e-95
321.10 1.473744e-95
321.20 1.473744e-95
321.30 1.473744e-95
321.40 1.473744e-95
321.50 1.473744e-95
321.60 1.473744e-95
321.70 1.473744e-95
321.80 1.473744e-95
321.90 1.473744e-95
322.00 1.473744e-95
322.10 1.473744e-95
322.20 1.473744e-95
322.30 1.473744e-95
322.40 1.473744e-95
322.50 1.473744e-95
322.60 1.473744e-95
322.70 1.473744e-95
322.80 1.473744e-95
322.90 1.473744e-95
323.00 1.473744e-95
323.10 1.473744e-95
323.20 1.473744e-95
323.30 1.473744e-95
323.40 1.473744e-95
323.50 1.473744e-95
323.60 1.473744e-95
323.70 1.473744e-95
323.80 1.473744e-95
323.90 1.473744e-95
324.00 1.473744e-95
324.10 1.473744e-95
324.20 1.473744e-95
324.30 1.473744e-95
324.40 1.473744e-95
324.50 1.473744e-95
324.60 1.473744e-95
324.70 1.473744e-95
324.80 1.473744e-95
324.90 1.473744e-95
325.00 1.473744e-95
325.10 1.473744e-95
325.20 1.473744e-95
325.30 1.473744e-95
325.40 1.473744e-95
325.50 1.473744e-95
325.60 1.473744e-95
325.70 1.473744e-95
325.80 1.473744e-95
325.90 1.473744e-95
326.00 1.473744e-95
326.10 1.473744e-95
326.20 1.473744e-95
326.30 1.473744e-95
326.40 1.473744e-95
326.50 1.473744e-95
326.60 1.473744e-95
326.70 1.473744e-95
326.80 1.473744e-95
326.90 1.473744e-95
327.00 1.473744e-95
327.10 1.473744e-95
327.20 1.473744e-95
327.30 1.473744e-95
327.40 1.473744e-95
327.50 1.473744e-95
327.60 1.473744e-95
327.70 1.473744e-95
327.80 1.473744e-95
327.90 1.473744e-95
328.00 1.473744e-95
328.10 1.473744e-95
328.20 1.473744e-95
328.30 1.473744e-95
328.40 1.473744e-95
328.50 1.473744e-95
328.60 1.473744e-95
328.70 1.473744e-95
328.80 1.473744e-95
328.90 1.473744e-95
329.00 1.473744e-95
329.10 1.473744e-95
329.20 1.473744e-95
329.30 1.473744e-95
329.40 1.473744e-95
329.50 1.473744e-95
329.60 1.473744e-95
329.70 1.473744e-95
329.80 1.473744e-95
329.90 1.473744e-95
330.00 1.473744e-95
330.10 1.473744e-95
330.20 1.473744e-95
330.30 1.473744e-95
330.40 1.473744e-95
330.50 1.473744e-95
330.60 1.473744e-95
330.70 1.473744e-95
330.80 1.473744e-95
330.90 1.473744e-95
331.00 1.473744e-95
331.10 1.473744e-95
331.20 1.473744e-95
331.30 1.473744e-95
331.40 1.473744e-95
331.50 1.473744e-95
331.60 1.473744e-95
331.70 1.473744e-95
331.80 1.473744e-95
331.90 1.473744e-95
332.00 1.473744e-95
332.10 1.473744e-95
332.20 1.473744e-95
332.30 1.473744e-95
332.40 1.473744e-95
332.50 1.473744e-95
332.60 1.473744e-95
332.70 1.473744e-95
332.80 1.473744e-95
332.90 1.473744e-95
333.00 1.473744e-95
333.10 1.473744e-95
333.20 1.473744e-95
333.30 1.473744e-95
333.40 1.473744e-95
333.50 1.473744e-95
333.60 1.473744e-95
333.70 1.473744e-95
333.80 1.473744e-95
333.90 1.473744e-95
334.00 1.473744e-95
334.10 1.473744e-95
334.20 1.473744e-95
334.30 1.473744e-95
334.40 1.473744e-95
334.50 1.473744e-95
334.60 1.473744e-95
334.70 1.473744e-95
334.80 1.473744e-95
334.90 1.473744e-95
335.00 1.473744e-95
335.10 1.473744e-95
335.20 1.473744e-95
335.30 1.473744e-95
335.40 1.473744e-95
335.50 1.473744e-95
335.60 1.473744e-95
335.70 1.473744e-95
335.80 1.473744e-95
335.90 1.473744e-95
336.00 1.473744e-95
336.10 1.473744e-95
336.20 1.473744e-95
336.30 1.473744e-95
336.40 1.473744e-95
336.50 1.473744e-95
336.60 1.473744e-95
336.70 1.473744e-95
336.80 1.473744e-95
336.90 1.473744e-95
337.00 1.473744e-95
337.10 1.473744e-95
337.20 1.473744e-95
337.30 1.473744e-95
337.40 1.473744e-95
337.50 1.473744e-95
337.60 1.473744e-95
337.70 1.473744e-95
337.80 1.473744e-95
337.90 1.473744e-95
338.00 1.473744e-95
338.10 1.473744e-95
338.20 1.473744e-95
338.30 1.473744e-95
338.40 1.473744e-95
338.50 1.473744e-95
338.60 1.473744e-95
338.70 1.473744e-95
338.80 1.473744e-95
338.90 1.473744e-95
339.00 1.473744e-95
339.10 1.473744e-95
339.20 1.473744e-95
339.30 1.473744e-95
339.40 1.473744e-95
339.50 1.473744e-95
339.60 1.473744e-95
339.70 1.473744e-95
339.80 1.473744e-95
339.90 1.473744e-95
340.00 1.473744e-95
340.10 1.473744e-95
340.20 1.473744e-95
340.30 1.473744e-95
340.40 1.473744e-95
340.50 1.473744e-95
340.60 1.473744e-95
340.70 1.473744e-95
340.80 1.473744e-95
340.90 1.473744e-95
341.00 1.473744e-95
341.10 1.473744e-95
341.20 1.473744e-95
341.30 1.473744e-95
341.40 1.473744e-95
341.50 1.473744e-95
341.60 1.473744e-95
341.70 1.473744e-95
341.80 1.473744e-95
341.90 1.473744e-95
342.00 1.473744e-95
342.10 1.473744e-95
342.20 1.473744e-95
342.30 1.473744e-95
342.40 1.473744e-95
342.50 1.473744e-95
342.60 1.473744e-95
342.70 1.473744e-95
342.80 1.473744e-95
342.90 1.473744e-95
343.00 1.473744e-95
343.10 1.473744e-95
343.20 1.473744e-95
343.30 1.473744e-95
343.40 1.473744e-95
343.50 1.473744e-95
343.60 1.473744e-95
343.70 1.473744e-95
343.80 1.473744e-95
343.90 1.473744e-95
344.00 1.473744e-95
344.10 1.473744e-95
344.20 1.473744e-95
344.30 1.473744e-95
344.40 1.473744e-95
344.50 1.473744e-95
344.60 1.473744e-95
344.70 1.473744e-95
344.80 1.473744e-95
344.90 1.473744e-95
345.00 1.473744e-95
345.10 1.473744e-95
345.20 1.473744e-95
345.30 1.473744e-95
345.40 1.473744e-95
345.50 1.473744e-95
345.60 1.473744e-95
345.70 1.473744e-95
345.80 1.473744e-95
345.90 1.473744e-95
346.00 1.473744e-95
346.10 1.473744e-95
346.20 1.473744e-95
346.30 1.473744e-95
346.40 1.473744e-95
346.50 1.473744e-95
346.60 1.473744e-95
346.70 1.473744e-95
346.80 1.473744e-95
346.90 1.473744e-95
347.00 1.473744e-95
347.10 1.473744e-95
347.20 1.473744e-95
347.30 1.473744e-95
347.40 1.473744e-95
347.50 1.473744e-95
347.60 1.473744e-95
347.70 1.473744e-95
347.80 1.473744e-95
347.90 1.473744e-95
348.00 1.473744e-95
348.10 1.473744e-95
348.20 1.473744e-95
348.30 1.473744e-95
348.40 1.473744e-95
348.50 1.473744e-95
348.60 1.473744e-95
348.70 1.473744e-95
348.80 1.473744e-95
348.90 1.473744e-95
349.00 1.473744e-95
349.10 1.473744e-95
349.20 1.473744e-95
349.30 1.473744e-95
349.40 1.473744e-95
349.50 1.473744e-95
349.60 1.473744e-95
349.70 1.473744e-95
349.80 1.473744e-95
349.90 1.473744e-95
350.00 1.473744e-95
350.10 1.473744e-95
350.20 1.473744e-95
350.30 1.473744e-95
350.40 1.473744e-95
350.50 1.473744e-95
350.60 1.473744e-95
350.70 1.473744e-95
350.80 1.473744e-95
350.90 1.473744e-95
351.00 1.473744e-95
351.10 1.473744e-95
351.20 1.473744e-95
351.30 1.473744e-95
351.40 1.473744e-95
351.50 1.473744e-95
351.60 1.473744e-95
351.70 1.473744e-95
351.80 1.473744e-95
351.90 1.473744e-95
352.00 1.473744e-95
352.10 1.473744e-95
352.20 1.473744e-95
352.30 1.473744e-95
352.40 1.473744e-95
352.50 1.473744e-95
352.60 1.473744e-95
352.70 1.473744e-95
352.80 1.473744e-95
352.90 1.473744e-95
353.00 1.473744e-95
353.10 1.473744e-95
353.20 1.473744e-95
353.30 1.473744e-95
353.40 1.473744e-95
353.50 1.473744e-95
353.60 1.473744e-95
353.70 1.473744e-95
353.80 1.473744e-95
353.90 1.473744e-95
354.00 1.473744e-95
354.10 1.473744e-95
354.20 1.473744e-95
354.30 1.473744e-95
354.40 1.473744e-95
354.50 1.473744e-95
354.60 1.473744e-95
354.70 1.473744e-95
354.80 1.473744e-95
354.90 1.473744e-95
355.00 1.473744e-95
355.10 1.473744e-95
355.20 1.473744e-95
355.30 1.473744e-95
355.40 1.473744e-95
355.50 1.473744e-95
355.60 1.473744e-95
355.70 1.473744e-95
355.80 1.473744e-95
355.90 1.473744e-95
356.00 1.473744e-95
356.10 1.473744e-95
356.20 1.473744e-95
356.30 1.473744e-95
356.40 1.473744e-95
356.50 1.473744e-95
356.60 1.473744e-95
356.70 1.473744e-95
356.80 1.473744e-95
356.90 1.473744e-95
357.00 1.473744e-95
357.10 1.473744e-95
357.20 1.473744e-95
357.30 1.473744e-95
357.40 1.473744e-95
357.50 1.473744e-95
357.60 1.473744e-95
357.70 1.473744e-95
357.80 1.473744e-95
357.90 1.473744e-95
358.00 1.473744e-95
358.10 1.473744e-95
358.20 1.473744e-95
358.30 1.473744e-95
358.40 1.473744e-95
358.50 1.473744e-95
358.60 1.473744e-95
358.70 1.473744e-95
358.80 1.473744e-95
358.90 1.473744e-95
359.00 1.473744e-95
359.10 1.473744e-95
359.20 1.473744e-95
359.30 1.473744e-95
359.40 1.473744e-95
359.50 1.473744e-95
359.60 1.473744e-95
359.70 1.473744e-95
359.80 1.473744e-95
359.90 1.473744e-95
360.00 1.473744e-95
360.10 1.473744e-95
360.20 1.473744e-95
360.30 1.473744e-95
360.40 1.473744e-95
360.50 1.473744e-95
360.60 1.473744e-95
360.70 1.473744e-95
360.80 1.473744e-95
360.90 1.473744e-95
361.00 1.473744e-95
361.10 1.473744e-95
361.20 1.473744e-95
361.30 1.473744e-95
361.40 1.473744e-95
361.50 1.473744e-95
361.60 1.473744e-95
361.70 1.473744e-95
361.80 1.473744e-95
361.90 1.473744e-95
362.00 1.473744e-95
362.10 1.473744e-95
362.20 1.473744e-95
362.30 1.473744e-95
362.40 1.473744e-95
362.50 1.473744e-95
362.60 1.473744e-95
362.70 1.473744e-95
362.80 1.473744e-95
362.90 1.473744e-95
363.00 1.473744e-95
363.10 1.473744e-95
363.20 1.473744e-95
363.30 1.473744e-95
363.40 1.473744e-95
363.50 1.473744e-95
363.60 1.473744e-95
363.70 1.473744e-95
363.80 1.473744e-95
363.90 1.473744e-95
364.00 1.473744e-95
364.10 1.473744e-95
364.20 1.473744e-95
364.30 1.473744e-95
364.40 1.473744e-95
364.50 1.473744e-95
364.60 1.473744e-95
364.70 1.473744e-95
364.80 1.473744e-95
364.90 1.473744e-95
365.00 1.473744e-95
365.10 1.473744e-95
365.20 1.473744e-95
365.30 1.473744e-95
365.40 1.473744e-95
365.50 1.473744e-95
365.60 1.473744e-95
365.70 1.473744e-95
365.80 1.473744e-95
365.90 1.473744e-95
366.00 1.473744e-95
366.10 1.473744e-95
366.20 1.473744e-95
366.30 1.473744e-95
366.40 1.473744e-95
366.50 1.473744e-95
366.60 1.473744e-95
366.70 1.473744e-95
366.80 1.473744e-95
366.90 1.473744e-95
367.00 1.473744e-95
367.10 1.473744e-95
367.20 1.473744e-95
367.30 1.473744e-95
367.40 1.473744e-95
367.50 1.473744e-95
367.60 1.473744e-95
367.70 1.473744e-95
367.80 1.473744e-95
367.90 1.473744e-95
368.00 1.473744e-95
368.10 1.473744e-95
368.20 1.473744e-95
368.30 1.473744e-95
368.40 1.473744e-95
368.50 1.473744e-95
368.60 1.473744e-95
368.70 1.473744e-95
368.80 1.473744e-95
368.90 1.473744e-95
369.00 1.473744e-95
369.10 1.473744e-95
369.20 1.473744e-95
369.30 1.473744e-95
369.40 1.473744e-95
369.50 1.473744e-95
369.60 1.473744e-95
369.70 1.473744e-95
369.80 1.473744e-95
369.90 1.473744e-95
370.00 1.473744e-95
370.10 1.473744e-95
370.20 1.473744e-95
370.30 1.473744e-95
370.40 1.473744e-95
370.50 1.473744e-95
370.60 1.473744e-95
370.70 1.473744e-95
370.80 1.473744e-95
370.90 1.473744e-95
371.00 1.473744e-95
371.10 1.473744e-95
371.20 1.473744e-95
371.30 1.473744e-95
371.40 1.473744e-95
371.50 1.473744e-95
371.60 1.473744e-95
371.70 1.473744e-95
371.80 1.473744e-95
371.90 1.473744e-95
372.00 1.473744e-95
372.10 1.473744e-95
372.20 1.473744e-95
372.30 1.473744e-95
372.40 1.473744e-95
372.50 1.473744e-95
372.60 1.473744e-95
372.70 1.473744e-95
372.80 1.473744e-95
372.90 1.473744e-95
373.00 1.473744e-95
373.10 1.473744e-95
373.20 1.473744e-95
373.30 1.473744e-95
373.40 1.473744e-95
373.50 1.473744e-95
373.60 1.473744e-95
373.70 1.473744e-95
373.80 1.473744e-95
373.90 1.473744e-95
374.00 1.473744e-95
374.10 1.473744e-95
374.20 1.473744e-95
374.30 1.473744e-95
374.40 1.473744e-95
374.50 1.473744e-95
374.60 1.473744e-95
374.70 1.473744e-95
374.80 1.473744e-95
374.90 1.473744e-95
375.00 1.473744e-95
375.10 1.473744e-95
375.20 1.473744e-95
375.30 1.473744e-95
375.40 1.473744e-95
375.50 1.473744e-95
375.60 1.473744e-95
375.70 1.473744e-95
375.80 1.473744e-95
375.90 1.473744e-95
376.00 1.473744e-95
376.10 1.473744e-95
376.20 1.473744e-95
376.30 1.473744e-95
376.40 1.473744e-95
376.50 1.473744e-95
376.60 1.473744e-95
376.70 1.473744e-95
376.80 1.473744e-95
376.90 1.473744e-95
377.00 1.473744e-95
377.10 1.473744e-95
377.20 1.473744e-95
377.30 1.473744e-95
377.40 1.473744e-95
377.50 1.473744e-95
377.60 1.473744e-95
377.70 1.473744e-95
377.80 1.473744e-95
377.90 1.473744e-95
378.00 1.473744e-95
378.10 1.473744e-95
378.20 1.473744e-95
378.30 1.473744e-95
378.40 1.473744e-95
378.50 1.473744e-95
378.60 1.473744e-95
378.70 1.473744e-95
378.80 1.473744e-95
378.90 1.473744e-95
379.00 1.473744e-95
379.10 1.473744e-95
379.20 1.473744e-95
379.30 1.473744e-95
379.40 1.473744e-95
379.50 1.473744e-95
379.60 1.473744e-95
379.70 1.473744e-95
379.80 1.473744e-95
379.90 1.473744e-95
380.00 1.473744e-95
380.10 1.473744e-95
380.20 1.473744e-95
380.30 1.473744e-95
380.40 1.473744e-95
380.50 1.473744e-95
380.60 1.473744e-95
380.70 1.473744e-95
380.80 1.473744e-95
380.90 1.473744e-95
381.00 1.473744e-95
381.10 1.473744e-95
381.20 1.473744e-95
381.30 1.473744e-95
381.40 1.473744e-95
381.50 1.473744e-95
381.60 1.473744e-95
381.70 1.473744e-95
381.80 1.473744e-95
381.90 1.473744e-95
382.00 1.473744e-95
382.10 1.473744e-95
382.20 1.473744e-95
382.30 1.473744e-95
382.40 1.473744e-95
382.50 1.473744e-95
382.60 1.473744e-95
382.70 1.473744e-95
382.80 1.473744e-95
382.90 1.473744e-95
383.00 1.473744e-95
383.10 1.473744e-95
383.20 1.473744e-95
383.30 1.473744e-95
383.40 1.473744e-95
383.50 1.473744e-95
383.60 1.473744e-95
383.70 1.473744e-95
383.80 1.473744e-95
383.90 1.473744e-95
384.00 1.473744e-95
384.10 1.473744e-95
384.20 1.473744e-95
384.30 1.473744e-95
384.40 1.473744e-95
384.50 1.473744e-95
384.60 1.473744e-95
384.70 1.473744e-95
384.80 1.473744e-95
384.90 1.473744e-95
385.00 1.473744e-95
385.10 1.473744e-95
385.20 1.473744e-95
385.30 1.473744e-95
385.40 1.473744e-95
385.50 1.473744e-95
385.60 1.473744e-95
385.70 1.473744e-95
385.80 1.473744e-95
385.90 1.473744e-95
386.00 1.473744e-95
386.10 1.473744e-95
386.20 1.473744e-95
386.30 1.473744e-95
386.40 1.473744e-95
386.50 1.473744e-95
386.60 1.473744e-95
386.70 1.473744e-95
386.80 1.473744e-95
386.90 1.473744e-95
387.00 1.473744e-95
387.10 1.473744e-95
387.20 1.473744e-95
387.30 1.473744e-95
387.40 1.473744e-95
387.50 1.473744e-95
387.60 1.473744e-95
387.70 1.473744e-95
387.80 1.473744e-95
387.90 1.473744e-95
388.00 1.473744e-95
388.10 1.473744e-95
388.20 1.473744e-95
388.30 1.473744e-95
388.40 1.473744e-95
388.50 1.473744e-95
388.60 1.473744e-95
388.70 1.473744e-95
388.80 1.473744e-95
388.90 1.473744e-95
389.00 1.473744e-95
389.10 1.473744e-95
389.20 1.473744e-95
389.30 1.473744e-95
389.40 1.473744e-95
389.50 1.473744e-95
389.60 1.473744e-95
389.70 1.473744e-95
389.80 1.473744e-95
389.90 1.473744e-95
390.00 1.473744e-95
390.10 1.473744e-95
390.20 1.473744e-95
390.30 1.473744e-95
390.40 1.473744e-95
390.50 1.473744e-95
390.60 1.473744e-95
390.70 1.473744e-95
390.80 1.473744e-95
390.90 1.473744e-95
391.00 1.473744e-95
391.10 1.473744e-95
391.20 1.473744e-95
391.30 1.473744e-95
391.40 1.473744e-95
391.50 1.473744e-95
391.60 1.473744e-95
391.70 1.473744e-95
391.80 1.473744e-95
391.90 1.473744e-95
392.00 1.473744e-95
392.10 1.473744e-95
392.20 1.473744e-95
392.30 1.473744e-95
392.40 1.473744e-95
392.50 1.473744e-95
392.60 1.473744e-95
392.70 1.473744e-95
392.80 1.473744e-95
392.90 1.473744e-95
393.00 1.473744e-95
393.10 1.473744e-95
393.20 1.473744e-95
393.30 1.473744e-95
393.40 1.473744e-95
393.50 1.473744e-95
393.60 1.473744e-95
393.70 1.473744e-95
393.80 1.473744e-95
393.90 1.473744e-95
394.00 1.473744e-95
394.10 1.473744e-95
394.20 1.473744e-95
394.30 1.473744e-95
394.40 1.473744e-95
394.50 1.473744e-95
394.60 1.473744e-95
394.70 1.473744e-95
394.80 1.473744e-95
394.90 1.473744e-95
395.00 0.002318313
395.10 0.002318313
395.20 0.002318313
395.30 0.002318313
395.40 0.002318313
395.50 0.002318313
395.60 0.002318313
395.70 0.002318313
395.80 0.002318313
395.90 0.002318313
396.00 0.002318313
396.10 0.002318313
396.20 0.002318313
396.30 0.002318313
396.40 0.002318313
396.50 0.002318313
396.60 0.004534988
396.70 0.01322866
396.80 0.02833916
396.90 0.04908057
397.00 0.07430617
397.10 0.1021074
397.20 0.1303978
397.30 0.1591906
397.40 0.1915502
397.50 0.2309833
397.60 0.2773465
397.70 0.327118
397.80 0.3765085
397.90 0.42184
398.00 0.4587992
398.10 0.4837288
398.20 0.4959415
398.30 0.4965585
398.40 0.4965585
398.50 0.4965585
398.60 0.4965585
398.70 0.4965585
398.80 0.4965585
398.90 0.4965585
399.00 0.4965585
399.10 0.4965585
399.20 0.4965585
399.30 0.4970744
399.40 0.4970744
399.50 0.4970744
399.60 0.4970744
399.70 0.4970744
399.80 0.4970744
399.90 0.4997329
400.00 0.5075407
400.10 0.5222551
400.20 0.5432
400.30 0.5681817
400.40 0.5949474
400.50 0.6204101
400.60 0.642694
400.70 0.6622929
400.80 0.6795542
400.90 0.6929171
401.00 0.7008692
401.10 0.7036532
401.20 0.7036532
401.30 0.7036532
401.40 0.7036532
401.50 0.7036532
401.60 0.7036532
401.70 0.7036532
401.80 0.7036532
401.90 0.7036532
402.00 0.7036532
402.10 0.7036532
402.20 0.7036532
402.30 0.7137871
402.40 0.7332878
402.50 0.7567069
402.60 0.7752177
402.70 0.7787796
402.80 0.7787796
402.90 0.7787796
403.00 0.7787796
403.10 0.7787796
403.20 0.7787796
403.30 0.7787796
403.40 0.7787796
403.50 0.7787796
403.60 0.7787796
403.70 0.7793314
403.80 0.7966529
403.90 0.8271914
404.00 0.865817
404.10 0.9077516
404.20 0.9483655
404.30 0.9826357
404.40 1.006805
404.50 1.01889
404.60 1.019151
404.70 1.019151
404.80 1.019151
404.90 1.019151
405.00 1.016833
405.10 1.016833
405.20 1.016833
405.30 1.016833
405.40 1.016833
405.50 1.016833
405.60 1.016833
405.70 1.016833
405.80 1.019855
405.90 1.031882
406.00 1.050149
406.10 1.072503
406.20 1.097112
406.30 1.122326
406.40 1.14862
406.50 1.176855
406.60 1.204989
406.70 1.228279
406.80 1.244616
406.90 1.251966
407.00 1.249202
407.10 1.236823
407.20 1.216741
407.30 1.19014
407.40 1.15778
407.50 1.118347
407.60 1.071984
407.70 1.023888
407.80 0.9784902
407.90 0.9383858
408.00 0.9081658
408.10 0.8930349
408.20 0.8961361
408.30 0.9184393
408.40 0.9497261
408.50 0.9882621
408.60 1.0312
408.70 1.073735
408.80 1.109906
408.90 1.134557
409.00 1.143916
409.10 1.143916
409.20 1.143916
409.30 1.1434
409.40 1.1434
409.50 1.1434
409.60 1.1434
409.70 1.1434
409.80 1.1434
409.90 1.140741
410.00 1.142501
410.10 1.147214
410.20 1.151846
410.30 1.154028
410.40 1.151586
410.50 1.143738
410.60 1.129873
410.70 1.110274
410.80 1.093013
410.90 1.07965
411.00 1.071698
411.10 1.068914
411.20 1.068914
411.30 1.068914
411.40 1.068914
411.50 1.071377
411.60 1.075626
411.70 1.080998
411.80 1.087741
411.90 1.096878
412.00 1.108452
412.10 1.121311
412.20 1.134026
412.30 1.133476
412.40 1.11635
412.50 1.092931
412.60 1.07442
412.70 1.070859
412.80 1.070859
412.90 1.070859
413.00 1.070859
413.10 1.070859
413.20 1.070859
413.30 1.070859
413.40 1.070859
413.50 1.070859
413.60 1.070859
413.70 1.070307
413.80 1.052985
413.90 1.022447
414.00 0.9838211
414.10 0.9418865
414.20 0.9012726
414.30 0.8670024
414.40 0.842833
414.50 0.8307481
414.60 0.8304869
414.70 0.8304869
414.80 0.8304869
414.90 0.8304869
415.00 0.8304869
415.10 0.8304869
415.20 0.8304869
415.30 0.8350303
415.40 0.8438787
415.50 0.8551499
415.60 0.8667998
415.70 0.8775594
415.80 0.8839036
415.90 0.8794597
416.00 0.8671874
416.10 0.8507393
416.20 0.8333648
416.30 0.8174671
416.40 0.8015085
416.50 0.7817485
416.60 0.7551105
416.70 0.7231263
416.80 0.6916788
416.90 0.6635878
417.00 0.6411257
417.10 0.6257034
417.20 0.6174957
417.30 0.615304
417.40 0.615304
417.50 0.615304
417.60 0.615304
417.70 0.6136287
417.80 0.6096355
417.90 0.6044084
418.00 0.5976692
418.10 0.5878705
418.20 0.5725566
418.30 0.5496364
418.40 0.5183496
418.50 0.4798136
418.60 0.4368757
418.70 0.4015599
418.80 0.382188
418.90 0.3813807
419.00 0.4005368
419.10 0.4323694
419.20 0.4672666
419.30 0.5037595
419.40 0.538225
419.50 0.5663474
419.60 0.5848181
419.70 0.5933825
419.80 0.5953792
419.90 0.5955393
420.00 0.5882939
420.10 0.5768263
420.20 0.5683786
420.30 0.569701
420.40 0.5845454
420.50 0.6135164
420.60 0.6540391
420.70 0.6997559
420.80 0.7382702
420.90 0.7688548
421.00 0.7937591
421.10 0.8170187
421.20 0.8433428
421.30 0.8766462
421.40 0.9192459
421.50 0.9690844
421.60 1.024857
421.70 1.08314
421.80 1.138493
421.90 1.184472
422.00 1.217954
422.10 1.240515
422.20 1.256236
422.30 1.271445
422.40 1.292736
422.50 1.315918
422.60 1.337798
422.70 1.357741
422.80 1.375093
422.90 1.389185
423.00 1.399173
423.10 1.403841
423.20 1.403841
423.30 1.403841
423.40 1.403841
423.50 1.403841
423.60 1.403841
423.70 1.403841
423.80 1.403841
423.90 1.403841
424.00 1.409671
424.10 1.427783
424.20 1.455235
424.30 1.486207
424.40 1.515296
424.50 1.539135
424.60 1.555939
424.70 1.565446
424.80 1.568158
424.90 1.568158
425.00 1.568158
425.10 1.568158
425.20 1.568158
425.30 1.563614
425.40 1.554766
425.50 1.543495
425.60 1.531845
425.70 1.521085
425.80 1.511718
425.90 1.504136
426.00 1.503375
426.10 1.506536
426.20 1.509802
426.30 1.511325
426.40 1.511988
426.50 1.513805
426.60 1.518825
426.70 1.525086
426.80 1.527596
426.90 1.527596
427.00 1.527596
427.10 1.527596
427.20 1.527596
427.30 1.533787
427.40 1.548437
427.50 1.569673
427.60 1.5927
427.70 1.611736
427.80 1.621982
427.90 1.621982
428.00 1.621982
428.10 1.621982
428.20 1.621982
428.30 1.621982
428.40 1.621982
428.50 1.621982
428.60 1.621982
428.70 1.614762
428.80 1.597964
428.90 1.57412
429.00 1.545605
429.10 1.513773
429.20 1.478875
429.30 1.442383
429.40 1.407917
429.50 1.379795
429.60 1.361324
429.70 1.35276
429.80 1.350763
429.90 1.350603
430.00 1.34828
430.10 1.340321
430.20 1.323192
430.30 1.294706
430.40 1.255538
430.50 1.208952
430.60 1.16001
430.70 1.114293
430.80 1.075779
430.90 1.045194
431.00 1.023142
431.10 1.011579
431.20 1.008989
431.30 1.010779
431.40 1.011451
431.50 1.007672
431.60 0.9982232
431.70 0.9823845
431.80 0.961525
431.90 0.9395183
432.00 0.9193278
432.10 0.9013913
432.20 0.8841305
432.30 0.8648782
432.40 0.841398
432.50 0.8182161
432.60 0.7963359
432.70 0.7763933
432.80 0.7590412
432.90 0.7449492
433.00 0.7349616
433.10 0.7302934
433.20 0.7302934
433.30 0.7302934
433.40 0.7302934
433.50 0.7302934
433.60 0.7302934
433.70 0.7302934
433.80 0.7333884
433.90 0.7428803
434.00 0.7532438
434.10 0.7566434
434.20 0.7545417
434.30 0.7514008
434.40 0.7501548
434.50 0.7512071
434.60 0.754562
434.70 0.7598937
434.80 0.7670622
434.90 0.773474
435.00 0.7792118
435.10 0.786888
435.20 0.7964373
435.30 0.804973
435.40 0.8093562
435.50 0.8093562
435.60 0.8093562
435.70 0.8093562
435.80 0.8093562
435.90 0.8093562
436.00 0.8041223
436.10 0.7950553
436.20 0.7845553
436.30 0.7737153
436.40 0.7627164
436.50 0.7524257
436.60 0.7436928
436.70 0.7374317
436.80 0.7349215
436.90 0.7349215
437.00 0.7351055
437.10 0.7365557
437.20 0.7382798
437.30 0.7320888
437.40 0.7174388
437.50 0.6962029
437.60 0.6731761
437.70 0.6541403
437.80 0.6438938
437.90 0.6438938
438.00 0.6438938
438.10 0.6438938
438.20 0.6501126
438.30 0.6697509
438.40 0.6994481
438.50 0.7334529
438.60 0.7657868
438.70 0.7910046
438.80 0.8046204
438.90 0.8046204
439.00 0.8046204
439.10 0.8046204
439.20 0.8046204
439.30 0.8046204
439.40 0.8046204
439.50 0.8046204
439.60 0.8046204
439.70 0.8046204
439.80 0.8121763
439.90 0.827842
440.00 0.8478103
440.10 0.8681418
440.20 0.8860095
440.30 0.9004357
440.40 0.9117878
440.50 0.9202923
440.60 0.9259627
440.70 0.9298256
440.80 0.9345959
440.90 0.9438269
441.00 0.9566968
441.10 0.9672107
441.20 0.970923
441.30 0.9661769
441.40 0.9538923
441.50 0.9355532
441.60 0.914379
441.70 0.8958249
441.80 0.883593
441.90 0.8802373
442.00 0.8895049
442.10 0.9134937
442.20 0.9507892
442.30 0.9979156
442.40 1.050666
442.50 1.099731
442.60 1.141492
442.70 1.174504
442.80 1.199426
442.90 1.218477
443.00 1.23358
443.10 1.246039
443.20 1.257581
443.30 1.268502
443.40 1.276805
443.50 1.28136
443.60 1.283642
443.70 1.285431
443.80 1.284674
443.90 1.278535
444.00 1.266409
444.10 1.249031
444.20 1.227593
444.30 1.203713
444.40 1.180887
444.50 1.164188
444.60 1.157527
444.70 1.162508
444.80 1.179213
444.90 1.205641
445.00 1.236712
445.10 1.266993
445.20 1.294491
445.30 1.320748
445.40 1.347884
445.50 1.375719
445.60 1.399927
445.70 1.421196
445.80 1.440903
445.90 1.459859
446.00 1.478347
446.10 1.497242
446.20 1.517212
446.30 1.538846
446.40 1.563381
446.50 1.59201
446.60 1.624126
446.70 1.657254
446.80 1.688991
446.90 1.717406
447.00 1.741001
447.10 1.758359
447.20 1.771108
447.30 1.783091
447.40 1.795262
447.50 1.810935
447.60 1.834076
447.70 1.866835
447.80 1.90793
447.90 1.953074
448.00 1.997075
448.10 2.035994
448.20 2.060525
448.30 2.061027
448.40 2.040111
448.50 2.006106
448.60 1.973772
448.70 1.948554
448.80 1.934939
448.90 1.935904
449.00 1.94475
449.10 1.960979
449.20 1.983521
449.30 2.011122
449.40 2.04286
449.50 2.077426
449.60 2.113112
449.70 2.148452
449.80 2.174262
449.90 2.188128
450.00 2.191982
450.10 2.188844
450.20 2.181705
450.30 2.172166
450.40 2.160999
450.50 2.152494
450.60 2.146824
450.70 2.142961
450.80 2.138191
450.90 2.128959
451.00 2.113877
451.10 2.095841
451.20 2.075687
451.30 2.055197
451.40 2.03685
451.50 2.022385
451.60 2.012177
451.70 2.006077
451.80 2.003505
451.90 2.001455
452.00 1.992528
452.10 1.969295
452.20 1.929025
452.30 1.876359
452.40 1.823422
452.50 1.774357
452.60 1.732596
452.70 1.699584
452.80 1.674662
452.90 1.661069
453.00 1.65886
453.10 1.662904
453.20 1.667181
453.30 1.667657
453.40 1.664579
453.50 1.660024
453.60 1.657742
453.70 1.655954
453.80 1.653615
453.90 1.650263
454.00 1.647202
454.10 1.650396
454.20 1.660347
454.30 1.676419
454.40 1.696139
454.50 1.715561
454.60 1.730438
454.70 1.737913
454.80 1.7369
454.90 1.728411
455.00 1.715532
455.10 1.701099
455.20 1.686788
455.30 1.673685
455.40 1.66185
455.50 1.649852
455.60 1.635877
455.70 1.618805
455.80 1.599098
455.90 1.580142
456.00 1.561655
456.10 1.542759
456.20 1.522789
456.30 1.501155
456.40 1.47662
456.50 1.447991
456.60 1.415875
456.70 1.382747
456.80 1.35101
456.90 1.322595
457.00 1.302115
457.10 1.294145
457.20 1.296026
457.30 1.302791
457.40 1.308729
457.50 1.307591
457.60 1.29298
457.70 1.261308
457.80 1.220213
457.90 1.175069
458.00 1.131069
458.10 1.092149
458.20 1.0614
458.30 1.041259
458.40 1.038478
458.50 1.052168
458.60 1.072887
458.70 1.0995
458.80 1.13119
458.90 1.166691
459.00 1.198847
459.10 1.227108
459.20 1.25093
459.30 1.269205
459.40 1.279429
459.50 1.279439
459.60 1.268869
459.70 1.249609
459.80 1.225231
459.90 1.199488
460.00 1.176277
460.10 1.159112
460.20 1.149423
460.30 1.14673
460.40 1.149579
460.50 1.153434
460.60 1.158636
460.70 1.166772
460.80 1.180499
460.90 1.202026
461.00 1.231033
461.10 1.262007
461.20 1.290676
461.30 1.31367
461.40 1.328846
461.50 1.335044
461.60 1.331553
461.70 1.318226
461.80 1.297372
461.90 1.273705
462.00 1.253451
462.10 1.242248
462.20 1.243434
462.30 1.255403
462.40 1.270258
462.50 1.288474
462.60 1.31023
462.70 1.334381
462.80 1.358067
462.90 1.372067
463.00 1.37187
463.10 1.3614
463.20 1.346605
463.30 1.335207
463.40 1.329982
463.50 1.329982
463.60 1.332529
463.70 1.338198
463.80 1.345261
463.90 1.351335
464.00 1.353709
464.10 1.346729
464.20 1.332866
464.30 1.312843
464.40 1.288105
464.50 1.260492
464.60 1.232116
464.70 1.204822
464.80 1.179249
464.90 1.154899
465.00 1.130969
465.10 1.107445
465.20 1.084709
465.30 1.063019
465.40 1.043335
465.50 1.027498
465.60 1.017265
465.70 1.013068
465.80 1.014881
465.90 1.018059
466.00 1.02178
466.10 1.025065
466.20 1.02659
466.30 1.02659
466.40 1.02659
466.50 1.02659
466.60 1.028986
466.70 1.03825
466.80 1.055194
466.90 1.078771
467.00 1.103314
467.10 1.121602
467.20 1.133362
467.30 1.14047
467.40 1.145794
467.50 1.152794
467.60 1.164189
467.70 1.181236
467.80 1.196362
467.90 1.206173
468.00 1.208575
468.10 1.208575
468.20 1.208575
468.30 1.208575
468.40 1.202575
468.50 1.188885
468.60 1.168166
468.70 1.141553
468.80 1.109863
468.90 1.073397
469.00 1.032395
469.10 0.9879044
469.20 0.9415407
469.30 0.9012017
469.40 0.8687022
469.50 0.8442665
469.60 0.8277757
469.70 0.8185802
469.80 0.8159726
469.90 0.8209703
470.00 0.8350819
470.10 0.8586964
470.20 0.8920856
470.30 0.9349749
470.40 0.9855586
470.50 1.040002
470.60 1.092502
470.70 1.135739
470.80 1.162755
470.90 1.169444
471.00 1.155212
471.10 1.123793
471.20 1.087832
471.30 1.054981
471.40 1.027165
471.50 1.005249
471.60 0.9895493
471.70 0.9824341
471.80 0.9950418
471.90 1.025087
472.00 1.067502
472.10 1.116557
472.20 1.166846
472.30 1.213212
472.40 1.250896
472.50 1.276138
472.60 1.288101
472.70 1.290172
472.80 1.28847
472.90 1.289759
473.00 1.298428
473.10 1.314745
473.20 1.33643
473.30 1.35872
473.40 1.379992
473.50 1.399412
473.60 1.413063
473.70 1.419
473.80 1.417616
473.90 1.411542
474.00 1.408161
474.10 1.407813
474.20 1.407813
474.30 1.407813
474.40 1.407813
474.50 1.407813
474.60 1.407813
474.70 1.407813
474.80 1.414156
474.90 1.429369
475.00 1.452764
475.10 1.48288
475.20 1.519106
475.30 1.56119
475.40 1.607512
475.50 1.655844
475.60 1.704006
475.70 1.74999
475.80 1.790244
475.90 1.823589
476.00 1.849202
476.10 1.867241
476.20 1.879747
476.30 1.888609
476.40 1.895373
476.50 1.902711
476.60 1.908461
476.70 1.90659
476.80 1.894575
476.90 1.872415
477.00 1.844573
477.10 1.815448
477.20 1.787332
477.30 1.761478
477.40 1.738044
477.50 1.716508
477.60 1.69692
477.70 1.681561
477.80 1.66948
477.90 1.660487
478.00 1.658085
478.10 1.658085
478.20 1.658085
478.30 1.658085
478.40 1.660392
478.50 1.669593
478.60 1.685645
478.70 1.707255
478.80 1.733083
478.90 1.761754
479.00 1.791796
479.10 1.821987
479.20 1.851319
479.30 1.87437
479.40 1.893725
479.50 1.913251
479.60 1.934801
479.70 1.957324
479.80 1.978377
479.90 1.9945
480.00 2.001969
480.10 1.998112
480.20 1.981386
480.30 1.951943
480.40 1.911974
480.50 1.865929
480.60 1.820414
480.70 1.782191
480.80 1.755757
480.90 1.742995
481.00 1.744493
481.10 1.75963
481.20 1.780479
481.30 1.802437
481.40 1.82465
481.50 1.846627
481.60 1.868002
481.70 1.88653
481.80 1.89064
481.90 1.880818
482.00 1.860056
482.10 1.832677
482.20 1.802816
482.30 1.773981
482.40 1.749565
482.50 1.733356
482.60 1.727561
482.70 1.731388
482.80 1.742599
482.90 1.758154
483.00 1.774339
483.10 1.786691
483.20 1.791156
483.30 1.785804
483.40 1.771644
483.50 1.752653
483.60 1.736456
483.70 1.727122
483.80 1.732733
483.90 1.755271
484.00 1.787745
484.10 1.827085
484.20 1.869294
484.30 1.91015
484.40 1.947151
484.50 1.980832
484.60 2.013738
484.70 2.048553
484.80 2.08104
484.90 2.11007
485.00 2.136514
485.10 2.160414
485.20 2.179239
485.30 2.188988
485.40 2.18737
485.50 2.174649
485.60 2.153526
485.70 2.128222
485.80 2.103591
485.90 2.084343
486.00 2.073955
486.10 2.073085
486.20 2.079091
486.30 2.086971
486.40 2.090681
486.50 2.085453
486.60 2.077307
486.70 2.069915
486.80 2.064985
486.90 2.063568
487.00 2.064165
487.10 2.075944
487.20 2.099535
487.30 2.133574
487.40 2.175111
487.50 2.220396
487.60 2.264885
487.70 2.30246
487.80 2.333292
487.90 2.35971
488.00 2.380653
488.10 2.39627
488.20 2.408091
488.30 2.416916
488.40 2.419742
488.50 2.411103
488.60 2.395051
488.70 2.37344
488.80 2.347613
488.90 2.318942
489.00 2.288899
489.10 2.258709
489.20 2.229377
489.30 2.20079
489.40 2.171971
489.50 2.142305
489.60 2.11213
489.70 2.082723
489.80 2.056007
489.90 2.034703
490.00 2.020134
490.10 2.011993
490.20 2.009034
490.30 2.010218
490.40 2.014562
490.50 2.020189
490.60 2.023971
490.70 2.023196
490.80 2.017166
490.90 2.007277
491.00 1.99539
491.10 1.983056
491.20 1.971949
491.30 1.963537
491.40 1.958138
491.50 1.95473
491.60 1.95145
491.70 1.946006
491.80 1.936145
491.90 1.920954
492.00 1.901647
492.10 1.881031
492.20 1.862606
492.30 1.849182
492.40 1.84204
492.50 1.839911
492.60 1.839761
492.70 1.838168
492.80 1.832178
492.90 1.820853
493.00 1.80552
493.10 1.78949
493.20 1.776974
493.30 1.771246
493.40 1.773342
493.50 1.781756
493.60 1.791563
493.70 1.801139
493.80 1.804077
493.90 1.797195
494.00 1.78011
494.10 1.754581
494.20 1.723572
494.30 1.690404
494.40 1.658066
494.50 1.627756
494.60 1.598675
494.70 1.569241
494.80 1.537877
494.90 1.50305
495.00 1.463323
495.10 1.417721
495.20 1.366539
495.30 1.314707
495.40 1.270002
495.50 1.234391
495.60 1.207353
495.70 1.186672
495.80 1.169236
495.90 1.151961
496.00 1.133015
496.10 1.112561
496.20 1.092523
496.30 1.080272
496.40 1.078249
496.50 1.086347
496.60 1.096709
496.70 1.106038
496.80 1.113146
496.90 1.116684
497.00 1.116088
497.10 1.104309
497.20 1.080717
497.30 1.046678
497.40 1.005142
497.50 0.9598564
497.60 0.915031
497.70 0.8746809
497.80 0.8408031
497.90 0.8135667
498.00 0.7926243
498.10 0.7770072
498.20 0.7651862
498.30 0.7563614
498.40 0.7512286
498.50 0.7506669
498.60 0.750996
498.70 0.7600618
498.80 0.7765295
498.90 0.799487
499.00 0.8279092
499.10 0.8592375
499.20 0.8904492
499.30 0.9191175
499.40 0.9433354
499.50 0.9619468
499.60 0.9750239
499.70 0.9839614
499.80 0.9902673
499.90 0.9949037
500.00 1
500.10 1.008335
500.20 1.02241
500.30 1.04196
500.40 1.064164
500.50 1.086091
500.60 1.106345
500.70 1.125097
500.80 1.142888
500.90 1.159482
501.00 1.174266
501.10 1.186958
501.20 1.197859
501.30 1.20754
501.40 1.21618
501.50 1.224122
501.60 1.232242
501.70 1.241427
501.80 1.252477
501.90 1.2652
502.00 1.277484
502.10 1.286227
502.20 1.288914
502.30 1.284368
502.40 1.272646
502.50 1.255233
502.60 1.234953
502.70 1.215563
502.80 1.200625
502.90 1.191744
503.00 1.189385
503.10 1.193153
503.20 1.200257
503.30 1.206366
503.40 1.207171
503.50 1.19914
503.60 1.189334
503.70 1.177485
503.80 1.163258
503.90 1.147601
504.00 1.132212
504.10 1.118401
504.20 1.107201
504.30 1.099513
504.40 1.094851
504.50 1.091479
504.60 1.087654
504.70 1.082273
504.80 1.078267
504.90 1.076645
505.00 1.078616
505.10 1.086736
505.20 1.103854
505.30 1.128072
505.40 1.152955
505.50 1.175426
505.60 1.192284
505.70 1.201281
505.80 1.202213
505.90 1.202213
506.00 1.202213
506.10 1.202213
506.20 1.202213
506.30 1.197723
506.40 1.189273
506.50 1.179064
506.60 1.168702
506.70 1.159374
506.80 1.152265
506.90 1.148727
507.00 1.149433
507.10 1.154551
507.20 1.16365
507.30 1.175575
507.40 1.189076
507.50 1.20351
507.60 1.219497
507.70 1.238172
507.80 1.259561
507.90 1.282267
508.00 1.304195
508.10 1.323416
508.20 1.33878
508.30 1.350115
508.40 1.35781
508.50 1.362701
508.60 1.365765
508.70 1.359862
508.80 1.347231
508.90 1.329009
509.00 1.305876
509.10 1.279996
509.20 1.254226
509.30 1.231319
509.40 1.213169
509.50 1.200517
509.60 1.19324
509.70 1.190318
509.80 1.19045
509.90 1.191785
510.00 1.192212
510.10 1.190235
510.20 1.185475
510.30 1.179542
510.40 1.175797
510.50 1.177536
510.60 1.186329
510.70 1.201506
510.80 1.221711
510.90 1.245085
511.00 1.268329
511.10 1.287326
511.20 1.298453
511.30 1.300009
511.40 1.29285
511.50 1.278942
511.60 1.260251
511.70 1.239038
511.80 1.217614
511.90 1.197788
512.00 1.180854
512.10 1.167525
512.20 1.157074
512.30 1.148199
512.40 1.140253
512.50 1.132555
512.60 1.12506
512.70 1.115994
512.80 1.103727
512.90 1.087632
513.00 1.067772
513.10 1.045333
513.20 1.023571
513.30 1.006252
513.40 0.9962386
513.50 0.9954257
513.60 0.9954257
513.70 0.9954257
513.80 0.9954257
513.90 0.9954257
514.00 0.9954257
514.10 0.9961441
514.20 1.003781
514.30 1.017919
514.40 1.036718
514.50 1.057715
514.60 1.078199
514.70 1.095623
514.80 1.105077
514.90 1.105655
515.00 1.098055
515.10 1.083211
515.20 1.062744
515.30 1.039703
515.40 1.018275
515.50 1.002524
515.60 0.9961443
515.70 1.002011
515.80 1.020773
515.90 1.044964
516.00 1.072616
516.10 1.102398
516.20 1.133452
516.30 1.166251
516.40 1.201775
516.50 1.240315
516.60 1.280878
516.70 1.321493
516.80 1.360651
516.90 1.397562
517.00 1.430991
517.10 1.456553
517.20 1.473928
517.30 1.483764
517.40 1.487019
517.50 1.484596
517.60 1.476781
517.70 1.462995
517.80 1.443474
517.90 1.420768
518.00 1.39884
518.10 1.379619
518.20 1.364255
518.30 1.35292
518.40 1.345225
518.50 1.340334
518.60 1.336941
518.70 1.333778
518.80 1.330987
518.90 1.330999
519.00 1.333378
519.10 1.337118
519.20 1.341316
519.30 1.344739
519.40 1.346747
519.50 1.34753
519.60 1.347271
519.70 1.346734
519.80 1.347075
519.90 1.349308
520.00 1.353687
520.10 1.358782
520.20 1.362171
520.30 1.362299
520.40 1.358206
520.50 1.348519
520.60 1.332076
520.70 1.309109
520.80 1.280311
520.90 1.246975
521.00 1.212018
521.10 1.179173
521.20 1.151265
521.30 1.129141
521.40 1.11214
521.50 1.099537
521.60 1.092013
521.70 1.088236
521.80 1.086174
521.90 1.084209
522.00 1.081562
522.10 1.07805
522.20 1.074425
522.30 1.071769
522.40 1.071228
522.50 1.073625
522.60 1.078509
522.70 1.086919
522.80 1.099524
522.90 1.116513
523.00 1.137073
523.10 1.158902
523.20 1.179003
523.30 1.195026
523.40 1.206488
523.50 1.214572
523.60 1.220739
523.70 1.225913
523.80 1.230816
523.90 1.236862
524.00 1.245494
524.10 1.256208
524.20 1.26166
524.30 1.260718
524.40 1.254405
524.50 1.245355
524.60 1.236916
524.70 1.232104
524.80 1.232283
524.90 1.237145
525.00 1.246711
525.10 1.261483
525.20 1.281036
525.30 1.303593
525.40 1.32638
525.50 1.346791
525.60 1.363331
525.70 1.374874
525.80 1.380248
525.90 1.378482
526.00 1.369706
526.10 1.355642
526.20 1.338675
526.30 1.320536
526.40 1.302003
526.50 1.283825
526.60 1.267275
526.70 1.253531
526.80 1.242671
526.90 1.234198
527.00 1.227633
527.10 1.222518
527.20 1.21838
527.30 1.215376
527.40 1.213896
527.50 1.213501
527.60 1.213034
527.70 1.211017
527.80 1.20915
527.90 1.20915
528.00 1.20915
528.10 1.20915
528.20 1.20915
528.30 1.20915
528.40 1.20915
528.50 1.20915
528.60 1.20915
528.70 1.215054
528.80 1.226433
528.90 1.239241
529.00 1.251946
529.10 1.263426
529.20 1.272846
529.30 1.27969
529.40 1.283901
529.50 1.285746
529.60 1.285625
529.70 1.28378
529.80 1.280234
529.90 1.275319
530.00 1.269915
530.10 1.264876
530.20 1.260749
530.30 1.257348
530.40 1.254399
530.50 1.253069
530.60 1.255221
530.70 1.262071
530.80 1.274219
530.90 1.291731
531.00 1.314185
531.10 1.340086
531.20 1.366572
531.30 1.39059
531.40 1.40951
531.50 1.421105
531.60 1.422832
531.70 1.422832
531.80 1.422832
531.90 1.422832
532.00 1.422832
532.10 1.422832
532.20 1.422832
532.30 1.422832
532.40 1.422061
532.50 1.419656
532.60 1.414771
532.70 1.408872
532.80 1.400697
532.90 1.389751
533.00 1.377597
533.10 1.367683
533.20 1.364707
533.30 1.372162
533.40 1.390149
533.50 1.416278
533.60 1.446848
533.70 1.477795
533.80 1.505449
533.90 1.525593
534.00 1.534008
534.10 1.529406
534.20 1.516317
534.30 1.50312
534.40 1.490635
534.50 1.478688
534.60 1.466643
534.70 1.454031
534.80 1.440938
534.90 1.427704
535.00 1.413656
535.10 1.400106
535.20 1.388499
535.30 1.377595
535.40 1.367246
535.50 1.35732
535.60 1.346964
535.70 1.335661
535.80 1.324467
535.90 1.315988
536.00 1.312241
536.10 1.312239
536.20 1.311957
536.30 1.306039
536.40 1.290188
536.50 1.269827
536.60 1.245813
536.70 1.218942
536.80 1.190644
536.90 1.162206
537.00 1.134636
537.10 1.109072
537.20 1.086735
537.30 1.067978
537.40 1.052702
537.50 1.041087
537.60 1.033381
537.70 1.030508
537.80 1.030508
537.90 1.030508
538.00 1.030508
538.10 1.030508
538.20 1.030508
538.30 1.030508
538.40 1.030508
538.50 1.030508
538.60 1.030508
538.70 1.024604
538.80 1.01218
538.90 0.9946248
539.00 0.9742517
539.10 0.9535832
539.20 0.934523
539.30 0.9184956
539.40 0.9062078
539.50 0.8976208
539.60 0.8922002
539.70 0.8885672
539.80 0.8846166
539.90 0.8777212
540.00 0.8686616
540.10 0.8603197
540.20 0.8536266
540.30 0.849524
540.40 0.8481485
540.50 0.847867
540.60 0.8465691
540.70 0.843633
540.80 0.8388005
540.90 0.831113
541.00 0.8199293
541.10 0.8056348
541.20 0.7903995
541.30 0.7783912
541.40 0.7738562
541.50 0.7791747
541.60 0.7948173
541.70 0.8109848
541.80 0.8241835
541.90 0.8331658
542.00 0.836884
542.10 0.836884
542.20 0.836884
542.30 0.836884
542.40 0.836884
542.50 0.836884
542.60 0.836884
542.70 0.8343742
542.80 0.8299442
542.90 0.8239003
543.00 0.8154939
543.10 0.8035795
543.20 0.7864547
543.30 0.7653937
543.40 0.7402228
543.50 0.7110169
543.60 0.6786442
543.70 0.6450557
543.80 0.6128414
543.90 0.5866515
544.00 0.5696044
544.10 0.5646419
544.20 0.5702731
544.30 0.5801404
544.40 0.5945334
544.50 0.6139165
544.60 0.6382138
544.70 0.6665831
544.80 0.6975844
544.90 0.7296467
545.00 0.761643
545.10 0.7903191
545.20 0.8130628
545.30 0.8307034
545.40 0.8438189
545.50 0.8533808
545.60 0.8610535
545.70 0.8684257
545.80 0.8754496
545.90 0.8805713
546.00 0.8822461
546.10 0.8796772
546.20 0.8739195
546.30 0.8679588
546.40 0.8668187
546.50 0.8668187
546.60 0.8668187
546.70 0.8668187
546.80 0.8668187
546.90 0.871629
547.00 0.8840799
547.10 0.9044473
547.20 0.9312063
547.30 0.9611263
547.40 0.9905417
547.50 1.016969
547.60 1.039308
547.70 1.057223
547.80 1.071551
547.90 1.084332
548.00 1.098169
548.10 1.115948
548.20 1.140094
548.30 1.171337
548.40 1.207627
548.50 1.244136
548.60 1.275223
548.70 1.295915
548.80 1.302446
548.90 1.302446
549.00 1.302446
549.10 1.302446
549.20 1.302446
549.30 1.302446
549.40 1.302446
549.50 1.302446
549.60 1.302446
549.70 1.302446
549.80 1.302446
549.90 1.302446
550.00 1.279184
550.10 1.330102
550.20 1.397
550.30 1.465757
550.40 1.5286
550.50 1.582151
550.60 1.627088
550.70 1.665543
550.80 1.700508
550.90 1.732461
551.00 1.767052
551.10 1.806829
551.20 1.853118
551.30 1.906555
551.40 1.961297
551.50 2.004114
551.60 2.021088
551.70 2.001894
551.80 1.940718
551.90 1.860562
552.00 1.780571
552.10 1.701602
552.20 1.623573
552.30 1.547395
552.40 1.474877
552.50 1.40796
552.60 1.347121
552.70 1.290931
552.80 1.238686
552.90 1.191016
553.00 1.149006
553.10 1.11614
553.20 1.09602
553.30 1.091448
553.40 1.095947
553.50 1.10189
553.60 1.109256
553.70 1.115832
553.80 1.117221
553.90 1.105195
554.00 1.074068
554.10 1.023149
554.20 0.9562518
554.30 0.8814518
554.40 0.8079133
554.50 0.7418446
554.60 0.6859974
554.70 0.6412108
554.80 0.6053905
554.90 0.573438
555.00 0.5388462
555.10 0.4943983
555.20 0.4340319
555.30 0.3559257
555.40 0.2652011
555.50 0.1739267
555.60 0.09620975
555.70 0.04448012
555.80 0.02815318
555.90 0.02815318
556.00 0.02815318
556.10 0.02815318
556.20 0.02815318
556.30 0.02815318
556.40 0.02815318
556.50 0.02815318
556.60 0.02815318
556.70 0.02815318
556.80 0.04683928
556.90 0.09467448
557.00 0.1709246
557.10 0.2707635
557.20 0.3854202
557.30 0.5016755
557.40 0.6077574
557.50 0.6917398
557.60 0.7451254
557.70 0.768512
557.80 0.7705059
557.90 0.7705059
558.00 0.7705059
558.10 0.7705059
558.20 0.7705059
558.30 0.7833503
558.40 0.814525
558.50 0.8569779
558.60 0.9008435
558.70 0.9368376
558.80 0.960192
558.90 0.9721307
559.00 0.9763783
559.10 0.9763783
559.20 0.9763783
559.30 0.9763783
559.40 0.9763783
559.50 0.9763783
559.60 0.9763783
559.70 0.9763783
559.80 0.9763783
559.90 0.9787771
560.00 0.996181
560.10 1.028367
560.20 1.07308
560.30 1.124751
560.40 1.175995
560.50 1.221043
560.60 1.259286
560.70 1.294059
560.80 1.309489
560.90 1.295347
561.00 1.252702
561.10 1.187945
561.20 1.11032
561.30 1.028746
561.40 0.953287
561.50 0.894935
561.60 0.8590973
561.70 0.8439478
561.80 0.8421883
561.90 0.8421883
562.00 0.8421883
562.10 0.8421883
562.20 0.8421883
562.30 0.8293439
562.40 0.7981692
562.50 0.7557162
562.60 0.7118507
562.70 0.6758566
562.80 0.6525021
562.90 0.6405635
563.00 0.6365162
563.10 0.6379537
563.20 0.6379537
563.30 0.6379537
563.40 0.6379537
563.50 0.6379537
563.60 0.6379537
563.70 0.6379537
563.80 0.6379537
563.90 0.6355548
564.00 0.618151
564.10 0.5859645
564.20 0.541252
564.30 0.4895814
564.40 0.4383365
564.50 0.3932889
564.60 0.3561833
564.70 0.3275786
564.80 0.2987522
564.90 0.2666497
565.00 0.2330446
565.10 0.1979631
565.20 0.1640952
565.30 0.1423588
565.40 0.1386058
565.50 0.1539964
565.60 0.1877534
565.70 0.2383602
565.80 0.3012484
565.90 0.3555909
566.00 0.3945212
566.10 0.4165611
566.20 0.4228952
566.30 0.4228952
566.40 0.4228952
566.50 0.4228952
566.60 0.4228952
566.70 0.4228952
566.80 0.4228952
566.90 0.4228952
567.00 0.436002
567.10 0.4701834
567.20 0.5248187
567.30 0.5905022
567.40 0.6557762
567.50 0.7113231
567.60 0.7508204
567.70 0.770163
567.80 0.770163
567.90 0.770163
568.00 0.770163
568.10 0.770163
568.20 0.770163
568.30 0.770163
568.40 0.770163
568.50 0.770163
568.60 0.7690255
568.70 0.7628576
568.80 0.7575677
568.90 0.7559765
569.00 0.7559765
569.10 0.7559765
569.20 0.7528127
569.30 0.7374879
569.40 0.706119
569.50 0.6591551
569.60 0.6156247
569.70 0.5872609
569.80 0.5762265
569.90 0.5830315
570.00 0.6043583
570.10 0.6358838
570.20 0.6733465
570.30 0.7086423
570.40 0.7399618
570.50 0.7716968
570.60 0.8072748
570.70 0.8510213
570.80 0.9082094
570.90 0.9821229
571.00 1.05806
571.10 1.12082
571.20 1.164655
571.30 1.187751
571.40 1.194217
571.50 1.189813
571.60 1.180619
571.70 1.173843
571.80 1.174861
571.90 1.174861
572.00 1.174861
572.10 1.174861
572.20 1.175515
572.30 1.179164
572.40 1.183629
572.50 1.18598
572.60 1.18598
572.70 1.18598
572.80 1.18598
572.90 1.18598
573.00 1.18598
573.10 1.18598
573.20 1.18598
573.30 1.18598
573.40 1.18598
573.50 1.18598
573.60 1.170839
573.70 1.141599
573.80 1.102011
573.90 1.0568
574.00 1.011642
574.10 0.9712727
574.20 0.9386624
574.30 0.9151106
574.40 0.9006969
574.50 0.8935761
574.60 0.8881995
574.70 0.8758931
574.80 0.8498668
574.90 0.8095008
575.00 0.7600697
575.10 0.7102597
575.20 0.669896
575.30 0.6458778
575.40 0.6373656
575.50 0.6382677
575.60 0.642004
575.70 0.6401088
575.80 0.6390911
575.90 0.6390911
576.00 0.6390911
576.10 0.6390911
576.20 0.6384368
576.30 0.6347876
576.40 0.6303224
576.50 0.6279719
576.60 0.6279719
576.70 0.6279719
576.80 0.6279719
576.90 0.6279719
577.00 0.6279719
577.10 0.6279719
577.20 0.6279719
577.30 0.6279719
577.40 0.6279719
577.50 0.6279719
577.60 0.6279719
577.70 0.6259027
577.80 0.6320637
577.90 0.6485582
578.00 0.6753738
578.10 0.711214
578.20 0.7565429
578.30 0.8097454
578.40 0.8659195
578.50 0.9211339
578.60 0.9760002
578.70 1.03247
578.80 1.087844
578.90 1.136819
579.00 1.175413
579.10 1.201374
579.20 1.213777
579.30 1.214813
579.40 1.209672
579.50 1.203737
579.60 1.201728
579.70 1.210563
579.80 1.220767
579.90 1.223491
580.00 1.223491
580.10 1.223491
580.20 1.223491
580.30 1.223491
580.40 1.224519
580.50 1.236405
580.60 1.262642
580.70 1.306718
580.80 1.371455
580.90 1.457663
581.00 1.561193
581.10 1.671566
581.20 1.773437
581.30 1.851877
581.40 1.897964
581.50 1.910268
581.60 1.910268
581.70 1.904521
581.80 1.884471
581.90 1.85204
582.00 1.810125
582.10 1.761089
582.20 1.704573
582.30 1.639627
582.40 1.571006
582.50 1.499874
582.60 1.42957
582.70 1.366757
582.80 1.318243
582.90 1.286117
583.00 1.268134
583.10 1.260879
583.20 1.259045
583.30 1.256073
583.40 1.248688
583.50 1.238299
583.60 1.22829
583.70 1.221867
583.80 1.223183
583.90 1.238777
584.00 1.269716
584.10 1.315208
584.20 1.372419
584.30 1.432233
584.40 1.481708
584.50 1.501608
584.60 1.482991
584.70 1.438916
584.80 1.374179
584.90 1.287971
585.00 1.184441
585.10 1.074068
585.20 0.972197
585.30 0.8937561
585.40 0.8476693
585.50 0.8353656
585.60 0.8353656
585.70 0.8353656
585.80 0.8353656
585.90 0.8353656
586.00 0.8353656
586.10 0.8353656
586.20 0.8353656
586.30 0.8353656
586.40 0.830906
586.50 0.8222096
586.60 0.8074461
586.70 0.7823491
586.80 0.7443269
586.90 0.6939315
587.00 0.6335071
587.10 0.566232
587.20 0.5017298
587.30 0.4510643
587.40 0.4195848
587.50 0.413356
587.60 0.4349481
587.70 0.4834812
587.80 0.5553273
587.90 0.6434005
588.00 0.7369799
588.10 0.8204956
588.20 0.8736207
588.30 0.8830551
588.40 0.8500544
588.50 0.8182679
588.60 0.8106474
588.70 0.8106474
588.80 0.8106474
588.90 0.8106474
589.00 0.8106474
589.10 0.8106474
589.20 0.8106474
589.30 0.8106474
589.40 0.8106474
589.50 0.8106474
589.60 0.8290421
589.70 0.8720021
589.80 0.9354321
589.90 1.010471
590.00 1.082737
590.10 1.138606
590.20 1.171398
590.30 1.18063
590.40 1.18063
590.50 1.18063
590.60 1.18063
590.70 1.18063
590.80 1.18063
590.90 1.18063
591.00 1.18063
591.10 1.18063
591.20 1.176456
591.30 1.164296
591.40 1.145074
591.50 1.115581
591.60 1.071969
591.70 1.010352
591.80 0.9269861
591.90 0.8205951
592.00 0.6960764
592.10 0.5670684
592.20 0.4567327
592.30 0.3874838
592.40 0.3699826
592.50 0.3699826
592.60 0.3699826
592.70 0.3699826
592.80 0.3699826
592.90 0.3699826
593.00 0.3699826
593.10 0.3699826
593.20 0.3699826
593.30 0.3699826
593.40 0.3699826
593.50 0.3699826
593.60 0.3515879
593.70 0.3086278
593.80 0.2451979
593.90 0.1701586
594.00 0.09789283
594.10 0.04202364
594.20 0.009231716
594.30 0
594.40 0
594.50 0
594.60 0
594.70 0
594.80 0
594.90 0
595.00 0
595.10 0.01518423
595.20 0.0455905
595.30 0.08340089
595.40 0.1202847
595.50 0.1510081
595.60 0.1757893
595.70 0.198997
595.80 0.226167
595.90 0.2629089
596.00 0.3145124
596.10 0.3834717
596.20 0.466088
596.30 0.5520778
596.40 0.628879
596.50 0.6860869
596.60 0.7182313
596.70 0.7255113
596.80 0.7255113
596.90 0.7255113
597.00 0.7255113
597.10 0.7255113
597.20 0.7255113
597.30 0.7255113
597.40 0.7255113
597.50 0.7255113
597.60 0.7255113
597.70 0.7255113
597.80 0.7255113
597.90 0.7255113
598.00 0.7255113
598.10 0.7255113
598.20 0.7255113
598.30 0.7255113
598.40 0.7255113
598.50 0.7255113
598.60 0.7255113
598.70 0.7255113
598.80 0.7255113
598.90 0.7255113
599.00 0.7255113
599.10 0.710327
599.20 0.6799208
599.30 0.6421104
599.40 0.6052266
599.50 0.5745032
599.60 0.5497219
599.70 0.5265142
599.80 0.4993442
599.90 0.4785006
600.00 0
600.10 0
600.20 0
600.30 0
600.40 0
600.50 0
600.60 0
600.70 0
600.80 0
600.90 0
601.00 0
601.10 0
601.20 0
601.30 0
601.40 0
601.50 0
601.60 0
601.70 0
601.80 0
601.90 0.6359292
602.00 1.328548
602.10 1.778646
602.20 1.851684
602.30 1.582511
602.40 1.193906
602.50 0.8983976
602.60 0.7808311
602.70 0.8051313
602.80 0.9024534
602.90 0.9718248
603.00 0.8672803
603.10 0.5145877
603.20 0
603.30 0
603.40 0
603.50 0
603.60 0
603.70 0
603.80 0
603.90 0
604.00 0
604.10 0
604.20 0
604.30 0
604.40 0
604.50 0
604.60 0
604.70 0
604.80 0
604.90 0
605.00 0
605.10 0.306939
605.20 0.6212974
605.30 0.7572167
605.40 0.6724471
605.50 0.3089055
605.60 0
605.70 0
605.80 0
605.90 0
606.00 0
606.10 0
606.20 0
606.30 0
606.40 0
606.50 0
606.60 0
606.70 0
606.80 0
606.90 0
607.00 0
607.10 0
607.20 0
607.30 0
607.40 0
607.50 0
607.60 0
607.70 0
607.80 0
607.90 0
608.00 0
608.10 0
608.20 0
608.30 0
608.40 0
608.50 0.5144288
608.60 1.10818
608.70 1.596101
608.80 1.906351
608.90 1.999192
609.00 1.941777
609.10 1.895298
609.20 2.006729
609.30 2.292038
609.40 2.638647
609.50 2.973192
609.60 3.230979
609.70 3.303299
609.80 3.115274
609.90 2.607282
610.00 1.798946
610.10 0.8223072
610.20 0
610.30 0
610.40 0
610.50 0
610.60 0
610.70 0
610.80 0
610.90 0
611.00 0
611.10 0
611.20 0
611.30 0
611.40 0.04222832
611.50 0.2391658
611.60 0.1664911
611.70 0
611.80 0
611.90 0
612.00 0
612.10 0
612.20 0
612.30 0
612.40 0
612.50 0
612.60 0
612.70 0
612.80 0
612.90 0
613.00 0
613.10 0
613.20 0
613.30 0
613.40 0
613.50 0
613.60 0
613.70 0
613.80 0
613.90 0
614.00 0
614.10 0
614.20 0
614.30 0
614.40 0
614.50 0
614.60 0
614.70 0
614.80 0.093875
614.90 0.1461112
615.00 0.174326
615.10 0.1894843
615.20 0.133575
615.30 0
615.40 0
615.50 0
615.60 0
615.70 0
615.80 0
615.90 0
616.00 0
616.10 0
616.20 0
616.30 0
616.40 0
616.50 0
616.60 0
616.70 0
616.80 0
616.90 0
617.00 0
617.10 0
617.20 0
617.30 0
617.40 0
617.50 0
617.60 0.556354
617.70 1.247023
617.80 1.881473
617.90 2.304449
618.00 2.451446
618.10 2.329584
618.20 2.014653
618.30 1.651999
618.40 1.323352
618.50 1.033695
618.60 0.7515381
618.70 0.4250831
618.80 0.06726276
618.90 0
619.00 0
619.10 0
619.20 0
619.30 0.1409137
619.40 0.8157846
619.50 1.574123
619.60 2.26334
619.70 2.736064
619.80 2.915341
619.90 2.800826
620.00 2.456394
620.10 1.998143
620.20 1.562162
620.30 1.253183
620.40 1.089203
620.50 1.031438
620.60 1.022014
620.70 1.020208
620.80 1.045817
620.90 1.105861
621.00 1.146262
621.10 1.081096
621.20 0.8803353
621.30 0.5966872
621.40 0.2702121
621.50 0
621.60 0
621.70 0
621.80 0
621.90 0
622.00 0
622.10 0
622.20 0.4062306
622.30 0.8833167
622.40 1.307979
622.50 1.601519
622.60 1.684602
622.70 1.480799
622.80 1.00976
622.90 0.3921834
623.00 0
623.10 0
623.20 0
623.30 0
623.40 0
623.50 0
623.60 0
623.70 0
623.80 0
623.90 0
624.00 0
624.10 0
624.20 0
624.30 0
624.40 0
624.50 0
624.60 0
624.70 0
624.80 0
624.90 0
625.00 0
625.10 0
625.20 0
625.30 0
625.40 0
625.50 0
625.60 0
625.70 0
625.80 0
625.90 0
626.00 0.04543753
626.10 0.8836596
626.20 1.452757
626.30 1.575023
626.40 1.189388
626.50 0.4193861
626.60 0
626.70 0
626.80 0
626.90 0
627.00 0
627.10 0
627.20 0
627.30 0
627.40 0
627.50 0
627.60 0
627.70 0
627.80 0
627.90 0
628.00 0.4292851
628.10 1.137403
628.20 1.699054
628.30 2.052729
628.40 2.16446
628.50 2.073552
628.60 1.90643
628.70 1.748666
628.80 1.615353
628.90 1.534785
629.00 1.547103
629.10 1.637698
629.20 1.727082
629.30 1.716776
629.40 1.520554
629.50 1.022373
629.60 0.199642
629.70 0
629.80 0
629.90 0
630.00 0.4747553
630.10 2.037361
630.20 3.622815
630.30 4.765561
630.40 5.207622
630.50 4.873609
630.60 3.899292
630.70 2.533698
630.80 1.090599
630.90 0
631.00 0
631.10 0
631.20 0
631.30 0
631.40 0
631.50 0
631.60 0
631.70 0
631.80 0
631.90 0.3782136
632.00 1.125984
632.10 1.830909
632.20 2.375149
632.30 2.704025
632.40 2.775849
632.50 2.552897
632.60 2.073326
632.70 1.461744
632.80 0.8758714
632.90 0.4105765
633.00 0.08599693
633.10 0
633.20 0
633.30 0
633.40 0
633.50 0
633.60 0
633.70 0
633.80 0
633.90 0
634.00 0
634.10 0
634.20 0.04766355
634.30 0.1486062
634.40 0.1978795
634.50 0.1881104
634.60 0.1126588
634.70 0
634.80 0
634.90 0
635.00 0
635.10 0
635.20 0
635.30 0
635.40 0
635.50 0.1714788
635.60 0.6800104
635.70 1.395849
635.80 2.27008
635.90 3.151446
636.00 3.870331
636.10 4.273702
636.20 4.275341
636.30 3.964967
636.40 3.513838
636.50 3.01694
636.60 2.545028
636.70 2.213336
636.80 2.05263
636.90 1.974856
637.00 1.886962
637.10 1.714585
637.20 1.421761
637.30 1.052006
637.40 0.7185903
637.50 0.5465027
637.60 0.5936349
637.70 0.7790908
637.80 0.9980117
637.90 1.239087
638.00 1.501201
638.10 1.744997
638.20 1.923568
638.30 2.002837
638.40 1.999131
638.50 1.962726
638.60 1.941343
638.70 1.956814
638.80 1.98118
638.90 1.983543
639.00 1.980065
639.10 1.996044
639.20 2.019681
639.30 2.035436
639.40 2.051234
639.50 2.070866
639.60 2.056166
639.70 1.972282
639.80 1.802659
639.90 1.552271
640.00 1.274782
640.10 1.013619
640.20 0.7602414
640.30 0.5102538
640.40 0.2878493
640.50 0.1179826
640.60 0
640.70 0
640.80 0
640.90 0
641.00 0
641.10 0.1547381
641.20 0.4706397
641.30 0.858034
641.40 1.228852
641.50 1.47382
641.60 1.546624
641.70 1.43426
641.80 1.15718
641.90 0.7709522
642.00 0.3454452
642.10 0
642.20 0
642.30 0
642.40 0
642.50 0
642.60 0
642.70 0.1851307
642.80 0.7558618
642.90 1.379656
643.00 1.992212
643.10 2.502189
643.20 2.808264
643.30 2.883881
643.40 2.787205
643.50 2.600559
643.60 2.400476
643.70 2.221771
643.80 2.082678
643.90 2.003485
644.00 1.969555
644.10 1.932849
644.20 1.863603
644.30 1.748265
644.40 1.591048
644.50 1.436013
644.60 1.363127
644.70 1.429853
644.80 1.65396
644.90 1.987943
645.00 2.307603
645.10 2.497789
645.20 2.521173
645.30 2.359915
645.40 2.019978
645.50 1.570739
645.60 1.084757
645.70 0.6698352
645.80 0.4808678
645.90 0.6009026
646.00 0.9847112
646.10 1.533424
646.20 2.11845
646.30 2.660931
646.40 3.143994
646.50 3.544764
646.60 3.789032
646.70 3.812757
646.80 3.628905
646.90 3.265143
647.00 2.792696
647.10 2.304688
647.20 1.811301
647.30 1.281519
647.40 0.7470899
647.50 0.3120525
647.60 0.1260739
647.70 0.259079
647.80 0.6614114
647.90 1.280415
648.00 2.076643
648.10 2.97116
648.20 3.834607
648.30 4.549795
648.40 5.023333
648.50 5.194517
648.60 5.111558
648.70 4.917531
648.80 4.730226
648.90 4.537758
649.00 4.273943
649.10 3.964821
649.20 3.672994
649.30 3.390394
649.40 3.074449
649.50 2.673276
649.60 2.19137
649.70 1.708417
649.80 1.279946
649.90 0.9296397
650.00 0.6900766
650.10 0.6113762
650.20 0.7528774
650.30 1.172463
650.40 1.850924
650.50 2.642753
650.60 3.403822
650.70 4.053777
650.80 4.520165
650.90 4.781572
651.00 4.841747
651.10 4.688197
651.20 4.373014
651.30 3.994565
651.40 3.621766
651.50 3.300323
651.60 3.006066
651.70 2.660014
651.80 2.256819
651.90 1.868499
652.00 1.586246
652.10 1.485628
652.20 1.571005
652.30 1.784542
652.40 2.072972
652.50 2.396384
652.60 2.716536
652.70 2.998784
652.80 3.199168
652.90 3.23381
653.00 3.10314
653.10 2.92704
653.20 2.78617
653.30 2.667679
653.40 2.52639
653.50 2.328148
653.60 2.074297
653.70 1.819988
653.80 1.618306
653.90 1.480679
654.00 1.366829
654.10 1.286057
654.20 1.309369
654.30 1.504014
654.40 1.913
654.50 2.51865
654.60 3.259948
654.70 4.049208
654.80 4.755441
654.90 5.25793
655.00 5.501447
655.10 5.517871
655.20 5.398439
655.30 5.220587
655.40 5.073719
655.50 4.971686
655.60 4.859387
655.70 4.692971
655.80 4.425186
655.90 4.0323
656.00 3.54342
656.10 3.092376
656.20 2.858825
656.30 2.932131
656.40 3.322068
656.50 3.922421
656.60 4.551138
656.70 5.095445
656.80 5.48295
656.90 5.664548
657.00 5.64438
657.10 5.494333
657.20 5.273563
657.30 5.022424
657.40 4.818112
657.50 4.691968
657.60 4.644601
657.70 4.699228
657.80 4.825353
657.90 4.984196
658.00 5.171843
658.10 5.35972
658.20 5.520687
658.30 5.667434
658.40 5.824234
658.50 5.98007
658.60 6.113374
658.70 6.177621
658.80 6.108659
658.90 5.925066
659.00 5.710696
659.10 5.554408
659.20 5.555631
659.30 5.757282
659.40 6.111854
659.50 6.549726
659.60 6.987332
659.70 7.282517
659.80 7.270724
659.90 6.854399
660.00 6.064678
660.10 5.093197
660.20 4.193711
660.30 3.545686
660.40 3.229377
660.50 3.223111
660.60 3.437868
660.70 3.807406
660.80 4.254524
660.90 4.66291
661.00 4.938383
661.10 5.060837
661.20 5.082811
661.30 5.064972
661.40 5.037653
661.50 4.98402
661.60 4.860898
661.70 4.633546
661.80 4.301444
661.90 3.937726
662.00 3.664102
662.10 3.569019
662.20 3.712587
662.30 4.1066
662.40 4.664496
662.50 5.232087
662.60 5.657908
662.70 5.881849
662.80 5.944784
662.90 5.924155
663.00 5.897512
663.10 5.930259
663.20 6.04205
663.30 6.160145
663.40 6.180868
663.50 6.017242
663.60 5.63862
663.70 5.104515
663.80 4.527508
663.90 4.066848
664.00 3.831534
664.10 3.812816
664.20 3.95983
664.30 4.188363
664.40 4.378157
664.50 4.479157
664.60 4.535959
664.70 4.631573
664.80 4.818472
664.90 5.112224
665.00 5.495456
665.10 5.906774
665.20 6.276301
665.30 6.542992
665.40 6.692814
665.50 6.761238
665.60 6.761979
665.70 6.707501
665.80 6.627468
665.90 6.482087
666.00 6.195117
666.10 5.765621
666.20 5.278115
666.30 4.847479
666.40 4.56764
666.50 4.502782
666.60 4.680811
666.70 5.069548
666.80 5.5931
666.90 6.173856
667.00 6.757023
667.10 7.268866
667.20 7.649291
667.30 7.910998
667.40 8.096748
667.50 8.222275
667.60 8.296557
667.70 8.316786
667.80 8.265122
667.90 8.177344
668.00 8.115829
668.10 8.116807
668.20 8.19345
668.30 8.347381
668.40 8.561821
668.50 8.842493
668.60 9.171179
668.70 9.460814
668.80 9.616967
668.90 9.593172
669.00 9.367504
669.10 8.965434
669.20 8.475562
669.30 7.958903
669.40 7.48236
669.50 7.138377
669.60 6.975695
669.70 6.975829
669.80 7.080144
669.90 7.215913
670.00 7.354012
670.10 7.494077
670.20 7.576045
670.30 7.54179
670.40 7.438343
670.50 7.375233
670.60 7.465247
670.70 7.783621
670.80 8.316643
670.90 8.966701
671.00 9.615869
671.10 10.16812
671.20 10.54401
671.30 10.68768
671.40 10.58832
671.50 10.30481
671.60 9.975095
671.70 9.726025
671.80 9.590521
671.90 9.531455
672.00 9.463604
672.10 9.301111
672.20 9.035897
672.30 8.726076
672.40 8.445416
672.50 8.222424
672.60 8.035526
672.70 7.854023
672.80 7.667735
672.90 7.521616
673.00 7.505857
673.10 7.708276
673.20 8.134432
673.30 8.698906
673.40 9.298793
673.50 9.844682
673.60 10.23525
673.70 10.38354
673.80 10.24301
673.90 9.882102
674.00 9.444738
674.10 9.056395
674.20 8.825219
674.30 8.803152
674.40 8.982799
674.50 9.329882
674.60 9.835999
674.70 10.45873
674.80 11.09664
674.90 11.62076
675.00 11.87361
675.10 11.76298
675.20 11.33047
675.30 10.67798
675.40 9.947024
675.50 9.301587
675.60 8.829383
675.70 8.540212
675.80 8.401907
675.90 8.339088
676.00 8.257674
676.10 8.134553
676.20 8.003522
676.30 7.925873
676.40 7.9598
676.50 8.129155
676.60 8.454119
676.70 8.90399
676.80 9.399461
676.90 9.852682
677.00 10.18812
677.10 10.36636
677.20 10.41523
677.30 10.41131
677.40 10.40853
677.50 10.40802
677.60 10.37451
677.70 10.26849
677.80 10.11667
677.90 9.982782
678.00 9.861285
678.10 9.737389
678.20 9.606048
678.30 9.446047
678.40 9.285105
678.50 9.183661
678.60 9.183991
678.70 9.294882
678.80 9.506497
678.90 9.8221
679.00 10.25049
679.10 10.79666
679.20 11.39395
679.30 11.88822
679.40 12.14395
679.50 12.07842
679.60 11.68497
679.70 11.04235
679.80 10.31663
679.90 9.770309
680.00 9.553319
680.10 9.66296
680.20 10.03621
680.30 10.58474
680.40 11.22304
680.50 11.79288
680.60 12.14584
680.70 12.21191
680.80 11.98456
680.90 11.51766
681.00 10.89732
681.10 10.27305
681.20 9.766303
681.30 9.347263
681.40 8.984825
681.50 8.697232
681.60 8.537696
681.70 8.577503
681.80 8.858813
681.90 9.432958
682.00 10.25472
682.10 11.17595
682.20 12.05427
682.30 12.76139
682.40 13.15713
682.50 12.97612
682.60 12.04634
682.70 10.53022
682.80 8.753621
682.90 7.102951
683.00 5.873146
683.10 5.223526
683.20 5.236281
683.30 5.857582
683.40 6.94113
683.50 8.270991
683.60 9.586695
683.70 10.67123
683.80 11.40723
683.90 11.88547
684.00 12.22694
684.10 12.41653
684.20 12.45513
684.30 12.37385
684.40 12.24827
684.50 12.1557
684.60 12.06267
684.70 11.88568
684.80 11.60577
684.90 11.29916
685.00 11.04005
685.10 10.83183
685.20 10.66332
685.30 10.55892
685.40 10.54168
685.50 10.59725
685.60 10.64894
685.70 10.6025
685.80 10.38816
685.90 9.970622
686.00 9.415691
686.10 8.892854
686.20 8.577742
686.30 8.569098
686.40 8.893776
686.50 9.526505
686.60 10.35538
686.70 11.2096
686.80 11.96196
686.90 12.54508
687.00 12.97947
687.10 13.25816
687.20 13.34769
687.30 13.2774
687.40 13.07468
687.50 12.75684
687.60 12.34219
687.70 11.86732
687.80 11.39497
687.90 11.02318
688.00 10.86972
688.10 11.00539
688.20 11.3947
688.30 11.89058
688.40 12.26154
688.50 12.39924
688.60 12.35985
688.70 12.20733
688.80 11.98241
688.90 11.70121
689.00 11.36726
689.10 11.00338
689.20 10.6635
689.30 10.37262
689.40 10.1069
689.50 9.862298
689.60 9.635549
689.70 9.400793
689.80 9.198972
689.90 9.077938
690.00 9.012736
690.10 8.982498
690.20 9.017803
690.30 9.173503
690.40 9.524368
690.50 10.09487
690.60 10.79677
690.70 11.48043
690.80 12.03954
690.90 12.44115
691.00 12.69058
691.10 12.84769
691.20 12.95254
691.30 12.99627
691.40 12.96631
691.50 12.83434
691.60 12.56447
691.70 12.13634
691.80 11.50526
691.90 10.65581
692.00 9.619984
692.10 8.512583
692.20 7.563768
692.30 6.925791
692.40 6.643501
692.50 6.775956
692.60 7.325145
692.70 8.191767
692.80 9.267658
692.90 10.42134
693.00 11.48377
693.10 12.28364
693.20 12.712
693.30 12.74952
693.40 12.46498
693.50 11.96232
693.60 11.27363
693.70 10.43579
693.80 9.588131
693.90 8.865328
694.00 8.39286
694.10 8.322389
694.20 8.666544
694.30 9.292806
694.40 10.05364
694.50 10.77361
694.60 11.29829
694.70 11.53724
694.80 11.48402
694.90 11.25473
695.00 10.9807
695.10 10.74785
695.20 10.59115
695.30 10.48786
695.40 10.39586
695.50 10.26337
695.60 10.08064
695.70 9.920672
695.80 9.831905
695.90 9.856416
696.00 10.01992
696.10 10.28533
696.20 10.56471
696.30 10.73172
696.40 10.73242
696.50 10.56207
696.60 10.25581
696.70 9.948738
696.80 9.799864
696.90 9.889413
697.00 10.17099
697.10 10.5126
697.20 10.79177
697.30 10.8822
697.40 10.68944
697.50 10.2595
697.60 9.730976
697.70 9.216332
697.80 8.769375
697.90 8.473799
698.00 8.404022
698.10 8.528327
698.20 8.756633
698.30 9.01514
698.40 9.299374
698.50 9.628521
698.60 10.0103
698.70 10.47119
698.80 11.02472
698.90 11.61531
699.00 12.16391
699.10 12.63362
699.20 12.98884
699.30 13.18558
699.40 13.19532
699.50 12.98624
699.60 12.57022
699.70 11.96282
699.80 11.16586
699.90 10.23918
700.00 9.268623
700.10 8.380863
700.20 7.69211
700.30 7.22465
700.40 6.960557
700.50 6.915153
700.60 7.119177
700.70 7.542145
700.80 8.109226
700.90 8.750531
701.00 9.346694
701.10 9.814514
701.20 10.17043
701.30 10.44335
701.40 10.63835
701.50 10.71003
701.60 10.64676
701.70 10.54002
701.80 10.50885
701.90 10.56996
702.00 10.68156
702.10 10.82701
702.20 10.96164
702.30 11.00965
702.40 10.92931
702.50 10.73312
702.60 10.45969
702.70 10.14814
702.80 9.855853
702.90 9.704902
703.00 9.828555
703.10 10.24303
703.20 10.80978
703.30 11.32738
703.40 11.65479
703.50 11.74937
703.60 11.64178
703.70 11.40752
703.80 11.12239
703.90 10.84027
704.00 10.58191
704.10 10.348
704.20 10.14255
704.30 9.917298
704.40 9.587745
704.50 9.128293
704.60 8.624574
704.70 8.282339
704.80 8.279293
704.90 8.667233
705.00 9.409699
705.10 10.41072
705.20 11.53036
705.30 12.60219
705.40 13.49428
705.50 14.1277
705.60 14.47378
705.70 14.57734
705.80 14.50668
705.90 14.34396
706.00 14.16023
706.10 13.94307
706.20 13.65528
706.30 13.25957
706.40 12.69396
706.50 11.9396
706.60 11.09795
706.70 10.33829
706.80 9.793147
706.90 9.549985
707.00 9.635345
707.10 10.00506
707.20 10.58173
707.30 11.27356
707.40 11.97035
707.50 12.53322
707.60 12.84953
707.70 12.90435
707.80 12.74644
707.90 12.44091
708.00 12.06861
708.10 11.69222
708.20 11.35615
708.30 11.11721
708.40 11.02515
708.50 11.11312
708.60 11.40717
708.70 11.87476
708.80 12.41156
708.90 12.93015
709.00 13.38213
709.10 13.73622
709.20 14.00345
709.30 14.17156
709.40 14.14411
709.50 13.85273
709.60 13.3354
709.70 12.69468
709.80 12.07624
709.90 11.6139
710.00 11.36981
710.10 11.36689
710.20 11.61979
710.30 12.12229
710.40 12.79669
710.50 13.48788
710.60 14.04515
710.70 14.39479
710.80 14.5504
710.90 14.55682
711.00 14.44209
711.10 14.22706
711.20 13.9513
711.30 13.67043
711.40 13.48202
711.50 13.48821
711.60 13.70399
711.70 14.05848
711.80 14.45366
711.90 14.82522
712.00 15.11252
712.10 15.24922
712.20 15.18244
712.30 14.90631
712.40 14.49676
712.50 14.05428
712.60 13.66231
712.70 13.40372
712.80 13.31117
712.90 13.34542
713.00 13.50269
713.10 13.78795
713.20 14.13474
713.30 14.42969
713.40 14.60348
713.50 14.65874
713.60 14.62394
713.70 14.51718
713.80 14.33128
713.90 14.08671
714.00 13.82531
714.10 13.56707
714.20 13.32383
714.30 13.10414
714.40 12.86587
714.50 12.56545
714.60 12.2423
714.70 11.9681
714.80 11.78737
714.90 11.72921
715.00 11.8053
715.10 12.01237
715.20 12.3471
715.30 12.76703
715.40 13.19033
715.50 13.53979
715.60 13.72111
715.70 13.67589
715.80 13.45654
715.90 13.16908
716.00 12.91815
716.10 12.77034
716.20 12.73129
716.30 12.74813
716.40 12.76808
716.50 12.77518
716.60 12.75976
716.70 12.70396
716.80 12.60324
716.90 12.47481
717.00 12.37704
717.10 12.38715
717.20 12.57067
717.30 12.95277
717.40 13.48589
717.50 14.08495
717.60 14.65146
717.70 15.09921
717.80 15.36654
717.90 15.41252
718.00 15.23115
718.10 14.86533
718.20 14.39271
718.30 13.91368
718.40 13.56338
718.50 13.45311
718.60 13.58707
718.70 13.91392
718.80 14.38807
718.90 14.96659
719.00 15.59477
719.10 16.22248
719.20 16.7822
719.30 17.18
719.40 17.33768
719.50 17.23909
719.60 16.92085
719.70 16.44103
719.80 15.84752
719.90 15.18821
720.00 14.5554
720.10 14.03012
720.20 13.64371
720.30 13.40756
720.40 13.35979
720.50 13.49265
720.60 13.75889
720.70 14.12595
720.80 14.535
720.90 14.88739
721.00 15.08734
721.10 15.09578
721.20 14.9431
721.30 14.72441
721.40 14.55357
721.50 14.49824
721.60 14.56728
721.70 14.71794
721.80 14.85921
721.90 14.92924
722.00 14.90634
722.10 14.74386
722.20 14.40447
722.30 13.96042
722.40 13.57178
722.50 13.34752
722.60 13.30822
722.70 13.40603
722.80 13.59425
722.90 13.85379
723.00 14.09714
723.10 14.24425
723.20 14.3033
723.30 14.30268
723.40 14.20196
723.50 13.92013
723.60 13.46162
723.70 12.87511
723.80 12.21747
723.90 11.63604
724.00 11.2437
724.10 11.08396
724.20 11.1628
724.30 11.49278
724.40 12.14033
724.50 13.04524
724.60 13.99461
724.70 14.74158
724.80 15.13178
724.90 15.15319
725.00 14.8693
725.10 14.38282
725.20 13.78716
725.30 13.12086
725.40 12.53015
725.50 12.22068
725.60 12.27167
725.70 12.60619
725.80 13.07499
725.90 13.59107
726.00 14.1117
726.10 14.60407
726.20 15.06927
726.30 15.47615
726.40 15.70668
726.50 15.65352
726.60 15.31376
726.70 14.78996
726.80 14.1754
726.90 13.53728
727.00 12.96859
727.10 12.5479
727.20 12.29543
727.30 12.23025
727.40 12.41136
727.50 12.75094
727.60 13.03492
727.70 13.15919
727.80 13.14615
727.90 13.04441
728.00 12.81912
728.10 12.42624
728.20 11.9379
728.30 11.47034
728.40 11.11768
728.50 11.04097
728.60 11.38302
728.70 12.09603
728.80 12.93413
728.90 13.69091
729.00 14.32348
729.10 14.76117
729.20 14.86638
729.30 14.5746
729.40 14.05399
729.50 13.55827
729.60 13.26459
729.70 13.27641
729.80 13.53224
729.90 13.78224
730.00 13.84871
730.10 13.70061
730.20 13.33272
730.30 12.83005
730.40 12.28542
730.50 11.78112
730.60 11.4507
730.70 11.39064
730.80 11.55899
730.90 11.86062
731.00 12.13525
731.10 12.16543
731.20 11.75608
731.30 10.86453
731.40 9.735514
731.50 8.748314
731.60 8.217602
731.70 8.284842
731.80 8.971462
731.90 10.17396
732.00 11.68997
732.10 13.24983
732.20 14.52979
732.30 15.19737
732.40 15.03909
732.50 14.0473
732.60 12.51227
732.70 10.89914
732.80 9.48328
732.90 8.361466
733.00 7.630083
733.10 7.372868
733.20 7.57091
733.30 8.192192
733.40 9.076902
733.50 9.874315
733.60 10.28298
733.70 10.20328
733.80 9.794046
733.90 9.405223
734.00 9.351657
734.10 9.697051
734.20 10.3359
734.30 11.16312
734.40 12.06099
734.50 12.85405
734.60 13.31009
734.70 13.25459
734.80 12.74174
734.90 12.03177
735.00 11.44796
735.10 11.21813
735.20 11.31921
735.30 11.54699
735.40 11.69549
735.50 11.68672
735.60 11.55201
735.70 11.31266
735.80 10.98259
735.90 10.63683
736.00 10.41314
736.10 10.36899
736.20 10.43397
736.30 10.5059
736.40 10.57775
736.50 10.77859
736.60 11.26698
736.70 12.12015
736.80 13.31515
736.90 14.69464
737.00 16.00411
737.10 17.00277
737.20 17.4602
737.30 17.20508
737.40 16.23599
737.50 14.74976
737.60 13.08184
737.70 11.62242
737.80 10.625
737.90 10.11728
738.00 10.01583
738.10 10.20209
738.20 10.57274
738.30 11.07906
738.40 11.64726
738.50 12.1589
738.60 12.52928
738.70 12.65974
738.80 12.45621
738.90 11.92518
739.00 11.25948
739.10 10.6995
739.20 10.33737
739.30 10.14556
739.40 10.09068
739.50 10.23084
739.60 10.56658
739.70 10.95566
739.80 11.18936
739.90 11.20754
740.00 11.15536
740.10 11.22454
740.20 11.49135
740.30 11.86049
740.40 12.10335
740.50 11.99999
740.60 11.51702
740.70 10.80985
740.80 10.0642
740.90 9.3043
741.00 8.560527
741.10 7.965422
741.20 7.66532
741.30 7.643871
741.40 7.728127
741.50 7.791244
741.60 7.821468
741.70 7.85828
741.80 7.908888
741.90 7.994946
742.00 8.136419
742.10 8.283318
742.20 8.367257
742.30 8.385119
742.40 8.373946
742.50 8.404691
742.60 8.550303
742.70 8.832637
742.80 9.227683
742.90 9.671293
743.00 10.07498
743.10 10.36434
743.20 10.51062
743.30 10.48987
743.40 10.30623
743.50 10.04194
743.60 9.800602
743.70 9.658761
743.80 9.629203
743.90 9.658512
744.00 9.694063
744.10 9.688502
744.20 9.594736
744.30 9.397215
744.40 9.099711
744.50 8.735018
744.60 8.357389
744.70 8.03041
744.80 7.765051
744.90 7.534335
745.00 7.368422
745.10 7.297259
745.20 7.281411
745.30 7.294421
745.40 7.359019
745.50 7.507954
745.60 7.768645
745.70 8.114704
745.80 8.479798
745.90 8.795212
746.00 8.971921
746.10 8.961002
746.20 8.827921
746.30 8.643753
746.40 8.421087
746.50 8.14428
746.60 7.825826
746.70 7.505711
746.80 7.224848
746.90 7.043545
747.00 6.982696
747.10 7.02997
747.20 7.20795
747.30 7.556197
747.40 8.052889
747.50 8.57505
747.60 8.906519
747.70 8.885109
747.80 8.482282
747.90 7.791037
748.00 7.022586
748.10 6.460966
748.20 6.290203
748.30 6.474948
748.40 6.924105
748.50 7.563221
748.60 8.238651
748.70 8.763313
748.80 9.04217
748.90 9.033642
749.00 8.747158
749.10 8.258631
749.20 7.666322
749.30 7.107855
749.40 6.714071
749.50 6.47782
749.60 6.346288
749.70 6.329677
749.80 6.38295
749.90 6.421719
750.00 6.430034
750.10 6.396181
750.20 6.292579
750.30 6.151897
750.40 6.065859
750.50 6.107882
750.60 6.288063
750.70 6.542286
750.80 6.761073
750.90 6.864581
751.00 6.809065
751.10 6.600818
751.20 6.306718
751.30 5.993003
751.40 5.668251
751.50 5.298645
751.60 4.848961
751.70 4.313958
751.80 3.709132
751.90 3.050616
752.00 2.350489
752.10 1.576877
752.20 0.7605114
752.30 0.0600117
752.40 0
752.50 0
752.60 0
752.70 0.3317144
752.80 0.9801196
752.90 1.747584
753.00 2.553863
753.10 3.273871
753.20 3.802532
753.30 4.101922
753.40 4.218977
753.50 4.329656
753.60 4.595424
753.70 5.022649
753.80 5.530736
753.90 6.050053
754.00 6.575853
754.10 7.093379
754.20 7.527104
754.30 7.786603
754.40 7.846451
754.50 7.780052
754.60 7.666211
754.70 7.524357
754.80 7.334425
754.90 7.062345
755.00 6.66853
755.10 6.145756
755.20 5.546085
755.30 4.972698
755.40 4.503769
755.50 4.190294
755.60 4.078877
755.70 4.147312
755.80 4.318986
755.90 4.518541
756.00 4.703577
756.10 4.85886
756.20 5.021902
756.30 5.236453
756.40 5.464111
756.50 5.619264
756.60 5.633249
756.70 5.465685
756.80 5.155881
756.90 4.836484
757.00 4.616316
757.10 4.577249
757.20 4.771445
757.30 5.189858
757.40 5.772686
757.50 6.397684
757.60 6.902817
757.70 7.15744
757.80 7.162782
757.90 6.993712
758.00 6.713988
758.10 6.377133
758.20 6.021706
758.30 5.653234
758.40 5.29759
758.50 5.01089
758.60 4.830696
758.70 4.758235
758.80 4.796373
758.90 4.965534
759.00 5.238167
759.10 5.549182
759.20 5.822673
759.30 5.961993
759.40 5.92412
759.50 5.800566
759.60 5.741272
759.70 5.749071
759.80 5.729242
759.90 5.632612
760.00 5.514286
760.10 5.436843
760.20 5.389056
760.30 5.398666
760.40 5.500197
760.50 5.647611
760.60 5.672181
760.70 5.466159
760.80 5.044999
760.90 4.45121
761.00 3.766373
761.10 3.093337
761.20 2.540165
761.30 2.160833
761.40 1.924927
761.50 1.855125
761.60 2.009609
761.70 2.365007
761.80 2.811815
761.90 3.224514
762.00 3.550653
762.10 3.740245
762.20 3.718869
762.30 3.410531
762.40 2.762256
762.50 2.002577
762.60 1.48308
762.70 1.438068
762.80 1.905313
762.90 2.610538
763.00 3.170559
763.10 3.292863
763.20 2.918835
763.30 2.176839
763.40 1.230154
763.50 0.2513949
763.60 0
763.70 0
763.80 0
763.90 0
764.00 0
764.10 0
764.20 0
764.30 0
764.40 0
764.50 0
764.60 0
764.70 0
764.80 0
764.90 0
765.00 0
765.10 0
765.20 0
765.30 0
765.40 0
765.50 0
765.60 0.01671671
765.70 0.2033554
765.80 0.3812884
765.90 0.5850625
766.00 0.9145141
766.10 1.44687
766.20 2.120485
766.30 2.778006
766.40 3.295779
766.50 3.553673
766.60 3.394959
766.70 2.773911
766.80 1.824116
766.90 0.7495041
767.00 0
767.10 0
767.20 0
767.30 0
767.40 0
767.50 0
767.60 0
767.70 0
767.80 0
767.90 0
768.00 0
768.10 0.1650301
768.20 0.5448916
768.30 0.902479
768.40 1.167565
768.50 1.320567
768.60 1.370708
768.70 1.309017
768.80 1.112663
768.90 0.7883668
769.00 0.4905877
769.10 0.4830228
769.20 0.8612846
769.30 1.524624
769.40 2.274526
769.50 2.90171
769.60 3.304433
769.70 3.434391
769.80 3.21846
769.90 2.634307
770.00 1.764919
770.10 0.7902993
770.20 0
770.30 0
770.40 0
770.50 0
770.60 0
770.70 0
770.80 0
770.90 0
771.00 0
771.10 0
771.20 0
771.30 0
771.40 0
771.50 1.004758
771.60 2.634234
771.70 4.28776
771.80 5.712496
771.90 6.698166
772.00 7.130552
772.10 6.977834
772.20 6.323679
772.30 5.302848
772.40 4.033047
772.50 2.685828
772.60 1.406333
772.70 0.3078963
772.80 0
772.90 0
773.00 0
773.10 0
773.20 0.8423157
773.30 1.85214
773.40 2.712952
773.50 3.222052
773.60 3.281445
773.70 2.948973
773.80 2.372878
773.90 1.748037
774.00 1.265519
774.10 1.054105
774.20 1.103645
774.30 1.301319
774.40 1.487965
774.50 1.446297
774.60 0.977235
774.70 0
774.80 0
774.90 0
775.00 0
775.10 0
775.20 0
775.30 0
775.40 0
775.50 0
775.60 1.172112
775.70 3.109775
775.80 4.407413
775.90 5.07296
776.00 5.161101
776.10 4.910261
776.20 4.707019
776.30 4.581556
776.40 4.264982
776.50 3.590006
776.60 2.581067
776.70 1.466429
776.80 0.5647997
776.90 0.1288185
777.00 0.2811094
777.10 0.9864367
777.20 2.012519
777.30 3.075337
777.40 4.029702
777.50 4.791436
777.60 5.285908
777.70 5.461951
777.80 5.283453
777.90 4.819954
778.00 4.216035
778.10 3.575028
778.20 2.98734
778.30 2.580908
778.40 2.472063
778.50 2.654662
778.60 3.014019
778.70 3.374125
778.80 3.593636
778.90 3.633919
779.00 3.336131
779.10 2.500729
779.20 1.206976
779.30 0
779.40 0
779.50 0
779.60 0
779.70 0
779.80 0
779.90 0
780.00 0
780.10 0
780.20 0
780.30 1.462267
780.40 2.787379
780.50 3.987287
780.60 5.014397
780.70 5.767346
780.80 6.280488
780.90 6.689408
781.00 7.031886
781.10 7.296825
781.20 7.529672
781.30 7.786637
781.40 8.039776
781.50 8.157188
781.60 8.03667
781.70 7.677036
781.80 7.189276
781.90 6.845201
782.00 6.854237
782.10 7.157687
782.20 7.646333
782.30 8.309478
782.40 9.109227
782.50 9.895395
782.60 10.49451
782.70 10.78779
782.80 10.74589
782.90 10.46937
783.00 10.10638
783.10 9.757315
783.20 9.480532
783.30 9.243056
783.40 9.022337
783.50 8.946027
783.60 9.098499
783.70 9.385583
783.80 9.678104
783.90 9.864099
784.00 9.833291
784.10 9.590465
784.20 9.221143
784.30 8.834911
784.40 8.571895
784.50 8.541857
784.60 8.796251
784.70 9.249697
784.80 9.827073
784.90 10.55845
785.00 11.57589
785.10 12.97737
785.20 14.62702
785.30 16.26835
785.40 17.57384
785.50 18.23377
785.60 18.10814
785.70 17.2377
785.80 15.77865
785.90 14.0079
786.00 12.2892
786.10 11.03919
786.20 10.49147
786.30 10.57901
786.40 10.95673
786.50 11.19578
786.60 11.10737
786.70 10.75596
786.80 10.45607
786.90 10.50614
787.00 11.00999
787.10 11.93218
787.20 13.09124
787.30 14.28102
787.40 15.28908
787.50 15.826
787.60 15.73303
787.70 15.15905
787.80 14.41159
787.90 13.8963
788.00 13.93326
788.10 14.60543
788.20 15.7299
788.30 16.91611
788.40 17.79792
788.50 18.13348
788.60 17.85337
788.70 16.97995
788.80 15.60208
788.90 14.01567
789.00 12.62732
789.10 11.65605
789.20 11.15328
789.30 11.04187
789.40 11.19757
789.50 11.53693
789.60 11.99652
789.70 12.6009
789.80 13.3827
789.90 14.2406
790.00 14.99472
790.10 15.49707
790.20 15.71671
790.30 15.72444
790.40 15.56073
790.50 15.25312
790.60 14.86298
790.70 14.39785
790.80 13.77777
790.90 12.94931
791.00 11.71813
791.10 9.955895
791.20 7.88973
791.30 5.893355
791.40 4.458809
791.50 4.009019
791.60 4.697584
791.70 6.371168
791.80 8.652397
791.90 11.1747
792.00 13.54618
792.10 15.3499
792.20 16.35228
792.30 16.54468
792.40 16.31413
792.50 16.09771
792.60 15.92783
792.70 15.75931
792.80 15.60438
792.90 15.54514
793.00 15.75513
793.10 16.35141
793.20 17.37496
793.30 18.70633
793.40 20.11304
793.50 21.44674
793.60 22.58448
793.70 23.33924
793.80 23.47516
793.90 22.87427
794.00 21.67363
794.10 20.12798
794.20 18.35961
794.30 16.38934
794.40 14.2023
794.50 11.87337
794.60 9.671805
794.70 7.919456
794.80 6.827083
794.90 6.415408
795.00 6.598655
795.10 7.259126
795.20 8.255791
795.30 9.451729
795.40 10.79619
795.50 12.25749
795.60 13.78421
795.70 15.32486
795.80 16.78361
795.90 18.06603
796.00 19.02893
796.10 19.58759
796.20 19.92094
796.30 20.32269
796.40 20.95619
796.50 21.77931
796.60 22.66975
796.70 23.49167
796.80 24.06555
796.90 24.26724
797.00 24.13901
797.10 23.81834
797.20 23.49915
797.30 23.39584
797.40 23.58637
797.50 23.97253
797.60 24.3518
797.70 24.3814
797.80 23.81967
797.90 22.74165
798.00 21.4029
798.10 20.1026
798.20 19.11343
798.30 18.67262
798.40 18.87478
798.50 19.6443
798.60 20.84802
798.70 22.27258
798.80 23.58591
798.90 24.38856
799.00 24.35224
799.10 23.53463
799.20 22.31941
799.30 21.14816
799.40 20.31838
799.50 19.93049
799.60 20.00801
799.70 20.48054
799.80 21.20476
799.90 22.0427
800.00 22.84133
800.10 23.45855
800.20 23.90879
800.30 24.32889
800.40 24.81018
800.50 25.29404
800.60 25.55827
800.70 25.3719
800.80 24.75134
800.90 23.95072
801.00 23.22867
801.10 22.62155
801.20 22.19789
801.30 22.10266
801.40 22.28066
801.50 22.57381
801.60 22.80886
801.70 22.8992
801.80 22.86262
801.90 22.8412
802.00 23.06339
802.10 23.70562
802.20 24.80637
802.30 26.24083
802.40 27.78003
802.50 29.30666
802.60 30.57054
802.70 31.20101
802.80 31.10987
802.90 30.40144
803.00 29.30404
803.10 28.10911
803.20 27.08442
803.30 26.33306
803.40 25.88032
803.50 25.76546
803.60 25.93639
803.70 26.31396
803.80 26.82714
803.90 27.38522
804.00 27.95132
804.10 28.54191
804.20 29.18885
804.30 29.93006
804.40 30.69259
804.50 31.29901
804.60 31.61345
804.70 31.65656
804.80 31.4819
804.90 31.09614
805.00 30.56157
805.10 29.99424
805.20 29.54085
805.30 29.34645
805.40 29.51179
805.50 30.02939
805.60 30.73988
805.70 31.54104
805.80 32.43637
805.90 33.47135
806.00 34.64041
806.10 35.78383
806.20 36.74731
806.30 37.46501
806.40 37.88464
806.50 37.92355
806.60 37.5903
806.70 37.00834
806.80 36.30539
806.90 35.59169
807.00 34.99536
807.10 34.53323
807.20 34.20672
807.30 34.05356
807.40 34.12766
807.50 34.51759
807.60 35.19971
807.70 36.03575
807.80 36.86881
807.90 37.60523
808.00 38.15973
808.10 38.46623
808.20 38.53415
808.30 38.44017
808.40 38.30673
808.50 38.27365
808.60 38.40285
808.70 38.61944
808.80 38.8142
808.90 38.94009
809.00 38.98186
809.10 38.91274
809.20 38.73523
809.30 38.47203
809.40 38.12768
809.50 37.73371
809.60 37.42023
809.70 37.3555
809.80 37.5939
809.90 38.03014
810.00 38.57781
810.10 39.22744
810.20 39.84842
810.30 40.26478
810.40 40.42955
810.50 40.39945
810.60 40.24685
810.70 40.05397
810.80 39.92708
810.90 39.89145
811.00 39.85795
811.10 39.74868
811.20 39.55605
811.30 39.30861
811.40 39.00247
811.50 38.66564
811.60 38.44862
811.70 38.51252
811.80 38.90276
811.90 39.56694
812.00 40.45824
812.10 41.4994
812.20 42.553
812.30 43.51164
812.40 44.30653
812.50 44.86968
812.60 45.19399
812.70 45.359
812.80 45.42178
812.90 45.35302
813.00 45.12321
813.10 44.72139
813.20 44.15078
813.30 43.49407
813.40 42.87448
813.50 42.35695
813.60 41.94531
813.70 41.66356
813.80 41.58185
813.90 41.76226
814.00 42.14701
814.10 42.57847
814.20 42.96404
814.30 43.34446
814.40 43.79437
814.50 44.37134
814.60 45.05384
814.70 45.66864
814.80 45.99086
814.90 45.92288
815.00 45.54333
815.10 44.99734
815.20 44.42392
815.30 43.91439
815.40 43.56596
815.50 43.50037
815.60 43.71571
815.70 44.09016
815.80 44.5303
815.90 44.96354
816.00 45.40475
816.10 45.98713
816.20 46.82305
816.30 47.91564
816.40 49.13388
816.50 50.29523
816.60 51.24675
816.70 51.86758
816.80 52.07761
816.90 51.90578
817.00 51.51225
817.10 51.09704
817.20 50.77946
817.30 50.56216
817.40 50.41942
817.50 50.33179
817.60 50.25744
817.70 50.18569
817.80 50.14506
817.90 50.10015
818.00 49.97001
818.10 49.73291
818.20 49.42548
818.30 49.049
818.40 48.62208
818.50 48.22816
818.60 47.94845
818.70 47.8649
818.80 47.96118
818.90 48.09436
819.00 48.13027
819.10 47.97092
819.20 47.56117
819.30 46.93544
819.40 46.19959
819.50 45.55067
819.60 45.25464
819.70 45.56244
819.80 46.58696
819.90 48.21491
820.00 50.24546
820.10 52.4312
820.20 54.47118
820.30 56.12311
820.40 57.20937
820.50 57.62599
820.60 57.34578
820.70 56.4377
820.80 55.12168
820.90 53.7203
821.00 52.51984
821.10 51.6785
821.20 51.22505
821.30 51.0524
821.40 50.97621
821.50 50.88567
821.60 50.8002
821.70 50.78437
821.80 50.85264
821.90 50.97499
822.00 51.16997
822.10 51.53444
822.20 52.10478
822.30 52.75305
822.40 53.24404
822.50 53.40827
822.60 53.29423
822.70 53.08599
822.80 52.92885
822.90 52.86062
823.00 52.88897
823.10 53.01707
823.20 53.27812
823.30 53.76666
823.40 54.52591
823.50 55.46195
823.60 56.40077
823.70 57.21136
823.80 57.90284
823.90 58.56974
824.00 59.23254
824.10 59.91145
824.20 60.64874
824.30 61.40297
824.40 62.05935
824.50 62.55998
824.60 62.8941
824.70 62.99704
824.80 62.80509
824.90 62.34581
825.00 61.77836
825.10 61.30695
825.20 61.07015
825.30 61.09208
825.40 61.31499
825.50 61.6556
825.60 62.02103
825.70 62.40867
825.80 62.86487
825.90 63.34568
826.00 63.77248
826.10 64.10847
826.20 64.38478
826.30 64.68566
826.40 65.05702
826.50 65.47944
826.60 65.85897
826.70 66.01207
826.80 65.74056
826.90 64.98078
827.00 63.89049
827.10 62.75351
827.20 61.84729
827.30 61.36599
827.40 61.34852
827.50 61.71675
827.60 62.37139
827.70 63.17104
827.80 63.94232
827.90 64.57054
828.00 64.96063
828.10 65.01593
828.20 64.7687
828.30 64.34711
828.40 63.79811
828.50 63.05921
828.60 62.24796
828.70 61.77482
828.80 61.95291
828.90 62.74927
829.00 63.97654
829.10 65.40426
829.20 66.62489
829.30 67.17225
829.40 66.97137
829.50 66.36385
829.60 65.83779
829.70 65.71977
829.80 66.07104
829.90 66.89488
830.00 67.99936
830.10 68.89191
830.20 69.19963
830.30 68.90502
830.40 68.13422
830.50 67.07039
830.60 66.07823
830.70 65.58603
830.80 65.77534
830.90 66.57952
831.00 67.64717
831.10 68.57804
831.20 69.22453
831.30 69.53412
831.40 69.46934
831.50 69.07883
831.60 68.53104
831.70 68.05765
831.80 67.85084
831.90 68.06261
832.00 68.79083
832.10 69.93092
832.20 71.22025
832.30 72.37676
832.40 73.23455
832.50 73.74701
832.60 73.88062
832.70 73.65765
832.80 73.16128
832.90 72.51633
833.00 71.85685
833.10 71.24859
833.20 70.72909
833.30 70.32339
833.40 70.02012
833.50 69.87914
833.60 69.84927
833.70 69.84475
833.80 69.92408
833.90 70.12971
834.00 70.72097
834.10 71.89543
834.20 73.74115
834.30 76.15794
834.40 78.58096
834.50 80.40711
834.60 81.24116
834.70 80.97867
834.80 79.8171
834.90 78.0735
835.00 76.2166
835.10 74.73159
835.20 73.98643
835.30 74.19237
835.40 74.99853
835.50 75.94087
835.60 76.5252
835.70 76.29585
835.80 75.28334
835.90 73.79523
836.00 72.18757
836.10 70.78645
836.20 69.82713
836.30 69.40957
836.40 69.52047
836.50 70.13452
836.60 71.12127
836.70 72.28266
836.80 73.52619
836.90 74.65605
837.00 75.48117
837.10 76.03727
837.20 76.4602
837.30 76.85988
837.40 77.29647
837.50 77.72159
837.60 78.11854
837.70 78.6306
837.80 79.4842
837.90 80.72499
838.00 82.14792
838.10 83.40467
838.20 84.13939
838.30 84.21834
838.40 83.6651
838.50 82.43881
838.60 80.61366
838.70 78.49301
838.80 76.51459
838.90 75.06907
839.00 74.23638
839.10 73.9446
839.20 74.10305
839.30 74.70368
839.40 75.76553
839.50 77.04309
839.60 78.37959
839.70 79.79393
839.80 81.17124
839.90 82.44286
840.00 83.57348
840.10 84.40135
840.20 84.61182
840.30 84.05815
840.40 83.06591
840.50 82.04084
840.60 81.19483
840.70 80.54663
840.80 80.01933
840.90 79.82592
841.00 80.1659
841.10 80.97357
841.20 82.19311
841.30 83.68446
841.40 85.18382
841.50 86.53585
841.60 87.7216
841.70 88.71816
841.80 89.37619
841.90 89.59033
842.00 89.48519
842.10 89.1806
842.20 88.7042
842.30 88.16315
842.40 87.52231
842.50 86.67873
842.60 85.81147
842.70 85.32418
842.80 85.592
842.90 86.66744
843.00 88.36256
843.10 90.3232
843.20 92.05504
843.30 93.0338
843.40 92.83655
843.50 91.4157
843.60 89.14612
843.70 86.50546
843.80 84.11241
843.90 82.55532
844.00 82.05216
844.10 82.52648
844.20 83.67867
844.30 85.12005
844.40 86.40531
844.50 87.0605
844.60 86.86646
844.70 85.94213
844.80 84.54512
844.90 83.03285
845.00 81.8687
845.10 81.47788
845.20 82.01894
845.30 83.33449
845.40 84.98488
845.50 86.36984
845.60 87.04921
845.70 86.87251
845.80 86.00489
845.90 84.91645
846.00 84.19327
846.10 84.29989
846.20 85.51878
846.30 87.99466
846.40 91.37811
846.50 94.90525
846.60 97.89064
846.70 99.83524
846.80 100.603
846.90 100.3967
847.00 99.38138
847.10 97.68708
847.20 95.62848
847.30 93.52428
847.40 91.47735
847.50 89.51755
847.60 87.6878
847.70 85.90556
847.80 84.27131
847.90 83.10754
848.00 82.66685
848.10 83.08575
848.20 84.26221
848.30 85.86624
848.40 87.57628
848.50 89.11505
848.60 90.11066
848.70 90.45383
848.80 90.39235
848.90 90.27975
849.00 90.466
849.10 91.08962
849.20 92.11131
849.30 93.34424
849.40 94.40868
849.50 94.88478
849.60 94.4968
849.70 93.26083
849.80 91.53751
849.90 89.91651
850.00 89.01238
850.10 88.99682
850.20 89.48936
850.30 90.09514
850.40 90.53856
850.50 90.62513
850.60 90.29261
850.70 89.53966
850.80 88.4103
850.90 87.21014
851.00 86.38509
851.10 86.15264
851.20 86.40107
851.30 86.73276
851.40 86.60399
851.50 85.65528
851.60 83.79578
851.70 80.77804
851.80 76.35474
851.90 70.71494
852.00 64.37948
852.10 58.13945
852.20 53.05505
852.30 50.01971
852.40 49.5179
852.50 51.67655
852.60 56.24482
852.70 62.60525
852.80 69.85995
852.90 76.92248
853.00 82.87872
853.10 87.35016
853.20 90.37355
853.30 92.15775
853.40 93.07945
853.50 93.64874
853.60 94.20874
853.70 94.89243
853.80 95.65937
853.90 96.32954
854.00 96.67471
854.10 96.55409
854.20 96.13621
854.30 95.81531
854.40 95.95079
854.50 96.7302
854.60 98.12251
854.70 99.89857
854.80 101.6855
854.90 103.0193
855.00 103.6002
855.10 103.4198
855.20 102.7181
855.30 101.9034
855.40 101.4283
855.50 101.6295
855.60 102.5521
855.70 104.0425
855.80 105.8568
855.90 107.6534
856.00 109.0656
856.10 109.801
856.20 109.7408
856.30 108.9751
856.40 107.767
856.50 106.4507
856.60 105.292
856.70 104.4735
856.80 104.0983
856.90 104.1837
857.00 104.6728
857.10 105.403
857.20 106.129
857.30 106.6951
857.40 107.0553
857.50 107.2504
857.60 107.4028
857.70 107.6362
857.80 108.0094
857.90 108.3898
858.00 108.6663
858.10 108.8335
858.20 108.8379
858.30 108.683
858.40 108.4853
858.50 108.3851
858.60 108.4683
858.70 108.6692
858.80 108.8194
858.90 108.7837
859.00 108.4731
859.10 107.8733
859.20 107.0935
859.30 106.4327
859.40 106.1543
859.50 106.3525
859.60 107.0734
859.70 108.2311
859.80 109.5858
859.90 110.8685
860.00 111.8472
860.10 112.3625
860.20 112.3572
860.30 111.9483
860.40 111.5073
860.50 111.35
860.60 111.3981
860.70 111.3456
860.80 110.8035
860.90 109.4591
861.00 107.3163
861.10 104.5454
861.20 101.1702
861.30 97.18274
861.40 92.73421
861.50 88.16601
861.60 84.00482
861.70 80.7223
861.80 78.43516
861.90 77.1815
862.00 77.0949
862.10 77.99616
862.20 79.44579
862.30 80.95552
862.40 82.13138
862.50 82.72389
862.60 82.5834
862.70 81.73897
862.80 80.34855
862.90 78.69139
863.00 77.16353
863.10 76.09787
863.20 75.62596
863.30 75.65279
863.40 76.01704
863.50 76.76416
863.60 78.08182
863.70 79.94898
863.80 81.86296
863.90 83.19587
864.00 83.67457
864.10 83.33316
864.20 82.39589
864.30 81.10195
864.40 79.6145
864.50 78.17004
864.60 77.08286
864.70 76.59874
864.80 76.7912
864.90 77.57399
865.00 78.72994
865.10 79.99155
865.20 81.17771
865.30 82.22667
865.40 83.19437
865.50 84.13121
865.60 85.06164
865.70 86.08218
865.80 87.32505
865.90 88.78016
866.00 90.34975
866.10 91.89487
866.20 93.16418
866.30 93.93734
866.40 94.13746
866.50 93.71668
866.60 92.58692
866.70 90.85598
866.80 88.79514
866.90 86.76945
867.00 85.19433
867.10 84.32549
867.20 84.17977
867.30 84.76393
867.40 86.08705
867.50 88.01719
867.60 90.37688
867.70 92.83711
867.80 94.92043
867.90 96.32302
868.00 97.01912
868.10 97.0601
868.20 96.60818
868.30 96.00322
868.40 95.6814
868.50 95.96123
868.60 96.8668
868.70 98.07437
868.80 99.07307
868.90 99.51405
869.00 99.26857
869.10 98.35083
869.20 96.88987
869.30 95.14507
869.40 93.47087
869.50 92.17394
869.60 91.41435
869.70 91.15503
869.80 91.19955
869.90 91.41068
870.00 91.83469
870.10 92.55026
870.20 93.50311
870.30 94.47277
870.40 95.19364
870.50 95.57844
870.60 95.75727
870.70 95.82316
870.80 95.74996
870.90 95.50539
871.00 95.09588
871.10 94.55605
871.20 93.87536
871.30 93.04481
871.40 92.09347
871.50 91.09749
871.60 90.19348
871.70 89.51307
871.80 89.12518
871.90 88.99846
872.00 88.99805
872.10 89.03568
872.20 89.15682
872.30 89.44488
872.40 89.94246
872.50 90.65055
872.60 91.58775
872.70 92.77198
872.80 94.20242
872.90 95.79004
873.00 97.33715
873.10 98.66361
873.20 99.68837
873.30 100.361
873.40 100.6173
873.50 100.4848
873.60 100.1346
873.70 99.80948
873.80 99.72617
873.90 100.0023
874.00 100.6015
874.10 101.3303
874.20 101.9216
874.30 102.2435
874.40 102.3617
874.50 102.3532
874.60 102.1838
874.70 101.7965
874.80 101.1488
874.90 100.2747
875.00 99.2666
875.10 98.2445
875.20 97.386
875.30 96.96052
875.40 97.36216
875.50 98.80134
875.60 101.2061
875.70 104.3283
875.80 107.704
875.90 110.6711
876.00 112.3896
876.10 112.091
876.20 109.5427
876.30 105.068
876.40 99.38082
876.50 93.40529
876.60 88.05539
876.70 84.00704
876.80 81.52482
876.90 80.61575
877.00 81.32005
877.10 83.50673
877.20 86.6094
877.30 89.91984
877.40 93.14736
877.50 96.39771
877.60 99.87085
877.70 103.538
877.80 106.7417
877.90 108.7295
878.00 109.2489
878.10 108.5019
878.20 106.9019
878.30 104.9808
878.40 103.0212
878.50 101.0848
878.60 99.4617
878.70 98.66333
878.80 99.13139
878.90 100.9168
879.00 103.4881
879.10 106.1691
879.20 108.7907
879.30 111.3944
879.40 113.7703
879.50 115.5192
879.60 116.3107
879.70 116.0333
879.80 114.8692
879.90 113.235
880.00 111.5853
880.10 110.2096
880.20 109.0816
880.30 108.0668
880.40 107.169
880.50 106.4459
880.60 105.992
880.70 105.9278
880.80 106.2757
880.90 106.977
881.00 107.964
881.10 109.1497
881.20 110.4471
881.30 111.7824
881.40 113.0808
881.50 114.3121
881.60 115.5318
881.70 116.8635
881.80 118.3668
881.90 119.9267
882.00 121.2163
882.10 121.8986
882.20 121.8752
882.30 121.8578
882.40 122.7702
882.50 125.1134
882.60 128.792
882.70 132.9272
882.80 136.3398
882.90 137.9278
883.00 136.9436
883.10 133.1371
883.20 126.9886
883.30 119.7743
883.40 113.2896
883.50 109.3396
883.60 109.0761
883.70 111.992
883.80 116.7389
883.90 121.954
884.00 126.4371
884.10 129.4478
884.20 130.6532
884.30 130.1341
884.40 128.1367
884.50 125.03
884.60 121.3415
884.70 117.6242
884.80 114.3334
884.90 111.7265
885.00 110.0253
885.10 109.5392
885.20 110.3084
885.30 111.9918
885.40 114.0416
885.50 116.02
885.60 117.6358
885.70 118.6881
885.80 119.2639
885.90 119.5976
886.00 119.8794
886.10 120.2863
886.20 121.0296
886.30 122.3796
886.40 124.6229
886.50 127.6931
886.60 131.0491
886.70 133.9631
886.80 135.7051
886.90 135.8357
887.00 134.2909
887.10 131.3503
887.20 127.5698
887.30 123.751
887.40 120.767
887.50 119.4111
887.60 120.1408
887.70 122.7258
887.80 126.2628
887.90 129.9411
888.00 133.562
888.10 136.7434
888.20 138.7031
888.30 139.1334
888.40 139.0902
888.50 139.6316
888.60 140.4661
888.70 141.0467
888.80 141.1747
888.90 140.6975
889.00 139.3728
889.10 137.0659
889.20 133.8811
889.30 130.0639
889.40 125.7589
889.50 121.619
889.60 119.0381
889.70 118.9795
889.80 120.8151
889.90 123.627
890.00 127.4252
890.10 132.0314
890.20 136.5618
890.30 139.977
890.40 141.5874
890.50 141.1379
890.60 138.8574
890.70 135.3416
890.80 131.4201
890.90 128.0066
891.00 125.7467
891.10 124.8696
891.20 125.3211
891.30 126.8311
891.40 129.1329
891.50 132.0744
891.60 135.6939
891.70 140.0902
891.80 144.8707
891.90 149.1198
892.00 151.9065
892.10 152.6171
892.20 150.9795
892.30 147.1616
892.40 141.8389
892.50 135.9984
892.60 130.7285
892.70 126.8832
892.80 124.9222
892.90 124.9242
893.00 126.3857
893.10 128.2407
893.20 129.5962
893.30 130.1846
893.40 130.0078
893.50 129.1526
893.60 127.7377
893.70 125.795
893.80 123.3012
893.90 120.1434
894.00 116.0888
894.10 111.1036
894.20 105.3969
894.30 99.35701
894.40 93.6211
894.50 88.97384
894.60 86.2481
894.70 86.02244
894.80 88.38189
894.90 92.94003
895.00 99.05409
895.10 106.0573
895.20 113.3592
895.30 120.4999
895.40 127.4443
895.50 134.3674
895.60 141.2175
895.70 147.5425
895.80 152.5334
895.90 155.5132
896.00 155.8357
896.10 153.1319
896.20 147.8462
896.30 141.0415
896.40 134.0962
896.50 128.4309
896.60 125.1634
896.70 124.8665
896.80 127.0923
896.90 130.6496
897.00 134.3946
897.10 137.5539
897.20 139.8429
897.30 141.2181
897.40 141.9126
897.50 142.3327
897.60 142.7494
897.70 143.3048
897.80 144.0554
897.90 144.8586
898.00 145.4704
898.10 145.8753
898.20 146.4174
898.30 147.552
898.40 149.2136
898.50 150.562
898.60 150.8253
898.70 150.0059
898.80 148.2992
898.90 145.9077
899.00 143.2777
899.10 140.9404
899.20 139.3993
899.30 138.9888
899.40 139.7611
899.50 141.5249
899.60 144.0547
899.70 146.8036
899.80 149.3843
899.90 152.5175
900.00 152.5089
900.10 152.5003
900.20 152.4917
900.30 152.4831
900.40 152.4745
900.50 152.4659
900.60 152.4573
900.70 152.4487
900.80 152.4401
900.90 152.506
901.00 152.6103
901.10 152.7145
901.20 152.8188
901.30 152.9231
901.40 153.0274
901.50 153.1316
901.60 153.2359
901.70 153.3402
901.80 153.4444
901.90 153.5487
902.00 153.653
902.10 153.7572
902.20 153.8615
902.30 153.9658
902.40 154.0701
902.50 154.1743
902.60 154.2786
902.70 154.3829
902.80 154.4871
902.90 154.5914
903.00 154.6957
903.10 154.7999
903.20 154.9042
903.30 155.0085
903.40 155.1128
903.50 155.217
903.60 155.3213
903.70 155.4256
903.80 155.5298
903.90 155.6341
904.00 155.7384
904.10 155.8426
904.20 155.9469
904.30 156.0401
904.40 156.1217
904.50 156.2033
904.60 156.285
904.70 156.3666
904.80 156.4482
904.90 156.5299
905.00 156.6115
905.10 156.6931
905.20 156.7747
905.30 156.8564
905.40 156.938
905.50 157.0196
905.60 157.1013
905.70 157.1829
905.80 157.2645
905.90 157.3461
906.00 157.4278
906.10 157.5094
906.20 157.591
906.30 157.6726
906.40 157.7543
906.50 157.8359
906.60 157.9175
906.70 157.9992
906.80 158.0808
906.90 158.1624
907.00 158.244
907.10 158.3257
907.20 158.4073
907.30 158.4889
907.40 158.5706
907.50 158.6522
907.60 158.7338
907.70 158.8
907.80 158.7714
907.90 158.7428
908.00 158.7142
908.10 158.6856
908.20 158.657
908.30 158.6285
908.40 158.5999
908.50 158.5713
908.60 158.5427
908.70 158.5141
908.80 158.4855
908.90 158.4569
909.00 158.4283
909.10 158.3997
909.20 158.3711
909.30 158.3425
909.40 158.3139
909.50 158.2853
909.60 158.2568
909.70 158.2282
909.80 158.1996
909.90 158.171
910.00 158.1424
910.10 158.1138
910.20 158.0852
910.30 158.0566
910.40 158.028
910.50 157.9994
910.60 157.9708
910.70 157.9422
910.80 157.9136
910.90 157.8851
911.00 157.8565
911.10 157.8279
911.20 157.8107
911.30 157.8008
911.40 157.7909
911.50 157.781
911.60 157.7712
911.70 157.7613
911.80 157.7514
911.90 157.7415
912.00 157.7316
912.10 157.7218
912.20 157.7119
912.30 157.702
912.40 157.6921
912.50 157.6822
912.60 157.6724
912.70 157.6625
912.80 157.6526
912.90 157.6427
913.00 157.6328
913.10 157.6229
913.20 157.6131
913.30 157.6032
913.40 157.5933
913.50 157.5834
913.60 157.5735
913.70 157.5637
913.80 157.5538
913.90 157.5439
914.00 157.534
914.10 157.5241
914.20 157.5143
914.30 157.5044
914.40 157.4945
914.50 157.4846
914.60 157.4747
914.70 157.5578
914.80 157.6523
914.90 157.7469
915.00 157.8415
915.10 157.936
915.20 158.0306
915.30 158.1251
915.40 158.2197
915.50 158.3142
915.60 158.4088
915.70 158.5033
915.80 158.5979
915.90 158.6924
916.00 158.787
916.10 158.8815
916.20 158.9761
916.30 159.0706
916.40 159.1652
916.50 159.2597
916.60 159.3543
916.70 159.4488
916.80 159.5434
916.90 159.6379
917.00 159.7325
917.10 159.827
917.20 159.9216
917.30 160.0162
917.40 160.1107
917.50 160.2053
917.60 160.2998
917.70 160.3944
917.80 160.4889
917.90 160.5835
918.00 160.678
918.10 160.7718
918.20 160.7942
918.30 160.8165
918.40 160.8389
918.50 160.8612
918.60 160.8835
918.70 160.9059
918.80 160.9282
918.90 160.9505
919.00 160.9729
919.10 160.9952
919.20 161.0175
919.30 161.0399
919.40 161.0622
919.50 161.0845
919.60 161.1069
919.70 161.1292
919.80 161.1515
919.90 161.1739
920.00 161.1962
920.10 161.2186
920.20 161.2409
920.30 161.2632
920.40 161.2856
920.50 161.3079
920.60 161.3302
920.70 161.3526
920.80 161.3749
920.90 161.3972
921.00 161.4196
921.10 161.4419
921.20 161.4642
921.30 161.4866
921.40 161.5089
921.50 161.5312
921.60 161.5536
921.70 161.5599
921.80 161.5653
921.90 161.5706
922.00 161.576
922.10 161.5813
922.20 161.5867
922.30 161.592
922.40 161.5974
922.50 161.6027
922.60 161.608
922.70 161.6134
922.80 161.6187
922.90 161.6241
923.00 161.6294
923.10 161.6348
923.20 161.6401
923.30 161.6455
923.40 161.6508
923.50 161.6561
923.60 161.6615
923.70 161.6668
923.80 161.6722
923.90 161.6775
924.00 161.6829
924.10 161.6882
924.20 161.6935
924.30 161.6989
924.40 161.7042
924.50 161.7096
924.60 161.7149
924.70 161.7203
924.80 161.7256
924.90 161.731
925.00 161.7363
925.10 161.7416
925.20 161.7054
925.30 161.6515
925.40 161.5975
925.50 161.5435
925.60 161.4895
925.70 161.4355
925.80 161.3815
925.90 161.3275
926.00 161.2735
926.10 161.2195
926.20 161.1655
926.30 161.1115
926.40 161.0575
926.50 161.0035
926.60 160.9495
926.70 160.8955
926.80 160.8415
926.90 160.7875
927.00 160.7335
927.10 160.6795
927.20 160.6255
927.30 160.5715
927.40 160.5176
927.50 160.4636
927.60 160.4096
927.70 160.3556
927.80 160.3016
927.90 160.2476
928.00 160.1936
928.10 160.1396
928.20 160.0856
928.30 160.0316
928.40 159.9776
928.50 159.9236
928.60 159.8696
928.70 159.8559
928.80 159.9408
928.90 160.0257
929.00 160.1107
929.10 160.1956
929.20 160.2805
929.30 160.3654
929.40 160.4503
929.50 160.5353
929.60 160.6202
929.70 160.7051
929.80 160.79
929.90 160.8749
930.00 160.9598
930.10 161.0448
930.20 161.1297
930.30 161.2146
930.40 161.2995
930.50 161.3844
930.60 161.4694
930.70 161.5543
930.80 161.6392
930.90 161.7241
931.00 161.809
931.10 161.8939
931.20 161.9789
931.30 162.0638
931.40 162.1487
931.50 162.2336
931.60 162.3185
931.70 162.4035
931.80 162.4884
931.90 162.5733
932.00 162.6582
932.10 162.7431
932.20 162.8281
932.30 162.7892
932.40 162.6974
932.50 162.6056
932.60 162.5137
932.70 162.4219
932.80 162.33
932.90 162.2382
933.00 162.1463
933.10 162.0545
933.20 161.9626
933.30 161.8708
933.40 161.779
933.50 161.6871
933.60 161.5953
933.70 161.5034
933.80 161.4116
933.90 161.3197
934.00 161.2279
934.10 161.1361
934.20 161.0442
934.30 160.9524
934.40 160.8605
934.50 160.7687
934.60 160.6768
934.70 160.585
934.80 160.4931
934.90 160.4013
935.00 160.3095
935.10 160.2176
935.20 160.1258
935.30 160.0339
935.40 159.9421
935.50 159.8502
935.60 159.7584
935.70 159.6666
935.80 159.5747
935.90 159.6152
936.00 159.6642
936.10 159.7132
936.20 159.7622
936.30 159.8112
936.40 159.8601
936.50 159.9091
936.60 159.9581
936.70 160.0071
936.80 160.056
936.90 160.105
937.00 160.154
937.10 160.203
937.20 160.252
937.30 160.3009
937.40 160.3499
937.50 160.3989
937.60 160.4479
937.70 160.4969
937.80 160.5458
937.90 160.5948
938.00 160.6438
938.10 160.6928
938.20 160.7417
938.30 160.7907
938.40 160.8397
938.50 160.8887
938.60 160.9377
938.70 160.9866
938.80 161.0356
938.90 161.0846
939.00 161.1336
939.10 161.1826
939.20 161.2315
939.30 161.2805
939.40 161.3292
939.50 161.3625
939.60 161.3957
939.70 161.429
939.80 161.4623
939.90 161.4956
940.00 161.5289
940.10 161.5621
940.20 161.5954
940.30 161.6287
940.40 161.662
940.50 161.6953
940.60 161.7285
940.70 161.7618
940.80 161.7951
940.90 161.8284
941.00 161.8617
941.10 161.8949
941.20 161.9282
941.30 161.9615
941.40 161.9948
941.50 162.0281
941.60 162.0613
941.70 162.0946
941.80 162.1279
941.90 162.1612
942.00 162.1945
942.10 162.2278
942.20 162.261
942.30 162.2943
942.40 162.3276
942.50 162.3609
942.60 162.3942
942.70 162.4274
942.80 162.4607
942.90 162.494
943.00 162.5273
943.10 162.6363
943.20 162.751
943.30 162.8658
943.40 162.9805
943.50 163.0952
943.60 163.2099
943.70 163.3247
943.80 163.4394
943.90 163.5541
944.00 163.6688
944.10 163.7836
944.20 163.8983
944.30 164.013
944.40 164.1277
944.50 164.2425
944.60 164.3572
944.70 164.4719
944.80 164.5867
944.90 164.7014
945.00 164.8161
945.10 164.9308
945.20 165.0456
945.30 165.1603
945.40 165.275
945.50 165.3897
945.60 165.5045
945.70 165.6192
945.80 165.7339
945.90 165.8486
946.00 165.9634
946.10 166.0781
946.20 166.1928
946.30 166.3075
946.40 166.4223
946.50 166.537
946.60 166.6517
946.70 166.7162
946.80 166.7559
946.90 166.7956
947.00 166.8353
947.10 166.875
947.20 166.9147
947.30 166.9544
947.40 166.994
947.50 167.0337
947.60 167.0734
947.70 167.1131
947.80 167.1528
947.90 167.1925
948.00 167.2322
948.10 167.2719
948.20 167.3116
948.30 167.3513
948.40 167.391
948.50 167.4307
948.60 167.4704
948.70 167.5101
948.80 167.5498
948.90 167.5895
949.00 167.6292
949.10 167.6689
949.20 167.7086
949.30 167.7483
949.40 167.788
949.50 167.8276
949.60 167.8673
949.70 167.907
949.80 167.9467
949.90 167.9864
950.00 168.0261
950.10 168.0658
950.20 168.1055
950.30 168.1262
950.40 168.0901
950.50 168.054
950.60 168.0178
950.70 167.9817
950.80 167.9455
950.90 167.9094
951.00 167.8732
951.10 167.8371
951.20 167.8009
951.30 167.7648
951.40 167.7286
951.50 167.6925
951.60 167.6564
951.70 167.6202
951.80 167.5841
951.90 167.5479
952.00 167.5118
952.10 167.4756
952.20 167.4395
952.30 167.4033
952.40 167.3672
952.50 167.331
952.60 167.2949
952.70 167.2588
952.80 167.2226
952.90 167.1865
953.00 167.1503
953.10 167.1142
953.20 167.078
953.30 167.0419
953.40 167.0057
953.50 166.9696
953.60 166.9334
953.70 166.8973
953.80 166.8612
953.90 166.825
954.00 166.8646
954.10 166.9432
954.20 167.0218
954.30 167.1004
954.40 167.179
954.50 167.2576
954.60 167.3362
954.70 167.4148
954.80 167.4934
954.90 167.572
955.00 167.6506
955.10 167.7292
955.20 167.8077
955.30 167.8863
955.40 167.9649
955.50 168.0435
955.60 168.1221
955.70 168.2007
955.80 168.2793
955.90 168.3579
956.00 168.4365
956.10 168.5151
956.20 168.5937
956.30 168.6723
956.40 168.7509
956.50 168.8295
956.60 168.9081
956.70 168.9867
956.80 169.0653
956.90 169.1439
957.00 169.2225
957.10 169.3011
957.20 169.3797
957.30 169.4583
957.40 169.5369
957.50 169.6155
957.60 169.6941
957.70 169.6363
957.80 169.5668
957.90 169.4972
958.00 169.4276
958.10 169.358
958.20 169.2885
958.30 169.2189
958.40 169.1493
958.50 169.0798
958.60 169.0102
958.70 168.9406
958.80 168.871
958.90 168.8015
959.00 168.7319
959.10 168.6623
959.20 168.5927
959.30 168.5232
959.40 168.4536
959.50 168.384
959.60 168.3144
959.70 168.2449
959.80 168.1753
959.90 168.1057
960.00 168.0362
960.10 167.9666
960.20 167.897
960.30 167.8274
960.40 167.7579
960.50 167.6883
960.60 167.6187
960.70 167.5491
960.80 167.4796
960.90 167.41
961.00 167.3404
961.10 167.2708
961.20 167.2013
961.30 167.1342
961.40 167.1906
961.50 167.2471
961.60 167.3035
961.70 167.3599
961.80 167.4164
961.90 167.4728
962.00 167.5292
962.10 167.5857
962.20 167.6421
962.30 167.6985
962.40 167.7549
962.50 167.8114
962.60 167.8678
962.70 167.9242
962.80 167.9807
962.90 168.0371
963.00 168.0935
963.10 168.15
963.20 168.2064
963.30 168.2628
963.40 168.3193
963.50 168.3757
963.60 168.4321
963.70 168.4885
963.80 168.545
963.90 168.6014
964.00 168.6578
964.10 168.7143
964.20 168.7707
964.30 168.8271
964.40 168.8836
964.50 168.94
964.60 168.9964
964.70 169.0528
964.80 169.1093
964.90 169.1657
965.00 169.2221
965.10 169.2252
965.20 169.2261
965.30 169.2269
965.40 169.2278
965.50 169.2287
965.60 169.2295
965.70 169.2304
965.80 169.2312
965.90 169.2321
966.00 169.233
966.10 169.2338
966.20 169.2347
966.30 169.2355
966.40 169.2364
966.50 169.2373
966.60 169.2381
966.70 169.239
966.80 169.2399
966.90 169.2407
967.00 169.2416
967.10 169.2424
967.20 169.2433
967.30 169.2442
967.40 169.245
967.50 169.2459
967.60 169.2467
967.70 169.2476
967.80 169.2485
967.90 169.2493
968.00 169.2502
968.10 169.251
968.20 169.2519
968.30 169.2528
968.40 169.2536
968.50 169.2545
968.60 169.2553
968.70 169.2562
968.80 169.2442
968.90 169.2276
969.00 169.211
969.10 169.1944
969.20 169.1779
969.30 169.1613
969.40 169.1447
969.50 169.1281
969.60 169.1115
969.70 169.095
969.80 169.0784
969.90 169.0618
970.00 169.0452
970.10 169.0287
970.20 169.0121
970.30 168.9955
970.40 168.9789
970.50 168.9623
970.60 168.9458
970.70 168.9292
970.80 168.9126
970.90 168.896
971.00 168.8795
971.10 168.8629
971.20 168.8463
971.30 168.8297
971.40 168.8132
971.50 168.7966
971.60 168.78
971.70 168.7634
971.80 168.7468
971.90 168.7303
972.00 168.7137
972.10 168.6971
972.20 168.6805
972.30 168.664
972.40 168.6474
972.50 168.6654
972.60 168.7422
972.70 168.819
972.80 168.8958
972.90 168.9727
973.00 169.0495
973.10 169.1263
973.20 169.2032
973.30 169.28
973.40 169.3568
973.50 169.4337
973.60 169.5105
973.70 169.5873
973.80 169.6641
973.90 169.741
974.00 169.8178
974.10 169.8946
974.20 169.9715
974.30 170.0483
974.40 170.1251
974.50 170.2019
974.60 170.2788
974.70 170.3556
974.80 170.4324
974.90 170.5093
975.00 170.5861
975.10 170.6629
975.20 170.7397
975.30 170.8166
975.40 170.8934
975.50 170.9702
975.60 171.0471
975.70 171.1239
975.80 171.2007
975.90 171.2775
976.00 171.3544
976.10 171.4312
976.20 171.508
976.30 171.4826
976.40 171.4391
976.50 171.3956
976.60 171.3521
976.70 171.3087
976.80 171.2652
976.90 171.2217
977.00 171.1782
977.10 171.1347
977.20 171.0912
977.30 171.0478
977.40 171.0043
977.50 170.9608
977.60 170.9173
977.70 170.8738
977.80 170.8304
977.90 170.7869
978.00 170.7434
978.10 170.6999
978.20 170.6564
978.30 170.6129
978.40 170.5695
978.50 170.526
978.60 170.4825
978.70 170.439
978.80 170.3955
978.90 170.352
979.00 170.3086
979.10 170.2651
979.20 170.2216
979.30 170.1781
979.40 170.1346
979.50 170.0912
979.60 170.0477
979.70 170.0042
979.80 169.9607
979.90 169.9172
980.00 169.894
980.10 169.9631
980.20 170.0322
980.30 170.1013
980.40 170.1704
980.50 170.2395
980.60 170.3086
980.70 170.3777
980.80 170.4469
980.90 170.516
981.00 170.5851
981.10 170.6542
981.20 170.7233
981.30 170.7924
981.40 170.8615
981.50 170.9306
981.60 170.9997
981.70 171.0688
981.80 171.1379
981.90 171.207
982.00 171.2761
982.10 171.3452
982.20 171.4143
982.30 171.4834
982.40 171.5525
982.50 171.6216
982.60 171.6908
982.70 171.7599
982.80 171.829
982.90 171.8981
983.00 171.9672
983.10 172.0363
983.20 172.1054
983.30 172.1745
983.40 172.2436
983.50 172.3127
983.60 172.3818
983.70 172.4509
983.80 172.4703
983.90 172.4014
984.00 172.3325
984.10 172.2636
984.20 172.1946
984.30 172.1257
984.40 172.0568
984.50 171.9879
984.60 171.9189
984.70 171.85
984.80 171.7811
984.90 171.7122
985.00 171.6432
985.10 171.5743
985.20 171.5054
985.30 171.4365
985.40 171.3675
985.50 171.2986
985.60 171.2297
985.70 171.1608
985.80 171.0918
985.90 171.0229
986.00 170.954
986.10 170.8851
986.20 170.8161
986.30 170.7472
986.40 170.6783
986.50 170.6094
986.60 170.5405
986.70 170.4715
986.80 170.4026
986.90 170.3337
987.00 170.2648
987.10 170.1958
987.20 170.1269
987.30 170.058
987.40 169.9891
987.50 169.9201
987.60 169.8799
987.70 169.8828
987.80 169.8857
987.90 169.8886
988.00 169.8914
988.10 169.8943
988.20 169.8972
988.30 169.9001
988.40 169.9029
988.50 169.9058
988.60 169.9087
988.70 169.9116
988.80 169.9144
988.90 169.9173
989.00 169.9202
989.10 169.9231
989.20 169.9259
989.30 169.9288
989.40 169.9317
989.50 169.9345
989.60 169.9374
989.70 169.9403
989.80 169.9432
989.90 169.946
990.00 169.9489
990.10 169.9518
990.20 169.9547
990.30 169.9575
990.40 169.9604
990.50 169.9633
990.60 169.9662
990.70 169.969
990.80 169.9719
990.90 169.9748
991.00 169.9777
991.10 169.9805
991.20 169.9834
991.30 169.9863
991.40 169.9818
991.50 169.9592
991.60 169.9366
991.70 169.914
991.80 169.8914
991.90 169.8688
992.00 169.8462
992.10 169.8236
992.20 169.801
992.30 169.7784
992.40 169.7558
992.50 169.7332
992.60 169.7106
992.70 169.688
992.80 169.6654
992.90 169.6428
993.00 169.6202
993.10 169.5976
993.20 169.575
993.30 169.5524
993.40 169.5298
993.50 169.5072
993.60 169.4846
993.70 169.462
993.80 169.4394
993.90 169.4168
994.00 169.3942
994.10 169.3716
994.20 169.3489
994.30 169.3263
994.40 169.3037
994.50 169.2811
994.60 169.2585
994.70 169.2359
994.80 169.2133
994.90 169.1907
995.00 169.1681
995.10 169.1455
995.20 169.1197
995.30 168.9888
995.40 168.8578
995.50 168.7269
995.60 168.596
995.70 168.465
995.80 168.3341
995.90 168.2032
996.00 168.0723
996.10 167.9413
996.20 167.8104
996.30 167.6795
996.40 167.5485
996.50 167.4176
996.60 167.2867
996.70 167.1558
996.80 167.0248
996.90 166.8939
997.00 166.763
997.10 166.632
997.20 166.5011
997.30 166.3702
997.40 166.2393
997.50 166.1083
997.60 165.9774
997.70 165.8465
997.80 165.7155
997.90 165.5846
998.00 165.4537
998.10 165.3227
998.20 165.1918
998.30 165.0609
998.40 164.93
998.50 164.799
998.60 164.6681
998.70 164.5372
998.80 164.4062
998.90 164.2753
999.00 164.1444
999.10 164.0843
999.20 164.0641
999.30 164.0438
999.40 164.0236
999.50 164.0033
999.60 163.9831
999.70 163.9629
999.80 163.9426
999.90 163.9224
1000.00 163.9021
1000.10 163.8819
1000.20 163.8617
1000.30 163.8414
1000.40 163.8212
1000.50 163.8009
1000.60 163.7807
1000.70 163.7605
1000.80 163.7402
1000.90 163.72
1001.00 163.6998
1001.10 163.6795
1001.20 163.6593
1001.30 163.639
1001.40 163.6188
1001.50 163.5986
1001.60 163.5783
1001.70 163.5581
1001.80 163.5378
1001.90 163.5176
1002.00 163.4974
1002.10 163.4771
1002.20 163.4569
1002.30 163.4366
1002.40 163.4164
1002.50 163.3962
1002.60 163.3759
1002.70 163.3557
1002.80 163.3354
1002.90 163.3215
1003.00 163.3638
1003.10 163.406
1003.20 163.4483
1003.30 163.4906
1003.40 163.5329
1003.50 163.5752
1003.60 163.6175
1003.70 163.6598
1003.80 163.7021
1003.90 163.7444
1004.00 163.7867
1004.10 163.829
1004.20 163.8713
1004.30 163.9136
1004.40 163.9559
1004.50 163.9982
1004.60 164.0405
1004.70 164.0828
1004.80 164.1251
1004.90 164.1674
1005.00 164.2097
1005.10 164.252
1005.20 164.2943
1005.30 164.3366
1005.40 164.3789
1005.50 164.4212
1005.60 164.4635
1005.70 164.5058
1005.80 164.5481
1005.90 164.5903
1006.00 164.6326
1006.10 164.6749
1006.20 164.7172
1006.30 164.7595
1006.40 164.8018
1006.50 164.8441
1006.60 164.8864
1006.70 164.9287
1006.80 164.9871
1006.90 165.0697
1007.00 165.1523
1007.10 165.2348
1007.20 165.3174
1007.30 165.4
1007.40 165.4826
1007.50 165.5651
1007.60 165.6477
1007.70 165.7303
1007.80 165.8128
1007.90 165.8954
1008.00 165.978
1008.10 166.0605
1008.20 166.1431
1008.30 166.2257
1008.40 166.3083
1008.50 166.3908
1008.60 166.4734
1008.70 166.556
1008.80 166.6385
1008.90 166.7211
1009.00 166.8037
1009.10 166.8863
1009.20 166.9688
1009.30 167.0514
1009.40 167.134
1009.50 167.2165
1009.60 167.2991
1009.70 167.3817
1009.80 167.4643
1009.90 167.5468
1010.00 167.6294
1010.10 167.712
1010.20 167.7945
1010.30 167.8771
1010.40 167.9597
1010.50 168.0422
1010.60 168.1248
1010.70 168.1471
1010.80 168.1291
1010.90 168.1111
1011.00 168.0932
1011.10 168.0752
1011.20 168.0572
1011.30 168.0392
1011.40 168.0213
1011.50 168.0033
1011.60 167.9853
1011.70 167.9674
1011.80 167.9494
1011.90 167.9314
1012.00 167.9135
1012.10 167.8955
1012.20 167.8775
1012.30 167.8595
1012.40 167.8416
1012.50 167.8236
1012.60 167.8056
1012.70 167.7877
1012.80 167.7697
1012.90 167.7517
1013.00 167.7338
1013.10 167.7158
1013.20 167.6978
1013.30 167.6798
1013.40 167.6619
1013.50 167.6439
1013.60 167.6259
1013.70 167.608
1013.80 167.59
1013.90 167.572
1014.00 167.5541
1014.10 167.5361
1014.20 167.5181
1014.30 167.5001
1014.40 167.4822
1014.50 167.4642
1014.60 167.5165
1014.70 167.599
1014.80 167.6815
1014.90 167.764
1015.00 167.8464
1015.10 167.9289
1015.20 168.0114
1015.30 168.0938
1015.40 168.1763
1015.50 168.2588
1015.60 168.3412
1015.70 168.4237
1015.80 168.5062
1015.90 168.5887
1016.00 168.6711
1016.10 168.7536
1016.20 168.8361
1016.30 168.9185
1016.40 169.001
1016.50 169.0835
1016.60 169.1659
1016.70 169.2484
1016.80 169.3309
1016.90 169.4134
1017.00 169.4958
1017.10 169.5783
1017.20 169.6608
1017.30 169.7432
1017.40 169.8257
1017.50 169.9082
1017.60 169.9906
1017.70 170.0731
1017.80 170.1556
1017.90 170.2381
1018.00 170.3205
1018.10 170.403
1018.20 170.4855
1018.30 170.5679
1018.40 170.6504
1018.50 170.6891
1018.60 170.6985
1018.70 170.708
1018.80 170.7174
1018.90 170.7268
1019.00 170.7363
1019.10 170.7457
1019.20 170.7552
1019.30 170.7646
1019.40 170.7741
1019.50 170.7835
1019.60 170.793
1019.70 170.8024
1019.80 170.8119
1019.90 170.8213
1020.00 170.8307
1020.10 170.8402
1020.20 170.8496
1020.30 170.8591
1020.40 170.8685
1020.50 170.878
1020.60 170.8874
1020.70 170.8969
1020.80 170.9063
1020.90 170.9158
1021.00 170.9252
1021.10 170.9346
1021.20 170.9441
1021.30 170.9535
1021.40 170.963
1021.50 170.9724
1021.60 170.9819
1021.70 170.9913
1021.80 171.0008
1021.90 171.0102
1022.00 171.0197
1022.10 171.0291
1022.20 171.0386
1022.30 171.048
1022.40 171.0394
1022.50 171.0129
1022.60 170.9863
1022.70 170.9597
1022.80 170.9332
1022.90 170.9066
1023.00 170.88
1023.10 170.8534
1023.20 170.8269
1023.30 170.8003
1023.40 170.7737
1023.50 170.7472
1023.60 170.7206
1023.70 170.694
1023.80 170.6674
1023.90 170.6409
1024.00 170.6143
1024.10 170.5877
1024.20 170.5612
1024.30 170.5346
1024.40 170.508
1024.50 170.4814
1024.60 170.4549
1024.70 170.4283
1024.80 170.4017
1024.90 170.3752
1025.00 170.3486
1025.10 170.322
1025.20 170.2954
1025.30 170.2689
1025.40 170.2423
1025.50 170.2157
1025.60 170.1892
1025.70 170.1626
1025.80 170.136
1025.90 170.1094
1026.00 170.0829
1026.10 170.0563
1026.20 170.0297
1026.30 170.0086
1026.40 170.0366
1026.50 170.0646
1026.60 170.0926
1026.70 170.1206
1026.80 170.1486
1026.90 170.1766
1027.00 170.2045
1027.10 170.2325
1027.20 170.2605
1027.30 170.2885
1027.40 170.3165
1027.50 170.3445
1027.60 170.3725
1027.70 170.4005
1027.80 170.4285
1027.90 170.4565
1028.00 170.4845
1028.10 170.5124
1028.20 170.5404
1028.30 170.5684
1028.40 170.5964
1028.50 170.6244
1028.60 170.6524
1028.70 170.6804
1028.80 170.7084
1028.90 170.7364
1029.00 170.7644
1029.10 170.7924
1029.20 170.8203
1029.30 170.8483
1029.40 170.8763
1029.50 170.9043
1029.60 170.9323
1029.70 170.9603
1029.80 170.9883
1029.90 171.0163
1030.00 171.0443
1030.10 171.0723
1030.20 171.1002
1030.30 171.1185
1030.40 171.1326
1030.50 171.1466
1030.60 171.1607
1030.70 171.1747
1030.80 171.1888
1030.90 171.2029
1031.00 171.2169
1031.10 171.231
1031.20 171.2451
1031.30 171.2591
1031.40 171.2732
1031.50 171.2872
1031.60 171.3013
1031.70 171.3154
1031.80 171.3294
1031.90 171.3435
1032.00 171.3576
1032.10 171.3716
1032.20 171.3857
1032.30 171.3997
1032.40 171.4138
1032.50 171.4279
1032.60 171.4419
1032.70 171.456
1032.80 171.4701
1032.90 171.4841
1033.00 171.4982
1033.10 171.5122
1033.20 171.5263
1033.30 171.5404
1033.40 171.5544
1033.50 171.5685
1033.60 171.5826
1033.70 171.5966
1033.80 171.6107
1033.90 171.6247
1034.00 171.6388
1034.10 171.6529
1034.20 171.6745
1034.30 171.7637
1034.40 171.853
1034.50 171.9422
1034.60 172.0315
1034.70 172.1207
1034.80 172.21
1034.90 172.2993
1035.00 172.3885
1035.10 172.4778
1035.20 172.567
1035.30 172.6563
1035.40 172.7456
1035.50 172.8348
1035.60 172.9241
1035.70 173.0133
1035.80 173.1026
1035.90 173.1918
1036.00 173.2811
1036.10 173.3704
1036.20 173.4596
1036.30 173.5489
1036.40 173.6381
1036.50 173.7274
1036.60 173.8167
1036.70 173.9059
1036.80 173.9952
1036.90 174.0844
1037.00 174.1737
1037.10 174.2629
1037.20 174.3522
1037.30 174.4415
1037.40 174.5307
1037.50 174.62
1037.60 174.7092
1037.70 174.7985
1037.80 174.8877
1037.90 174.977
1038.00 175.0663
1038.10 175.1555
1038.20 175.2018
1038.30 175.1835
1038.40 175.1651
1038.50 175.1468
1038.60 175.1285
1038.70 175.1102
1038.80 175.0919
1038.90 175.0736
1039.00 175.0553
1039.10 175.037
1039.20 175.0187
1039.30 175.0004
1039.40 174.9821
1039.50 174.9638
1039.60 174.9455
1039.70 174.9272
1039.80 174.9089
1039.90 174.8906
1040.00 174.8723
1040.10 174.854
1040.20 174.8357
1040.30 174.8174
1040.40 174.7991
1040.50 174.7808
1040.60 174.7625
1040.70 174.7442
1040.80 174.7259
1040.90 174.7076
1041.00 174.6893
1041.10 174.6709
1041.20 174.6526
1041.30 174.6343
1041.40 174.616
1041.50 174.5977
1041.60 174.5794
1041.70 174.5611
1041.80 174.5428
1041.90 174.5245
1042.00 174.5062
1042.10 174.4879
1042.20 174.5278
1042.30 174.6066
1042.40 174.6854
1042.50 174.7641
1042.60 174.8429
1042.70 174.9216
1042.80 175.0004
1042.90 175.0791
1043.00 175.1579
1043.10 175.2366
1043.20 175.3154
1043.30 175.3941
1043.40 175.4729
1043.50 175.5517
1043.60 175.6304
1043.70 175.7092
1043.80 175.7879
1043.90 175.8667
1044.00 175.9454
1044.10 176.0242
1044.20 176.1029
1044.30 176.1817
1044.40 176.2605
1044.50 176.3392
1044.60 176.418
1044.70 176.4967
1044.80 176.5755
1044.90 176.6542
1045.00 176.733
1045.10 176.8117
1045.20 176.8905
1045.30 176.9692
1045.40 177.048
1045.50 177.1268
1045.60 177.2055
1045.70 177.2843
1045.80 177.363
1045.90 177.4418
1046.00 177.5205
1046.10 177.5993
1046.20 177.6114
1046.30 177.595
1046.40 177.5786
1046.50 177.5621
1046.60 177.5457
1046.70 177.5293
1046.80 177.5129
1046.90 177.4964
1047.00 177.48
1047.10 177.4636
1047.20 177.4472
1047.30 177.4307
1047.40 177.4143
1047.50 177.3979
1047.60 177.3815
1047.70 177.3651
1047.80 177.3486
1047.90 177.3322
1048.00 177.3158
1048.10 177.2994
1048.20 177.2829
1048.30 177.2665
1048.40 177.2501
1048.50 177.2337
1048.60 177.2172
1048.70 177.2008
1048.80 177.1844
1048.90 177.168
1049.00 177.1515
1049.10 177.1351
1049.20 177.1187
1049.30 177.1023
1049.40 177.0858
1049.50 177.0694
1049.60 177.053
1049.70 177.0366
1049.80 177.0201
1049.90 177.0037
1050.00 176.9873
1050.10 176.9709
1050.20 176.9733
1050.30 176.9838
1050.40 176.9943
1050.50 177.0048
1050.60 177.0153
1050.70 177.0258
1050.80 177.0363
1050.90 177.0469
1051.00 177.0574
1051.10 177.0679
1051.20 177.0784
1051.30 177.0889
1051.40 177.0994
1051.50 177.1099
1051.60 177.1204
1051.70 177.1309
1051.80 177.1414
1051.90 177.1519
1052.00 177.1624
1052.10 177.1729
1052.20 177.1835
1052.30 177.194
1052.40 177.2045
1052.50 177.215
1052.60 177.2255
1052.70 177.236
1052.80 177.2465
1052.90 177.257
1053.00 177.2675
1053.10 177.278
1053.20 177.2885
1053.30 177.299
1053.40 177.3095
1053.50 177.32
1053.60 177.3306
1053.70 177.3411
1053.80 177.3516
1053.90 177.3621
1054.00 177.3726
1054.10 177.3831
1054.20 177.4011
1054.30 177.4266
1054.40 177.4521
1054.50 177.4776
1054.60 177.5031
1054.70 177.5286
1054.80 177.5541
1054.90 177.5796
1055.00 177.6051
1055.10 177.6306
1055.20 177.6561
1055.30 177.6816
1055.40 177.7071
1055.50 177.7326
1055.60 177.7581
1055.70 177.7836
1055.80 177.8091
1055.90 177.8346
1056.00 177.8601
1056.10 177.8856
1056.20 177.9111
1056.30 177.9366
1056.40 177.9621
1056.50 177.9876
1056.60 178.0131
1056.70 178.0386
1056.80 178.0641
1056.90 178.0896
1057.00 178.1151
1057.10 178.1406
1057.20 178.1661
1057.30 178.1916
1057.40 178.2171
1057.50 178.2426
1057.60 178.2681
1057.70 178.2936
1057.80 178.3191
1057.90 178.3446
1058.00 178.3701
1058.10 178.3956
1058.20 178.4206
1058.30 178.4443
1058.40 178.4681
1058.50 178.4918
1058.60 178.5156
1058.70 178.5393
1058.80 178.5631
1058.90 178.5868
1059.00 178.6106
1059.10 178.6343
1059.20 178.658
1059.30 178.6818
1059.40 178.7055
1059.50 178.7293
1059.60 178.753
1059.70 178.7768
1059.80 178.8005
1059.90 178.8243
1060.00 178.848
1060.10 178.8718
1060.20 178.8955
1060.30 178.9193
1060.40 178.943
1060.50 178.9667
1060.60 178.9905
1060.70 179.0142
1060.80 179.038
1060.90 179.0617
1061.00 179.0855
1061.10 179.1092
1061.20 179.133
1061.30 179.1567
1061.40 179.1805
1061.50 179.2042
1061.60 179.228
1061.70 179.2517
1061.80 179.2755
1061.90 179.2992
1062.00 179.3229
1062.10 179.3467
1062.20 179.3704
1062.30 179.4003
1062.40 179.4308
1062.50 179.4614
1062.60 179.4919
1062.70 179.5224
1062.80 179.553
1062.90 179.5835
1063.00 179.614
1063.10 179.6446
1063.20 179.6751
1063.30 179.7056
1063.40 179.7362
1063.50 179.7667
1063.60 179.7972
1063.70 179.8278
1063.80 179.8583
1063.90 179.8888
1064.00 179.9194
1064.10 179.9499
1064.20 179.9804
1064.30 180.011
1064.40 180.0415
1064.50 180.072
1064.60 180.1026
1064.70 180.1331
1064.80 180.1636
1064.90 180.1942
1065.00 180.2247
1065.10 180.2552
1065.20 180.2858
1065.30 180.3163
1065.40 180.3468
1065.50 180.3774
1065.60 180.4079
1065.70 180.4384
1065.80 180.469
1065.90 180.4995
1066.00 180.53
1066.10 180.5606
1066.20 180.5911
1066.30 180.6235
1066.40 180.6587
1066.50 180.6939
1066.60 180.7291
1066.70 180.7642
1066.80 180.7994
1066.90 180.8346
1067.00 180.8698
1067.10 180.905
1067.20 180.9401
1067.30 180.9753
1067.40 181.0105
1067.50 181.0457
1067.60 181.0809
1067.70 181.1161
1067.80 181.1512
1067.90 181.1864
1068.00 181.2216
1068.10 181.2568
1068.20 181.292
1068.30 181.3271
1068.40 181.3623
1068.50 181.3975
1068.60 181.4327
1068.70 181.4679
1068.80 181.5031
1068.90 181.5382
1069.00 181.5734
1069.10 181.6086
1069.20 181.6438
1069.30 181.679
1069.40 181.7142
1069.50 181.7493
1069.60 181.7845
1069.70 181.8197
1069.80 181.8549
1069.90 181.8901
1070.00 181.9252
1070.10 181.9604
1070.20 181.9956
1070.30 182.0308
1070.40 182.0617
1070.50 182.0922
1070.60 182.1226
1070.70 182.1531
1070.80 182.1835
1070.90 182.214
1071.00 182.2445
1071.10 182.2749
1071.20 182.3054
1071.30 182.3358
1071.40 182.3663
1071.50 182.3968
1071.60 182.4272
1071.70 182.4577
1071.80 182.4881
1071.90 182.5186
1072.00 182.549
1072.10 182.5795
1072.20 182.61
1072.30 182.6404
1072.40 182.6709
1072.50 182.7013
1072.60 182.7318
1072.70 182.7622
1072.80 182.7927
1072.90 182.8232
1073.00 182.8536
1073.10 182.8841
1073.20 182.9145
1073.30 182.945
1073.40 182.9754
1073.50 183.0059
1073.60 183.0364
1073.70 183.0668
1073.80 183.0973
1073.90 183.1277
1074.00 183.1582
1074.10 183.1886
1074.20 183.2191
1074.30 183.2496
1074.40 183.2806
1074.50 183.3137
1074.60 183.3469
1074.70 183.3801
1074.80 183.4132
1074.90 183.4464
1075.00 183.4795
1075.10 183.5127
1075.20 183.5459
1075.30 183.579
1075.40 183.6122
1075.50 183.6454
1075.60 183.6785
1075.70 183.7117
1075.80 183.7449
1075.90 183.778
1076.00 183.8112
1076.10 183.8444
1076.20 183.8775
1076.30 183.9107
1076.40 183.9439
1076.50 183.977
1076.60 184.0102
1076.70 184.0434
1076.80 184.0765
1076.90 184.1097
1077.00 184.1428
1077.10 184.176
1077.20 184.2092
1077.30 184.2423
1077.40 184.2755
1077.50 184.3087
1077.60 184.3418
1077.70 184.375
1077.80 184.4082
1077.90 184.4413
1078.00 184.4745
1078.10 184.5077
1078.20 184.5408
1078.30 184.574
1078.40 184.6072
1078.50 184.6261
1078.60 184.6236
1078.70 184.6211
1078.80 184.6186
1078.90 184.6161
1079.00 184.6136
1079.10 184.6111
1079.20 184.6086
1079.30 184.6061
1079.40 184.6037
1079.50 184.6012
1079.60 184.5987
1079.70 184.5962
1079.80 184.5937
1079.90 184.5912
1080.00 184.5887
1080.10 184.5862
1080.20 184.5837
1080.30 184.5813
1080.40 184.5788
1080.50 184.5763
1080.60 184.5738
1080.70 184.5713
1080.80 184.5688
1080.90 184.5663
1081.00 184.5638
1081.10 184.5613
1081.20 184.5588
1081.30 184.5564
1081.40 184.5539
1081.50 184.5514
1081.60 184.5489
1081.70 184.5464
1081.80 184.5439
1081.90 184.5414
1082.00 184.5389
1082.10 184.5364
1082.20 184.534
1082.30 184.5315
1082.40 184.529
1082.50 184.5265
1082.60 184.5639
1082.70 184.6413
1082.80 184.7186
1082.90 184.7959
1083.00 184.8733
1083.10 184.9506
1083.20 185.028
1083.30 185.1053
1083.40 185.1827
1083.50 185.26
1083.60 185.3373
1083.70 185.4147
1083.80 185.492
1083.90 185.5694
1084.00 185.6467
1084.10 185.7241
1084.20 185.8014
1084.30 185.8788
1084.40 185.9561
1084.50 186.0334
1084.60 186.1108
1084.70 186.1881
1084.80 186.2655
1084.90 186.3428
1085.00 186.4202
1085.10 186.4975
1085.20 186.5748
1085.30 186.6522
1085.40 186.7295
1085.50 186.8069
1085.60 186.8842
1085.70 186.9616
1085.80 187.0389
1085.90 187.1163
1086.00 187.1936
1086.10 187.2709
1086.20 187.3483
1086.30 187.4256
1086.40 187.503
1086.50 187.5803
1086.60 187.6577
1086.70 187.7088
1086.80 187.7424
1086.90 187.7761
1087.00 187.8097
1087.10 187.8434
1087.20 187.877
1087.30 187.9107
1087.40 187.9443
1087.50 187.9779
1087.60 188.0116
1087.70 188.0452
1087.80 188.0789
1087.90 188.1125
1088.00 188.1462
1088.10 188.1798
1088.20 188.2135
1088.30 188.2471
1088.40 188.2807
1088.50 188.3144
1088.60 188.348
1088.70 188.3817
1088.80 188.4153
1088.90 188.449
1089.00 188.4826
1089.10 188.5163
1089.20 188.5499
1089.30 188.5835
1089.40 188.6172
1089.50 188.6508
1089.60 188.6845
1089.70 188.7181
1089.80 188.7518
1089.90 188.7854
1090.00 188.8191
1090.10 188.8527
1090.20 188.8864
1090.30 188.92
1090.40 188.9536
1090.50 188.9873
1090.60 189.0209
1090.70 189.0546
1090.80 189.0655
1090.90 189.0536
1091.00 189.0418
1091.10 189.0299
1091.20 189.0181
1091.30 189.0062
1091.40 188.9944
1091.50 188.9825
1091.60 188.9706
1091.70 188.9588
1091.80 188.9469
1091.90 188.9351
1092.00 188.9232
1092.10 188.9114
1092.20 188.8995
1092.30 188.8877
1092.40 188.8758
1092.50 188.864
1092.60 188.8521
1092.70 188.8403
1092.80 188.8284
1092.90 188.8166
1093.00 188.8047
1093.10 188.7928
1093.20 188.781
1093.30 188.7691
1093.40 188.7573
1093.50 188.7454
1093.60 188.7336
1093.70 188.7217
1093.80 188.7099
1093.90 188.698
1094.00 188.6862
1094.10 188.6743
1094.20 188.6625
1094.30 188.6506
1094.40 188.6388
1094.50 188.6269
1094.60 188.6151
1094.70 188.6032
1094.80 188.5913
1094.90 188.6085
1095.00 188.669
1095.10 188.7296
1095.20 188.7902
1095.30 188.8507
1095.40 188.9113
1095.50 188.9718
1095.60 189.0324
1095.70 189.093
1095.80 189.1535
1095.90 189.2141
1096.00 189.2747
1096.10 189.3352
1096.20 189.3958
1096.30 189.4564
1096.40 189.5169
1096.50 189.5775
1096.60 189.6381
1096.70 189.6986
1096.80 189.7592
1096.90 189.8197
1097.00 189.8803
1097.10 189.9409
1097.20 190.0014
1097.30 190.062
1097.40 190.1226
1097.50 190.1831
1097.60 190.2437
1097.70 190.3043
1097.80 190.3648
1097.90 190.4254
1098.00 190.486
1098.10 190.5465
1098.20 190.6071
1098.30 190.6676
1098.40 190.7282
1098.50 190.7888
1098.60 190.8493
1098.70 190.9099
1098.80 190.9705
1098.90 191.031
1099.00 191.0817
1099.10 191.043
1099.20 191.0043
1099.30 190.9656
1099.40 190.9269
1099.50 190.8882
1099.60 190.8495
1099.70 190.8108
1099.80 190.7721
1099.90 190.7334
1100.00 190.6947
1100.10 190.6561
1100.20 190.6174
1100.30 190.5787
1100.40 190.54
1100.50 190.5013
1100.60 190.4626
1100.70 190.4239
1100.80 190.3852
1100.90 190.3465
1101.00 190.3078
1101.10 190.2691
1101.20 190.2304
1101.30 190.1917
1101.40 190.153
1101.50 190.1144
1101.60 190.0757
1101.70 190.037
1101.80 189.9983
1101.90 189.9596
1102.00 189.9209
1102.10 189.8822
1102.20 189.8435
1102.30 189.8048
1102.40 189.7661
1102.50 189.7274
1102.60 189.6887
1102.70 189.65
1102.80 189.6113
1102.90 189.5727
1103.00 189.534
1103.10 189.4953
1103.20 189.4555
1103.30 189.4154
1103.40 189.3753
1103.50 189.3353
1103.60 189.2952
1103.70 189.2551
1103.80 189.2151
1103.90 189.175
1104.00 189.1349
1104.10 189.0949
1104.20 189.0548
1104.30 189.0147
1104.40 188.9747
1104.50 188.9346
1104.60 188.8946
1104.70 188.8545
1104.80 188.8144
1104.90 188.7744
1105.00 188.7343
1105.10 188.6942
1105.20 188.6542
1105.30 188.6141
1105.40 188.574
1105.50 188.534
1105.60 188.4939
1105.70 188.4538
1105.80 188.4138
1105.90 188.3737
1106.00 188.3336
1106.10 188.2936
1106.20 188.2535
1106.30 188.2134
1106.40 188.1734
1106.50 188.1333
1106.60 188.0932
1106.70 188.0532
1106.80 188.0131
1106.90 187.973
1107.00 187.933
1107.10 187.8929
1107.20 187.8528
1107.30 187.8193
1107.40 187.7957
1107.50 187.7721
1107.60 187.7485
1107.70 187.7249
1107.80 187.7013
1107.90 187.6777
1108.00 187.6541
1108.10 187.6305
1108.20 187.6069
1108.30 187.5833
1108.40 187.5597
1108.50 187.5361
1108.60 187.5125
1108.70 187.4888
1108.80 187.4652
1108.90 187.4416
1109.00 187.418
1109.10 187.3944
1109.20 187.3708
1109.30 187.3472
1109.40 187.3236
1109.50 187.3
1109.60 187.2764
1109.70 187.2528
1109.80 187.2292
1109.90 187.2056
1110.00 187.182
1110.10 187.1583
1110.20 187.1347
1110.30 187.1111
1110.40 187.0875
1110.50 187.0639
1110.60 187.0403
1110.70 187.0167
1110.80 186.9931
1110.90 186.9695
1111.00 186.9459
1111.10 186.9223
1111.20 186.8987
1111.30 186.8751
1111.40 186.8515
1111.50 186.8037
1111.60 186.7533
1111.70 186.7029
1111.80 186.6524
1111.90 186.602
1112.00 186.5516
1112.10 186.5012
1112.20 186.4508
1112.30 186.4003
1112.40 186.3499
1112.50 186.2995
1112.60 186.2491
1112.70 186.1986
1112.80 186.1482
1112.90 186.0978
1113.00 186.0474
1113.10 185.997
1113.20 185.9465
1113.30 185.8961
1113.40 185.8457
1113.50 185.7953
1113.60 185.7448
1113.70 185.6944
1113.80 185.644
1113.90 185.5936
1114.00 185.5431
1114.10 185.4927
1114.20 185.4423
1114.30 185.3919
1114.40 185.3415
1114.50 185.291
1114.60 185.2406
1114.70 185.1902
1114.80 185.1398
1114.90 185.0893
1115.00 185.0389
1115.10 184.9885
1115.20 184.9381
1115.30 184.8877
1115.40 184.8372
1115.50 184.7868
1115.60 184.7726
1115.70 184.8427
1115.80 184.9129
1115.90 184.9831
1116.00 185.0533
1116.10 185.1235
1116.20 185.1936
1116.30 185.2638
1116.40 185.334
1116.50 185.4042
1116.60 185.4743
1116.70 185.5445
1116.80 185.6147
1116.90 185.6849
1117.00 185.7551
1117.10 185.8252
1117.20 185.8954
1117.30 185.9656
1117.40 186.0358
1117.50 186.106
1117.60 186.1761
1117.70 186.2463
1117.80 186.3165
1117.90 186.3867
1118.00 186.4568
1118.10 186.527
1118.20 186.5972
1118.30 186.6674
1118.40 186.7376
1118.50 186.8077
1118.60 186.8779
1118.70 186.9481
1118.80 187.0183
1118.90 187.0884
1119.00 187.1586
1119.10 187.2288
1119.20 187.299
1119.30 187.3692
1119.40 187.4393
1119.50 187.5095
1119.60 187.5797
1119.70 187.6499
1119.80 187.6816
1119.90 187.6876
1120.00 187.6936
1120.10 187.6997
1120.20 187.7057
1120.30 187.7117
1120.40 187.7178
1120.50 187.7238
1120.60 187.7298
1120.70 187.7359
1120.80 187.7419
1120.90 187.7479
1121.00 187.754
1121.10 187.76
1121.20 187.766
1121.30 187.7721
1121.40 187.7781
1121.50 187.7841
1121.60 187.7902
1121.70 187.7962
1121.80 187.8022
1121.90 187.8083
1122.00 187.8143
1122.10 187.8203
1122.20 187.8264
1122.30 187.8324
1122.40 187.8384
1122.50 187.8445
1122.60 187.8505
1122.70 187.8566
1122.80 187.8626
1122.90 187.8686
1123.00 187.8747
1123.10 187.8807
1123.20 187.8867
1123.30 187.8928
1123.40 187.8988
1123.50 187.9048
1123.60 187.9109
1123.70 187.9169
1123.80 187.9229
1123.90 187.929
1124.00 187.9049
1124.10 187.8774
1124.20 187.85
1124.30 187.8225
1124.40 187.7951
1124.50 187.7676
1124.60 187.7402
1124.70 187.7127
1124.80 187.6853
1124.90 187.6578
1125.00 187.6304
1125.10 187.603
1125.20 187.5755
1125.30 187.5481
1125.40 187.5206
1125.50 187.4932
1125.60 187.4657
1125.70 187.4383
1125.80 187.4108
1125.90 187.3834
1126.00 187.3559
1126.10 187.3285
1126.20 187.301
1126.30 187.2736
1126.40 187.2461
1126.50 187.2187
1126.60 187.1913
1126.70 187.1638
1126.80 187.1364
1126.90 187.1089
1127.00 187.0815
1127.10 187.054
1127.20 187.0266
1127.30 186.9991
1127.40 186.9717
1127.50 186.9442
1127.60 186.9168
1127.70 186.8893
1127.80 186.8619
1127.90 186.8344
1128.00 186.807
1128.10 186.7802
1128.20 186.7591
1128.30 186.738
1128.40 186.7169
1128.50 186.6958
1128.60 186.6747
1128.70 186.6536
1128.80 186.6325
1128.90 186.6114
1129.00 186.5903
1129.10 186.5692
1129.20 186.5481
1129.30 186.527
1129.40 186.5059
1129.50 186.4847
1129.60 186.4636
1129.70 186.4425
1129.80 186.4214
1129.90 186.4003
1130.00 186.3792
1130.10 186.3581
1130.20 186.337
1130.30 186.3159
1130.40 186.2948
1130.50 186.2737
1130.60 186.2526
1130.70 186.2315
1130.80 186.2104
1130.90 186.1893
1131.00 186.1682
1131.10 186.1471
1131.20 186.126
1131.30 186.1049
1131.40 186.0838
1131.50 186.0627
1131.60 186.0416
1131.70 186.0205
1131.80 185.9994
1131.90 185.9783
1132.00 185.9572
1132.10 185.9361
1132.20 185.915
1132.30 185.9168
1132.40 186.0104
1132.50 186.1041
1132.60 186.1977
1132.70 186.2913
1132.80 186.385
1132.90 186.4786
1133.00 186.5722
1133.10 186.6659
1133.20 186.7595
1133.30 186.8531
1133.40 186.9467
1133.50 187.0404
1133.60 187.134
1133.70 187.2276
1133.80 187.3213
1133.90 187.4149
1134.00 187.5085
1134.10 187.6022
1134.20 187.6958
1134.30 187.7894
1134.40 187.8831
1134.50 187.9767
1134.60 188.0703
1134.70 188.1639
1134.80 188.2576
1134.90 188.3512
1135.00 188.4448
1135.10 188.5385
1135.20 188.6321
1135.30 188.7257
1135.40 188.8194
1135.50 188.913
1135.60 189.0066
1135.70 189.1002
1135.80 189.1939
1135.90 189.2875
1136.00 189.3811
1136.10 189.4748
1136.20 189.5684
1136.30 189.662
1136.40 189.7557
1136.50 189.7982
1136.60 189.7215
1136.70 189.6448
1136.80 189.568
1136.90 189.4913
1137.00 189.4146
1137.10 189.3379
1137.20 189.2612
1137.30 189.1845
1137.40 189.1077
1137.50 189.031
1137.60 188.9543
1137.70 188.8776
1137.80 188.8009
1137.90 188.7242
1138.00 188.6474
1138.10 188.5707
1138.20 188.494
1138.30 188.4173
1138.40 188.3406
1138.50 188.2639
1138.60 188.1872
1138.70 188.1104
1138.80 188.0337
1138.90 187.957
1139.00 187.8803
1139.10 187.8036
1139.20 187.7269
1139.30 187.6501
1139.40 187.5734
1139.50 187.4967
1139.60 187.42
1139.70 187.3433
1139.80 187.2666
1139.90 187.1898
1140.00 187.1131
1140.10 187.0364
1140.20 186.9597
1140.30 186.883
1140.40 186.8063
1140.50 186.7296
1140.60 186.6528
1140.70 186.5893
1140.80 186.5567
1140.90 186.524
1141.00 186.4913
1141.10 186.4586
1141.20 186.4259
1141.30 186.3933
1141.40 186.3606
1141.50 186.3279
1141.60 186.2952
1141.70 186.2625
1141.80 186.2299
1141.90 186.1972
1142.00 186.1645
1142.10 186.1318
1142.20 186.0992
1142.30 186.0665
1142.40 186.0338
1142.50 186.0011
1142.60 185.9684
1142.70 185.9358
1142.80 185.9031
1142.90 185.8704
1143.00 185.8377
1143.10 185.805
1143.20 185.7724
1143.30 185.7397
1143.40 185.707
1143.50 185.6743
1143.60 185.6416
1143.70 185.609
1143.80 185.5763
1143.90 185.5436
1144.00 185.5109
1144.10 185.4783
1144.20 185.4456
1144.30 185.4129
1144.40 185.3802
1144.50 185.3475
1144.60 185.3149
1144.70 185.2822
1144.80 185.2495
1144.90 185.2386
1145.00 185.3148
1145.10 185.3911
1145.20 185.4673
1145.30 185.5435
1145.40 185.6198
1145.50 185.696
1145.60 185.7722
1145.70 185.8485
1145.80 185.9247
1145.90 186.0009
1146.00 186.0772
1146.10 186.1534
1146.20 186.2296
1146.30 186.3059
1146.40 186.3821
1146.50 186.4583
1146.60 186.5346
1146.70 186.6108
1146.80 186.687
1146.90 186.7633
1147.00 186.8395
1147.10 186.9157
1147.20 186.992
1147.30 187.0682
1147.40 187.1444
1147.50 187.2207
1147.60 187.2969
1147.70 187.3731
1147.80 187.4494
1147.90 187.5256
1148.00 187.6018
1148.10 187.6781
1148.20 187.7543
1148.30 187.8305
1148.40 187.9068
1148.50 187.983
1148.60 188.0592
1148.70 188.1355
1148.80 188.2117
1148.90 188.2879
1149.00 188.3642
1149.10 188.4404
1149.20 188.5129
1149.30 188.5854
1149.40 188.6578
1149.50 188.7303
1149.60 188.8028
1149.70 188.8752
1149.80 188.9477
1149.90 189.0202
1150.00 189.0927
1150.10 189.1651
1150.20 189.2376
1150.30 189.3101
1150.40 189.3825
1150.50 189.455
1150.60 189.5275
1150.70 189.5999
1150.80 189.6724
1150.90 189.7449
1151.00 189.8174
1151.10 189.8898
1151.20 189.9623
1151.30 190.0348
1151.40 190.1072
1151.50 190.1797
1151.60 190.2522
1151.70 190.3247
1151.80 190.3971
1151.90 190.4696
1152.00 190.5421
1152.10 190.6145
1152.20 190.687
1152.30 190.7595
1152.40 190.8319
1152.50 190.9044
1152.60 190.9769
1152.70 191.0494
1152.80 191.1218
1152.90 191.1943
1153.00 191.2668
1153.10 191.3392
1153.20 191.4117
1153.30 191.4842
1153.40 191.5018
1153.50 191.5058
1153.60 191.5097
1153.70 191.5136
1153.80 191.5176
1153.90 191.5215
1154.00 191.5255
1154.10 191.5294
1154.20 191.5333
1154.30 191.5373
1154.40 191.5412
1154.50 191.5451
1154.60 191.5491
1154.70 191.553
1154.80 191.557
1154.90 191.5609
1155.00 191.5648
1155.10 191.5688
1155.20 191.5727
1155.30 191.5766
1155.40 191.5806
1155.50 191.5845
1155.60 191.5885
1155.70 191.5924
1155.80 191.5963
1155.90 191.6003
1156.00 191.6042
1156.10 191.6081
1156.20 191.6121
1156.30 191.616
1156.40 191.62
1156.50 191.6239
1156.60 191.6278
1156.70 191.6318
1156.80 191.6357
1156.90 191.6396
1157.00 191.6436
1157.10 191.6475
1157.20 191.6515
1157.30 191.6554
1157.40 191.6593
1157.50 191.6633
1157.60 191.6865
1157.70 191.7226
1157.80 191.7588
1157.90 191.7949
1158.00 191.831
1158.10 191.8671
1158.20 191.9033
1158.30 191.9394
1158.40 191.9755
1158.50 192.0116
1158.60 192.0478
1158.70 192.0839
1158.80 192.12
1158.90 192.1561
1159.00 192.1923
1159.10 192.2284
1159.20 192.2645
1159.30 192.3006
1159.40 192.3367
1159.50 192.3729
1159.60 192.409
1159.70 192.4451
1159.80 192.4812
1159.90 192.5174
1160.00 192.5535
1160.10 192.5896
1160.20 192.6257
1160.30 192.6619
1160.40 192.698
1160.50 192.7341
1160.60 192.7702
1160.70 192.8064
1160.80 192.8425
1160.90 192.8786
1161.00 192.9147
1161.10 192.9508
1161.20 192.987
1161.30 193.0231
1161.40 193.0592
1161.50 193.0953
1161.60 193.1315
1161.70 193.1676
1161.80 193.1993
1161.90 193.2133
1162.00 193.2273
1162.10 193.2412
1162.20 193.2552
1162.30 193.2692
1162.40 193.2832
1162.50 193.2972
1162.60 193.3112
1162.70 193.3252
1162.80 193.3392
1162.90 193.3531
1163.00 193.3671
1163.10 193.3811
1163.20 193.3951
1163.30 193.4091
1163.40 193.4231
1163.50 193.4371
1163.60 193.451
1163.70 193.465
1163.80 193.479
1163.90 193.493
1164.00 193.507
1164.10 193.521
1164.20 193.535
1164.30 193.549
1164.40 193.5629
1164.50 193.5769
1164.60 193.5909
1164.70 193.6049
1164.80 193.6189
1164.90 193.6329
1165.00 193.6469
1165.10 193.6608
1165.20 193.6748
1165.30 193.6888
1165.40 193.7028
1165.50 193.7168
1165.60 193.7308
1165.70 193.7448
1165.80 193.7588
1165.90 193.7727
1166.00 193.7867
1166.10 193.7158
1166.20 193.6354
1166.30 193.5551
1166.40 193.4747
1166.50 193.3943
1166.60 193.3139
1166.70 193.2336
1166.80 193.1532
1166.90 193.0728
1167.00 192.9925
1167.10 192.9121
1167.20 192.8317
1167.30 192.7514
1167.40 192.671
1167.50 192.5906
1167.60 192.5103
1167.70 192.4299
1167.80 192.3495
1167.90 192.2691
1168.00 192.1888
1168.10 192.1084
1168.20 192.028
1168.30 191.9477
1168.40 191.8673
1168.50 191.7869
1168.60 191.7066
1168.70 191.6262
1168.80 191.5458
1168.90 191.4655
1169.00 191.3851
1169.10 191.3047
1169.20 191.2244
1169.30 191.144
1169.40 191.0636
1169.50 190.9832
1169.60 190.9029
1169.70 190.8225
1169.80 190.7421
1169.90 190.6618
1170.00 190.5814
1170.10 190.501
1170.20 190.4207
1170.30 190.3497
1170.40 190.2929
1170.50 190.236
1170.60 190.1792
1170.70 190.1223
1170.80 190.0655
1170.90 190.0086
1171.00 189.9518
1171.10 189.895
1171.20 189.8381
1171.30 189.7813
1171.40 189.7244
1171.50 189.6676
1171.60 189.6107
1171.70 189.5539
1171.80 189.4971
1171.90 189.4402
1172.00 189.3834
1172.10 189.3265
1172.20 189.2697
1172.30 189.2128
1172.40 189.156
1172.50 189.0991
1172.60 189.0423
1172.70 188.9855
1172.80 188.9286
1172.90 188.8718
1173.00 188.8149
1173.10 188.7581
1173.20 188.7012
1173.30 188.6444
1173.40 188.5876
1173.50 188.5307
1173.60 188.4739
1173.70 188.417
1173.80 188.3602
1173.90 188.3033
1174.00 188.2465
1174.10 188.1896
1174.20 188.1328
1174.30 188.076
1174.40 188.0191
1174.50 187.9623
1174.60 187.9439
1174.70 187.9298
1174.80 187.9158
1174.90 187.9017
1175.00 187.8876
1175.10 187.8735
1175.20 187.8594
1175.30 187.8454
1175.40 187.8313
1175.50 187.8172
1175.60 187.8031
1175.70 187.7891
1175.80 187.775
1175.90 187.7609
1176.00 187.7468
1176.10 187.7327
1176.20 187.7187
1176.30 187.7046
1176.40 187.6905
1176.50 187.6764
1176.60 187.6624
1176.70 187.6483
1176.80 187.6342
1176.90 187.6201
1177.00 187.606
1177.10 187.592
1177.20 187.5779
1177.30 187.5638
1177.40 187.5497
1177.50 187.5357
1177.60 187.5216
1177.70 187.5075
1177.80 187.4934
1177.90 187.4793
1178.00 187.4653
1178.10 187.4512
1178.20 187.4371
1178.30 187.423
1178.40 187.4089
1178.50 187.3949
1178.60 187.3808
1178.70 187.3667
1178.80 187.3747
1178.90 187.4159
1179.00 187.457
1179.10 187.4981
1179.20 187.5393
1179.30 187.5804
1179.40 187.6216
1179.50 187.6627
1179.60 187.7038
1179.70 187.745
1179.80 187.7861
1179.90 187.8273
1180.00 187.8684
1180.10 187.9095
1180.20 187.9507
1180.30 187.9918
1180.40 188.033
1180.50 188.0741
1180.60 188.1152
1180.70 188.1564
1180.80 188.1975
1180.90 188.2387
1181.00 188.2798
1181.10 188.3209
1181.20 188.3621
1181.30 188.4032
1181.40 188.4444
1181.50 188.4855
1181.60 188.5266
1181.70 188.5678
1181.80 188.6089
1181.90 188.6501
1182.00 188.6912
1182.10 188.7323
1182.20 188.7735
1182.30 188.8146
1182.40 188.8558
1182.50 188.8969
1182.60 188.938
1182.70 188.9792
1182.80 189.0203
1182.90 189.0615
1183.00 189.1026
1183.10 189.0909
1183.20 189.0659
1183.30 189.0409
1183.40 189.016
1183.50 188.991
1183.60 188.9661
1183.70 188.9411
1183.80 188.9162
1183.90 188.8912
1184.00 188.8662
1184.10 188.8413
1184.20 188.8163
1184.30 188.7914
1184.40 188.7664
1184.50 188.7415
1184.60 188.7165
1184.70 188.6916
1184.80 188.6666
1184.90 188.6416
1185.00 188.6167
1185.10 188.5917
1185.20 188.5668
1185.30 188.5418
1185.40 188.5169
1185.50 188.4919
1185.60 188.4669
1185.70 188.442
1185.80 188.417
1185.90 188.3921
1186.00 188.3671
1186.10 188.3422
1186.20 188.3172
1186.30 188.2923
1186.40 188.2673
1186.50 188.2423
1186.60 188.2174
1186.70 188.1924
1186.80 188.1675
1186.90 188.1425
1187.00 188.1176
1187.10 188.0926
1187.20 188.0676
1187.30 188.0639
1187.40 188.1448
1187.50 188.2256
1187.60 188.3065
1187.70 188.3874
1187.80 188.4683
1187.90 188.5492
1188.00 188.6301
1188.10 188.711
1188.20 188.7919
1188.30 188.8728
1188.40 188.9536
1188.50 189.0345
1188.60 189.1154
1188.70 189.1963
1188.80 189.2772
1188.90 189.3581
1189.00 189.439
1189.10 189.5199
1189.20 189.6008
1189.30 189.6817
1189.40 189.7625
1189.50 189.8434
1189.60 189.9243
1189.70 190.0052
1189.80 190.0861
1189.90 190.167
1190.00 190.2479
1190.10 190.3288
1190.20 190.4097
1190.30 190.4906
1190.40 190.5714
1190.50 190.6523
1190.60 190.7332
1190.70 190.8141
1190.80 190.895
1190.90 190.9759
1191.00 191.0568
1191.10 191.1377
1191.20 191.2186
1191.30 191.2994
1191.40 191.3803
1191.50 191.4612
1191.60 191.5035
1191.70 191.507
1191.80 191.5106
1191.90 191.5142
1192.00 191.5178
1192.10 191.5214
1192.20 191.525
1192.30 191.5286
1192.40 191.5322
1192.50 191.5357
1192.60 191.5393
1192.70 191.5429
1192.80 191.5465
1192.90 191.5501
1193.00 191.5537
1193.10 191.5573
1193.20 191.5608
1193.30 191.5644
1193.40 191.568
1193.50 191.5716
1193.60 191.5752
1193.70 191.5788
1193.80 191.5824
1193.90 191.586
1194.00 191.5895
1194.10 191.5931
1194.20 191.5967
1194.30 191.6003
1194.40 191.6039
1194.50 191.6075
1194.60 191.6111
1194.70 191.6146
1194.80 191.6182
1194.90 191.6218
1195.00 191.6254
1195.10 191.629
1195.20 191.6326
1195.30 191.6362
1195.40 191.6398
1195.50 191.6433
1195.60 191.6469
1195.70 191.6505
1195.80 191.6541
1195.90 191.6544
1196.00 191.654
1196.10 191.6535
1196.20 191.653
1196.30 191.6525
1196.40 191.6521
1196.50 191.6516
1196.60 191.6511
1196.70 191.6506
1196.80 191.6502
1196.90 191.6497
1197.00 191.6492
1197.10 191.6487
1197.20 191.6483
1197.30 191.6478
1197.40 191.6473
1197.50 191.6468
1197.60 191.6464
1197.70 191.6459
1197.80 191.6454
1197.90 191.6449
1198.00 191.6445
1198.10 191.644
1198.20 191.6435
1198.30 191.643
1198.40 191.6426
1198.50 191.6421
1198.60 191.6416
1198.70 191.6411
1198.80 191.6407
1198.90 191.6402
1199.00 191.6397
1199.10 191.6392
1199.20 191.6388
1199.30 191.6383
1199.40 191.6378
1199.50 191.6373
1199.60 191.6369
1199.70 191.6364
1199.80 191.6359
1199.90 191.6354
1200.00 191.635
1200.10 191.6345
1200.20 191.5802
1200.30 191.5259
1200.40 191.4716
1200.50 191.4172
1200.60 191.3629
1200.70 191.3086
1200.80 191.2543
1200.90 191.2
1201.00 191.1457
1201.10 191.0914
1201.20 191.0371
1201.30 190.9828
1201.40 190.9284
1201.50 190.8741
1201.60 190.8198
1201.70 190.7655
1201.80 190.7112
1201.90 190.6569
1202.00 190.6026
1202.10 190.5483
1202.20 190.494
1202.30 190.4397
1202.40 190.3853
1202.50 190.331
1202.60 190.2767
1202.70 190.2224
1202.80 190.1681
1202.90 190.1138
1203.00 190.0595
1203.10 190.0052
1203.20 189.9509
1203.30 189.8966
1203.40 189.8422
1203.50 189.7879
1203.60 189.7336
1203.70 189.6793
1203.80 189.625
1203.90 189.5707
1204.00 189.5164
1204.10 189.4621
1204.20 189.4078
1204.30 189.3535
1204.40 189.3175
1204.50 189.355
1204.60 189.3926
1204.70 189.4301
1204.80 189.4676
1204.90 189.5051
1205.00 189.5427
1205.10 189.5802
1205.20 189.6177
1205.30 189.6552
1205.40 189.6927
1205.50 189.7303
1205.60 189.7678
1205.70 189.8053
1205.80 189.8428
1205.90 189.8804
1206.00 189.9179
1206.10 189.9554
1206.20 189.9929
1206.30 190.0305
1206.40 190.068
1206.50 190.1055
1206.60 190.143
1206.70 190.1806
1206.80 190.2181
1206.90 190.2556
1207.00 190.2931
1207.10 190.3307
1207.20 190.3682
1207.30 190.4057
1207.40 190.4432
1207.50 190.4807
1207.60 190.5183
1207.70 190.5558
1207.80 190.5933
1207.90 190.6308
1208.00 190.6684
1208.10 190.7059
1208.20 190.7434
1208.30 190.7809
1208.40 190.8185
1208.50 190.856
1208.60 190.8935
1208.70 190.9542
1208.80 191.0497
1208.90 191.1452
1209.00 191.2407
1209.10 191.3362
1209.20 191.4317
1209.30 191.5271
1209.40 191.6226
1209.50 191.7181
1209.60 191.8136
1209.70 191.9091
1209.80 192.0046
1209.90 192.1001
1210.00 192.1955
1210.10 192.291
1210.20 192.3865
1210.30 192.482
1210.40 192.5775
1210.50 192.673
1210.60 192.7685
1210.70 192.864
1210.80 192.9594
1210.90 193.0549
1211.00 193.1504
1211.10 193.2459
1211.20 193.3414
1211.30 193.4369
1211.40 193.5324
1211.50 193.6279
1211.60 193.7233
1211.70 193.8188
1211.80 193.9143
1211.90 194.0098
1212.00 194.1053
1212.10 194.2008
1212.20 194.2963
1212.30 194.3917
1212.40 194.4872
1212.50 194.5827
1212.60 194.6782
1212.70 194.7737
1212.80 194.8692
1212.90 194.9647
1213.00 195.0192
1213.10 195.0327
1213.20 195.0462
1213.30 195.0598
1213.40 195.0733
1213.50 195.0868
1213.60 195.1004
1213.70 195.1139
1213.80 195.1274
1213.90 195.141
1214.00 195.1545
1214.10 195.168
1214.20 195.1816
1214.30 195.1951
1214.40 195.2086
1214.50 195.2222
1214.60 195.2357
1214.70 195.2492
1214.80 195.2628
1214.90 195.2763
1215.00 195.2898
1215.10 195.3034
1215.20 195.3169
1215.30 195.3304
1215.40 195.344
1215.50 195.3575
1215.60 195.371
1215.70 195.3846
1215.80 195.3981
1215.90 195.4116
1216.00 195.4252
1216.10 195.4387
1216.20 195.4522
1216.30 195.4658
1216.40 195.4793
1216.50 195.4928
1216.60 195.5064
1216.70 195.5199
1216.80 195.5334
1216.90 195.547
1217.00 195.5605
1217.10 195.574
1217.20 195.5876
1217.30 195.6043
1217.40 195.6232
1217.50 195.6421
1217.60 195.6611
1217.70 195.68
1217.80 195.6989
1217.90 195.7178
1218.00 195.7367
1218.10 195.7556
1218.20 195.7745
1218.30 195.7934
1218.40 195.8123
1218.50 195.8312
1218.60 195.8502
1218.70 195.8691
1218.80 195.888
1218.90 195.9069
1219.00 195.9258
1219.10 195.9447
1219.20 195.9636
1219.30 195.9825
1219.40 196.0014
1219.50 196.0203
1219.60 196.0392
1219.70 196.0582
1219.80 196.0771
1219.90 196.096
1220.00 196.1149
1220.10 196.1338
1220.20 196.1527
1220.30 196.1716
1220.40 196.1905
1220.50 196.2094
1220.60 196.2283
1220.70 196.2473
1220.80 196.2662
1220.90 196.2851
1221.00 196.304
1221.10 196.3229
1221.20 196.3418
1221.30 196.3607
1221.40 196.3796
1221.50 196.3985
1221.60 196.4404
1221.70 196.492
1221.80 196.5436
1221.90 196.5953
1222.00 196.6469
1222.10 196.6986
1222.20 196.7502
1222.30 196.8019
1222.40 196.8535
1222.50 196.9052
1222.60 196.9568
1222.70 197.0084
1222.80 197.0601
1222.90 197.1117
1223.00 197.1634
1223.10 197.215
1223.20 197.2667
1223.30 197.3183
1223.40 197.37
1223.50 197.4216
1223.60 197.4732
1223.70 197.5249
1223.80 197.5765
1223.90 197.6282
1224.00 197.6798
1224.10 197.7315
1224.20 197.7831
1224.30 197.8348
1224.40 197.8864
1224.50 197.938
1224.60 197.9897
1224.70 198.0413
1224.80 198.093
1224.90 198.1446
1225.00 198.1963
1225.10 198.2479
1225.20 198.2996
1225.30 198.3512
1225.40 198.4028
1225.50 198.4545
1225.60 198.5061
1225.70 198.5578
1225.80 198.6094
1225.90 198.6161
1226.00 198.6036
1226.10 198.591
1226.20 198.5785
1226.30 198.5659
1226.40 198.5534
1226.50 198.5408
1226.60 198.5282
1226.70 198.5157
1226.80 198.5031
1226.90 198.4906
1227.00 198.478
1227.10 198.4655
1227.20 198.4529
1227.30 198.4404
1227.40 198.4278
1227.50 198.4153
1227.60 198.4027
1227.70 198.3902
1227.80 198.3776
1227.90 198.365
1228.00 198.3525
1228.10 198.3399
1228.20 198.3274
1228.30 198.3148
1228.40 198.3023
1228.50 198.2897
1228.60 198.2772
1228.70 198.2646
1228.80 198.2521
1228.90 198.2395
1229.00 198.227
1229.10 198.2144
1229.20 198.2018
1229.30 198.1893
1229.40 198.1767
1229.50 198.1642
1229.60 198.1516
1229.70 198.1391
1229.80 198.1265
1229.90 198.114
1230.00 198.1014
1230.10 198.0889
1230.20 198.1284
1230.30 198.181
1230.40 198.2335
1230.50 198.2861
1230.60 198.3387
1230.70 198.3912
1230.80 198.4438
1230.90 198.4964
1231.00 198.5489
1231.10 198.6015
1231.20 198.6541
1231.30 198.7067
1231.40 198.7592
1231.50 198.8118
1231.60 198.8644
1231.70 198.9169
1231.80 198.9695
1231.90 199.0221
1232.00 199.0746
1232.10 199.1272
1232.20 199.1798
1232.30 199.2323
1232.40 199.2849
1232.50 199.3375
1232.60 199.39
1232.70 199.4426
1232.80 199.4952
1232.90 199.5477
1233.00 199.6003
1233.10 199.6529
1233.20 199.7055
1233.30 199.758
1233.40 199.8106
1233.50 199.8632
1233.60 199.9157
1233.70 199.9683
1233.80 200.0209
1233.90 200.0734
1234.00 200.126
1234.10 200.1786
1234.20 200.2311
1234.30 200.2837
1234.40 200.3363
1234.50 200.359
1234.60 200.369
1234.70 200.379
1234.80 200.389
1234.90 200.399
1235.00 200.409
1235.10 200.419
1235.20 200.429
1235.30 200.439
1235.40 200.449
1235.50 200.459
1235.60 200.469
1235.70 200.479
1235.80 200.489
1235.90 200.499
1236.00 200.509
1236.10 200.519
1236.20 200.529
1236.30 200.5389
1236.40 200.5489
1236.50 200.5589
1236.60 200.5689
1236.70 200.5789
1236.80 200.5889
1236.90 200.5989
1237.00 200.6089
1237.10 200.6189
1237.20 200.6289
1237.30 200.6389
1237.40 200.6489
1237.50 200.6589
1237.60 200.6689
1237.70 200.6789
1237.80 200.6889
1237.90 200.6989
1238.00 200.7089
1238.10 200.7189
1238.20 200.7289
1238.30 200.7388
1238.40 200.7488
1238.50 200.7588
1238.60 200.7688
1238.70 200.7788
1238.80 200.7439
1238.90 200.6898
1239.00 200.6357
1239.10 200.5815
1239.20 200.5274
1239.30 200.4733
1239.40 200.4191
1239.50 200.365
1239.60 200.3108
1239.70 200.2567
1239.80 200.2026
1239.90 200.1484
1240.00 200.0943
1240.10 200.0402
1240.20 199.986
1240.30 199.9319
1240.40 199.8778
1240.50 199.8236
1240.60 199.7695
1240.70 199.7154
1240.80 199.6612
1240.90 199.6071
1241.00 199.553
1241.10 199.4988
1241.20 199.4447
1241.30 199.3905
1241.40 199.3364
1241.50 199.2823
1241.60 199.2281
1241.70 199.174
1241.80 199.1199
1241.90 199.0657
1242.00 199.0116
1242.10 198.9575
1242.20 198.9033
1242.30 198.8492
1242.40 198.7951
1242.50 198.7409
1242.60 198.6868
1242.70 198.6326
1242.80 198.5785
1242.90 198.5244
1243.00 198.4702
1243.10 198.4521
1243.20 198.4495
1243.30 198.4468
1243.40 198.4441
1243.50 198.4414
1243.60 198.4387
1243.70 198.4361
1243.80 198.4334
1243.90 198.4307
1244.00 198.428
1244.10 198.4254
1244.20 198.4227
1244.30 198.42
1244.40 198.4173
1244.50 198.4146
1244.60 198.412
1244.70 198.4093
1244.80 198.4066
1244.90 198.4039
1245.00 198.4013
1245.10 198.3986
1245.20 198.3959
1245.30 198.3932
1245.40 198.3905
1245.50 198.3879
1245.60 198.3852
1245.70 198.3825
1245.80 198.3798
1245.90 198.3772
1246.00 198.3745
1246.10 198.3718
1246.20 198.3691
1246.30 198.3664
1246.40 198.3638
1246.50 198.3611
1246.60 198.3584
1246.70 198.3557
1246.80 198.3531
1246.90 198.3504
1247.00 198.3477
1247.10 198.345
1247.20 198.3423
1247.30 198.3397
1247.40 198.3175
1247.50 198.2823
1247.60 198.2471
1247.70 198.2119
1247.80 198.1768
1247.90 198.1416
1248.00 198.1064
1248.10 198.0712
1248.20 198.036
1248.30 198.0009
1248.40 197.9657
1248.50 197.9305
1248.60 197.8953
1248.70 197.8601
1248.80 197.825
1248.90 197.7898
1249.00 197.7546
1249.10 197.7194
1249.20 197.6842
1249.30 197.649
1249.40 197.6139
1249.50 197.5787
1249.60 197.5435
1249.70 197.5083
1249.80 197.4731
1249.90 197.438
1250.00 197.4028
1250.10 197.3676
1250.20 197.3324
1250.30 197.2972
1250.40 197.2621
1250.50 197.2269
1250.60 197.1917
1250.70 197.1565
1250.80 197.1213
1250.90 197.0861
1251.00 197.051
1251.10 197.0158
1251.20 196.9806
1251.30 196.9454
1251.40 196.9102
1251.50 196.8751
1251.60 196.8399
1251.70 196.8362
1251.80 196.864
1251.90 196.8918
1252.00 196.9195
1252.10 196.9473
1252.20 196.9751
1252.30 197.0029
1252.40 197.0307
1252.50 197.0585
1252.60 197.0863
1252.70 197.114
1252.80 197.1418
1252.90 197.1696
1253.00 197.1974
1253.10 197.2252
1253.20 197.253
1253.30 197.2808
1253.40 197.3086
1253.50 197.3363
1253.60 197.3641
1253.70 197.3919
1253.80 197.4197
1253.90 197.4475
1254.00 197.4753
1254.10 197.5031
1254.20 197.5309
1254.30 197.5586
1254.40 197.5864
1254.50 197.6142
1254.60 197.642
1254.70 197.6698
1254.80 197.6976
1254.90 197.7254
1255.00 197.7531
1255.10 197.7809
1255.20 197.8087
1255.30 197.8365
1255.40 197.8643
1255.50 197.8921
1255.60 197.9199
1255.70 197.9477
1255.80 197.9754
1255.90 198.0032
1256.00 198.0181
1256.10 198.0136
1256.20 198.0092
1256.30 198.0047
1256.40 198.0002
1256.50 197.9957
1256.60 197.9912
1256.70 197.9868
1256.80 197.9823
1256.90 197.9778
1257.00 197.9733
1257.10 197.9688
1257.20 197.9644
1257.30 197.9599
1257.40 197.9554
1257.50 197.9509
1257.60 197.9464
1257.70 197.9419
1257.80 197.9375
1257.90 197.933
1258.00 197.9285
1258.10 197.924
1258.20 197.9195
1258.30 197.9151
1258.40 197.9106
1258.50 197.9061
1258.60 197.9016
1258.70 197.8971
1258.80 197.8927
1258.90 197.8882
1259.00 197.8837
1259.10 197.8792
1259.20 197.8747
1259.30 197.8703
1259.40 197.8658
1259.50 197.8613
1259.60 197.8568
1259.70 197.8523
1259.80 197.8479
1259.90 197.8434
1260.00 197.8389
1260.10 197.8344
1260.20 197.8299
1260.30 197.8465
1260.40 197.9475
1260.50 198.0484
1260.60 198.1494
1260.70 198.2503
1260.80 198.3512
1260.90 198.4522
1261.00 198.5531
1261.10 198.654
1261.20 198.755
1261.30 198.8559
1261.40 198.9568
1261.50 199.0578
1261.60 199.1587
1261.70 199.2596
1261.80 199.3606
1261.90 199.4615
1262.00 199.5625
1262.10 199.6634
1262.20 199.7643
1262.30 199.8653
1262.40 199.9662
1262.50 200.0671
1262.60 200.1681
1262.70 200.269
1262.80 200.3699
1262.90 200.4709
1263.00 200.5718
1263.10 200.6727
1263.20 200.7737
1263.30 200.8746
1263.40 200.9755
1263.50 201.0765
1263.60 201.1774
1263.70 201.2784
1263.80 201.3793
1263.90 201.4802
1264.00 201.5812
1264.10 201.6821
1264.20 201.783
1264.30 201.884
1264.40 201.9849
1264.50 202.0858
1264.60 202.184
1264.70 202.2576
1264.80 202.3311
1264.90 202.4046
1265.00 202.4782
1265.10 202.5517
1265.20 202.6252
1265.30 202.6988
1265.40 202.7723
1265.50 202.8458
1265.60 202.9194
1265.70 202.9929
1265.80 203.0664
1265.90 203.14
1266.00 203.2135
1266.10 203.2871
1266.20 203.3606
1266.30 203.4341
1266.40 203.5077
1266.50 203.5812
1266.60 203.6547
1266.70 203.7283
1266.80 203.8018
1266.90 203.8753
1267.00 203.9489
1267.10 204.0224
1267.20 204.0959
1267.30 204.1695
1267.40 204.243
1267.50 204.3165
1267.60 204.3901
1267.70 204.4636
1267.80 204.5371
1267.90 204.6107
1268.00 204.6842
1268.10 204.7577
1268.20 204.8313
1268.30 204.9048
1268.40 204.9784
1268.50 205.0519
1268.60 205.1254
1268.70 205.199
1268.80 205.2725
1268.90 205.346
1269.00 205.4112
1269.10 205.4764
1269.20 205.5415
1269.30 205.6067
1269.40 205.6719
1269.50 205.737
1269.60 205.8022
1269.70 205.8674
1269.80 205.9326
1269.90 205.9977
1270.00 206.0629
1270.10 206.1281
1270.20 206.1932
1270.30 206.2584
1270.40 206.3236
1270.50 206.3887
1270.60 206.4539
1270.70 206.5191
1270.80 206.5843
1270.90 206.6494
1271.00 206.7146
1271.10 206.7798
1271.20 206.8449
1271.30 206.9101
1271.40 206.9753
1271.50 207.0404
1271.60 207.1056
1271.70 207.1708
1271.80 207.236
1271.90 207.3011
1272.00 207.3663
1272.10 207.4315
1272.20 207.4966
1272.30 207.5618
1272.40 207.627
1272.50 207.6921
1272.60 207.7573
1272.70 207.8225
1272.80 207.8876
1272.90 207.9528
1273.00 208.018
1273.10 208.0832
1273.20 208.1483
1273.30 208.1997
1273.40 208.2476
1273.50 208.2955
1273.60 208.3434
1273.70 208.3913
1273.80 208.4392
1273.90 208.4871
1274.00 208.535
1274.10 208.583
1274.20 208.6309
1274.30 208.6788
1274.40 208.7267
1274.50 208.7746
1274.60 208.8225
1274.70 208.8704
1274.80 208.9183
1274.90 208.9662
1275.00 209.0141
1275.10 209.062
1275.20 209.11
1275.30 209.1579
1275.40 209.2058
1275.50 209.2537
1275.60 209.3016
1275.70 209.3495
1275.80 209.3974
1275.90 209.4453
1276.00 209.4932
1276.10 209.5411
1276.20 209.589
1276.30 209.6369
1276.40 209.6849
1276.50 209.7328
1276.60 209.7807
1276.70 209.8286
1276.80 209.8765
1276.90 209.9244
1277.00 209.9723
1277.10 210.0202
1277.20 210.0681
1277.30 210.116
1277.40 210.1639
1277.50 210.2118
1277.60 210.2428
1277.70 210.2624
1277.80 210.282
1277.90 210.3016
1278.00 210.3212
1278.10 210.3408
1278.20 210.3604
1278.30 210.38
1278.40 210.3996
1278.50 210.4192
1278.60 210.4388
1278.70 210.4584
1278.80 210.478
1278.90 210.4976
1279.00 210.5172
1279.10 210.5368
1279.20 210.5564
1279.30 210.576
1279.40 210.5956
1279.50 210.6152
1279.60 210.6348
1279.70 210.6544
1279.80 210.674
1279.90 210.6936
1280.00 210.7132
1280.10 210.7328
1280.20 210.7524
1280.30 210.772
1280.40 210.7916
1280.50 210.8112
1280.60 210.8308
1280.70 210.8504
1280.80 210.87
1280.90 210.8896
1281.00 210.9092
1281.10 210.9288
1281.20 210.9484
1281.30 210.968
1281.40 210.9876
1281.50 211.0072
1281.60 211.0268
1281.70 211.0464
1281.80 211.066
1281.90 211.0586
1282.00 211.0242
1282.10 210.9898
1282.20 210.9554
1282.30 210.921
1282.40 210.8866
1282.50 210.8522
1282.60 210.8178
1282.70 210.7834
1282.80 210.749
1282.90 210.7146
1283.00 210.6802
1283.10 210.6458
1283.20 210.6114
1283.30 210.577
1283.40 210.5426
1283.50 210.5081
1283.60 210.4737
1283.70 210.4393
1283.80 210.4049
1283.90 210.3705
1284.00 210.3361
1284.10 210.3017
1284.20 210.2673
1284.30 210.2329
1284.40 210.1985
1284.50 210.1641
1284.60 210.1297
1284.70 210.0953
1284.80 210.0609
1284.90 210.0265
1285.00 209.9921
1285.10 209.9577
1285.20 209.9233
1285.30 209.8889
1285.40 209.8545
1285.50 209.8201
1285.60 209.7857
1285.70 209.7513
1285.80 209.7169
1285.90 209.6825
1286.00 209.6481
1286.10 209.6137
1286.20 209.5992
1286.30 209.6314
1286.40 209.6636
1286.50 209.6958
1286.60 209.728
1286.70 209.7602
1286.80 209.7924
1286.90 209.8246
1287.00 209.8568
1287.10 209.889
1287.20 209.9212
1287.30 209.9534
1287.40 209.9856
1287.50 210.0178
1287.60 210.05
1287.70 210.0822
1287.80 210.1144
1287.90 210.1465
1288.00 210.1787
1288.10 210.2109
1288.20 210.2431
1288.30 210.2753
1288.40 210.3075
1288.50 210.3397
1288.60 210.3719
1288.70 210.4041
1288.80 210.4363
1288.90 210.4685
1289.00 210.5007
1289.10 210.5329
1289.20 210.5651
1289.30 210.5973
1289.40 210.6295
1289.50 210.6617
1289.60 210.6939
1289.70 210.7261
1289.80 210.7582
1289.90 210.7904
1290.00 210.8226
1290.10 210.8548
1290.20 210.887
1290.30 210.9192
1290.40 210.9514
1290.50 210.9772
1290.60 210.9455
1290.70 210.9138
1290.80 210.8821
1290.90 210.8504
1291.00 210.8187
1291.10 210.7871
1291.20 210.7554
1291.30 210.7237
1291.40 210.692
1291.50 210.6603
1291.60 210.6286
1291.70 210.5969
1291.80 210.5652
1291.90 210.5335
1292.00 210.5018
1292.10 210.4701
1292.20 210.4384
1292.30 210.4067
1292.40 210.375
1292.50 210.3433
1292.60 210.3116
1292.70 210.2799
1292.80 210.2482
1292.90 210.2165
1293.00 210.1848
1293.10 210.1532
1293.20 210.1215
1293.30 210.0898
1293.40 210.0581
1293.50 210.0264
1293.60 209.9947
1293.70 209.963
1293.80 209.9313
1293.90 209.8996
1294.00 209.8679
1294.10 209.8362
1294.20 209.8045
1294.30 209.7728
1294.40 209.7411
1294.50 209.7094
1294.60 209.6777
1294.70 209.646
1294.80 209.6143
1294.90 209.6267
1295.00 209.6439
1295.10 209.6611
1295.20 209.6783
1295.30 209.6955
1295.40 209.7128
1295.50 209.73
1295.60 209.7472
1295.70 209.7644
1295.80 209.7816
1295.90 209.7988
1296.00 209.8161
1296.10 209.8333
1296.20 209.8505
1296.30 209.8677
1296.40 209.8849
1296.50 209.9021
1296.60 209.9194
1296.70 209.9366
1296.80 209.9538
1296.90 209.971
1297.00 209.9882
1297.10 210.0055
1297.20 210.0227
1297.30 210.0399
1297.40 210.0571
1297.50 210.0743
1297.60 210.0915
1297.70 210.1088
1297.80 210.126
1297.90 210.1432
1298.00 210.1604
1298.10 210.1776
1298.20 210.1949
1298.30 210.2121
1298.40 210.2293
1298.50 210.2465
1298.60 210.2637
1298.70 210.2809
1298.80 210.2982
1298.90 210.3154
1299.00 210.3326
1299.10 210.3498
1299.20 210.3182
1299.30 210.2656
1299.40 210.2131
1299.50 210.1605
1299.60 210.108
1299.70 210.0554
1299.80 210.0029
1299.90 209.9503
