# Version 2.1 - nm, norm@500 to 1, cut digits
# Wavelength(nm)  Flambda(ergs/cm^s/s/nm)
300.00 0.00794852
300.10 0.007984919
300.20 0.008055751
300.30 0.008089986
300.40 0.008123347
300.50 0.008155808
300.60 0.008187366
300.70 0.008218041
300.80 0.008247864
300.90 0.008276872
301.00 0.008305104
301.10 0.008332596
301.20 0.008359386
301.30 0.008385504
301.40 0.008410983
301.50 0.008435852
301.60 0.008460138
301.70 0.008483866
301.80 0.008507062
301.90 0.008529748
302.00 0.008551946
302.10 0.008573676
302.20 0.008594959
302.30 0.008615812
302.40 0.008636253
302.50 0.008656298
302.60 0.008675963
302.70 0.008695262
302.80 0.008714209
302.90 0.008732818
303.00 0.008751101
303.10 0.00876907
303.20 0.008786738
303.30 0.008804126
303.40 0.008821268
303.50 0.008838221
303.60 0.008855069
303.70 0.008871934
303.80 0.008888974
303.90 0.008906373
304.00 0.008924335
304.10 0.008943061
304.20 0.008962737
304.30 0.008983516
304.40 0.009005511
304.50 0.009028791
304.60 0.009053388
304.70 0.009079303
304.80 0.009106516
304.90 0.009134999
305.00 0.009217332
305.10 0.009293426
305.20 0.009364159
305.30 0.009430813
305.40 0.009494817
305.50 0.009557504
305.60 0.009619926
305.70 0.009682775
305.80 0.009746384
305.90 0.009810806
306.00 0.009875885
306.10 0.009941382
306.20 0.01000707
306.30 0.01007274
306.40 0.01013823
306.50 0.01020343
306.60 0.01026823
306.70 0.01033261
306.80 0.01039654
306.90 0.01046
307.00 0.01052299
307.10 0.01058552
307.20 0.01064759
307.30 0.01070919
307.40 0.01077037
307.50 0.01083116
307.60 0.01089164
307.70 0.01095192
307.80 0.01101217
307.90 0.01107256
308.00 0.01113333
308.10 0.01119469
308.20 0.01125685
308.30 0.01132003
308.40 0.01138436
308.50 0.01144996
308.60 0.01151691
308.70 0.01158526
308.80 0.01165503
308.90 0.01172622
309.00 0.01179884
309.10 0.01187289
309.20 0.01194838
309.30 0.0120253
309.40 0.01210369
309.50 0.01218361
309.60 0.01226512
309.70 0.01234838
309.80 0.01243355
309.90 0.01252085
310.00 0.01261054
310.10 0.01270285
310.20 0.01279805
310.30 0.01289635
310.40 0.01299793
310.50 0.01310291
310.60 0.01321139
310.70 0.01332342
310.80 0.01343902
310.90 0.0135582
311.00 0.01368097
311.10 0.01380733
311.20 0.01393726
311.30 0.01407075
311.40 0.01420772
311.50 0.01434805
311.60 0.01449153
311.70 0.01463781
311.80 0.01478646
311.90 0.01493692
312.00 0.01508858
312.10 0.0152408
312.20 0.01539294
312.30 0.01554447
312.40 0.01569494
312.50 0.01584402
312.60 0.01599149
312.70 0.01613722
312.80 0.01628115
312.90 0.01642324
313.00 0.0165635
313.10 0.01670193
313.20 0.01683852
313.30 0.01697328
313.40 0.01710626
313.50 0.0172375
313.60 0.0173671
313.70 0.01749522
313.80 0.01762205
313.90 0.01774785
314.00 0.01787288
314.10 0.01799744
314.20 0.01812181
314.30 0.01824624
314.40 0.01837093
314.50 0.01849602
314.60 0.01862162
314.70 0.01874778
314.80 0.01887453
314.90 0.01900188
315.00 0.01912984
315.10 0.01925841
315.20 0.01938759
315.30 0.01951737
315.40 0.01964776
315.50 0.01977877
315.60 0.0199104
315.70 0.02004266
315.80 0.02017557
315.90 0.02030914
316.00 0.0204434
316.10 0.02057837
316.20 0.02071407
316.30 0.02085051
316.40 0.02098771
316.50 0.02112569
316.60 0.02126445
316.70 0.02140399
316.80 0.02154431
316.90 0.02168543
317.00 0.02182733
317.10 0.02197002
317.20 0.0221135
317.30 0.02225778
317.40 0.02240292
317.50 0.02254899
317.60 0.02269613
317.70 0.02284456
317.80 0.02299457
317.90 0.02314649
318.00 0.02330074
318.10 0.02345773
318.20 0.02361786
318.30 0.02378147
318.40 0.02394886
318.50 0.02412024
318.60 0.02429574
318.70 0.02447546
318.80 0.02465943
318.90 0.02484767
319.00 0.02504019
319.10 0.02523698
319.20 0.02543804
319.30 0.02564336
319.40 0.02585291
319.50 0.02606664
319.60 0.02628444
319.70 0.02650618
319.80 0.02673166
319.90 0.02696063
320.00 0.02719283
320.10 0.02742796
320.20 0.02766576
320.30 0.02790599
320.40 0.02814845
320.50 0.02839299
320.60 0.02863953
320.70 0.02888799
320.80 0.02913836
320.90 0.02939062
321.00 0.02964477
321.10 0.0299008
321.20 0.03015874
321.30 0.03041861
321.40 0.03068049
321.50 0.03094458
321.60 0.03121116
321.70 0.03148069
321.80 0.03175377
321.90 0.03203115
322.00 0.03231367
322.10 0.0326022
322.20 0.03289761
322.30 0.03320062
322.40 0.03351185
322.50 0.03383174
322.60 0.03416059
322.70 0.03449859
322.80 0.03484581
322.90 0.0352023
323.00 0.03556806
323.10 0.03594309
323.20 0.03632737
323.30 0.03672084
323.40 0.03712329
323.50 0.03753436
323.60 0.03795342
323.70 0.03837951
323.80 0.03881134
323.90 0.03924733
324.00 0.0396857
324.10 0.04012458
324.20 0.04056217
324.30 0.0409969
324.40 0.04142747
324.50 0.04185294
324.60 0.04227268
324.70 0.0426863
324.80 0.04309363
324.90 0.04349458
325.00 0.04388914
325.10 0.0442773
325.20 0.04465909
325.30 0.04503454
325.40 0.04540378
325.50 0.04576706
325.60 0.04612476
325.70 0.04647752
325.80 0.04682616
325.90 0.04717168
326.00 0.04751526
326.10 0.04785808
326.20 0.0482013
326.30 0.04854593
326.40 0.04889281
326.50 0.04924254
326.60 0.04959554
326.70 0.04995204
326.80 0.05031216
326.90 0.05067596
327.00 0.05104344
327.10 0.05141461
327.20 0.05178944
327.30 0.0521679
327.40 0.05254985
327.50 0.05293501
327.60 0.05332296
327.70 0.05371301
327.80 0.05410427
327.90 0.05449562
328.00 0.05488581
328.10 0.05527352
328.20 0.05565749
328.30 0.05603661
328.40 0.05640997
328.50 0.05677692
328.60 0.05713699
328.70 0.05748993
328.80 0.05783561
328.90 0.05817397
329.00 0.05850501
329.10 0.05882871
329.20 0.05914508
329.30 0.05945408
329.40 0.05975562
329.50 0.06004954
329.60 0.06033557
329.70 0.06061327
329.80 0.06088209
329.90 0.06114132
330.00 0.06139017
330.10 0.06162781
330.20 0.06185345
330.30 0.0620664
330.40 0.06226608
330.50 0.06245208
330.60 0.0626241
330.70 0.062782
330.80 0.06292568
330.90 0.06305511
331.00 0.06317028
331.10 0.0632712
331.20 0.06335787
331.30 0.06343038
331.40 0.06348888
331.50 0.06353372
331.60 0.06356547
331.70 0.06358501
331.80 0.06359348
331.90 0.06359235
332.00 0.06358322
332.10 0.0635678
332.20 0.06354772
332.30 0.0635244
332.40 0.06349902
332.50 0.06347245
332.60 0.06344525
332.70 0.06341777
332.80 0.06339018
332.90 0.06336255
333.00 0.06333489
333.10 0.06330721
333.20 0.0632795
333.30 0.06325182
333.40 0.06322424
333.50 0.06319695
333.60 0.06317025
333.70 0.0631446
333.80 0.06312061
333.90 0.06309903
334.00 0.06308073
334.10 0.06306659
334.20 0.06305748
334.30 0.06305415
334.40 0.06305721
334.50 0.06306712
334.60 0.06308419
334.70 0.06310858
334.80 0.0631404
334.90 0.06317968
335.00 0.06322642
335.10 0.06328063
335.20 0.0633423
335.30 0.06341138
335.40 0.06348776
335.50 0.06357123
335.60 0.06366141
335.70 0.06375774
335.80 0.06385949
335.90 0.06396571
336.00 0.06407538
336.10 0.06418739
336.20 0.0643007
336.30 0.06441439
336.40 0.06452771
336.50 0.0646401
336.60 0.06475119
336.70 0.06486076
336.80 0.0649687
336.90 0.06507497
337.00 0.06517956
337.10 0.06528247
337.20 0.06538369
337.30 0.06548322
337.40 0.06558105
337.50 0.06567713
337.60 0.06577142
337.70 0.06586382
337.80 0.06595421
337.90 0.06604246
338.00 0.0661284
338.10 0.06621185
338.20 0.06629267
338.30 0.06637069
338.40 0.06644581
338.50 0.06651794
338.60 0.06658702
338.70 0.06665302
338.80 0.06671591
338.90 0.0667757
339.00 0.06683238
339.10 0.06688595
339.20 0.06693643
339.30 0.06698387
339.40 0.06702842
339.50 0.06707039
339.60 0.06711028
339.70 0.06714884
339.80 0.0671871
339.90 0.06722633
340.00 0.06726794
340.10 0.06731342
340.20 0.06736421
340.30 0.06742155
340.40 0.06748648
340.50 0.06755976
340.60 0.06764188
340.70 0.06773315
340.80 0.06783372
340.90 0.06794364
341.00 0.06806294
341.10 0.0681916
341.20 0.06832963
341.30 0.06847698
341.40 0.06863357
341.50 0.06879923
341.60 0.06897365
341.70 0.06915639
341.80 0.06934684
341.90 0.06954427
342.00 0.06974784
342.10 0.06995667
342.20 0.07016991
342.30 0.07038683
342.40 0.07060683
342.50 0.07082946
342.60 0.07105442
342.70 0.07128153
342.80 0.07151071
342.90 0.07174192
343.00 0.07197516
343.10 0.07221042
343.20 0.07244772
343.30 0.07268709
343.40 0.07292866
343.50 0.07317265
343.60 0.07341946
343.70 0.07366965
343.80 0.07392401
343.90 0.07418351
344.00 0.07444924
344.10 0.07472234
344.20 0.07500389
344.30 0.07529486
344.40 0.07559603
344.50 0.07590798
344.60 0.07623111
344.70 0.07656563
344.80 0.07691166
344.90 0.07726925
345.00 0.07763841
345.10 0.07801914
345.20 0.07841141
345.30 0.07881515
345.40 0.07923014
345.50 0.07965594
345.60 0.08009185
345.70 0.08053677
345.80 0.08098923
345.90 0.08144744
346.00 0.08190935
346.10 0.08237283
346.20 0.08283584
346.30 0.08329657
346.40 0.08375356
346.50 0.08420573
346.60 0.08465235
346.70 0.08509299
346.80 0.08552744
346.90 0.08595562
347.00 0.0863775
347.10 0.08679308
347.20 0.0872024
347.30 0.08760563
347.40 0.08800316
347.50 0.08839581
347.60 0.08878493
347.70 0.08917258
347.80 0.08956151
347.90 0.08995514
348.00 0.09035732
348.10 0.09077205
348.20 0.09120319
348.30 0.09165415
348.40 0.09212768
348.50 0.09262585
348.60 0.09315
348.70 0.09370094
348.80 0.09427909
348.90 0.0948846
349.00 0.09551751
349.10 0.09617782
349.20 0.09686546
349.30 0.0975801
349.40 0.09832097
349.50 0.09908647
349.60 0.09987394
349.70 0.1006794
349.80 0.1014974
349.90 0.1023212
350.00 0.1031434
350.10 0.1039561
350.20 0.1047517
350.30 0.1055236
350.40 0.1062664
350.50 0.106976
350.60 0.1076498
350.70 0.1082862
350.80 0.1088844
350.90 0.1094441
351.00 0.1099652
351.10 0.1104478
351.20 0.1108918
351.30 0.1112973
351.40 0.1116647
351.50 0.1119946
351.60 0.1122879
351.70 0.1125461
351.80 0.1127713
351.90 0.1129658
352.00 0.1131325
352.10 0.1132743
352.20 0.1133939
352.30 0.1134939
352.40 0.1135763
352.50 0.1136425
352.60 0.1136935
352.70 0.1137299
352.80 0.113752
352.90 0.1137599
353.00 0.1137537
353.10 0.1137333
353.20 0.1136988
353.30 0.1136502
353.40 0.1135878
353.50 0.113512
353.60 0.1134235
353.70 0.1133234
353.80 0.1132132
353.90 0.1130947
354.00 0.1129701
354.10 0.1128413
354.20 0.1127105
354.30 0.1125796
354.40 0.1124499
354.50 0.1123226
354.60 0.1121984
354.70 0.1120777
354.80 0.1119608
354.90 0.1118478
355.00 0.1117386
355.10 0.1116333
355.20 0.1115318
355.30 0.1114343
355.40 0.111341
355.50 0.1112521
355.60 0.1111685
355.70 0.1110909
355.80 0.1110207
355.90 0.1109595
356.00 0.110909
356.10 0.1108712
356.20 0.1108477
356.30 0.1108403
356.40 0.1108502
356.50 0.1108783
356.60 0.1109252
356.70 0.1109914
356.80 0.111077
356.90 0.1111822
357.00 0.1113068
357.10 0.111451
357.20 0.1116146
357.30 0.1117977
357.40 0.1119998
357.50 0.1122205
357.60 0.1124587
357.70 0.112713
357.80 0.1129814
357.90 0.1132615
358.00 0.1135506
358.10 0.1138457
358.20 0.1141442
358.30 0.1144436
358.40 0.1147419
358.50 0.1150376
358.60 0.1153296
358.70 0.1156171
358.80 0.1158995
358.90 0.1161765
359.00 0.1164476
359.10 0.1167125
359.20 0.116971
359.30 0.1172229
359.40 0.1174691
359.50 0.117711
359.60 0.1179517
359.70 0.1181956
359.80 0.1184488
359.90 0.118719
360.00 0.1190147
360.10 0.1193448
360.20 0.119718
360.30 0.1201418
360.40 0.1206225
360.50 0.1211645
360.60 0.121771
360.70 0.1224437
360.80 0.1231835
360.90 0.1239908
361.00 0.1248657
361.10 0.1258082
361.20 0.1268181
361.30 0.1278951
361.40 0.129038
361.50 0.1302447
361.60 0.1315115
361.70 0.132833
361.80 0.1342016
361.90 0.1356083
362.00 0.1370426
362.10 0.1384939
362.20 0.1399517
362.30 0.141407
362.40 0.1428522
362.50 0.1442819
362.60 0.1456924
362.70 0.1470815
362.80 0.1484482
362.90 0.149792
363.00 0.1511129
363.10 0.1524107
363.20 0.1536856
363.30 0.1549374
363.40 0.1561661
363.50 0.1573713
363.60 0.1585526
363.70 0.1597093
363.80 0.1608405
363.90 0.1619451
364.00 0.1630217
364.10 0.164069
364.20 0.1650858
364.30 0.1660709
364.40 0.1670233
364.50 0.1679424
364.60 0.1688278
364.70 0.1696791
364.80 0.1704963
364.90 0.1712792
365.00 0.1720279
365.10 0.1727423
365.20 0.1734225
365.30 0.1740683
365.40 0.1746796
365.50 0.175256
365.60 0.1757967
365.70 0.1763007
365.80 0.1767666
365.90 0.1771927
366.00 0.1775771
366.10 0.1779177
366.20 0.1782125
366.30 0.1784598
366.40 0.1786582
366.50 0.1788067
366.60 0.1789046
366.70 0.1789515
366.80 0.1789472
366.90 0.1788915
367.00 0.1787846
367.10 0.1786263
367.20 0.1784167
367.30 0.178156
367.40 0.1778448
367.50 0.1774841
367.60 0.1770755
367.70 0.1766218
367.80 0.1761263
367.90 0.1755935
368.00 0.1750282
368.10 0.1744355
368.20 0.1738203
368.30 0.1731869
368.40 0.172539
368.50 0.1718791
368.60 0.1712092
368.70 0.1705304
368.80 0.1698435
368.90 0.169149
369.00 0.1684474
369.10 0.1677389
369.20 0.1670241
369.30 0.1663034
369.40 0.1655773
369.50 0.164847
369.60 0.1641137
369.70 0.1633796
369.80 0.1626473
369.90 0.1619202
370.00 0.1612018
370.10 0.1604961
370.20 0.1598067
370.30 0.1591369
370.40 0.1584893
370.50 0.157866
370.60 0.1572681
370.70 0.1566965
370.80 0.1561516
370.90 0.1556335
371.00 0.1551422
371.10 0.1546778
371.20 0.1542403
371.30 0.1538297
371.40 0.1534461
371.50 0.1530899
371.60 0.1527614
371.70 0.1524614
371.80 0.1521907
371.90 0.1519505
372.00 0.151742
372.10 0.1515666
372.20 0.1514255
372.30 0.1513198
372.40 0.1512504
372.50 0.1512181
372.60 0.1512233
372.70 0.1512661
372.80 0.1513469
372.90 0.1514655
373.00 0.1516221
373.10 0.1518166
373.20 0.152049
373.30 0.1523192
373.40 0.1526267
373.50 0.1529709
373.60 0.1533506
373.70 0.1537639
373.80 0.1542083
373.90 0.1546809
374.00 0.1551782
374.10 0.1556966
374.20 0.1562326
374.30 0.1567833
374.40 0.1573461
374.50 0.1579193
374.60 0.1585016
374.70 0.1590924
374.80 0.1596911
374.90 0.1602978
375.00 0.1609123
375.10 0.1615347
375.20 0.162165
375.30 0.1628029
375.40 0.1634482
375.50 0.1641001
375.60 0.1647575
375.70 0.1654186
375.80 0.166081
375.90 0.1667419
376.00 0.1673977
376.10 0.1680452
376.20 0.1686809
376.30 0.169302
376.40 0.169906
376.50 0.1704911
376.60 0.1710563
376.70 0.1716008
376.80 0.1721242
376.90 0.1726264
377.00 0.1731074
377.10 0.1735672
377.20 0.1740059
377.30 0.1744236
377.40 0.1748209
377.50 0.1751989
377.60 0.1755595
377.70 0.1759056
377.80 0.176241
377.90 0.1765703
378.00 0.1768989
378.10 0.1772324
378.20 0.177576
378.30 0.1779346
378.40 0.1783118
378.50 0.1787105
378.60 0.1791327
378.70 0.1795794
378.80 0.1800512
378.90 0.1805483
379.00 0.1810707
379.10 0.1816185
379.20 0.1821916
379.30 0.1827895
379.40 0.1834113
379.50 0.1840546
379.60 0.184716
379.70 0.1853902
379.80 0.1860698
379.90 0.1867458
380.00 0.1874082
380.10 0.1880465
380.20 0.1886504
380.30 0.1892111
380.40 0.1897213
380.50 0.1901757
380.60 0.1905705
380.70 0.1909038
380.80 0.1911744
380.90 0.1913819
381.00 0.1915263
381.10 0.1916075
381.20 0.1916256
381.30 0.1915809
381.40 0.1914741
381.50 0.1913067
381.60 0.1910813
381.70 0.1908014
381.80 0.1904722
381.90 0.1901
382.00 0.1896917
382.10 0.1892546
382.20 0.1887958
382.30 0.1883216
382.40 0.1878369
382.50 0.1873456
382.60 0.1868501
382.70 0.1863518
382.80 0.1858515
382.90 0.1853496
383.00 0.184846
383.10 0.1843408
383.20 0.183834
383.30 0.1833259
383.40 0.182817
383.50 0.1823085
383.60 0.1818021
383.70 0.1813008
383.80 0.1808084
383.90 0.1803296
384.00 0.1798697
384.10 0.1794343
384.20 0.1790287
384.30 0.1786577
384.40 0.178325
384.50 0.1780335
384.60 0.1777851
384.70 0.1775809
384.80 0.1774214
384.90 0.177307
385.00 0.1772376
385.10 0.1772132
385.20 0.1772338
385.30 0.1772991
385.40 0.1774084
385.50 0.1775602
385.60 0.1777523
385.70 0.177981
385.80 0.1782416
385.90 0.178528
386.00 0.1788337
386.10 0.1791516
386.20 0.1794749
386.30 0.1797979
386.40 0.1801157
386.50 0.1804246
386.60 0.1807224
386.70 0.1810077
386.80 0.1812796
386.90 0.181538
387.00 0.1817828
387.10 0.182014
387.20 0.1822315
387.30 0.1824357
387.40 0.1826269
387.50 0.1828058
387.60 0.182974
387.70 0.1831335
387.80 0.1832871
387.90 0.1834382
388.00 0.1835908
388.10 0.183749
388.20 0.1839166
388.30 0.1840972
388.40 0.1842936
388.50 0.1845077
388.60 0.1847412
388.70 0.1849946
388.80 0.1852686
388.90 0.1855631
389.00 0.1858783
389.10 0.1862142
389.20 0.1865707
389.30 0.1869475
389.40 0.1873442
389.50 0.1877597
389.60 0.1881919
389.70 0.1886382
389.80 0.1890946
389.90 0.1895566
390.00 0.1900188
390.10 0.1904756
390.20 0.1909218
390.30 0.1913526
390.40 0.1917643
390.50 0.192154
390.60 0.1925198
390.70 0.1928607
390.80 0.193176
390.90 0.1934656
391.00 0.1937293
391.10 0.1939673
391.20 0.1941796
391.30 0.194367
391.40 0.1945315
391.50 0.1946766
391.60 0.1948089
391.70 0.1949377
391.80 0.195076
391.90 0.1952394
392.00 0.195446
392.10 0.1957143
392.20 0.1960623
392.30 0.1965057
392.40 0.1970574
392.50 0.1977268
392.60 0.1985204
392.70 0.1994418
392.80 0.200493
392.90 0.2016746
393.00 0.202987
393.10 0.20443
393.20 0.2060035
393.30 0.2077071
393.40 0.2095394
393.50 0.211498
393.60 0.2135786
393.70 0.2157747
393.80 0.2180778
393.90 0.2204772
394.00 0.2229607
394.10 0.2255159
394.20 0.2281308
394.30 0.2307945
394.40 0.2334986
394.50 0.2362366
394.60 0.2390041
394.70 0.2417988
394.80 0.2446193
394.90 0.2474652
395.00 0.2503362
395.10 0.2532325
395.20 0.2561539
395.30 0.2591006
395.40 0.2620722
395.50 0.2650687
395.60 0.2680896
395.70 0.2711344
395.80 0.2742024
395.90 0.2772925
396.00 0.2804037
396.10 0.2835349
396.20 0.2866851
396.30 0.2898532
396.40 0.2930386
396.50 0.2962407
396.60 0.2994591
396.70 0.3026936
396.80 0.305944
396.90 0.3092103
397.00 0.3124926
397.10 0.3157907
397.20 0.3191047
397.30 0.3224344
397.40 0.3257791
397.50 0.3291377
397.60 0.3325085
397.70 0.3358884
397.80 0.3392737
397.90 0.3426597
398.00 0.346041
398.10 0.3494121
398.20 0.3527675
398.30 0.3561027
398.40 0.3594136
398.50 0.3626976
398.60 0.3659527
398.70 0.3691777
398.80 0.3723722
398.90 0.3755359
399.00 0.3786688
399.10 0.3817708
399.20 0.384842
399.30 0.3878825
399.40 0.3908929
399.50 0.393874
399.60 0.3968273
399.70 0.399755
399.80 0.4026601
399.90 0.4055465
400.00 0.4084183
400.10 0.4112799
400.20 0.4141355
400.30 0.4169889
400.40 0.4198431
400.50 0.4227003
400.60 0.4255621
400.70 0.4284293
400.80 0.4313024
400.90 0.4341815
401.00 0.4370666
401.10 0.4399579
401.20 0.4428552
401.30 0.4457584
401.40 0.4486672
401.50 0.4515807
401.60 0.4544979
401.70 0.4574168
401.80 0.460335
401.90 0.4632493
402.00 0.4661565
402.10 0.4690528
402.20 0.4719347
402.30 0.4747993
402.40 0.4776441
402.50 0.4804671
402.60 0.4832672
402.70 0.4860437
402.80 0.4887962
402.90 0.4915246
403.00 0.4942287
403.10 0.4969087
403.20 0.4995643
403.30 0.5021949
403.40 0.5047989
403.50 0.5073729
403.60 0.5099114
403.70 0.5124059
403.80 0.5148451
403.90 0.5172152
404.00 0.5195002
404.10 0.5216838
404.20 0.5237502
404.30 0.5256854
404.40 0.5274781
404.50 0.5291199
404.60 0.5306052
404.70 0.5319308
404.80 0.5330949
404.90 0.5340969
405.00 0.5349366
405.10 0.5356141
405.20 0.5361296
405.30 0.5364843
405.40 0.5366811
405.50 0.536726
405.60 0.536629
405.70 0.5364049
405.80 0.5360739
405.90 0.5356611
406.00 0.5351944
406.10 0.5347033
406.20 0.5342159
406.30 0.5337571
406.40 0.5333472
406.50 0.5330009
406.60 0.5327284
406.70 0.5325355
406.80 0.5324252
406.90 0.5323986
407.00 0.5324561
407.10 0.5325975
407.20 0.5328229
407.30 0.5331317
407.40 0.5335224
407.50 0.5339923
407.60 0.5345368
407.70 0.5351489
407.80 0.5358192
407.90 0.5365361
408.00 0.5372864
408.10 0.5380564
408.20 0.5388331
408.30 0.5396048
408.40 0.5403622
408.50 0.5410981
408.60 0.541808
408.70 0.5424892
408.80 0.5431402
408.90 0.5437605
409.00 0.54435
409.10 0.5449087
409.20 0.5454366
409.30 0.5459341
409.40 0.546402
409.50 0.5468419
409.60 0.5472566
409.70 0.5476502
409.80 0.5480282
409.90 0.5483977
410.00 0.5487663
410.10 0.5491421
410.20 0.5495329
410.30 0.5499457
410.40 0.5503859
410.50 0.5508578
410.60 0.551364
410.70 0.5519062
410.80 0.5524852
410.90 0.5531013
411.00 0.5537547
411.10 0.5544453
411.20 0.5551729
411.30 0.5559369
411.40 0.5567356
411.50 0.5575655
411.60 0.5584209
411.70 0.5592932
411.80 0.5601706
411.90 0.5610389
412.00 0.5618816
412.10 0.5626819
412.20 0.5634235
412.30 0.5640921
412.40 0.5646758
412.50 0.5651661
412.60 0.5655573
412.70 0.5658459
412.80 0.5660302
412.90 0.5661095
413.00 0.5660837
413.10 0.5659527
413.20 0.5657168
413.30 0.5653765
413.40 0.5649334
413.50 0.5643908
413.60 0.5637537
413.70 0.5630304
413.80 0.5622315
413.90 0.5613703
414.00 0.5604618
414.10 0.5595217
414.20 0.558565
414.30 0.5576049
414.40 0.5566523
414.50 0.5557152
414.60 0.5547987
414.70 0.5539061
414.80 0.553039
414.90 0.552198
415.00 0.5513832
415.10 0.5505947
415.20 0.5498322
415.30 0.549095
415.40 0.548381
415.50 0.5476865
415.60 0.5470048
415.70 0.5463259
415.80 0.5456365
415.90 0.54492
416.00 0.5441578
416.10 0.5433304
416.20 0.5424191
416.30 0.5414075
416.40 0.5402821
416.50 0.5390329
416.60 0.5376535
416.70 0.5361399
416.80 0.53449
416.90 0.5327032
417.00 0.5307792
417.10 0.5287181
417.20 0.5265201
417.30 0.5241865
417.40 0.5217203
417.50 0.5191276
417.60 0.5164188
417.70 0.5136095
417.80 0.5107205
417.90 0.5077777
418.00 0.5048104
418.10 0.501849
418.20 0.4989226
418.30 0.4960572
418.40 0.4932737
418.50 0.4905876
418.60 0.4880093
418.70 0.4855448
418.80 0.4831974
418.90 0.4809681
419.00 0.4788572
419.10 0.4768649
419.20 0.4749908
419.30 0.4732347
419.40 0.4715952
419.50 0.4700698
419.60 0.4686545
419.70 0.467343
419.80 0.4661268
419.90 0.4649957
420.00 0.463938
420.10 0.4629413
420.20 0.461994
420.30 0.4610857
420.40 0.460208
420.50 0.4593547
420.60 0.4585216
420.70 0.4577064
420.80 0.4569076
420.90 0.456125
421.00 0.4553583
421.10 0.4546075
421.20 0.4538726
421.30 0.4531536
421.40 0.4524502
421.50 0.451762
421.60 0.4510881
421.70 0.4504275
421.80 0.4497787
421.90 0.4491396
422.00 0.4485082
422.10 0.4478822
422.20 0.4472595
422.30 0.4466381
422.40 0.4460166
422.50 0.4453938
422.60 0.4447689
422.70 0.4441415
422.80 0.4435113
422.90 0.4428783
423.00 0.4422424
423.10 0.4416037
423.20 0.4409622
423.30 0.4403185
423.40 0.4396736
423.50 0.4390301
423.60 0.438392
423.70 0.4377654
423.80 0.4371583
423.90 0.4365811
424.00 0.436045
424.10 0.4355621
424.20 0.4351437
424.30 0.4348
424.40 0.4345392
424.50 0.4343673
424.60 0.4342884
424.70 0.4343048
424.80 0.4344179
424.90 0.4346281
425.00 0.4349354
425.10 0.4353399
425.20 0.4358417
425.30 0.4364416
425.40 0.4371411
425.50 0.4379436
425.60 0.4388548
425.70 0.439883
425.80 0.4410398
425.90 0.4423392
426.00 0.443797
426.10 0.44543
426.20 0.4472539
426.30 0.4492829
426.40 0.4515284
426.50 0.4539988
426.60 0.4566998
426.70 0.4596346
426.80 0.4628051
426.90 0.4662118
427.00 0.4698549
427.10 0.4737344
427.20 0.47785
427.30 0.4822002
427.40 0.4867815
427.50 0.4915866
427.60 0.4966036
427.70 0.5018143
427.80 0.5071942
427.90 0.5127132
428.00 0.5183371
428.10 0.5240304
428.20 0.529759
428.30 0.5354927
428.40 0.541207
428.50 0.5468838
428.60 0.5525111
428.70 0.5580816
428.80 0.5635918
428.90 0.5690403
429.00 0.5744267
429.10 0.579751
429.20 0.5850134
429.30 0.590214
429.40 0.5953536
429.50 0.6004337
429.60 0.6054567
429.70 0.6104263
429.80 0.6153474
429.90 0.6202262
430.00 0.6250694
430.10 0.6298845
430.20 0.6346781
430.30 0.6394565
430.40 0.6442246
430.50 0.648986
430.60 0.6537433
430.70 0.6584978
430.80 0.6632503
430.90 0.6680011
431.00 0.6727502
431.10 0.6774976
431.20 0.6822433
431.30 0.6869868
431.40 0.691727
431.50 0.6964619
431.60 0.7011878
431.70 0.7058992
431.80 0.710589
431.90 0.7152482
432.00 0.7198665
432.10 0.7244333
432.20 0.7289386
432.30 0.7333733
432.40 0.7377301
432.50 0.7420036
432.60 0.7461902
432.70 0.7502878
432.80 0.7542953
432.90 0.7582124
433.00 0.7620388
433.10 0.7657746
433.20 0.7694199
433.30 0.772975
433.40 0.7764407
433.50 0.7798189
433.60 0.7831123
433.70 0.7863252
433.80 0.7894635
433.90 0.7925345
434.00 0.7955461
434.10 0.7985069
434.20 0.801425
434.30 0.8043075
434.40 0.8071604
434.50 0.8099879
434.60 0.8127929
434.70 0.8155772
434.80 0.8183415
434.90 0.8210862
435.00 0.8238113
435.10 0.826517
435.20 0.829203
435.30 0.831869
435.40 0.8345138
435.50 0.837135
435.60 0.839729
435.70 0.8422898
435.80 0.8448099
435.90 0.8472795
436.00 0.8496878
436.10 0.8520237
436.20 0.8542761
436.30 0.8564356
436.40 0.8584944
436.50 0.8604467
436.60 0.8622887
436.70 0.8640182
436.80 0.8656339
436.90 0.8671354
437.00 0.8685227
437.10 0.8697957
437.20 0.8709546
437.30 0.8719998
437.40 0.8729326
437.50 0.8737555
437.60 0.8744728
437.70 0.8750909
437.80 0.8756183
437.90 0.8760656
438.00 0.876445
438.10 0.8767688
438.20 0.8770491
438.30 0.8772964
438.40 0.8775195
438.50 0.8777246
438.60 0.8779161
438.70 0.8780963
438.80 0.8782667
438.90 0.8784276
439.00 0.8785793
439.10 0.8787217
439.20 0.8788548
439.30 0.8789789
439.40 0.8790946
439.50 0.8792031
439.60 0.8793063
439.70 0.8794072
439.80 0.8795098
439.90 0.879619
440.00 0.8797405
440.10 0.87988
440.20 0.8800431
440.30 0.8802347
440.40 0.8804589
440.50 0.8807186
440.60 0.8810158
440.70 0.8813516
440.80 0.8817268
440.90 0.8821413
441.00 0.8825955
441.10 0.8830891
441.20 0.8836224
441.30 0.8841957
441.40 0.8848098
441.50 0.8854667
441.60 0.8861693
441.70 0.8869223
441.80 0.8877319
441.90 0.8886057
442.00 0.8895523
442.10 0.8905808
442.20 0.8916999
442.30 0.8929171
442.40 0.8942388
442.50 0.8956694
442.60 0.8972121
442.70 0.8988686
442.80 0.9006399
442.90 0.9025263
443.00 0.904528
443.10 0.9066448
443.20 0.9088769
443.30 0.9112241
443.40 0.9136862
443.50 0.9162629
443.60 0.9189535
443.70 0.9217571
443.80 0.9246725
443.90 0.927698
444.00 0.9308319
444.10 0.9340724
444.20 0.9374177
444.30 0.9408662
444.40 0.9444166
444.50 0.9480681
444.60 0.9518199
444.70 0.9556717
444.80 0.9596234
444.90 0.9636749
445.00 0.9678261
445.10 0.972077
445.20 0.9764274
445.30 0.9808759
445.40 0.9854197
445.50 0.9900523
445.60 0.9947634
445.70 0.9995374
445.80 1.004353
445.90 1.009184
446.00 1.014001
446.10 1.018774
446.20 1.023472
446.30 1.028071
446.40 1.032547
446.50 1.036887
446.60 1.041079
446.70 1.045117
446.80 1.048999
446.90 1.052723
447.00 1.056288
447.10 1.059695
447.20 1.062943
447.30 1.066035
447.40 1.068971
447.50 1.071757
447.60 1.074401
447.70 1.076913
447.80 1.07931
447.90 1.081611
448.00 1.083837
448.10 1.086012
448.20 1.088156
448.30 1.09029
448.40 1.092428
448.50 1.094583
448.60 1.096762
448.70 1.098969
448.80 1.101208
448.90 1.103478
449.00 1.105781
449.10 1.108115
449.20 1.110482
449.30 1.11288
449.40 1.11531
449.50 1.117772
449.60 1.120264
449.70 1.122785
449.80 1.125335
449.90 1.127911
450.00 1.130511
450.10 1.133134
450.20 1.135776
450.30 1.138437
450.40 1.141115
450.50 1.143809
450.60 1.146517
450.70 1.14924
450.80 1.151978
450.90 1.15473
451.00 1.157497
451.10 1.160277
451.20 1.163072
451.30 1.165881
451.40 1.168702
451.50 1.171533
451.60 1.17437
451.70 1.177206
451.80 1.180033
451.90 1.182839
452.00 1.185614
452.10 1.188344
452.20 1.191017
452.30 1.193623
452.40 1.196153
452.50 1.1986
452.60 1.200961
452.70 1.203232
452.80 1.205413
452.90 1.207504
453.00 1.209503
453.10 1.211411
453.20 1.213228
453.30 1.214954
453.40 1.216589
453.50 1.218135
453.60 1.219592
453.70 1.220962
453.80 1.222246
453.90 1.223449
454.00 1.224573
454.10 1.225622
454.20 1.226598
454.30 1.227505
454.40 1.228344
454.50 1.229118
454.60 1.229827
454.70 1.230473
454.80 1.231055
454.90 1.231573
455.00 1.232029
455.10 1.232421
455.20 1.23275
455.30 1.233016
455.40 1.233223
455.50 1.233375
455.60 1.233478
455.70 1.233544
455.80 1.233589
455.90 1.233632
456.00 1.233692
456.10 1.233794
456.20 1.233957
456.30 1.2342
456.40 1.23454
456.50 1.234986
456.60 1.235547
456.70 1.236227
456.80 1.237028
456.90 1.237952
457.00 1.238997
457.10 1.240166
457.20 1.241456
457.30 1.242867
457.40 1.244397
457.50 1.246039
457.60 1.247786
457.70 1.249625
457.80 1.251536
457.90 1.253498
458.00 1.255485
458.10 1.257473
458.20 1.259435
458.30 1.261349
458.40 1.263198
458.50 1.264968
458.60 1.26665
458.70 1.26824
458.80 1.269734
458.90 1.271131
459.00 1.272431
459.10 1.273635
459.20 1.274741
459.30 1.275752
459.40 1.276667
459.50 1.277488
459.60 1.278219
459.70 1.278864
459.80 1.27943
459.90 1.279925
460.00 1.280358
460.10 1.280738
460.20 1.281074
460.30 1.281374
460.40 1.281645
460.50 1.281892
460.60 1.282117
460.70 1.282323
460.80 1.28251
460.90 1.282679
461.00 1.28283
461.10 1.282963
461.20 1.283078
461.30 1.283176
461.40 1.283256
461.50 1.28332
461.60 1.28337
461.70 1.28341
461.80 1.283443
461.90 1.283475
462.00 1.283512
462.10 1.283559
462.20 1.283623
462.30 1.283709
462.40 1.283822
462.50 1.283963
462.60 1.284135
462.70 1.284341
462.80 1.284579
462.90 1.28485
463.00 1.285156
463.10 1.285494
463.20 1.285866
463.30 1.286271
463.40 1.286707
463.50 1.287172
463.60 1.287662
463.70 1.288169
463.80 1.288685
463.90 1.289199
464.00 1.289698
464.10 1.290169
464.20 1.290599
464.30 1.290977
464.40 1.291295
464.50 1.291545
464.60 1.291724
464.70 1.291828
464.80 1.291856
464.90 1.291808
465.00 1.291684
465.10 1.291483
465.20 1.291206
465.30 1.290853
465.40 1.290425
465.50 1.289923
465.60 1.289352
465.70 1.288714
465.80 1.288017
465.90 1.287268
466.00 1.286475
466.10 1.285648
466.20 1.284795
466.30 1.283923
466.40 1.283039
466.50 1.282147
466.60 1.28125
466.70 1.280351
466.80 1.279449
466.90 1.278545
467.00 1.27764
467.10 1.276733
467.20 1.275824
467.30 1.274913
467.40 1.274001
467.50 1.273088
467.60 1.272173
467.70 1.271256
467.80 1.270338
467.90 1.269419
468.00 1.2685
468.10 1.26758
468.20 1.266659
468.30 1.265739
468.40 1.264819
468.50 1.263898
468.60 1.262978
468.70 1.262059
468.80 1.261139
468.90 1.260221
469.00 1.259302
469.10 1.258384
469.20 1.257466
469.30 1.256547
469.40 1.255625
469.50 1.254696
469.60 1.253752
469.70 1.252782
469.80 1.251771
469.90 1.2507
470.00 1.249547
470.10 1.248292
470.20 1.246912
470.30 1.245389
470.40 1.243708
470.50 1.241857
470.60 1.23983
470.70 1.237621
470.80 1.235229
470.90 1.232652
471.00 1.229891
471.10 1.226944
471.20 1.223814
471.30 1.2205
471.40 1.217007
471.50 1.21334
471.60 1.209509
471.70 1.205532
471.80 1.20143
471.90 1.197228
472.00 1.192958
472.10 1.18865
472.20 1.184335
472.30 1.180039
472.40 1.175784
472.50 1.171586
472.60 1.167455
472.70 1.163398
472.80 1.159418
472.90 1.155516
473.00 1.151692
473.10 1.147947
473.20 1.14428
473.30 1.140692
473.40 1.137183
473.50 1.133755
473.60 1.130408
473.70 1.127146
473.80 1.123971
473.90 1.120889
474.00 1.117904
474.10 1.11502
474.20 1.112244
474.30 1.109578
474.40 1.107026
474.50 1.104592
474.60 1.102276
474.70 1.10008
474.80 1.098004
474.90 1.096048
475.00 1.094213
475.10 1.092498
475.20 1.090903
475.30 1.089428
475.40 1.088073
475.50 1.086834
475.60 1.08571
475.70 1.084697
475.80 1.083787
475.90 1.082975
476.00 1.082251
476.10 1.081608
476.20 1.081037
476.30 1.080531
476.40 1.080083
476.50 1.079691
476.60 1.07935
476.70 1.079059
476.80 1.078817
476.90 1.078624
477.00 1.07848
477.10 1.078385
477.20 1.078338
477.30 1.07834
477.40 1.078392
477.50 1.078494
477.60 1.078647
477.70 1.078854
477.80 1.079118
477.90 1.079441
478.00 1.079829
478.10 1.080284
478.20 1.080812
478.30 1.081415
478.40 1.082096
478.50 1.082857
478.60 1.0837
478.70 1.084626
478.80 1.085635
478.90 1.086727
479.00 1.087902
479.10 1.089161
479.20 1.090502
479.30 1.091928
479.40 1.093437
479.50 1.095031
479.60 1.096712
479.70 1.098482
479.80 1.100346
479.90 1.102307
480.00 1.104372
480.10 1.106544
480.20 1.108829
480.30 1.111232
480.40 1.113756
480.50 1.116404
480.60 1.119178
480.70 1.122078
480.80 1.125106
480.90 1.128261
481.00 1.131544
481.10 1.134955
481.20 1.138493
481.30 1.142158
481.40 1.145947
481.50 1.149859
481.60 1.153886
481.70 1.15802
481.80 1.162249
481.90 1.166559
482.00 1.170934
482.10 1.175356
482.20 1.179809
482.30 1.184278
482.40 1.188752
482.50 1.193221
482.60 1.197681
482.70 1.202128
482.80 1.20656
482.90 1.210976
483.00 1.215376
483.10 1.21976
483.20 1.224128
483.30 1.22848
483.40 1.232815
483.50 1.237131
483.60 1.241426
483.70 1.245696
483.80 1.249936
483.90 1.254139
484.00 1.258297
484.10 1.262403
484.20 1.26645
484.30 1.270431
484.40 1.274341
484.50 1.278175
484.60 1.281932
484.70 1.28561
484.80 1.289207
484.90 1.292724
485.00 1.29616
485.10 1.299516
485.20 1.302791
485.30 1.305986
485.40 1.309101
485.50 1.312136
485.60 1.315092
485.70 1.31797
485.80 1.320772
485.90 1.3235
486.00 1.326156
486.10 1.328741
486.20 1.331259
486.30 1.33371
486.40 1.336098
486.50 1.338422
486.60 1.340683
486.70 1.342883
486.80 1.34502
486.90 1.347096
487.00 1.34911
487.10 1.351063
487.20 1.352954
487.30 1.354782
487.40 1.356548
487.50 1.358249
487.60 1.359883
487.70 1.361445
487.80 1.36293
487.90 1.364331
488.00 1.36564
488.10 1.366849
488.20 1.36795
488.30 1.368936
488.40 1.369802
488.50 1.370543
488.60 1.371156
488.70 1.371641
488.80 1.371995
488.90 1.37222
489.00 1.372314
489.10 1.372277
489.20 1.372111
489.30 1.371814
489.40 1.371388
489.50 1.370833
489.60 1.370151
489.70 1.369345
489.80 1.368418
489.90 1.367373
490.00 1.366216
490.10 1.364952
490.20 1.363584
490.30 1.362118
490.40 1.360556
490.50 1.358901
490.60 1.357155
490.70 1.355318
490.80 1.353392
490.90 1.351375
491.00 1.349269
491.10 1.347074
491.20 1.344788
491.30 1.342413
491.40 1.339949
491.50 1.337396
491.60 1.334757
491.70 1.332032
491.80 1.329225
491.90 1.326339
492.00 1.323377
492.10 1.320344
492.20 1.317242
492.30 1.314076
492.40 1.310848
492.50 1.307559
492.60 1.304212
492.70 1.300807
492.80 1.297344
492.90 1.293823
493.00 1.290245
493.10 1.28661
493.20 1.282917
493.30 1.279167
493.40 1.275359
493.50 1.271493
493.60 1.267569
493.70 1.263587
493.80 1.259547
493.90 1.255447
494.00 1.251287
494.10 1.247067
494.20 1.242785
494.30 1.238442
494.40 1.234037
494.50 1.229569
494.60 1.225039
494.70 1.220446
494.80 1.215789
494.90 1.21107
495.00 1.206288
495.10 1.201444
495.20 1.196536
495.30 1.191566
495.40 1.186536
495.50 1.181449
495.60 1.176311
495.70 1.171131
495.80 1.16592
495.90 1.160693
496.00 1.155467
496.10 1.150259
496.20 1.145085
496.30 1.13996
496.40 1.134896
496.50 1.129901
496.60 1.124981
496.70 1.12014
496.80 1.11538
496.90 1.110701
497.00 1.106103
497.10 1.101586
497.20 1.097151
497.30 1.092797
497.40 1.088524
497.50 1.084331
497.60 1.080216
497.70 1.07618
497.80 1.072218
497.90 1.068328
498.00 1.064508
498.10 1.060753
498.20 1.05706
498.30 1.053427
498.40 1.049852
498.50 1.046332
498.60 1.042866
498.70 1.039455
498.80 1.036096
498.90 1.032791
499.00 1.02954
499.10 1.026342
499.20 1.023197
499.30 1.020105
499.40 1.017067
499.50 1.014083
499.60 1.011153
499.70 1.008278
499.80 1.005461
499.90 1.002701
500.00 1
500.10 0.9973607
500.20 0.9947842
500.30 0.9922719
500.40 0.9898251
500.50 0.9874445
500.60 0.9851307
500.70 0.9828841
500.80 0.9807048
500.90 0.9785929
501.00 0.9765485
501.10 0.9745715
501.20 0.9726618
501.30 0.9708193
501.40 0.9690432
501.50 0.9673326
501.60 0.9656852
501.70 0.9640981
501.80 0.9625673
501.90 0.9610876
502.00 0.9596533
502.10 0.9582586
502.20 0.9568978
502.30 0.9555657
502.40 0.9542583
502.50 0.9529726
502.60 0.9517066
502.70 0.9504591
502.80 0.9492294
502.90 0.9480174
503.00 0.9468229
503.10 0.945646
503.20 0.9444868
503.30 0.9433455
503.40 0.9422228
503.50 0.9411202
503.60 0.94004
503.70 0.9389859
503.80 0.9379627
503.90 0.9369764
504.00 0.9360337
504.10 0.9351416
504.20 0.9343071
504.30 0.9335359
504.40 0.9328331
504.50 0.9322021
504.60 0.9316453
504.70 0.9311643
504.80 0.9307597
504.90 0.9304317
505.00 0.9301805
505.10 0.930006
505.20 0.9299082
505.30 0.9298862
505.40 0.9299385
505.50 0.9300616
505.60 0.93025
505.70 0.9304951
505.80 0.9307854
505.90 0.9311067
506.00 0.9314431
506.10 0.9317779
506.20 0.932095
506.30 0.9323802
506.40 0.9326222
506.50 0.9328124
506.60 0.932945
506.70 0.9330169
506.80 0.9330262
506.90 0.9329724
507.00 0.9328551
507.10 0.9326746
507.20 0.9324308
507.30 0.9321239
507.40 0.9317546
507.50 0.9313242
507.60 0.9308347
507.70 0.9302894
507.80 0.9296925
507.90 0.9290494
508.00 0.928366
508.10 0.9276486
508.20 0.9269032
508.30 0.9261351
508.40 0.9253485
508.50 0.9245466
508.60 0.9237316
508.70 0.9229048
508.80 0.9220667
508.90 0.9212176
509.00 0.9203576
509.10 0.9194866
509.20 0.9186047
509.30 0.9177118
509.40 0.9168079
509.50 0.9158929
509.60 0.9149664
509.70 0.9140283
509.80 0.913078
509.90 0.912115
510.00 0.9111387
510.10 0.9101485
510.20 0.9091438
510.30 0.9081239
510.40 0.9070886
510.50 0.9060374
510.60 0.9049701
510.70 0.9038866
510.80 0.9027869
510.90 0.9016708
511.00 0.9005385
511.10 0.8993899
511.20 0.8982251
511.30 0.8970445
511.40 0.8958489
511.50 0.8946402
511.60 0.8934215
511.70 0.8921974
511.80 0.8909741
511.90 0.8897593
512.00 0.8885619
512.10 0.8873907
512.20 0.8862545
512.30 0.885161
512.40 0.8841164
512.50 0.8831255
512.60 0.8821912
512.70 0.8813153
512.80 0.8804988
512.90 0.8797421
513.00 0.8790452
513.10 0.8784082
513.20 0.877831
513.30 0.8773136
513.40 0.876856
513.50 0.876458
513.60 0.8761197
513.70 0.8758407
513.80 0.8756208
513.90 0.8754597
514.00 0.8753569
514.10 0.8753122
514.20 0.875325
514.30 0.8753952
514.40 0.8755224
514.50 0.8757064
514.60 0.8759471
514.70 0.8762444
514.80 0.8765983
514.90 0.8770087
515.00 0.8774757
515.10 0.8779992
515.20 0.8785795
515.30 0.8792177
515.40 0.8799162
515.50 0.8806803
515.60 0.8815186
515.70 0.8824442
515.80 0.8834746
515.90 0.8846317
516.00 0.8859399
516.10 0.8874248
516.20 0.889111
516.30 0.8910202
516.40 0.8931699
516.50 0.8955733
516.60 0.898239
516.70 0.9011721
516.80 0.9043753
516.90 0.9078496
517.00 0.9115952
517.10 0.915612
517.20 0.9199
517.30 0.9244584
517.40 0.929285
517.50 0.934376
517.60 0.9397247
517.70 0.9453208
517.80 0.9511508
517.90 0.9571979
518.00 0.963443
518.10 0.9698664
518.20 0.9764491
518.30 0.9831741
518.40 0.990028
518.50 0.9970005
518.60 1.004085
518.70 1.011277
518.80 1.018576
518.90 1.025979
519.00 1.033488
519.10 1.041102
519.20 1.04882
519.30 1.056642
519.40 1.064565
519.50 1.072584
519.60 1.08069
519.70 1.088868
519.80 1.097103
519.90 1.105369
520.00 1.113644
520.10 1.121899
520.20 1.13011
520.30 1.138255
520.40 1.146315
520.50 1.154277
520.60 1.162131
520.70 1.169873
520.80 1.1775
520.90 1.185011
521.00 1.192405
521.10 1.199683
521.20 1.206845
521.30 1.213892
521.40 1.220828
521.50 1.227658
521.60 1.234395
521.70 1.241054
521.80 1.247658
521.90 1.254235
522.00 1.260815
522.10 1.267431
522.20 1.274114
522.30 1.280892
522.40 1.287787
522.50 1.294815
522.60 1.301988
522.70 1.309313
522.80 1.316792
522.90 1.324426
523.00 1.332216
523.10 1.340163
523.20 1.348265
523.30 1.356523
523.40 1.364934
523.50 1.373494
523.60 1.382197
523.70 1.391035
523.80 1.399993
523.90 1.409056
524.00 1.418208
524.10 1.427428
524.20 1.436699
524.30 1.446007
524.40 1.455337
524.50 1.46468
524.60 1.47403
524.70 1.483384
524.80 1.492739
524.90 1.502095
525.00 1.511452
525.10 1.520809
525.20 1.530167
525.30 1.539523
525.40 1.548872
525.50 1.558205
525.60 1.567506
525.70 1.576751
525.80 1.585908
525.90 1.594936
526.00 1.60379
526.10 1.612424
526.20 1.620791
526.30 1.628851
526.40 1.636573
526.50 1.643933
526.60 1.650913
526.70 1.657505
526.80 1.663704
526.90 1.669508
527.00 1.674917
527.10 1.67993
527.20 1.684549
527.30 1.688774
527.40 1.692611
527.50 1.69607
527.60 1.699166
527.70 1.701925
527.80 1.704378
527.90 1.706567
528.00 1.708537
528.10 1.710336
528.20 1.712011
528.30 1.713601
528.40 1.715139
528.50 1.716651
528.60 1.718152
528.70 1.719652
528.80 1.721155
528.90 1.722664
529.00 1.724179
529.10 1.7257
529.20 1.727227
529.30 1.728761
529.40 1.730303
529.50 1.731856
529.60 1.733426
529.70 1.735021
529.80 1.73665
529.90 1.738328
530.00 1.740068
530.10 1.741886
530.20 1.743797
530.30 1.745813
530.40 1.747946
530.50 1.750203
530.60 1.752589
530.70 1.755107
530.80 1.757759
530.90 1.760546
531.00 1.763468
531.10 1.766524
531.20 1.769714
531.30 1.773037
531.40 1.776488
531.50 1.78006
531.60 1.783737
531.70 1.787499
531.80 1.791317
531.90 1.795157
532.00 1.798977
532.10 1.802737
532.20 1.806397
532.30 1.809921
532.40 1.813281
532.50 1.816457
532.60 1.819432
532.70 1.822201
532.80 1.824757
532.90 1.8271
533.00 1.829229
533.10 1.831144
533.20 1.832845
533.30 1.834333
533.40 1.83561
533.50 1.836679
533.60 1.837545
533.70 1.838218
533.80 1.838707
533.90 1.839029
534.00 1.839197
534.10 1.839229
534.20 1.839142
534.30 1.838947
534.40 1.838659
534.50 1.838283
534.60 1.837827
534.70 1.837294
534.80 1.836685
534.90 1.836001
535.00 1.835242
535.10 1.834408
535.20 1.833499
535.30 1.832517
535.40 1.831463
535.50 1.830343
535.60 1.829165
535.70 1.827941
535.80 1.826688
535.90 1.825427
536.00 1.824181
536.10 1.822974
536.20 1.82183
536.30 1.82077
536.40 1.81981
536.50 1.818962
536.60 1.818235
536.70 1.817633
536.80 1.81716
536.90 1.816816
537.00 1.816601
537.10 1.816516
537.20 1.816559
537.30 1.81673
537.40 1.817025
537.50 1.817435
537.60 1.817947
537.70 1.818542
537.80 1.819193
537.90 1.819865
538.00 1.820523
538.10 1.821126
538.20 1.821637
538.30 1.822023
538.40 1.822258
538.50 1.822321
538.60 1.822198
538.70 1.821883
538.80 1.821371
538.90 1.82066
539.00 1.81975
539.10 1.818642
539.20 1.817335
539.30 1.815831
539.40 1.814133
539.50 1.812247
539.60 1.810185
539.70 1.807963
539.80 1.805602
539.90 1.803131
540.00 1.80058
540.10 1.797981
540.20 1.795365
540.30 1.79276
540.40 1.790187
540.50 1.787664
540.60 1.7852
540.70 1.782803
540.80 1.780476
540.90 1.778219
541.00 1.776034
541.10 1.77392
541.20 1.771877
541.30 1.769905
541.40 1.768004
541.50 1.766172
541.60 1.764409
541.70 1.762711
541.80 1.761075
541.90 1.759498
542.00 1.757975
542.10 1.756502
542.20 1.755073
542.30 1.753685
542.40 1.752335
542.50 1.751021
542.60 1.74974
542.70 1.748492
542.80 1.747277
542.90 1.746093
543.00 1.744942
543.10 1.743823
543.20 1.742736
543.30 1.741681
543.40 1.740657
543.50 1.739662
543.60 1.738693
543.70 1.737746
543.80 1.736815
543.90 1.735893
544.00 1.734971
544.10 1.734041
544.20 1.733095
544.30 1.732125
544.40 1.731126
544.50 1.730093
544.60 1.729023
544.70 1.727914
544.80 1.726767
544.90 1.725579
545.00 1.724352
545.10 1.723085
545.20 1.721779
545.30 1.720433
545.40 1.719052
545.50 1.717638
545.60 1.7162
545.70 1.714749
545.80 1.7133
545.90 1.711872
546.00 1.710486
546.10 1.709165
546.20 1.707929
546.30 1.706798
546.40 1.705787
546.50 1.704907
546.60 1.704165
546.70 1.703567
546.80 1.703114
546.90 1.702808
547.00 1.702648
547.10 1.702634
547.20 1.702767
547.30 1.703046
547.40 1.703472
547.50 1.704044
547.60 1.704762
547.70 1.705627
547.80 1.706637
547.90 1.707793
548.00 1.709094
548.10 1.71054
548.20 1.712131
548.30 1.713867
548.40 1.715746
548.50 1.71777
548.60 1.719938
548.70 1.722249
548.80 1.724705
548.90 1.727304
549.00 1.730047
549.10 1.732934
549.20 1.735964
549.30 1.739138
549.40 1.742451
549.50 1.745901
549.60 1.749479
549.70 1.753173
549.80 1.756968
549.90 1.760845
550.00 1.721276
550.10 1.723689
550.20 1.726358
550.30 1.729284
550.40 1.732466
550.50 1.735902
550.60 1.739588
550.70 1.743518
550.80 1.747687
550.90 1.752084
551.00 1.7567
551.10 1.761525
551.20 1.766549
551.30 1.771762
551.40 1.777158
551.50 1.782732
551.60 1.788479
551.70 1.794398
551.80 1.800488
551.90 1.806748
552.00 1.813178
552.10 1.819779
552.20 1.826549
552.30 1.833487
552.40 1.840586
552.50 1.847835
552.60 1.855215
552.70 1.862695
552.80 1.870236
552.90 1.877789
553.00 1.885298
553.10 1.892705
553.20 1.899956
553.30 1.907
553.40 1.913798
553.50 1.920321
553.60 1.926549
553.70 1.93247
553.80 1.938078
553.90 1.943371
554.00 1.948349
554.10 1.953012
554.20 1.957359
554.30 1.96139
554.40 1.965107
554.50 1.968511
554.60 1.971603
554.70 1.974387
554.80 1.976867
554.90 1.979047
555.00 1.980934
555.10 1.982533
555.20 1.98385
555.30 1.98489
555.40 1.985656
555.50 1.986153
555.60 1.986382
555.70 1.986345
555.80 1.986041
555.90 1.985471
556.00 1.984635
556.10 1.983534
556.20 1.982166
556.30 1.980534
556.40 1.97864
556.50 1.976488
556.60 1.974086
556.70 1.971447
556.80 1.968585
556.90 1.965521
557.00 1.962278
557.10 1.958878
557.20 1.955344
557.30 1.951696
557.40 1.947949
557.50 1.944116
557.60 1.940205
557.70 1.93622
557.80 1.932163
557.90 1.928036
558.00 1.923838
558.10 1.91957
558.20 1.915232
558.30 1.910827
558.40 1.90636
558.50 1.901843
558.60 1.897296
558.70 1.892747
558.80 1.888238
558.90 1.883816
559.00 1.879537
559.10 1.875458
559.20 1.871636
559.30 1.868119
559.40 1.864947
559.50 1.862149
559.60 1.859745
559.70 1.857747
559.80 1.856159
559.90 1.854985
560.00 1.854226
560.10 1.85388
560.20 1.853949
560.30 1.85443
560.40 1.855323
560.50 1.856624
560.60 1.858327
560.70 1.860423
560.80 1.862899
560.90 1.86574
561.00 1.868929
561.10 1.872449
561.20 1.876282
561.30 1.880414
561.40 1.884831
561.50 1.889525
561.60 1.89449
561.70 1.899722
561.80 1.905219
561.90 1.910981
562.00 1.917007
562.10 1.923298
562.20 1.929853
562.30 1.936669
562.40 1.94374
562.50 1.951053
562.60 1.958586
562.70 1.966306
562.80 1.97417
562.90 1.982122
563.00 1.990102
563.10 1.998045
563.20 2.005889
563.30 2.013581
563.40 2.021075
563.50 2.02834
563.60 2.035353
563.70 2.042101
563.80 2.048579
563.90 2.054783
564.00 2.060713
564.10 2.066369
564.20 2.071751
564.30 2.07686
564.40 2.081699
564.50 2.086273
564.60 2.09059
564.70 2.094663
564.80 2.09851
564.90 2.102152
565.00 2.105614
565.10 2.108921
565.20 2.112097
565.30 2.115163
565.40 2.118138
565.50 2.121034
565.60 2.123859
565.70 2.126619
565.80 2.129316
565.90 2.131952
566.00 2.134526
566.10 2.137039
566.20 2.13949
566.30 2.14188
566.40 2.144209
566.50 2.146477
566.60 2.148686
566.70 2.150838
566.80 2.152934
566.90 2.154978
567.00 2.156972
567.10 2.158919
567.20 2.160823
567.30 2.162686
567.40 2.164511
567.50 2.1663
567.60 2.168052
567.70 2.16977
567.80 2.171452
567.90 2.1731
568.00 2.174714
568.10 2.176292
568.20 2.177837
568.30 2.179348
568.40 2.180827
568.50 2.182279
568.60 2.18371
568.70 2.185131
568.80 2.186556
568.90 2.188002
569.00 2.189489
569.10 2.191036
569.20 2.192664
569.30 2.194389
569.40 2.196226
569.50 2.198184
569.60 2.200272
569.70 2.202492
569.80 2.204847
569.90 2.207338
570.00 2.209965
570.10 2.212728
570.20 2.215627
570.30 2.218662
570.40 2.221831
570.50 2.225133
570.60 2.228567
570.70 2.232127
570.80 2.235809
570.90 2.239606
571.00 2.243511
571.10 2.247516
571.20 2.251615
571.30 2.255801
571.40 2.260068
571.50 2.264413
571.60 2.268833
571.70 2.273327
571.80 2.277894
571.90 2.282533
572.00 2.287245
572.10 2.292029
572.20 2.296886
572.30 2.301812
572.40 2.306802
572.50 2.311846
572.60 2.316925
572.70 2.322011
572.80 2.327067
572.90 2.332046
573.00 2.336897
573.10 2.341564
573.20 2.345996
573.30 2.350146
573.40 2.353977
573.50 2.35746
573.60 2.360579
573.70 2.363321
573.80 2.365681
573.90 2.367658
574.00 2.369249
574.10 2.370456
574.20 2.371279
574.30 2.37172
574.40 2.371782
574.50 2.371476
574.60 2.370815
574.70 2.369822
574.80 2.368528
574.90 2.366969
575.00 2.365188
575.10 2.363228
575.20 2.361131
575.30 2.358935
575.40 2.35667
575.50 2.354359
575.60 2.352015
575.70 2.349648
575.80 2.347263
575.90 2.344861
576.00 2.342442
576.10 2.340007
576.20 2.337555
576.30 2.335088
576.40 2.332606
576.50 2.330114
576.60 2.327616
576.70 2.325121
576.80 2.322639
576.90 2.320185
577.00 2.317772
577.10 2.315418
577.20 2.313137
577.30 2.310943
577.40 2.308846
577.50 2.306855
577.60 2.304976
577.70 2.303211
577.80 2.301562
577.90 2.30003
578.00 2.298614
578.10 2.297315
578.20 2.296133
578.30 2.295068
578.40 2.294121
578.50 2.293291
578.60 2.292581
578.70 2.291992
578.80 2.291527
578.90 2.291189
579.00 2.290981
579.10 2.290907
579.20 2.290971
579.30 2.291175
579.40 2.291523
579.50 2.292015
579.60 2.292654
579.70 2.29344
579.80 2.294374
579.90 2.295455
580.00 2.296683
580.10 2.29806
580.20 2.299583
580.30 2.301253
580.40 2.303065
580.50 2.305012
580.60 2.307083
580.70 2.309261
580.80 2.311522
580.90 2.313836
581.00 2.316172
581.10 2.318494
581.20 2.320769
581.30 2.322969
581.40 2.32507
581.50 2.327055
581.60 2.328912
581.70 2.330633
581.80 2.332216
581.90 2.333659
582.00 2.334962
582.10 2.336125
582.20 2.337147
582.30 2.338028
582.40 2.338766
582.50 2.339355
582.60 2.339789
582.70 2.340055
582.80 2.340139
582.90 2.340021
583.00 2.339679
583.10 2.339092
583.20 2.338236
583.30 2.337094
583.40 2.33565
583.50 2.333892
583.60 2.331813
583.70 2.329407
583.80 2.326674
583.90 2.323611
584.00 2.320219
584.10 2.316498
584.20 2.312447
584.30 2.308062
584.40 2.303333
584.50 2.298241
584.60 2.292755
584.70 2.286825
584.80 2.280387
584.90 2.273361
585.00 2.265655
585.10 2.257174
585.20 2.247828
585.30 2.237536
585.40 2.226233
585.50 2.213871
585.60 2.200417
585.70 2.185853
585.80 2.170168
585.90 2.15336
586.00 2.135426
586.10 2.116368
586.20 2.096188
586.30 2.074896
586.40 2.052521
586.50 2.029119
586.60 2.004783
586.70 1.979654
586.80 1.953923
586.90 1.927824
587.00 1.901624
587.10 1.875598
587.20 1.850011
587.30 1.825099
587.40 1.801053
587.50 1.778012
587.60 1.756071
587.70 1.735286
587.80 1.715684
587.90 1.697277
588.00 1.680067
588.10 1.664055
588.20 1.649239
588.30 1.635624
588.40 1.623214
588.50 1.612018
588.60 1.602055
588.70 1.59335
588.80 1.585938
588.90 1.579863
589.00 1.575173
589.10 1.571918
589.20 1.570149
589.30 1.569908
589.40 1.571229
589.50 1.574139
589.60 1.578656
589.70 1.584789
589.80 1.592543
589.90 1.601921
590.00 1.612923
590.10 1.625549
590.20 1.639796
590.30 1.655652
590.40 1.673086
590.50 1.692037
590.60 1.712401
590.70 1.734023
590.80 1.756694
590.90 1.780154
591.00 1.804111
591.10 1.82826
591.20 1.85231
591.30 1.876001
591.40 1.899123
591.50 1.921521
591.60 1.943092
591.70 1.963774
591.80 1.983537
591.90 2.002368
592.00 2.020264
592.10 2.037226
592.20 2.053254
592.30 2.068352
592.40 2.082527
592.50 2.095795
592.60 2.108183
592.70 2.119733
592.80 2.130497
592.90 2.140545
593.00 2.149951
593.10 2.158795
593.20 2.167154
593.30 2.175094
593.40 2.182671
593.50 2.189924
593.60 2.196881
593.70 2.203558
593.80 2.209962
593.90 2.216097
594.00 2.221964
594.10 2.227562
594.20 2.232892
594.30 2.237955
594.40 2.242754
594.50 2.247294
594.60 2.251587
594.70 2.255647
594.80 2.259493
594.90 2.263152
595.00 2.266651
595.10 2.270019
595.20 2.273286
595.30 2.276475
595.40 2.279608
595.50 2.282698
595.60 2.285757
595.70 2.28879
595.80 2.291799
595.90 2.294787
596.00 2.297753
596.10 2.300698
596.20 2.303621
596.30 2.306522
596.40 2.3094
596.50 2.312254
596.60 2.315082
596.70 2.317881
596.80 2.320644
596.90 2.323368
597.00 2.326045
597.10 2.328668
597.20 2.33123
597.30 2.333727
597.40 2.336153
597.50 2.338505
597.60 2.340781
597.70 2.342979
597.80 2.345098
597.90 2.347138
598.00 2.349099
598.10 2.350982
598.20 2.352785
598.30 2.354511
598.40 2.356162
598.50 2.357741
598.60 2.359257
598.70 2.360721
598.80 2.362148
598.90 2.363556
599.00 2.364969
599.10 2.366407
599.20 2.367892
599.30 2.369443
599.40 2.371076
599.50 2.372801
599.60 2.374626
599.70 2.376556
599.80 2.378593
599.90 2.380738
600.00 2.375913
600.10 2.377187
600.20 2.378467
600.30 2.379766
600.40 2.381114
600.50 2.382561
600.60 2.384175
600.70 2.386039
600.80 2.38824
600.90 2.390858
601.00 2.393946
601.10 2.397524
601.20 2.401573
601.30 2.406039
601.40 2.410842
601.50 2.415895
601.60 2.421115
601.70 2.426433
601.80 2.4318
601.90 2.437188
602.00 2.44258
602.10 2.447972
602.20 2.453361
602.30 2.458738
602.40 2.464085
602.50 2.469371
602.60 2.474555
602.70 2.479587
602.80 2.484411
602.90 2.48898
603.00 2.49326
603.10 2.49724
603.20 2.500932
603.30 2.504369
603.40 2.507598
603.50 2.510675
603.60 2.513649
603.70 2.516563
603.80 2.519447
603.90 2.522318
604.00 2.525187
604.10 2.528055
604.20 2.530922
604.30 2.533779
604.40 2.536613
604.50 2.5394
604.60 2.542108
604.70 2.544697
604.80 2.547127
604.90 2.549359
605.00 2.551367
605.10 2.553144
605.20 2.554697
605.30 2.556053
605.40 2.557249
605.50 2.558326
605.60 2.559324
605.70 2.560276
605.80 2.561204
605.90 2.562123
606.00 2.563039
606.10 2.563956
606.20 2.564869
606.30 2.565771
606.40 2.566641
606.50 2.567448
606.60 2.568151
606.70 2.568696
606.80 2.569028
606.90 2.569098
607.00 2.56887
607.10 2.568334
607.20 2.5675
607.30 2.566404
607.40 2.565095
607.50 2.563628
607.60 2.562056
607.70 2.560422
607.80 2.558757
607.90 2.557079
608.00 2.555399
608.10 2.553718
608.20 2.552038
608.30 2.55036
608.40 2.548688
608.50 2.547026
608.60 2.545382
608.70 2.543765
608.80 2.542184
608.90 2.540648
609.00 2.539163
609.10 2.537731
609.20 2.53635
609.30 2.535014
609.40 2.533714
609.50 2.53244
609.60 2.531185
609.70 2.529941
609.80 2.528702
609.90 2.527465
610.00 2.526228
610.10 2.524992
610.20 2.523747
610.30 2.522466
610.40 2.521094
610.50 2.519541
610.60 2.517682
610.70 2.515364
610.80 2.512425
610.90 2.508722
611.00 2.504154
611.10 2.498686
611.20 2.492353
611.30 2.485256
611.40 2.477538
611.50 2.469361
611.60 2.460878
611.70 2.452214
611.80 2.443459
611.90 2.434668
612.00 2.425868
612.10 2.417069
612.20 2.408287
612.30 2.399583
612.40 2.391074
612.50 2.382954
612.60 2.37549
612.70 2.36901
612.80 2.363861
612.90 2.360353
613.00 2.358698
613.10 2.358975
613.20 2.361107
613.30 2.364878
613.40 2.36998
613.50 2.376067
613.60 2.38281
613.70 2.389941
613.80 2.397268
613.90 2.404672
614.00 2.412094
614.10 2.419516
614.20 2.426901
614.30 2.434122
614.40 2.440931
614.50 2.446922
614.60 2.45153
614.70 2.454063
614.80 2.453792
614.90 2.450064
615.00 2.442429
615.10 2.430724
615.20 2.415111
615.30 2.396042
615.40 2.374169
615.50 2.350221
615.60 2.324889
615.70 2.29874
615.80 2.272179
615.90 2.245454
616.00 2.218691
616.10 2.191929
616.20 2.165212
616.30 2.138697
616.40 2.112691
616.50 2.087691
616.60 2.064395
616.70 2.043654
616.80 2.026368
616.90 2.013339
617.00 2.005123
617.10 2.00192
617.20 2.00353
617.30 2.009397
617.40 2.018718
617.50 2.030595
617.60 2.044176
617.70 2.058764
617.80 2.07386
617.90 2.089157
618.00 2.1045
618.10 2.119844
618.20 2.135164
618.30 2.150384
618.40 2.165349
618.50 2.179813
618.60 2.193425
618.70 2.20576
618.80 2.216371
618.90 2.224855
619.00 2.230936
619.10 2.234513
619.20 2.235685
619.30 2.234732
619.40 2.232054
619.50 2.228099
619.60 2.223293
619.70 2.217985
619.80 2.212422
619.90 2.206759
620.00 2.201073
620.10 2.195387
620.20 2.189702
620.30 2.184019
620.40 2.178342
620.50 2.172678
620.60 2.167035
620.70 2.161423
620.80 2.155855
620.90 2.150339
621.00 2.144883
621.10 2.13949
621.20 2.134156
621.30 2.128875
621.40 2.123636
621.50 2.11843
621.60 2.113244
621.70 2.108072
621.80 2.102905
621.90 2.097741
622.00 2.092577
622.10 2.087414
622.20 2.082256
622.30 2.077126
622.40 2.072063
622.50 2.067134
622.60 2.062432
622.70 2.058069
622.80 2.054167
622.90 2.05083
623.00 2.048135
623.10 2.046106
623.20 2.044717
623.30 2.043895
623.40 2.043533
623.50 2.04351
623.60 2.043715
623.70 2.044053
623.80 2.044459
623.90 2.044891
624.00 2.04533
624.10 2.045769
624.20 2.046213
624.30 2.046682
624.40 2.047212
624.50 2.047863
624.60 2.048719
624.70 2.049884
624.80 2.051465
624.90 2.053559
625.00 2.056233
625.10 2.059512
625.20 2.06337
625.30 2.067742
625.40 2.07253
625.50 2.077626
625.60 2.082927
625.70 2.08835
625.80 2.093834
625.90 2.099342
626.00 2.104856
626.10 2.11037
626.20 2.115885
626.30 2.121408
626.40 2.12695
626.50 2.132528
626.60 2.138169
626.70 2.143904
626.80 2.149765
626.90 2.155783
627.00 2.161978
627.10 2.168356
627.20 2.174911
627.30 2.181622
627.40 2.18846
627.50 2.195392
627.60 2.202386
627.70 2.209417
627.80 2.216467
627.90 2.223524
628.00 2.230583
628.10 2.237642
628.20 2.244695
628.30 2.251722
628.40 2.258682
628.50 2.265511
628.60 2.272118
628.70 2.278391
628.80 2.284214
628.90 2.289481
629.00 2.29412
629.10 2.298106
629.20 2.301463
629.30 2.304265
629.40 2.306616
629.50 2.308634
629.60 2.31043
629.70 2.312095
629.80 2.313693
629.90 2.315264
630.00 2.31683
630.10 2.318396
630.20 2.319962
630.30 2.321526
630.40 2.323089
630.50 2.324648
630.60 2.326201
630.70 2.327743
630.80 2.329272
630.90 2.330785
631.00 2.332279
631.10 2.333753
631.20 2.335209
631.30 2.336649
631.40 2.338075
631.50 2.339491
631.60 2.340901
631.70 2.342307
631.80 2.343711
631.90 2.345114
632.00 2.346516
632.10 2.347919
632.20 2.349322
632.30 2.350727
632.40 2.352134
632.50 2.353547
632.60 2.354969
632.70 2.356407
632.80 2.357864
632.90 2.359346
633.00 2.360855
633.10 2.362393
633.20 2.363959
633.30 2.365549
633.40 2.367159
633.50 2.368784
633.60 2.370418
633.70 2.372058
633.80 2.373702
633.90 2.375346
634.00 2.37699
634.10 2.378635
634.20 2.380279
634.30 2.38192
634.40 2.383555
634.50 2.385176
634.60 2.386775
634.70 2.38834
634.80 2.38986
634.90 2.391324
635.00 2.392724
635.10 2.394058
635.20 2.395329
635.30 2.396544
635.40 2.397713
635.50 2.398849
635.60 2.399962
635.70 2.401062
635.80 2.402155
635.90 2.403245
636.00 2.404335
636.10 2.405425
636.20 2.406515
636.30 2.407606
636.40 2.408697
636.50 2.409791
636.60 2.410888
636.70 2.411991
636.80 2.413101
636.90 2.41422
637.00 2.415349
637.10 2.416489
637.20 2.417639
637.30 2.418798
637.40 2.419965
637.50 2.421137
637.60 2.422312
637.70 2.42349
637.80 2.424669
637.90 2.425848
638.00 2.427027
638.10 2.428207
638.20 2.429381
638.30 2.430531
638.40 2.431624
638.50 2.4326
638.60 2.43338
638.70 2.433865
638.80 2.433953
638.90 2.43355
639.00 2.432593
639.10 2.431058
639.20 2.428969
639.30 2.426389
639.40 2.423411
639.50 2.420139
639.60 2.416671
639.70 2.413087
639.80 2.409444
639.90 2.405778
640.00 2.402106
640.10 2.398435
640.20 2.394767
640.30 2.391116
640.40 2.387505
640.50 2.383976
640.60 2.380584
640.70 2.377398
640.80 2.374491
640.90 2.371926
641.00 2.369749
641.10 2.367977
641.20 2.366592
641.30 2.365551
641.40 2.364787
641.50 2.36423
641.60 2.36381
641.70 2.363472
641.80 2.363174
641.90 2.362892
642.00 2.362615
642.10 2.362337
642.20 2.362055
642.30 2.361753
642.40 2.361403
642.50 2.360957
642.60 2.360348
642.70 2.359496
642.80 2.358313
642.90 2.356724
643.00 2.354676
643.10 2.352149
643.20 2.349162
643.30 2.345769
643.40 2.342046
643.50 2.33808
643.60 2.33395
643.70 2.329725
643.80 2.325451
643.90 2.321157
644.00 2.31686
644.10 2.312562
644.20 2.308269
644.30 2.303995
644.40 2.299771
644.50 2.295646
644.60 2.291686
644.70 2.287976
644.80 2.284603
644.90 2.281645
645.00 2.279157
645.10 2.277158
645.20 2.275628
645.30 2.274514
645.40 2.273737
645.50 2.273209
645.60 2.272848
645.70 2.272584
645.80 2.27237
645.90 2.272176
646.00 2.271986
646.10 2.271797
646.20 2.271607
646.30 2.271418
646.40 2.271231
646.50 2.271047
646.60 2.270868
646.70 2.270698
646.80 2.270538
646.90 2.270391
647.00 2.27026
647.10 2.270145
647.20 2.270045
647.30 2.269958
647.40 2.269882
647.50 2.269814
647.60 2.269751
647.70 2.269692
647.80 2.269634
647.90 2.269577
648.00 2.26952
648.10 2.269463
648.20 2.269414
648.30 2.269403
648.40 2.269485
648.50 2.269752
648.60 2.270332
648.70 2.271382
648.80 2.273068
648.90 2.275536
649.00 2.278889
649.10 2.283164
649.20 2.288325
649.30 2.294267
649.40 2.300846
649.50 2.307894
649.60 2.315255
649.70 2.322801
649.80 2.330441
649.90 2.338118
650.00 2.345804
650.10 2.353489
650.20 2.361169
650.30 2.368825
650.40 2.37642
650.50 2.383894
650.60 2.391165
650.70 2.39813
650.80 2.404682
650.90 2.410725
651.00 2.416192
651.10 2.42106
651.20 2.425352
651.30 2.429135
651.40 2.432505
651.50 2.435569
651.60 2.438429
651.70 2.441169
651.80 2.443848
651.90 2.446503
652.00 2.449153
652.10 2.451802
652.20 2.454446
652.30 2.457065
652.40 2.459623
652.50 2.462058
652.60 2.464285
652.70 2.466202
652.80 2.467697
652.90 2.468675
653.00 2.469067
653.10 2.468848
653.20 2.468044
653.30 2.466721
653.40 2.464977
653.50 2.462923
653.60 2.460661
653.70 2.458277
653.80 2.45583
653.90 2.453359
654.00 2.450883
654.10 2.448407
654.20 2.445934
654.30 2.443477
654.40 2.441062
654.50 2.438728
654.60 2.436532
654.70 2.434543
654.80 2.432834
654.90 2.431469
655.00 2.430494
655.10 2.429924
655.20 2.429744
655.30 2.429908
655.40 2.430352
655.50 2.431002
655.60 2.431788
655.70 2.432652
655.80 2.433554
655.90 2.434466
656.00 2.435375
656.10 2.436275
656.20 2.437166
656.30 2.438049
656.40 2.438924
656.50 2.439792
656.60 2.440655
656.70 2.441514
656.80 2.442372
656.90 2.443228
657.00 2.444084
657.10 2.44494
657.20 2.445796
657.30 2.446651
657.40 2.447507
657.50 2.448363
657.60 2.449219
657.70 2.450074
657.80 2.45093
657.90 2.451786
658.00 2.452641
658.10 2.453497
658.20 2.454352
658.30 2.455202
658.40 2.456041
658.50 2.456857
658.60 2.457635
658.70 2.458356
658.80 2.458999
658.90 2.459547
659.00 2.459987
659.10 2.460314
659.20 2.45914
659.30 2.453199
659.40 2.438055
659.50 2.408246
659.60 2.358396
659.70 2.284821
659.80 2.186931
659.90 2.067918
660.00 1.934371
660.10 1.794636
660.20 1.656463
660.30 1.525246
660.40 1.403509
660.50 1.291576
660.60 1.18912
660.70 1.097005
660.80 1.018614
660.90 0.9595413
661.00 0.9256805
661.10 0.9203819
661.20 0.9431169
661.30 0.9885458
661.40 1.046529
661.50 1.104809
661.60 1.152022
661.70 1.179986
661.80 1.184808
661.90 1.166645
662.00 1.128937
662.10 1.077557
662.20 1.019913
662.30 0.9640318
662.40 0.9178151
662.50 0.8885957
662.60 0.8824608
662.70 0.903155
662.80 0.9507098
662.90 1.020826
663.00 1.105346
663.10 1.193657
663.20 1.274679
663.30 1.338881
663.40 1.379988
663.50 1.395878
663.60 1.388432
663.70 1.362779
663.80 1.326188
663.90 1.286579
664.00 1.250384
664.10 1.220713
664.20 1.196958
664.30 1.175482
664.40 1.150897
664.50 1.117896
664.60 1.073424
664.70 1.018234
664.80 0.9569956
664.90 0.8968693
665.00 0.8451824
665.10 0.8070705
665.20 0.7839472
665.30 0.7733764
665.40 0.7703017
665.50 0.769197
665.60 0.7662314
665.70 0.7604494
665.80 0.7534799
665.90 0.7480851
666.00 0.7464205
666.10 0.7489355
666.20 0.7543188
666.30 0.7605083
666.40 0.7662598
666.50 0.772411
666.60 0.782276
666.70 0.800927
666.80 0.8336939
666.90 0.8843086
667.00 0.953221
667.10 1.036926
667.20 1.128624
667.30 1.219637
667.40 1.300974
667.50 1.364862
667.60 1.406064
667.70 1.42261
667.80 1.415813
667.90 1.390057
668.00 1.352417
668.10 1.311625
668.20 1.276274
668.30 1.252946
668.40 1.245209
668.50 1.253433
668.60 1.27524
668.70 1.306631
668.80 1.343584
668.90 1.383505
669.00 1.425814
669.10 1.471465
669.20 1.521594
669.30 1.576264
669.40 1.633817
669.50 1.690766
669.60 1.742219
669.70 1.782948
669.80 1.808946
669.90 1.818627
670.00 1.812913
670.10 1.794443
670.20 1.766464
670.30 1.732037
670.40 1.693438
670.50 1.651854
670.60 1.607888
670.70 1.562697
670.80 1.519154
670.90 1.482149
671.00 1.457954
671.10 1.452763
671.20 1.470723
671.30 1.512183
671.40 1.572819
671.50 1.644208
671.60 1.715713
671.70 1.777349
671.80 1.822509
671.90 1.849594
672.00 1.861878
672.10 1.865968
672.20 1.869553
672.30 1.878539
672.40 1.89478
672.50 1.915481
672.60 1.934378
672.70 1.943988
672.80 1.938023
672.90 1.913466
673.00 1.871524
673.10 1.817298
673.20 1.758467
673.30 1.703382
673.40 1.659464
673.50 1.632407
673.60 1.62613
673.70 1.642764
673.80 1.682508
673.90 1.743326
674.00 1.820729
674.10 1.90764
674.20 1.994523
674.30 2.070462
674.40 2.125045
674.50 2.150611
674.60 2.143884
674.70 2.106545
674.80 2.044643
674.90 1.967047
675.00 1.88346
675.10 1.802517
675.20 1.730528
675.30 1.671405
675.40 1.627393
675.50 1.600054
675.60 1.590635
675.70 1.599938
675.80 1.627733
675.90 1.671756
676.00 1.726926
676.10 1.785352
676.20 1.83768
676.30 1.87536
676.40 1.893007
676.50 1.890033
676.60 1.871003
676.70 1.844545
676.80 1.821009
676.90 1.809644
677.00 1.816283
677.10 1.842299
677.20 1.885105
677.30 1.939454
677.40 1.998921
677.50 2.057098
677.60 2.108463
677.70 2.148641
677.80 2.174268
677.90 2.183158
678.00 2.174897
678.10 2.151584
678.20 2.118017
678.30 2.081239
678.40 2.049345
678.50 2.029737
678.60 2.027302
678.70 2.043071
678.80 2.073949
678.90 2.113736
679.00 2.155082
679.10 2.191585
679.20 2.219217
679.30 2.236936
679.40 2.246334
679.50 2.250182
679.60 2.25058
679.70 2.247624
679.80 2.239212
679.90 2.22183
680.00 2.192105
680.10 2.148957
680.20 2.095331
680.30 2.038555
680.40 1.989256
680.50 1.959106
680.60 1.957723
680.70 1.989726
680.80 2.053055
680.90 2.138867
681.00 2.232971
681.10 2.318532
681.20 2.379463
681.30 2.403467
681.40 2.383942
681.50 2.320839
681.60 2.220343
681.70 2.093338
681.80 1.952953
681.90 1.81208
682.00 1.68145
682.10 1.568156
682.20 1.474997
682.30 1.401216
682.40 1.344177
682.50 1.3011
682.60 1.270712
682.70 1.254261
682.80 1.25541
682.90 1.279119
683.00 1.329982
683.10 1.41052
683.20 1.520029
683.30 1.654442
683.40 1.80647
683.50 1.965957
683.60 2.120857
683.70 2.258684
683.80 2.368009
683.90 2.439777
684.00 2.468795
684.10 2.455117
684.20 2.404623
684.30 2.328005
684.40 2.238501
684.50 2.149199
684.60 2.070419
684.70 2.007885
684.80 1.962408
684.90 1.931152
685.00 1.909881
685.10 1.895327
685.20 1.886692
685.30 1.885659
685.40 1.895682
685.50 1.920779
685.60 1.963335
685.70 2.021837
685.80 2.089758
685.90 2.156292
686.00 2.208033
686.10 2.231124
686.20 2.21444
686.30 2.152877
686.40 2.049353
686.50 1.914588
686.60 1.764824
686.70 1.618261
686.80 1.490909
686.90 1.393079
687.00 1.32786
687.10 1.291968
687.20 1.278447
687.30 1.280025
687.40 1.29176
687.50 1.312015
687.60 1.34217
687.70 1.385373
687.80 1.44463
687.90 1.520895
688.00 1.612292
688.10 1.714673
688.20 1.822257
688.30 1.928249
688.40 2.025558
688.50 2.107576
688.60 2.168788
688.70 2.205014
688.80 2.213578
688.90 2.193776
689.00 2.147338
689.10 2.078512
689.20 1.993709
689.30 1.901032
689.40 1.809691
689.50 1.728878
689.60 1.666225
689.70 1.626315
689.80 1.609827
689.90 1.613489
690.00 1.630836
690.10 1.654109
690.20 1.676749
690.30 1.695468
690.40 1.71118
690.50 1.728539
690.60 1.753856
690.70 1.792108
690.80 1.844289
690.90 1.906339
691.00 1.969791
691.10 2.023897
691.20 2.058818
691.30 2.068592
691.40 2.052791
691.50 2.016352
691.60 1.967735
691.70 1.916176
691.80 1.869081
691.90 1.830535
692.00 1.801257
692.10 1.779549
692.20 1.762803
692.30 1.748858
692.40 1.736612
692.50 1.725635
692.60 1.715573
692.70 1.705801
692.80 1.695662
692.90 1.685066
693.00 1.675334
693.10 1.66988
693.20 1.674121
693.30 1.694496
693.40 1.736192
693.50 1.800604
693.60 1.88376
693.70 1.976558
693.80 2.06663
693.90 2.141089
694.00 2.189688
694.10 2.207372
694.20 2.195268
694.30 2.159623
694.40 2.109169
694.50 2.052142
694.60 1.994062
694.70 1.937004
694.80 1.880469
694.90 1.823133
695.00 1.764736
695.10 1.707453
695.20 1.655984
695.30 1.616098
695.40 1.592799
695.50 1.588898
695.60 1.604227
695.70 1.635403
695.80 1.676402
695.90 1.719963
696.00 1.759051
696.10 1.787863
696.20 1.802261
696.30 1.79997
696.40 1.780707
696.50 1.74621
696.60 1.700046
696.70 1.647349
696.80 1.594452
696.90 1.548389
697.00 1.515801
697.10 1.501438
697.20 1.506818
697.30 1.529616
697.40 1.563857
697.50 1.600926
697.60 1.631929
697.70 1.650627
697.80 1.65564
697.90 1.651117
698.00 1.645697
698.10 1.649819
698.20 1.672011
698.30 1.715559
698.40 1.777129
698.50 1.84768
698.60 1.915285
698.70 1.969081
698.80 2.002793
698.90 2.0164
699.00 2.0154
699.10 2.0064
699.20 1.993103
699.30 1.973976
699.40 1.940723
699.50 1.880438
699.60 1.780022
699.70 1.63126
699.80 1.434837
699.90 1.201695
700.00 1.593734
700.10 1.509706
700.20 1.634046
700.30 1.758387
700.40 1.807188
700.50 1.834683
700.60 1.862179
700.70 1.666891
700.80 1.471603
700.90 1.340311
701.00 1.435909
701.10 1.531508
701.20 1.622595
701.30 1.707942
701.40 1.793288
701.50 1.765808
701.60 1.680206
701.70 1.594604
701.80 1.838507
701.90 2.127343
702.00 2.378044
702.10 2.285536
702.20 2.193028
702.30 2.069551
702.40 1.880266
702.50 1.69098
702.60 1.667422
702.70 1.785039
702.80 1.902655
702.90 1.922053
703.00 1.910435
703.10 1.898816
703.20 1.853998
703.30 1.808502
703.40 1.774189
703.50 1.784606
703.60 1.795022
703.70 1.736854
703.80 1.583973
703.90 1.431092
704.00 1.390264
704.10 1.412466
704.20 1.434667
704.30 1.609349
704.40 1.808852
704.50 2.016554
704.60 2.318528
704.70 2.620503
704.80 2.797932
704.90 2.684757
705.00 2.571581
705.10 2.458814
705.20 2.346423
705.30 2.234032
705.40 2.110679
705.50 1.983476
705.60 1.856272
705.70 1.831789
705.80 1.811585
705.90 1.812612
706.00 1.910357
706.10 2.008102
706.20 2.132497
706.30 2.296869
706.40 2.46124
706.50 2.62003
706.60 2.775398
706.70 2.930767
706.80 2.820405
706.90 2.659427
707.00 2.494766
707.10 2.272399
707.20 2.050032
707.30 1.898072
707.40 1.927159
707.50 1.956245
707.60 2.004934
707.70 2.073227
707.80 2.141519
707.90 2.289455
708.00 2.468364
708.10 2.647273
708.20 2.523539
708.30 2.380487
708.40 2.240367
708.50 2.115636
708.60 1.990905
708.70 1.877288
708.80 1.781804
708.90 1.68632
709.00 1.688315
709.10 1.755296
709.20 1.822278
709.30 1.91059
709.40 2.003584
709.50 2.08987
709.60 2.015151
709.70 1.940431
709.80 1.907445
709.90 1.99324
710.00 2.079034
710.10 2.223139
710.20 2.430413
710.30 2.637687
710.40 2.513315
710.50 2.246809
710.60 1.980303
710.70 1.967992
710.80 1.977785
710.90 1.984576
711.00 1.972929
711.10 1.961281
711.20 1.903938
711.30 1.765356
711.40 1.626774
711.50 1.584328
711.60 1.611497
711.70 1.638667
711.80 1.885172
711.90 2.186511
712.00 2.481876
712.10 2.484509
712.20 2.487141
712.30 2.486957
712.40 2.477851
712.50 2.468745
712.60 2.437918
712.70 2.381594
712.80 2.32527
712.90 2.20307
713.00 2.049871
713.10 1.896672
713.20 2.204156
713.30 2.562826
713.40 2.88283
713.50 2.919277
713.60 2.955724
713.70 2.945621
713.80 2.845158
713.90 2.744694
714.00 2.971721
714.10 3.456061
714.20 3.940402
714.30 3.814774
714.40 3.517103
714.50 3.219433
714.60 2.928373
714.70 2.637313
714.80 2.414787
714.90 2.435242
715.00 2.455698
715.10 2.467966
715.20 2.469815
715.30 2.471664
715.40 2.565872
715.50 2.707658
715.60 2.849445
715.70 2.774345
715.80 2.669669
715.90 2.579807
716.00 2.623271
716.10 2.666734
716.20 2.613488
716.30 2.354731
716.40 2.095974
716.50 2.073962
716.60 2.253621
716.70 2.433279
716.80 2.49665
716.90 2.523299
717.00 2.549947
717.10 2.350958
717.20 2.147363
717.30 1.968396
717.40 1.887936
717.50 1.807476
717.60 1.872138
717.70 2.137208
717.80 2.402277
717.90 2.418996
718.00 2.296016
718.10 2.173036
718.20 2.102483
718.30 2.040464
718.40 1.988493
718.50 2.05208
718.60 2.115668
718.70 2.222258
718.80 2.429189
718.90 2.63612
719.00 2.727581
719.10 2.712454
719.20 2.697327
719.30 2.703893
719.40 2.718082
719.50 2.73227
719.60 2.633085
719.70 2.529176
719.80 2.430671
719.90 2.356788
720.00 2.282904
720.10 2.189697
720.20 2.067508
720.30 1.945318
720.40 2.056572
720.50 2.310905
720.60 2.565237
720.70 2.593252
720.80 2.57816
720.90 2.557375
721.00 2.447416
721.10 2.337458
721.20 2.3256
721.30 2.566001
721.40 2.806403
721.50 2.973625
721.60 3.067667
721.70 3.161708
721.80 3.200885
721.90 3.218725
722.00 3.236565
722.10 2.940647
722.20 2.624701
722.30 2.358102
722.40 2.35057
722.50 2.343038
722.60 2.404355
722.70 2.578004
722.80 2.751653
722.90 2.670203
723.00 2.418686
723.10 2.16717
723.20 2.06035
723.30 1.985293
723.40 1.901517
723.50 1.608508
723.60 1.315499
723.70 1.256314
723.80 1.86263
723.90 2.468946
724.00 2.536476
724.10 2.02032
724.20 1.504164
724.30 1.883836
724.40 2.647433
724.50 3.41103
724.60 3.372578
724.70 3.264382
724.80 3.130085
724.90 2.835454
725.00 2.540823
725.10 2.406456
725.20 2.557006
725.30 2.707555
725.40 2.643366
725.50 2.423678
725.60 2.203989
725.70 2.360967
725.80 2.612112
725.90 2.859894
726.00 2.942924
726.10 3.025954
726.20 2.998698
726.30 2.622205
726.40 2.245711
726.50 1.87722
726.60 1.518123
726.70 1.159027
726.80 1.298818
726.90 1.673379
727.00 2.04794
727.10 1.635189
727.20 1.134959
727.30 0.7825715
727.40 1.514367
727.50 2.246162
727.60 2.483374
727.70 1.760516
727.80 1.037658
727.90 1.038356
728.00 1.607563
728.10 2.17677
728.20 2.360732
728.30 2.436035
728.40 2.511338
728.50 2.442846
728.60 2.374354
728.70 2.328678
728.80 2.3639
728.90 2.399122
729.00 2.414941
729.10 2.406064
729.20 2.397187
729.30 2.086532
729.40 1.620416
729.50 1.154301
729.60 1.640765
729.70 2.257127
729.80 2.826733
729.90 2.975543
730.00 3.124352
730.10 3.150275
730.20 2.915065
730.30 2.679854
730.40 2.717972
730.50 2.988926
730.60 3.259879
730.70 3.067368
730.80 2.728501
730.90 2.389633
731.00 2.539296
731.10 2.698928
731.20 2.839551
731.30 2.904134
731.40 2.968717
731.50 3.470819
731.60 4.577115
731.70 5.68341
731.80 5.344328
731.90 4.192223
732.00 3.040117
732.10 2.41379
732.20 1.873054
732.30 1.380723
732.40 1.445048
732.50 1.509372
732.60 1.641439
732.70 1.931569
732.80 2.221699
732.90 2.343644
733.00 2.310339
733.10 2.277034
733.20 2.170377
733.30 2.037949
733.40 1.90552
733.50 1.974503
733.60 2.051878
733.70 2.118446
733.80 2.135782
733.90 2.153119
734.00 2.037204
734.10 1.721414
734.20 1.405624
734.30 1.355515
734.40 1.468243
734.50 1.580972
734.60 2.039945
734.70 2.564871
734.80 3.075193
734.90 3.356735
735.00 3.638276
735.10 3.705671
735.20 3.222401
735.30 2.739131
735.40 2.409415
735.50 2.233253
735.60 2.057091
735.70 2.687245
735.80 3.630966
735.90 4.574687
736.00 3.976963
736.10 3.28085
736.20 2.621342
736.30 2.15401
736.40 1.686678
736.50 1.17452
736.60 0.5892262
736.70 0.003932335
736.80 0.1884543
736.90 0.8861868
737.00 1.583919
737.10 1.613586
737.20 1.496604
737.30 1.380478
737.40 1.284887
737.50 1.189297
737.60 1.274288
737.70 1.873244
737.80 2.472201
737.90 2.736658
738.00 2.638741
738.10 2.540825
738.20 2.460705
738.30 2.388211
738.40 2.315718
738.50 2.25224
738.60 2.189545
738.70 2.122151
738.80 2.025882
738.90 1.929614
739.00 1.628402
739.10 0.962844
739.20 0.2972864
739.30 0.08078169
739.40 0.1894532
739.50 0.2981246
739.60 0.5927832
739.70 0.9339386
739.80 1.277027
739.90 1.714821
740.00 2.152616
740.10 2.518779
740.20 2.65811
740.30 2.797442
740.40 2.742492
740.50 2.459474
740.60 2.176456
740.70 2.079861
740.80 2.070996
740.90 2.06213
741.00 1.954492
741.10 1.83588
741.20 1.719623
741.30 1.620647
741.40 1.521671
741.50 1.60736
741.60 2.051517
741.70 2.495674
741.80 2.478035
741.90 2.097558
742.00 1.717081
742.10 1.70814
742.20 1.80399
742.30 1.899841
742.40 1.891009
742.50 1.882178
742.60 1.956877
742.70 2.327727
742.80 2.698577
742.90 2.93297
743.00 2.99369
743.10 3.05441
743.20 2.802722
743.30 2.390096
743.40 1.977471
743.50 1.669748
743.60 1.376331
743.70 1.145097
743.80 1.473513
743.90 1.801929
744.00 1.875019
744.10 1.405541
744.20 0.9360627
744.30 0.8433092
744.40 1.07147
744.50 1.29963
744.60 1.525176
744.70 1.749896
744.80 1.974616
744.90 1.821118
745.00 1.659901
745.10 1.516049
745.20 1.441657
745.30 1.367265
745.40 1.393878
745.50 1.559976
745.60 1.726074
745.70 1.544912
745.80 1.168418
745.90 0.7919228
746.00 0.8670297
746.10 1.015653
746.20 1.161434
746.30 1.274521
746.40 1.387609
746.50 1.376592
746.60 1.075998
746.70 0.7754032
746.80 0.8183436
746.90 1.178393
747.00 1.538443
747.10 1.962235
747.20 2.408423
747.30 2.854611
747.40 3.03837
747.50 3.211195
747.60 3.334506
747.70 3.232251
747.80 3.129996
747.90 2.920046
748.00 2.548555
748.10 2.177064
748.20 1.786229
748.30 1.383539
748.40 0.9808497
748.50 0.7965079
748.60 0.6537561
748.70 0.5295027
748.80 0.6950566
748.90 0.8606106
749.00 1.007677
749.10 1.107203
749.20 1.206729
749.30 1.241445
749.40 1.211351
749.50 1.181257
749.60 1.104881
749.70 1.010507
749.80 0.9161326
749.90 0.8417698
750.00 0.7686843
750.10 0.7385857
750.20 0.9341676
750.30 1.12975
750.40 1.222992
750.50 1.149258
750.60 1.075525
750.70 1.045297
750.80 1.044072
750.90 1.042847
751.00 1.098688
751.10 1.167055
751.20 1.22576
751.30 1.052579
751.40 0.8793991
751.50 0.8922618
751.60 1.434632
751.70 1.977002
751.80 2.055682
751.90 1.632029
752.00 1.208376
752.10 0.8570815
752.20 0.5367984
752.30 0.2165152
752.40 0.8925849
752.50 1.655294
752.60 2.29529
752.70 2.18148
752.80 2.067669
752.90 2.044439
753.00 2.182243
753.10 2.320046
753.20 2.079633
753.30 1.56534
753.40 1.051046
753.50 0.9577631
753.60 0.9697325
753.70 0.9783717
753.80 0.8238274
753.90 0.669283
754.00 0.5486774
754.10 0.5355444
754.20 0.5224114
754.30 0.5764099
754.40 0.7092149
754.50 0.8420198
754.60 0.9394222
754.70 1.020164
754.80 1.100907
754.90 1.113376
755.00 1.11826
755.10 1.109515
755.20 1.000828
755.30 0.8921404
755.40 0.8237155
755.50 0.8334477
755.60 0.8431798
755.70 0.7714152
755.80 0.6356174
755.90 0.4998197
756.00 0.5338053
756.10 0.6156785
756.20 0.6975517
756.30 0.6171048
756.40 0.5366578
756.50 0.4594611
756.60 0.3937881
756.70 0.3281151
756.80 0.2308358
756.90 0.09333029
757.00 9.474055e-11
757.10 9.474055e-11
757.20 9.474055e-11
757.30 9.474055e-11
757.40 9.474055e-11
757.50 9.474055e-11
757.60 9.474055e-11
757.70 9.474055e-11
757.80 0.2598346
757.90 0.4132364
758.00 0.2588075
758.10 0.1043786
758.20 0.05626282
758.30 0.09870997
758.40 0.1411571
758.50 0.4413351
758.60 0.8229017
758.70 1.204468
758.80 1.034767
758.90 0.8538153
759.00 0.7104299
759.10 0.7173101
759.20 0.7241902
759.30 0.5251857
759.40 0.04186405
759.50 9.474055e-11
759.60 9.474055e-11
759.70 9.474055e-11
759.80 9.474055e-11
759.90 0.01588857
760.00 0.5315264
760.10 0.9866601
760.20 0.7459958
760.30 0.5053314
760.40 0.4008984
760.50 0.6143387
760.60 0.8277789
760.70 0.7799458
760.80 0.4909374
760.90 0.201929
761.00 0.1364264
761.10 0.1494528
761.20 0.1624793
761.30 0.1035192
761.40 0.04155977
761.50 9.474055e-11
761.60 9.474055e-11
761.70 9.474055e-11
761.80 9.474055e-11
761.90 0.03434679
762.00 0.0883336
762.10 0.07768838
762.20 0.02743
762.30 9.474055e-11
762.40 9.474055e-11
762.50 9.474055e-11
762.60 9.474055e-11
762.70 0.02132849
762.80 0.2149204
762.90 0.3473649
763.00 0.3225733
763.10 0.2977816
763.20 0.2995751
763.30 0.3279536
763.40 0.3563321
763.50 0.3277437
763.60 0.2770014
763.70 0.2262591
763.80 0.3402701
763.90 0.4647972
764.00 0.5667306
764.10 0.5500468
764.20 0.533363
764.30 0.5015444
764.40 0.4450323
764.50 0.3885202
764.60 0.2220089
764.70 9.474055e-11
764.80 9.474055e-11
764.90 9.474055e-11
765.00 0.0608025
765.10 0.2373484
765.20 9.474055e-11
765.30 9.474055e-11
765.40 9.474055e-11
765.50 9.474055e-11
765.60 9.474055e-11
765.70 0.08193979
765.80 0.1882234
765.90 0.294507
766.00 0.1457371
766.10 9.474055e-11
766.20 9.474055e-11
766.30 9.474055e-11
766.40 9.474055e-11
766.50 9.474055e-11
766.60 9.474055e-11
766.70 0.007049343
766.80 0.2857041
766.90 0.2087873
767.00 0.1318705
767.10 0.1358845
767.20 0.1985036
767.30 0.2611227
767.40 0.4877362
767.50 0.7553482
767.60 1.012118
767.70 0.7375968
767.80 0.463076
767.90 0.1879401
768.00 9.474055e-11
768.10 9.474055e-11
768.20 9.474055e-11
768.30 9.474055e-11
768.40 9.474055e-11
768.50 9.474055e-11
768.60 0.05968849
768.70 0.1270632
768.80 0.252098
768.90 0.3835394
769.00 0.4774782
769.10 0.2963968
769.20 0.1153154
769.30 9.474055e-11
769.40 9.474055e-11
769.50 9.474055e-11
769.60 0.1342095
769.70 0.4395796
769.80 0.7449498
769.90 0.5420656
770.00 0.1958276
770.10 9.474055e-11
770.20 9.474055e-11
770.30 9.474055e-11
770.40 9.474055e-11
770.50 9.474055e-11
770.60 9.474055e-11
770.70 9.474055e-11
770.80 9.474055e-11
770.90 9.474055e-11
771.00 0.08545141
771.10 0.3871748
771.20 0.6888983
771.30 0.6233416
771.40 0.5077012
771.50 0.5689885
771.60 2.222625
771.70 3.876262
771.80 4.412607
771.90 2.574705
772.00 0.7368038
772.10 9.474055e-11
772.20 9.474055e-11
772.30 9.474055e-11
772.40 9.474055e-11
772.50 9.474055e-11
772.60 0.1508978
772.70 0.146703
772.80 0.1151816
772.90 0.07976035
773.00 0.02874
773.10 9.474055e-11
773.20 0.1200857
773.30 0.5295092
773.40 0.9389326
773.50 0.8226769
773.60 0.4107265
773.70 9.474055e-11
773.80 9.474055e-11
773.90 9.474055e-11
774.00 9.474055e-11
774.10 9.474055e-11
774.20 9.474055e-11
774.30 9.474055e-11
774.40 9.474055e-11
774.50 9.474055e-11
774.60 9.474055e-11
774.70 9.474055e-11
774.80 9.474055e-11
774.90 9.474055e-11
775.00 0.02636104
775.10 0.5809543
775.20 0.1996032
775.30 9.474055e-11
775.40 9.474055e-11
775.50 9.474055e-11
775.60 0.07632153
775.70 0.3653256
775.80 0.6462624
775.90 0.9271991
776.00 0.537355
776.10 9.474055e-11
776.20 9.474055e-11
776.30 9.474055e-11
776.40 9.474055e-11
776.50 9.474055e-11
776.60 9.474055e-11
776.70 0.295224
776.80 0.4883213
776.90 0.1746036
777.00 9.474055e-11
777.10 9.474055e-11
777.20 0.14539
777.30 0.439632
777.40 0.7140366
777.50 0.9807265
777.60 1.247417
777.70 0.8939441
777.80 0.5008869
777.90 0.2619509
778.00 0.8321515
778.10 1.402352
778.20 1.792637
778.30 1.889374
778.40 1.986112
778.50 1.711846
778.60 1.190244
778.70 0.6686425
778.80 0.6349189
778.90 0.7082905
779.00 0.7543178
779.10 0.1440807
779.20 9.474055e-11
779.30 9.474055e-11
779.40 0.6385063
779.50 1.873616
779.60 2.378269
779.70 2.091593
779.80 1.804917
779.90 1.369884
780.00 0.8712689
780.10 0.3726537
780.20 0.4945705
780.30 0.6704467
780.40 0.8037044
780.50 0.6751628
780.60 0.5466212
780.70 0.4717233
780.80 0.492192
780.90 0.5126608
781.00 0.5135542
781.10 0.5002724
781.20 0.4869906
781.30 0.6455479
781.40 0.8470651
781.50 1.039718
781.60 0.7980124
781.70 0.5563069
781.80 0.4829923
781.90 0.9429153
782.00 1.402838
782.10 1.288116
782.20 0.4988086
782.30 9.474055e-11
782.40 9.474055e-11
782.50 9.474055e-11
782.60 9.474055e-11
782.70 9.474055e-11
782.80 0.9057165
782.90 1.698583
783.00 1.651668
783.10 1.604753
783.20 1.665791
783.30 1.936383
783.40 2.206976
783.50 2.197851
783.60 1.968948
783.70 1.740045
783.80 1.863021
783.90 2.085245
784.00 2.307469
784.10 1.987723
784.20 1.667977
784.30 1.304056
784.40 0.783515
784.50 0.2629734
784.60 0.3221077
784.70 1.119011
784.80 1.915915
784.90 2.262026
785.00 2.375911
785.10 2.489796
785.20 3.026657
785.30 3.621197
785.40 4.094455
785.50 3.47618
785.60 2.857905
785.70 2.393206
785.80 2.254853
785.90 2.1165
786.00 2.056437
786.10 2.063065
786.20 2.069693
786.30 2.012126
786.40 1.934287
786.50 1.856448
786.60 2.009879
786.70 2.168029
786.80 2.460775
786.90 3.291904
787.00 4.123033
787.10 4.465677
787.20 4.133746
787.30 3.801815
787.40 3.176042
787.50 2.384982
787.60 1.593922
787.70 1.762122
787.80 2.086482
787.90 2.394687
788.00 2.517117
788.10 2.639547
788.20 2.677066
788.30 2.516461
788.40 2.355856
788.50 2.172994
788.60 1.969589
788.70 1.766183
788.80 2.211836
788.90 2.885537
789.00 3.559237
789.10 2.783161
789.20 1.946678
789.30 1.296016
789.40 1.491868
789.50 1.687721
789.60 1.998788
789.70 2.482676
789.80 2.966565
789.90 3.010286
790.00 2.784227
790.10 2.558168
790.20 2.762475
790.30 3.048755
790.40 3.320997
790.50 3.373292
790.60 3.425587
790.70 3.29473
790.80 2.69291
790.90 2.091091
791.00 1.805013
791.10 1.834678
791.20 1.864342
791.30 1.983001
791.40 2.136269
791.50 2.289537
791.60 2.073127
791.70 1.83312
791.80 1.770831
791.90 2.641561
792.00 3.512291
792.10 3.743494
792.20 2.931258
792.30 2.119021
792.40 1.599154
792.50 1.274199
792.60 0.9492434
792.70 1.639251
792.80 2.552055
792.90 3.424957
793.00 3.340227
793.10 3.255498
793.20 3.155098
793.30 3.010101
793.40 2.865103
793.50 3.05697
793.60 3.613775
793.70 4.17058
793.80 4.119933
793.90 3.80895
794.00 3.497967
794.10 2.950376
794.20 2.38221
794.30 1.839823
794.40 1.455788
794.50 1.071754
794.60 0.717269
794.70 0.4153152
794.80 0.1133615
794.90 0.2015839
795.00 0.5723477
795.10 0.9431115
795.20 1.68828
795.30 2.52705
795.40 3.358857
795.50 3.849459
795.60 4.340061
795.70 4.619321
795.80 4.229331
795.90 3.839342
796.00 3.655312
796.10 3.713062
796.20 3.770811
796.30 4.084499
796.40 4.518627
796.50 4.952756
796.60 4.248425
796.70 3.417599
796.80 2.689258
796.90 2.712473
797.00 2.735687
797.10 2.875138
797.20 3.240224
797.30 3.605311
797.40 3.592959
797.50 3.284048
797.60 2.975137
797.70 3.072426
797.80 3.284285
797.90 3.496144
798.00 3.922054
798.10 4.347963
798.20 4.690045
798.30 4.734917
798.40 4.779788
798.50 4.822668
798.60 4.863013
798.70 4.903357
798.80 4.186787
798.90 3.080292
799.00 1.973796
799.10 2.905513
799.20 4.115168
799.30 5.225654
799.40 5.443619
799.50 5.661585
799.60 5.461674
799.70 4.373774
799.80 3.285874
799.90 3.102755
800.00 3.690375
800.10 4.277994
800.20 4.313257
800.30 4.174092
800.40 4.034927
800.50 4.478023
800.60 4.933002
800.70 5.282536
800.80 5.210289
800.90 5.138042
801.00 5.062514
801.10 4.982454
801.20 4.902395
801.30 5.073884
801.40 5.386871
801.50 5.699857
801.60 5.676936
801.70 5.599331
801.80 5.525693
801.90 5.49766
802.00 5.469626
802.10 5.474768
802.20 5.557317
802.30 5.639866
802.40 6.047906
802.50 6.756399
802.60 7.464892
802.70 7.192522
802.80 6.575524
802.90 5.958525
803.00 5.291675
803.10 4.622748
803.20 4.164448
803.30 4.665666
803.40 5.166885
803.50 5.427328
803.60 5.326607
803.70 5.225886
803.80 5.319688
803.90 5.532715
804.00 5.745741
804.10 5.941489
804.20 6.133945
804.30 6.305237
804.40 6.144952
804.50 5.984667
804.60 5.816397
804.70 5.627592
804.80 5.438787
804.90 5.242585
805.00 5.038985
805.10 4.835385
805.20 5.068491
805.30 5.471426
805.40 5.874362
805.50 6.177762
805.60 6.474809
805.70 6.703749
805.80 6.575132
805.90 6.446515
806.00 6.452374
806.10 6.677643
806.20 6.902912
806.30 6.974768
806.40 6.944347
806.50 6.913927
806.60 6.944078
806.70 6.987525
806.80 7.023994
806.90 6.893007
807.00 6.762021
807.10 6.574817
807.20 6.22761
807.30 5.880403
807.40 5.778054
807.50 5.940966
807.60 6.103878
807.70 6.268052
807.80 6.432766
807.90 6.597481
808.00 6.669138
808.10 6.732702
808.20 6.81469
808.30 7.009848
808.40 7.205006
808.50 7.290274
808.60 7.180184
808.70 7.070093
808.80 6.975698
808.90 6.892668
809.00 6.809638
809.10 6.85643
809.20 6.935676
809.30 7.011136
809.40 6.901052
809.50 6.790967
809.60 6.751415
809.70 6.935218
809.80 7.119021
809.90 7.386022
810.00 7.750691
810.10 8.11536
810.20 7.975481
810.30 7.598169
810.40 7.220857
810.50 6.837395
810.60 6.453249
810.70 6.143557
810.80 6.379861
810.90 6.616165
811.00 6.792931
811.10 6.854126
811.20 6.915321
811.30 7.147234
811.40 7.513282
811.50 7.879331
811.60 7.846022
811.70 7.700074
811.80 7.554127
811.90 7.146091
812.00 6.738056
812.10 6.424246
812.20 6.444507
812.30 6.464768
812.40 6.723289
812.50 7.28505
812.60 7.846811
812.70 8.10466
812.80 8.205948
812.90 8.307236
813.00 8.058724
813.10 7.762514
813.20 7.480272
813.30 7.323753
813.40 7.167234
813.50 7.019259
813.60 6.88944
813.70 6.759621
813.80 6.839197
813.90 7.097147
814.00 7.355096
814.10 7.689011
814.20 8.046915
814.30 8.404819
814.40 8.010919
814.50 7.601676
814.60 7.305885
814.70 7.463903
814.80 7.621922
814.90 7.56758
815.00 7.219978
815.10 6.872377
815.20 6.663343
815.30 6.532253
815.40 6.401163
815.50 6.707043
815.60 7.084057
815.70 7.442926
815.80 7.593115
815.90 7.743303
816.00 7.949831
816.10 8.287818
816.20 8.625804
816.30 8.772811
816.40 8.74353
816.50 8.714249
816.60 9.027955
816.70 9.462169
816.80 9.896384
816.90 9.205808
817.00 8.468365
817.10 7.925344
817.20 8.268018
817.30 8.610691
817.40 8.791293
817.50 8.728788
817.60 8.666282
817.70 8.478357
817.80 8.213562
817.90 7.948767
818.00 7.839828
818.10 7.760575
818.20 7.65309
818.30 7.103285
818.40 6.55348
818.50 6.335982
818.60 6.972989
818.70 7.609997
818.80 7.911966
818.90 7.878895
819.00 7.845825
819.10 7.988453
819.20 8.199408
819.30 8.410362
819.40 8.115061
819.50 7.787446
819.60 7.441381
819.70 6.998462
819.80 6.555542
819.90 6.631894
820.00 7.55548
820.10 8.479066
820.20 8.642916
820.30 8.300277
820.40 7.957637
820.50 8.522437
820.60 9.28643
820.70 10.01667
820.80 9.936905
820.90 9.857138
821.00 9.732772
821.10 9.481473
821.20 9.230174
821.30 9.0879
821.40 9.063735
821.50 9.039571
821.60 9.267894
821.70 9.604427
821.80 9.940959
821.90 9.568378
822.00 9.134135
822.10 8.763363
822.20 8.782485
822.30 8.801607
822.40 8.818374
822.50 8.830954
822.60 8.843534
822.70 8.792106
822.80 8.694327
822.90 8.596548
823.00 8.456246
823.10 8.305313
823.20 8.176412
823.30 9.127069
823.40 10.07773
823.50 10.73048
823.60 10.43987
823.70 10.14927
823.80 10.10853
823.90 10.36112
824.00 10.61372
824.10 10.44316
824.20 10.07347
824.30 9.70378
824.40 10.02225
824.50 10.41718
824.60 10.78175
824.70 10.92368
824.80 11.06562
824.90 11.02792
825.00 10.64152
825.10 10.25513
825.20 10.00988
825.30 9.875517
825.40 9.74116
825.50 10.24336
825.60 10.92511
825.70 11.60686
825.80 11.60393
825.90 11.601
826.00 11.6142
826.10 11.68459
826.20 11.75498
826.30 11.65321
826.40 11.33232
826.50 11.01143
826.60 11.11752
826.70 11.44357
826.80 11.76961
826.90 11.97384
827.00 12.16145
827.10 12.27721
827.20 11.74629
827.30 11.21536
827.40 10.7945
827.50 10.60757
827.60 10.42063
827.70 10.98424
827.80 12.18722
827.90 13.39019
828.00 13.85751
828.10 14.09252
828.20 14.32753
828.30 12.74156
828.40 11.11842
828.50 9.703891
828.60 9.123803
828.70 8.543715
828.80 8.709754
828.90 9.906159
829.00 11.10256
829.10 11.10445
829.20 10.43442
829.30 9.764386
829.40 9.390949
829.50 9.065795
829.60 8.859929
829.70 10.02589
829.80 11.19184
829.90 11.94233
830.00 11.7234
830.10 11.50447
830.20 11.65163
830.30 12.13672
830.40 12.62182
830.50 12.66654
830.60 12.55654
830.70 12.44653
830.80 12.6982
830.90 12.96493
831.00 13.10161
831.10 12.64579
831.20 12.18998
831.30 12.03953
831.40 12.34714
831.50 12.65475
831.60 12.96167
831.70 13.26819
831.80 13.5747
831.90 13.0354
832.00 12.335
832.10 11.65148
832.20 11.23254
832.30 10.8136
832.40 10.68418
832.50 11.29922
832.60 11.91426
832.70 12.46113
832.80 12.93984
832.90 13.41855
833.00 13.54655
833.10 13.53816
833.20 13.52977
833.30 13.67296
833.40 13.82584
833.50 13.84997
833.60 13.19824
833.70 12.5465
833.80 12.21693
833.90 12.41299
834.00 12.60904
834.10 13.77086
834.20 15.57653
834.30 17.38219
834.40 16.83246
834.50 15.7657
834.60 14.70666
834.70 13.83324
834.80 12.95982
834.90 12.44603
835.00 12.95578
835.10 13.46553
835.20 14.27512
835.30 15.40954
835.40 16.54396
835.50 15.83984
835.60 14.34778
835.70 12.85571
835.80 13.32102
835.90 13.95654
836.00 14.40845
836.10 13.73243
836.20 13.05642
836.30 12.73694
836.40 13.05128
836.50 13.36562
836.60 13.72126
836.70 14.1068
836.80 14.49235
836.90 14.40991
837.00 14.21048
837.10 14.02093
837.20 14.31504
837.30 14.60915
837.40 14.7474
837.50 14.39212
837.60 14.03684
837.70 13.80996
837.80 13.73382
837.90 13.65769
838.00 13.34421
838.10 12.91905
838.20 12.49389
838.30 12.49986
838.40 12.55374
838.50 12.7035
838.60 13.55642
838.70 14.40933
838.80 14.77557
838.90 14.19708
839.00 13.61858
839.10 13.65551
839.20 14.17599
839.30 14.69646
839.40 14.51043
839.50 14.12512
839.60 13.73981
839.70 13.86451
839.80 13.98921
839.90 14.04006
840.00 13.82913
840.10 13.61819
840.20 13.34547
840.30 12.99413
840.40 12.64278
840.50 13.26289
840.60 14.38343
840.70 15.50398
840.80 15.45311
840.90 15.2425
841.00 14.98937
841.10 14.3536
841.20 13.71784
841.30 13.5449
841.40 14.35546
841.50 15.16603
841.60 15.27273
841.70 14.77984
841.80 14.28695
841.90 14.06411
842.00 13.92655
842.10 13.78899
842.20 14.67795
842.30 15.58786
842.40 16.15013
842.50 15.32185
842.60 14.49357
842.70 14.80787
842.80 16.70002
842.90 18.59218
843.00 19.02892
843.10 18.64699
843.20 18.26507
843.30 17.04803
843.40 15.69505
843.50 14.49161
843.60 15.00788
843.70 15.52414
843.80 15.93775
843.90 16.1118
844.00 16.28586
844.10 16.32301
844.20 16.23378
844.30 16.14455
844.40 15.84244
844.50 15.46554
844.60 15.08864
844.70 15.16485
844.80 15.25993
844.90 15.65007
845.00 17.38432
845.10 19.11857
845.20 19.49185
845.30 17.82366
845.40 16.15547
845.50 15.4745
845.60 15.39861
845.70 15.32271
845.80 15.80367
845.90 16.39071
846.00 16.86405
846.10 15.55621
846.20 14.24836
846.30 13.87248
846.40 15.89306
846.50 17.91365
846.60 18.40792
846.70 17.37587
846.80 16.34381
846.90 15.78843
847.00 15.41842
847.10 15.0484
847.20 15.54252
847.30 16.09179
847.40 16.62725
847.50 17.09022
847.60 17.55319
847.70 17.78603
847.80 17.64341
847.90 17.50078
848.00 17.19431
848.10 16.77862
848.20 16.36292
848.30 15.93913
848.40 15.51356
848.50 15.10289
848.60 15.04986
848.70 14.99684
848.80 14.93048
848.90 14.82613
849.00 14.72178
849.10 14.81751
849.20 15.13001
849.30 15.44251
849.40 15.58614
849.50 15.65738
849.60 15.72863
849.70 15.92849
849.80 16.13953
849.90 16.25441
850.00 15.77856
850.10 15.3027
850.20 15.10222
850.30 15.39132
850.40 15.68042
850.50 15.88818
850.60 16.03706
850.70 16.18593
850.80 15.95339
850.90 15.62551
851.00 15.30238
851.10 15.21229
851.20 15.1222
851.30 15.11052
851.40 15.34715
851.50 15.58378
851.60 15.24158
851.70 14.21989
851.80 13.1982
851.90 11.48111
852.00 9.436767
852.10 7.392429
852.20 7.278572
852.30 7.379213
852.40 7.644902
852.50 9.120949
852.60 10.597
852.70 12.03772
852.80 13.40987
852.90 14.78203
853.00 15.6685
853.10 16.17336
853.20 16.67823
853.30 16.59729
853.40 16.35113
853.50 16.10496
853.60 16.65252
853.70 17.20008
853.80 17.57357
853.90 17.32986
854.00 17.08616
854.10 16.84364
854.20 16.60262
854.30 16.36161
854.40 16.70395
854.50 17.34681
854.60 17.98966
854.70 18.2659
854.80 18.49215
854.90 18.67119
855.00 18.42531
855.10 18.17943
855.20 18.02053
855.30 18.04646
855.40 18.07238
855.50 18.17916
855.60 18.35481
855.70 18.53047
855.80 18.4316
855.90 18.24605
856.00 18.06049
856.10 18.32876
856.20 18.60629
856.30 18.81414
856.40 18.74329
856.50 18.67243
856.60 18.39746
856.70 17.84063
856.80 17.2838
856.90 17.38825
857.00 17.86467
857.10 18.34108
857.20 18.88218
857.30 19.43381
857.40 19.93289
857.50 19.82775
857.60 19.72261
857.70 19.5544
857.80 19.23904
857.90 18.92368
858.00 18.74674
858.10 18.69758
858.20 18.64841
858.30 18.87908
858.40 19.20806
858.50 19.53705
858.60 19.50658
858.70 19.46113
858.80 19.53293
858.90 20.13881
859.00 20.7447
859.10 20.9933
859.20 20.70598
859.30 20.41867
859.40 20.22322
859.50 20.08408
859.60 19.94495
859.70 20.20523
859.80 20.5416
859.90 20.81288
860.00 20.06448
860.10 19.31609
860.20 18.86235
860.30 19.16632
860.40 19.4703
860.50 19.75429
860.60 20.01832
860.70 20.28234
860.80 19.53794
860.90 18.40138
861.00 17.26482
861.10 15.99739
861.20 14.72161
861.30 13.62309
861.40 13.45522
861.50 13.28735
861.60 12.82946
861.70 11.89837
861.80 10.96728
861.90 10.8675
862.00 11.32192
862.10 11.77635
862.20 12.24409
862.30 12.71476
862.40 13.16151
862.50 13.03427
862.60 12.90703
862.70 13.06392
862.80 14.02946
862.90 14.99501
863.00 15.00796
863.10 13.98893
863.20 12.96991
863.30 12.46545
863.40 12.18151
863.50 11.89757
863.60 12.29155
863.70 12.74449
863.80 13.07133
863.90 12.62361
864.00 12.17589
864.10 11.90009
864.20 11.92992
864.30 11.95976
864.40 12.09279
864.50 12.30053
864.60 12.50828
864.70 12.1707
864.80 11.69677
864.90 11.25019
865.00 12.14337
865.10 13.03656
865.20 13.63445
865.30 13.29728
865.40 12.96011
865.50 12.87198
865.60 13.07622
865.70 13.28046
865.80 13.76457
865.90 14.38038
866.00 14.99619
866.10 15.73336
866.20 16.48402
866.30 17.05272
866.40 16.2871
866.50 15.52147
866.60 14.84349
866.70 14.33565
866.80 13.8278
866.90 13.37532
867.00 12.96635
867.10 12.55737
867.20 13.1636
867.30 14.05617
867.40 14.94874
867.50 16.08517
867.60 17.2216
867.70 18.00911
867.80 17.55953
867.90 17.10996
868.00 16.94528
868.10 17.14319
868.20 17.34111
868.30 16.76026
868.40 15.77823
868.50 14.79619
868.60 14.73459
868.70 14.7985
868.80 14.88698
868.90 15.19667
869.00 15.50636
869.10 15.59459
869.20 15.2122
869.30 14.82981
869.40 14.26452
869.50 13.54341
869.60 12.82231
869.70 13.24655
869.80 14.03248
869.90 14.8184
870.00 15.29961
870.10 15.77461
870.20 16.12633
870.30 15.98498
870.40 15.84363
870.50 15.70101
870.60 15.55663
870.70 15.41225
870.80 14.91577
870.90 14.22123
871.00 13.52669
871.10 13.48693
871.20 13.55376
871.30 13.66974
871.40 14.35092
871.50 15.0321
871.60 15.33621
871.70 14.76047
871.80 14.18473
871.90 13.88382
872.00 13.8366
872.10 13.78937
872.20 13.95912
872.30 14.20509
872.40 14.45107
872.50 14.04022
872.60 13.60199
872.70 13.41014
872.80 14.34059
872.90 15.27104
873.00 15.91724
873.10 16.13704
873.20 16.35684
873.30 16.17725
873.40 15.75286
873.50 15.32847
873.60 14.88543
873.70 14.43884
873.80 14.03972
873.90 14.38435
874.00 14.72899
874.10 15.06127
874.20 15.36178
874.30 15.66229
874.40 15.81756
874.50 15.82759
874.60 15.83761
874.70 15.89851
874.80 15.97919
874.90 16.05986
875.00 15.58526
875.10 15.07522
875.20 14.67403
875.30 14.8443
875.40 15.01457
875.50 15.13833
875.60 15.18619
875.70 15.23406
875.80 15.04906
875.90 14.70882
876.00 14.36858
876.10 14.82649
876.20 15.45961
876.30 16.07375
876.40 16.23235
876.50 16.39095
876.60 16.30072
876.70 15.50232
876.80 14.70392
876.90 14.4427
877.00 14.76344
877.10 15.08417
877.20 16.10859
877.30 17.43459
877.40 18.76058
877.50 19.04295
877.60 19.23457
877.70 19.14772
877.80 17.35026
877.90 15.5528
878.00 14.6074
878.10 15.17678
878.20 15.74617
878.30 16.12994
878.40 16.37931
878.50 16.62868
878.60 16.539
878.70 16.36455
878.80 16.2066
878.90 16.85753
879.00 17.50846
879.10 17.98661
879.20 17.91764
879.30 17.84868
879.40 17.85427
879.50 17.94739
879.60 18.04051
879.70 18.18784
879.80 18.36069
879.90 18.53354
880.00 18.19751
880.10 17.80494
880.20 17.4153
880.30 17.04711
880.40 16.67892
880.50 16.24727
880.60 15.69245
880.70 15.13762
880.80 15.06861
880.90 15.3813
881.00 15.694
881.10 16.27866
881.20 16.94003
881.30 17.60141
881.40 17.74335
881.50 17.88529
881.60 18.00691
881.70 18.05647
881.80 18.10604
881.90 18.07361
882.00 17.93682
882.10 17.80002
882.20 16.5396
882.30 14.70032
882.40 12.86105
882.50 15.27861
882.60 18.27665
882.70 20.95717
882.80 20.77997
882.90 20.60277
883.00 19.93041
883.10 18.20582
883.20 16.48123
883.30 16.12484
883.40 16.93397
883.50 17.7431
883.60 18.11611
883.70 18.3514
883.80 18.58669
883.90 19.60668
884.00 20.64268
884.10 21.50735
884.20 21.68672
884.30 21.8661
884.40 21.42552
884.50 20.12882
884.60 18.83211
884.70 18.32948
884.80 18.2735
884.90 18.21753
885.00 19.0629
885.10 20.055
885.20 20.98741
885.30 21.23334
885.40 21.47928
885.50 21.47133
885.60 20.871
885.70 20.27067
885.80 19.99334
885.90 20.01418
886.00 20.03501
886.10 19.73095
886.20 19.31274
886.30 18.89453
886.40 19.32104
886.50 19.78275
886.60 20.11091
886.70 19.83069
886.80 19.55047
886.90 18.94095
887.00 17.83747
887.10 16.73399
887.20 16.49043
887.30 16.77391
887.40 17.05739
887.50 17.94063
887.60 18.93811
887.70 19.9277
887.80 20.79366
887.90 21.65962
888.00 21.84639
888.10 20.2867
888.20 18.727
888.30 18.87882
888.40 20.74214
888.50 22.60546
888.60 23.39901
888.70 23.77652
888.80 24.15404
888.90 22.29347
889.00 20.29003
889.10 18.75176
889.20 19.65554
889.30 20.55933
889.40 20.82944
889.50 20.06565
889.60 19.30185
889.70 19.21694
889.80 19.58462
889.90 19.95229
890.00 20.96397
890.10 22.11701
890.20 23.21927
890.30 23.10268
890.40 22.9861
890.50 22.7065
890.60 21.96297
890.70 21.21944
890.80 20.36091
890.90 19.37779
891.00 18.39468
891.10 18.77594
891.20 19.74195
891.30 20.70795
891.40 21.17172
891.50 21.59182
891.60 22.17908
891.70 23.79315
891.80 25.40721
891.90 26.38938
892.00 26.24819
892.10 26.10699
892.20 23.89127
892.30 20.17331
892.40 16.45536
892.50 17.01672
892.60 18.64791
892.70 20.25538
892.80 20.70049
892.90 21.1456
893.00 21.59059
893.10 22.03519
893.20 22.47979
893.30 22.90711
893.40 23.31416
893.50 23.72121
893.60 23.06701
893.70 21.91339
893.80 20.75978
893.90 20.3421
894.00 20.00619
894.10 19.63726
894.20 19.02617
894.30 18.41507
894.40 17.52555
894.50 16.09554
894.60 14.66552
894.70 15.23315
894.80 17.37035
894.90 19.50755
895.00 19.98698
895.10 19.99883
895.20 20.01067
895.30 19.9385
895.40 19.86633
895.50 20.34547
895.60 22.77924
895.70 25.21302
895.80 27.4885
895.90 29.5625
896.00 31.6365
896.10 30.14299
896.20 26.81166
896.30 23.48033
896.40 21.85249
896.50 20.45695
896.60 19.35963
896.70 20.94633
896.80 22.53304
896.90 23.58398
897.00 23.49642
897.10 23.40885
897.20 23.19107
897.30 22.86237
897.40 22.53367
897.50 22.98068
897.60 23.67264
897.70 24.36461
897.80 24.65452
897.90 24.93623
898.00 25.14575
898.10 25.06654
898.20 24.98733
898.30 24.73939
898.40 24.25845
898.50 23.77751
898.60 23.41521
898.70 23.11965
898.80 22.82409
898.90 22.11232
899.00 21.33279
899.10 20.74739
899.20 22.39454
899.30 24.04169
899.40 24.84912
899.50 23.69722
899.60 22.54532
899.70 21.84955
899.80 21.57483
899.90 21.3001
900.00 21.99104
900.10 23.02125
900.20 24.05147
900.30 24.06131
900.40 24.02863
900.50 23.98221
900.60 23.87324
900.70 23.76427
900.80 23.90458
900.90 24.41883
901.00 24.93308
901.10 25.29429
901.20 25.56169
901.30 25.82908
901.40 25.94432
901.50 26.03057
901.60 26.12491
901.70 26.34583
901.80 26.56675
901.90 26.74121
902.00 26.79615
902.10 26.8511
902.20 26.56698
902.30 25.94382
902.40 25.32065
902.50 25.1366
902.60 25.12332
902.70 25.11004
902.80 25.94832
902.90 26.84094
903.00 27.74678
903.10 28.72194
903.20 29.6971
903.30 30.6838
903.40 31.68936
903.50 32.69491
903.60 33.45321
903.70 34.04667
903.80 34.64013
903.90 32.70667
904.00 30.21852
904.10 27.80642
904.20 27.21948
904.30 26.63254
904.40 26.18045
904.50 26.11217
904.60 26.04389
904.70 26.53512
904.80 27.63247
904.90 28.72983
905.00 28.74854
905.10 28.30497
905.20 27.8614
905.30 27.28704
905.40 26.7013
905.50 26.269
905.60 26.77925
905.70 27.28949
905.80 27.46376
905.90 27.04074
906.00 26.61772
906.10 26.48095
906.20 26.55147
906.30 26.62198
906.40 27.45467
906.50 28.47791
906.60 29.45681
906.70 28.2633
906.80 27.06979
906.90 26.0695
907.00 25.68105
907.10 25.2926
907.20 25.35599
907.30 25.94979
907.40 26.5436
907.50 27.31398
907.60 28.16746
907.70 29.02094
907.80 28.3548
907.90 27.5198
908.00 26.83114
908.10 27.21552
908.20 27.59991
908.30 28.02995
908.40 28.54861
908.50 29.06726
908.60 29.07192
908.70 28.67271
908.80 28.2735
908.90 28.52652
909.00 28.9635
909.10 29.40049
909.20 30.473
909.30 31.54552
909.40 32.29984
909.50 31.92605
909.60 31.55225
909.70 31.26785
909.80 31.09724
909.90 30.92662
910.00 31.65557
910.10 32.84793
910.20 34.0403
910.30 32.74437
910.40 31.10912
910.50 29.54715
910.60 28.64462
910.70 27.74209
910.80 27.46949
910.90 28.53548
911.00 29.60147
911.10 30.5401
911.20 31.37022
911.30 32.20035
911.40 31.91049
911.50 31.26695
911.60 30.6234
911.70 30.72961
911.80 30.85112
911.90 31.26325
912.00 32.83788
912.10 34.41252
912.20 35.28326
912.30 35.18195
912.40 35.08065
912.50 34.87996
912.60 34.62338
912.70 34.3668
912.80 33.536
912.90 32.61172
913.00 31.83241
913.10 32.72023
913.20 33.60805
913.30 34.1555
913.40 33.90877
913.50 33.66203
913.60 33.34095
913.70 32.95124
913.80 32.56153
913.90 32.37965
914.00 32.27079
914.10 32.16193
914.20 32.41538
914.30 32.68392
914.40 33.06523
914.50 33.96026
914.60 34.85529
914.70 35.00097
914.80 34.0226
914.90 33.04424
915.00 32.26157
915.10 31.59886
915.20 30.93614
915.30 31.55232
915.40 32.41209
915.50 33.31344
915.60 34.86609
915.70 36.41875
915.80 37.4506
915.90 37.14325
916.00 36.83591
916.10 36.23615
916.20 35.34398
916.30 34.45181
916.40 34.94236
916.50 35.97063
916.60 36.9989
916.70 37.20268
916.80 37.35384
916.90 37.36007
917.00 36.60543
917.10 35.8508
917.20 34.77895
917.30 33.18955
917.40 31.60016
917.50 31.15887
917.60 31.48298
917.70 31.8071
917.80 33.63972
917.90 35.80346
918.00 37.87911
918.10 37.84036
918.20 37.80161
918.30 37.73729
918.40 37.60015
918.50 37.46302
918.60 38.17435
918.70 39.80484
918.80 41.43533
918.90 42.34023
919.00 42.93415
919.10 43.52807
919.20 41.33509
919.30 38.89976
919.40 36.65871
919.50 35.61103
919.60 34.56336
919.70 34.27269
919.80 35.3278
919.90 36.38292
920.00 37.33821
920.10 38.22123
920.20 39.10424
920.30 39.48982
920.40 39.75103
920.50 40.00338
920.60 39.82103
920.70 39.63868
920.80 39.27567
920.90 38.34058
921.00 37.40548
921.10 36.62875
921.20 36.03792
921.30 35.44709
921.40 35.55136
921.50 35.98273
921.60 36.41411
921.70 37.73796
921.80 39.16098
921.90 40.39325
922.00 40.2267
922.10 40.06015
922.20 39.95258
922.30 39.9595
922.40 39.96643
922.50 40.17826
922.60 40.55108
922.70 40.92391
922.80 41.46772
922.90 42.05975
923.00 42.65178
923.10 42.5752
923.20 42.49862
923.30 42.30527
923.40 41.6979
923.50 41.09052
923.60 40.665
923.70 40.47092
923.80 40.27684
923.90 40.0525
924.00 39.81257
924.10 39.57264
924.20 40.11737
924.30 40.7691
924.40 41.39374
924.50 41.77458
924.60 42.15542
924.70 42.14734
924.80 41.3128
924.90 40.47827
925.00 40.22851
925.10 40.47691
925.20 40.72531
925.30 41.4501
925.40 42.32533
925.50 43.20055
925.60 43.28739
925.70 43.35813
925.80 43.25978
925.90 42.48505
926.00 41.71033
926.10 41.42329
926.20 41.80974
926.30 42.19619
926.40 42.75175
926.50 43.40245
926.60 44.05315
926.70 44.57705
926.80 45.08032
926.90 45.45838
927.00 44.39662
927.10 43.33487
927.20 42.53382
927.30 42.34112
927.40 42.14841
927.50 40.75546
927.60 38.25461
927.70 35.75375
927.80 34.64141
927.90 34.01692
928.00 33.39244
928.10 34.76152
928.20 36.21367
928.30 37.41441
928.40 37.46981
928.50 37.52522
928.60 37.59635
928.70 37.69107
928.80 37.78579
928.90 37.45831
929.00 36.87206
929.10 36.28581
929.20 36.46379
929.30 36.78733
929.40 37.10782
929.50 37.38037
929.60 37.65292
929.70 37.54789
929.80 36.47194
929.90 35.39599
930.00 34.29844
930.10 33.17927
930.20 32.06011
930.30 31.81569
930.40 31.91144
930.50 32.0072
930.60 31.13261
930.70 30.19608
930.80 29.29624
930.90 28.58899
931.00 27.88175
931.10 28.50154
931.20 31.28651
931.30 34.07148
931.40 30.2492
931.50 22.0221
931.60 13.79499
931.70 16.47348
931.80 21.54589
931.90 26.5333
932.00 29.48087
932.10 32.42844
932.20 33.60924
932.30 29.76154
932.40 25.91385
932.50 24.17478
932.60 24.72005
932.70 25.26532
932.80 28.46604
932.90 32.80481
933.00 37.14358
933.10 34.28242
933.20 30.79519
933.30 27.70895
933.40 27.08601
933.50 26.46307
933.60 26.25533
933.70 26.78573
933.80 27.31612
933.90 27.66513
934.00 27.88279
934.10 28.10045
934.20 25.50104
934.30 22.19735
934.40 19.03603
934.50 22.8503
934.60 26.66457
934.70 30.76996
934.80 35.7972
934.90 40.82444
935.00 42.18634
935.10 39.24547
935.20 36.30459
935.30 33.44308
935.40 30.6189
935.50 27.79473
935.60 26.33353
935.70 25.02378
935.80 24.39206
935.90 28.73254
936.00 33.07303
936.10 36.07651
936.20 36.48465
936.30 36.89279
936.40 35.77894
936.50 33.46925
936.60 31.15956
936.70 30.45031
936.80 30.19247
936.90 29.93462
937.00 27.57537
937.10 25.21611
937.20 24.49709
937.30 29.59347
937.40 34.68985
937.50 35.59308
937.60 31.15959
937.70 26.7261
937.80 22.43477
937.90 18.21666
938.00 13.99855
938.10 19.30575
938.20 25.91184
938.30 31.69539
938.40 30.07594
938.50 28.45649
938.60 27.68952
938.70 28.73404
938.80 29.77857
938.90 32.36945
939.00 36.27758
939.10 40.18572
939.20 41.33799
939.30 41.61998
939.40 41.90198
939.50 40.86031
939.60 39.79163
939.70 38.77017
939.80 37.93758
939.90 37.10499
940.00 36.38536
940.10 35.82171
940.20 35.25807
940.30 35.6512
940.40 36.58252
940.50 37.51384
940.60 39.65664
940.70 41.99667
940.80 44.1066
940.90 43.57043
941.00 43.03426
941.10 42.58942
941.20 42.35768
941.30 42.12593
941.40 41.56919
941.50 40.71245
941.60 39.85571
941.70 42.85876
941.80 47.21797
941.90 51.57717
942.00 53.20049
942.10 54.70982
942.20 54.74659
942.30 48.07506
942.40 41.40354
942.50 36.04384
942.60 32.6519
942.70 29.25997
942.80 28.75309
942.90 30.01448
943.00 31.27587
943.10 36.08331
943.20 41.5662
943.30 46.49636
943.40 42.76719
943.50 39.03803
943.60 36.35188
943.70 36.34775
943.80 36.34363
943.90 37.02819
944.00 38.40141
944.10 39.77464
944.20 34.79874
944.30 27.35375
944.40 19.90876
944.50 25.10334
944.60 31.10471
944.70 36.83535
944.80 41.14464
944.90 45.45394
945.00 47.56011
945.10 46.07173
945.20 44.58335
945.30 42.49044
945.40 39.9945
945.50 37.49857
945.60 35.82062
945.70 34.32222
945.80 32.7943
945.90 30.55787
946.00 28.32143
946.10 27.10815
946.20 28.80693
946.30 30.5057
946.40 33.6584
946.50 38.38619
946.60 43.11398
946.70 43.72395
946.80 42.56913
946.90 41.41431
947.00 39.8988
947.10 38.35193
947.20 36.74971
947.30 34.80752
947.40 32.86532
947.50 30.97318
947.60 29.17001
947.70 27.36684
947.80 25.85377
947.90 24.55077
948.00 23.24777
948.10 26.30466
948.20 30.45152
948.30 34.56467
948.40 37.02581
948.50 39.48694
948.60 41.67211
948.70 42.98335
948.80 44.29459
948.90 44.44585
949.00 43.2354
949.10 42.02495
949.20 39.42111
949.30 36.16155
949.40 32.90199
949.50 32.8201
949.60 33.09127
949.70 33.21214
949.80 32.23074
949.90 31.24934
950.00 31.10666
950.10 32.59206
950.20 34.07747
950.30 36.80088
950.40 40.49702
950.50 44.19316
950.60 45.53024
950.70 46.20195
950.80 46.87365
950.90 45.9571
951.00 45.04055
951.10 44.43547
951.20 44.93473
951.30 45.43398
951.40 43.94035
951.50 39.9103
951.60 35.88025
951.70 37.88377
951.80 42.99549
951.90 48.10721
952.00 46.13884
952.10 43.20501
952.20 40.26712
952.30 37.29276
952.40 34.3184
952.50 33.67304
952.60 37.97678
952.70 42.28052
952.80 44.29526
952.90 44.3601
953.00 44.42495
953.10 44.82804
953.20 45.33794
953.30 45.84784
953.40 44.62547
953.50 43.36774
953.60 43.05118
953.70 46.49926
953.80 49.94735
953.90 51.1334
954.00 49.19567
954.10 47.25794
954.20 43.83688
954.30 39.58144
954.40 35.32601
954.50 37.62911
954.60 40.99987
954.70 44.03061
954.80 43.15109
954.90 42.27157
955.00 41.1514
955.10 39.46974
955.20 37.78808
955.30 37.32713
955.40 37.993
955.50 38.65886
955.60 38.16073
955.70 37.25362
955.80 36.34651
955.90 38.8272
956.00 41.44905
956.10 43.64371
956.20 43.89228
956.30 44.14085
956.40 42.81083
956.50 39.11291
956.60 35.415
956.70 34.08137
956.80 34.19681
956.90 34.31225
957.00 38.17269
957.10 42.74646
957.20 47.16219
957.30 49.10198
957.40 51.04177
957.50 52.20324
957.60 51.36333
957.70 50.52341
957.80 48.50607
957.90 45.31131
958.00 42.11654
958.10 41.48825
958.20 41.85805
958.30 42.22784
958.40 43.8253
958.50 45.50112
958.60 46.3076
958.70 42.55005
958.80 38.7925
958.90 36.28106
959.00 35.80275
959.10 35.32444
959.20 35.89452
959.30 37.16352
959.40 38.43252
959.50 39.33043
959.60 40.14688
959.70 40.95355
959.80 41.52561
959.90 42.09767
960.00 42.86947
960.10 44.20979
960.20 45.5501
960.30 45.64385
960.40 44.38716
960.50 43.13046
960.60 42.78767
960.70 42.83655
960.80 42.88542
960.90 44.62739
961.00 46.51659
961.10 47.98326
961.20 46.85449
961.30 45.72571
961.40 44.53856
961.50 43.24764
961.60 41.95672
961.70 42.07413
961.80 43.21138
961.90 44.34863
962.00 44.73972
962.10 44.94428
962.20 45.10951
962.30 43.34778
962.40 41.58604
962.50 40.49229
962.60 41.51381
962.70 42.53533
962.80 44.39084
962.90 47.22537
963.00 50.0599
963.10 50.2989
963.20 49.31647
963.30 48.33405
963.40 46.20287
963.50 43.94406
963.60 41.89693
963.70 41.40214
963.80 40.90735
963.90 41.05042
964.00 42.43172
964.10 43.81301
964.20 44.1962
964.30 43.79516
964.40 43.39412
964.50 43.31781
964.60 43.33309
964.70 43.34837
964.80 43.54469
964.90 43.741
965.00 43.69131
965.10 42.76944
965.20 41.84756
965.30 41.63981
965.40 42.34093
965.50 43.04205
965.60 43.60752
965.70 44.10311
965.80 44.59871
965.90 44.19436
966.00 43.66728
966.10 43.08728
966.20 42.03084
966.30 40.97441
966.40 40.66228
966.50 41.9318
966.60 43.20131
966.70 44.1447
966.80 44.81028
966.90 45.47586
967.00 46.29399
967.10 47.16029
967.20 48.02659
967.30 49.35782
967.40 50.69853
967.50 51.57634
967.60 50.60249
967.70 49.62865
967.80 49.59024
967.90 50.84361
968.00 52.09699
968.10 52.8204
968.20 53.24571
968.30 53.67102
968.40 53.20744
968.50 52.59915
968.60 51.99554
968.70 51.44575
968.80 50.89596
968.90 50.47674
969.00 50.36222
969.10 50.24769
969.20 50.08796
969.30 49.88649
969.40 49.68503
969.50 49.6891
969.60 49.76539
969.70 49.84169
969.80 49.68073
969.90 49.50988
970.00 49.35001
970.10 49.24012
970.20 49.13023
970.30 49.4624
970.40 50.45765
970.50 51.4529
970.60 52.59711
970.70 53.83263
970.80 55.06815
970.90 52.74348
971.00 49.74068
971.10 46.87193
971.20 46.10345
971.30 45.33496
971.40 45.21351
971.50 46.75586
971.60 48.29821
971.70 51.32694
971.80 55.84205
971.90 60.35716
972.00 58.63639
972.10 54.49056
972.20 50.34473
972.30 47.55698
972.40 44.85592
972.50 42.71345
972.60 43.50363
972.70 44.29381
972.80 45.72663
972.90 48.20797
973.00 50.68931
973.10 50.80808
973.20 49.35181
973.30 47.89554
973.40 47.0667
973.50 46.37559
973.60 45.82219
973.70 48.57368
973.80 51.32517
973.90 53.23246
974.00 52.73704
974.10 52.24161
974.20 51.84856
974.30 51.56639
974.40 51.28423
974.50 50.87658
974.60 50.41516
974.70 49.95373
974.80 49.02446
974.90 48.05451
975.00 47.25513
975.10 47.50353
975.20 47.75192
975.30 48.3193
975.40 49.45374
975.50 50.58818
975.60 51.4551
975.70 52.12829
975.80 52.80148
975.90 52.12866
976.00 51.11933
976.10 50.13592
976.20 50.42243
976.30 50.70895
976.40 50.99447
976.50 51.27687
976.60 51.55926
976.70 52.10214
976.80 52.95082
976.90 53.79949
977.00 54.49653
977.10 55.12222
977.20 55.7479
977.30 55.00984
977.40 54.12024
977.50 53.28786
977.60 52.87503
977.70 52.4622
977.80 51.49725
977.90 49.46057
978.00 47.42388
978.10 46.68088
978.20 46.95435
978.30 47.22781
978.40 46.67132
978.50 45.88075
978.60 45.09017
978.70 47.90204
978.80 50.7139
978.90 53.1842
979.00 54.44347
979.10 55.70274
979.20 55.62993
979.30 53.86173
979.40 52.09353
979.50 51.42805
979.60 51.33064
979.70 51.23322
979.80 53.30675
979.90 55.67631
980.00 57.59081
980.10 55.40978
980.20 53.22875
980.30 51.70691
980.40 51.58586
980.50 51.46481
980.60 50.09232
980.70 47.65379
980.80 45.21526
980.90 46.05528
981.00 47.93062
981.10 49.80596
981.20 49.88363
981.30 49.92461
981.40 50.05176
981.50 50.5236
981.60 50.99544
981.70 51.40913
981.80 51.74252
981.90 52.07591
982.00 51.71245
982.10 50.95702
982.20 50.20158
982.30 47.78614
982.40 45.10048
982.50 42.70216
982.60 43.60835
982.70 44.51454
982.80 44.92486
982.90 44.17812
983.00 43.43138
983.10 41.95613
983.20 39.80841
983.30 37.66069
983.40 41.03438
983.50 46.34802
983.60 51.66166
983.70 53.23245
983.80 54.64728
983.90 55.59544
984.00 54.41761
984.10 53.23979
984.20 52.38272
984.30 52.00681
984.40 51.63089
984.50 51.48123
984.60 51.47024
984.70 51.45925
984.80 52.69903
984.90 54.17705
985.00 55.46735
985.10 53.81659
985.20 52.16584
985.30 50.91449
985.40 50.69019
985.50 50.46589
985.60 50.84764
985.70 51.83545
985.80 52.82326
985.90 51.88246
986.00 50.19164
986.10 48.50082
986.20 49.2688
986.30 50.19373
986.40 51.11866
986.50 52.04359
986.60 52.96852
986.70 53.89345
986.80 54.81838
986.90 55.74331
987.00 56.66824
987.10 57.59317
987.20 58.5181
987.30 58.90486
987.40 58.70861
987.50 58.51235
987.60 58.31609
987.70 58.11983
987.80 57.92357
987.90 57.72731
988.00 57.53105
988.10 57.33479
988.20 57.13853
988.30 56.94227
988.40 56.74602
988.50 56.53551
988.60 56.05434
988.70 55.57317
988.80 55.09199
988.90 54.61082
989.00 54.12965
989.10 53.64848
989.20 53.16731
989.30 52.68613
989.40 52.20496
989.50 51.72379
989.60 51.24262
989.70 50.76145
989.80 50.30263
989.90 49.8581
990.00 49.41357
990.10 48.96904
990.20 48.52452
990.30 48.07999
990.40 47.63546
990.50 47.19093
990.60 46.74641
990.70 46.30188
990.80 45.85735
990.90 45.41282
991.00 44.93832
991.10 44.31748
991.20 43.69664
991.30 43.07579
991.40 42.45495
991.50 41.83411
991.60 41.21327
991.70 40.59243
991.80 39.97158
991.90 39.35074
992.00 38.7299
992.10 38.10906
992.20 37.48821
992.30 37.30057
992.40 37.27315
992.50 37.24572
992.60 37.2183
992.70 37.19088
992.80 37.16346
992.90 37.13603
993.00 37.10861
993.10 37.08119
993.20 37.05377
993.30 37.02634
993.40 36.99892
993.50 37.09283
993.60 37.48379
993.70 37.87475
993.80 38.26572
993.90 38.65668
994.00 39.04764
994.10 39.4386
994.20 39.82956
994.30 40.22052
994.40 40.61149
994.50 41.00245
994.60 41.39341
994.70 41.78437
994.80 42.24243
994.90 42.71234
995.00 43.18224
995.10 43.65215
995.20 44.12205
995.30 44.59195
995.40 45.06186
995.50 45.53176
995.60 46.00166
995.70 46.47157
995.80 46.94147
995.90 47.41138
996.00 47.72017
996.10 47.79713
996.20 47.87409
996.30 47.95105
996.40 48.02801
996.50 48.10497
996.60 48.18193
996.70 48.25889
996.80 48.33585
996.90 48.41281
997.00 48.48977
997.10 48.56672
997.20 48.64368
997.30 48.27741
997.40 47.89742
997.50 47.51743
997.60 47.13744
997.70 46.75745
997.80 46.37747
997.90 45.99748
998.00 45.61749
998.10 45.2375
998.20 44.85752
998.30 44.47753
998.40 44.09754
998.50 44.12807
998.60 44.52266
998.70 44.91724
998.80 45.31182
998.90 45.7064
999.00 46.10098
999.10 46.49556
999.20 46.89014
999.30 47.28473
999.40 47.67931
999.50 48.07389
999.60 48.46847
999.70 48.8099
999.80 48.61388
999.90 48.41786
1000.00 48.22185
1000.10 48.02583
1000.20 47.82981
1000.30 47.6338
1000.40 47.43778
1000.50 47.24176
1000.60 47.04575
1000.70 46.84973
1000.80 46.65371
1000.90 46.4577
1001.00 46.05606
1001.10 45.51736
1001.20 44.97865
1001.30 44.43994
1001.40 43.90123
1001.50 43.36252
1001.60 42.82381
1001.70 42.28511
1001.80 41.7464
1001.90 41.20769
1002.00 40.66898
1002.10 40.13027
1002.20 39.78252
1002.30 40.1986
1002.40 40.61467
1002.50 41.03075
1002.60 41.44683
1002.70 41.86291
1002.80 42.27898
1002.90 42.69506
1003.00 43.11114
1003.10 43.52721
1003.20 43.94329
1003.30 44.35937
1003.40 44.77544
1003.50 45.17983
1003.60 45.58128
1003.70 45.98274
1003.80 46.3842
1003.90 46.78566
1004.00 47.18711
1004.10 47.58857
1004.20 47.99003
1004.30 48.39149
1004.40 48.79294
1004.50 49.1944
1004.60 49.59586
1004.70 49.68842
1004.80 49.06023
1004.90 48.43203
1005.00 47.80383
1005.10 47.17564
1005.20 46.54744
1005.30 45.91925
1005.40 45.29105
1005.50 44.66286
1005.60 44.03466
1005.70 43.40646
1005.80 42.77827
1005.90 42.15007
1006.00 41.92137
1006.10 41.73705
1006.20 41.55274
1006.30 41.36842
1006.40 41.18411
1006.50 40.99979
1006.60 40.81548
1006.70 40.63116
1006.80 40.44685
1006.90 40.26254
1007.00 40.07822
1007.10 39.89391
1007.20 40.05613
1007.30 40.73815
1007.40 41.42017
1007.50 42.1022
1007.60 42.78422
1007.70 43.46625
1007.80 44.14827
1007.90 44.8303
1008.00 45.51232
1008.10 46.19434
1008.20 46.87637
1008.30 47.55839
1008.40 48.24042
1008.50 48.20921
1008.60 48.178
1008.70 48.1468
1008.80 48.11559
1008.90 48.08439
1009.00 48.05318
1009.10 48.02197
1009.20 47.99077
1009.30 47.95956
1009.40 47.92835
1009.50 47.89715
1009.60 47.86594
1009.70 48.01812
1009.80 48.29256
1009.90 48.56699
1010.00 48.84143
1010.10 49.11586
1010.20 49.3903
1010.30 49.66473
1010.40 49.93917
1010.50 50.21361
1010.60 50.48804
1010.70 50.76248
1010.80 51.03691
1010.90 51.32836
1011.00 51.7729
1011.10 52.21743
1011.20 52.66197
1011.30 53.10651
1011.40 53.55105
1011.50 53.99558
1011.60 54.44012
1011.70 54.88466
1011.80 55.32919
1011.90 55.77373
1012.00 56.21827
1012.10 56.66281
1012.20 56.5029
1012.30 56.08394
1012.40 55.66498
1012.50 55.24602
1012.60 54.82706
1012.70 54.4081
1012.80 53.98914
1012.90 53.57018
1013.00 53.15122
1013.10 52.73226
1013.20 52.3133
1013.30 51.89434
1013.40 51.47374
1013.50 51.0466
1013.60 50.61946
1013.70 50.19233
1013.80 49.76519
1013.90 49.33805
1014.00 48.91091
1014.10 48.48378
1014.20 48.05664
1014.30 47.6295
1014.40 47.20236
1014.50 46.77523
1014.60 46.34809
1014.70 46.15514
1014.80 46.02073
1014.90 45.88633
1015.00 45.75192
1015.10 45.61752
1015.20 45.48311
1015.30 45.34871
1015.40 45.2143
1015.50 45.0799
1015.60 44.94549
1015.70 44.81109
1015.80 44.67668
1015.90 44.57134
1016.00 44.53379
1016.10 44.49625
1016.20 44.4587
1016.30 44.42116
1016.40 44.38361
1016.50 44.34607
1016.60 44.30852
1016.70 44.27098
1016.80 44.23343
1016.90 44.19588
1017.00 44.15834
1017.10 44.12079
1017.20 44.31812
1017.30 44.54153
1017.40 44.76495
1017.50 44.98837
1017.60 45.21179
1017.70 45.43521
1017.80 45.65863
1017.90 45.88204
1018.00 46.10546
1018.10 46.32888
1018.20 46.5523
1018.30 46.77572
1018.40 46.97987
1018.50 47.15514
1018.60 47.33041
1018.70 47.50567
1018.80 47.68094
1018.90 47.85621
1019.00 48.03147
1019.10 48.20674
1019.20 48.38201
1019.30 48.55727
1019.40 48.73254
1019.50 48.90781
1019.60 49.08307
1019.70 49.18749
1019.80 49.2919
1019.90 49.39632
1020.00 49.50073
1020.10 49.60515
1020.20 49.70957
1020.30 49.81398
1020.40 49.9184
1020.50 50.02281
1020.60 50.12723
1020.70 50.23164
1020.80 50.33606
1020.90 50.52346
1021.00 50.79385
1021.10 51.06423
1021.20 51.33462
1021.30 51.60501
1021.40 51.87539
1021.50 52.14578
1021.60 52.41617
1021.70 52.68656
1021.80 52.95694
1021.90 53.22733
1022.00 53.49772
1022.10 53.73832
1022.20 53.71082
1022.30 53.68332
1022.40 53.65582
1022.50 53.62832
1022.60 53.60083
1022.70 53.57333
1022.80 53.54583
1022.90 53.51833
1023.00 53.49083
1023.10 53.46334
1023.20 53.43584
1023.30 53.40834
1023.40 53.24847
1023.50 53.03188
1023.60 52.81528
1023.70 52.59869
1023.80 52.38209
1023.90 52.1655
1024.00 51.9489
1024.10 51.7323
1024.20 51.51571
1024.30 51.29911
1024.40 51.08252
1024.50 50.86592
1024.60 50.72064
1024.70 50.86059
1024.80 51.00054
1024.90 51.1405
1025.00 51.28045
1025.10 51.42041
1025.20 51.56036
1025.30 51.70032
1025.40 51.84027
1025.50 51.98022
1025.60 52.12018
1025.70 52.26013
1025.80 52.40009
1025.90 52.49485
1026.00 52.57831
1026.10 52.66177
1026.20 52.74524
1026.30 52.8287
1026.40 52.91217
1026.50 52.99563
1026.60 53.07909
1026.70 53.16256
1026.80 53.24602
1026.90 53.32948
1027.00 53.41295
1027.10 53.48198
1027.20 53.51736
1027.30 53.55274
1027.40 53.58811
1027.50 53.62349
1027.60 53.65887
1027.70 53.69424
1027.80 53.72962
1027.90 53.765
1028.00 53.80037
1028.10 53.83575
1028.20 53.87113
1028.30 53.9065
1028.40 53.83494
1028.50 53.75149
1028.60 53.66803
1028.70 53.58458
1028.80 53.50113
1028.90 53.41768
1029.00 53.33423
1029.10 53.25078
1029.20 53.16733
1029.30 53.08388
1029.40 53.00043
1029.50 52.91698
1029.60 52.73905
1029.70 52.4194
1029.80 52.09975
1029.90 51.7801
1030.00 51.46046
1030.10 51.14081
1030.20 50.82116
1030.30 50.50151
1030.40 50.18187
1030.50 49.86222
1030.60 49.54257
1030.70 49.22292
1030.80 48.90328
1030.90 49.21349
1031.00 49.52371
1031.10 49.83393
1031.20 50.14414
1031.30 50.45436
1031.40 50.76458
1031.50 51.07479
1031.60 51.38501
1031.70 51.69523
1031.80 52.00544
1031.90 52.31566
1032.00 52.62588
1032.10 52.91143
1032.20 53.17233
1032.30 53.43322
1032.40 53.69412
1032.50 53.95501
1032.60 54.21591
1032.70 54.4768
1032.80 54.7377
1032.90 54.99859
1033.00 55.25949
1033.10 55.52038
1033.20 55.78128
1033.30 56.04217
1033.40 56.30307
1033.50 56.56396
1033.60 56.82486
1033.70 57.08575
1033.80 57.34665
1033.90 57.60754
1034.00 57.86844
1034.10 58.12933
1034.20 58.39023
1034.30 58.65112
1034.40 58.91202
1034.50 59.17291
1034.60 59.43381
1034.70 59.6947
1034.80 59.9556
1034.90 60.21649
1035.00 60.47739
1035.10 60.5648
1035.20 60.57786
1035.30 60.59093
1035.40 60.60399
1035.50 60.61705
1035.60 60.63011
1035.70 60.64318
1035.80 60.65624
1035.90 60.6693
1036.00 60.68236
1036.10 60.69543
1036.20 60.70849
1036.30 60.74083
1036.40 60.81815
1036.50 60.89548
1036.60 60.9728
1036.70 61.05012
1036.80 61.12745
1036.90 61.20477
1037.00 61.28209
1037.10 61.35941
1037.20 61.43674
1037.30 61.51406
1037.40 61.59138
1037.50 61.66871
1037.60 61.73701
1037.70 61.80431
1037.80 61.8716
1037.90 61.9389
1038.00 62.0062
1038.10 62.0735
1038.20 62.14079
1038.30 62.20809
1038.40 62.27539
1038.50 62.34269
1038.60 62.40999
1038.70 62.47728
1038.80 62.55457
1038.90 62.64684
1039.00 62.73912
1039.10 62.83139
1039.20 62.92366
1039.30 63.01593
1039.40 63.1082
1039.50 63.20048
1039.60 63.29275
1039.70 63.38502
1039.80 63.47729
1039.90 63.56956
1040.00 63.66183
1040.10 63.58204
1040.20 63.50224
1040.30 63.42244
1040.40 63.34264
1040.50 63.26284
1040.60 63.18304
1040.70 63.10324
1040.80 63.02344
1040.90 62.94364
1041.00 62.86384
1041.10 62.78404
1041.20 62.70424
1041.30 62.7491
1041.40 62.87706
1041.50 63.00503
1041.60 63.13299
1041.70 63.26095
1041.80 63.38892
1041.90 63.51688
1042.00 63.64485
1042.10 63.77281
1042.20 63.90077
1042.30 64.02874
1042.40 64.1567
1042.50 64.2811
1042.60 64.3734
1042.70 64.46569
1042.80 64.55799
1042.90 64.65029
1043.00 64.74259
1043.10 64.83488
1043.20 64.92718
1043.30 65.01948
1043.40 65.11178
1043.50 65.20407
1043.60 65.29637
1043.70 65.38867
1043.80 65.2796
1043.90 65.08424
1044.00 64.88888
1044.10 64.69351
1044.20 64.49815
1044.30 64.30279
1044.40 64.10742
1044.50 63.91206
1044.60 63.7167
1044.70 63.52133
1044.80 63.32597
1044.90 63.1306
1045.00 62.94851
1045.10 62.81949
1045.20 62.69047
1045.30 62.56144
1045.40 62.43242
1045.50 62.3034
1045.60 62.17438
1045.70 62.04536
1045.80 61.91634
1045.90 61.78731
1046.00 61.65829
1046.10 61.52927
1046.20 61.40025
1046.30 61.42216
1046.40 61.4818
1046.50 61.54144
1046.60 61.60108
1046.70 61.66072
1046.80 61.72036
1046.90 61.78001
1047.00 61.83965
1047.10 61.89929
1047.20 61.95893
1047.30 62.01857
1047.40 62.07821
1047.50 62.21495
1047.60 62.46732
1047.70 62.7197
1047.80 62.97208
1047.90 63.22445
1048.00 63.47683
1048.10 63.72921
1048.20 63.98158
1048.30 64.23396
1048.40 64.48634
1048.50 64.73871
1048.60 64.99109
1048.70 65.24347
1048.80 65.26983
1048.90 65.27109
1049.00 65.27235
1049.10 65.27361
1049.20 65.27486
1049.30 65.27612
1049.40 65.27738
1049.50 65.27864
1049.60 65.27989
1049.70 65.28115
1049.80 65.28241
1049.90 65.28367
1050.00 65.30153
1050.10 65.33599
1050.20 65.37046
1050.30 65.40493
1050.40 65.43939
1050.50 65.47386
1050.60 65.50832
1050.70 65.54279
1050.80 65.57725
1050.90 65.61172
1051.00 65.64619
1051.10 65.68065
1051.20 65.72329
1051.30 65.83953
1051.40 65.95577
1051.50 66.07202
1051.60 66.18826
1051.70 66.3045
1051.80 66.42074
1051.90 66.53698
1052.00 66.65322
1052.10 66.76946
1052.20 66.8857
1052.30 67.00194
1052.40 67.11818
1052.50 67.18983
1052.60 67.23175
1052.70 67.27367
1052.80 67.31559
1052.90 67.35751
1053.00 67.39943
1053.10 67.44135
1053.20 67.48328
1053.30 67.5252
1053.40 67.56712
1053.50 67.60904
1053.60 67.65096
1053.70 67.65737
1053.80 67.52177
1053.90 67.38617
1054.00 67.25056
1054.10 67.11496
1054.20 66.97935
1054.30 66.84375
1054.40 66.70814
1054.50 66.57254
1054.60 66.43694
1054.70 66.30133
1054.80 66.16573
1054.90 66.03012
1055.00 65.93657
1055.10 65.85352
1055.20 65.77048
1055.30 65.68744
1055.40 65.60439
1055.50 65.52135
1055.60 65.43831
1055.70 65.35526
1055.80 65.27222
1055.90 65.18918
1056.00 65.10613
1056.10 65.02309
1056.20 65.03494
1056.30 65.2682
1056.40 65.50147
1056.50 65.73473
1056.60 65.968
1056.70 66.20127
1056.80 66.43453
1056.90 66.6678
1057.00 66.90106
1057.10 67.13433
1057.20 67.36759
1057.30 67.60086
1057.40 67.83412
1057.50 67.88614
1057.60 67.91801
1057.70 67.94988
1057.80 67.98176
1057.90 68.01363
1058.00 68.0455
1058.10 68.07738
1058.20 68.10925
1058.30 68.14112
1058.40 68.173
1058.50 68.20487
1058.60 68.23675
1058.70 68.24629
1058.80 68.23351
1058.90 68.22073
1059.00 68.20795
1059.10 68.19517
1059.20 68.18239
1059.30 68.16961
1059.40 68.15683
1059.50 68.14405
1059.60 68.13127
1059.70 68.11849
1059.80 68.10571
1059.90 68.09293
1060.00 67.89861
1060.10 67.70429
1060.20 67.50997
1060.30 67.31565
1060.40 67.12133
1060.50 66.92701
1060.60 66.73268
1060.70 66.53836
1060.80 66.34404
1060.90 66.14972
1061.00 65.9554
1061.10 65.76108
1061.20 65.70927
1061.30 65.75247
1061.40 65.79568
1061.50 65.83888
1061.60 65.88209
1061.70 65.92529
1061.80 65.96849
1061.90 66.0117
1062.00 66.0549
1062.10 66.09811
1062.20 66.14131
1062.30 66.18451
1062.40 66.28128
1062.50 66.5923
1062.60 66.90332
1062.70 67.21434
1062.80 67.52536
1062.90 67.83637
1063.00 68.14739
1063.10 68.45841
1063.20 68.76943
1063.30 69.08045
1063.40 69.39147
1063.50 69.70249
1063.60 70.0135
1063.70 70.02243
1063.80 69.90189
1063.90 69.78135
1064.00 69.66081
1064.10 69.54027
1064.20 69.41973
1064.30 69.29919
1064.40 69.17865
1064.50 69.05811
1064.60 68.93757
1064.70 68.81703
1064.80 68.69649
1064.90 68.54475
1065.00 68.32018
1065.10 68.09561
1065.20 67.87105
1065.30 67.64648
1065.40 67.42192
1065.50 67.19735
1065.60 66.97279
1065.70 66.74822
1065.80 66.52366
1065.90 66.29909
1066.00 66.07453
1066.10 65.84996
1066.20 66.00955
1066.30 66.21183
1066.40 66.4141
1066.50 66.61638
1066.60 66.81865
1066.70 67.02093
1066.80 67.2232
1066.90 67.42548
1067.00 67.62775
1067.10 67.83003
1067.20 68.03231
1067.30 68.23458
1067.40 68.38923
1067.50 68.47243
1067.60 68.55563
1067.70 68.63883
1067.80 68.72203
1067.90 68.80523
1068.00 68.88843
1068.10 68.97163
1068.20 69.05483
1068.30 69.13803
1068.40 69.22123
1068.50 69.30443
1068.60 69.38763
1068.70 69.30858
1068.80 69.22953
1068.90 69.15049
1069.00 69.07144
1069.10 68.99239
1069.20 68.91335
1069.30 68.8343
1069.40 68.75525
1069.50 68.67621
1069.60 68.59716
1069.70 68.51811
1069.80 68.43907
1069.90 68.40351
1070.00 68.41146
1070.10 68.4194
1070.20 68.42734
1070.30 68.43528
1070.40 68.44323
1070.50 68.45117
1070.60 68.45911
1070.70 68.46706
1070.80 68.475
1070.90 68.48294
1071.00 68.49088
1071.10 68.52285
1071.20 68.77105
1071.30 69.01926
1071.40 69.26746
1071.50 69.51566
1071.60 69.76386
1071.70 70.01206
1071.80 70.26026
1071.90 70.50846
1072.00 70.75666
1072.10 71.00487
1072.20 71.25307
1072.30 71.50127
1072.40 71.70061
1072.50 71.87902
1072.60 72.05743
1072.70 72.23584
1072.80 72.41425
1072.90 72.59266
1073.00 72.77107
1073.10 72.94948
1073.20 73.12788
1073.30 73.30629
1073.40 73.4847
1073.50 73.66311
1073.60 73.82113
1073.70 73.89761
1073.80 73.97408
1073.90 74.05056
1074.00 74.12704
1074.10 74.20351
1074.20 74.27999
1074.30 74.35647
1074.40 74.43294
1074.50 74.50942
1074.60 74.58589
1074.70 74.66237
1074.80 74.73885
1074.90 74.80225
1075.00 74.86237
1075.10 74.9225
1075.20 74.98263
1075.30 75.04276
1075.40 75.10289
1075.50 75.16302
1075.60 75.22315
1075.70 75.28328
1075.80 75.3434
1075.90 75.40353
1076.00 75.46366
1076.10 75.47624
1076.20 75.41748
1076.30 75.35872
1076.40 75.29997
1076.50 75.24121
1076.60 75.18245
1076.70 75.1237
1076.80 75.06494
1076.90 75.00618
1077.00 74.94743
1077.10 74.88867
1077.20 74.82991
1077.30 74.77116
1077.40 74.56741
1077.50 74.34755
1077.60 74.1277
1077.70 73.90784
1077.80 73.68798
1077.90 73.46813
1078.00 73.24827
1078.10 73.02842
1078.20 72.80856
1078.30 72.5887
1078.40 72.36885
1078.50 72.14899
1078.60 71.98067
1078.70 71.86389
1078.80 71.74711
1078.90 71.63033
1079.00 71.51355
1079.10 71.39677
1079.20 71.27999
1079.30 71.16321
1079.40 71.04643
1079.50 70.92965
1079.60 70.81287
1079.70 70.69609
1079.80 70.5988
1079.90 70.67693
1080.00 70.75506
1080.10 70.83319
1080.20 70.91132
1080.30 70.98945
1080.40 71.06758
1080.50 71.14571
1080.60 71.22384
1080.70 71.30197
1080.80 71.3801
1080.90 71.45823
1081.00 71.53636
1081.10 71.6345
1081.20 71.74598
1081.30 71.85746
1081.40 71.96894
1081.50 72.08043
1081.60 72.19191
1081.70 72.30339
1081.80 72.41487
1081.90 72.52635
1082.00 72.63783
1082.10 72.74931
1082.20 72.86079
1082.30 72.99002
1082.40 73.19026
1082.50 73.3905
1082.60 73.59073
1082.70 73.79097
1082.80 73.99121
1082.90 74.19144
1083.00 74.39168
1083.10 74.59192
1083.20 74.79215
1083.30 74.99239
1083.40 75.19263
1083.50 75.39287
1083.60 75.49119
1083.70 75.56404
1083.80 75.63689
1083.90 75.70973
1084.00 75.78258
1084.10 75.85543
1084.20 75.92828
1084.30 76.00112
1084.40 76.07397
1084.50 76.14682
1084.60 76.21967
1084.70 76.29252
1084.80 76.39753
1084.90 76.57761
1085.00 76.75769
1085.10 76.93777
1085.20 77.11785
1085.30 77.29792
1085.40 77.478
1085.50 77.65808
1085.60 77.83816
1085.70 78.01824
1085.80 78.19832
1085.90 78.37839
1086.00 78.55847
1086.10 78.59931
1086.20 78.62468
1086.30 78.65005
1086.40 78.67542
1086.50 78.70079
1086.60 78.72616
1086.70 78.75153
1086.80 78.77689
1086.90 78.80226
1087.00 78.82763
1087.10 78.853
1087.20 78.87837
1087.30 78.76348
1087.40 78.4382
1087.50 78.11292
1087.60 77.78764
1087.70 77.46236
1087.80 77.13708
1087.90 76.81179
1088.00 76.48651
1088.10 76.16123
1088.20 75.83595
1088.30 75.51067
1088.40 75.18539
1088.50 74.86011
1088.60 74.74645
1088.70 74.63279
1088.80 74.51912
1088.90 74.40546
1089.00 74.2918
1089.10 74.17814
1089.20 74.06448
1089.30 73.95081
1089.40 73.83715
1089.50 73.72349
1089.60 73.60983
1089.70 73.49616
1089.80 73.62292
1089.90 73.90996
1090.00 74.197
1090.10 74.48403
1090.20 74.77107
1090.30 75.05811
1090.40 75.34515
1090.50 75.63218
1090.60 75.91922
1090.70 76.20626
1090.80 76.4933
1090.90 76.78033
1091.00 77.03967
1091.10 77.04972
1091.20 77.05977
1091.30 77.06981
1091.40 77.07986
1091.50 77.08991
1091.60 77.09995
1091.70 77.11
1091.80 77.12005
1091.90 77.1301
1092.00 77.14014
1092.10 77.15019
1092.20 77.16024
1092.30 76.99255
1092.40 76.74868
1092.50 76.50482
1092.60 76.26095
1092.70 76.01709
1092.80 75.77323
1092.90 75.52936
1093.00 75.2855
1093.10 75.04163
1093.20 74.79777
1093.30 74.5539
1093.40 74.31004
1093.50 74.13814
1093.60 74.13417
1093.70 74.1302
1093.80 74.12623
1093.90 74.12226
1094.00 74.11829
1094.10 74.11432
1094.20 74.11034
1094.30 74.10637
1094.40 74.1024
1094.50 74.09843
1094.60 74.09446
1094.70 74.09049
1094.80 74.12366
1094.90 74.16612
1095.00 74.20858
1095.10 74.25104
1095.20 74.2935
1095.30 74.33596
1095.40 74.37842
1095.50 74.42088
1095.60 74.46334
1095.70 74.5058
1095.80 74.54826
1095.90 74.59072
1096.00 74.62461
1096.10 74.64564
1096.20 74.66667
1096.30 74.6877
1096.40 74.70873
1096.50 74.72976
1096.60 74.75079
1096.70 74.77182
1096.80 74.79285
1096.90 74.81388
1097.00 74.83491
1097.10 74.85595
1097.20 74.87698
1097.30 74.70772
1097.40 74.53846
1097.50 74.36921
1097.60 74.19995
1097.70 74.03069
1097.80 73.86144
1097.90 73.69218
1098.00 73.52292
1098.10 73.35367
1098.20 73.18441
1098.30 73.01515
1098.40 72.8459
1098.50 72.60488
1098.60 72.29211
1098.70 71.97934
1098.80 71.66658
1098.90 71.35381
1099.00 71.04104
1099.10 70.72827
1099.20 70.4155
1099.30 70.10273
1099.40 69.78996
1099.50 69.47719
1099.60 69.16442
1099.70 68.87797
1099.80 68.82847
1099.90 68.77896
1100.00 68.72946
1100.10 68.67996
1100.20 68.63045
1100.30 68.58095
1100.40 68.53144
1100.50 68.48194
1100.60 68.43243
1100.70 68.38293
1100.80 68.33343
1100.90 68.28392
1101.00 68.35765
1101.10 68.48419
1101.20 68.61072
1101.30 68.73726
1101.40 68.8638
1101.50 68.99034
1101.60 69.11688
1101.70 69.24342
1101.80 69.36995
1101.90 69.49649
1102.00 69.62303
1102.10 69.74957
1102.20 69.85078
1102.30 69.85068
1102.40 69.85057
1102.50 69.85047
1102.60 69.85037
1102.70 69.85027
1102.80 69.85016
1102.90 69.85006
1103.00 69.84996
1103.10 69.84986
1103.20 69.84975
1103.30 69.84965
1103.40 69.84955
1103.50 69.88137
1103.60 69.92117
1103.70 69.96098
1103.80 70.00078
1103.90 70.04058
1104.00 70.08039
1104.10 70.12019
1104.20 70.15999
1104.30 70.1998
1104.40 70.2396
1104.50 70.2794
1104.60 70.31921
1104.70 70.34421
1104.80 70.33467
1104.90 70.32514
1105.00 70.31561
1105.10 70.30607
1105.20 70.29654
1105.30 70.28701
1105.40 70.27747
1105.50 70.26794
1105.60 70.2584
1105.70 70.24887
1105.80 70.23934
1105.90 70.2298
1106.00 70.00879
1106.10 69.76429
1106.20 69.51978
1106.30 69.27528
1106.40 69.03077
1106.50 68.78626
1106.60 68.54176
1106.70 68.29725
1106.80 68.05275
1106.90 67.80824
1107.00 67.56374
1107.10 67.31923
1107.20 67.26163
1107.30 67.39095
1107.40 67.52026
1107.50 67.64957
1107.60 67.77889
1107.70 67.9082
1107.80 68.03751
1107.90 68.16683
1108.00 68.29614
1108.10 68.42545
1108.20 68.55477
1108.30 68.68408
1108.40 68.81339
1108.50 68.87759
1108.60 68.94178
1108.70 69.00598
1108.80 69.07018
1108.90 69.13437
1109.00 69.19857
1109.10 69.26277
1109.20 69.32696
1109.30 69.39116
1109.40 69.45536
1109.50 69.51955
1109.60 69.58375
1109.70 69.38175
1109.80 69.0023
1109.90 68.62284
1110.00 68.24339
1110.10 67.86393
1110.20 67.48448
1110.30 67.10502
1110.40 66.72556
1110.50 66.34611
1110.60 65.96665
1110.70 65.5872
1110.80 65.20774
1110.90 64.88709
1111.00 64.80165
1111.10 64.71622
1111.20 64.63078
1111.30 64.54534
1111.40 64.45991
1111.50 64.37447
1111.60 64.28903
1111.70 64.2036
1111.80 64.11816
1111.90 64.03273
1112.00 63.94729
1112.10 63.86185
1112.20 64.05081
1112.30 64.35737
1112.40 64.66393
1112.50 64.97049
1112.60 65.27705
1112.70 65.58361
1112.80 65.89017
1112.90 66.19673
1113.00 66.50329
1113.10 66.80985
1113.20 67.11641
1113.30 67.42297
1113.40 67.6832
1113.50 67.83536
1113.60 67.98752
1113.70 68.13967
1113.80 68.29183
1113.90 68.44399
1114.00 68.59615
1114.10 68.7483
1114.20 68.90046
1114.30 69.05262
1114.40 69.20477
1114.50 69.35693
1114.60 69.50909
1114.70 69.37347
1114.80 69.20588
1114.90 69.03829
1115.00 68.87071
1115.10 68.70312
1115.20 68.53553
1115.30 68.36794
1115.40 68.20035
1115.50 68.03276
1115.60 67.86517
1115.70 67.69758
1115.80 67.52999
1115.90 67.38064
1116.00 67.25864
1116.10 67.13663
1116.20 67.01463
1116.30 66.89263
1116.40 66.77062
1116.50 66.64862
1116.60 66.52662
1116.70 66.40462
1116.80 66.28261
1116.90 66.16061
1117.00 66.03861
1117.10 65.91661
1117.20 66.01065
1117.30 66.10469
1117.40 66.19873
1117.50 66.29278
1117.60 66.38682
1117.70 66.48086
1117.80 66.5749
1117.90 66.66895
1118.00 66.76299
1118.10 66.85703
1118.20 66.95107
1118.30 67.04512
1118.40 67.25128
1118.50 67.5322
1118.60 67.81311
1118.70 68.09403
1118.80 68.37494
1118.90 68.65586
1119.00 68.93677
1119.10 69.21769
1119.20 69.4986
1119.30 69.77952
1119.40 70.06043
1119.50 70.34135
1119.60 70.5974
1119.70 70.62971
1119.80 70.66202
1119.90 70.69433
1120.00 70.72664
1120.10 70.75895
1120.20 70.79126
1120.30 70.82357
1120.40 70.85588
1120.50 70.88819
1120.60 70.9205
1120.70 70.95281
1120.80 70.98512
1120.90 70.96801
1121.00 70.92972
1121.10 70.89143
1121.20 70.85314
1121.30 70.81486
1121.40 70.77657
1121.50 70.73828
1121.60 70.69999
1121.70 70.6617
1121.80 70.62341
1121.90 70.58512
1122.00 70.54684
1122.10 70.54498
1122.20 70.68886
1122.30 70.83274
1122.40 70.97662
1122.50 71.1205
1122.60 71.26438
1122.70 71.40826
1122.80 71.55214
1122.90 71.69602
1123.00 71.83991
1123.10 71.98379
1123.20 72.12767
1123.30 72.27155
1123.40 72.38235
1123.50 72.48489
1123.60 72.58743
1123.70 72.68996
1123.80 72.7925
1123.90 72.89504
1124.00 72.99758
1124.10 73.10011
1124.20 73.20265
1124.30 73.30519
1124.40 73.40772
1124.50 73.51026
1124.60 73.55996
1124.70 73.5304
1124.80 73.50085
1124.90 73.47129
1125.00 73.44174
1125.10 73.41218
1125.20 73.38262
1125.30 73.35307
1125.40 73.32351
1125.50 73.29395
1125.60 73.2644
1125.70 73.23484
1125.80 73.20528
1125.90 73.1543
1126.00 73.10093
1126.10 73.04756
1126.20 72.9942
1126.30 72.94083
1126.40 72.88746
1126.50 72.8341
1126.60 72.78073
1126.70 72.72736
1126.80 72.674
1126.90 72.62063
1127.00 72.56726
1127.10 72.5387
1127.20 72.53494
1127.30 72.53118
1127.40 72.52742
1127.50 72.52366
1127.60 72.5199
1127.70 72.51614
1127.80 72.51238
1127.90 72.50862
1128.00 72.50486
1128.10 72.50111
1128.20 72.49735
1128.30 72.47997
1128.40 72.34005
1128.50 72.20014
1128.60 72.06022
1128.70 71.9203
1128.80 71.78039
1128.90 71.64047
1129.00 71.50056
1129.10 71.36064
1129.20 71.22072
1129.30 71.08081
1129.40 70.94089
1129.50 70.80097
1129.60 70.65464
1129.70 70.50404
1129.80 70.35344
1129.90 70.20283
1130.00 70.05223
1130.10 69.90162
1130.20 69.75102
1130.30 69.60041
1130.40 69.44981
1130.50 69.29921
1130.60 69.1486
1130.70 68.998
1130.80 68.81067
1130.90 68.47646
1131.00 68.14225
1131.10 67.80804
1131.20 67.47383
1131.30 67.13961
1131.40 66.8054
1131.50 66.47119
1131.60 66.13698
1131.70 65.80277
1131.80 65.46856
1131.90 65.13435
1132.00 64.80013
1132.10 64.46312
1132.20 64.12541
1132.30 63.7877
1132.40 63.44999
1132.50 63.11228
1132.60 62.77457
1132.70 62.43686
1132.80 62.09914
1132.90 61.76143
1133.00 61.42372
1133.10 61.08601
1133.20 60.7483
1133.30 60.49141
1133.40 60.42313
1133.50 60.35484
1133.60 60.28655
1133.70 60.21826
1133.80 60.14997
1133.90 60.08168
1134.00 60.01339
1134.10 59.9451
1134.20 59.87681
1134.30 59.80852
1134.40 59.74023
1134.50 59.67194
1134.60 59.77401
1134.70 59.89501
1134.80 60.01601
1134.90 60.13702
1135.00 60.25802
1135.10 60.37902
1135.20 60.50002
1135.30 60.62102
1135.40 60.74203
1135.50 60.86303
1135.60 60.98403
1135.70 61.10503
1135.80 61.25845
1135.90 61.4443
1136.00 61.63014
1136.10 61.81598
1136.20 62.00182
1136.30 62.18767
1136.40 62.37351
1136.50 62.55935
1136.60 62.74519
1136.70 62.93103
1136.80 63.11688
1136.90 63.30272
1137.00 63.48856
1137.10 63.55363
1137.20 63.6187
1137.30 63.68377
1137.40 63.74884
1137.50 63.81391
1137.60 63.87898
1137.70 63.94404
1137.80 64.00911
1137.90 64.07418
1138.00 64.13925
1138.10 64.20432
1138.20 64.26939
1138.30 64.31327
1138.40 64.34301
1138.50 64.37276
1138.60 64.40251
1138.70 64.43226
1138.80 64.462
1138.90 64.49175
1139.00 64.5215
1139.10 64.55125
1139.20 64.58099
1139.30 64.61074
1139.40 64.64049
1139.50 64.66738
1139.60 64.66862
1139.70 64.66985
1139.80 64.67108
1139.90 64.67231
1140.00 64.67354
1140.10 64.67478
1140.20 64.67601
1140.30 64.67724
1140.40 64.67847
1140.50 64.6797
1140.60 64.68093
1140.70 64.68217
1140.80 64.73631
1140.90 64.81313
1141.00 64.88996
1141.10 64.96678
1141.20 65.0436
1141.30 65.12043
1141.40 65.19725
1141.50 65.27407
1141.60 65.35089
1141.70 65.42772
1141.80 65.50454
1141.90 65.58136
1142.00 65.71681
1142.10 65.98907
1142.20 66.26133
1142.30 66.53359
1142.40 66.80585
1142.50 67.07811
1142.60 67.35037
1142.70 67.62263
1142.80 67.89489
1142.90 68.16715
1143.00 68.43941
1143.10 68.71166
1143.20 68.98392
1143.30 69.10595
1143.40 69.19042
1143.50 69.27489
1143.60 69.35936
1143.70 69.44383
1143.80 69.5283
1143.90 69.61277
1144.00 69.69724
1144.10 69.78171
1144.20 69.86618
1144.30 69.95065
1144.40 70.03513
1144.50 70.10138
1144.60 70.14033
1144.70 70.17927
1144.80 70.21822
1144.90 70.25716
1145.00 70.2961
1145.10 70.33505
1145.20 70.37399
1145.30 70.41294
1145.40 70.45188
1145.50 70.49082
1145.60 70.52977
1145.70 70.56871
1145.80 70.65043
1145.90 70.73215
1146.00 70.81387
1146.10 70.89559
1146.20 70.97731
1146.30 71.05903
1146.40 71.14075
1146.50 71.22247
1146.60 71.30419
1146.70 71.38591
1146.80 71.46763
1146.90 71.54935
1147.00 71.743
1147.10 72.04858
1147.20 72.35417
1147.30 72.65975
1147.40 72.96534
1147.50 73.27092
1147.60 73.5765
1147.70 73.88209
1147.80 74.18767
1147.90 74.49326
1148.00 74.79884
1148.10 75.10443
1148.20 75.39646
1148.30 75.56654
1148.40 75.73662
1148.50 75.90671
1148.60 76.07679
1148.70 76.24687
1148.80 76.41696
1148.90 76.58704
1149.00 76.75712
1149.10 76.9272
1149.20 77.09729
1149.30 77.26737
1149.40 77.43745
1149.50 77.46543
1149.60 77.4325
1149.70 77.39957
1149.80 77.36664
1149.90 77.33371
1150.00 77.30078
1150.10 77.26785
1150.20 77.23492
1150.30 77.20199
1150.40 77.16906
1150.50 77.13613
1150.60 77.1032
1150.70 77.02799
1150.80 76.78369
1150.90 76.53939
1151.00 76.29509
1151.10 76.05079
1151.20 75.80649
1151.30 75.56219
1151.40 75.31789
1151.50 75.07359
1151.60 74.82929
1151.70 74.58499
1151.80 74.34069
1151.90 74.09639
1152.00 73.93937
1152.10 73.80418
1152.20 73.66898
1152.30 73.53379
1152.40 73.3986
1152.50 73.2634
1152.60 73.12821
1152.70 72.99301
1152.80 72.85782
1152.90 72.72263
1153.00 72.58743
1153.10 72.45224
1153.20 72.37359
1153.30 72.4269
1153.40 72.4802
1153.50 72.5335
1153.60 72.5868
1153.70 72.64011
1153.80 72.69341
1153.90 72.74671
1154.00 72.80001
1154.10 72.85332
1154.20 72.90662
1154.30 72.95992
1154.40 73.01322
1154.50 73.01026
1154.60 73.00105
1154.70 72.99184
1154.80 72.98262
1154.90 72.97341
1155.00 72.9642
1155.10 72.95498
1155.20 72.94577
1155.30 72.93656
1155.40 72.92734
1155.50 72.91813
1155.60 72.90892
1155.70 72.88566
1155.80 72.84835
1155.90 72.81104
1156.00 72.77373
1156.10 72.73642
1156.20 72.69911
1156.30 72.66181
1156.40 72.6245
1156.50 72.58719
1156.60 72.54988
1156.70 72.51257
1156.80 72.47526
1156.90 72.43795
1157.00 72.47624
1157.10 72.51453
1157.20 72.55282
1157.30 72.59111
1157.40 72.6294
1157.50 72.66769
1157.60 72.70598
1157.70 72.74427
1157.80 72.78256
1157.90 72.82085
1158.00 72.85914
1158.10 72.89743
1158.20 72.84604
1158.30 72.73487
1158.40 72.62369
1158.50 72.51252
1158.60 72.40135
1158.70 72.29018
1158.80 72.179
1158.90 72.06783
1159.00 71.95666
1159.10 71.84548
1159.20 71.73431
1159.30 71.62314
1159.40 71.52221
1159.50 71.46226
1159.60 71.4023
1159.70 71.34235
1159.80 71.2824
1159.90 71.22244
1160.00 71.16249
1160.10 71.10254
1160.20 71.04258
1160.30 70.98263
1160.40 70.92268
1160.50 70.86272
1160.60 70.80277
1160.70 70.95782
1160.80 71.205
1160.90 71.45219
1161.00 71.69938
1161.10 71.94657
1161.20 72.19375
1161.30 72.44094
1161.40 72.68813
1161.50 72.93532
1161.60 73.1825
1161.70 73.42969
1161.80 73.67688
1161.90 73.9066
1162.00 74.09556
1162.10 74.28451
1162.20 74.47347
1162.30 74.66243
1162.40 74.85139
1162.50 75.04035
1162.60 75.2293
1162.70 75.41826
1162.80 75.60722
1162.90 75.79618
1163.00 75.98514
1163.10 76.17409
1163.20 76.16363
1163.30 76.131
1163.40 76.09838
1163.50 76.06575
1163.60 76.03313
1163.70 76.00051
1163.80 75.96788
1163.90 75.93526
1164.00 75.90263
1164.10 75.87001
1164.20 75.83738
1164.30 75.80476
1164.40 75.69375
1164.50 75.46515
1164.60 75.23656
1164.70 75.00796
1164.80 74.77937
1164.90 74.55077
1165.00 74.32218
1165.10 74.09359
1165.20 73.86499
1165.30 73.6364
1165.40 73.4078
1165.50 73.17921
1165.60 72.95061
1165.70 72.62806
1165.80 72.30551
1165.90 71.98296
1166.00 71.66041
1166.10 71.33786
1166.20 71.01531
1166.30 70.69275
1166.40 70.3702
1166.50 70.04765
1166.60 69.7251
1166.70 69.40255
1166.80 69.08
1166.90 68.73487
1167.00 68.36715
1167.10 67.99944
1167.20 67.63172
1167.30 67.26401
1167.40 66.89629
1167.50 66.52858
1167.60 66.16086
1167.70 65.79315
1167.80 65.42543
1167.90 65.05772
1168.00 64.69
1168.10 64.32933
1168.20 64.03207
1168.30 63.7348
1168.40 63.43753
1168.50 63.14026
1168.60 62.84299
1168.70 62.54572
1168.80 62.24845
1168.90 61.95118
1169.00 61.65391
1169.10 61.35664
1169.20 61.05937
1169.30 60.7621
1169.40 60.85948
1169.50 61.12598
1169.60 61.39249
1169.70 61.65899
1169.80 61.9255
1169.90 62.192
1170.00 62.45851
1170.10 62.72502
1170.20 62.99152
1170.30 63.25803
1170.40 63.52453
1170.50 63.79104
1170.60 64.09694
1170.70 64.56041
1170.80 65.02389
1170.90 65.48737
1171.00 65.95085
1171.10 66.41432
1171.20 66.8778
1171.30 67.34128
1171.40 67.80475
1171.50 68.26823
1171.60 68.73171
1171.70 69.19518
1171.80 69.65866
1171.90 69.94735
1172.00 70.19234
1172.10 70.43734
1172.20 70.68233
1172.30 70.92732
1172.40 71.17232
1172.50 71.41731
1172.60 71.6623
1172.70 71.9073
1172.80 72.15229
1172.90 72.39728
1173.00 72.64228
1173.10 72.74686
1173.20 72.64083
1173.30 72.5348
1173.40 72.42876
1173.50 72.32273
1173.60 72.2167
1173.70 72.11067
1173.80 72.00464
1173.90 71.8986
1174.00 71.79257
1174.10 71.68654
1174.20 71.58051
1174.30 71.47448
1174.40 71.05848
1174.50 70.60804
1174.60 70.1576
1174.70 69.70716
1174.80 69.25672
1174.90 68.80628
1175.00 68.35584
1175.10 67.9054
1175.20 67.45496
1175.30 67.00452
1175.40 66.55408
1175.50 66.10364
1175.60 65.54689
1175.70 64.88382
1175.80 64.22076
1175.90 63.5577
1176.00 62.89464
1176.10 62.23157
1176.20 61.56851
1176.30 60.90545
1176.40 60.24239
1176.50 59.57932
1176.60 58.91626
1176.70 58.2532
1176.80 57.59013
1176.90 57.57103
1177.00 57.55192
1177.10 57.53282
1177.20 57.51371
1177.30 57.4946
1177.40 57.4755
1177.50 57.45639
1177.60 57.43729
1177.70 57.41818
1177.80 57.39907
1177.90 57.37997
1178.00 57.36086
1178.10 57.72915
1178.20 58.3557
1178.30 58.98226
1178.40 59.60881
1178.50 60.23536
1178.60 60.86192
1178.70 61.48847
1178.80 62.11502
1178.90 62.74158
1179.00 63.36813
1179.10 63.99468
1179.20 64.62124
1179.30 65.22112
1179.40 65.71431
1179.50 66.20751
1179.60 66.7007
1179.70 67.1939
1179.80 67.68709
1179.90 68.18029
1180.00 68.67348
1180.10 69.16668
1180.20 69.65987
1180.30 70.15307
1180.40 70.64626
1180.50 71.13946
1180.60 71.52647
1180.70 71.86797
1180.80 72.20947
1180.90 72.55097
1181.00 72.89247
1181.10 73.23397
1181.20 73.57547
1181.30 73.91697
1181.40 74.25847
1181.50 74.59997
1181.60 74.94147
1181.70 75.28297
1181.80 75.56451
1181.90 75.70614
1182.00 75.84778
1182.10 75.98941
1182.20 76.13105
1182.30 76.27268
1182.40 76.41432
1182.50 76.55595
1182.60 76.69759
1182.70 76.83922
1182.80 76.98086
1182.90 77.12249
1183.00 77.26413
1183.10 77.32681
1183.20 77.38071
1183.30 77.43462
1183.40 77.48853
1183.50 77.54243
1183.60 77.59634
1183.70 77.65025
1183.80 77.70415
1183.90 77.75806
1184.00 77.81197
1184.10 77.86588
1184.20 77.91978
1184.30 77.98644
1184.40 78.07222
1184.50 78.158
1184.60 78.24378
1184.70 78.32956
1184.80 78.41533
1184.90 78.50111
1185.00 78.58689
1185.10 78.67267
1185.20 78.75845
1185.30 78.84423
1185.40 78.93001
1185.50 79.01579
1185.60 79.15244
1185.70 79.2891
1185.80 79.42576
1185.90 79.56241
1186.00 79.69907
1186.10 79.83573
1186.20 79.97238
1186.30 80.10904
1186.40 80.2457
1186.50 80.38235
1186.60 80.51901
1186.70 80.65566
1186.80 80.81445
1186.90 80.988
1187.00 81.16155
1187.10 81.33509
1187.20 81.50864
1187.30 81.68219
1187.40 81.85573
1187.50 82.02928
1187.60 82.20282
1187.70 82.37637
1187.80 82.54992
1187.90 82.72346
1188.00 82.86637
1188.10 82.73348
1188.20 82.6006
1188.30 82.46772
1188.40 82.33483
1188.50 82.20195
1188.60 82.06906
1188.70 81.93618
1188.80 81.8033
1188.90 81.67041
1189.00 81.53753
1189.10 81.40464
1189.20 81.27176
1189.30 81.1093
1189.40 80.93416
1189.50 80.75902
1189.60 80.58389
1189.70 80.40875
1189.80 80.23361
1189.90 80.05847
1190.00 79.88334
1190.10 79.7082
1190.20 79.53306
1190.30 79.35793
1190.40 79.18279
1190.50 79.04111
1190.60 79.03329
1190.70 79.02546
1190.80 79.01763
1190.90 79.0098
1191.00 79.00198
1191.10 78.99415
1191.20 78.98632
1191.30 78.97849
1191.40 78.97067
1191.50 78.96284
1191.60 78.95501
1191.70 78.94719
1191.80 78.96219
1191.90 78.9829
1192.00 79.00361
1192.10 79.02432
1192.20 79.04503
1192.30 79.06574
1192.40 79.08645
1192.50 79.10716
1192.60 79.12787
1192.70 79.14858
1192.80 79.16929
1192.90 79.19
1193.00 79.17164
1193.10 79.09467
1193.20 79.01769
1193.30 78.94072
1193.40 78.86375
1193.50 78.78678
1193.60 78.70981
1193.70 78.63283
1193.80 78.55586
1193.90 78.47889
1194.00 78.40192
1194.10 78.32495
1194.20 78.24798
1194.30 78.16511
1194.40 78.08159
1194.50 77.99807
1194.60 77.91455
1194.70 77.83103
1194.80 77.74751
1194.90 77.66398
1195.00 77.58046
1195.10 77.49694
1195.20 77.41342
1195.30 77.3299
1195.40 77.24638
1195.50 77.13282
1195.60 76.9892
1195.70 76.84559
1195.80 76.70198
1195.90 76.55837
1196.00 76.41476
1196.10 76.27115
1196.20 76.12754
1196.30 75.98393
1196.40 75.84032
1196.50 75.6967
1196.60 75.55309
1196.70 75.41677
1196.80 75.34602
1196.90 75.27527
1197.00 75.20453
1197.10 75.13378
1197.20 75.06303
1197.30 74.99228
1197.40 74.92154
1197.50 74.85079
1197.60 74.78004
1197.70 74.70929
1197.80 74.63855
1197.90 74.5678
1198.00 74.5526
1198.10 74.57444
1198.20 74.59628
1198.30 74.61812
1198.40 74.63996
1198.50 74.6618
1198.60 74.68364
1198.70 74.70548
1198.80 74.72732
1198.90 74.74916
1199.00 74.771
1199.10 74.79284
1199.20 74.76753
1199.30 74.55363
1199.40 74.33974
1199.50 74.12584
1199.60 73.91194
1199.70 73.69804
1199.80 73.48415
1199.90 73.27025
1200.00 73.05635
1200.10 72.84246
1200.20 72.62856
1200.30 72.41466
1200.40 72.20077
1200.50 72.07792
1200.60 71.99409
1200.70 71.91026
1200.80 71.82643
1200.90 71.7426
1201.00 71.65877
1201.10 71.57494
1201.20 71.49112
1201.30 71.40729
1201.40 71.32346
1201.50 71.23963
1201.60 71.1558
1201.70 71.12145
1201.80 71.20255
1201.90 71.28364
1202.00 71.36474
1202.10 71.44583
1202.20 71.52693
1202.30 71.60802
1202.40 71.68912
1202.50 71.77021
1202.60 71.85131
1202.70 71.93241
1202.80 72.0135
1202.90 72.0946
1203.00 72.31783
1203.10 72.55685
1203.20 72.79588
1203.30 73.0349
1203.40 73.27392
1203.50 73.51295
1203.60 73.75197
1203.70 73.99099
1203.80 74.23002
1203.90 74.46904
1204.00 74.70807
1204.10 74.94709
1204.20 75.20033
1204.30 75.47488
1204.40 75.74944
1204.50 76.024
1204.60 76.29856
1204.70 76.57311
1204.80 76.84767
1204.90 77.12223
1205.00 77.39679
1205.10 77.67134
1205.20 77.9459
1205.30 78.22046
1205.40 78.49502
1205.50 78.65483
1205.60 78.81465
1205.70 78.97447
1205.80 79.13429
1205.90 79.2941
1206.00 79.45392
1206.10 79.61374
1206.20 79.77355
1206.30 79.93337
1206.40 80.09319
1206.50 80.25301
1206.60 80.41282
1206.70 80.61726
1206.80 80.85143
1206.90 81.0856
1207.00 81.31978
1207.10 81.55395
1207.20 81.78813
1207.30 82.0223
1207.40 82.25647
1207.50 82.49065
1207.60 82.72482
1207.70 82.959
1207.80 83.19317
1207.90 83.41903
1208.00 83.5701
1208.10 83.72117
1208.20 83.87223
1208.30 84.0233
1208.40 84.17437
1208.50 84.32543
1208.60 84.4765
1208.70 84.62756
1208.80 84.77863
1208.90 84.9297
1209.00 85.08076
1209.10 85.23183
1209.20 85.11089
1209.30 84.87338
1209.40 84.63587
1209.50 84.39835
1209.60 84.16084
1209.70 83.92333
1209.80 83.68581
1209.90 83.4483
1210.00 83.21079
1210.10 82.97328
1210.20 82.73576
1210.30 82.49825
1210.40 82.25771
1210.50 82.01011
1210.60 81.76251
1210.70 81.5149
1210.80 81.2673
1210.90 81.0197
1211.00 80.77209
1211.10 80.52449
1211.20 80.27689
1211.30 80.02928
1211.40 79.78168
1211.50 79.53408
1211.60 79.28647
1211.70 79.29452
1211.80 79.36648
1211.90 79.43844
1212.00 79.5104
1212.10 79.58236
1212.20 79.65432
1212.30 79.72628
1212.40 79.79824
1212.50 79.8702
1212.60 79.94216
1212.70 80.01412
1212.80 80.08608
1212.90 80.15925
1213.00 80.23423
1213.10 80.30922
1213.20 80.3842
1213.30 80.45919
1213.40 80.53418
1213.50 80.60916
1213.60 80.68415
1213.70 80.75914
1213.80 80.83412
1213.90 80.90911
1214.00 80.98409
1214.10 81.05908
1214.20 80.99028
1214.30 80.9055
1214.40 80.82072
1214.50 80.73594
1214.60 80.65116
1214.70 80.56639
1214.80 80.48161
1214.90 80.39683
1215.00 80.31205
1215.10 80.22727
1215.20 80.1425
1215.30 80.05772
1215.40 80.18163
1215.50 80.51424
1215.60 80.84685
1215.70 81.17945
1215.80 81.51206
1215.90 81.84467
1216.00 82.17728
1216.10 82.50988
1216.20 82.84249
1216.30 83.1751
1216.40 83.50771
1216.50 83.84031
1216.60 84.15453
1216.70 84.30319
1216.80 84.45185
1216.90 84.60051
1217.00 84.74917
1217.10 84.89783
1217.20 85.04649
1217.30 85.19515
1217.40 85.34382
1217.50 85.49248
1217.60 85.64114
1217.70 85.7898
1217.80 85.93846
1217.90 85.95333
1218.00 85.87901
1218.10 85.80469
1218.20 85.73037
1218.30 85.65605
1218.40 85.58173
1218.50 85.50741
1218.60 85.43309
1218.70 85.35877
1218.80 85.28445
1218.90 85.21013
1219.00 85.13581
1219.10 85.072
1219.20 85.05025
1219.30 85.0285
1219.40 85.00675
1219.50 84.985
1219.60 84.96325
1219.70 84.9415
1219.80 84.91975
1219.90 84.898
1220.00 84.87625
1220.10 84.85451
1220.20 84.83276
1220.30 84.81101
1220.40 84.76805
1220.50 84.7198
1220.60 84.67154
1220.70 84.62329
1220.80 84.57503
1220.90 84.52677
1221.00 84.47852
1221.10 84.43026
1221.20 84.38201
1221.30 84.33375
1221.40 84.2855
1221.50 84.23724
1221.60 84.23046
1221.70 84.32046
1221.80 84.41047
1221.90 84.50047
1222.00 84.59047
1222.10 84.68047
1222.20 84.77047
1222.30 84.86047
1222.40 84.95047
1222.50 85.04047
1222.60 85.13047
1222.70 85.22047
1222.80 85.31047
1222.90 85.46724
1223.00 85.63143
1223.10 85.79563
1223.20 85.95982
1223.30 86.12401
1223.40 86.2882
1223.50 86.45239
1223.60 86.61658
1223.70 86.78077
1223.80 86.94496
1223.90 87.10915
1224.00 87.27334
1224.10 87.35917
1224.20 87.32745
1224.30 87.29573
1224.40 87.26401
1224.50 87.23229
1224.60 87.20057
1224.70 87.16885
1224.80 87.13713
1224.90 87.10541
1225.00 87.07369
1225.10 87.04197
1225.20 87.01025
1225.30 86.97853
1225.40 87.03466
1225.50 87.09078
1225.60 87.14691
1225.70 87.20303
1225.80 87.25916
1225.90 87.31528
1226.00 87.37141
1226.10 87.42753
1226.20 87.48366
1226.30 87.53978
1226.40 87.59591
1226.50 87.65203
1226.60 87.66869
1226.70 87.65903
1226.80 87.64936
1226.90 87.6397
1227.00 87.63004
1227.10 87.62038
1227.20 87.61072
1227.30 87.60106
1227.40 87.5914
1227.50 87.58174
1227.60 87.57207
1227.70 87.56241
1227.80 87.54419
1227.90 87.44896
1228.00 87.35372
1228.10 87.25849
1228.20 87.16325
1228.30 87.06801
1228.40 86.97278
1228.50 86.87754
1228.60 86.78231
1228.70 86.68707
1228.80 86.59183
1228.90 86.4966
1229.00 86.40136
1229.10 86.42716
1229.20 86.50483
1229.30 86.5825
1229.40 86.66017
1229.50 86.73784
1229.60 86.81551
1229.70 86.89318
1229.80 86.97085
1229.90 87.04852
1230.00 87.12619
1230.10 87.20386
1230.20 87.28153
1230.30 87.43421
1230.40 87.76191
1230.50 88.08962
1230.60 88.41733
1230.70 88.74503
1230.80 89.07274
1230.90 89.40044
1231.00 89.72815
1231.10 90.05586
1231.20 90.38356
1231.30 90.71127
1231.40 91.03898
1231.50 91.36668
1231.60 91.47667
1231.70 91.53223
1231.80 91.58779
1231.90 91.64335
1232.00 91.69891
1232.10 91.75448
1232.20 91.81004
1232.30 91.8656
1232.40 91.92116
1232.50 91.97672
1232.60 92.03228
1232.70 92.08784
1232.80 92.00967
1232.90 91.73089
1233.00 91.45211
1233.10 91.17334
1233.20 90.89456
1233.30 90.61578
1233.40 90.33701
1233.50 90.05823
1233.60 89.77946
1233.70 89.50068
1233.80 89.2219
1233.90 88.94313
1234.00 88.66435
1234.10 88.56636
1234.20 88.48846
1234.30 88.41056
1234.40 88.33266
1234.50 88.25476
1234.60 88.17686
1234.70 88.09896
1234.80 88.02106
1234.90 87.94316
1235.00 87.86526
1235.10 87.78736
1235.20 87.70946
1235.30 87.5705
1235.40 87.3705
1235.50 87.17049
1235.60 86.97049
1235.70 86.77048
1235.80 86.57047
1235.90 86.37047
1236.00 86.17046
1236.10 85.97046
1236.20 85.77045
1236.30 85.57044
1236.40 85.37044
1236.50 85.19434
1236.60 85.23342
1236.70 85.2725
1236.80 85.31157
1236.90 85.35065
1237.00 85.38973
1237.10 85.42881
1237.20 85.46789
1237.30 85.50696
1237.40 85.54604
1237.50 85.58512
1237.60 85.6242
1237.70 85.66327
1237.80 85.7837
1237.90 85.95835
1238.00 86.133
1238.10 86.30765
1238.20 86.4823
1238.30 86.65695
1238.40 86.8316
1238.50 87.00625
1238.60 87.1809
1238.70 87.35555
1238.80 87.5302
1238.90 87.70485
1239.00 87.82674
1239.10 87.73757
1239.20 87.64841
1239.30 87.55924
1239.40 87.47007
1239.50 87.38091
1239.60 87.29174
1239.70 87.20257
1239.80 87.11341
1239.90 87.02424
1240.00 86.93507
1240.10 86.84591
1240.20 86.75674
1240.30 86.53053
1240.40 86.27006
1240.50 86.00959
1240.60 85.74911
1240.70 85.48864
1240.80 85.22817
1240.90 84.9677
1241.00 84.70723
1241.10 84.44675
1241.20 84.18628
1241.30 83.92581
1241.40 83.66534
1241.50 83.43537
1241.60 83.27658
1241.70 83.11779
1241.80 82.959
1241.90 82.80021
1242.00 82.64141
1242.10 82.48262
1242.20 82.32383
1242.30 82.16504
1242.40 82.00625
1242.50 81.84746
1242.60 81.68867
1242.70 81.52988
1242.80 81.51122
1242.90 81.50812
1243.00 81.50503
1243.10 81.50194
1243.20 81.49884
1243.30 81.49575
1243.40 81.49266
1243.50 81.48956
1243.60 81.48647
1243.70 81.48338
1243.80 81.48028
1243.90 81.47719
1244.00 81.55569
1244.10 81.75658
1244.20 81.95747
1244.30 82.15837
1244.40 82.35926
1244.50 82.56015
1244.60 82.76104
1244.70 82.96193
1244.80 83.16282
1244.90 83.36371
1245.00 83.56461
1245.10 83.7655
1245.20 83.96639
1245.30 84.02655
1245.40 84.08672
1245.50 84.14689
1245.60 84.20706
1245.70 84.26722
1245.80 84.32739
1245.90 84.38756
1246.00 84.44773
1246.10 84.50789
1246.20 84.56806
1246.30 84.62823
1246.40 84.6884
1246.50 84.78612
1246.60 84.90887
1246.70 85.03163
1246.80 85.15439
1246.90 85.27715
1247.00 85.39991
1247.10 85.52266
1247.20 85.64542
1247.30 85.76818
1247.40 85.89094
1247.50 86.01369
1247.60 86.13645
1247.70 86.24847
1247.80 86.26377
1247.90 86.27908
1248.00 86.29439
1248.10 86.3097
1248.20 86.32501
1248.30 86.34031
1248.40 86.35562
1248.50 86.37093
1248.60 86.38624
1248.70 86.40155
1248.80 86.41685
1248.90 86.43216
1249.00 86.27627
1249.10 86.04701
1249.20 85.81775
1249.30 85.58849
1249.40 85.35922
1249.50 85.12996
1249.60 84.9007
1249.70 84.67144
1249.80 84.44218
1249.90 84.21291
1250.00 83.98365
1250.10 83.75439
1250.20 83.48256
1250.30 83.11141
1250.40 82.74026
1250.50 82.36911
1250.60 81.99796
1250.70 81.62681
1250.80 81.25566
1250.90 80.88451
1251.00 80.51336
1251.10 80.14221
1251.20 79.77106
1251.30 79.39991
1251.40 79.02876
1251.50 78.83813
1251.60 78.69264
1251.70 78.54714
1251.80 78.40164
1251.90 78.25614
1252.00 78.11065
1252.10 77.96515
1252.20 77.81965
1252.30 77.67415
1252.40 77.52866
1252.50 77.38316
1252.60 77.23766
1252.70 77.2576
1252.80 77.5257
1252.90 77.7938
1253.00 78.06189
1253.10 78.32999
1253.20 78.59809
1253.30 78.86618
1253.40 79.13428
1253.50 79.40238
1253.60 79.67047
1253.70 79.93857
1253.80 80.20667
1253.90 80.47476
1254.00 80.97983
1254.10 81.51122
1254.20 82.04262
1254.30 82.57401
1254.40 83.10541
1254.50 83.6368
1254.60 84.16819
1254.70 84.69959
1254.80 85.23098
1254.90 85.76238
1255.00 86.29377
1255.10 86.82517
1255.20 87.20741
1255.30 87.44051
1255.40 87.67361
1255.50 87.90671
1255.60 88.13981
1255.70 88.3729
1255.80 88.606
1255.90 88.8391
1256.00 89.0722
1256.10 89.3053
1256.20 89.5384
1256.30 89.7715
1256.40 89.99961
1256.50 90.18285
1256.60 90.3661
1256.70 90.54935
1256.80 90.73259
1256.90 90.91584
1257.00 91.09908
1257.10 91.28233
1257.20 91.46557
1257.30 91.64882
1257.40 91.83207
1257.50 92.01531
1257.60 92.19856
1257.70 92.4757
1257.80 92.81544
1257.90 93.15518
1258.00 93.49493
1258.10 93.83467
1258.20 94.17441
1258.30 94.51415
1258.40 94.85389
1258.50 95.19363
1258.60 95.53338
1258.70 95.87312
1258.80 96.21286
1258.90 96.47583
1259.00 96.43173
1259.10 96.38763
1259.20 96.34353
1259.30 96.29942
1259.40 96.25532
1259.50 96.21122
1259.60 96.16712
1259.70 96.12302
1259.80 96.07891
1259.90 96.03481
1260.00 95.99071
1260.10 95.94661
1260.20 95.88184
1260.30 95.81191
1260.40 95.74198
1260.50 95.67204
1260.60 95.60211
1260.70 95.53218
1260.80 95.46224
1260.90 95.39231
1261.00 95.32238
1261.10 95.25245
1261.20 95.18251
1261.30 95.11258
1261.40 95.04365
1261.50 94.97707
1261.60 94.91049
1261.70 94.8439
1261.80 94.77732
1261.90 94.71074
1262.00 94.64415
1262.10 94.57757
1262.20 94.51099
1262.30 94.44441
1262.40 94.37782
1262.50 94.31124
1262.60 94.24466
1262.70 94.23573
1262.80 94.23321
1262.90 94.23069
1263.00 94.22817
1263.10 94.22565
1263.20 94.22313
1263.30 94.22061
1263.40 94.21809
1263.50 94.21557
1263.60 94.21305
1263.70 94.21053
1263.80 94.20801
1263.90 94.17571
1264.00 94.09874
1264.10 94.02178
1264.20 93.94482
1264.30 93.86785
1264.40 93.79089
1264.50 93.71393
1264.60 93.63696
1264.70 93.56
1264.80 93.48303
1264.90 93.40607
1265.00 93.32911
1265.10 93.25214
1265.20 93.08166
1265.30 92.91118
1265.40 92.7407
1265.50 92.57022
1265.60 92.39974
1265.70 92.22926
1265.80 92.05878
1265.90 91.8883
1266.00 91.71782
1266.10 91.54734
1266.20 91.37686
1266.30 91.20638
1266.40 91.1895
1266.50 91.27503
1266.60 91.36055
1266.70 91.44608
1266.80 91.5316
1266.90 91.61713
1267.00 91.70265
1267.10 91.78818
1267.20 91.87371
1267.30 91.95923
1267.40 92.04476
1267.50 92.13028
1267.60 92.21486
1267.70 92.29087
1267.80 92.36689
1267.90 92.4429
1268.00 92.51891
1268.10 92.59493
1268.20 92.67094
1268.30 92.74696
1268.40 92.82297
1268.50 92.89899
1268.60 92.975
1268.70 93.05101
1268.80 93.12703
1268.90 93.11235
1269.00 93.0588
1269.10 93.00526
1269.20 92.95171
1269.30 92.89817
1269.40 92.84462
1269.50 92.79107
1269.60 92.73753
1269.70 92.68398
1269.80 92.63044
1269.90 92.57689
1270.00 92.52334
1270.10 92.50483
1270.20 92.56805
1270.30 92.63128
1270.40 92.6945
1270.50 92.75773
1270.60 92.82095
1270.70 92.88418
1270.80 92.9474
1270.90 93.01062
1271.00 93.07385
1271.10 93.13707
1271.20 93.2003
1271.30 93.26352
1271.40 93.20693
1271.50 93.12038
1271.60 93.03383
1271.70 92.94728
1271.80 92.86073
1271.90 92.77418
1272.00 92.68763
1272.10 92.60109
1272.20 92.51454
1272.30 92.42799
1272.40 92.34144
1272.50 92.25489
1272.60 92.1678
1272.70 92.07991
1272.80 91.99202
1272.90 91.90412
1273.00 91.81623
1273.10 91.72834
1273.20 91.64044
1273.30 91.55255
1273.40 91.46466
1273.50 91.37676
1273.60 91.28887
1273.70 91.20098
1273.80 91.11308
1273.90 91.24565
1274.00 91.40271
1274.10 91.55976
1274.20 91.71682
1274.30 91.87388
1274.40 92.03094
1274.50 92.188
1274.60 92.34506
1274.70 92.50212
1274.80 92.65917
1274.90 92.81623
1275.00 92.97329
1275.10 93.15974
1275.20 93.37558
1275.30 93.59142
1275.40 93.80726
1275.50 94.0231
1275.60 94.23894
1275.70 94.45478
1275.80 94.67062
1275.90 94.88646
1276.00 95.1023
1276.10 95.31814
1276.20 95.53398
1276.30 95.72053
1276.40 95.64351
1276.50 95.56649
1276.60 95.48947
1276.70 95.41244
1276.80 95.33542
1276.90 95.2584
1277.00 95.18138
1277.10 95.10435
1277.20 95.02733
1277.30 94.95031
1277.40 94.87328
1277.50 94.79626
1277.60 94.67139
1277.70 94.51461
1277.80 94.35783
1277.90 94.20106
1278.00 94.04428
1278.10 93.88751
1278.20 93.73073
1278.30 93.57395
1278.40 93.41718
1278.50 93.2604
1278.60 93.10362
1278.70 92.94685
1278.80 92.79097
1278.90 92.63867
1279.00 92.48637
1279.10 92.33407
1279.20 92.18178
1279.30 92.02948
1279.40 91.87718
1279.50 91.72488
1279.60 91.57258
1279.70 91.42028
1279.80 91.26799
1279.90 91.11569
1280.00 90.96339
1280.10 90.96728
1280.20 91.01021
1280.30 91.05315
1280.40 91.09608
1280.50 91.13902
1280.60 91.18195
1280.70 91.22489
1280.80 91.26782
1280.90 91.31076
1281.00 91.35369
1281.10 91.39663
1281.20 91.43956
1281.30 91.51175
1281.40 91.65221
1281.50 91.79266
1281.60 91.93311
1281.70 92.07357
1281.80 92.21402
1281.90 92.35448
1282.00 92.49493
1282.10 92.63539
1282.20 92.77584
1282.30 92.9163
1282.40 93.05675
1282.50 93.1972
1282.60 93.18332
1282.70 93.15229
1282.80 93.12125
1282.90 93.09022
1283.00 93.05919
1283.10 93.02815
1283.20 92.99712
1283.30 92.96609
1283.40 92.93506
1283.50 92.90402
1283.60 92.87299
1283.70 92.84196
1283.80 92.81587
1283.90 92.7972
1284.00 92.77853
1284.10 92.75986
1284.20 92.74119
1284.30 92.72252
1284.40 92.70385
1284.50 92.68518
1284.60 92.66651
1284.70 92.64784
1284.80 92.62917
1284.90 92.6105
1285.00 92.59183
1285.10 92.46535
1285.20 92.33887
1285.30 92.21239
1285.40 92.08591
1285.50 91.95942
1285.60 91.83294
1285.70 91.70646
1285.80 91.57998
1285.90 91.4535
1286.00 91.32702
1286.10 91.20054
1286.20 91.07406
1286.30 91.11906
1286.40 91.27839
1286.50 91.43772
1286.60 91.59705
1286.70 91.75637
1286.80 91.9157
1286.90 92.07503
1287.00 92.23436
1287.10 92.39369
1287.20 92.55301
1287.30 92.71234
1287.40 92.87167
1287.50 93.04048
1287.60 93.29465
1287.70 93.54882
1287.80 93.80299
1287.90 94.05715
1288.00 94.31132
1288.10 94.56549
1288.20 94.81966
1288.30 95.07383
1288.40 95.32799
1288.50 95.58216
1288.60 95.83633
1288.70 96.0905
1288.80 96.12172
1288.90 96.05738
1289.00 95.99305
1289.10 95.92872
1289.20 95.86439
1289.30 95.80006
1289.40 95.73572
1289.50 95.67139
1289.60 95.60706
1289.70 95.54273
1289.80 95.4784
1289.90 95.41406
1290.00 95.31129
1290.10 95.05473
1290.20 94.79818
1290.30 94.54162
1290.40 94.28507
1290.50 94.02851
1290.60 93.77196
1290.70 93.51541
1290.80 93.25885
1290.90 93.0023
1291.00 92.74574
1291.10 92.48919
1291.20 92.23263
1291.30 92.18281
1291.40 92.18467
1291.50 92.18653
1291.60 92.18839
1291.70 92.19025
1291.80 92.19211
1291.90 92.19397
1292.00 92.19583
1292.10 92.19769
1292.20 92.19955
1292.30 92.20142
1292.40 92.20328
1292.50 92.23322
1292.60 92.30527
1292.70 92.37733
1292.80 92.44939
1292.90 92.52145
1293.00 92.59351
1293.10 92.66557
1293.20 92.73762
1293.30 92.80968
1293.40 92.88174
1293.50 92.9538
1293.60 93.02586
1293.70 93.09792
1293.80 93.09889
1293.90 93.09196
1294.00 93.08503
1294.10 93.0781
1294.20 93.07117
1294.30 93.06424
1294.40 93.05731
1294.50 93.05038
1294.60 93.04345
1294.70 93.03653
1294.80 93.0296
1294.90 93.02267
1295.00 92.97564
1295.10 92.88851
1295.20 92.80139
1295.30 92.71426
1295.40 92.62713
1295.50 92.54001
1295.60 92.45288
1295.70 92.36575
1295.80 92.27863
1295.90 92.1915
1296.00 92.10437
1296.10 92.01725
1296.20 91.95029
1296.30 92.06485
1296.40 92.17941
1296.50 92.29397
1296.60 92.40853
1296.70 92.52309
1296.80 92.63765
1296.90 92.75221
1297.00 92.86677
1297.10 92.98133
1297.20 93.09589
1297.30 93.21045
1297.40 93.32502
1297.50 93.39963
1297.60 93.4476
1297.70 93.49558
1297.80 93.54356
1297.90 93.59153
1298.00 93.63951
1298.10 93.68749
1298.20 93.73547
1298.30 93.78344
1298.40 93.83142
1298.50 93.8794
1298.60 93.92738
1298.70 93.96012
1298.80 93.93195
1298.90 93.90379
1299.00 93.87562
1299.10 93.84745
1299.20 93.81928
1299.30 93.79111
1299.40 93.76294
1299.50 93.73477
1299.60 93.7066
1299.70 93.67843
1299.80 93.65026
1299.90 93.62209
1300.00 93.50775
1300.10 93.35648
1300.20 93.20521
1300.30 93.05394
1300.40 92.90267
1300.50 92.7514
1300.60 92.60012
1300.70 92.44885
1300.80 92.29758
1300.90 92.14631
1301.00 91.99504
1301.10 91.84377
1301.20 91.7146
1301.30 91.63699
1301.40 91.55938
1301.50 91.48178
1301.60 91.40417
1301.70 91.32657
1301.80 91.24896
1301.90 91.17136
1302.00 91.09375
1302.10 91.01615
1302.20 90.93854
1302.30 90.86094
1302.40 90.78333
1302.50 90.86094
1302.60 90.9558
1302.70 91.05065
1302.80 91.14551
1302.90 91.24036
1303.00 91.33522
1303.10 91.43008
1303.20 91.52493
1303.30 91.61979
1303.40 91.71464
1303.50 91.8095
1303.60 91.90436
1303.70 92.00667
1303.80 92.12016
1303.90 92.23366
1304.00 92.34715
1304.10 92.46065
1304.20 92.57414
1304.30 92.68764
1304.40 92.80114
1304.50 92.91463
1304.60 93.02813
1304.70 93.14162
1304.80 93.25512
1304.90 93.36861
1305.00 93.15819
1305.10 92.94776
1305.20 92.73734
1305.30 92.52691
1305.40 92.31649
1305.50 92.10606
1305.60 91.89564
1305.70 91.68521
1305.80 91.47479
1305.90 91.26436
1306.00 91.05394
1306.10 90.84351
1306.20 90.80349
1306.30 90.87708
1306.40 90.95066
1306.50 91.02425
1306.60 91.09784
1306.70 91.17142
1306.80 91.24501
1306.90 91.31859
1307.00 91.39218
1307.10 91.46577
1307.20 91.53935
1307.30 91.61294
1307.40 91.70668
1307.50 91.98186
1307.60 92.25703
1307.70 92.5322
1307.80 92.80738
1307.90 93.08255
1308.00 93.35772
1308.10 93.63289
1308.20 93.90807
1308.30 94.18324
1308.40 94.45841
1308.50 94.73359
1308.60 95.00876
1308.70 95.11662
1308.80 95.15277
1308.90 95.18892
1309.00 95.22507
1309.10 95.26122
1309.20 95.29737
1309.30 95.33352
1309.40 95.36967
1309.50 95.40582
1309.60 95.44197
1309.70 95.47812
1309.80 95.51427
1309.90 95.49471
1310.00 95.25229
1310.10 95.00988
1310.20 94.76746
1310.30 94.52505
1310.40 94.28264
1310.50 94.04022
1310.60 93.79781
1310.70 93.55539
1310.80 93.31298
1310.90 93.07056
1311.00 92.82815
1311.10 92.58574
1311.20 92.44663
1311.30 92.33335
1311.40 92.22008
1311.50 92.1068
1311.60 91.99352
1311.70 91.88025
1311.80 91.76697
1311.90 91.65369
1312.00 91.54041
1312.10 91.42714
1312.20 91.31386
1312.30 91.20058
1312.40 91.06558
1312.50 90.89799
1312.60 90.7304
1312.70 90.56281
1312.80 90.39522
1312.90 90.22763
1313.00 90.06005
1313.10 89.89246
1313.20 89.72487
1313.30 89.55728
1313.40 89.38969
1313.50 89.2221
1313.60 89.05451
1313.70 88.71178
1313.80 88.34958
1313.90 87.98738
1314.00 87.62518
1314.10 87.26299
1314.20 86.90079
1314.30 86.53859
1314.40 86.1764
1314.50 85.8142
1314.60 85.452
1314.70 85.0898
1314.80 84.72761
1314.90 84.49785
1315.00 84.40054
1315.10 84.30323
1315.20 84.20591
1315.30 84.1086
1315.40 84.01129
1315.50 83.91398
1315.60 83.81666
1315.70 83.71935
1315.80 83.62204
1315.90 83.52473
1316.00 83.42741
1316.10 83.3301
1316.20 83.79288
1316.30 84.25567
1316.40 84.71845
1316.50 85.18124
1316.60 85.64402
1316.70 86.1068
1316.80 86.56959
1316.90 87.03237
1317.00 87.49515
1317.10 87.95794
1317.20 88.42072
1317.30 88.88351
1317.40 89.19324
1317.50 89.40095
1317.60 89.60865
1317.70 89.81636
1317.80 90.02406
1317.90 90.23177
1318.00 90.43947
1318.10 90.64718
1318.20 90.85488
1318.30 91.06259
1318.40 91.27029
1318.50 91.478
1318.60 91.61527
1318.70 91.47081
1318.80 91.32635
1318.90 91.18189
1319.00 91.03743
1319.10 90.89296
1319.20 90.7485
1319.30 90.60404
1319.40 90.45958
1319.50 90.31512
1319.60 90.17066
1319.70 90.0262
1319.80 89.88174
1319.90 89.79422
1320.00 89.7311
1320.10 89.66798
1320.20 89.60486
1320.30 89.54174
1320.40 89.47863
1320.50 89.41551
1320.60 89.35239
1320.70 89.28927
1320.80 89.22615
1320.90 89.16303
1321.00 89.09992
1321.10 89.08473
1321.20 89.18137
1321.30 89.27802
1321.40 89.37467
1321.50 89.47132
1321.60 89.56796
1321.70 89.66461
1321.80 89.76126
1321.90 89.85791
1322.00 89.95455
1322.10 90.0512
1322.20 90.14785
1322.30 90.2445
1322.40 90.13277
1322.50 89.9979
1322.60 89.86302
1322.70 89.72815
1322.80 89.59327
1322.90 89.45839
1323.00 89.32352
1323.10 89.18864
1323.20 89.05377
1323.30 88.91889
1323.40 88.78402
1323.50 88.64914
1323.60 88.47317
1323.70 88.23557
1323.80 87.99797
1323.90 87.76037
1324.00 87.52276
1324.10 87.28516
1324.20 87.04756
1324.30 86.80996
1324.40 86.57235
1324.50 86.33475
1324.60 86.09715
1324.70 85.85955
1324.80 85.62194
1324.90 85.56025
1325.00 85.49855
1325.10 85.43685
1325.20 85.37516
1325.30 85.31346
1325.40 85.25176
1325.50 85.19006
1325.60 85.12837
1325.70 85.06667
1325.80 85.00497
1325.90 84.94328
1326.00 84.88158
1326.10 84.86826
1326.20 84.90333
1326.30 84.9384
1326.40 84.97347
1326.50 85.00854
1326.60 85.04361
1326.70 85.07868
1326.80 85.11375
1326.90 85.14881
1327.00 85.18388
1327.10 85.21895
1327.20 85.25402
1327.30 85.26796
1327.40 85.09179
1327.50 84.91561
1327.60 84.73943
1327.70 84.56325
1327.80 84.38708
1327.90 84.2109
1328.00 84.03472
1328.10 83.85854
1328.20 83.68237
1328.30 83.50619
1328.40 83.33001
1328.50 83.15383
1328.60 82.76253
1328.70 82.27904
1328.80 81.79554
1328.90 81.31205
1329.00 80.82855
1329.10 80.34505
1329.20 79.86156
1329.30 79.37806
1329.40 78.89457
1329.50 78.41107
1329.60 77.92758
1329.70 77.44408
1329.80 76.94821
1329.90 76.40287
1330.00 75.85753
1330.10 75.31219
1330.20 74.76685
1330.30 74.2215
1330.40 73.67616
1330.50 73.13082
1330.60 72.58548
1330.70 72.04013
1330.80 71.49479
1330.90 70.94945
1331.00 70.40411
1331.10 69.94149
1331.20 69.49955
1331.30 69.05762
1331.40 68.61568
1331.50 68.17375
1331.60 67.73181
1331.70 67.28988
1331.80 66.84794
1331.90 66.406
1332.00 65.96407
1332.10 65.52213
1332.20 65.0802
1332.30 64.62661
1332.40 64.14582
1332.50 63.66503
1332.60 63.18425
1332.70 62.70346
1332.80 62.22267
1332.90 61.74189
1333.00 61.2611
1333.10 60.78031
1333.20 60.29953
1333.30 59.81874
1333.40 59.33795
1333.50 58.85717
1333.60 58.18231
1333.70 57.48589
1333.80 56.78947
1333.90 56.09305
1334.00 55.39662
1334.10 54.7002
1334.20 54.00378
1334.30 53.30736
1334.40 52.61094
1334.50 51.91452
1334.60 51.2181
1334.70 50.52168
1334.80 49.94079
1334.90 49.47545
1335.00 49.0101
1335.10 48.54476
1335.20 48.07942
1335.30 47.61407
1335.40 47.14873
1335.50 46.68338
1335.60 46.21804
1335.70 45.75269
1335.80 45.28735
1335.90 44.82201
1336.00 44.35666
1336.10 44.21676
1336.20 44.07686
1336.30 43.93695
1336.40 43.79705
1336.50 43.65715
1336.60 43.51725
1336.70 43.37734
1336.80 43.23744
1336.90 43.09754
1337.00 42.95763
1337.10 42.81773
1337.20 42.67783
1337.30 42.6131
1337.40 42.59848
1337.50 42.58387
1337.60 42.56925
1337.70 42.55464
1337.80 42.54002
1337.90 42.52541
1338.00 42.51079
1338.10 42.49618
1338.20 42.48156
1338.30 42.46695
1338.40 42.45233
1338.50 42.44615
1338.60 42.47371
1338.70 42.50127
1338.80 42.52883
1338.90 42.55638
1339.00 42.58394
1339.10 42.6115
1339.20 42.63906
1339.30 42.66662
1339.40 42.69417
1339.50 42.72173
1339.60 42.74929
1339.70 42.77685
1339.80 42.78823
1339.90 42.79269
1340.00 42.79714
1340.10 42.80159
1340.20 42.80604
1340.30 42.8105
1340.40 42.81495
1340.50 42.8194
1340.60 42.82385
1340.70 42.82831
1340.80 42.83276
1340.90 42.83721
1341.00 42.80701
1341.10 42.69593
1341.20 42.58486
1341.30 42.47379
1341.40 42.36272
1341.50 42.25164
1341.60 42.14057
1341.70 42.0295
1341.80 41.91843
1341.90 41.80735
1342.00 41.69628
1342.10 41.58521
1342.20 41.47413
1342.30 41.36626
1342.40 41.25918
1342.50 41.1521
1342.60 41.04502
1342.70 40.93794
1342.80 40.83086
1342.90 40.72378
1343.00 40.6167
1343.10 40.50962
1343.20 40.40254
1343.30 40.29546
1343.40 40.18838
1343.50 40.08071
1343.60 39.97214
1343.70 39.86357
1343.80 39.755
1343.90 39.64643
1344.00 39.53787
1344.10 39.4293
1344.20 39.32073
1344.30 39.21216
1344.40 39.10359
1344.50 38.99503
1344.60 38.88646
1344.70 38.77789
1344.80 38.77223
1344.90 38.76656
1345.00 38.7609
1345.10 38.75523
1345.20 38.74957
1345.30 38.7439
1345.40 38.73824
1345.50 38.73258
1345.60 38.72691
1345.70 38.72125
1345.80 38.71558
1345.90 38.70992
1346.00 38.73502
1346.10 38.79089
1346.20 38.84676
1346.30 38.90263
1346.40 38.95849
1346.50 39.01436
1346.60 39.07023
1346.70 39.1261
1346.80 39.18197
1346.90 39.23784
1347.00 39.29371
1347.10 39.34958
1347.20 39.39852
1347.30 39.38516
1347.40 39.37179
1347.50 39.35843
1347.60 39.34506
1347.70 39.3317
1347.80 39.31833
1347.90 39.30497
1348.00 39.2916
1348.10 39.27824
1348.20 39.26487
1348.30 39.25151
1348.40 39.23814
1348.50 39.22478
1348.60 39.21141
1348.70 39.19805
1348.80 39.18469
1348.90 39.17132
1349.00 39.15796
1349.10 39.14459
1349.20 39.13123
1349.30 39.11786
1349.40 39.1045
1349.50 39.09113
1349.60 39.07777
1349.70 39.0644
1349.80 39.05104
1349.90 39.03767
1350.00 39.02431
1350.10 39.01094
1350.20 38.99758
1350.30 38.98421
1350.40 38.97085
1350.50 38.95748
1350.60 38.94412
1350.70 38.93076
1350.80 38.91739
1350.90 38.90403
1351.00 38.89066
1351.10 38.8773
1351.20 38.86393
1351.30 38.85057
1351.40 38.8372
1351.50 38.82384
1351.60 38.81047
1351.70 38.79711
1351.80 38.78374
1351.90 38.77038
1352.00 38.75701
1352.10 38.74365
1352.20 38.73028
1352.30 38.71692
1352.40 38.70355
1352.50 38.69019
1352.60 38.67683
1352.70 38.66346
1352.80 38.6501
1352.90 38.63673
1353.00 38.62337
1353.10 38.61
1353.20 38.59664
1353.30 38.58327
1353.40 38.56991
1353.50 38.55654
1353.60 38.54318
1353.70 38.52981
1353.80 38.51645
1353.90 38.50308
1354.00 38.48972
1354.10 38.47635
1354.20 38.46299
1354.30 38.44962
1354.40 38.43626
1354.50 38.4229
1354.60 38.40953
1354.70 38.39617
1354.80 38.3828
1354.90 38.36944
1355.00 38.35607
1355.10 38.34271
1355.20 38.32934
1355.30 38.31598
1355.40 38.30261
1355.50 38.28925
1355.60 38.27588
1355.70 38.26252
1355.80 38.24915
1355.90 38.23579
1356.00 38.22242
1356.10 38.20906
1356.20 38.1957
1356.30 38.18233
1356.40 38.16897
1356.50 38.1556
1356.60 38.14224
1356.70 38.12887
1356.80 38.11551
1356.90 38.10214
1357.00 38.08878
1357.10 38.07541
1357.20 38.06205
1357.30 38.04868
1357.40 38.03532
1357.50 38.02195
1357.60 38.00859
1357.70 37.99522
1357.80 37.98186
1357.90 37.96849
1358.00 37.95513
1358.10 37.94177
1358.20 37.9284
1358.30 37.91504
1358.40 37.90167
1358.50 37.88831
1358.60 37.87494
1358.70 37.86158
1358.80 37.84821
1358.90 37.83485
1359.00 37.82148
1359.10 37.80812
1359.20 37.79475
1359.30 37.78139
1359.40 37.76802
1359.50 37.75466
1359.60 37.74129
1359.70 37.72793
1359.80 37.71456
1359.90 37.7012
1360.00 37.68784
1360.10 37.67447
1360.20 37.66111
1360.30 37.64774
1360.40 37.63438
1360.50 37.62101
1360.60 37.60765
1360.70 37.59428
1360.80 37.58092
1360.90 37.56755
1361.00 37.55419
1361.10 37.54082
1361.20 37.52746
1361.30 37.51409
1361.40 37.50073
1361.50 37.48736
1361.60 37.474
1361.70 37.46063
1361.80 37.44727
1361.90 37.43391
1362.00 37.42054
1362.10 37.40718
1362.20 37.39381
1362.30 37.38045
1362.40 37.36708
1362.50 37.35372
1362.60 37.34035
1362.70 37.32699
1362.80 37.31362
1362.90 37.30026
1363.00 37.28689
1363.10 37.27353
1363.20 37.26016
1363.30 37.2468
1363.40 37.23343
1363.50 37.22007
1363.60 37.2067
1363.70 37.19334
1363.80 37.17998
1363.90 37.16661
1364.00 37.15325
1364.10 37.13988
1364.20 37.12652
1364.30 37.11315
1364.40 37.09979
1364.50 37.08642
1364.60 37.07306
1364.70 37.05969
1364.80 37.04633
1364.90 37.03296
1365.00 37.0196
1365.10 37.00623
1365.20 36.99287
1365.30 36.9795
1365.40 36.96614
1365.50 36.95278
1365.60 36.93941
1365.70 36.92605
1365.80 36.91268
1365.90 36.89932
1366.00 36.88595
1366.10 36.87259
1366.20 36.85922
1366.30 36.84586
1366.40 36.83249
1366.50 36.81913
1366.60 36.80576
1366.70 36.7924
1366.80 36.77903
1366.90 36.76567
1367.00 36.7523
1367.10 36.73894
1367.20 36.72557
1367.30 36.71221
1367.40 36.69885
1367.50 36.68548
1367.60 36.67212
1367.70 36.65875
1367.80 36.64539
1367.90 36.63202
1368.00 36.61866
1368.10 36.60529
1368.20 36.59193
1368.30 36.57856
1368.40 36.5652
1368.50 36.55183
1368.60 36.53847
1368.70 36.5251
1368.80 36.51174
1368.90 36.49837
1369.00 36.48501
1369.10 36.47164
1369.20 36.45828
1369.30 36.44492
1369.40 36.43155
1369.50 36.41819
1369.60 36.40482
1369.70 36.39146
1369.80 36.37809
1369.90 36.36473
1370.00 36.35136
1370.10 36.338
1370.20 36.32463
1370.30 36.31127
1370.40 36.2979
1370.50 36.28454
1370.60 36.27117
1370.70 36.25781
1370.80 36.24444
1370.90 36.23108
1371.00 36.21771
1371.10 36.20435
1371.20 36.19099
1371.30 36.17762
1371.40 36.16426
1371.50 36.15089
1371.60 36.13753
1371.70 36.12416
1371.80 36.1108
1371.90 36.09743
1372.00 36.08407
1372.10 36.0707
1372.20 36.05734
1372.30 36.04397
1372.40 36.03061
1372.50 36.01724
1372.60 36.00388
1372.70 35.99051
1372.80 35.97715
1372.90 35.96378
1373.00 35.95042
1373.10 35.93706
1373.20 35.92369
1373.30 35.91033
1373.40 35.89696
1373.50 35.8836
1373.60 35.87023
1373.70 35.85687
1373.80 35.8435
1373.90 35.83014
1374.00 35.81677
1374.10 35.80341
1374.20 35.79004
1374.30 35.77668
1374.40 35.76331
1374.50 35.74995
1374.60 35.73658
1374.70 35.72322
1374.80 35.70985
1374.90 35.69649
1375.00 35.68313
1375.10 35.66976
1375.20 35.6564
1375.30 35.64303
1375.40 35.62967
1375.50 35.6163
1375.60 35.60294
1375.70 35.58957
1375.80 35.57621
1375.90 35.56284
1376.00 35.54948
1376.10 35.53611
1376.20 35.52275
1376.30 35.50938
1376.40 35.49602
1376.50 35.48265
1376.60 35.46929
1376.70 35.45593
1376.80 35.44256
1376.90 35.4292
1377.00 35.41583
1377.10 35.40247
1377.20 35.3891
1377.30 35.37574
1377.40 35.36237
1377.50 35.34901
1377.60 35.33564
1377.70 35.32228
1377.80 35.30891
1377.90 35.29555
1378.00 35.28218
1378.10 35.26882
1378.20 35.25545
1378.30 35.24209
1378.40 35.22872
1378.50 35.21536
1378.60 35.202
1378.70 35.18863
1378.80 35.17527
1378.90 35.1619
1379.00 35.14854
1379.10 35.13517
1379.20 35.12181
1379.30 35.10844
1379.40 35.09508
1379.50 35.08171
1379.60 35.06835
1379.70 35.05498
1379.80 35.04162
1379.90 35.02825
1380.00 35.01489
1380.10 35.00152
1380.20 34.98816
1380.30 34.97479
1380.40 34.96143
1380.50 34.94807
1380.60 34.9347
1380.70 34.92134
1380.80 34.90797
1380.90 34.89461
1381.00 34.88124
1381.10 34.86788
1381.20 34.85451
1381.30 34.84115
1381.40 34.82778
1381.50 34.81442
1381.60 34.80105
1381.70 34.78769
1381.80 34.77432
1381.90 34.76096
1382.00 34.74759
1382.10 34.73423
1382.20 34.72086
1382.30 34.7075
1382.40 34.69414
1382.50 34.68077
1382.60 34.66741
1382.70 34.65404
1382.80 34.64068
1382.90 34.62731
1383.00 34.61395
1383.10 34.60058
1383.20 34.58722
1383.30 34.57385
1383.40 34.56049
1383.50 34.54712
1383.60 34.53376
1383.70 34.52039
1383.80 34.50703
1383.90 34.49366
1384.00 34.4803
1384.10 34.46693
1384.20 34.45357
1384.30 34.44021
1384.40 34.42684
1384.50 34.41348
1384.60 34.40011
1384.70 34.38675
1384.80 34.37338
1384.90 34.36002
1385.00 34.34665
1385.10 34.33329
1385.20 34.31992
1385.30 34.30656
1385.40 34.29319
1385.50 34.27983
1385.60 34.26646
1385.70 34.2531
1385.80 34.23973
1385.90 34.22637
1386.00 34.21301
1386.10 34.19964
1386.20 34.18628
1386.30 34.17291
1386.40 34.15955
1386.50 34.14618
1386.60 34.13282
1386.70 34.11945
1386.80 34.10609
1386.90 34.09272
1387.00 34.07936
1387.10 34.06599
1387.20 34.05263
1387.30 34.03926
1387.40 34.0259
1387.50 34.01253
1387.60 33.99917
1387.70 33.9858
1387.80 33.97244
1387.90 33.95908
1388.00 33.94571
1388.10 33.93235
1388.20 33.91898
1388.30 33.90562
1388.40 33.89225
1388.50 33.87889
1388.60 33.86552
1388.70 33.85216
1388.80 33.83879
1388.90 33.82543
1389.00 33.81206
1389.10 33.7987
1389.20 33.78533
1389.30 33.77197
1389.40 33.7586
1389.50 33.74524
1389.60 33.73187
1389.70 33.71851
1389.80 33.70515
1389.90 33.69178
1390.00 33.67842
1390.10 33.66505
1390.20 33.65169
1390.30 33.63832
1390.40 33.62496
1390.50 33.61159
1390.60 33.59823
1390.70 33.58486
1390.80 33.5715
1390.90 33.55813
1391.00 33.54477
1391.10 33.5314
1391.20 33.51804
1391.30 33.50467
1391.40 33.49131
1391.50 33.47794
1391.60 33.46458
1391.70 33.45122
1391.80 33.43785
1391.90 33.42449
1392.00 33.41112
1392.10 33.39776
1392.20 33.38439
1392.30 33.37103
1392.40 33.35766
1392.50 33.3443
1392.60 33.33093
1392.70 33.31757
1392.80 33.3042
1392.90 33.29084
1393.00 33.27747
1393.10 33.26411
1393.20 33.25074
1393.30 33.23738
1393.40 33.22401
1393.50 33.21065
1393.60 33.19729
1393.70 33.18392
1393.80 33.17056
1393.90 33.15719
1394.00 33.14383
1394.10 33.13046
1394.20 33.1171
1394.30 33.10373
1394.40 33.09037
1394.50 33.077
1394.60 33.06364
1394.70 33.05027
1394.80 33.03691
1394.90 33.02354
1395.00 33.01018
1395.10 32.99681
1395.20 32.98345
1395.30 32.97008
1395.40 32.95672
1395.50 32.94336
1395.60 32.92999
1395.70 32.91663
1395.80 32.90326
1395.90 32.8899
1396.00 32.87653
1396.10 32.86317
1396.20 32.8498
1396.30 32.83644
1396.40 32.82307
1396.50 32.80971
1396.60 32.79634
1396.70 32.78298
1396.80 32.76961
1396.90 32.75625
1397.00 32.74288
1397.10 32.72952
1397.20 32.71616
1397.30 32.70279
1397.40 32.68943
1397.50 32.67606
1397.60 32.6627
1397.70 32.64933
1397.80 32.63597
1397.90 32.6226
1398.00 32.60924
1398.10 32.59587
1398.20 32.58251
1398.30 32.56914
1398.40 32.55578
1398.50 32.54241
1398.60 32.52905
1398.70 32.51568
1398.80 32.50232
1398.90 32.48895
1399.00 32.47559
1399.10 32.46223
1399.20 32.44886
1399.30 32.4355
1399.40 32.42213
1399.50 32.40877
1399.60 32.3954
1399.70 32.38204
1399.80 32.36867
1399.90 32.35531
