# Version 2.1 - nm, norm@500 to 1, cut digits
# Wavelength(nm)  Flambda(ergs/cm^s/s/nm)
300.00 0.004928453
300.10 0.006551141
300.20 0.007539254
300.30 0.007947716
300.40 0.008054529
300.50 0.008085718
300.60 0.008116907
300.70 0.008148418
300.80 0.008181539
300.90 0.008218748
301.00 0.008262766
301.10 0.008314802
301.20 0.008373648
301.30 0.008436581
301.40 0.008501124
301.50 0.00856599
301.60 0.008630855
301.70 0.008695721
301.80 0.008760587
301.90 0.008825452
302.00 0.008890318
302.10 0.008955183
302.20 0.009020049
302.30 0.009084915
302.40 0.00914978
302.50 0.009214646
302.60 0.009279511
302.70 0.009344622
302.80 0.009410954
302.90 0.009480391
303.00 0.009554997
303.10 0.009635691
303.20 0.009721554
303.30 0.009810522
303.40 0.009900711
303.50 0.009991146
303.60 0.01008158
303.70 0.01017201
303.80 0.01026245
303.90 0.01035288
304.00 0.01044332
304.10 0.01053375
304.20 0.01062419
304.30 0.01071462
304.40 0.01080506
304.50 0.01089549
304.60 0.01098592
304.70 0.01107561
304.80 0.01116156
304.90 0.01123801
305.00 0.01129866
305.10 0.01134068
305.20 0.01136689
305.30 0.01138361
305.40 0.01139659
305.50 0.01140882
305.60 0.01142105
305.70 0.01143328
305.80 0.01144551
305.90 0.01145774
306.00 0.01146997
306.10 0.0114822
306.20 0.01149444
306.30 0.01150667
306.40 0.0115189
306.50 0.01153113
306.60 0.01154336
306.70 0.01155559
306.80 0.01156783
306.90 0.01158009
307.00 0.01159239
307.10 0.01160473
307.20 0.0116171
307.30 0.01162949
307.40 0.01164189
307.50 0.01165429
307.60 0.01166669
307.70 0.01167909
307.80 0.01169149
307.90 0.01170389
308.00 0.01171629
308.10 0.01172869
308.20 0.0117411
308.30 0.0117535
308.40 0.0117659
308.50 0.0117783
308.60 0.0117907
308.70 0.01180497
308.80 0.0118286
308.90 0.01187599
309.00 0.01196295
309.10 0.01209652
309.20 0.01226965
309.30 0.01246655
309.40 0.0126728
309.50 0.01288092
309.60 0.01308905
309.70 0.01329717
309.80 0.0135053
309.90 0.01371342
310.00 0.01392154
310.10 0.01412967
310.20 0.01433779
310.30 0.01454592
310.40 0.01475404
310.50 0.01496216
310.60 0.01517029
310.70 0.01537653
310.80 0.01557336
310.90 0.01574632
311.00 0.01587949
311.10 0.01596581
311.20 0.01601235
311.30 0.01603501
311.40 0.01604827
311.50 0.01605963
311.60 0.016071
311.70 0.01608237
311.80 0.01609374
311.90 0.01610511
312.00 0.01611648
312.10 0.01612785
312.20 0.01613922
312.30 0.01615059
312.40 0.01616196
312.50 0.01617333
312.60 0.0161847
312.70 0.0161984
312.80 0.01622371
312.90 0.01627852
313.00 0.01638246
313.10 0.01654426
313.20 0.0167552
313.30 0.01699563
313.40 0.01724767
313.50 0.01750204
313.60 0.01775642
313.70 0.01801079
313.80 0.01826516
313.90 0.01851953
314.00 0.0187739
314.10 0.01902828
314.20 0.01928265
314.30 0.01953702
314.40 0.01979139
314.50 0.02004577
314.60 0.02030014
314.70 0.02055613
314.80 0.02082021
314.90 0.02110482
315.00 0.02142363
315.10 0.02178271
315.20 0.022176
315.30 0.02258982
315.40 0.02301173
315.50 0.02343525
315.60 0.02385878
315.70 0.0242823
315.80 0.02470583
315.90 0.02512935
316.00 0.02555288
316.10 0.0259764
316.20 0.02639993
316.30 0.02682345
316.40 0.02724698
316.50 0.02767051
316.60 0.02809403
316.70 0.0285116
316.80 0.02889945
316.90 0.02921183
317.00 0.02939849
317.10 0.02943711
317.20 0.02935
317.30 0.02918742
317.40 0.02899513
317.50 0.02879687
317.60 0.02859862
317.70 0.02840037
317.80 0.02820212
317.90 0.02800387
318.00 0.02780562
318.10 0.02760736
318.20 0.02740911
318.30 0.02721086
318.40 0.02701261
318.50 0.02681436
318.60 0.02661611
318.70 0.02642241
318.80 0.02625147
318.90 0.0261383
319.00 0.02612137
319.10 0.02621776
319.20 0.02641039
319.30 0.02666079
319.40 0.02693395
319.50 0.02721166
319.60 0.02748937
319.70 0.02776708
319.80 0.0280448
319.90 0.02832251
320.00 0.02860022
320.10 0.02887793
320.20 0.02915564
320.30 0.02943336
320.40 0.02971107
320.50 0.02998878
320.60 0.03026649
320.70 0.03054252
320.80 0.03081013
320.90 0.03105637
321.00 0.03126702
321.10 0.03143576
321.20 0.03156891
321.30 0.03168068
321.40 0.03178405
321.50 0.03188572
321.60 0.0319874
321.70 0.03208908
321.80 0.03219075
321.90 0.03229243
322.00 0.0323941
322.10 0.03249578
322.20 0.03259746
322.30 0.03269913
322.40 0.03280081
322.50 0.03290249
322.60 0.03300416
322.70 0.033112
322.80 0.03325057
322.90 0.03346718
323.00 0.03381381
323.10 0.03431353
323.20 0.03494327
323.30 0.03565105
323.40 0.03638956
323.50 0.03713424
323.60 0.03787891
323.70 0.03862358
323.80 0.03936825
323.90 0.04011293
324.00 0.0408576
324.10 0.04160227
324.20 0.04234695
324.30 0.04309162
324.40 0.04383629
324.50 0.04458097
324.60 0.04532564
324.70 0.04606931
324.80 0.04680799
324.90 0.04753399
325.00 0.04823888
325.10 0.04891889
325.20 0.04957779
325.30 0.050224
325.40 0.05086523
325.50 0.05150545
325.60 0.05214568
325.70 0.0527859
325.80 0.05342613
325.90 0.05406635
326.00 0.05470657
326.10 0.0553468
326.20 0.05598702
326.30 0.05662725
326.40 0.05726747
326.50 0.0579077
326.60 0.05854792
326.70 0.0591903
326.80 0.05984344
326.90 0.06052391
327.00 0.06124989
327.10 0.06202947
327.20 0.06285458
327.30 0.06370701
327.40 0.0645702
327.50 0.06543554
327.60 0.06630088
327.70 0.06716623
327.80 0.06803157
327.90 0.06889692
328.00 0.06976226
328.10 0.07062761
328.20 0.07149295
328.30 0.0723583
328.40 0.07322364
328.50 0.07408899
328.60 0.07495433
328.70 0.07580703
328.80 0.07659659
328.90 0.07722582
329.00 0.07758798
329.10 0.07763565
329.20 0.07741624
329.30 0.0770365
329.40 0.07659363
329.50 0.07613811
329.60 0.07568259
329.70 0.07522707
329.80 0.07477155
329.90 0.07431603
330.00 0.07386051
330.10 0.07340499
330.20 0.07294947
330.30 0.07249395
330.40 0.07203843
330.50 0.07158291
330.60 0.07112739
330.70 0.07068125
330.80 0.07028195
330.90 0.07000158
331.00 0.06991932
331.10 0.07007036
331.20 0.07041952
331.30 0.07088761
331.40 0.07140254
331.50 0.07192684
331.60 0.07245115
331.70 0.07297546
331.80 0.07349976
331.90 0.07402407
332.00 0.07454838
332.10 0.07507269
332.20 0.07559699
332.30 0.0761213
332.40 0.07664561
332.50 0.07716992
332.60 0.07769422
332.70 0.07821259
332.80 0.0787013
332.90 0.07911472
333.00 0.07940269
333.10 0.07954296
333.20 0.07955779
333.30 0.07949732
333.40 0.07940719
333.50 0.07931113
333.60 0.07921507
333.70 0.079119
333.80 0.07902294
333.90 0.07892687
334.00 0.07883081
334.10 0.07873474
334.20 0.07863868
334.30 0.07854261
334.40 0.07844655
334.50 0.07835049
334.60 0.07833439
334.70 0.07857916
334.80 0.0791545
334.90 0.07973895
335.00 0.07972054
335.10 0.07893235
335.20 0.07833768
335.30 0.07973719
335.40 0.08438244
335.50 0.09156253
335.60 0.0985284
335.70 0.1020915
335.80 0.1006808
335.90 0.0951202
336.00 0.0877503
336.10 0.08098055
336.20 0.07649154
336.30 0.07498758
336.40 0.07589818
336.50 0.07744836
336.60 0.07772244
336.70 0.07625335
336.80 0.07461729
336.90 0.07519733
337.00 0.07914197
337.10 0.08524514
337.20 0.09063639
337.30 0.09275347
337.40 0.0911411
337.50 0.08773503
337.60 0.08538177
337.70 0.08572709
337.80 0.08824961
337.90 0.09121638
338.00 0.09330246
338.10 0.09414333
338.20 0.09354682
338.30 0.09088333
338.40 0.08593856
338.50 0.08017381
338.60 0.07649947
338.70 0.07718368
338.80 0.08173572
338.90 0.08706267
339.00 0.0899546
339.10 0.08971325
339.20 0.08858213
339.30 0.08954018
339.40 0.09355863
339.50 0.09897161
339.60 0.1032777
339.70 0.1052414
339.80 0.1052094
339.90 0.1038711
340.00 0.1015013
340.10 0.09838347
340.20 0.0951733
340.30 0.09236866
340.40 0.08963429
340.50 0.08615315
340.60 0.08172846
340.70 0.07723887
340.80 0.07394249
340.90 0.07255488
341.00 0.07302817
341.10 0.07492546
341.20 0.07774329
341.30 0.08089018
341.40 0.08366918
341.50 0.08554749
341.60 0.08647256
341.70 0.08689532
341.80 0.0874273
341.90 0.08838902
342.00 0.08952558
342.10 0.09005671
342.20 0.08915152
342.30 0.08662715
342.40 0.08332496
342.50 0.08068453
342.60 0.07977631
342.70 0.08063423
342.80 0.0823951
342.90 0.08398017
343.00 0.08475867
343.10 0.08483119
343.20 0.08479472
343.30 0.08516233
343.40 0.08591588
343.50 0.08661198
343.60 0.08685116
343.70 0.08652377
343.80 0.08571486
343.90 0.0846246
344.00 0.08361895
344.10 0.08312112
344.20 0.08324159
344.30 0.08359164
344.40 0.08362453
344.50 0.0831588
344.60 0.08252561
344.70 0.08227839
344.80 0.08284017
344.90 0.08436035
345.00 0.08675977
345.10 0.08979049
345.20 0.09304866
345.30 0.09597523
345.40 0.09794549
345.50 0.09856997
345.60 0.09801971
345.70 0.09699775
345.80 0.09625842
345.90 0.0960799
346.00 0.09613978
346.10 0.09579714
346.20 0.09453995
346.30 0.09238799
346.40 0.09002239
346.50 0.0883893
346.60 0.08794774
346.70 0.0882707
346.80 0.08844206
346.90 0.08780248
347.00 0.08628921
347.10 0.08430985
347.20 0.08254068
347.30 0.08173581
347.40 0.08237473
347.50 0.08428439
347.60 0.08671992
347.70 0.08893703
347.80 0.09069001
347.90 0.09222407
348.00 0.09388854
348.10 0.09574592
348.20 0.09744629
348.30 0.09845843
348.40 0.09850043
348.50 0.09778664
348.60 0.09680668
348.70 0.09587888
348.80 0.09500076
348.90 0.09406968
349.00 0.09309083
349.10 0.09215118
349.20 0.09132866
349.30 0.09073519
349.40 0.09057158
349.50 0.09096589
349.60 0.09172278
349.70 0.09235293
349.80 0.09250617
349.90 0.09246368
350.00 0.09310446
350.10 0.0952128
350.20 0.09872652
350.30 0.102658
350.40 0.1057683
350.50 0.1073498
350.60 0.10746
350.70 0.1065897
350.80 0.1052458
350.90 0.1037118
351.00 0.1019376
351.10 0.09956282
351.20 0.09619866
351.30 0.0919279
351.40 0.08757838
351.50 0.08432504
351.60 0.08285744
351.70 0.08289354
351.80 0.0835074
351.90 0.08390086
352.00 0.08384952
352.10 0.0835152
352.20 0.08308613
352.30 0.08272548
352.40 0.08278369
352.50 0.08390272
352.60 0.0866638
352.70 0.09098605
352.80 0.09589701
352.90 0.1000753
353.00 0.1028237
353.10 0.1045143
353.20 0.1060182
353.30 0.1078181
353.40 0.1097963
353.50 0.1117162
353.60 0.1136258
353.70 0.1157077
353.80 0.1179588
353.90 0.1201789
354.00 0.1221063
354.10 0.1234007
354.20 0.123652
354.30 0.1226961
354.40 0.1209703
354.50 0.1193643
354.60 0.1185555
354.70 0.1185098
354.80 0.1186686
354.90 0.1185356
355.00 0.1180177
355.10 0.1173146
355.20 0.1166387
355.30 0.1160881
355.40 0.1157106
355.50 0.1155266
355.60 0.1154198
355.70 0.1150649
355.80 0.1140785
355.90 0.1123385
356.00 0.1101288
356.10 0.107909
356.20 0.1059201
356.30 0.1039922
356.40 0.1017307
356.50 0.09894542
356.60 0.09596228
356.70 0.09350731
356.80 0.09220029
356.90 0.09209687
357.00 0.0926934
357.10 0.09331629
357.20 0.09347426
357.30 0.09295792
357.40 0.09177846
357.50 0.09010136
357.60 0.08819829
357.70 0.0863519
357.80 0.08474095
357.90 0.08340016
358.00 0.08231931
358.10 0.08161666
358.20 0.08158465
358.30 0.08249835
358.40 0.08433928
358.50 0.08669601
358.60 0.08892344
358.70 0.09041901
358.80 0.09087369
358.90 0.09042126
359.00 0.089648
359.10 0.08937266
359.20 0.09019582
359.30 0.09208094
359.40 0.09430643
359.50 0.0959173
359.60 0.09637262
359.70 0.09588126
359.80 0.09516526
359.90 0.09484952
360.00 0.0949655
360.10 0.0949524
360.20 0.09413587
360.30 0.09226968
360.40 0.08974267
360.50 0.08738463
360.60 0.08608145
360.70 0.08642272
360.80 0.08843583
360.90 0.091524
361.00 0.09475956
361.10 0.09741179
361.20 0.09929318
361.30 0.1006159
361.40 0.1015635
361.50 0.1020964
361.60 0.1022047
361.70 0.1021832
361.80 0.1024715
361.90 0.1032073
362.00 0.1040622
362.10 0.1045856
362.20 0.1046191
362.30 0.1043416
362.40 0.1040527
362.50 0.1040029
362.60 0.1042754
362.70 0.1046427
362.80 0.1046074
362.90 0.1037975
363.00 0.1023999
363.10 0.1011054
363.20 0.1005516
363.30 0.1008479
363.40 0.1016219
363.50 0.1024094
363.60 0.1029529
363.70 0.1032271
363.80 0.1032842
363.90 0.1031028
364.00 0.1025499
364.10 0.101474
364.20 0.09985785
364.30 0.09790455
364.40 0.09599453
364.50 0.09456182
364.60 0.09392616
364.70 0.09411465
364.80 0.09482314
364.90 0.09564622
365.00 0.0964475
365.10 0.09749738
365.20 0.09913972
365.30 0.1012799
365.40 0.1032604
365.50 0.1043157
365.60 0.1042038
365.70 0.1033896
365.80 0.1025968
365.90 0.1022208
366.00 0.1021802
366.10 0.1022473
366.20 0.1024064
366.30 0.1028227
366.40 0.1035391
366.50 0.1043097
366.60 0.1047288
366.70 0.1044933
366.80 0.1035604
366.90 0.1021249
367.00 0.1005171
367.10 0.09911209
367.20 0.09825078
367.30 0.09815214
367.40 0.09881847
367.50 0.1000161
367.60 0.1013898
367.70 0.102647
367.80 0.1036798
367.90 0.104545
368.00 0.1053439
368.10 0.1061005
368.20 0.1067183
368.30 0.107028
368.40 0.106897
368.50 0.1063542
368.60 0.105642
368.70 0.1051154
368.80 0.105026
368.90 0.1053679
369.00 0.1059478
369.10 0.1066128
369.20 0.1073549
369.30 0.1081668
369.40 0.1088583
369.50 0.1091037
369.60 0.1087237
369.70 0.1079056
369.80 0.1071377
369.90 0.106933
370.00 0.1075626
370.10 0.1089495
370.20 0.1107559
370.30 0.1125645
370.40 0.1140232
370.50 0.1149031
370.60 0.1151251
370.70 0.1148223
370.80 0.1143479
370.90 0.1141177
371.00 0.1143403
371.10 0.1148441
371.20 0.1151422
371.30 0.1146842
371.40 0.1131635
371.50 0.110721
371.60 0.1079244
371.70 0.1055025
371.80 0.1040126
371.90 0.1036597
372.00 0.1043134
372.10 0.1055463
372.20 0.1066037
372.30 0.1065355
372.40 0.1046351
372.50 0.1009938
372.60 0.09666739
372.70 0.09320352
372.80 0.09185327
372.90 0.09302322
373.00 0.09624492
373.10 0.1005153
373.20 0.1047124
373.30 0.1078995
373.40 0.109512
373.50 0.1093982
373.60 0.1077156
373.70 0.1047806
373.80 0.1010015
373.90 0.09691584
374.00 0.09319757
374.10 0.09054004
374.20 0.08947939
374.30 0.09030014
374.40 0.09305731
374.50 0.09759635
374.60 0.1034959
374.70 0.1099875
374.80 0.1160039
374.90 0.1204498
375.00 0.1225777
375.10 0.1222286
375.20 0.1198054
375.30 0.1160635
375.40 0.1118791
375.50 0.1080645
375.60 0.1051755
375.70 0.1033619
375.80 0.102377
375.90 0.1017823
376.00 0.1012515
376.10 0.1008103
376.20 0.1008874
376.30 0.1021372
376.40 0.1051205
376.50 0.1100631
376.60 0.1168499
376.70 0.125099
376.80 0.134109
376.90 0.1427121
377.00 0.1493697
377.10 0.1526997
377.20 0.1521083
377.30 0.1480211
377.40 0.1415693
377.50 0.1340554
377.60 0.1265806
377.70 0.1199373
377.80 0.1145812
377.90 0.1106072
378.00 0.1078065
378.10 0.1058469
378.20 0.1044677
378.30 0.1035282
378.40 0.1029308
378.50 0.102595
378.60 0.1025336
378.70 0.1028948
378.80 0.1038987
378.90 0.1057919
379.00 0.1089221
379.10 0.1137808
379.20 0.1207994
379.30 0.1299718
379.40 0.1406208
379.50 0.1514956
379.60 0.1610603
379.70 0.1678004
379.80 0.170565
379.90 0.1689255
380.00 0.1633952
380.10 0.1552795
380.20 0.1461785
380.30 0.1374388
380.40 0.1298698
380.50 0.1237646
380.60 0.1190585
380.70 0.1154663
380.80 0.1125836
380.90 0.1100625
381.00 0.1077824
381.10 0.1058462
381.20 0.1043726
381.30 0.1033018
381.40 0.1024532
381.50 0.1017809
381.60 0.1014743
381.70 0.1017171
381.80 0.102349
381.90 0.1028318
382.00 0.1026415
382.10 0.09104295
382.20 0.03269367
382.30 9.99999e-11
382.40 9.999993e-11
382.50 9.999987e-11
382.60 9.99999e-11
382.70 9.999984e-11
382.80 9.999979e-11
382.90 9.99999e-11
383.00 0.1828666
383.10 0.5400949
383.20 0.7387453
383.30 0.7546334
383.40 0.6107604
383.50 0.3947019
383.60 0.2375205
383.70 0.229316
383.80 0.3326945
383.90 0.4220877
384.00 0.4270197
384.10 0.3719929
384.20 0.2896534
384.30 0.1587226
384.40 9.999995e-11
384.50 9.99999e-11
384.60 0.1507828
384.70 0.6107161
384.80 1.108126
384.90 1.379453
385.00 1.275122
385.10 0.8657223
385.20 0.4167392
385.30 0.2236153
385.40 0.3858258
385.50 0.7319776
385.60 0.9964228
385.70 1.033988
385.80 0.8589736
385.90 0.5631139
386.00 0.259858
386.10 0.05632045
386.20 0.01095788
386.30 0.08774996
386.40 0.2001881
386.50 0.2990266
386.60 0.3853976
386.70 0.469275
386.80 0.5379199
386.90 0.5939348
387.00 0.6666029
387.10 0.7625069
387.20 0.8484675
387.30 0.8961561
387.40 0.9250097
387.50 0.9531354
387.60 0.9388868
387.70 0.8338518
387.80 0.702032
387.90 0.6764777
388.00 0.7809911
388.10 0.8703692
388.20 0.7868199
388.30 0.5509491
388.40 0.3117642
388.50 0.1872312
388.60 0.1970211
388.70 0.3116386
388.80 0.4933103
388.90 0.6841395
389.00 0.8140077
389.10 0.8320104
389.20 0.7244254
389.30 0.5057328
389.40 0.2304799
389.50 9.999997e-11
389.60 9.999998e-11
389.70 9.999999e-11
389.80 0.1501902
389.90 0.1684471
390.00 0.001404639
390.10 9.999999e-11
390.20 9.999999e-11
390.30 0.04047053
390.40 0.1974243
390.50 0.1688685
390.60 0.05819217
390.70 0.07603149
390.80 0.2908569
390.90 0.5534274
391.00 0.6513622
391.10 0.4733974
391.20 0.07155122
391.30 9.999995e-11
391.40 9.99999e-11
391.50 9.999995e-11
391.60 9.999998e-11
391.70 9.999991e-11
391.80 9.999996e-11
391.90 9.999997e-11
392.00 9.999995e-11
392.10 9.999996e-11
392.20 9.999995e-11
392.30 0.1053452
392.40 0.100423
392.50 9.999998e-11
392.60 9.999999e-11
392.70 9.999999e-11
392.80 9.999999e-11
392.90 1e-10
393.00 0.2512715
393.10 0.7964033
393.20 1.37366
393.30 1.863601
393.40 2.015764
393.50 1.667076
393.60 0.9807978
393.70 0.3520164
393.80 0.06513076
393.90 0.08566235
394.00 0.1772776
394.10 0.1541392
394.20 1e-10
394.30 1e-10
394.40 1e-10
394.50 9.999999e-11
394.60 9.999999e-11
394.70 0.06055334
394.80 9.999996e-11
394.90 9.999993e-11
395.00 9.999993e-11
395.10 9.999995e-11
395.20 9.999999e-11
395.30 9.999996e-11
395.40 9.999995e-11
395.50 0.2308597
395.60 0.6365022
395.70 0.762825
395.80 0.5581186
395.90 0.1987424
396.00 9.999991e-11
396.10 9.999993e-11
396.20 9.999993e-11
396.30 9.999993e-11
396.40 9.999987e-11
396.50 0.1365954
396.60 0.4790085
396.70 0.9439925
396.80 1.415963
396.90 1.736178
397.00 1.817071
397.10 1.671672
397.20 1.36007
397.30 0.946102
397.40 0.5141786
397.50 0.1889438
397.60 0.07336979
397.70 0.1593153
397.80 0.3287373
397.90 0.4619963
398.00 0.5390137
398.10 0.6217809
398.20 0.7412124
398.30 0.8310196
398.40 0.7881541
398.50 0.580164
398.60 0.287439
398.70 0.02099675
398.80 9.999998e-11
398.90 9.999996e-11
399.00 9.999998e-11
399.10 9.999998e-11
399.20 9.999999e-11
399.30 9.999998e-11
399.40 1e-10
399.50 1e-10
399.60 0.05247126
399.70 0.1024242
399.80 0.08350466
399.90 0.05163176
400.00 0.06290346
400.10 0.1262063
400.20 0.1893114
400.30 0.1831328
400.40 0.09338468
400.50 9.999993e-11
400.60 9.999993e-11
400.70 9.99999e-11
400.80 0.008779116
400.90 0.1108957
401.00 0.18907
401.10 0.1813783
401.20 0.06137951
401.30 9.999998e-11
401.40 9.999996e-11
401.50 9.999998e-11
401.60 9.999998e-11
401.70 0.1453916
401.80 0.2886751
401.90 0.3459253
402.00 0.3484968
402.10 0.3626032
402.20 0.4363167
402.30 0.5438384
402.40 0.5970574
402.50 0.5415043
402.60 0.4184398
402.70 0.2993922
402.80 0.2032023
402.90 0.1164292
403.00 0.05541548
403.10 0.06827234
403.20 0.1575258
403.30 0.2510024
403.40 0.2670197
403.50 0.1857574
403.60 0.06020963
403.70 9.999993e-11
403.80 9.999993e-11
403.90 9.999993e-11
404.00 9.999987e-11
404.10 0.006331063
404.20 0.06858928
404.30 0.2065848
404.40 0.3860866
404.50 0.5444492
404.60 0.6196099
404.70 0.5626944
404.80 0.3787555
404.90 0.1607265
405.00 0.02618975
405.10 0.01186471
405.20 0.05584211
405.30 0.09279887
405.40 0.1310286
405.50 0.2031012
405.60 0.277611
405.70 0.2783105
405.80 0.196432
405.90 0.1219911
406.00 0.1436643
406.10 0.2499944
406.20 0.3566896
406.30 0.4116843
406.40 0.4346483
406.50 0.4598909
406.60 0.4916491
406.70 0.5136483
406.80 0.5041864
406.90 0.4371216
407.00 0.2910463
407.10 0.09145301
407.20 9.999991e-11
407.30 9.999995e-11
407.40 9.999994e-11
407.50 0.09879487
407.60 0.1806516
407.70 0.2183702
407.80 0.2410142
407.90 0.2474715
408.00 0.2182387
408.10 0.1586602
408.20 0.1003116
408.30 0.07013614
408.40 0.07141385
408.50 0.1015435
408.60 0.1552981
408.70 0.2051193
408.80 0.2024449
408.90 0.1221598
409.00 0.01774792
409.10 9.999999e-11
409.20 0.1073286
409.30 0.2628822
409.40 0.3247977
409.50 0.2618721
409.60 0.1913803
409.70 0.2548785
409.80 0.4808741
409.90 0.7867276
410.00 1.061958
410.10 1.220382
410.20 1.207836
410.30 1.012882
410.40 0.68442
410.50 0.3175582
410.60 0.01063127
410.70 9.999994e-11
410.80 9.999996e-11
410.90 9.999996e-11
411.00 9.999997e-11
411.10 9.999999e-11
411.20 9.999999e-11
411.30 9.999998e-11
411.40 9.999997e-11
411.50 9.999999e-11
411.60 0.2407923
411.70 0.6610023
411.80 0.9473577
411.90 1.030926
412.00 0.9564169
412.10 0.8183835
412.20 0.6892326
412.30 0.594247
412.40 0.5193545
412.50 0.4406358
412.60 0.3504583
412.70 0.2571873
412.80 0.172525
412.90 0.1023115
413.00 0.05052621
413.10 0.02302771
413.20 0.01629212
413.30 0.02363792
413.40 0.04500391
413.50 0.08127826
413.60 0.127783
413.70 0.1771834
413.80 0.2190694
413.90 0.2273911
414.00 0.1645987
414.10 0.009001449
414.20 9.999998e-11
414.30 9.999997e-11
414.40 9.999999e-11
414.50 9.999998e-11
414.60 9.999999e-11
414.70 9.999998e-11
414.80 0.1304113
414.90 0.2210938
415.00 0.1166913
415.10 9.999998e-11
415.20 9.999998e-11
415.30 9.999999e-11
415.40 9.999999e-11
415.50 9.999999e-11
415.60 9.999999e-11
415.70 9.999998e-11
415.80 9.999996e-11
415.90 9.999997e-11
416.00 0.0639327
416.10 0.1671799
416.20 0.2610899
416.30 0.2874341
416.40 0.2002787
416.50 0.01945773
416.60 9.999999e-11
416.70 9.999999e-11
416.80 9.999998e-11
416.90 9.999998e-11
417.00 0.05623413
417.10 0.2336647
417.20 0.2885073
417.30 0.2758088
417.40 0.2841174
417.50 0.3133267
417.60 0.2861497
417.70 0.1627274
417.80 9.999996e-11
417.90 9.999993e-11
418.00 9.999996e-11
418.10 9.999996e-11
418.20 9.999999e-11
418.30 9.999998e-11
418.40 9.999999e-11
418.50 0.0416243
418.60 0.3195461
418.70 0.6107895
418.80 0.8627065
418.90 1.045396
419.00 1.164857
419.10 1.225871
419.20 1.206573
419.30 1.086095
419.40 0.8842022
419.50 0.6482123
419.60 0.4272767
419.70 0.2660319
419.80 0.1917262
419.90 0.1951282
420.00 0.2175286
420.10 0.1849479
420.20 0.07178547
420.30 9.999998e-11
420.40 9.999999e-11
420.50 9.999998e-11
420.60 9.999999e-11
420.70 9.999998e-11
420.80 0.09747726
420.90 0.1553338
421.00 0.1442674
421.10 0.1188182
421.20 0.1639727
421.30 0.3103186
421.40 0.5053625
421.50 0.6642365
421.60 0.7398067
421.70 0.7414131
421.80 0.7006925
421.90 0.636246
422.00 0.5556298
422.10 0.4784685
422.20 0.4326047
422.30 0.4114684
422.40 0.3530125
422.50 0.2004374
422.60 9.999998e-11
422.70 9.999999e-11
422.80 9.999999e-11
422.90 9.999999e-11
423.00 9.999999e-11
423.10 9.999999e-11
423.20 9.999999e-11
423.30 9.999998e-11
423.40 9.999998e-11
423.50 0.1157513
423.60 0.3708566
423.70 0.5451601
423.80 0.6089057
423.90 0.5754371
424.00 0.4738211
424.10 0.3367227
424.20 0.1924006
424.30 0.05502315
424.40 9.999999e-11
424.50 9.999999e-11
424.60 9.999999e-11
424.70 1e-10
424.80 0.1179235
424.90 0.2822498
425.00 0.4247507
425.10 0.5070982
425.20 0.5049773
425.30 0.4322902
425.40 0.332674
425.50 0.2608271
425.60 0.2550932
425.70 0.3136663
425.80 0.3924633
425.90 0.4283235
426.00 0.3882969
426.10 0.3007423
426.20 0.2208197
426.30 0.1816321
426.40 0.198413
426.50 0.271002
426.60 0.354415
426.70 0.3496474
426.80 0.1839164
426.90 9.999997e-11
427.00 9.999995e-11
427.10 9.999997e-11
427.20 9.999997e-11
427.30 9.999998e-11
427.40 9.999999e-11
427.50 9.999999e-11
427.60 9.999999e-11
427.70 9.999999e-11
427.80 0.04474785
427.90 0.05407923
428.00 0.02016941
428.10 9.999999e-11
428.20 9.999999e-11
428.30 9.999998e-11
428.40 9.999998e-11
428.50 9.999998e-11
428.60 9.999995e-11
428.70 9.999997e-11
428.80 9.999994e-11
428.90 9.999995e-11
429.00 9.999995e-11
429.10 0.1002529
429.20 0.2160258
429.30 0.2891485
429.40 0.3407645
429.50 0.3879679
429.60 0.432314
429.70 0.4482501
429.80 0.4066079
429.90 0.3309921
430.00 0.3011088
430.10 0.3630923
430.20 0.4626675
430.30 0.5053689
430.40 0.4704349
430.50 0.4293131
430.60 0.4383571
430.70 0.4653002
430.80 0.4483049
430.90 0.3773044
431.00 0.2887787
431.10 0.2152775
431.20 0.1636976
431.30 0.1272287
431.40 0.09118252
431.50 0.0356494
431.60 9.99999e-11
431.70 9.99999e-11
431.80 9.99999e-11
431.90 9.999993e-11
432.00 0.02019276
432.10 0.127126
432.20 0.2513798
432.30 0.3788814
432.40 0.4744901
432.50 0.4914778
432.60 0.4045909
432.70 0.2531788
432.80 0.1308299
432.90 0.09609277
433.00 0.103681
433.10 0.05613139
433.20 9.999998e-11
433.30 9.99999e-11
433.40 9.99999e-11
433.50 9.999993e-11
433.60 9.999995e-11
433.70 0.02488757
433.80 0.3016425
433.90 0.6763287
434.00 1.086789
434.10 1.391985
434.20 1.454307
434.30 1.257775
434.40 0.9337713
434.50 0.6568247
434.60 0.5165611
434.70 0.4832038
434.80 0.4698055
434.90 0.4120117
435.00 0.3034632
435.10 0.1826017
435.20 0.09618855
435.30 0.06581611
435.40 0.08463394
435.50 0.1469083
435.60 0.2670921
435.70 0.4453223
435.80 0.6065568
435.90 0.6164867
436.00 0.4118481
436.10 0.1030211
436.20 9.999998e-11
436.30 9.999997e-11
436.40 0.108777
436.50 0.2591276
436.60 0.2985003
436.70 0.288898
436.80 0.3371313
436.90 0.4685723
437.00 0.6038561
437.10 0.6464051
437.20 0.5644362
437.30 0.400313
437.40 0.226399
437.50 0.09553343
437.60 0.02403122
437.70 0.008337424
437.80 0.04175964
437.90 0.1132253
438.00 0.1913742
438.10 0.220897
438.20 0.1673495
438.30 0.06250351
438.40 9.999997e-11
438.50 9.999995e-11
438.60 9.999998e-11
438.70 0.01223892
438.80 0.09411885
438.90 0.2237003
439.00 0.3409833
439.10 0.3602046
439.20 0.2670421
439.30 0.1342936
439.40 0.03683192
439.50 9.999996e-11
439.60 9.999997e-11
439.70 9.999997e-11
439.80 9.999998e-11
439.90 0.1037796
440.00 0.230042
440.10 0.2608554
440.20 0.1676409
440.30 0.01200703
440.40 9.999998e-11
440.50 9.999999e-11
440.60 9.999998e-11
440.70 1e-10
440.80 9.999998e-11
440.90 0.1699634
441.00 0.3749548
441.10 0.5360769
441.20 0.6054202
441.30 0.5839054
441.40 0.5246966
441.50 0.4876728
441.60 0.4945058
441.70 0.520162
441.80 0.5170607
441.90 0.4556776
442.00 0.3534946
442.10 0.2660112
442.20 0.2438485
442.30 0.2920114
442.40 0.3608239
442.50 0.3844103
442.60 0.3369568
442.70 0.2543408
442.80 0.2051767
442.90 0.2312074
443.00 0.307125
443.10 0.3609974
443.20 0.3342
443.30 0.2248515
443.40 0.08118336
443.50 9.999996e-11
443.60 9.999994e-11
443.70 0.005686178
443.80 0.1596005
443.90 0.3214909
444.00 0.4194498
444.10 0.4425917
444.20 0.4394107
444.30 0.4513606
444.40 0.4643995
444.50 0.4323412
444.60 0.3382228
444.70 0.2255739
444.80 0.1619762
444.90 0.1848932
445.00 0.2846444
445.10 0.4352976
445.20 0.6158489
445.30 0.7818165
445.40 0.8518829
445.50 0.7681169
445.60 0.57229
445.70 0.3848053
445.80 0.2920295
445.90 0.2762869
446.00 0.2751058
446.10 0.2784561
446.20 0.3341545
446.30 0.4717765
446.40 0.6514569
446.50 0.7862467
446.60 0.7996859
446.70 0.6818711
446.80 0.5099995
446.90 0.397329
447.00 0.396895
447.10 0.4575066
447.20 0.4901092
447.30 0.4647791
447.40 0.4168088
447.50 0.3798008
447.60 0.344985
447.70 0.2750899
447.80 0.1503433
447.90 0.0004187523
448.00 9.999993e-11
448.10 9.999993e-11
448.20 0.03567344
448.30 0.2083551
448.40 0.3392954
448.50 0.4008498
448.60 0.4309363
448.70 0.4752989
448.80 0.5345569
448.90 0.5789259
449.00 0.600711
449.10 0.6273321
449.20 0.6830808
449.30 0.7500923
449.40 0.7786014
449.50 0.7397328
449.60 0.6571777
449.70 0.5807021
449.80 0.5430463
449.90 0.540206
450.00 0.5466152
450.10 0.5430279
450.20 0.5243683
450.30 0.501226
450.40 0.4943332
450.50 0.5115419
450.60 0.5320109
450.70 0.5275842
450.80 0.4947113
450.90 0.4605995
451.00 0.4552395
451.10 0.4812994
451.20 0.5214435
451.30 0.5554044
451.40 0.56738
451.50 0.5444979
451.60 0.4786465
451.70 0.3808149
451.80 0.2905133
451.90 0.256899
452.00 0.2982199
452.10 0.3873459
452.20 0.480319
452.30 0.5585978
452.40 0.6369717
452.50 0.732881
452.60 0.8347827
452.70 0.9002386
452.80 0.8819215
452.90 0.7728295
453.00 0.6319041
453.10 0.5450882
453.20 0.5563044
453.30 0.6337699
453.40 0.7007561
453.50 0.6947525
453.60 0.6036999
453.70 0.4654607
453.80 0.3473744
453.90 0.3001745
454.00 0.320551
454.10 0.3653577
454.20 0.3925564
454.30 0.395767
454.40 0.4019776
454.50 0.4277511
454.60 0.4444239
454.70 0.4018259
454.80 0.2828332
454.90 0.1311335
455.00 0.02326716
455.10 0.02573551
455.20 0.1774906
455.30 0.4558531
455.40 0.7483064
455.50 0.9129002
455.60 0.8955145
455.70 0.7680993
455.80 0.6384144
455.90 0.5514275
456.00 0.4960124
456.10 0.4644582
456.20 0.4664537
456.30 0.5035151
456.40 0.558722
456.50 0.61538
456.60 0.6671071
456.70 0.7123555
456.80 0.7472401
456.90 0.7655037
457.00 0.7690952
457.10 0.7695433
457.20 0.7801876
457.30 0.8139252
457.40 0.8769688
457.50 0.9453546
457.60 0.9593395
457.70 0.8672538
457.80 0.691683
457.90 0.5299776
458.00 0.4654747
458.10 0.5077245
458.20 0.612046
458.30 0.7188225
458.40 0.773479
458.50 0.737996
458.60 0.6168277
458.70 0.4653672
458.80 0.3528856
458.90 0.3165667
459.00 0.3400081
459.10 0.361478
459.20 0.3281239
459.30 0.258017
459.40 0.2267558
459.50 0.2825852
459.60 0.3873132
459.70 0.4644638
459.80 0.4871605
459.90 0.4871843
460.00 0.4939655
460.10 0.4982223
460.20 0.476815
460.30 0.4240892
460.40 0.3500576
460.50 0.2690846
460.60 0.200551
460.70 0.1620857
460.80 0.1619414
460.90 0.2120551
461.00 0.3354263
461.10 0.5306202
461.20 0.7270715
461.30 0.823243
461.40 0.7900988
461.50 0.7013664
461.60 0.6438156
461.70 0.6263695
461.80 0.605634
461.90 0.5679183
462.00 0.5472615
462.10 0.5737824
462.20 0.6425901
462.30 0.7370145
462.40 0.842638
462.50 0.9276116
462.60 0.9374718
462.70 0.8371978
462.80 0.6447417
462.90 0.4227576
463.00 0.2507595
463.10 0.1926866
463.20 0.2606953
463.30 0.3958615
463.40 0.5107917
463.50 0.5660798
463.60 0.5907819
463.70 0.6188212
463.80 0.6368113
463.90 0.6107401
464.00 0.5381632
464.10 0.4594961
464.20 0.4206562
464.30 0.4331552
464.40 0.4735255
464.50 0.5135747
464.60 0.5485241
464.70 0.5990468
464.80 0.6800007
464.90 0.7664193
465.00 0.8057539
465.10 0.7684004
465.20 0.6767838
465.30 0.5816073
465.40 0.5213366
465.50 0.5095853
465.60 0.5501732
465.70 0.6443961
465.80 0.7755435
465.90 0.9059713
466.00 0.9909276
466.10 0.9980394
466.20 0.9328681
466.30 0.8472617
466.40 0.8066173
466.50 0.8404683
466.60 0.9217405
466.70 0.9925065
466.80 0.9991879
466.90 0.9065939
467.00 0.721415
467.10 0.5169098
467.20 0.4008231
467.30 0.4262536
467.40 0.543112
467.50 0.6505836
467.60 0.6848852
467.70 0.6448191
467.80 0.5631331
467.90 0.4810779
468.00 0.4367071
468.10 0.4478946
468.20 0.4989878
468.30 0.5621846
468.40 0.6249323
468.50 0.6902446
468.60 0.7560244
468.70 0.8041195
468.80 0.8180772
468.90 0.798797
469.00 0.7539137
469.10 0.6831331
469.20 0.5939838
469.30 0.5296488
469.40 0.5357118
469.50 0.5920874
469.60 0.6186848
469.70 0.5724619
469.80 0.5025556
469.90 0.4739175
470.00 0.473249
470.10 0.4394238
470.20 0.3692137
470.30 0.3275512
470.40 0.3598034
470.50 0.4288184
470.60 0.455795
470.70 0.4104882
470.80 0.3366623
470.90 0.307265
471.00 0.3648798
471.10 0.495829
471.20 0.6428763
471.30 0.7413127
471.40 0.7632761
471.50 0.7417153
471.60 0.7427032
471.70 0.7934186
471.80 0.8474963
471.90 0.8318308
472.00 0.726008
472.10 0.5885032
472.20 0.5109601
472.30 0.5511872
472.40 0.689236
472.50 0.8432262
472.60 0.9371058
472.70 0.9641557
472.80 0.9780653
472.90 1.015842
473.00 1.047284
473.10 1.016449
473.20 0.911751
473.30 0.7731677
473.40 0.6442339
473.50 0.5394071
473.60 0.4625788
473.70 0.4356515
473.80 0.4880004
473.90 0.6180037
474.00 0.7716506
474.10 0.8693712
474.20 0.8636426
474.30 0.7764632
474.40 0.6791867
474.50 0.6312859
474.60 0.6371206
474.70 0.6572669
474.80 0.6522199
474.90 0.6151701
475.00 0.5727105
475.10 0.5608457
475.20 0.6065183
475.30 0.7124823
475.40 0.8436436
475.50 0.933657
475.60 0.9199693
475.70 0.7901381
475.80 0.5994352
475.90 0.4319914
476.00 0.3298921
476.10 0.2619742
476.20 0.1688864
476.30 0.03864293
476.40 9.999996e-11
476.50 9.999996e-11
476.60 9.999993e-11
476.70 0.09389678
476.80 0.2183469
476.90 0.2962221
477.00 0.3198283
477.10 0.328137
477.20 0.3716517
477.30 0.460246
477.40 0.55464
477.50 0.6108679
477.60 0.6152808
477.70 0.574033
477.80 0.4891403
477.90 0.3705273
478.00 0.26156
478.10 0.218638
478.20 0.2554831
478.30 0.3189253
478.40 0.3397431
478.50 0.3118271
478.60 0.2975912
478.70 0.3424691
478.80 0.4111163
478.90 0.4227354
479.00 0.3473945
479.10 0.2500769
479.20 0.2270368
479.30 0.3143431
479.40 0.4654928
479.50 0.6014111
479.60 0.6727724
479.70 0.6844323
479.80 0.6756729
479.90 0.6798792
480.00 0.6931305
480.10 0.6822285
480.20 0.6246462
480.30 0.5297629
480.40 0.4212986
480.50 0.319374
480.60 0.2454471
480.70 0.2323112
480.80 0.3060895
480.90 0.4561485
481.00 0.6326399
481.10 0.77483
481.20 0.8517054
481.30 0.8775269
481.40 0.8814817
481.50 0.8620683
481.60 0.7891436
481.70 0.6538521
481.80 0.5019826
481.90 0.4043998
482.00 0.3910489
482.10 0.4314642
482.20 0.4758159
482.30 0.497904
482.40 0.5011178
482.50 0.5026893
482.60 0.5255669
482.70 0.583646
482.80 0.65593
482.90 0.6881307
483.00 0.6487224
483.10 0.5674858
483.20 0.4934045
483.30 0.4382248
483.40 0.3908151
483.50 0.37196
483.60 0.4234836
483.70 0.544577
483.80 0.6806413
483.90 0.7829008
484.00 0.8490679
484.10 0.9024614
484.20 0.9567958
484.30 1.003658
484.40 1.01763
484.50 0.9711295
484.60 0.8637346
484.70 0.7458182
484.80 0.6939229
484.90 0.7442999
485.00 0.8495546
485.10 0.9120962
485.20 0.8710682
485.30 0.7552382
485.40 0.6415323
485.50 0.563842
485.60 0.4929167
485.70 0.4272904
485.80 0.478848
485.90 0.8111803
486.00 1.455479
486.10 2.19253
486.20 2.659944
486.30 2.613072
486.40 2.103892
486.50 1.427561
486.60 0.8971403
486.70 0.6472709
486.80 0.6084659
486.90 0.6234904
487.00 0.578228
487.10 0.4596519
487.20 0.333988
487.30 0.2857859
487.40 0.3581619
487.50 0.5245876
487.60 0.7129989
487.70 0.8546901
487.80 0.9158811
487.90 0.895628
488.00 0.8132647
488.10 0.7062017
488.20 0.6231046
488.30 0.6024588
488.40 0.6497618
488.50 0.7348003
488.60 0.8085791
488.70 0.8307868
488.80 0.789474
488.90 0.7028527
489.00 0.6106393
489.10 0.5615051
489.20 0.5882621
489.30 0.6727549
489.40 0.7436912
489.50 0.7354248
489.60 0.6563721
489.70 0.5778245
489.80 0.5557785
489.90 0.5924235
490.00 0.6695956
490.10 0.7752848
490.20 0.8814709
490.30 0.935807
490.40 0.9122506
490.50 0.85605
490.60 0.8389404
490.70 0.8752524
490.80 0.9139569
490.90 0.9099802
491.00 0.8783301
491.10 0.8645256
491.20 0.8824645
491.30 0.908489
491.40 0.9218483
491.50 0.9229757
491.60 0.9223275
491.70 0.9299434
491.80 0.955013
491.90 1.000694
492.00 1.049782
492.10 1.074202
492.20 1.070088
492.30 1.06612
492.40 1.087486
492.50 1.117315
492.60 1.107209
492.70 1.039723
492.80 0.9633555
492.90 0.9470312
493.00 1.006829
493.10 1.094182
493.20 1.158753
493.30 1.19918
493.40 1.242388
493.50 1.298301
493.60 1.355803
493.70 1.406554
493.80 1.451252
493.90 1.485143
494.00 1.499872
494.10 1.500516
494.20 1.50309
494.30 1.517701
494.40 1.546119
494.50 1.588302
494.60 1.639258
494.70 1.683126
494.80 1.699524
494.90 1.68046
495.00 1.631822
495.10 1.567232
495.20 1.507418
495.30 1.462458
495.40 1.405629
495.50 1.285179
495.60 1.079567
495.70 0.8312944
495.80 0.6053739
495.90 0.4222069
496.00 0.260704
496.10 0.11737
496.20 0.02664239
496.30 0.02339098
496.40 0.1044806
496.50 0.2301807
496.60 0.3483704
496.70 0.4203331
496.80 0.448977
496.90 0.4785163
497.00 0.5340616
497.10 0.5676831
497.20 0.5005762
497.30 0.3249595
497.40 0.1343673
497.50 0.04199171
497.60 0.09725167
497.70 0.2822622
497.80 0.5429526
497.90 0.7921408
498.00 0.9214638
498.10 0.8731183
498.20 0.712659
498.30 0.5936854
498.40 0.6305807
498.50 0.8092896
498.60 1.013301
498.70 1.124874
498.80 1.103099
498.90 0.9903977
499.00 0.8619314
499.10 0.7648178
499.20 0.696821
499.30 0.636542
499.40 0.582397
499.50 0.5569184
499.60 0.5753228
499.70 0.6121602
499.80 0.6061199
499.90 0.5099289
500.00 1
500.10 1.164091
500.20 0.6380527
500.30 9.999993e-11
500.40 0.3300575
500.50 0.797202
500.60 0.7730041
500.70 0.866294
500.80 0.8235105
500.90 0.6411894
501.00 0.6781506
501.10 0.9039505
501.20 0.8450166
501.30 0.5363724
501.40 0.8760782
501.50 0.9416749
501.60 0.2436871
501.70 0.2625929
501.80 0.5676596
501.90 0.7784463
502.00 1.287052
502.10 0.4550054
502.20 0.4458145
502.30 0.508494
502.40 0.3202671
502.50 0.3945232
502.60 0.9140313
502.70 0.9398949
502.80 0.8565499
502.90 0.9610332
503.00 1.255128
503.10 1.304525
503.20 0.8843079
503.30 0.8508791
503.40 0.9571764
503.50 0.3460287
503.60 0.497999
503.70 1.318224
503.80 1.264365
503.90 0.8898304
504.00 1.086843
504.10 0.6075319
504.20 0.3847637
504.30 0.7752261
504.40 0.8151973
504.50 0.4803683
504.60 0.606166
504.70 0.8280009
504.80 0.6510478
504.90 0.884413
505.00 1.095821
505.10 0.8015563
505.20 0.7600585
505.30 1.071459
505.40 0.6245538
505.50 9.999986e-11
505.60 0.7053924
505.70 1.233223
505.80 0.996137
505.90 0.6971936
506.00 0.9043553
506.10 0.8524768
506.20 0.390277
506.30 1.012093
506.40 1.121579
506.50 0.7319853
506.60 0.6628068
506.70 0.6459981
506.80 0.7740611
506.90 0.9057892
507.00 1.454665
507.10 1.61197
507.20 1.112543
507.30 0.7788604
507.40 1.227963
507.50 1.714466
507.60 1.746591
507.70 1.636368
507.80 1.521094
507.90 1.661441
508.00 1.487952
508.10 1.348529
508.20 1.40546
508.30 1.263753
508.40 0.7370288
508.50 0.4019958
508.60 0.7545668
508.70 1.397323
508.80 1.549108
508.90 1.266902
509.00 1.274628
509.10 0.9479515
509.20 0.8987957
509.30 1.24539
509.40 1.273528
509.50 1.120192
509.60 1.659936
509.70 2.014336
509.80 1.588143
509.90 1.57838
510.00 1.089971
510.10 0.4300659
510.20 0.4107571
510.30 0.588115
510.40 0.5613274
510.50 1.05852
510.60 0.9812444
510.70 0.5067664
510.80 0.8118813
510.90 1.336424
511.00 1.410779
511.10 1.22788
511.20 1.468201
511.30 1.740159
511.40 1.353146
511.50 1.210972
511.60 1.716756
511.70 1.980994
511.80 1.078916
511.90 1.01866
512.00 1.365971
512.10 1.527426
512.20 1.530445
512.30 1.752345
512.40 1.65641
512.50 1.311988
512.60 1.020814
512.70 1.204464
512.80 1.256058
512.90 0.5721685
513.00 0.7745988
513.10 1.541299
513.20 1.328277
513.30 1.378305
513.40 1.666392
513.50 1.353016
513.60 1.53611
513.70 1.315795
513.80 1.162558
513.90 1.237766
514.00 1.503562
514.10 0.8595136
514.20 0.7294574
514.30 1.085381
514.40 1.392184
514.50 1.705776
514.60 1.42569
514.70 1.054889
514.80 0.9003718
514.90 0.8620663
515.00 0.5871229
515.10 0.7048825
515.20 1.200845
515.30 1.425764
515.40 1.218976
515.50 1.129166
515.60 0.9565336
515.70 1.504455
515.80 1.81364
515.90 1.907164
516.00 1.706897
516.10 1.529351
516.20 1.795054
516.30 1.930287
516.40 2.163343
516.50 1.934548
516.60 1.467076
516.70 1.109236
516.80 0.9490795
516.90 0.2728765
517.00 0.0637722
517.10 9.999995e-11
517.20 0.1783827
517.30 0.514511
517.40 0.5486846
517.50 0.5401334
517.60 0.8668966
517.70 0.7341455
517.80 0.580219
517.90 0.6223287
518.00 0.608354
518.10 0.3612334
518.20 0.3099545
518.30 9.999996e-11
518.40 0.1255659
518.50 0.4613716
518.60 1.074519
518.70 1.073004
518.80 1.085913
518.90 0.9164573
519.00 0.8035991
519.10 0.8462836
519.20 0.9278578
519.30 0.6066728
519.40 0.6956082
519.50 0.823631
519.60 0.988173
519.70 0.9375338
519.80 0.4830909
519.90 0.2653106
520.00 0.1416258
520.10 0.008289465
520.20 0.2152459
520.30 1.042873
520.40 1.380895
520.50 1.084377
520.60 0.7671324
520.70 0.8107595
520.80 1.176826
520.90 1.1111
521.00 0.6351879
521.10 0.5251821
521.20 0.9460911
521.30 1.180037
521.40 1.438598
521.50 1.065244
521.60 0.8260786
521.70 1.177074
521.80 1.233164
521.90 1.101804
522.00 1.397988
522.10 1.296517
522.20 0.9951048
522.30 0.7031983
522.40 0.8472509
522.50 1.737495
522.60 1.945093
522.70 1.943579
522.80 1.60268
522.90 0.9957167
523.00 1.069713
523.10 1.304769
523.20 1.582898
523.30 1.474456
523.40 1.245306
523.50 1.031497
523.60 1.382588
523.70 1.281276
523.80 1.388027
523.90 1.627987
524.00 1.609859
524.10 1.237077
524.20 1.464589
524.30 1.225698
524.40 0.8945
524.50 0.6878204
524.60 0.8534904
524.70 1.040435
524.80 0.9990791
524.90 1.019411
525.00 1.290643
525.10 0.926121
525.20 0.8208991
525.30 1.355615
525.40 2.040778
525.50 1.548076
525.60 0.991078
525.70 1.230479
525.80 1.759023
525.90 1.693624
526.00 1.372368
526.10 1.090437
526.20 1.266145
526.30 1.511016
526.40 1.287673
526.50 1.182676
526.60 1.207115
526.70 1.230043
526.80 1.393284
526.90 1.034909
527.00 1.379303
527.10 1.665786
527.20 1.24886
527.30 1.106115
527.40 1.178532
527.50 1.414818
527.60 1.803197
527.70 1.544312
527.80 1.42022
527.90 1.446049
528.00 1.549547
528.10 1.142526
528.20 0.8193416
528.30 1.65268
528.40 1.997015
528.50 1.354598
528.60 1.037925
528.70 1.448917
528.80 1.800088
528.90 1.74596
529.00 1.592089
529.10 1.465837
529.20 1.535955
529.30 1.576646
529.40 1.615823
529.50 1.638074
529.60 1.674689
529.70 1.940074
529.80 1.978003
529.90 1.489633
530.00 1.337203
530.10 1.734102
530.20 2.129775
530.30 1.864588
530.40 1.848271
530.50 2.098364
530.60 1.923287
530.70 1.824255
530.80 1.564167
530.90 1.498459
531.00 1.521307
531.10 1.234249
531.20 1.193885
531.30 1.460256
531.40 1.163516
531.50 0.9791213
531.60 1.291313
531.70 1.471069
531.80 1.483069
531.90 1.197198
532.00 1.199794
532.10 1.957906
532.20 1.828746
532.30 1.431484
532.40 1.345432
532.50 1.618864
532.60 1.716385
532.70 1.315687
532.80 1.137996
532.90 1.740623
533.00 1.438184
533.10 1.141389
533.20 1.328296
533.30 2.176564
533.40 1.9043
533.50 1.154532
533.60 1.179855
533.70 0.9348143
533.80 1.196033
533.90 1.512045
534.00 1.933767
534.10 1.746093
534.20 1.295383
534.30 1.38977
534.40 1.712652
534.50 1.925389
534.60 2.154878
534.70 1.887417
534.80 1.224079
534.90 1.1739
535.00 1.452131
535.10 2.122095
535.20 2.284122
535.30 2.320573
535.40 2.399474
535.50 2.291749
535.60 1.931792
535.70 1.919696
535.80 1.557863
535.90 1.501111
536.00 1.57872
536.10 1.947698
536.20 1.844853
536.30 1.607093
536.40 1.270917
536.50 1.600826
536.60 1.285982
536.70 1.017223
536.80 0.9838867
536.90 1.225321
537.00 1.190443
537.10 1.245084
537.20 1.52093
537.30 1.79048
537.40 1.439853
537.50 1.251472
537.60 1.320891
537.70 1.576127
537.80 1.807827
537.90 2.376067
538.00 2.529592
538.10 1.968221
538.20 1.563892
538.30 1.761208
538.40 2.292837
538.50 2.142535
538.60 1.835609
538.70 1.394678
538.80 1.79138
538.90 1.704169
539.00 1.812821
539.10 2.089204
539.20 1.821647
539.30 1.278272
539.40 1.752818
539.50 2.040055
539.60 2.031939
539.70 1.929057
539.80 2.373135
539.90 2.533393
540.00 2.095255
540.10 2.367767
540.20 2.832003
540.30 2.725004
540.40 2.387975
540.50 2.075427
540.60 1.851562
540.70 2.353257
540.80 2.478703
540.90 1.575293
541.00 1.351205
541.10 1.247167
541.20 1.756273
541.30 2.134163
541.40 1.88224
541.50 1.698977
541.60 1.715625
541.70 1.939781
541.80 2.327264
541.90 2.36424
542.00 1.784228
542.10 1.939747
542.20 2.218565
542.30 2.507752
542.40 2.615978
542.50 2.634647
542.60 2.632029
542.70 2.189587
542.80 1.821897
542.90 2.000464
543.00 1.850236
543.10 1.712948
543.20 1.774639
543.30 1.647111
543.40 1.652791
543.50 1.944589
543.60 2.059771
543.70 1.90476
543.80 1.851043
543.90 2.494275
544.00 2.577623
544.10 2.425909
544.20 2.890668
544.30 2.878436
544.40 2.339879
544.50 2.36861
544.60 2.827921
544.70 2.874419
544.80 2.428097
544.90 2.028296
545.00 1.401931
545.10 0.3109249
545.20 0.1201562
545.30 0.3309537
545.40 0.3938619
545.50 0.6025904
545.60 0.5442437
545.70 0.5235473
545.80 0.7716289
545.90 0.912449
546.00 1.083277
546.10 1.742517
546.20 1.850959
546.30 1.847789
546.40 1.63592
546.50 0.9550224
546.60 0.7916052
546.70 0.9031531
546.80 1.437946
546.90 1.568092
547.00 1.297126
547.10 0.8276207
547.20 0.7399276
547.30 0.498101
547.40 0.3520457
547.50 0.7691226
547.60 1.426141
547.70 1.276272
547.80 1.182797
547.90 1.275741
548.00 1.385867
548.10 1.174388
548.20 0.9722111
548.30 0.7780044
548.40 0.9540118
548.50 1.210728
548.60 1.140644
548.70 1.074738
548.80 1.111356
548.90 0.9579397
549.00 0.9330002
549.10 0.6924838
549.20 1.044338
549.30 1.107873
549.40 1.089881
549.50 1.355371
549.60 1.453636
549.70 0.9089013
549.80 0.8914405
549.90 1.352398
550.00 0.9485233
550.10 0.5546707
550.20 0.5678759
550.30 0.8728487
550.40 0.6669695
550.50 0.4928133
550.60 0.729479
550.70 0.5808525
550.80 0.4049008
550.90 0.474376
551.00 0.3840777
551.10 0.2768965
551.20 9.999994e-11
551.30 9.999997e-11
551.40 0.1856343
551.50 0.6628037
551.60 1.052203
551.70 1.051984
551.80 0.4238665
551.90 9.999993e-11
552.00 0.406755
552.10 0.4229394
552.20 0.0004479902
552.30 0.1498144
552.40 0.363406
552.50 0.4412222
552.60 0.8795394
552.70 0.5905224
552.80 0.4148302
552.90 0.4467818
553.00 0.1539738
553.10 0.3159313
553.20 0.5013211
553.30 0.5792053
553.40 0.5611883
553.50 0.6754156
553.60 0.2678049
553.70 0.3376568
553.80 0.3278819
553.90 0.2713066
554.00 0.6559523
554.10 0.6188953
554.20 0.3643424
554.30 0.2833647
554.40 0.664936
554.50 0.7359596
554.60 0.1718437
554.70 9.999987e-11
554.80 9.999984e-11
554.90 0.2817772
555.00 0.4735786
555.10 0.4728308
555.20 0.006226563
555.30 0.3840437
555.40 0.7413492
555.50 0.5259331
555.60 0.4774973
555.70 0.5971605
555.80 0.793923
555.90 0.3946994
556.00 0.4886814
556.10 0.9508101
556.20 0.7743794
556.30 0.5450132
556.40 0.7757639
556.50 1.135693
556.60 1.107657
556.70 0.7015233
556.80 0.5727217
556.90 0.6302741
557.00 0.8405757
557.10 1.013283
557.20 1.020962
557.30 1.014886
557.40 1.014886
557.50 1.014886
557.60 1.014886
557.70 1.014886
557.80 1.014886
557.90 1.014886
558.00 1.014886
558.10 1.014886
558.20 1.014886
558.30 1.016636
558.40 0.9854071
558.50 1.051433
558.60 1.420856
558.70 1.514149
558.80 1.31739
558.90 1.119484
559.00 1.12178
559.10 1.109861
559.20 1.176706
559.30 1.341347
559.40 1.294147
559.50 1.358069
559.60 1.553883
559.70 1.025601
559.80 0.6866955
559.90 0.7703773
560.00 0.9886119
560.10 0.9578037
560.20 1.3092
560.30 1.49578
560.40 1.443395
560.50 1.288764
560.60 1.248255
560.70 0.7711654
560.80 0.6723994
560.90 0.9371444
561.00 1.46071
561.10 1.771907
561.20 1.265079
561.30 0.898703
561.40 1.227716
561.50 1.413381
561.60 1.187717
561.70 1.417967
561.80 1.321896
561.90 0.8682471
562.00 0.6430777
562.10 0.8569022
562.20 1.208719
562.30 1.078258
562.40 1.137495
562.50 1.004221
562.60 0.8879453
562.70 0.8196722
562.80 0.8123202
562.90 0.9667164
563.00 1.56079
563.10 1.179747
563.20 0.5145511
563.30 0.4383172
563.40 1.053353
563.50 1.455617
563.60 1.279403
563.70 0.7522923
563.80 0.4766443
563.90 1.026503
564.00 1.183718
564.10 0.7590726
564.20 0.4775745
564.30 0.7498076
564.40 1.130143
564.50 0.946122
564.60 1.004756
564.70 0.8479216
564.80 1.193935
564.90 1.450954
565.00 1.385954
565.10 1.110982
565.20 1.25798
565.30 1.760024
565.40 1.744789
565.50 1.457311
565.60 0.987626
565.70 1.177043
565.80 1.347407
565.90 1.613487
566.00 1.567184
566.10 1.216918
566.20 1.130922
566.30 1.382291
566.40 1.686068
566.50 1.234944
566.60 1.19468
566.70 1.452481
566.80 1.577227
566.90 1.363783
567.00 1.350031
567.10 1.418344
567.20 1.490588
567.30 1.63461
567.40 1.229709
567.50 1.164622
567.60 1.038061
567.70 1.356159
567.80 1.350454
567.90 1.371917
568.00 1.453803
568.10 1.132869
568.20 1.011734
568.30 1.57321
568.40 2.230473
568.50 1.967335
568.60 1.149013
568.70 1.131756
568.80 1.538152
568.90 2.128224
569.00 2.359608
569.10 1.50096
569.20 1.616074
569.30 1.842291
569.40 1.901688
569.50 1.547198
569.60 1.141395
569.70 1.093784
569.80 1.281405
569.90 1.683142
570.00 1.879991
570.10 1.782863
570.20 1.586183
570.30 1.168754
570.40 1.322637
570.50 1.839568
570.60 2.293393
570.70 2.074043
570.80 2.01989
570.90 1.91583
571.00 1.785737
571.10 1.841762
571.20 1.849445
571.30 1.947466
571.40 1.60162
571.50 1.185832
571.60 1.18623
571.70 1.516554
571.80 2.147486
571.90 1.999944
572.00 1.489021
572.10 1.063845
572.20 1.316994
572.30 1.521121
572.40 1.797054
572.50 1.957668
572.60 1.990574
572.70 2.017473
572.80 1.815052
572.90 1.597068
573.00 1.733453
573.10 1.80181
573.20 1.632734
573.30 1.761057
573.40 2.164366
573.50 2.157051
573.60 2.028024
573.70 1.85536
573.80 1.816029
573.90 1.622502
574.00 1.257001
574.10 1.34325
574.20 1.609293
574.30 1.836481
574.40 2.098958
574.50 2.169443
574.60 1.93237
574.70 1.594089
574.80 2.21842
574.90 1.63541
575.00 1.05398
575.10 1.495357
575.20 2.200969
575.30 1.89738
575.40 1.392035
575.50 1.875951
575.60 2.024383
575.70 1.872793
575.80 2.053501
575.90 2.158349
576.00 1.854445
576.10 1.164153
576.20 1.171801
576.30 1.416756
576.40 1.790684
576.50 1.86066
576.60 1.738259
576.70 1.75011
576.80 1.806696
576.90 1.271807
577.00 1.009556
577.10 1.380153
577.20 1.25909
577.30 0.796247
577.40 0.9327808
577.50 1.564424
577.60 2.006258
577.70 1.855666
577.80 1.436893
577.90 1.270651
578.00 1.79218
578.10 2.295553
578.20 2.229984
578.30 1.586987
578.40 0.9373731
578.50 1.33796
578.60 2.1005
578.70 2.483181
578.80 2.056072
578.90 2.000847
579.00 2.281872
579.10 2.503271
579.20 2.559553
579.30 2.13789
579.40 1.936446
579.50 2.127485
579.60 2.332144
579.70 2.599305
579.80 2.441763
579.90 1.979118
580.00 2.297343
580.10 2.637969
580.20 2.440715
580.30 2.224697
580.40 2.042533
580.50 2.398887
580.60 2.651372
580.70 2.58584
580.80 2.80138
580.90 2.928643
581.00 2.429306
581.10 2.229876
581.20 2.160231
581.30 1.735496
581.40 1.649385
581.50 1.598258
581.60 1.765247
581.70 1.861751
581.80 2.338615
581.90 2.271686
582.00 1.435873
582.10 1.507697
582.20 1.797941
582.30 1.87555
582.40 1.692771
582.50 1.245412
582.60 1.410785
582.70 1.812076
582.80 2.099585
582.90 1.615613
583.00 1.681884
583.10 2.191496
583.20 2.22614
583.30 1.814712
583.40 2.358189
583.50 2.336458
583.60 1.20799
583.70 1.128848
583.80 1.296347
583.90 1.187655
584.00 1.163269
584.10 1.663014
584.20 2.122908
584.30 2.14112
584.40 2.293767
584.50 2.235837
584.60 1.584372
584.70 1.257368
584.80 1.229669
584.90 1.784055
585.00 1.984567
585.10 1.736973
585.20 1.068072
585.30 1.091525
585.40 1.494114
585.50 1.657167
585.60 1.885915
585.70 1.566321
585.80 1.320935
585.90 1.44401
586.00 1.509022
586.10 0.7477092
586.20 0.343408
586.30 0.6029983
586.40 1.103086
586.50 1.166872
586.60 1.190594
586.70 1.036745
586.80 0.9556528
586.90 1.393488
587.00 1.44935
587.10 1.108624
587.20 0.8308162
587.30 0.8173019
587.40 1.128659
587.50 1.115797
587.60 1.002139
587.70 0.9518856
587.80 1.037585
587.90 0.9026123
588.00 0.9158238
588.10 0.587979
588.20 0.6081562
588.30 0.861269
588.40 1.020109
588.50 0.8354827
588.60 0.3684279
588.70 0.4653706
588.80 1.127287
588.90 2.127266
589.00 2.298189
589.10 0.822571
589.20 1.020344
589.30 2.529864
589.40 2.411415
589.50 1.386383
589.60 0.5757472
589.70 0.5383256
589.80 0.7493935
589.90 0.9526582
590.00 1.098182
590.10 0.6279162
590.20 0.8403161
590.30 0.7811319
590.40 0.4236069
590.50 0.451949
590.60 0.7510067
590.70 1.244886
590.80 1.172079
590.90 0.9138274
591.00 0.6675073
591.10 0.9104496
591.20 1.169938
591.30 0.8897624
591.40 0.7835795
591.50 0.8266411
591.60 1.146448
591.70 0.9616822
591.80 0.6177828
591.90 0.9077578
592.00 0.9963657
592.10 0.9019819
592.20 0.6850823
592.30 1.225809
592.40 1.349329
592.50 0.3850604
592.60 0.6690555
592.70 1.308644
592.80 1.148939
592.90 0.7215119
593.00 0.7420322
593.10 1.098312
593.20 1.167771
593.30 1.032282
593.40 0.8235198
593.50 0.5162169
593.60 0.5309086
593.70 0.9906825
593.80 0.9806634
593.90 0.8029841
594.00 0.8273642
594.10 0.9106134
594.20 0.6717627
594.30 0.9829317
594.40 1.157406
594.50 1.102471
594.60 0.9949472
594.70 1.336078
594.80 1.569588
594.90 1.594945
595.00 1.774648
595.10 1.324934
595.20 0.8407086
595.30 0.4785975
595.40 0.519539
595.50 0.467197
595.60 0.8698912
595.70 1.890269
595.80 2.005124
595.90 1.42636
596.00 0.9851754
596.10 1.031646
596.20 0.7736686
596.30 0.4010161
596.40 0.5460763
596.50 1.331195
596.60 1.435731
596.70 1.284514
596.80 1.340821
596.90 0.9752861
597.00 0.7674291
597.10 0.5975932
597.20 0.5245949
597.30 0.3684372
597.40 0.4085103
597.50 0.8934709
597.60 1.041399
597.70 1.032669
597.80 0.6367053
597.90 0.6890628
598.00 0.890841
598.10 1.304281
598.20 1.275988
598.30 1.098689
598.40 1.020585
598.50 1.010112
598.60 1.090372
598.70 0.9514962
598.80 1.129435
598.90 1.266009
599.00 1.021336
599.10 1.116802
599.20 1.289827
599.30 1.19141
599.40 0.827936
599.50 0.6619662
599.60 0.893029
599.70 1.012223
599.80 0.9049548
599.90 1.288016
600.00 1.537225
600.10 1.494698
600.20 1.276251
600.30 1.293591
600.40 1.50363
600.50 1.299796
600.60 1.145199
600.70 1.009182
600.80 1.336204
600.90 1.485294
601.00 1.069855
601.10 0.756282
601.20 0.9386247
601.30 1.396835
601.40 1.251799
601.50 0.8370434
601.60 1.144229
601.70 1.363094
601.80 1.606639
601.90 1.621751
602.00 1.376611
602.10 0.8466885
602.20 0.8078329
602.30 0.9899346
602.40 1.180297
602.50 1.359073
602.60 1.298362
602.70 1.139491
602.80 0.8814771
602.90 0.961061
603.00 0.947454
603.10 0.6849093
603.20 0.8408816
603.30 1.042073
603.40 1.528007
603.50 1.724618
603.60 1.51732
603.70 1.4862
603.80 1.277385
603.90 1.009049
604.00 1.00819
604.10 1.072516
604.20 1.205978
604.30 1.449829
604.40 1.648236
604.50 1.579205
604.60 1.331535
604.70 1.451445
604.80 2.019649
604.90 2.016283
605.00 1.463331
605.10 1.193434
605.20 1.464953
605.30 1.453414
605.40 1.240553
605.50 1.184379
605.60 1.301274
605.70 1.67536
605.80 1.778496
605.90 1.280046
606.00 1.078885
606.10 1.160089
606.20 1.331207
606.30 1.421101
606.40 1.490437
606.50 1.491033
606.60 1.300671
606.70 1.582769
606.80 1.940995
606.90 2.086819
607.00 1.89484
607.10 1.683883
607.20 1.634026
607.30 1.336927
607.40 1.340528
607.50 1.491438
607.60 1.544355
607.70 1.52796
607.80 1.419033
607.90 1.509369
608.00 1.332709
608.10 1.372322
608.20 1.34784
608.30 1.414651
608.40 1.87232
608.50 1.803735
608.60 1.482952
608.70 1.362142
608.80 1.59993
608.90 1.574548
609.00 1.061412
609.10 1.298372
609.20 1.648594
609.30 1.721595
609.40 1.488641
609.50 1.449715
609.60 1.407457
609.70 1.406876
609.80 1.775764
609.90 1.722176
610.00 1.392694
610.10 1.615555
610.20 1.756121
610.30 1.534942
610.40 1.015056
610.50 1.230092
610.60 1.533013
610.70 1.512518
610.80 1.241657
610.90 1.430264
611.00 1.549528
611.10 1.668716
611.20 1.814153
611.30 1.6972
611.40 1.407954
611.50 1.311432
611.60 1.181178
611.70 1.210781
611.80 1.233785
611.90 1.49137
612.00 1.798141
612.10 1.717448
612.20 1.503994
612.30 1.413681
612.40 1.456937
612.50 1.456983
612.60 1.102283
612.70 1.001029
612.80 0.9688797
612.90 0.9935349
613.00 1.432727
613.10 1.57754
613.20 1.061561
613.30 1.216992
613.40 1.637598
613.50 1.633661
613.60 1.313039
613.70 1.286984
613.80 1.398361
613.90 1.078088
614.00 1.020193
614.10 1.182411
614.20 1.10754
614.30 0.8230469
614.40 1.00488
614.50 1.354583
614.60 1.49391
614.70 1.345701
614.80 1.433039
614.90 1.2297
615.00 1.185461
615.10 0.9149986
615.20 0.6221402
615.30 0.8290269
615.40 1.087903
615.50 1.058266
615.60 0.7759277
615.70 1.008369
615.80 1.479407
615.90 1.214464
616.00 1.01314
616.10 0.9928859
616.20 0.9711481
616.30 1.014859
616.40 1.104078
616.50 1.12513
616.60 0.747187
616.70 0.6128258
616.80 0.7416737
616.90 0.6941187
617.00 0.7792807
617.10 0.790536
617.20 0.9464125
617.30 1.018669
617.40 0.8191376
617.50 0.9691486
617.60 1.112132
617.70 0.8704258
617.80 0.5693161
617.90 0.8327662
618.00 0.7421713
618.10 0.3889234
618.20 0.0724182
618.30 0.2414435
618.40 1.094532
618.50 1.29666
618.60 1.097854
618.70 0.9853577
618.80 0.802023
618.90 0.5897436
619.00 0.6456983
619.10 0.8028357
619.20 0.7027594
619.30 1.084105
619.40 1.172308
619.50 1.019003
619.60 0.8788904
619.70 1.094032
619.80 0.9481091
619.90 0.6092564
620.00 0.5714701
620.10 0.7100249
620.20 0.9295698
620.30 0.8449053
620.40 0.8870491
620.50 0.8786463
620.60 0.6953394
620.70 0.6158142
620.80 0.8621868
620.90 1.187219
621.00 1.097718
621.10 1.134856
621.20 1.161149
621.30 0.8797279
621.40 0.8992191
621.50 1.040425
621.60 1.15176
621.70 0.8550017
621.80 0.5527206
621.90 0.7267996
622.00 0.9768653
622.10 1.004561
622.20 1.023478
622.30 0.8291907
622.40 0.9057336
622.50 0.8186524
622.60 0.7508151
622.70 0.5756545
622.80 0.5895551
622.90 0.9681998
623.00 0.9798352
623.10 0.993266
623.20 0.8844006
623.30 0.7872571
623.40 0.8792056
623.50 1.031442
623.60 0.7683655
623.70 0.7886848
623.80 0.5732007
623.90 9.999993e-11
624.00 0.5331924
624.10 1.37026
624.20 1.304339
624.30 0.3620277
624.40 0.2543792
624.50 0.9592717
624.60 1.141781
624.70 0.9494751
624.80 0.6698961
624.90 0.6262814
625.00 0.6928176
625.10 0.6561037
625.20 0.8336717
625.30 1.043154
625.40 1.265428
625.50 1.205209
625.60 0.9695256
625.70 0.9293813
625.80 0.9830275
625.90 1.271476
626.00 1.218309
626.10 1.162756
626.20 1.242151
626.30 0.9667999
626.40 0.6263555
626.50 0.8041646
626.60 0.9854133
626.70 0.8186833
626.80 0.5277595
626.90 0.6905956
627.00 0.9781694
627.10 1.077609
627.20 0.8491855
627.30 0.9838898
627.40 1.292339
627.50 1.285287
627.60 1.209411
627.70 1.307105
627.80 1.598533
627.90 1.432807
628.00 1.226282
628.10 1.031516
628.20 0.9751748
628.30 1.114839
628.40 1.194306
628.50 1.011484
628.60 0.9268874
628.70 0.9793314
628.80 1.383883
628.90 1.257541
629.00 1.079797
629.10 1.231115
629.20 1.439377
629.30 1.722801
629.40 1.488156
629.50 1.280509
629.60 1.379921
629.70 1.938696
629.80 2.192903
629.90 2.204223
630.00 2.09889
630.10 1.07535
630.20 0.3745438
630.30 9.999968e-11
630.40 1.636427
630.50 2.906633
630.60 2.217394
630.70 1.810651
630.80 1.572518
630.90 1.609711
631.00 1.58636
631.10 1.815664
631.20 2.164289
631.30 2.036108
631.40 1.853351
631.50 1.574836
631.60 1.448655
631.70 1.739242
631.80 1.827812
631.90 1.709694
632.00 1.67778
632.10 2.133691
632.20 2.073236
632.30 1.664843
632.40 1.733404
632.50 1.952779
632.60 1.947571
632.70 1.685719
632.80 1.633071
632.90 1.885284
633.00 2.182327
633.10 1.804789
633.20 1.404833
633.30 1.433604
633.40 1.857489
633.50 2.149551
633.60 2.103683
633.70 2.134442
633.80 2.123996
633.90 2.197708
634.00 2.13111
634.10 2.249605
634.20 2.488604
634.30 2.407902
634.40 2.073369
634.50 1.997401
634.60 2.276804
634.70 2.541172
634.80 2.623964
634.90 2.397787
635.00 2.466227
635.10 2.553635
635.20 2.29886
635.30 2.069994
635.40 2.246682
635.50 2.484284
635.60 2.345732
635.70 2.386995
635.80 2.343118
635.90 1.849748
636.00 1.715007
636.10 2.429639
636.20 3.310094
636.30 3.189012
636.40 2.186981
636.50 1.513661
636.60 1.487421
636.70 1.579592
636.80 2.0374
636.90 2.185653
637.00 2.125807
637.10 2.343479
637.20 2.582966
637.30 2.480594
637.40 2.127958
637.50 1.916226
637.60 2.144257
637.70 2.359089
637.80 2.326133
637.90 2.192424
638.00 2.150413
638.10 2.239323
638.20 1.832745
638.30 1.704076
638.40 2.045797
638.50 2.237333
638.60 2.269548
638.70 2.222842
638.80 2.205706
638.90 2.123424
639.00 2.125399
639.10 2.161115
639.20 2.22991
639.30 2.310885
639.40 2.536063
639.50 2.507459
639.60 2.290355
639.70 2.255576
639.80 2.435666
639.90 2.563101
640.00 2.6545
640.10 2.764156
640.20 2.5694
640.30 2.37841
640.40 2.546407
640.50 2.942627
640.60 3.150382
640.70 2.932401
640.80 2.666821
640.90 2.478196
641.00 2.399579
641.10 2.45486
641.20 2.447292
641.30 2.584187
641.40 2.722977
641.50 2.656403
641.60 2.451173
641.70 2.363106
641.80 2.548613
641.90 2.65734
642.00 2.627378
642.10 2.56435
642.20 2.441918
642.30 2.324479
642.40 2.329631
642.50 2.200786
642.60 2.067602
642.70 2.122457
642.80 2.408464
642.90 2.738277
643.00 2.636662
643.10 2.496191
643.20 2.500502
643.30 2.484525
643.40 2.450391
643.50 2.24442
643.60 2.17669
643.70 2.336757
643.80 2.567119
643.90 2.77123
644.00 2.617653
644.10 2.353631
644.20 2.278856
644.30 2.553193
644.40 2.675125
644.50 2.525228
644.60 2.497718
644.70 2.61256
644.80 2.745617
644.90 2.566516
645.00 2.400012
645.10 2.483678
645.20 2.640012
645.30 2.83692
645.40 2.774225
645.50 2.80036
645.60 2.67883
645.70 2.567752
645.80 2.531854
645.90 2.535217
646.00 2.702593
646.10 2.919455
646.20 2.85214
646.30 2.616713
646.40 2.754233
646.50 2.868655
646.60 2.685466
646.70 2.329118
646.80 2.495931
646.90 2.967035
647.00 3.202331
647.10 2.823124
647.20 2.648977
647.30 3.255517
647.40 3.813025
647.50 3.611933
647.60 2.905134
647.70 2.69783
647.80 2.798948
647.90 2.879802
648.00 2.670965
648.10 2.563704
648.20 2.6291
648.30 2.666759
648.40 2.662247
648.50 2.575123
648.60 2.421057
648.70 2.642914
648.80 2.863429
648.90 2.853657
649.00 2.838721
649.10 2.734692
649.20 2.769191
649.30 2.936075
649.40 2.969556
649.50 3.056492
649.60 3.320601
649.70 3.453797
649.80 3.15854
649.90 2.937902
650.00 3.349187
650.10 3.17495
650.20 3.105107
650.30 3.464984
650.40 3.862131
650.50 3.858237
650.60 3.546076
650.70 3.690676
650.80 3.913154
650.90 3.961673
651.00 3.974004
651.10 4.095363
651.20 4.179268
651.30 4.213139
651.40 4.043847
651.50 3.966061
651.60 4.05902
651.70 4.212304
651.80 4.186747
651.90 4.31849
652.00 4.51915
652.10 4.445104
652.20 4.60769
652.30 4.80053
652.40 4.75266
652.50 4.474493
652.60 4.509291
652.70 5.153577
652.80 5.588365
652.90 5.594731
653.00 5.614665
653.10 5.891502
653.20 5.96184
653.30 5.578229
653.40 5.197801
653.50 5.144801
653.60 5.54921
653.70 5.923673
653.80 6.134408
653.90 6.344493
654.00 6.39156
654.10 6.253481
654.20 6.300238
654.30 6.467738
654.40 6.337756
654.50 6.010081
654.60 5.667139
654.70 5.498435
654.80 5.523652
654.90 5.498744
655.00 5.260381
655.10 5.037626
655.20 5.13451
655.30 5.154659
655.40 4.932954
655.50 4.678336
655.60 4.824048
655.70 5.011635
655.80 5.13624
655.90 5.457641
656.00 5.799007
656.10 6.292914
656.20 8.77234
656.30 12.4492
656.40 14.47511
656.50 13.62596
656.60 10.70841
656.70 7.751118
656.80 5.623565
656.90 4.567638
657.00 4.261101
657.10 4.079633
657.20 4.234555
657.30 4.38036
657.40 4.352454
657.50 4.139062
657.60 4.08943
657.70 4.229487
657.80 4.232855
657.90 4.067766
658.00 3.682703
658.10 3.405092
658.20 3.421379
658.30 3.73935
658.40 3.868343
658.50 3.856599
658.60 3.938897
658.70 4.206247
658.80 4.35576
658.90 4.069157
659.00 3.936888
659.10 4.046442
659.20 4.123053
659.30 4.26447
659.40 4.217311
659.50 4.000797
659.60 3.865345
659.70 3.937846
659.80 4.167308
659.90 4.032536
660.00 3.850882
660.10 3.877645
660.20 4.045639
660.30 4.145459
660.40 4.097929
660.50 4.038315
660.60 4.018536
660.70 3.97045
660.80 3.835616
660.90 3.776589
661.00 3.87783
661.10 3.905335
661.20 3.88123
661.30 3.980401
661.40 4.128276
661.50 4.25353
661.60 3.907591
661.70 3.735456
661.80 3.981111
661.90 4.069157
662.00 3.926041
662.10 3.659741
662.20 3.588106
662.30 3.624078
662.40 3.676491
662.50 3.605474
662.60 3.204526
662.70 2.925834
662.80 3.104242
662.90 3.240405
663.00 3.238489
663.10 3.353545
663.20 3.502749
663.30 3.578804
663.40 3.712247
663.50 3.791979
663.60 3.662492
663.70 3.317789
663.80 3.044879
663.90 3.131963
664.00 3.28911
664.10 3.462234
664.20 3.523053
664.30 3.551299
664.40 3.437356
664.50 3.445731
664.60 3.370789
664.70 3.301162
664.80 3.418721
664.90 3.58347
665.00 3.684619
665.10 3.465077
665.20 2.944611
665.30 2.536756
665.40 2.422627
665.50 2.661614
665.60 2.932941
665.70 2.872135
665.80 2.732705
665.90 2.650794
666.00 2.81266
666.10 2.750008
666.20 2.758733
666.30 2.986096
666.40 3.059271
666.50 3.118674
666.60 3.142594
666.70 3.123341
666.80 3.020233
666.90 3.158108
667.00 3.490109
667.10 3.509486
667.20 3.470547
667.30 3.192813
667.40 2.983058
667.50 3.080743
667.60 3.225818
667.70 3.401693
667.80 3.593019
667.90 3.762435
668.00 3.668085
668.10 3.433555
668.20 3.06759
668.30 2.620666
668.40 2.404861
668.50 2.36971
668.60 2.573488
668.70 2.585973
668.80 2.416446
668.90 2.515395
669.00 2.760649
669.10 2.758581
669.20 2.64924
669.30 2.561618
669.40 2.30802
669.50 2.285352
669.60 2.648257
669.70 2.962943
669.80 2.992691
669.90 2.782829
670.00 2.835708
670.10 3.015798
670.20 3.238984
670.30 3.326874
670.40 3.174858
670.50 3.083373
670.60 3.119447
670.70 3.19785
670.80 3.195223
670.90 2.951014
671.00 2.856204
671.10 3.094446
671.20 3.335466
671.30 3.31476
671.40 3.068023
671.50 2.819209
671.60 2.686343
671.70 2.523396
671.80 2.381
671.90 2.408368
672.00 2.471462
672.10 2.593625
672.20 2.67154
672.30 2.632036
672.40 2.554902
672.50 2.584753
672.60 2.601277
672.70 2.650439
672.80 2.983077
672.90 3.220905
673.00 2.976902
673.10 2.67935
673.20 2.757926
673.30 3.127946
673.40 3.395049
673.50 3.237438
673.60 2.893805
673.70 2.562224
673.80 2.57703
673.90 2.964705
674.00 3.079377
674.10 2.97841
674.20 2.919668
674.30 3.008326
674.40 3.152051
674.50 3.263336
674.60 3.289233
674.70 3.147755
674.80 2.903818
674.90 2.719135
675.00 2.726719
675.10 2.893072
675.20 2.964074
675.30 2.915215
675.40 2.958709
675.50 3.226869
675.60 3.222666
675.70 3.152792
675.80 3.163763
675.90 2.958793
676.00 2.872679
676.10 3.03914
676.20 3.242877
676.30 3.384881
676.40 3.259813
676.50 3.312689
676.60 3.59407
676.70 3.574075
676.80 3.517614
676.90 3.576702
677.00 3.63066
677.10 3.772602
677.20 3.87372
677.30 3.821616
677.40 3.767472
677.50 3.785675
677.60 3.769172
677.70 3.847297
677.80 3.749548
677.90 3.802425
678.00 3.949342
678.10 3.882775
678.20 3.540174
678.30 2.90697
678.40 2.65322
678.50 2.765646
678.60 2.840919
678.70 2.84535
678.80 2.896197
678.90 3.114966
679.00 3.270846
679.10 3.351721
679.20 3.304315
679.30 3.041764
679.40 2.90468
679.50 3.010625
679.60 3.149424
679.70 3.182893
679.80 3.213642
679.90 3.292107
680.00 3.309383
680.10 3.251407
680.20 3.121703
680.30 3.102233
680.40 3.185736
680.50 3.302151
680.60 3.428456
680.70 3.573643
680.80 3.488162
680.90 3.215435
681.00 3.363836
681.10 3.585757
681.20 3.629455
681.30 3.639777
681.40 3.514029
681.50 3.346653
681.60 3.186292
681.70 3.207122
681.80 3.303727
681.90 3.363341
682.00 3.455868
682.10 3.332561
682.20 3.182306
682.30 3.332097
682.40 3.389795
682.50 3.318778
682.60 3.361363
682.70 3.630166
682.80 3.919582
682.90 3.839077
683.00 3.343439
683.10 2.988269
683.20 3.187405
683.30 3.505345
683.40 3.597408
683.50 3.618083
683.60 3.849182
683.70 3.931758
683.80 3.839386
683.90 3.92088
684.00 3.880025
684.10 3.815126
684.20 4.065108
684.30 4.228065
684.40 4.119221
684.50 3.973725
684.60 3.792505
684.70 3.786077
684.80 3.91065
684.90 3.82585
685.00 3.578247
685.10 3.402496
685.20 3.352865
685.30 3.230794
685.40 3.117036
685.50 3.149455
685.60 3.395945
685.70 3.580163
685.80 3.55303
685.90 3.430774
686.00 3.323629
686.10 3.50346
686.20 3.800478
686.30 3.980308
686.40 4.194503
686.50 4.228003
686.60 3.970048
686.70 3.646761
686.80 3.381111
686.90 3.669507
687.00 3.565113
687.10 3.235028
687.20 3.378917
687.30 3.796986
687.40 4.214189
687.50 4.393618
687.60 4.48738
687.70 4.399953
687.80 4.236996
687.90 4.129821
688.00 3.828879
688.10 3.820936
688.20 4.128214
688.30 4.1602
688.40 4.057043
688.50 3.901317
688.60 3.995266
688.70 4.30446
688.80 4.316976
688.90 4.195616
689.00 3.956048
689.10 3.619968
689.20 3.690954
689.30 4.101668
689.40 4.376528
689.50 4.260174
689.60 4.041807
689.70 4.128709
689.80 4.182791
689.90 4.198026
690.00 4.165794
690.10 3.998696
690.20 3.680818
690.30 3.583656
690.40 3.906602
690.50 4.167802
690.60 4.153401
690.70 4.313329
690.80 4.829889
690.90 5.007927
691.00 4.71607
691.10 4.508611
691.20 4.461359
691.30 4.770893
691.40 4.744996
691.50 4.652346
691.60 4.810049
691.70 4.755287
691.80 4.490069
691.90 3.976136
692.00 3.596697
692.10 3.60399
692.20 3.873535
692.30 4.38753
692.40 4.884744
692.50 4.774355
692.60 4.389291
692.70 4.638161
692.80 5.003693
692.90 5.113402
693.00 4.963178
693.10 4.882889
693.20 5.181205
693.30 5.453377
693.40 5.677523
693.50 5.74443
693.60 5.713897
693.70 5.77963
693.80 5.698909
693.90 5.516143
694.00 5.389993
694.10 5.465584
694.20 5.743905
694.30 6.040707
694.40 6.484766
694.50 6.927558
694.60 7.164004
694.70 7.501136
694.80 7.660693
694.90 7.44999
695.00 7.347079
695.10 7.250195
695.20 7.295161
695.30 7.186379
695.40 6.819301
695.50 6.547748
695.60 6.536159
695.70 6.802675
695.80 6.674485
695.90 6.383092
696.00 6.273537
696.10 6.406764
696.20 6.670901
696.30 6.760522
696.40 6.887815
696.50 7.110479
696.60 7.172256
696.70 7.125498
696.80 7.193147
696.90 7.279554
697.00 7.210886
697.10 7.043077
697.20 6.782278
697.30 6.752827
697.40 6.822206
697.50 6.779528
697.60 6.960502
697.70 7.455491
697.80 8.022857
697.90 8.264958
698.00 7.974615
698.10 7.591715
698.20 7.592457
698.30 7.904958
698.40 7.980827
698.50 7.759462
698.60 7.743207
698.70 8.003603
698.80 8.102805
698.90 7.931474
699.00 7.612575
699.10 7.555279
699.20 7.597371
699.30 7.450082
699.40 7.661435
699.50 8.002954
699.60 8.147801
699.70 8.136336
699.80 7.9006
699.90 7.602563
700.00 7.459786
700.10 7.644592
700.20 7.968342
700.30 8.166807
700.40 7.99597
700.50 7.627595
700.60 7.557937
700.70 7.89989
700.80 8.317155
700.90 8.508574
701.00 8.684078
701.10 8.816965
701.20 8.91422
701.30 8.851917
701.40 8.482182
701.50 8.512654
701.60 9.028904
701.70 9.355992
701.80 9.35525
701.90 9.268781
702.00 9.517156
702.10 9.95281
702.20 9.854442
702.30 9.463754
702.40 9.249682
702.50 9.019788
702.60 9.09062
702.70 9.248941
702.80 9.878207
702.90 10.74797
703.00 11.0071
703.10 11.08198
703.20 11.06229
703.30 10.93994
703.40 10.9834
703.50 11.21283
703.60 11.66424
703.70 12.14514
703.80 12.41385
703.90 12.49658
704.00 12.38078
704.10 12.39691
704.20 12.44114
704.30 12.52949
704.40 12.75144
704.50 12.97105
704.60 13.19291
704.70 13.25388
704.80 13.16064
704.90 13.06648
705.00 13.14738
705.10 13.62306
705.20 13.86164
705.30 13.26862
705.40 11.85127
705.50 9.688704
705.60 7.285271
705.70 5.36734
705.80 4.360983
705.90 4.250131
706.00 4.431537
706.10 4.269971
706.20 4.062976
706.30 3.956697
706.40 3.923414
706.50 3.982626
706.60 4.209894
706.70 4.545727
706.80 4.826521
706.90 4.828622
707.00 4.810667
707.10 4.928875
707.20 5.090904
707.30 5.272341
707.40 5.237605
707.50 5.131388
707.60 5.059506
707.70 4.975632
707.80 5.051872
707.90 5.28393
708.00 5.327227
708.10 5.115164
708.20 5.258713
708.30 5.686578
708.40 5.93517
708.50 5.933872
708.60 5.793506
708.70 5.551126
708.80 5.184172
708.90 4.70343
709.00 4.028951
709.10 3.504943
709.20 3.411026
709.30 3.452684
709.40 3.410501
709.50 3.36912
709.60 3.362847
709.70 3.41835
709.80 3.544747
709.90 3.66997
710.00 3.665427
710.10 3.608348
710.20 3.652108
710.30 3.690181
710.40 3.819515
710.50 3.992639
710.60 4.092211
710.70 4.069435
710.80 4.04771
710.90 4.217805
711.00 4.487504
711.10 4.708158
711.20 4.705593
711.30 4.497733
711.40 4.404403
711.50 4.601787
711.60 4.74036
711.70 4.631609
711.80 4.642147
711.90 4.865892
712.00 5.20803
712.10 5.417837
712.20 5.343173
712.30 5.302411
712.40 5.226263
712.50 4.828498
712.60 4.292438
712.70 3.786849
712.80 3.390289
712.90 3.185149
713.00 3.06051
713.10 3.098309
713.20 3.208883
713.30 3.224613
713.40 3.195223
713.50 3.246339
713.60 3.397243
713.70 3.405401
713.80 3.099359
713.90 3.006666
714.00 3.188826
714.10 3.329965
714.20 3.494498
714.30 3.594688
714.40 3.560508
714.50 3.540977
714.60 3.592679
714.70 3.74482
714.80 3.996563
714.90 3.947272
715.00 3.674977
715.10 3.595801
715.20 3.728101
715.30 3.803166
715.40 3.901503
715.50 4.099072
715.60 4.370563
715.70 4.564949
715.80 4.421339
715.90 4.076419
716.00 4.014302
716.10 4.166474
716.20 4.015909
716.30 3.668734
716.40 3.472741
716.50 3.684773
716.60 4.132263
716.70 4.280756
716.80 4.152165
716.90 3.994431
717.00 3.991063
717.10 4.238912
717.20 4.30925
717.30 4.254364
717.40 4.16431
717.50 4.053921
717.60 4.148024
717.70 4.259556
717.80 4.459134
717.90 4.541431
718.00 4.658279
718.10 5.006722
718.20 5.101257
718.30 5.084321
718.40 5.059969
718.50 5.131635
718.60 5.303431
718.70 5.303122
718.80 5.304203
718.90 5.455138
719.00 5.645259
719.10 5.856148
719.20 5.916627
719.30 5.814304
719.40 5.752218
719.50 5.778641
719.60 5.778672
719.70 5.548283
719.80 5.313907
719.90 5.077986
720.00 4.731614
720.10 4.508333
720.20 4.663502
720.30 4.993
720.40 5.057559
720.50 4.938764
720.60 4.862153
720.70 5.018032
720.80 5.099897
720.90 4.94411
721.00 4.806557
721.10 4.956225
721.20 5.230714
721.30 5.376766
721.40 5.495653
721.50 5.547572
721.60 5.538826
721.70 5.472012
721.80 5.44528
721.90 5.51126
722.00 5.479212
722.10 5.492656
722.20 5.645785
722.30 5.827809
722.40 6.028716
722.50 6.131564
722.60 6.218528
722.70 6.41619
722.80 6.643643
722.90 6.784071
723.00 6.689474
723.10 6.406981
723.20 6.357287
723.30 6.516782
723.40 6.551642
723.50 6.634341
723.60 6.757895
723.70 6.861702
723.80 7.073888
723.90 7.169505
724.00 7.188449
724.10 7.348903
724.20 7.124447
724.30 7.022742
724.40 7.255573
724.50 7.429964
724.60 7.660415
724.70 8.099189
724.80 8.563738
724.90 8.380106
725.00 8.237608
725.10 8.712201
725.20 9.203543
725.30 9.207251
725.40 8.893514
725.50 8.837763
725.60 9.113983
725.70 9.417398
725.80 9.563976
725.90 9.491012
726.00 9.342147
726.10 9.352562
726.20 9.678166
726.30 10.16286
726.40 10.50237
726.50 10.83401
726.60 11.06585
726.70 10.97106
726.80 10.90388
726.90 10.83166
727.00 10.53161
727.10 10.13245
727.20 9.620654
727.30 9.147143
727.40 8.999917
727.50 9.64584
727.60 10.83703
727.70 11.62941
727.80 11.4196
727.90 10.48556
728.00 10.57009
728.10 11.33304
728.20 11.28183
728.30 10.83419
728.40 10.64917
728.50 11.01683
728.60 11.72852
728.70 11.77463
728.80 11.55586
728.90 11.97653
729.00 12.26736
729.10 12.2236
729.20 12.16303
729.30 12.27756
729.40 12.60196
729.50 12.97256
729.60 13.38738
729.70 13.99205
729.80 14.3659
729.90 14.00067
730.00 13.58121
730.10 13.9248
730.20 14.49798
730.30 14.7483
730.40 15.11189
730.50 15.45529
730.60 15.27135
730.70 15.20414
730.80 15.70385
730.90 16.32938
731.00 16.58826
731.10 16.37642
731.20 16.07859
731.30 16.04528
731.40 16.25048
731.50 16.59769
731.60 17.06233
731.70 17.28295
731.80 17.10111
731.90 17.02518
732.00 17.81883
732.10 18.63488
732.20 18.60978
732.30 18.36218
732.40 18.31709
732.50 18.40712
732.60 18.35353
732.70 18.11467
732.80 18.36237
732.90 18.99027
733.00 19.02986
733.10 18.80535
733.20 18.75853
733.30 18.74471
733.40 18.67614
733.50 18.64514
733.60 19.12953
733.70 19.99842
733.80 20.64299
733.90 21.04236
734.00 20.9833
734.10 21.39445
734.20 22.14189
734.30 21.32708
734.40 20.39489
734.50 20.04008
734.60 19.31334
734.70 18.70364
734.80 18.48907
734.90 18.90597
735.00 19.62285
735.10 20.09018
735.20 20.41634
735.30 20.70702
735.40 20.77087
735.50 20.36532
735.60 19.68818
735.70 19.1168
735.80 19.28976
735.90 20.06515
736.00 20.55809
736.10 20.58662
736.20 20.54685
736.30 20.96813
736.40 21.76422
736.50 22.46116
736.60 22.76464
736.70 22.64853
736.80 22.93421
736.90 23.60612
737.00 24.02453
737.10 24.1072
737.20 23.85855
737.30 23.48924
737.40 22.92277
737.50 22.02189
737.60 21.26614
737.70 21.24796
737.80 21.72555
737.90 22.30822
738.00 22.55341
738.10 22.39348
738.20 22.26792
738.30 22.51293
738.40 22.87092
738.50 22.9114
738.60 22.80036
738.70 22.85445
738.80 23.23704
738.90 24.05293
739.00 24.80915
739.10 25.16853
739.20 25.01667
739.30 24.19858
739.40 23.00025
739.50 21.9209
739.60 21.22423
739.70 21.14434
739.80 21.70173
739.90 22.46747
740.00 23.00711
740.10 23.38636
740.20 23.80261
740.30 24.25384
740.40 24.10748
740.50 22.925
740.60 21.37662
740.70 20.81392
740.80 21.06134
740.90 21.19775
741.00 21.63918
741.10 22.37624
741.20 22.8232
741.30 22.89351
741.40 22.97377
741.50 23.33293
741.60 23.62559
741.70 23.26074
741.80 22.11884
741.90 21.05787
742.00 20.39202
742.10 20.2794
742.20 20.77652
742.30 21.27856
742.40 21.67954
742.50 22.32228
742.60 22.83223
742.70 23.06781
742.80 23.10282
742.90 22.96252
743.00 23.17439
743.10 23.51684
743.20 23.50439
743.30 23.55229
743.40 23.54737
743.50 22.61114
743.60 21.1708
743.70 20.18601
743.80 20.24485
743.90 21.4616
744.00 22.72925
744.10 22.92861
744.20 22.36045
744.30 21.84574
744.40 21.46794
744.50 21.13835
744.60 20.81451
744.70 20.66654
744.80 20.56656
744.90 20.44783
745.00 20.70464
745.10 21.25788
745.20 21.98645
745.30 22.51642
745.40 22.45736
745.50 22.08061
745.60 21.77132
745.70 21.5338
745.80 21.31533
745.90 21.17367
746.00 21.12228
746.10 21.30823
746.20 21.66588
746.30 22.21467
746.40 22.75422
746.50 22.85275
746.60 22.78868
746.70 22.74718
746.80 22.63694
746.90 22.49411
747.00 22.54942
747.10 23.05841
747.20 23.63755
747.30 23.70409
747.40 22.81276
747.50 21.67218
747.60 21.46701
747.70 21.94961
747.80 22.5514
747.90 23.0908
748.00 23.22767
748.10 23.0339
748.20 23.10888
748.30 23.33058
748.40 23.79402
748.50 24.52647
748.60 24.56047
748.70 24.02759
748.80 23.60025
748.90 23.56159
749.00 23.79875
749.10 23.96544
749.20 23.98037
749.30 23.7306
749.40 23.19766
749.50 22.66915
749.60 22.48622
749.70 22.77165
749.80 23.4449
749.90 24.24002
750.00 24.98935
750.10 25.41484
750.20 25.37745
750.30 25.30337
750.40 25.35291
750.50 25.08905
750.60 24.40647
750.70 23.92762
750.80 24.01792
750.90 24.62014
751.00 25.54587
751.10 26.26167
751.20 26.54639
751.30 26.35454
751.40 25.80089
751.50 25.39518
751.60 25.2165
751.70 25.4336
751.80 25.7885
751.90 25.62412
752.00 25.2512
752.10 25.1948
752.20 25.05787
752.30 25.09486
752.40 25.71377
752.50 26.02872
752.60 26.29291
752.70 26.33408
752.80 25.27271
752.90 24.47755
753.00 24.56381
753.10 25.44352
753.20 26.68966
753.30 26.99069
753.40 26.4775
753.50 26.10156
753.60 25.90275
753.70 26.03984
753.80 26.82326
753.90 27.90388
754.00 28.95616
754.10 29.44524
754.20 29.22573
754.30 28.98063
754.40 29.02999
754.50 29.27944
754.60 29.43718
754.70 29.17749
754.80 28.66683
754.90 28.17014
755.00 27.76407
755.10 27.75612
755.20 28.45443
755.30 29.15886
755.40 29.28578
755.50 29.00424
755.60 28.78309
755.70 28.86817
755.80 28.98107
755.90 29.27147
756.00 29.73098
756.10 29.95899
756.20 29.9109
756.30 29.72829
756.40 29.52
756.50 29.11503
756.60 28.68343
756.70 28.31338
756.80 27.76005
756.90 27.12346
757.00 26.74328
757.10 27.20928
757.20 28.78353
757.30 30.56455
757.40 31.17747
757.50 30.67161
757.60 30.2468
757.70 29.93495
757.80 29.09396
757.90 28.31357
758.00 28.43156
758.10 29.57164
758.20 31.20189
758.30 32.33853
758.40 32.6349
758.50 32.3509
758.60 31.58231
758.70 30.4368
758.80 28.41957
758.90 24.88895
759.00 20.72433
759.10 17.1967
759.20 14.79784
759.30 13.86797
759.40 14.16289
759.50 14.98932
759.60 15.67922
759.70 15.72227
759.80 15.50771
759.90 16.0451
760.00 17.12102
760.10 17.19225
760.20 16.1578
760.30 15.34969
760.40 15.62829
760.50 16.62445
760.60 17.07469
760.70 16.81324
760.80 16.70638
760.90 16.88902
761.00 17.19553
761.10 17.36157
761.20 17.41643
761.30 17.7022
761.40 18.56244
761.50 19.68867
761.60 20.08434
761.70 20.08013
761.80 20.20601
761.90 20.29569
762.00 20.72253
762.10 20.87891
762.20 20.08625
762.30 19.52306
762.40 19.58499
762.50 19.54373
762.60 19.0676
762.70 17.69982
762.80 15.8763
762.90 14.26657
763.00 12.63648
763.10 11.37841
763.20 11.20155
763.30 11.60586
763.40 12.08324
763.50 12.29941
763.60 12.08163
763.70 12.00332
763.80 12.2203
763.90 12.26545
764.00 12.2254
764.10 11.93187
764.20 11.46306
764.30 11.47925
764.40 11.7848
764.50 12.00338
764.60 11.5991
764.70 10.77733
764.80 10.68415
764.90 11.06121
765.00 11.08399
765.10 10.77458
765.20 10.36371
765.30 10.31126
765.40 10.42882
765.50 9.824249
765.60 8.72756
765.70 8.139334
765.80 8.117114
765.90 8.085592
766.00 7.614121
766.10 6.874743
766.20 6.249463
766.30 5.618126
766.40 5.147057
766.50 4.876121
766.60 4.529224
766.70 4.387035
766.80 4.411758
766.90 4.45592
767.00 4.86002
767.10 5.502638
767.20 5.965239
767.30 6.070745
767.40 6.126434
767.50 6.311456
767.60 6.657272
767.70 7.115269
767.80 7.325941
767.90 7.413925
768.00 7.616778
768.10 7.747719
768.20 7.723459
768.30 7.753034
768.40 8.019921
768.50 8.380385
768.60 8.58809
768.70 8.563985
768.80 8.466978
768.90 8.386411
769.00 8.368116
769.10 8.459622
769.20 8.379365
769.30 8.150428
769.40 7.818056
769.50 7.272168
769.60 6.807465
769.70 6.318441
769.80 5.672826
769.90 5.017693
770.00 4.417846
770.10 4.228467
770.20 4.465809
770.30 4.894324
770.40 5.585429
770.50 6.300053
770.60 6.800852
770.70 7.182114
770.80 7.360893
770.90 7.678494
771.00 8.331525
771.10 8.731361
771.20 8.807447
771.30 8.95764
771.40 9.382848
771.50 9.801257
771.60 9.821097
771.70 10.05383
771.80 10.55293
771.90 10.30889
772.00 10.24698
772.10 10.87681
772.20 11.4086
772.30 11.75331
772.40 11.70995
772.50 11.82176
772.60 12.28053
772.70 12.64702
772.80 12.89116
772.90 13.16478
773.00 13.36671
773.10 13.49709
773.20 13.71679
773.30 13.92351
773.40 14.21898
773.50 14.51359
773.60 14.52128
773.70 14.57471
773.80 15.00681
773.90 15.42779
774.00 15.55598
774.10 15.51426
774.20 15.45984
774.30 15.30581
774.40 14.66987
774.50 13.65779
774.60 12.88795
774.70 12.55455
774.80 12.31094
774.90 12.12672
775.00 11.74196
775.10 11.09978
775.20 10.84389
775.30 10.55219
775.40 10.40342
775.50 11.00086
775.60 11.60657
775.70 11.78928
775.80 11.82015
775.90 12.05255
776.00 12.26841
776.10 12.4442
776.20 12.70917
776.30 12.64541
776.40 12.32324
776.50 12.21872
776.60 12.34283
776.70 12.56911
776.80 13.08589
776.90 13.69939
777.00 13.91114
777.10 13.81655
777.20 13.76778
777.30 13.95231
777.40 14.38141
777.50 14.6817
777.60 14.6496
777.70 14.58739
777.80 14.39779
777.90 14.2641
778.00 14.53176
778.10 14.79284
778.20 14.79148
778.30 14.42165
778.40 13.62324
778.50 12.99914
778.60 12.81977
778.70 12.79205
778.80 12.80089
778.90 12.84143
779.00 13.10362
779.10 13.6034
779.20 13.83524
779.30 13.701
779.40 14.07243
779.50 14.92585
779.60 15.364
779.70 15.34135
779.80 14.75387
779.90 13.67408
780.00 12.41039
780.10 11.3119
780.20 11.18279
780.30 12.14702
780.40 13.7604
780.50 15.65388
780.60 17.19587
780.70 18.0948
780.80 18.49173
780.90 18.34216
781.00 17.91911
781.10 17.60244
781.20 17.26336
781.30 17.33268
781.40 18.24852
781.50 19.22001
781.60 19.65406
781.70 19.71571
781.80 19.64133
781.90 19.65202
782.00 19.50634
782.10 19.02557
782.20 17.92709
782.30 16.34984
782.40 15.72444
782.50 16.32536
782.60 17.31698
782.70 17.90799
782.80 17.34563
782.90 16.16911
783.00 15.07629
783.10 14.36086
783.20 14.20547
783.30 14.62558
783.40 15.32735
783.50 15.86638
783.60 16.18645
783.70 16.34625
783.80 16.49827
783.90 16.7807
784.00 16.90902
784.10 16.94014
784.20 17.08415
784.30 17.01415
784.40 16.93946
784.50 17.21911
784.60 17.75381
784.70 18.3645
784.80 18.56191
784.90 18.27979
785.00 17.75665
785.10 17.20297
785.20 17.19392
785.30 17.77918
785.40 18.33647
785.50 18.4688
785.60 18.5489
785.70 18.66124
785.80 18.70515
785.90 18.99318
786.00 19.0145
786.10 18.61575
786.20 18.55187
786.30 18.47866
786.40 17.82921
786.50 17.33092
786.60 17.22832
786.70 17.02552
786.80 16.94573
786.90 17.02732
787.00 17.34115
787.10 17.75205
787.20 17.59697
787.30 16.88803
787.40 16.30453
787.50 16.45559
787.60 17.16141
787.70 17.83681
787.80 18.49921
787.90 19.56608
788.00 20.3057
788.10 20.27087
788.20 19.93597
788.30 19.55758
788.40 19.90991
788.50 20.55228
788.60 20.74064
788.70 20.84828
788.80 20.79476
788.90 20.84204
789.00 21.13251
789.10 21.22114
789.20 21.18282
789.30 21.28746
789.40 21.65883
789.50 22.05357
789.60 21.91342
789.70 21.08862
789.80 20.12714
789.90 19.36585
790.00 18.61668
790.10 18.02177
790.20 17.86494
790.30 18.20389
790.40 19.1137
790.50 20.08375
790.60 20.64728
790.70 20.85638
790.80 20.45262
790.90 19.22715
791.00 17.83824
791.10 16.7074
791.20 15.71977
791.30 15.75095
791.40 16.91792
791.50 18.16072
791.60 18.87661
791.70 18.65599
791.80 17.93935
791.90 17.36133
792.00 16.82786
792.10 16.63453
792.20 17.23651
792.30 18.00821
792.40 18.04356
792.50 17.8056
792.60 18.08266
792.70 18.53713
792.80 18.77898
792.90 18.76118
793.00 18.62814
793.10 18.96886
793.20 19.87679
793.30 20.91587
793.40 21.66912
793.50 21.78711
793.60 21.6402
793.70 21.68797
793.80 21.89009
793.90 21.96911
794.00 21.27219
794.10 19.81068
794.20 18.45972
794.30 17.80727
794.40 18.14873
794.50 18.95823
794.60 19.19681
794.70 18.53926
794.80 17.26537
794.90 15.98811
795.00 15.79375
795.10 17.05145
795.20 18.72286
795.30 20.26886
795.40 21.57518
795.50 22.18395
795.60 22.35155
795.70 22.47396
795.80 22.55186
795.90 22.32503
796.00 21.72392
796.10 20.99764
796.20 20.11799
796.30 19.39694
796.40 19.48041
796.50 20.25653
796.60 21.22182
796.70 22.08871
796.80 22.50328
796.90 22.68738
797.00 23.16376
797.10 23.8269
797.20 24.47258
797.30 24.84179
797.40 24.45675
797.50 23.40305
797.60 22.26542
797.70 21.51272
797.80 21.10256
797.90 20.90057
798.00 20.9608
798.10 21.22077
798.20 21.49173
798.30 21.51025
798.40 21.13652
798.50 20.62188
798.60 20.20845
798.70 19.81077
798.80 19.40754
798.90 19.35225
799.00 19.94854
799.10 20.93182
799.20 21.94998
799.30 22.81096
799.40 23.01564
799.50 22.29935
799.60 21.45842
799.70 21.51902
799.80 22.07016
799.90 22.23065
800.00 22.17913
800.10 22.37707
800.20 22.80645
800.30 23.18895
800.40 23.53127
800.50 23.86742
800.60 24.06427
800.70 24.2298
800.80 24.60435
800.90 25.21937
801.00 25.6308
801.10 25.57953
801.20 25.45943
801.30 25.53011
801.40 25.78105
801.50 26.03029
801.60 26.16479
801.70 26.5577
801.80 27.22161
801.90 27.67191
802.00 27.89967
802.10 27.98169
802.20 27.85125
802.30 27.67701
802.40 27.69935
802.50 28.17549
802.60 29.11355
802.70 30.08526
802.80 30.37613
802.90 29.99784
803.00 30.01697
803.10 30.5745
803.20 30.96362
803.30 31.02326
803.40 30.86238
803.50 30.76101
803.60 30.86819
803.70 31.01584
803.80 31.14348
803.90 31.20467
804.00 30.98309
804.10 30.65745
804.20 30.72553
804.30 31.09372
804.40 31.67008
804.50 32.41487
804.60 32.69578
804.70 32.51376
804.80 32.28383
804.90 31.87065
805.00 32.02579
805.10 33.34693
805.20 34.84485
805.30 36.11407
805.40 37.12123
805.50 37.35209
805.60 37.17748
805.70 37.08168
805.80 36.94539
805.90 36.92376
806.00 37.23651
806.10 37.79463
806.20 38.29713
806.30 38.29775
806.40 37.8141
806.50 37.4587
806.60 37.23805
806.70 37.40864
806.80 38.29157
806.90 38.80859
807.00 38.57928
807.10 38.24367
807.20 38.10831
807.30 38.61142
807.40 39.78825
807.50 40.86958
807.60 41.33715
807.70 41.52567
807.80 41.78681
807.90 42.21544
808.00 42.66417
808.10 42.908
808.20 43.21179
808.30 43.67689
808.40 44.04712
808.50 44.45969
808.60 44.99
808.70 45.12629
808.80 44.69734
808.90 44.08483
809.00 43.61941
809.10 43.68338
809.20 44.25387
809.30 44.99526
809.40 45.67329
809.50 45.90878
809.60 45.63373
809.70 45.04748
809.80 44.32804
809.90 43.93741
810.00 44.06319
810.10 44.33175
810.20 44.66304
810.30 45.01689
810.40 45.01071
810.50 44.72577
810.60 44.80612
810.70 45.5574
810.80 46.6582
810.90 47.65578
811.00 48.27324
811.10 48.38079
811.20 48.15673
811.30 48.18269
811.40 48.77821
811.50 49.30976
811.60 49.14566
811.70 48.43796
811.80 47.71759
811.90 47.8925
812.00 49.26031
812.10 50.86052
812.20 51.78795
812.30 51.91991
812.40 51.59171
812.50 51.32068
812.60 51.41926
812.70 51.87077
812.80 52.58156
812.90 53.28339
813.00 53.60541
813.10 53.45367
813.20 53.03987
813.30 52.91811
813.40 53.32233
813.50 53.8477
813.60 54.20186
813.70 54.29519
813.80 54.47505
813.90 55.38888
814.00 56.61299
814.10 56.75205
814.20 55.45378
814.30 53.69751
814.40 52.20793
814.50 51.39361
814.60 51.66062
814.70 52.47618
814.80 52.8288
814.90 52.58929
815.00 52.03704
815.10 51.62725
815.20 52.13346
815.30 53.39743
815.40 54.47659
815.50 54.60176
815.60 53.94814
815.70 53.51486
815.80 53.63075
815.90 53.90394
816.00 53.81618
816.10 53.31152
816.20 52.90822
816.30 53.00155
816.40 53.78373
816.50 54.96302
816.60 55.85059
816.70 56.08607
816.80 56.08051
816.90 56.67603
817.00 57.62787
817.10 58.13779
817.20 58.13779
817.30 57.81113
817.40 57.32069
817.50 56.71528
817.60 56.33454
817.70 56.13799
817.80 55.29833
817.90 53.9231
818.00 52.22308
818.10 49.53938
818.20 45.61025
818.30 40.06206
818.40 33.84479
818.50 30.34211
818.60 31.31747
818.70 35.67122
818.80 41.23023
818.90 45.59016
819.00 47.65083
819.10 47.9472
819.20 46.89801
819.30 44.13983
819.40 39.37568
819.50 33.30459
819.60 28.17639
819.70 26.29554
819.80 28.24759
819.90 32.33081
820.00 36.2791
820.10 39.65814
820.20 42.48276
820.30 44.87349
820.40 47.13999
820.50 48.3196
820.60 47.71388
820.70 45.81576
820.80 43.56687
820.90 42.484
821.00 43.23311
821.10 44.91212
821.20 46.66253
821.30 47.83904
821.40 47.96575
821.50 47.27072
821.60 46.48668
821.70 46.20546
821.80 46.50862
821.90 47.28926
822.00 48.24017
822.10 49.10363
822.20 49.98161
822.30 50.79191
822.40 51.39609
822.50 51.88004
822.60 52.33495
822.70 52.7367
822.80 52.92213
822.90 53.04636
823.00 53.5983
823.10 54.76462
823.20 56.02921
823.30 56.32589
823.40 55.27083
823.50 53.6938
823.60 52.68416
823.70 52.80716
823.80 53.90147
823.90 55.37868
824.00 56.73846
824.10 57.76663
824.20 58.35968
824.30 58.2407
824.40 57.27124
824.50 56.09627
824.60 55.63364
824.70 56.38306
824.80 58.36184
824.90 60.29118
825.00 60.53501
825.10 59.18172
825.20 57.0512
825.30 54.72754
825.40 52.99877
825.50 52.06423
825.60 51.48694
825.70 51.04007
825.80 50.83827
825.90 51.16183
826.00 52.06609
826.10 53.43637
826.20 54.98806
826.30 56.1964
826.40 56.92883
826.50 57.27093
826.60 57.22581
826.70 57.3998
826.80 57.93877
826.90 58.03024
827.00 57.3278
827.10 55.80238
827.20 53.75128
827.30 51.93134
827.40 50.61391
827.50 49.89045
827.60 49.99397
827.70 50.7366
827.80 51.82256
827.90 52.80191
828.00 53.05038
828.10 52.65326
828.20 51.54226
828.30 49.85089
828.40 48.65645
828.50 48.05815
828.60 47.86253
828.70 48.34648
828.80 49.00628
828.90 48.8496
829.00 47.53958
829.10 45.64826
829.20 44.02703
829.30 43.58604
829.40 44.38305
829.50 45.39361
829.60 45.97677
829.70 46.38099
829.80 47.04203
829.90 47.38506
830.00 46.28024
830.10 45.24202
830.20 44.20381
830.30 43.18892
830.40 42.17403
830.50 41.95585
830.60 41.73767
830.70 42.12644
830.80 42.51521
830.90 43.65202
831.00 44.78882
831.10 45.32964
831.20 45.87046
831.30 45.71223
831.40 45.554
831.50 45.26381
831.60 44.97362
831.70 45.90661
831.80 46.83961
831.90 47.39804
832.00 47.95647
832.10 48.32732
832.20 48.69817
832.30 49.23435
832.40 49.77054
832.50 49.9195
832.60 50.06845
832.70 48.89086
832.80 47.71326
832.90 46.87453
833.00 46.03579
833.10 47.41411
833.20 48.79243
833.30 49.46737
833.40 50.14231
833.50 48.59912
833.60 47.05593
833.70 46.30188
833.80 45.54782
833.90 46.17841
834.00 46.80901
834.10 47.41442
834.20 48.01983
834.30 48.9658
834.40 49.91177
834.50 48.91666
834.60 47.92155
834.70 46.28194
834.80 44.64233
834.90 45.18717
835.00 45.73201
835.10 46.69976
835.20 47.66752
835.30 47.67664
835.40 47.68576
835.50 47.5436
835.60 47.40144
835.70 47.39866
835.80 47.39588
835.90 48.30832
836.00 49.22076
836.10 49.59284
836.20 49.96492
836.30 49.31053
836.40 48.65614
836.50 48.06278
836.60 47.46943
836.70 48.17481
836.80 48.88019
836.90 50.60865
837.00 52.33711
837.10 53.03199
837.20 53.72686
837.30 51.81793
837.40 49.90899
837.50 47.94628
837.60 45.98357
837.70 45.55014
837.80 45.11671
837.90 46.04197
838.00 46.96724
838.10 47.80211
838.20 48.63698
838.30 48.40814
838.40 48.17929
838.50 47.5011
838.60 46.82292
838.70 45.32809
838.80 43.83327
838.90 42.44645
839.00 41.05964
839.10 42.00313
839.20 42.94663
839.30 44.01483
839.40 45.08302
839.50 45.35745
839.60 45.63188
839.70 45.91712
839.80 46.20237
839.90 46.68462
840.00 47.16688
840.10 48.21318
840.20 49.25948
840.30 49.60113
840.40 49.64079
840.50 49.78229
840.60 50.09719
840.70 50.411
840.80 50.70405
840.90 50.99711
841.00 51.44058
841.10 51.93968
841.20 51.64654
841.30 50.16501
841.40 48.87461
841.50 49.78215
841.60 50.68969
841.70 51.66876
841.80 52.67042
841.90 52.68112
842.00 51.37822
842.10 50.047
842.20 48.48662
842.30 46.92623
842.40 47.22714
842.50 48.02282
842.60 48.40732
842.70 48.30915
842.80 48.15283
842.90 47.63932
843.00 47.12581
843.10 47.41393
843.20 47.87802
843.30 46.60088
843.40 43.5825
843.50 40.38979
843.60 36.3459
843.70 32.30201
843.80 31.94158
843.90 32.23117
844.00 33.82459
844.10 36.57425
844.20 38.30986
844.30 35.98926
844.40 33.66867
844.50 31.30048
844.60 28.9258
844.70 27.95444
844.80 28.08567
844.90 28.42463
845.00 29.42138
845.10 30.41814
845.20 29.18242
845.30 27.72591
845.40 26.00992
845.50 24.11362
845.60 22.77709
845.70 22.95403
845.80 23.13097
845.90 23.16246
846.00 23.18629
846.10 23.77346
846.20 24.70591
846.30 25.43899
846.40 25.70687
846.50 25.97475
846.60 25.24275
846.70 24.49034
846.80 24.14585
846.90 24.01149
847.00 24.07737
847.10 24.5498
847.20 25.01654
847.30 24.91983
847.40 24.82312
847.50 24.68923
847.60 24.53862
847.70 24.89301
847.80 26.10722
847.90 27.2637
848.00 27.32304
848.10 27.38239
848.20 27.3079
848.30 27.18391
848.40 27.22408
848.50 27.51047
848.60 27.80022
848.70 28.12852
848.80 28.45682
848.90 28.96291
849.00 29.52513
849.10 30.16421
849.20 30.9011
849.30 31.57699
849.40 31.80557
849.50 32.03415
849.60 31.08633
849.70 29.8444
849.80 28.82924
849.90 28.0698
850.00 27.4938
850.10 27.95728
850.20 28.42076
850.30 29.40575
850.40 30.49755
850.50 30.48556
850.60 29.41306
850.70 28.34057
850.80 27.26815
850.90 26.19573
851.00 26.43639
851.10 26.87325
851.20 27.63902
851.30 28.67389
851.40 29.41918
851.50 29.195
851.60 28.97082
851.70 28.01669
851.80 26.98146
851.90 26.21949
852.00 25.6554
852.10 25.22466
852.20 25.17344
852.30 25.12222
852.40 25.85535
852.50 26.63854
852.60 27.68792
852.70 28.90044
852.80 29.82679
852.90 30.08537
853.00 30.34395
853.10 30.25642
853.20 30.16183
853.30 30.38177
853.40 30.76374
853.50 31.13537
853.60 31.4869
853.70 31.83094
853.80 31.80776
853.90 31.78458
854.00 31.73212
854.10 31.66712
854.20 31.70897
854.30 31.92517
854.40 32.14151
854.50 32.36064
854.60 32.57978
854.70 33.21469
854.80 33.99568
854.90 34.60464
855.00 34.97601
855.10 35.36857
855.20 35.97519
855.30 36.58181
855.40 36.81693
855.50 36.94108
855.60 37.1995
855.70 37.62203
855.80 37.85806
855.90 36.84596
856.00 35.83385
856.10 35.01682
856.20 34.24556
856.30 34.00384
856.40 34.31328
856.50 34.77054
856.60 35.94956
856.70 37.12857
856.80 37.67205
856.90 38.10337
857.00 37.98324
857.10 37.37408
857.20 36.73461
857.30 35.98106
857.40 35.22751
857.50 35.4685
857.60 35.83243
857.70 36.35162
857.80 36.98795
857.90 37.59071
858.00 38.09276
858.10 38.59482
858.20 37.86561
858.30 37.04373
858.40 36.83029
858.50 37.00585
858.60 37.28659
858.70 37.8248
858.80 38.36301
858.90 38.53669
859.00 38.70293
859.10 38.73193
859.20 38.69024
859.30 38.53283
859.40 38.15079
859.50 37.7926
859.60 38.6029
859.70 39.4132
859.80 40.0301
859.90 40.56413
860.00 40.83256
860.10 40.66765
860.20 40.51426
860.30 40.5413
860.40 40.56834
860.50 41.07918
860.60 41.76
860.70 42.25815
860.80 42.50405
860.90 42.68281
861.00 42.25735
861.10 41.83189
861.20 41.56384
861.30 41.34018
861.40 40.85789
861.50 40.07197
861.60 39.33492
861.70 38.89812
861.80 38.46132
861.90 38.66966
862.00 39.01013
862.10 39.43485
862.20 39.9405
862.30 40.38483
862.40 40.56772
862.50 40.75062
862.60 39.63009
862.70 38.31481
862.80 37.78821
862.90 37.9069
863.00 37.90114
863.10 37.47874
863.20 37.05634
863.30 37.62187
863.40 38.2851
863.50 38.69698
863.60 38.93418
863.70 39.11772
863.80 39.16327
863.90 39.20883
864.00 39.19224
864.10 39.17305
864.20 39.10579
864.30 39.01148
864.40 39.24343
864.50 40.16868
864.60 41.09394
864.70 40.37595
864.80 39.65797
864.90 39.02621
865.00 38.43502
865.10 38.38574
865.20 39.25918
865.30 40.11995
865.40 40.74002
865.50 41.3601
865.60 42.1522
865.70 43.00792
865.80 43.4525
865.90 43.30544
866.00 43.0963
866.10 42.25948
866.20 41.42267
866.30 40.87169
866.40 40.40134
866.50 40.71519
866.60 41.94961
866.70 43.0623
866.80 43.42715
866.90 43.79201
867.00 43.68685
867.10 43.47851
867.20 43.16308
867.30 42.74055
867.40 42.49323
867.50 43.04415
867.60 43.59507
867.70 44.08726
867.80 44.57067
867.90 44.9663
868.00 45.29013
868.10 45.54031
868.20 45.54392
868.30 45.54753
868.40 44.84524
868.50 44.08156
868.60 44.15997
868.70 44.79976
868.80 45.02462
868.90 44.18248
869.00 43.34035
869.10 42.05115
869.20 40.74333
869.30 39.68712
869.40 38.77244
869.50 37.82166
869.60 36.79756
869.70 35.7919
869.80 36.61059
869.90 37.42927
870.00 37.73365
870.10 37.80697
870.20 38.10491
870.30 38.76934
870.40 39.43043
870.50 40.03905
870.60 40.64767
870.70 41.46478
870.80 42.35513
870.90 42.36499
871.00 41.15893
871.10 40.04394
871.20 39.66577
871.30 39.28759
871.40 39.26301
871.50 39.33241
871.60 39.31819
871.70 39.2097
871.80 39.06118
871.90 38.70259
872.00 38.344
872.10 38.70533
872.20 39.20379
872.30 39.62488
872.40 39.97454
872.50 40.29915
872.60 40.5235
872.70 40.74786
872.80 42.65897
872.90 44.77856
873.00 45.89878
873.10 46.2651
873.20 46.23939
873.30 45.03762
873.40 43.83584
873.50 43.05277
873.60 42.29642
873.70 42.2761
873.80 42.70689
873.90 43.01964
874.00 43.05696
874.10 43.09429
874.20 44.11999
874.30 45.15567
874.40 46.70953
874.50 48.51861
874.60 49.83311
874.70 50.22911
874.80 50.54346
874.90 48.89823
875.00 47.25299
875.10 46.66469
875.20 46.48743
875.30 46.93522
875.40 48.28247
875.50 49.54668
875.60 49.97121
875.70 50.39574
875.80 50.4257
875.90 50.33781
876.00 50.83183
876.10 52.00898
876.20 52.9494
876.30 52.43568
876.40 51.92195
876.50 50.54845
876.60 48.99886
876.70 47.95164
876.80 47.38711
876.90 47.16327
877.00 48.3918
877.10 49.62033
877.20 51.71634
877.30 53.93063
877.40 55.89947
877.50 57.67544
877.60 59.27018
877.70 60.32118
877.80 61.37218
877.90 58.99561
878.00 56.36104
878.10 54.46542
878.20 53.04223
878.30 52.38532
878.40 53.51637
878.50 54.64743
878.60 55.76821
878.70 56.88878
878.80 56.95878
878.90 56.51134
879.00 56.3972
879.10 56.90206
879.20 57.41213
879.30 58.09081
879.40 58.76949
879.50 59.00882
879.60 59.07729
879.70 59.70723
879.80 61.17939
879.90 62.51144
880.00 62.42699
880.10 62.34254
880.20 59.24642
880.30 55.25071
880.40 52.4364
880.50 51.00896
880.60 49.97388
880.70 51.34904
880.80 52.7242
880.90 53.18208
881.00 53.45209
881.10 55.00664
881.20 57.79536
881.30 60.42001
881.40 62.38841
881.50 64.3568
881.60 65.50836
881.70 66.54852
881.80 67.39616
881.90 68.09856
882.00 68.45749
882.10 67.78599
882.20 67.1145
882.30 64.42484
882.40 61.58328
882.50 58.96949
882.60 56.49531
882.70 55.11164
882.80 56.27247
882.90 57.43331
883.00 59.25214
883.10 61.07762
883.20 62.97682
883.30 64.91071
883.40 66.16538
883.50 66.21254
883.60 66.27047
883.70 66.587
883.80 66.90353
883.90 67.57848
884.00 68.386
884.10 68.99339
884.20 69.32441
884.30 69.58283
884.40 69.1879
884.50 68.79297
884.60 66.85309
884.70 64.50252
884.80 62.36624
884.90 60.4716
885.00 58.95434
885.10 59.41829
885.20 59.88225
885.30 64.03222
885.40 68.88427
885.50 71.90928
885.60 73.31408
885.70 73.63992
885.80 69.90683
885.90 66.17374
886.00 61.88507
886.10 57.53467
886.20 53.10902
886.30 48.62888
886.40 45.58898
886.50 46.44305
886.60 47.29712
886.70 50.55702
886.80 53.91716
886.90 53.88265
887.00 51.93864
887.10 49.23802
887.20 45.00125
887.30 40.80052
887.40 40.1688
887.50 39.53707
887.60 40.32998
887.70 41.73345
887.80 43.58146
887.90 46.15479
888.00 48.65639
888.10 50.2052
888.20 51.75402
888.30 51.05332
888.40 49.64227
888.50 48.40011
888.60 47.37292
888.70 46.49147
888.80 46.58538
888.90 46.67929
889.00 48.6088
889.10 50.96887
889.20 52.40397
889.30 52.91408
889.40 53.17137
889.50 52.35082
889.60 51.53026
889.70 49.88548
889.80 48.11753
889.90 47.56506
890.00 47.96762
890.10 49.03484
890.20 52.09606
890.30 55.15729
890.40 57.06379
890.50 58.88338
890.60 59.92467
890.70 60.48893
890.80 60.46458
890.90 59.06682
891.00 57.66905
891.10 56.41591
891.20 55.16423
891.30 54.59059
891.40 54.33604
891.50 54.93504
891.60 57.0515
891.70 59.06215
891.80 59.06255
891.90 59.06295
892.00 59.91108
892.10 61.05705
892.20 61.55164
892.30 61.14668
892.40 60.64525
892.50 59.36334
892.60 58.08142
892.70 57.66551
892.80 57.4661
892.90 57.52346
893.00 57.85899
893.10 58.563
893.20 61.06609
893.30 63.56918
893.40 65.58609
893.50 67.52384
893.60 67.97099
893.70 67.14836
893.80 65.4689
893.90 60.92093
894.00 56.37296
894.10 54.60016
894.20 53.06868
894.30 53.01277
894.40 53.94055
894.50 54.38012
894.60 53.62438
894.70 52.86863
894.80 54.86668
894.90 56.92092
895.00 57.82293
895.10 58.15741
895.20 58.09317
895.30 57.28847
895.40 56.52332
895.50 56.70754
895.60 56.89176
895.70 58.33019
895.80 60.23252
895.90 61.56124
896.00 62.06454
896.10 62.43981
896.20 61.66293
896.30 60.88605
896.40 60.77279
896.50 60.83593
896.60 60.50357
896.70 59.72521
896.80 59.00095
896.90 58.56067
897.00 58.12039
897.10 59.51389
897.20 61.231
897.30 62.15301
897.40 62.39771
897.50 62.91943
897.60 64.42329
897.70 65.92715
897.80 67.17437
897.90 68.39622
898.00 67.95511
898.10 66.40536
898.20 65.03756
898.30 64.11524
898.40 63.19292
898.50 65.80814
898.60 68.53277
898.70 70.6501
898.80 72.45457
898.90 73.03698
899.00 71.34983
899.10 69.69555
899.20 68.82998
899.30 67.9644
899.40 67.61157
899.50 67.44839
899.60 67.13935
899.70 66.6204
899.80 66.06271
899.90 65.15633
900.00 64.24995
900.10 63.70407
900.20 63.25402
900.30 64.39744
900.40 67.26711
900.50 70.08937
900.60 72.6627
900.70 75.23602
900.80 74.84648
900.90 73.93407
901.00 72.61834
901.10 70.95902
901.20 69.94748
901.30 71.10457
901.40 72.26167
901.50 72.46294
901.60 72.58109
901.70 72.02962
901.80 71.03173
901.90 70.00361
902.00 68.90151
902.10 67.7994
902.20 66.65376
902.30 65.50724
902.40 64.37308
902.50 63.24502
902.60 62.32899
902.70 61.7899
902.80 61.27868
902.90 61.43614
903.00 61.5936
903.10 62.60639
903.20 63.93553
903.30 65.38289
903.40 66.99351
903.50 68.58416
903.60 70.01323
903.70 71.4423
903.80 72.7194
903.90 73.9585
904.00 74.80088
904.10 75.23034
904.20 75.41114
904.30 74.37793
904.40 73.34472
904.50 72.68809
904.60 72.09275
904.70 72.7516
904.80 74.4366
904.90 76.03739
905.00 77.37147
905.10 78.70556
905.20 76.48277
905.30 73.99226
905.40 72.45181
905.50 71.49365
905.60 70.66012
905.70 70.10398
905.80 69.54784
905.90 69.49116
906.00 69.43952
906.10 69.74667
906.20 70.22267
906.30 70.9783
906.40 72.21004
906.50 73.28161
906.60 71.84371
906.70 70.4058
906.80 69.21202
906.90 68.09961
907.00 67.40243
907.10 67.23373
907.20 67.2645
907.30 68.63016
907.40 69.99582
907.50 70.51864
907.60 70.85646
907.70 71.45588
907.80 72.31691
907.90 73.50124
908.00 76.06386
908.10 78.62648
908.20 79.01453
908.30 79.10603
908.40 78.11157
908.50 76.29787
908.60 75.03062
908.70 75.31866
908.80 75.60669
908.90 75.3181
909.00 74.99916
909.10 74.79042
909.20 74.64365
909.30 74.96253
909.40 76.22678
909.50 77.48474
909.60 78.43434
909.70 79.38393
909.80 79.7852
909.90 79.96249
910.00 80.31238
910.10 80.93219
910.20 81.45602
910.30 80.87594
910.40 80.29585
910.50 79.31391
910.60 78.21194
910.70 77.08842
910.80 75.93963
910.90 75.2475
911.00 77.14321
911.10 79.03893
911.20 80.72337
911.30 82.36756
911.40 83.39928
911.50 83.88786
911.60 83.9766
911.70 82.64773
911.80 81.31886
911.90 80.98499
912.00 80.74953
912.10 81.25673
912.20 82.25904
912.30 82.88889
912.40 82.60688
912.50 82.32486
912.60 81.86165
912.70 81.39475
912.80 81.24587
912.90 81.25363
913.00 81.52089
913.10 82.24947
913.20 83.01235
913.30 84.42684
913.40 85.84133
913.50 86.75004
913.60 87.48103
913.70 87.23493
913.80 85.69361
913.90 84.02718
914.00 81.44329
914.10 78.8594
914.20 77.6941
914.30 76.86157
914.40 77.51952
914.50 79.66794
914.60 81.72934
914.70 83.41969
914.80 85.11004
914.90 83.99279
915.00 82.49267
915.10 81.20417
915.20 80.07531
915.30 79.81576
915.40 82.03041
915.50 84.24506
915.60 87.8343
915.70 91.49589
915.80 92.91662
915.90 93.02129
916.00 92.55442
916.10 90.92717
916.20 89.29417
916.30 87.09274
916.40 84.8913
916.50 84.92139
916.60 85.86296
916.70 87.0844
916.80 88.72564
916.90 90.25589
917.00 90.5097
917.10 90.76352
917.20 90.41061
917.30 89.88658
917.40 88.97868
917.50 87.63791
917.60 86.50204
917.70 86.44197
917.80 86.3819
917.90 86.69482
918.00 87.07356
918.10 87.74633
918.20 88.66957
918.30 89.39475
918.40 89.45682
918.50 89.5189
918.60 88.24875
918.70 86.86275
918.80 87.51295
918.90 89.46499
919.00 92.00363
919.10 95.91105
919.20 99.81846
919.30 98.18236
919.40 96.49027
919.50 93.72542
919.60 90.45576
919.70 88.94254
919.80 90.42005
919.90 91.89897
920.00 93.40002
920.10 94.90107
920.20 94.43209
920.30 93.30643
920.40 92.75212
920.50 92.92497
920.60 92.93105
920.70 91.82105
920.80 90.71104
920.90 86.98596
921.00 82.68683
921.10 80.35066
921.20 79.90048
921.30 79.82893
921.40 81.27192
921.50 82.71491
921.60 83.22417
921.70 83.61803
921.80 83.96999
921.90 84.2916
922.00 84.24744
922.10 83.2143
922.20 82.18117
922.30 81.50327
922.40 80.83636
922.50 80.10023
922.60 79.32843
922.70 79.10223
922.80 79.88928
922.90 80.64775
923.00 80.72053
923.10 80.79331
923.20 78.87896
923.30 76.22965
923.40 74.66978
923.50 74.6144
923.60 74.68183
923.70 75.743
923.80 76.80417
923.90 76.94727
924.00 76.86084
924.10 77.32986
924.20 78.37698
924.30 79.60006
924.40 81.62474
924.50 83.64942
924.60 82.77884
924.70 81.47563
924.80 79.84537
924.90 77.96839
925.00 76.59584
925.10 76.65899
925.20 76.72213
925.30 76.57532
925.40 76.41746
925.50 77.01897
925.60 78.04763
925.70 79.68068
925.80 82.54084
925.90 85.33601
926.00 84.9467
926.10 84.55739
926.20 83.38007
926.30 81.88089
926.40 81.07338
926.50 81.30335
926.60 81.75043
926.70 84.39272
926.80 87.03501
926.90 87.69516
927.00 87.82841
927.10 87.43123
927.20 86.45943
927.30 85.35644
927.40 83.61298
927.50 81.86951
927.60 79.97797
927.70 78.06233
927.80 76.10136
927.90 74.1033
928.00 72.89282
928.10 74.17634
928.20 75.45986
928.30 76.69371
928.40 77.92382
928.50 79.55978
928.60 81.43408
928.70 82.17814
928.80 80.52043
928.90 78.87678
929.00 78.62473
929.10 78.37268
929.20 77.61709
929.30 76.64569
929.40 76.22703
929.50 76.67293
929.60 77.14265
929.70 77.88622
929.80 78.6298
929.90 77.44392
930.00 75.71383
930.10 74.05838
930.20 72.48709
930.30 71.31679
930.40 72.25167
930.50 73.18655
930.60 73.27447
930.70 73.21293
930.80 73.37115
930.90 73.71658
931.00 74.31996
931.10 75.78689
931.20 77.25383
931.30 78.7495
931.40 80.24767
931.50 80.44239
931.60 79.83823
931.70 78.96954
931.80 78.05257
931.90 77.31576
932.00 76.60841
932.10 76.85348
932.20 77.09856
932.30 77.35134
932.40 77.6213
932.50 77.89125
932.60 77.7651
932.70 77.36369
932.80 76.96228
932.90 77.05679
933.00 77.2254
933.10 77.3708
933.20 77.38471
933.30 77.39862
933.40 77.30673
933.50 77.08018
933.60 76.85362
933.70 77.24453
933.80 77.87556
933.90 78.5066
934.00 79.12115
934.10 79.73571
934.20 79.89369
934.30 78.87761
934.40 77.86153
934.50 77.92193
934.60 78.82814
934.70 79.73436
934.80 80.58856
934.90 81.43285
935.00 82.00897
935.10 80.61852
935.20 79.22807
935.30 78.24881
935.40 77.86126
935.50 77.47371
935.60 77.31884
935.70 77.26851
935.80 77.21817
935.90 78.31842
936.00 79.45426
936.10 80.6928
936.20 82.23948
936.30 83.78615
936.40 84.08398
936.50 83.27435
936.60 82.46471
936.70 81.84311
936.80 81.26563
936.90 80.61298
937.00 79.28377
937.10 77.95455
937.20 76.98784
937.30 76.61256
937.40 76.23728
937.50 76.57648
937.60 77.28375
937.70 77.99102
937.80 78.30526
937.90 78.59442
938.00 78.80308
938.10 78.72633
938.20 78.64958
938.30 78.7288
938.40 78.95785
938.50 79.1869
938.60 79.50437
938.70 79.84533
938.80 80.20415
938.90 80.8001
939.00 81.39606
939.10 81.87339
939.20 82.13982
939.30 82.40626
939.40 82.45651
939.50 82.38515
939.60 82.3138
939.70 81.00286
939.80 79.58413
939.90 78.5671
940.00 79.06122
940.10 79.55534
940.20 79.9438
940.30 80.22227
940.40 80.50075
940.50 81.38743
940.60 82.45577
940.70 83.5369
940.80 84.86087
940.90 86.18483
941.00 87.0488
941.10 87.01983
941.20 86.99086
941.30 86.41776
941.40 85.51117
941.50 84.60458
941.60 83.24547
941.70 81.84161
941.80 80.68931
941.90 80.60944
942.00 80.52956
942.10 80.88905
942.20 81.74398
942.30 82.59892
942.40 82.93354
942.50 83.10385
942.60 83.23956
942.70 82.54467
942.80 81.84979
942.90 81.81083
943.00 83.1657
943.10 84.52057
943.20 85.77565
943.30 86.96693
943.40 88.15821
943.50 88.2453
943.60 88.19592
943.70 87.9571
943.80 86.85524
943.90 85.75337
944.00 84.62334
944.10 83.46024
944.20 82.29713
944.30 81.77363
944.40 81.47486
944.50 81.20108
944.60 81.73565
944.70 82.27022
944.80 82.79985
944.90 83.31849
945.00 83.83713
945.10 84.30561
945.20 84.74065
945.30 85.1757
945.40 84.78143
945.50 84.27408
945.60 83.87945
945.70 84.0351
945.80 84.19076
945.90 84.04801
946.00 83.54055
946.10 83.03308
946.20 83.87744
946.30 85.19677
946.40 86.48932
946.50 86.46994
946.60 86.45055
946.70 86.53657
946.80 86.8572
946.90 87.17783
947.00 87.52021
947.10 87.87772
947.20 88.23522
947.30 88.4051
947.40 88.5494
947.50 88.77948
947.60 89.45993
947.70 90.14039
947.80 90.66455
947.90 90.99768
948.00 91.3308
948.10 91.68181
948.20 92.03943
948.30 92.40489
948.40 93.15442
948.50 93.90396
948.60 94.36308
948.70 94.14459
948.80 93.92609
948.90 94.01689
949.00 94.32263
949.10 94.62836
949.20 94.81562
949.30 94.98673
949.40 94.88938
949.50 93.38261
949.60 91.87584
949.70 91.38748
949.80 92.14383
949.90 92.90018
950.00 93.24467
950.10 93.43682
950.20 93.63769
950.30 94.26557
950.40 94.89346
950.50 95.09054
950.60 94.32874
950.70 93.56693
950.80 93.4195
950.90 93.699
951.00 93.97851
951.10 94.08851
951.20 94.17541
951.30 94.07528
951.40 93.06204
951.50 92.0488
951.60 91.27276
951.70 90.78662
951.80 90.30048
951.90 89.9749
952.00 89.70574
952.10 89.45922
952.20 90.32168
952.30 91.18414
952.40 92.28819
952.50 93.92998
952.60 95.57176
952.70 96.59496
952.80 97.20577
952.90 97.81658
953.00 97.55681
953.10 97.17832
953.20 96.76885
953.30 96.20813
953.40 95.64741
953.50 94.67029
953.60 93.20435
953.70 91.73841
953.80 91.56373
953.90 91.81949
954.00 92.05475
954.10 91.62734
954.20 91.19993
954.30 90.9121
954.40 90.92088
954.50 90.92966
954.60 91.3325
954.70 91.98728
954.80 92.64205
954.90 92.82521
955.00 92.95008
955.10 93.08384
955.20 93.25809
955.30 93.43234
955.40 93.71073
955.50 94.10655
955.60 94.50237
955.70 95.47081
955.80 96.62007
955.90 97.7446
956.00 98.39927
956.10 99.05393
956.20 99.12425
956.30 98.00817
956.40 96.89209
956.50 96.1185
956.60 95.55482
956.70 94.99113
956.80 95.98177
956.90 97.12613
957.00 98.19146
957.10 98.94068
957.20 99.6899
957.30 99.60508
957.40 98.65217
957.50 97.69926
957.60 96.44255
957.70 95.09509
957.80 93.79975
957.90 93.32103
958.00 92.8423
958.10 92.75943
958.20 93.41172
958.30 94.06401
958.40 94.44458
958.50 94.67231
958.60 94.90005
958.70 93.92152
958.80 92.85219
958.90 91.58019
959.00 89.58962
959.10 87.59904
959.20 87.04028
959.30 87.91334
959.40 88.78641
959.50 89.47191
959.60 90.10755
959.70 90.5331
959.80 88.54259
959.90 86.55208
960.00 85.10763
960.10 84.59299
960.20 84.07834
960.30 85.424
960.40 87.728
960.50 90.032
960.60 91.27128
960.70 92.45452
960.80 93.42216
960.90 93.70702
961.00 93.99189
961.10 93.9954
961.20 93.74943
961.30 93.50345
961.40 92.62245
961.50 91.60205
961.60 90.7247
961.70 91.13477
961.80 91.54485
961.90 92.57076
962.00 94.55991
962.10 96.54905
962.20 97.21078
962.30 97.24784
962.40 97.2849
962.50 97.03447
962.60 96.77515
962.70 96.6046
962.80 96.68671
962.90 96.76882
963.00 96.36691
963.10 95.569
963.20 94.77108
963.30 93.68579
963.40 92.54577
963.50 91.3079
963.60 89.41523
963.70 87.52256
963.80 84.7922
963.90 80.90503
964.00 77.01786
964.10 77.10474
964.20 78.81484
964.30 80.52493
964.40 83.72196
964.50 86.91898
964.60 89.20209
964.70 89.24771
964.80 89.29332
964.90 89.45243
965.00 89.69374
965.10 89.93504
965.20 89.94914
965.30 89.9293
965.40 89.96701
965.50 90.30684
965.60 90.64667
965.70 91.47472
965.80 92.8995
965.90 94.32427
966.00 95.51454
966.10 96.6224
966.20 97.70896
966.30 98.1066
966.40 98.50423
966.50 98.61119
966.60 98.12802
966.70 97.64484
966.80 97.32485
966.90 97.10488
967.00 96.8849
967.10 96.68661
967.20 96.49047
967.30 96.14783
967.40 95.21923
967.50 94.29063
967.60 92.57985
967.70 90.05496
967.80 87.53007
967.90 88.11198
968.00 89.57017
968.10 91.10271
968.20 93.62303
968.30 96.14336
968.40 97.36768
968.50 96.28798
968.60 95.20828
968.70 93.83275
968.80 92.29793
968.90 90.76311
969.00 90.75913
969.10 90.85287
969.20 91.37719
969.30 93.34303
969.40 95.30886
969.50 96.84234
969.60 97.9924
969.70 99.14246
969.80 99.57016
969.90 99.83928
970.00 100.0821
970.10 100.1122
970.20 100.1423
970.30 99.79903
970.40 98.89563
970.50 97.99223
970.60 95.73875
970.70 92.87871
970.80 90.01866
970.90 90.99096
971.00 92.04146
971.10 93.69759
971.20 96.91104
971.30 100.1245
971.40 102.1981
971.50 103.4119
971.60 104.6257
971.70 105.1007
971.80 105.4553
971.90 105.6006
972.00 104.5595
972.10 103.5183
972.20 102.4513
972.30 101.3515
972.40 100.2517
972.50 99.90907
972.60 99.83255
972.70 99.70521
972.80 97.93444
972.90 96.16368
973.00 94.27001
973.10 92.11517
973.20 89.96033
973.30 90.37636
973.40 92.43605
973.50 94.49575
973.60 95.15142
973.70 95.66823
973.80 96.13243
973.90 96.38616
974.00 96.6399
974.10 96.31093
974.20 95.37549
974.30 94.44004
974.40 92.66072
974.50 90.64338
974.60 88.83492
974.70 89.42871
974.80 90.0225
974.90 90.85034
975.00 92.07669
975.10 93.30304
975.20 94.27681
975.30 95.12045
975.40 95.9641
975.50 96.67457
975.60 97.37804
975.70 98.01662
975.80 98.46057
975.90 98.90451
976.00 99.09112
976.10 99.0585
976.20 99.02589
976.30 98.69905
976.40 98.31195
976.50 98.12088
976.60 99.24175
976.70 100.3626
976.80 100.9045
976.90 100.6468
977.00 100.389
977.10 98.74562
977.20 96.53621
977.30 94.35915
977.40 95.38469
977.50 96.41022
977.60 97.57841
977.70 99.07948
977.80 100.5805
977.90 101.0068
978.00 100.686
978.10 100.3653
978.20 98.52836
978.30 96.50397
978.40 94.48702
978.50 92.50392
978.60 90.52082
978.70 89.65855
978.80 90.06019
978.90 90.46182
979.00 91.48049
979.10 92.68347
979.20 93.99784
979.30 97.05745
979.40 100.1171
979.50 102.3487
979.60 103.1083
979.70 103.8679
979.80 104.1035
979.90 104.0571
980.00 104.0107
980.10 104.1408
980.20 104.2822
980.30 104.3519
980.40 104.1947
980.50 104.0376
980.60 103.6143
980.70 102.955
980.80 102.2958
980.90 102.3382
981.00 102.5245
981.10 102.8115
981.20 103.8377
981.30 104.864
981.40 104.6601
981.50 102.7577
981.60 100.8552
981.70 99.80497
981.80 99.10284
981.90 98.40072
982.00 99.27244
982.10 100.1442
982.20 100.6744
982.30 100.4079
982.40 100.1414
982.50 100.2839
982.60 100.7106
982.70 101.1373
982.80 101.3292
982.90 101.492
983.00 101.5326
983.10 101.0163
983.20 100.5
983.30 100.2268
983.40 100.2171
983.50 100.2074
983.60 99.72752
983.70 99.10715
983.80 98.57764
983.90 99.25525
984.00 99.93285
984.10 100.6104
984.20 101.2877
984.30 101.9651
984.40 102.0149
984.50 101.7415
984.60 101.468
984.70 102.1535
984.80 102.8895
984.90 103.2777
985.00 102.6224
985.10 101.9671
985.20 101.115
985.30 100.095
985.40 99.07506
985.50 99.80167
985.60 100.861
985.70 101.8839
985.80 102.6636
985.90 103.4433
986.00 103.7991
986.10 103.593
986.20 103.387
986.30 103.4028
986.40 103.5049
986.50 103.6128
986.60 104.0052
986.70 104.3975
986.80 104.1482
986.90 102.5353
987.00 100.9223
987.10 100.2142
987.20 100.0845
987.30 99.95481
987.40 102.144
987.50 104.5625
987.60 106.5203
987.70 106.6356
987.80 106.7508
987.90 105.7935
988.00 103.7637
988.10 101.7339
988.20 101.671
988.30 102.0997
988.40 102.6937
988.50 104.9572
988.60 107.2207
988.70 108.5055
988.80 108.2593
988.90 108.0131
989.00 107.184
989.10 106.0806
989.20 104.9772
989.30 103.5851
989.40 102.1871
989.50 100.1576
989.60 96.50418
989.70 92.85079
989.80 88.89896
989.90 84.722
990.00 80.54504
990.10 79.05096
990.20 77.95776
990.30 76.61749
990.40 74.07093
990.50 71.52438
990.60 68.56849
990.70 65.13208
990.80 61.69567
990.90 60.83875
991.00 60.7964
991.10 60.82005
991.20 61.87774
991.30 62.93544
991.40 62.98861
991.50 61.17627
991.60 59.36392
991.70 58.5378
991.80 58.24272
991.90 57.94765
992.00 60.53846
992.10 63.28116
992.20 65.25534
992.30 64.79591
992.40 64.33647
992.50 63.27421
992.60 61.69845
992.70 60.1227
992.80 61.87605
992.90 64.26353
993.00 66.74131
993.10 69.82347
993.20 72.90562
993.30 74.16412
993.40 73.00523
993.50 71.84633
993.60 71.64706
993.70 71.80272
993.80 72.07072
993.90 75.9709
994.00 79.87107
994.10 82.7773
994.20 83.57142
994.30 84.36554
994.40 84.16665
994.50 83.35914
994.60 82.55163
994.70 82.89032
994.80 83.32867
994.90 84.02088
995.00 85.66807
995.10 87.31525
995.20 88.79291
995.30 90.1077
995.40 91.4225
995.50 91.65015
995.60 91.62279
995.70 91.33411
995.80 88.93104
995.90 86.52797
996.00 84.83683
996.10 84.17017
996.20 83.50351
996.30 84.78912
996.40 86.91142
996.50 89.03373
996.60 92.287
996.70 95.54027
996.80 96.71044
996.90 93.02005
997.00 89.32966
997.10 84.93164
997.20 80.06186
997.30 75.19208
997.40 74.335
997.50 73.92379
997.60 74.06314
997.70 76.54965
997.80 79.03616
997.90 81.22363
998.00 83.09984
998.10 84.97605
998.20 85.62587
998.30 85.94967
998.40 86.03715
998.50 83.73515
998.60 81.43315
998.70 80.01321
998.80 79.97292
998.90 79.93263
999.00 79.66741
999.10 79.30112
999.20 78.93483
999.30 78.83295
999.40 78.73646
999.50 78.86748
999.60 79.58354
999.70 80.2996
999.80 80.53888
999.90 80.4329
1000.00 80.32693
1000.10 83.27044
1000.20 86.55279
1000.30 89.58326
1000.40 91.60621
1000.50 93.62916
1000.60 94.5244
1000.70 94.29193
1000.80 94.05947
1000.90 91.74366
1001.00 88.90702
1001.10 86.19925
1001.20 84.6513
1001.30 83.10336
1001.40 83.05071
1001.50 85.241
1001.60 87.43129
1001.70 89.84616
1001.80 92.35728
1001.90 94.8684
1002.00 93.90934
1002.10 92.95029
1002.20 92.12642
1002.30 91.618
1002.40 91.10957
1002.50 91.81189
1002.60 93.32138
1002.70 94.83086
1002.80 93.98495
1002.90 92.87733
1003.00 91.92089
1003.10 91.56916
1003.20 91.21742
1003.30 90.37924
1003.40 89.0546
1003.50 87.72997
1003.60 86.00298
1003.70 84.17542
1003.80 82.6128
1003.90 83.43473
1004.00 84.25666
1004.10 86.00488
1004.20 89.14255
1004.30 92.28022
1004.40 94.40908
1004.50 96.1056
1004.60 97.80211
1004.70 97.331
1004.80 96.85988
1004.90 95.48136
1005.00 91.98555
1005.10 88.48974
1005.20 84.53373
1005.30 80.27093
1005.40 76.00812
1005.50 74.22279
1005.60 72.71273
1005.70 71.94167
1005.80 74.12658
1005.90 76.31149
1006.00 78.61715
1006.10 81.04357
1006.20 83.46999
1006.30 83.33958
1006.40 82.56995
1006.50 82.00863
1006.60 83.32205
1006.70 84.63547
1006.80 86.82157
1006.90 90.3167
1007.00 93.81182
1007.10 94.13206
1007.20 93.09162
1007.30 92.05119
1007.40 91.66924
1007.50 91.28729
1007.60 91.72069
1007.70 94.05657
1007.80 96.39245
1007.90 97.60137
1008.00 98.05898
1008.10 98.51659
1008.20 98.73654
1008.30 98.93009
1008.40 99.26111
1008.50 100.142
1008.60 101.0229
1008.70 100.9265
1008.80 99.85286
1008.90 98.77924
1009.00 96.22149
1009.10 93.2927
1009.20 90.55778
1009.30 89.5676
1009.40 88.57741
1009.50 88.93633
1009.60 91.31891
1009.70 93.7015
1009.80 96.73066
1009.90 100.0369
1010.00 103.3432
1010.10 106.4905
1010.20 109.6378
1010.30 111.6654
1010.40 111.0805
1010.50 110.4956
1010.60 109.2503
1010.70 107.5646
1010.80 105.879
1010.90 104.084
1011.00 102.2768
1011.10 100.289
1011.20 97.57895
1011.30 94.8689
1011.40 93.16294
1011.50 92.46108
1011.60 91.75922
1011.70 90.705
1011.80 89.5627
1011.90 88.68585
1012.00 90.19808
1012.10 91.71032
1012.20 94.49671
1012.30 99.19434
1012.40 103.892
1012.50 106.4834
1012.60 108.1721
1012.70 109.8608
1012.80 108.5335
1012.90 107.2061
1013.00 106.2401
1013.10 106.1174
1013.20 105.9947
1013.30 104.7805
1013.40 102.8386
1013.50 100.8966
1013.60 95.97414
1013.70 90.72046
1013.80 86.34675
1013.90 85.49289
1014.00 84.63902
1014.10 85.53815
1014.20 88.19029
1014.30 90.84242
1014.40 93.03516
1014.50 95.11305
1014.60 96.78115
1014.70 94.76106
1014.80 92.74097
1014.90 91.84194
1015.00 92.62449
1015.10 93.40705
1015.20 95.98633
1015.30 99.33563
1015.40 102.6849
1015.50 101.0777
1015.60 99.47047
1015.70 97.43696
1015.80 94.40883
1015.90 91.3807
1016.00 90.4276
1016.10 90.85785
1016.20 91.2881
1016.30 92.51516
1016.40 93.83075
1016.50 95.06433
1016.60 95.96981
1016.70 96.8753
1016.80 97.82577
1016.90 98.82122
1017.00 99.81667
1017.10 98.03827
1017.20 95.56641
1017.30 93.57949
1017.40 95.95704
1017.50 98.33458
1017.60 101.1298
1017.70 104.5516
1017.80 107.9733
1017.90 106.3837
1018.00 102.6464
1018.10 98.90909
1018.20 97.20674
1018.30 95.50439
1018.40 93.87627
1018.50 92.42138
1018.60 90.96649
1018.70 90.35927
1018.80 90.31714
1018.90 90.27502
1019.00 92.71748
1019.10 95.436
1019.20 97.80082
1019.30 98.75083
1019.40 99.70084
1019.50 99.97159
1019.60 99.56309
1019.70 99.15458
1019.80 99.39776
1019.90 99.80386
1020.00 100.1025
1020.10 99.43445
1020.20 98.76635
1020.30 98.57147
1020.40 99.08642
1020.50 99.60137
1020.60 100.4802
1020.70 101.5151
1020.80 102.5499
1020.90 102.4732
1021.00 102.3965
1021.10 101.8319
1021.20 100.1287
1021.30 98.42558
1021.40 96.20963
1021.50 93.65181
1021.60 91.09399
1021.70 89.35049
1021.80 87.69747
1021.90 86.22665
1022.00 85.48459
1022.10 84.74254
1022.20 85.2701
1022.30 86.64407
1022.40 88.01804
1022.50 90.99304
1022.60 94.14593
1022.70 96.74898
1022.80 97.15268
1022.90 97.55638
1023.00 97.22788
1023.10 96.16719
1023.20 95.10649
1023.30 94.52122
1023.40 94.0548
1023.50 93.87317
1023.60 96.25472
1023.70 98.63628
1023.80 100.3783
1023.90 101.1609
1024.00 101.9436
1024.10 103.2713
1024.20 104.8325
1024.30 106.3937
1024.40 105.9365
1024.50 105.4792
1024.60 104.4958
1024.70 102.2849
1024.80 100.0741
1024.90 98.68521
1025.00 97.84439
1025.10 97.00357
1025.20 94.76178
1025.30 92.36432
1025.40 90.59865
1025.50 91.36014
1025.60 92.12164
1025.70 92.72982
1025.80 93.18468
1025.90 93.63954
1026.00 90.68031
1026.10 86.86756
1026.20 83.32838
1026.30 82.25132
1026.40 81.17426
1026.50 81.38734
1026.60 83.53562
1026.70 85.68391
1026.80 89.45441
1026.90 93.92015
1027.00 98.38589
1027.10 99.2797
1027.20 100.1735
1027.30 100.267
1027.40 98.49327
1027.50 96.7195
1027.60 94.76957
1027.70 92.70221
1027.80 90.63485
1027.90 90.29852
1028.00 90.15453
1028.10 89.73058
1028.20 88.18675
1028.30 86.64293
1028.40 85.45576
1028.50 84.62524
1028.60 83.79472
1028.70 87.33289
1028.80 91.96322
1028.90 96.2994
1029.00 97.98824
1029.10 99.67709
1029.20 99.80854
1029.30 97.6039
1029.40 95.39925
1029.50 95.14412
1029.60 95.37635
1029.70 95.53414
1029.80 95.02182
1029.90 94.5095
1030.00 93.87022
1030.10 93.04051
1030.20 92.21079
1030.30 92.27547
1030.40 92.72347
1030.50 93.17146
1030.60 96.25178
1030.70 99.33211
1030.80 101.1954
1030.90 100.2188
1031.00 99.24223
1031.10 98.59277
1031.20 98.16137
1031.30 97.72998
1031.40 99.06608
1031.50 100.5986
1031.60 101.4138
1031.70 99.35981
1031.80 97.30584
1031.90 95.57979
1032.00 94.18167
1032.10 92.78356
1032.20 92.75061
1032.30 93.05897
1032.40 93.16506
1032.50 91.45081
1032.60 89.73655
1032.70 90.06635
1032.80 93.46224
1032.90 96.85813
1033.00 100.5149
1033.10 104.2835
1033.20 108.052
1033.30 108.9153
1033.40 109.7785
1033.50 109.0902
1033.60 104.7815
1033.70 100.4728
1033.80 96.88931
1033.90 93.7893
1034.00 90.68929
1034.10 91.04547
1034.20 91.78568
1034.30 92.20144
1034.40 91.31942
1034.50 90.4374
1034.60 90.20298
1034.70 90.61618
1034.80 91.02938
1034.90 92.70856
1035.00 94.70425
1035.10 96.0209
1035.20 94.6214
1035.30 93.22191
1035.40 93.08399
1035.50 94.20763
1035.60 95.33128
1035.70 96.44504
1035.80 97.55632
1035.90 98.78549
1036.00 101.0756
1036.10 103.3657
1036.20 105.179
1036.30 106.2773
1036.40 107.3755
1036.50 107.4979
1036.60 107.2022
1036.70 106.9064
1036.80 107.3431
1036.90 107.7797
1037.00 108.7206
1037.10 110.838
1037.20 112.9554
1037.30 114.5093
1037.40 115.6875
1037.50 116.8658
1037.60 114.7723
1037.70 112.3153
1037.80 109.4282
1037.90 104.8205
1038.00 100.2129
1038.10 96.65056
1038.20 94.1336
1038.30 91.61665
1038.40 93.09257
1038.50 95.56672
1038.60 98.0549
1038.70 100.6694
1038.80 103.2839
1038.90 104.4164
1039.00 103.3261
1039.10 102.2357
1039.20 101.339
1039.30 100.5254
1039.40 99.71167
1039.50 98.79553
1039.60 97.8794
1039.70 97.34862
1039.80 97.71697
1039.90 98.08532
1040.00 99.12043
1040.10 100.4413
1040.20 101.7621
1040.30 103.9377
1040.40 106.1132
1040.50 107.8165
1040.60 108.4181
1040.70 109.0197
1040.80 109.6281
1040.90 110.2411
1041.00 110.854
1041.10 108.6041
1041.20 106.0361
1041.30 103.4653
1041.40 100.8836
1041.50 98.30184
1041.60 98.35724
1041.70 101.0498
1041.80 103.7423
1041.90 107.4352
1042.00 111.3782
1042.10 114.6743
1042.20 112.148
1042.30 109.6216
1042.40 107.027
1042.50 104.3302
1042.60 101.6333
1042.70 98.33436
1042.80 94.77742
1042.90 91.22049
1043.00 91.80744
1043.10 92.39438
1043.20 94.54919
1043.30 100.3623
1043.40 106.1755
1043.50 109.8454
1043.60 112.0863
1043.70 114.3273
1043.80 113.698
1043.90 112.7497
1044.00 112.043
1044.10 112.303
1044.20 112.5629
1044.30 112.4864
1044.40 112.1855
1044.50 111.8845
1044.60 111.5436
1044.70 111.1981
1044.80 111.007
1044.90 111.4331
1045.00 111.8593
1045.10 113.9208
1045.20 117.6179
1045.30 121.3149
1045.40 123.829
1045.50 126.0473
1045.60 127.9926
1045.70 127.4805
1045.80 126.9684
1045.90 125.021
1046.00 120.9205
1046.10 116.82
1046.20 113.067
1046.30 109.4631
1046.40 105.8591
1046.50 104.8821
1046.60 103.905
1046.70 102.8347
1046.80 101.5466
1046.90 100.2584
1047.00 98.87623
1047.10 97.4313
1047.20 95.98636
1047.30 96.85593
1047.40 97.98267
1047.50 99.06458
1047.60 99.96721
1047.70 100.8698
1047.80 100.9961
1047.90 100.3461
1048.00 99.69611
1048.10 99.61032
1048.20 99.6656
1048.30 100.2292
1048.40 102.8259
1048.50 105.4226
1048.60 106.8799
1048.70 107.1978
1048.80 107.5156
1048.90 107.3615
1049.00 107.0895
1049.10 106.9179
1049.20 107.6509
1049.30 108.3839
1049.40 108.7225
1049.50 108.4694
1049.60 108.2163
1049.70 105.8562
1049.80 102.5931
1049.90 99.33
1050.00 100.3146
1050.10 101.2992
1050.20 102.4358
1050.30 103.9273
1050.40 105.4189
1050.50 105.7758
1050.60 105.3765
1050.70 104.9772
1050.80 104.5376
1050.90 104.0936
1051.00 103.5534
1051.10 102.6281
1051.20 101.7028
1051.30 99.98473
1051.40 97.47384
1051.50 94.96295
1051.60 94.99108
1051.70 95.65397
1051.80 96.21579
1051.90 96.37328
1052.00 96.53078
1052.10 96.66618
1052.20 96.7795
1052.30 96.89281
1052.40 98.23496
1052.50 99.88432
1052.60 101.636
1052.70 104.3089
1052.80 106.9817
1052.90 108.3574
1053.00 107.7874
1053.10 107.2174
1053.20 106.0195
1053.30 104.5525
1053.40 103.0855
1053.50 104.3064
1053.60 105.5273
1053.70 106.3473
1053.80 106.2318
1053.90 106.1164
1054.00 105.31
1054.10 104.043
1054.20 102.7761
1054.30 103.9291
1054.40 105.3511
1054.50 106.0247
1054.60 103.7053
1054.70 101.3859
1054.80 99.48183
1054.90 97.99306
1055.00 96.50429
1055.10 98.494
1055.20 101.3533
1055.30 103.6843
1055.40 103.9019
1055.50 104.1195
1055.60 103.0445
1055.70 100.6769
1055.80 98.30931
1055.90 96.63095
1056.00 95.1249
1056.10 93.69204
1056.20 92.91795
1056.30 92.14387
1056.40 91.86214
1056.50 92.31894
1056.60 92.77575
1056.70 93.71857
1056.80 94.86969
1056.90 96.0208
1057.00 95.88826
1057.10 95.75572
1057.20 96.08776
1057.30 97.50385
1057.40 98.91994
1057.50 100.093
1057.60 101.104
1057.70 102.115
1057.80 101.9337
1057.90 101.6198
1058.00 101.4315
1058.10 101.7455
1058.20 102.0595
1058.30 102.0317
1058.40 101.6623
1058.50 101.2929
1058.60 99.66995
1058.70 97.90773
1058.80 96.37975
1058.90 95.78868
1059.00 95.19761
1059.10 94.93688
1059.20 95.00647
1059.30 95.07606
1059.40 96.05913
1059.50 97.27056
1059.60 98.47101
1059.70 99.57256
1059.80 100.6741
1059.90 100.8947
1060.00 99.79368
1060.10 98.69269
1060.20 98.13557
1060.30 97.81154
1060.40 97.48751
1060.50 96.38057
1060.60 95.27364
1060.70 94.16221
1060.80 93.04028
1060.90 91.91835
1061.00 91.85155
1061.10 92.48817
1061.20 93.12479
1061.30 95.03784
1061.40 97.09272
1061.50 98.86301
1061.60 99.96926
1061.70 101.0755
1061.80 101.0706
1061.90 100.3249
1062.00 99.57918
1062.10 98.32315
1062.20 97.01042
1062.30 96.16587
1062.40 97.19406
1062.50 98.22224
1062.60 99.87068
1062.70 102.1394
1062.80 104.4081
1062.90 106.2624
1063.00 108.0132
1063.10 109.4668
1063.20 108.246
1063.30 107.0252
1063.40 106.1071
1063.50 105.643
1063.60 105.179
1063.70 105.6055
1063.80 106.4136
1063.90 107.2216
1064.00 108.3763
1064.10 109.531
1064.20 110.2893
1064.30 110.1231
1064.40 109.9568
1064.50 109.663
1064.60 109.3146
1064.70 108.9662
1064.80 109.2273
1064.90 109.4883
1065.00 109.6996
1065.10 109.7947
1065.20 109.8899
1065.30 108.5538
1065.40 106.2636
1065.50 103.9733
1065.60 102.346
1065.70 100.7924
1065.80 99.54427
1065.90 99.51852
1066.00 99.49276
1066.10 99.03126
1066.20 98.13402
1066.30 97.23677
1066.40 95.69682
1066.50 93.99618
1066.60 92.559
1066.70 93.49287
1066.80 94.42674
1066.90 94.84308
1067.00 94.4831
1067.10 94.12313
1067.20 94.6211
1067.30 95.48677
1067.40 96.55995
1067.50 99.50075
1067.60 102.4416
1067.70 104.6516
1067.80 105.7657
1067.90 106.8797
1068.00 107.5852
1068.10 108.1156
1068.20 108.646
1068.30 111.6488
1068.40 114.6517
1068.50 117.1306
1068.60 118.387
1068.70 119.6434
1068.80 119.4806
1068.90 118.3716
1069.00 117.2626
1069.10 116.6643
1069.20 116.1228
1069.30 115.4367
1069.40 114.1719
1069.50 112.9071
1069.60 110.6946
1069.70 107.5344
1069.80 104.3742
1069.90 104.2137
1070.00 104.8031
1070.10 105.1408
1070.20 104.4715
1070.30 103.8021
1070.40 103.7206
1070.50 104.227
1070.60 104.7333
1070.70 106.6671
1070.80 108.9576
1070.90 110.9027
1071.00 109.7387
1071.10 108.5746
1071.20 107.8695
1071.30 107.8526
1071.40 107.8358
1071.50 109.0715
1071.60 110.844
1071.70 112.6165
1071.80 112.058
1071.90 111.4994
1072.00 111.1451
1072.10 111.2672
1072.20 111.3893
1072.30 110.4206
1072.40 108.7247
1072.50 107.0287
1072.60 106.1019
1072.70 105.2604
1072.80 105.3309
1072.90 107.5292
1073.00 109.7275
1073.10 110.9467
1073.20 111.5132
1073.30 112.0797
1073.40 110.0103
1073.50 107.6481
1073.60 105.858
1073.70 106.3562
1073.80 106.8545
1073.90 107.9134
1074.00 109.5332
1074.10 111.1529
1074.20 112.5447
1074.30 113.8795
1074.40 115.0491
1074.50 114.7323
1074.60 114.4155
1074.70 114.4607
1074.80 115.0489
1074.90 115.6371
1075.00 115.0005
1075.10 113.839
1075.20 112.6774
1075.30 110.866
1075.40 109.0545
1075.50 108.0819
1075.60 108.3676
1075.70 108.6533
1075.80 110.5273
1075.90 113.0821
1076.00 115.6368
1076.10 115.5228
1076.20 115.4088
1076.30 115.1867
1076.40 114.7124
1076.50 114.2381
1076.60 113.9248
1076.70 113.7189
1076.80 113.513
1076.90 114.2797
1077.00 115.1545
1077.10 115.759
1077.20 115.2822
1077.30 114.8053
1077.40 114.0315
1077.50 112.9607
1077.60 111.89
1077.70 111.1622
1077.80 110.5202
1077.90 110.0654
1078.00 111.2951
1078.10 112.5249
1078.20 113.1122
1078.30 113.0572
1078.40 113.0021
1078.50 113.3094
1078.60 113.7073
1078.70 113.871
1078.80 111.9282
1078.90 109.9854
1079.00 108.409
1079.10 107.3823
1079.20 106.3556
1079.30 105.317
1079.40 104.2732
1079.50 103.2295
1079.60 104.1084
1079.70 104.9873
1079.80 105.9866
1079.90 107.2666
1080.00 108.5466
1080.10 109.472
1080.20 110.161
1080.30 110.8501
1080.40 111.3513
1080.50 111.8316
1080.60 112.4253
1080.70 113.2835
1080.80 114.1417
1080.90 114.6945
1081.00 115.0436
1081.10 115.3927
1081.20 115.4129
1081.30 115.3967
1081.40 115.4261
1081.50 115.6379
1081.60 115.8498
1081.70 116.7596
1081.80 118.3674
1081.90 119.9752
1082.00 119.6962
1082.10 118.9455
1082.20 118.1311
1082.30 116.7441
1082.40 115.3571
1082.50 114.1181
1082.60 113.1013
1082.70 112.0844
1082.80 111.9865
1082.90 112.2823
1083.00 112.6641
1083.10 113.8191
1083.20 114.9741
1083.30 116.2608
1083.40 117.7451
1083.50 119.2294
1083.60 119.2695
1083.70 118.6907
1083.80 118.1119
1083.90 117.891
1084.00 117.6701
1084.10 117.4472
1084.20 117.2196
1084.30 116.9921
1084.40 116.6698
1084.50 116.2845
1084.60 115.8991
1084.70 114.2625
1084.80 112.4869
1084.90 111.3265
1085.00 112.6273
1085.10 113.928
1085.20 114.6913
1085.30 114.9173
1085.40 115.1432
1085.50 114.4693
1085.60 113.6955
1085.70 113.4098
1085.80 115.0766
1085.90 116.7435
1086.00 118.5236
1086.10 120.4168
1086.20 122.3101
1086.30 123.0293
1086.40 123.455
1086.50 123.6966
1086.60 122.2814
1086.70 120.8662
1086.80 120.0331
1086.90 120.0729
1087.00 120.1127
1087.10 120.9204
1087.20 122.057
1087.30 123.1937
1087.40 121.7288
1087.50 120.2638
1087.60 118.9738
1087.70 118.0921
1087.80 117.2104
1087.90 117.7862
1088.00 118.9866
1088.10 120.1871
1088.20 119.0623
1088.30 117.9375
1088.40 117.2284
1088.50 117.4893
1088.60 117.7501
1088.70 118.0198
1088.80 118.2954
1088.90 118.5711
1089.00 118.1617
1089.10 117.6763
1089.20 117.2996
1089.30 117.3578
1089.40 117.4159
1089.50 117.3357
1089.60 117.1171
1089.70 116.8984
1089.80 118.58
1089.90 120.7366
1090.00 122.6518
1090.10 123.601
1090.20 124.5502
1090.30 124.9803
1090.40 124.8912
1090.50 124.8022
1090.60 123.9378
1090.70 122.8797
1090.80 121.6882
1090.90 119.2974
1091.00 116.9066
1091.10 115.1268
1091.20 114.2637
1091.30 113.4005
1091.40 114.0116
1091.50 115.2546
1091.60 116.4975
1091.70 118.5089
1091.80 120.5202
1091.90 122.0031
1092.00 122.2527
1092.10 122.5024
1092.20 122.2968
1092.30 121.7877
1092.40 121.2786
1092.50 121.1829
1092.60 121.0872
1092.70 121.1072
1092.80 121.3972
1092.90 121.6871
1093.00 121.5946
1093.10 121.2472
1093.20 120.8999
1093.30 120.4712
1093.40 120.0335
1093.50 119.6238
1093.60 119.326
1093.70 119.0281
1093.80 118.8529
1093.90 118.8003
1094.00 118.7476
1094.10 119.8319
1094.20 121.2005
1094.30 122.2422
1094.40 120.3417
1094.50 118.4413
1094.60 116.6449
1094.70 114.9526
1094.80 113.2603
1094.90 114.7373
1095.00 117.0066
1095.10 119.2753
1095.20 121.5396
1095.30 123.8038
1095.40 125.4652
1095.50 126.2225
1095.60 126.9798
1095.70 126.4175
1095.80 125.2897
1095.90 124.162
1096.00 124.8408
1096.10 125.5197
1096.20 126.0796
1096.30 126.362
1096.40 126.6443
1096.50 126.4736
1096.60 126.0007
1096.70 125.5279
1096.80 123.6539
1096.90 121.6242
1097.00 119.3846
1097.10 116.6551
1097.20 113.9256
1097.30 113.4116
1097.40 114.3747
1097.50 115.3378
1097.60 116.5547
1097.70 117.7999
1097.80 119.1038
1097.90 120.6422
1098.00 122.1807
1098.10 122.8063
1098.20 122.519
1098.30 122.2317
1098.40 121.3577
1098.50 120.3371
1098.60 119.3619
1098.70 118.7953
1098.80 118.2287
1098.90 118.0004
1099.00 118.2795
1099.10 118.5586
1099.20 119.2904
1099.30 120.1355
1099.40 120.9968
1099.50 122.0045
1099.60 123.0122
1099.70 123.5421
1099.80 123.3551
1099.90 123.1682
1100.00 122.7226
1100.10 122.1661
1100.20 121.6096
1100.30 120.4902
1100.40 119.3708
1100.50 118.4486
1100.60 117.9868
1100.70 117.525
1100.80 117.9686
1100.90 119.0159
1101.00 120.0632
1101.10 120.3668
1101.20 120.5878
1101.30 121.1918
1101.40 122.6899
1101.50 124.1879
1101.60 124.2851
1101.70 123.4484
1101.80 122.6117
1101.90 120.5157
1102.00 118.2797
1102.10 116.1729
1102.20 114.5825
1102.30 112.9921
1102.40 112.1408
1102.50 112.0286
1102.60 111.9164
1102.70 114.3212
1102.80 117.3552
1102.90 120.1836
1103.00 121.1626
1103.10 122.1416
1103.20 121.6442
1103.30 118.9322
1103.40 116.2203
1103.50 113.0521
1103.60 109.7699
1103.70 106.9084
1103.80 107.8339
1103.90 108.7595
1104.00 110.0408
1104.10 111.8557
1104.20 113.6707
1104.30 114.017
1104.40 113.7338
1104.50 113.4506
1104.60 114.2168
1104.70 114.983
1104.80 115.7441
1104.90 116.4931
1105.00 117.2421
1105.10 116.1517
1105.20 113.8351
1105.30 111.5184
1105.40 108.9246
1105.50 106.3
1105.60 104.5687
1105.70 104.9216
1105.80 105.2745
1105.90 106.1391
1106.00 107.3449
1106.10 108.5508
1106.20 108.5912
1106.30 108.5022
1106.40 108.6055
1106.50 109.4785
1106.60 110.3515
1106.70 110.4559
1106.80 109.7918
1106.90 109.1277
1107.00 107.7497
1107.10 106.1932
1107.20 104.9025
1107.30 106.0051
1107.40 107.1077
1107.50 108.071
1107.60 108.8254
1107.70 109.5799
1107.80 109.8605
1107.90 110.0227
1108.00 110.2453
1108.10 111.0113
1108.20 111.7774
1108.30 112.9288
1108.40 114.6583
1108.50 116.3878
1108.60 117.2303
1108.70 117.6927
1108.80 118.1552
1108.90 117.4768
1109.00 116.7984
1109.10 116.2352
1109.20 115.9408
1109.30 115.6464
1109.40 116.1013
1109.50 117.0558
1109.60 118.0103
1109.70 118.9093
1109.80 119.8022
1109.90 120.1517
1110.00 119.2334
1110.10 118.3151
1110.20 116.474
1110.30 114.0177
1110.40 111.5614
1110.50 109.6491
1110.60 107.7973
1110.70 106.5205
1110.80 107.5438
1110.90 108.567
1111.00 108.696
1111.10 107.9306
1111.20 107.1652
1111.30 106.596
1111.40 106.0759
1111.50 105.6433
1111.60 105.9981
1111.70 106.3529
1111.80 107.0014
1111.90 107.9435
1112.00 108.8856
1112.10 108.7948
1112.20 108.4458
1112.30 108.1758
1112.40 108.6166
1112.50 109.0574
1112.60 110.0199
1112.70 111.7649
1112.80 113.51
1112.90 114.9202
1113.00 116.1869
1113.10 117.4536
1113.20 117.3207
1113.30 117.1879
1113.40 116.9375
1113.50 116.4132
1113.60 115.8889
1113.70 114.4755
1113.80 112.4695
1113.90 110.4635
1114.00 111.3527
1114.10 112.2419
1114.20 113.3263
1114.30 114.8659
1114.40 116.4055
1114.50 117.7707
1114.60 119.0197
1114.70 120.2686
1114.80 118.8263
1114.90 117.0849
1115.00 115.6276
1115.10 115.3067
1115.20 114.9857
1115.30 115.3007
1115.40 116.2516
1115.50 117.2026
1115.60 117.2952
1115.70 117.1733
1115.80 116.9465
1115.90 115.775
1116.00 114.6035
1116.10 113.7141
1116.20 113.1069
1116.30 112.4997
1116.40 112.2853
1116.50 112.1692
1116.60 112.1438
1116.70 112.9359
1116.80 113.7279
1116.90 113.4612
1117.00 111.6064
1117.10 109.7516
1117.20 108.0628
1117.30 106.4452
1117.40 104.8275
1117.50 105.077
1117.60 105.3266
1117.70 105.6032
1117.80 105.9431
1117.90 106.2831
1118.00 107.2123
1118.10 108.5344
1118.20 109.8565
1118.30 112.0842
1118.40 114.3119
1118.50 116.1053
1118.60 116.885
1118.70 117.6647
1118.80 116.9713
1118.90 115.296
1119.00 114.5997
1119.10 114.1481
1119.20 113.6965
1119.30 113.2002
1119.40 112.6742
1119.50 112.1482
1119.60 111.5879
1119.70 110.9476
1119.80 110.3073
1119.90 109.7008
1120.00 109.3981
1120.10 109.0954
1120.20 108.7928
1120.30 109.7767
1120.40 111.0822
1120.50 112.3878
1120.60 113.6232
1120.70 114.7886
1120.80 115.954
1120.90 116.3655
1121.00 115.018
1121.10 113.6705
1121.20 112.323
1121.30 112.5592
1121.40 112.7954
1121.50 113.0316
1121.60 111.8638
1121.70 110.3449
1121.80 108.826
1121.90 107.703
1122.00 106.9757
1122.10 106.2485
1122.20 106.0636
1122.30 107.144
1122.40 108.2245
1122.50 109.3049
1122.60 112.3496
1122.70 115.3943
1122.80 118.439
1122.90 119.4463
1123.00 119.5804
1123.10 119.7146
1123.20 118.0672
1123.30 114.6384
1123.40 111.2095
1123.50 108.6493
1123.60 109.5634
1123.70 110.4774
1123.80 111.3915
1123.90 112.9071
1124.00 114.4227
1124.10 115.9383
1124.20 116.8247
1124.30 117.4413
1124.40 118.0579
1124.50 118.695
1124.60 119.3525
1124.70 120.01
1124.80 119.9015
1124.90 116.7292
1125.00 113.5569
1125.10 110.3845
1125.20 111.5211
1125.30 113.1366
1125.40 114.752
1125.50 116.3332
1125.60 117.8997
1125.70 119.4663
1125.80 119.9432
1125.90 118.7856
1126.00 117.6281
1126.10 116.7074
1126.20 116.7341
1126.30 116.7608
1126.40 116.7875
1126.50 117.2662
1126.60 117.7951
1126.70 118.3241
1126.80 118.1514
1126.90 117.678
1127.00 117.2046
1127.10 116.8533
1127.20 116.6851
1127.30 116.5169
1127.40 116.3043
1127.50 115.6919
1127.60 115.0795
1127.70 114.4671
1127.80 114.7563
1127.90 115.1457
1128.00 115.5351
1128.10 115.7791
1128.20 115.9261
1128.30 116.073
1128.40 116.3405
1128.50 116.7886
1128.60 117.2367
1128.70 117.5715
1128.80 116.8869
1128.90 116.2023
1129.00 115.5177
1129.10 114.971
1129.20 114.4396
1129.30 113.9083
1129.40 114.0817
1129.50 114.725
1129.60 115.3683
1129.70 116.4138
1129.80 118.0629
1129.90 119.712
1130.00 121.0922
1130.10 120.0526
1130.20 119.0131
1130.30 117.9736
1130.40 116.5067
1130.50 114.9924
1130.60 113.4781
1130.70 112.5333
1130.80 111.968
1130.90 111.4028
1131.00 111.2778
1131.10 112.1801
1131.20 113.0824
1131.30 113.963
1131.40 114.6492
1131.50 115.3354
1131.60 116.0215
1131.70 116.6002
1131.80 117.1521
1131.90 117.7039
1132.00 117.7468
1132.10 117.4505
1132.20 117.1542
1132.30 116.968
1132.40 117.0387
1132.50 117.1094
1132.60 117.1535
1132.70 116.9581
1132.80 116.7628
1132.90 116.5674
1133.00 116.1355
1133.10 115.6444
1133.20 115.1533
1133.30 114.4756
1133.40 113.6734
1133.50 112.8712
1133.60 111.8266
1133.70 110.2165
1133.80 108.6064
1133.90 107.0252
1134.00 105.7033
1134.10 104.3815
1134.20 103.0596
1134.30 103.7706
1134.40 104.9898
1134.50 106.209
1134.60 107.447
1134.70 108.7037
1134.80 109.9605
1134.90 111.2384
1135.00 112.5656
1135.10 113.8929
1135.20 115.2202
1135.30 114.2956
1135.40 113.371
1135.50 112.4464
1135.60 110.2228
1135.70 107.6746
1135.80 105.1263
1135.90 104.8783
1136.00 106.9305
1136.10 108.9827
1136.20 110.56
1136.30 111.029
1136.40 111.498
1136.50 111.9669
1136.60 110.7076
1136.70 109.4483
1136.80 108.1889
1136.90 107.0994
1137.00 106.0523
1137.10 105.0052
1137.20 103.8188
1137.30 102.4929
1137.40 101.167
1137.50 99.93207
1137.60 98.90933
1137.70 97.8866
1137.80 96.86386
1137.90 92.21407
1138.00 87.56428
1138.10 82.91449
1138.20 78.82993
1138.30 74.88667
1138.40 70.94342
1138.50 70.99842
1138.60 75.05167
1138.70 79.10492
1138.80 83.25541
1138.90 87.63282
1139.00 92.01023
1139.10 96.38763
1139.20 97.54682
1139.30 98.70601
1139.40 99.8652
1139.50 99.04053
1139.60 97.7199
1139.70 96.39928
1139.80 94.9554
1139.90 93.38829
1140.00 91.82118
1140.10 89.5476
1140.20 84.44816
1140.30 79.34871
1140.40 74.24927
1140.50 69.87083
1140.60 65.49239
1140.70 61.11395
1140.80 62.75553
1140.90 66.97711
1141.00 71.19869
1141.10 75.80937
1141.20 80.80917
1141.30 85.80896
1141.40 90.70069
1141.50 95.16013
1141.60 99.61957
1141.70 104.079
1141.80 105.3489
1141.90 106.6188
1142.00 107.8886
1142.10 108.8626
1142.20 109.7098
1142.30 110.5569
1142.40 111.0541
1142.50 111.2015
1142.60 111.3488
1142.70 111.5904
1142.80 112.2096
1142.90 112.8287
1143.00 113.4479
1143.10 112.9127
1143.20 112.3775
1143.30 111.8423
1143.40 111.714
1143.50 111.7602
1143.60 111.8063
1143.70 111.6014
1143.80 111.1455
1143.90 110.6895
1144.00 110.4857
1144.10 111.2908
1144.20 112.0958
1144.30 112.9009
1144.40 113.1321
1144.50 113.3633
1144.60 113.5945
1144.70 113.5829
1144.80 113.4672
1144.90 113.3515
1145.00 113.4846
1145.10 113.8664
1145.20 114.2482
1145.30 114.4685
1145.40 114.0432
1145.50 113.6179
1145.60 113.1926
1145.70 112.8286
1145.80 112.4646
1145.90 112.1006
1146.00 112.5125
1146.10 113.257
1146.20 114.0015
1146.30 114.4997
1146.40 114.7516
1146.50 115.0035
1146.60 115.3764
1146.70 116.2331
1146.80 117.0898
1146.90 117.9466
1147.00 116.8155
1147.10 115.6844
1147.20 114.5533
1147.30 114.5604
1147.40 115.0554
1147.50 115.5503
1147.60 116.2493
1147.70 117.1522
1147.80 118.0552
1147.90 118.7916
1148.00 118.8616
1148.10 118.9316
1148.20 119.0016
1148.30 117.9762
1148.40 116.9507
1148.50 115.9253
1148.60 116.047
1148.70 116.6605
1148.80 117.2739
1148.90 118.2742
1149.00 119.6613
1149.10 121.0485
1149.20 121.8588
1149.30 120.362
1149.40 118.8652
1149.50 117.3683
1149.60 117.5949
1149.70 117.8214
1149.80 118.0479
1149.90 118.5123
1150.00 119.0786
1150.10 119.645
1150.20 119.5436
1150.30 118.7747
1150.40 118.0057
1150.50 117.4684
1150.60 117.8572
1150.70 118.246
1150.80 118.6348
1150.90 119.3101
1151.00 119.9854
1151.10 120.6607
1151.20 120.8346
1151.30 120.7937
1151.40 120.7527
1151.50 120.2514
1151.60 119.2897
1151.70 118.3281
1151.80 117.6005
1151.90 117.8096
1152.00 118.0187
1152.10 118.2278
1152.20 116.8703
1152.30 115.5129
1152.40 114.1555
1152.50 113.4222
1152.60 112.9564
1152.70 112.4906
1152.80 112.7731
1152.90 113.8038
1153.00 114.8345
1153.10 115.578
1153.20 115.1729
1153.30 114.7678
1153.40 114.3626
1153.50 114.2737
1153.60 114.1849
1153.70 114.096
1153.80 114.8886
1153.90 116.059
1154.00 117.2294
1154.10 118.2676
1154.20 119.1735
1154.30 120.0795
1154.40 120.6316
1154.50 119.7685
1154.60 118.9054
1154.70 118.0424
1154.80 116.9822
1154.90 115.922
1155.00 114.8618
1155.10 115.0233
1155.20 115.4902
1155.30 115.9571
1155.40 116.3858
1155.50 116.7761
1155.60 117.1665
1155.70 117.7496
1155.80 118.7826
1155.90 119.8155
1156.00 120.8484
1156.10 120.2199
1156.20 119.5914
1156.30 118.9629
1156.40 119.3515
1156.50 119.9944
1156.60 120.6373
1156.70 120.7461
1156.80 120.3206
1156.90 119.8952
1157.00 119.3283
1157.10 118.4313
1157.20 117.5342
1157.30 116.6372
1157.40 116.6486
1157.50 116.6601
1157.60 116.6716
1157.70 116.8917
1157.80 117.164
1157.90 117.4362
1158.00 117.8443
1158.10 118.3882
1158.20 118.9321
1158.30 119.2036
1158.40 118.8394
1158.50 118.4752
1158.60 118.111
1158.70 117.5318
1158.80 116.9526
1158.90 116.3735
1159.00 115.6309
1159.10 114.8474
1159.20 114.064
1159.30 112.7061
1159.40 110.7738
1159.50 108.8415
1159.60 107.4596
1159.70 107.3619
1159.80 107.2641
1159.90 107.1663
1160.00 108.3544
1160.10 109.5425
1160.20 110.7305
1160.30 112.0428
1160.40 113.3861
1160.50 114.7293
1160.60 115.0528
1160.70 114.3565
1160.80 113.6602
1160.90 112.7426
1161.00 111.3084
1161.10 109.8743
1161.20 108.8097
1161.30 111.0711
1161.40 113.3326
1161.50 115.594
1161.60 117.1789
1161.70 118.5947
1161.80 120.0105
1161.90 119.8731
1162.00 118.7002
1162.10 117.5274
1162.20 116.6152
1162.30 116.3112
1162.40 116.0071
1162.50 115.8252
1162.60 116.7419
1162.70 117.6586
1162.80 118.5754
1162.90 119.6987
1163.00 120.8738
1163.10 122.0488
1163.20 122.495
1163.30 122.4554
1163.40 122.4158
1163.50 121.7796
1163.60 119.7512
1163.70 117.7228
1163.80 115.7135
1163.90 113.8756
1164.00 112.0376
1164.10 110.1997
1164.20 110.6032
1164.30 111.5671
1164.40 112.5311
1164.50 113.9358
1164.60 115.6343
1164.70 117.3329
1164.80 118.3999
1164.90 118.5194
1165.00 118.639
1165.10 118.6559
1165.20 117.7487
1165.30 116.8415
1165.40 115.9343
1165.50 115.03
1165.60 114.126
1165.70 113.222
1165.80 113.6039
1165.90 114.843
1166.00 116.0822
1166.10 117.3102
1166.20 118.5217
1166.30 119.7331
1166.40 120.7995
1166.50 120.5599
1166.60 120.3204
1166.70 120.0809
1166.80 119.5148
1166.90 118.9124
1167.00 118.3099
1167.10 117.7629
1167.20 117.2528
1167.30 116.7427
1167.40 116.1585
1167.50 115.4632
1167.60 114.768
1167.70 114.1003
1167.80 113.6803
1167.90 113.2603
1168.00 112.8403
1168.10 112.0437
1168.20 111.2054
1168.30 110.367
1168.40 108.5499
1168.50 106.3133
1168.60 104.0767
1168.70 100.7293
1168.80 95.71567
1168.90 90.70208
1169.00 85.34196
1169.10 78.59571
1169.20 71.84947
1169.30 65.10323
1169.40 66.83821
1169.50 69.51556
1169.60 72.19291
1169.70 77.73461
1169.80 84.50389
1169.90 91.27317
1170.00 96.8697
1170.10 100.7071
1170.20 104.5445
1170.30 107.9727
1170.40 109.7643
1170.50 111.5559
1170.60 113.3475
1170.70 114.0411
1170.80 114.6128
1170.90 115.1844
1171.00 115.1432
1171.10 114.8394
1171.20 114.5355
1171.30 114.595
1171.40 115.0177
1171.50 115.4405
1171.60 115.6537
1171.70 115.0291
1171.80 114.4044
1171.90 113.7798
1172.00 113.4816
1172.10 113.1834
1172.20 112.8852
1172.30 112.9661
1172.40 113.2094
1172.50 113.4526
1172.60 113.7738
1172.70 114.1728
1172.80 114.5719
1172.90 115.0192
1173.00 115.66
1173.10 116.3008
1173.20 116.9416
1173.30 116.2968
1173.40 115.6521
1173.50 115.0074
1173.60 114.3472
1173.70 113.6831
1173.80 113.019
1173.90 112.9394
1174.00 113.4442
1174.10 113.949
1174.20 114.5292
1174.30 115.2853
1174.40 116.0414
1174.50 116.7975
1174.60 117.2076
1174.70 117.6177
1174.80 118.0277
1174.90 117.7183
1175.00 117.229
1175.10 116.7397
1175.20 116.2006
1175.30 115.6119
1175.40 115.0232
1175.50 114.6991
1175.60 114.9924
1175.70 115.2857
1175.80 115.4276
1175.90 114.2071
1176.00 112.9866
1176.10 111.766
1176.20 110.0616
1176.30 108.2363
1176.40 106.4109
1176.50 104.4787
1176.60 102.4751
1176.70 100.4716
1176.80 97.18828
1176.90 90.91864
1177.00 84.64899
1177.10 78.25617
1177.20 70.75475
1177.30 63.25332
1177.40 55.7519
1177.50 54.31188
1177.60 54.38721
1177.70 54.46253
1177.80 58.75741
1177.90 65.86533
1178.00 72.97324
1178.10 79.23251
1178.20 84.21882
1178.30 89.20513
1178.40 93.96917
1178.50 96.73275
1178.60 99.49634
1178.70 102.2599
1178.80 103.8775
1178.90 105.3677
1179.00 106.8579
1179.10 107.855
1179.20 108.5233
1179.30 109.1916
1179.40 109.5906
1179.50 109.5856
1179.60 109.5807
1179.70 109.5949
1179.80 109.7817
1179.90 109.9684
1180.00 110.1552
1180.10 110.9454
1180.20 111.8026
1180.30 112.6598
1180.40 113.2899
1180.50 113.8228
1180.60 114.3557
1180.70 114.395
1180.80 113.6942
1180.90 112.9933
1181.00 112.3215
1181.10 111.7658
1181.20 111.2101
1181.30 110.6544
1181.40 110.1858
1181.50 109.7269
1181.60 109.2679
1181.70 109.3464
1181.80 109.6551
1181.90 109.9639
1182.00 110.4714
1182.10 111.1777
1182.20 111.884
1182.30 112.3881
1182.40 112.0833
1182.50 111.7785
1182.60 111.4737
1182.70 110.2504
1182.80 109.0271
1182.90 107.8037
1183.00 107.3873
1183.10 107.3167
1183.20 107.2461
1183.30 107.4267
1183.40 107.8585
1183.50 108.2904
1183.60 108.4509
1183.70 107.5265
1183.80 106.6021
1183.90 105.6777
1184.00 106.417
1184.10 107.1562
1184.20 107.8955
1184.30 109.4767
1184.40 111.2684
1184.50 113.0601
1184.60 113.5711
1184.70 112.8014
1184.80 112.0317
1184.90 111.1957
1185.00 110.205
1185.10 109.2143
1185.20 108.2235
1185.30 108.4269
1185.40 108.6303
1185.50 108.8337
1185.60 109.5243
1185.70 110.3367
1185.80 111.1491
1185.90 111.5542
1186.00 111.6878
1186.10 111.8215
1186.20 112.0923
1186.30 112.6833
1186.40 113.2742
1186.50 113.7665
1186.60 113.3716
1186.70 112.9767
1186.80 112.5818
1186.90 111.7373
1187.00 110.7805
1187.10 109.8236
1187.20 109.6226
1187.30 109.9254
1187.40 110.2283
1187.50 110.6695
1187.60 111.3182
1187.70 111.9669
1187.80 112.4825
1187.90 111.7998
1188.00 111.1171
1188.10 110.4344
1188.20 107.6174
1188.30 104.5632
1188.40 101.5091
1188.50 99.05486
1188.60 97.00061
1188.70 94.94637
1188.80 95.0916
1188.90 98.53604
1189.00 101.9805
1189.10 105.1318
1189.20 107.1108
1189.30 109.0898
1189.40 111.0688
1189.50 111.9692
1189.60 112.7498
1189.70 113.5304
1189.80 113.8994
1189.90 114.0919
1190.00 114.2845
1190.10 114.1079
1190.20 113.3777
1190.30 112.6475
1190.40 111.8891
1190.50 111.0178
1190.60 110.1465
1190.70 109.2752
1190.80 109.2213
1190.90 109.1673
1191.00 109.1134
1191.10 109.7352
1191.20 110.6465
1191.30 111.5579
1191.40 112.0347
1191.50 112.077
1191.60 112.1192
1191.70 112.1089
1191.80 111.8885
1191.90 111.6681
1192.00 111.4478
1192.10 111.7927
1192.20 112.1377
1192.30 112.4827
1192.40 112.1284
1192.50 111.5992
1192.60 111.0701
1192.70 110.8458
1192.80 110.9262
1192.90 111.0067
1193.00 111.2124
1193.10 111.7102
1193.20 112.208
1193.30 112.6258
1193.40 112.3223
1193.50 112.0189
1193.60 111.7155
1193.70 110.2753
1193.80 108.5508
1193.90 106.8264
1194.00 105.7279
1194.10 105.0468
1194.20 104.3657
1194.30 103.991
1194.40 104.3311
1194.50 104.6713
1194.60 104.8475
1194.70 103.5489
1194.80 102.2502
1194.90 100.9516
1195.00 99.83309
1195.10 98.73459
1195.20 97.6361
1195.30 98.33497
1195.40 100.2321
1195.50 102.1292
1195.60 103.6938
1195.70 104.7595
1195.80 105.8252
1195.90 106.6643
1196.00 105.4642
1196.10 104.2641
1196.20 103.0639
1196.30 102.377
1196.40 101.7472
1196.50 101.1173
1196.60 100.9183
1196.70 100.9038
1196.80 100.8894
1196.90 100.6702
1197.00 100.1439
1197.10 99.61756
1197.20 98.56007
1197.30 95.37792
1197.40 92.19578
1197.50 89.01364
1197.60 87.88714
1197.70 86.76064
1197.80 85.63415
1197.90 86.73011
1198.00 88.77856
1198.10 90.82702
1198.20 92.39627
1198.30 93.48634
1198.40 94.57641
1198.50 95.84954
1198.60 97.85492
1198.70 99.86029
1198.80 101.8657
1198.90 100.8474
1199.00 99.8291
1199.10 98.81082
1199.20 97.32088
1199.30 95.71303
1199.40 94.10518
1199.50 93.45423
1199.60 93.76018
1199.70 94.06613
1199.80 94.53699
1199.90 95.39264
1200.00 96.2483
