# Version 2.1 - nm, norm@500 to 1, cut digits
# Wavelength(nm)  Flambda(ergs/cm^s/s/nm)
300.00 0.0101904
300.10 0.01354356
300.20 0.01558637
300.30 0.01643205
300.40 0.01665442
300.50 0.0167201
300.60 0.0167853
300.70 0.01685083
300.80 0.01691948
300.90 0.01699648
301.00 0.01708752
301.10 0.01719512
301.20 0.0173168
301.30 0.01744692
301.40 0.01758038
301.50 0.01771451
301.60 0.01784865
301.70 0.01798279
301.80 0.01811693
301.90 0.01825107
302.00 0.01838522
302.10 0.01851936
302.20 0.0186535
302.30 0.01878764
302.40 0.01892179
302.50 0.01905593
302.60 0.01919009
302.70 0.01932475
302.80 0.01946194
302.90 0.01960555
303.00 0.01975984
303.10 0.01992671
303.20 0.02010426
303.30 0.02028823
303.40 0.02047473
303.50 0.02066174
303.60 0.02084876
303.70 0.02103577
303.80 0.02122279
303.90 0.02140981
304.00 0.02159683
304.10 0.02178385
304.20 0.02197087
304.30 0.02215788
304.40 0.0223449
304.50 0.0225319
304.60 0.0227189
304.70 0.02290433
304.80 0.02308202
304.90 0.02324009
305.00 0.02336548
305.10 0.0234524
305.20 0.02350665
305.30 0.02354127
305.40 0.02356815
305.50 0.02359347
305.60 0.02361877
305.70 0.02364407
305.80 0.02366937
305.90 0.02369466
306.00 0.02371996
306.10 0.02374525
306.20 0.02377054
306.30 0.02379584
306.40 0.02382113
306.50 0.02384643
306.60 0.02387172
306.70 0.02389702
306.80 0.02392233
306.90 0.02394769
307.00 0.02397312
307.10 0.02399863
307.20 0.02402421
307.30 0.02404983
307.40 0.02407548
307.50 0.02410112
307.60 0.02412677
307.70 0.02415241
307.80 0.02417806
307.90 0.0242037
308.00 0.02422935
308.10 0.02425499
308.20 0.02428064
308.30 0.02430629
308.40 0.02433195
308.50 0.02435762
308.60 0.02438333
308.70 0.02441294
308.80 0.02446193
308.90 0.02456003
309.00 0.02473992
309.10 0.02501608
309.20 0.02537402
309.30 0.02578108
309.40 0.02620751
309.50 0.02663785
309.60 0.02706823
309.70 0.02749862
309.80 0.02792901
309.90 0.02835941
310.00 0.02878982
310.10 0.02922022
310.20 0.02965062
310.30 0.03008102
310.40 0.0305114
310.50 0.03094178
310.60 0.03137212
310.70 0.03179853
310.80 0.03220546
310.90 0.03256302
311.00 0.03283838
311.10 0.03301694
311.20 0.03311329
311.30 0.03316027
311.40 0.03318778
311.50 0.03321135
311.60 0.03323489
311.70 0.03325842
311.80 0.03328193
311.90 0.03330545
312.00 0.03332896
312.10 0.03335247
312.20 0.03337599
312.30 0.03339951
312.40 0.03342303
312.50 0.03344659
312.60 0.03347017
312.70 0.03349862
312.80 0.03355111
312.90 0.03366459
313.00 0.03387959
313.10 0.03421414
313.20 0.03465022
313.30 0.03514728
313.40 0.03566839
313.50 0.03619436
313.60 0.03672037
313.70 0.0372464
313.80 0.03777243
313.90 0.03829848
314.00 0.03882452
314.10 0.03935056
314.20 0.03987661
314.30 0.04040265
314.40 0.04092871
314.50 0.04145477
314.60 0.04198087
314.70 0.04251034
314.80 0.04305656
314.90 0.04364523
315.00 0.04430457
315.10 0.04504712
315.20 0.04586035
315.30 0.04671603
315.40 0.04758845
315.50 0.04846425
315.60 0.04934008
315.70 0.05021592
315.80 0.05109177
315.90 0.05196762
316.00 0.05284347
316.10 0.05371932
316.20 0.05459517
316.30 0.05547101
316.40 0.05634682
316.50 0.05722258
316.60 0.05809824
316.70 0.05896148
316.80 0.05976317
316.90 0.06040883
317.00 0.06079471
317.10 0.0608747
317.20 0.0606949
317.30 0.06035908
317.40 0.05996171
317.50 0.05955191
317.60 0.05914202
317.70 0.05873208
317.80 0.05832211
317.90 0.05791212
318.00 0.05750214
318.10 0.05709215
318.20 0.05668217
318.30 0.05627219
318.40 0.05586224
318.50 0.05545233
318.60 0.05504249
318.70 0.05464216
318.80 0.05428894
318.90 0.05405517
319.00 0.05402025
319.10 0.05421949
319.20 0.05461759
319.30 0.05513513
319.40 0.05569979
319.50 0.05627395
319.60 0.05684819
319.70 0.05742247
319.80 0.05799676
319.90 0.05857107
320.00 0.05914538
320.10 0.05971969
320.20 0.060294
320.30 0.06086831
320.40 0.0614426
320.50 0.06201689
320.60 0.06259114
320.70 0.06316188
320.80 0.06371519
320.90 0.06422433
321.00 0.06465992
321.10 0.06500891
321.20 0.06528435
321.30 0.06551561
321.40 0.06572945
321.50 0.06593977
321.60 0.06615007
321.70 0.06636035
321.80 0.06657062
321.90 0.06678089
322.00 0.06699115
322.10 0.06720142
322.20 0.06741169
322.30 0.06762197
322.40 0.06783228
322.50 0.06804265
322.60 0.06825311
322.70 0.06847643
322.80 0.06876339
322.90 0.0692117
323.00 0.06992866
323.10 0.07096195
323.20 0.0722639
323.30 0.07372719
323.40 0.07525413
323.50 0.07679392
323.60 0.07833381
323.70 0.07987376
323.80 0.08141373
323.90 0.08295371
324.00 0.0844937
324.10 0.08603369
324.20 0.08757368
324.30 0.08911366
324.40 0.09065364
324.50 0.09219361
324.60 0.09373357
324.70 0.09527143
324.80 0.09679896
324.90 0.09830028
325.00 0.09975796
325.10 0.1011643
325.20 0.1025269
325.30 0.1038634
325.40 0.1051895
325.50 0.1065135
325.60 0.1078375
325.70 0.1091615
325.80 0.1104855
325.90 0.1118095
326.00 0.1131334
326.10 0.1144574
326.20 0.1157814
326.30 0.1171054
326.40 0.1184294
326.50 0.1197534
326.60 0.1210775
326.70 0.122406
326.80 0.1237569
326.90 0.1251642
327.00 0.1266656
327.10 0.1282777
327.20 0.1299839
327.30 0.1317466
327.40 0.1335316
327.50 0.135321
327.60 0.1371105
327.70 0.1389001
327.80 0.1406896
327.90 0.1424791
328.00 0.1442687
328.10 0.1460582
328.20 0.1478477
328.30 0.1496373
328.40 0.1514267
328.50 0.153216
328.60 0.1550052
328.70 0.1567679
328.80 0.1583999
328.90 0.1597004
329.00 0.1604491
329.10 0.160548
329.20 0.1600949
329.30 0.1593105
329.40 0.1583952
329.50 0.1574536
329.60 0.1565118
329.70 0.1555699
329.80 0.1546279
329.90 0.1536859
330.00 0.1527439
330.10 0.1518018
330.20 0.1508598
330.30 0.1499178
330.40 0.1489759
330.50 0.148034
330.60 0.1470923
330.70 0.1461702
330.80 0.145345
330.90 0.1447657
331.00 0.1445958
331.10 0.144908
331.20 0.1456295
331.30 0.1465969
331.40 0.1476613
331.50 0.1487453
331.60 0.1498294
331.70 0.1509136
331.80 0.1519978
331.90 0.1530821
332.00 0.1541664
332.10 0.1552507
332.20 0.1563349
332.30 0.1574192
332.40 0.1585034
332.50 0.1595876
332.60 0.1606717
332.70 0.1617433
332.80 0.1627536
332.90 0.1636082
333.00 0.1642036
333.10 0.1644938
333.20 0.1645248
333.30 0.1644002
333.40 0.1642141
333.50 0.1640156
333.60 0.1638171
333.70 0.1636184
333.80 0.1634198
333.90 0.1632211
334.00 0.1630225
334.10 0.1628238
334.20 0.1626253
334.30 0.1624269
334.40 0.1622286
334.50 0.1620304
334.60 0.1619973
334.70 0.162503
334.80 0.1636915
334.90 0.1648995
335.00 0.1648643
335.10 0.1632417
335.20 0.1620203
335.30 0.164917
335.40 0.1745146
335.50 0.1893442
335.60 0.2037296
335.70 0.2110873
335.80 0.2081734
335.90 0.1966893
336.00 0.1814674
336.10 0.1674829
336.20 0.1582066
336.30 0.1550937
336.40 0.1569674
336.50 0.160164
336.60 0.1607291
336.70 0.1576981
336.80 0.1543245
336.90 0.1555272
337.00 0.1636764
337.10 0.1762816
337.20 0.1874168
337.30 0.1917919
337.40 0.1884671
337.50 0.1814386
337.60 0.1765827
337.70 0.1772973
337.80 0.182506
337.90 0.1886312
338.00 0.1929373
338.10 0.1946715
338.20 0.193437
338.30 0.1879344
338.40 0.177722
338.50 0.1658173
338.60 0.1582294
338.70 0.1596411
338.80 0.1690396
338.90 0.1800401
339.00 0.1860156
339.10 0.1855244
339.20 0.1831972
339.30 0.1851831
339.40 0.1934865
339.50 0.204668
339.60 0.213563
339.70 0.2176207
339.80 0.217556
339.90 0.214792
340.00 0.2098956
340.10 0.2034524
340.20 0.1968165
340.30 0.1910163
340.40 0.1853604
340.50 0.178163
340.60 0.1690187
340.70 0.159742
340.80 0.1529308
340.90 0.1500626
341.00 0.1510388
341.10 0.1549572
341.20 0.1607781
341.30 0.1672796
341.40 0.1730223
341.50 0.1769056
341.60 0.1788205
341.70 0.1796974
341.80 0.1807986
341.90 0.1827853
342.00 0.1851316
342.10 0.1862266
342.20 0.1843555
342.30 0.1791412
342.40 0.1723211
342.50 0.1668675
342.60 0.1649906
342.70 0.1667606
342.80 0.1703958
342.90 0.173669
343.00 0.1752779
343.10 0.1754295
343.20 0.1753561
343.30 0.1761165
343.40 0.177673
343.50 0.1791104
343.60 0.179604
343.70 0.1789275
343.80 0.1772566
343.90 0.1750047
344.00 0.1729273
344.10 0.1718982
344.20 0.1721457
344.30 0.1728674
344.40 0.1729349
344.50 0.1719738
344.60 0.1706679
344.70 0.1701599
344.80 0.1713232
344.90 0.1744663
345.00 0.1794254
345.10 0.1856883
345.20 0.1924208
345.30 0.1984682
345.40 0.2025404
345.50 0.203833
345.60 0.2026991
345.70 0.2005901
345.80 0.1990631
345.90 0.1986928
346.00 0.1988138
346.10 0.1981032
346.20 0.1955043
346.30 0.1910581
346.40 0.1861709
346.50 0.1827959
346.60 0.1818808
346.70 0.1825441
346.80 0.1828946
346.90 0.1815712
347.00 0.1784447
347.10 0.1743565
347.20 0.1707032
347.30 0.1690417
347.40 0.1703622
347.50 0.1743073
347.60 0.1793393
347.70 0.1839215
347.80 0.187546
347.90 0.1907187
348.00 0.1941601
348.10 0.197999
348.20 0.2015127
348.30 0.2036044
348.40 0.2036922
348.50 0.2022185
348.60 0.2001943
348.70 0.1982769
348.80 0.1964616
348.90 0.1945367
349.00 0.1925134
349.10 0.1905712
349.20 0.1888714
349.30 0.187645
349.40 0.1873066
349.50 0.1881207
349.60 0.1896842
349.70 0.1909869
349.80 0.1913062
349.90 0.1912227
350.00 0.1925507
350.10 0.1969091
350.20 0.2041691
350.30 0.2122914
350.40 0.2187174
350.50 0.2219862
350.60 0.2222157
350.70 0.2204187
350.80 0.2176415
350.90 0.2144696
351.00 0.2107999
351.10 0.2058891
351.20 0.1989349
351.30 0.1901093
351.40 0.1811216
351.50 0.174398
351.60 0.1713622
351.70 0.1714322
351.80 0.1726963
351.90 0.1735068
352.00 0.1734001
352.10 0.1727102
352.20 0.171826
352.30 0.1710843
352.40 0.1712088
352.50 0.1735251
352.60 0.1792327
352.70 0.1881645
352.80 0.1983124
352.90 0.2069482
353.00 0.2126318
353.10 0.2161313
353.20 0.2192446
353.30 0.2229683
353.40 0.2270597
353.50 0.2310302
353.60 0.2349795
353.70 0.2392839
353.80 0.2439371
353.90 0.2485255
354.00 0.2525083
354.10 0.2551832
354.20 0.2557031
354.30 0.2537299
354.40 0.2501662
354.50 0.2468491
354.60 0.2451775
354.70 0.245081
354.80 0.245407
354.90 0.2451305
355.00 0.2440598
355.10 0.2426068
355.20 0.2412099
355.30 0.2400718
355.40 0.2392905
355.50 0.2389084
355.60 0.2386854
355.70 0.2379493
355.80 0.2359089
355.90 0.2323118
356.00 0.2277443
356.10 0.2231551
356.20 0.219042
356.30 0.2150544
356.40 0.2103783
356.50 0.2046211
356.60 0.1984562
356.70 0.1933828
356.80 0.1906802
356.90 0.1904633
357.00 0.1916921
357.10 0.1929758
357.20 0.1932997
357.30 0.1922311
357.40 0.1897931
357.50 0.186327
357.60 0.182394
357.70 0.1785779
357.80 0.1752481
357.90 0.1724768
358.00 0.1702433
358.10 0.1687919
358.20 0.1687265
358.30 0.1706147
358.40 0.174418
358.50 0.1792867
358.60 0.1838885
358.70 0.1869792
358.80 0.1879209
358.90 0.1869896
359.00 0.1853958
359.10 0.1848298
359.20 0.1865316
359.30 0.1904258
359.40 0.1950225
359.50 0.1983503
359.60 0.1992921
359.70 0.1982789
359.80 0.196801
359.90 0.1961483
360.00 0.1963858
360.10 0.196356
360.20 0.1946671
360.30 0.1908112
360.40 0.1855917
360.50 0.180722
360.60 0.1780313
360.70 0.1787373
360.80 0.1828962
360.90 0.1892761
361.00 0.1959612
361.10 0.2014425
361.20 0.2053323
361.30 0.2080681
361.40 0.2100288
361.50 0.2111323
361.60 0.2113584
361.70 0.2113162
361.80 0.2119129
361.90 0.2134332
362.00 0.2151992
362.10 0.2162806
362.20 0.2163506
362.30 0.2157782
362.40 0.2151821
362.50 0.215079
362.60 0.2156409
362.70 0.2163983
362.80 0.2163242
362.90 0.2146508
363.00 0.2117645
363.10 0.2090911
363.20 0.207947
363.30 0.2085583
363.40 0.2101562
363.50 0.2117823
363.60 0.2129047
363.70 0.2134708
363.80 0.213588
363.90 0.213212
364.00 0.2120684
364.10 0.2098442
364.20 0.2065042
364.30 0.2024682
364.40 0.1985217
364.50 0.1955613
364.60 0.1942473
364.70 0.1946358
364.80 0.1960991
364.90 0.1978003
365.00 0.1994574
365.10 0.2016284
365.20 0.2050226
365.30 0.2094445
365.40 0.2135361
365.50 0.215717
365.60 0.2154877
365.70 0.2138079
365.80 0.2121716
365.90 0.2113953
366.00 0.2113115
366.10 0.2114502
366.20 0.211779
366.30 0.212639
366.40 0.2141184
366.50 0.2157091
366.60 0.2165738
366.70 0.2160865
366.80 0.214159
366.90 0.2111934
367.00 0.2078719
367.10 0.2049696
367.20 0.2031903
367.30 0.2029864
367.40 0.2043627
367.50 0.2068369
367.60 0.2096751
367.70 0.2122734
367.80 0.2144086
367.90 0.2161979
368.00 0.2178497
368.10 0.2194135
368.20 0.2206904
368.30 0.2213306
368.40 0.2210604
368.50 0.2199399
368.60 0.2184693
368.70 0.2173823
368.80 0.2171979
368.90 0.2179043
369.00 0.2191025
369.10 0.2204765
369.20 0.2220098
369.30 0.2236871
369.40 0.2251155
369.50 0.2256228
369.60 0.2248388
369.70 0.2231503
369.80 0.2215659
369.90 0.2211446
370.00 0.2224464
370.10 0.2253122
370.20 0.2290442
370.30 0.2327811
370.40 0.2357952
370.50 0.2376143
370.60 0.2380747
370.70 0.237451
370.80 0.2364723
370.90 0.2359971
371.00 0.236456
371.10 0.2374946
371.20 0.2381077
371.30 0.2371589
371.40 0.2340156
371.50 0.228969
371.60 0.2231913
371.70 0.2181876
371.80 0.2151084
371.90 0.2143769
372.00 0.215724
372.10 0.2182667
372.20 0.2204466
372.30 0.2203019
372.40 0.2163743
372.50 0.2088526
372.60 0.199917
372.70 0.1927634
372.80 0.1899751
372.90 0.1923919
373.00 0.1990464
373.10 0.2078672
373.20 0.2165373
373.30 0.2231212
373.40 0.2264527
373.50 0.2262178
373.60 0.2227414
373.70 0.2166772
373.80 0.2088688
373.90 0.2004274
374.00 0.1927455
374.10 0.1872556
374.20 0.1850657
374.30 0.1867635
374.40 0.1924626
374.50 0.2018433
374.60 0.2140345
374.70 0.2274483
374.80 0.23988
374.90 0.2490671
375.00 0.2534657
375.10 0.2527466
375.20 0.2477422
375.30 0.2400126
375.40 0.2313673
375.50 0.2234846
375.60 0.2175126
375.70 0.2137617
375.80 0.2117231
375.90 0.210492
376.00 0.2093954
376.10 0.2084866
376.20 0.208651
376.30 0.2112399
376.40 0.2174112
376.50 0.2276308
376.60 0.24166
376.70 0.2587092
376.80 0.2773287
376.90 0.2951058
377.00 0.3088623
377.10 0.3157434
377.20 0.3145231
377.30 0.3060796
377.40 0.2927495
377.50 0.2772229
377.60 0.2617747
377.70 0.2480426
377.80 0.2369688
377.90 0.2287503
378.00 0.2229563
378.10 0.2189013
378.20 0.216047
378.30 0.2141027
378.40 0.2128667
378.50 0.2121728
378.60 0.2120475
378.70 0.2127972
378.80 0.2148769
378.90 0.2187962
379.00 0.225273
379.10 0.2353222
379.20 0.2498338
379.30 0.2687939
379.40 0.2908027
379.50 0.3132759
379.60 0.3330409
379.70 0.3469687
379.80 0.3526823
379.90 0.3492964
380.00 0.337871
380.10 0.3211023
380.20 0.3022954
380.30 0.284232
380.40 0.268585
380.50 0.2559608
380.60 0.2462271
380.70 0.2387955
380.80 0.2328313
380.90 0.2276157
381.00 0.2228999
381.10 0.2188957
381.20 0.2158479
381.30 0.2136329
381.40 0.2118778
381.50 0.2104877
381.60 0.2098602
381.70 0.2103833
381.80 0.2117303
381.90 0.2127961
382.00 0.2125095
382.10 0.2104969
382.20 0.2071904
382.30 0.2046541
382.40 0.2087074
382.50 0.2244301
382.60 0.2515559
382.70 0.284699
382.80 0.3173701
382.90 0.3451831
383.00 0.3621194
383.10 0.3628451
383.20 0.3481442
383.30 0.3204686
383.40 0.2854635
383.50 0.2510799
383.60 0.2232349
383.70 0.2002129
383.80 0.172781
383.90 0.1367359
384.00 0.1037289
384.10 0.09013823
384.20 0.1001318
384.30 0.1282636
384.40 0.1716719
384.50 0.2247701
384.60 0.2683458
384.70 0.2793403
384.80 0.2650502
384.90 0.2555649
385.00 0.2661209
385.10 0.2800767
385.20 0.2750946
385.30 0.252133
385.40 0.2261758
385.50 0.2036122
385.60 0.1840961
385.70 0.1732512
385.80 0.1814368
385.90 0.2079895
386.00 0.2357378
386.10 0.248278
386.20 0.244027
386.30 0.2320329
386.40 0.2205544
386.50 0.2155774
386.60 0.2280049
386.70 0.2696044
386.80 0.3368444
386.90 0.4006543
387.00 0.4223125
387.10 0.3839232
387.20 0.3058894
387.30 0.2326291
387.40 0.1954815
387.50 0.189281
387.60 0.1858509
387.70 0.1708896
387.80 0.158491
387.90 0.168527
388.00 0.1996959
388.10 0.2315446
388.20 0.2520407
388.30 0.2684053
388.40 0.2897026
388.50 0.3107692
388.60 0.3189427
388.70 0.3095759
388.80 0.2885195
388.90 0.2642072
389.00 0.2425474
389.10 0.2283237
389.20 0.2207325
389.30 0.2124603
389.40 0.2000394
389.50 0.1895451
389.60 0.1894885
389.70 0.2027314
389.80 0.2188886
389.90 0.2329344
390.00 0.2451063
390.10 0.2541023
390.20 0.2617259
390.30 0.2680969
390.40 0.276333
390.50 0.2936514
390.60 0.3154649
390.70 0.3283741
390.80 0.3249141
390.90 0.3112326
391.00 0.2987269
391.10 0.2918231
391.20 0.2901589
391.30 0.2971236
391.40 0.3262831
391.50 0.3728863
391.60 0.4122215
391.70 0.4219946
391.80 0.4005737
391.90 0.3606861
392.00 0.3122594
392.10 0.2620897
392.20 0.2226969
392.30 0.2031783
392.40 0.2018061
392.50 0.2085494
392.60 0.2214448
392.70 0.2471712
392.80 0.2794485
392.90 0.2996976
393.00 0.3000736
393.10 0.3015692
393.20 0.3352967
393.30 0.4044271
393.40 0.4754877
393.50 0.5014884
393.60 0.4596537
393.70 0.3736809
393.80 0.2956508
393.90 0.263547
394.00 0.2721447
394.10 0.2859268
394.20 0.2776986
394.30 0.2489426
394.40 0.2232982
394.50 0.2166303
394.60 0.2283255
394.70 0.2461442
394.80 0.2599394
394.90 0.2661611
395.00 0.2732939
395.10 0.2873682
395.20 0.3019023
395.30 0.3047864
395.40 0.2978107
395.50 0.2966659
395.60 0.3116561
395.70 0.3332592
395.80 0.3418134
395.90 0.3327156
396.00 0.3185354
396.10 0.3111698
396.20 0.3075891
396.30 0.2997553
396.40 0.2912319
396.50 0.2923916
396.60 0.3107497
396.70 0.345499
396.80 0.3873874
396.90 0.4238615
397.00 0.4425963
397.10 0.4389491
397.20 0.4218503
397.30 0.405667
397.40 0.3982002
397.50 0.398615
397.60 0.4009377
397.70 0.3976857
397.80 0.3851303
397.90 0.3673946
398.00 0.3542272
398.10 0.3527249
398.20 0.3636562
398.30 0.3871621
398.40 0.4233218
398.50 0.4645328
398.60 0.4947688
398.70 0.5016048
398.80 0.4834816
398.90 0.4509592
399.00 0.4148624
399.10 0.3858925
399.20 0.373329
399.30 0.379366
399.40 0.3962154
399.50 0.4100494
399.60 0.4081075
399.70 0.3894365
399.80 0.3694664
399.90 0.3670502
400.00 0.3859058
400.10 0.4117474
400.20 0.4292559
400.30 0.4376018
400.40 0.4442123
400.50 0.4490598
400.60 0.4439759
400.70 0.4261293
400.80 0.4046424
400.90 0.3969632
401.00 0.415161
401.10 0.4497652
401.20 0.4767415
401.30 0.4788001
401.40 0.4645914
401.50 0.4555878
401.60 0.4588664
401.70 0.4623565
401.80 0.4576207
401.90 0.4473944
402.00 0.4354682
402.10 0.416177
402.20 0.386708
402.30 0.3618274
402.40 0.3624586
402.50 0.3894529
402.60 0.4183453
402.70 0.4250602
402.80 0.409365
402.90 0.3878679
403.00 0.3714179
403.10 0.3555416
403.20 0.3306729
403.30 0.2970123
403.40 0.2669322
403.50 0.2562655
403.60 0.2740608
403.70 0.3179605
403.80 0.3770322
403.90 0.4353153
404.00 0.4768574
404.10 0.4907814
404.20 0.4726984
404.30 0.4276279
404.40 0.3715016
404.50 0.3260886
404.60 0.3077577
404.70 0.3176923
404.80 0.3460852
404.90 0.3825219
405.00 0.4184692
405.10 0.4451542
405.20 0.4546543
405.30 0.4455896
405.40 0.4254163
405.50 0.4043958
405.60 0.3871684
405.70 0.3722952
405.80 0.3590687
405.90 0.3544513
406.00 0.368159
406.10 0.3996598
406.20 0.4365938
406.30 0.4657194
406.40 0.4816245
406.50 0.4857469
406.60 0.482339
406.70 0.4798191
406.80 0.4874038
406.90 0.5026192
407.00 0.5094077
407.10 0.4960408
407.20 0.4707755
407.30 0.4562716
407.40 0.4610326
407.50 0.4651125
407.60 0.4449452
407.70 0.3983888
407.80 0.3488839
407.90 0.3239029
408.00 0.3307395
408.10 0.3541927
408.20 0.3749478
408.30 0.3860237
408.40 0.3921395
408.50 0.3973843
408.60 0.3994869
408.70 0.3950169
408.80 0.3835366
408.90 0.3660052
409.00 0.3450115
409.10 0.3291385
409.20 0.3290978
409.30 0.3467162
409.40 0.3729277
409.50 0.3953666
409.60 0.4068407
409.70 0.4075587
409.80 0.4037252
409.90 0.4051349
410.00 0.4171171
410.10 0.4338763
410.20 0.4447189
410.30 0.445003
410.40 0.4374835
410.50 0.4253961
410.60 0.4101558
410.70 0.3953681
410.80 0.3929354
410.90 0.4051329
411.00 0.419697
411.10 0.4186279
411.20 0.3971089
411.30 0.369721
411.40 0.3565497
411.50 0.3653887
411.60 0.3859304
411.70 0.4065788
411.80 0.4249019
411.90 0.4410503
412.00 0.4520699
412.10 0.4517904
412.20 0.4364376
412.30 0.4120876
412.40 0.3928705
412.50 0.3906668
412.60 0.4067389
412.70 0.4296587
412.80 0.443728
412.90 0.4400104
413.00 0.4207009
413.10 0.3956002
413.20 0.3749567
413.30 0.3648667
413.40 0.3680726
413.50 0.3839215
413.60 0.4068133
413.70 0.4287255
413.80 0.4431161
413.90 0.4467299
414.00 0.4383045
414.10 0.4195772
414.20 0.396814
414.30 0.3825123
414.40 0.3809398
414.50 0.3857222
414.60 0.3889005
414.70 0.3904704
414.80 0.3953054
414.90 0.4084607
415.00 0.4262407
415.10 0.4360222
415.20 0.4299941
415.30 0.4150821
415.40 0.4068861
415.50 0.4159633
415.60 0.435128
415.70 0.4459903
415.80 0.4381792
415.90 0.4176726
416.00 0.397129
416.10 0.385481
416.20 0.3857351
416.30 0.3999019
416.40 0.4268304
416.50 0.4576033
416.60 0.477966
416.70 0.4830441
416.80 0.4763424
416.90 0.4641722
417.00 0.4483294
417.10 0.4277325
417.20 0.4073372
417.30 0.3941181
417.40 0.3938124
417.50 0.404911
417.60 0.4192269
417.70 0.4295765
417.80 0.4350654
417.90 0.437812
418.00 0.4400224
418.10 0.4376888
418.20 0.4296439
418.30 0.4218694
418.40 0.421028
418.50 0.4258079
418.60 0.4267642
418.70 0.4206587
418.80 0.4093793
418.90 0.3968145
419.00 0.3843686
419.10 0.3738574
419.20 0.3706321
419.30 0.3796541
419.40 0.3988979
419.50 0.419756
419.60 0.4329217
419.70 0.4336014
419.80 0.4231815
419.90 0.4074997
420.00 0.3950366
420.10 0.3918231
420.20 0.3968626
420.30 0.403807
420.40 0.4100157
420.50 0.4182811
420.60 0.4291991
420.70 0.4382807
420.80 0.4419718
420.90 0.4461143
421.00 0.4556799
421.10 0.4660448
421.20 0.4679577
421.30 0.4589021
421.40 0.4428037
421.50 0.4201961
421.60 0.3882084
421.70 0.3497561
421.80 0.3146654
421.90 0.2900493
422.00 0.2749616
422.10 0.2626893
422.20 0.2442443
422.30 0.2130123
422.40 0.1721063
422.50 0.135406
422.60 0.1162031
422.70 0.1142157
422.80 0.1241508
422.90 0.1412787
423.00 0.165396
423.10 0.1957569
423.20 0.2287265
423.30 0.2600712
423.40 0.288064
423.50 0.3130727
423.60 0.3368869
423.70 0.3598799
423.80 0.3753446
423.90 0.3761142
424.00 0.3639737
424.10 0.348763
424.20 0.3377083
424.30 0.3301273
424.40 0.3220996
424.50 0.3145784
424.60 0.3094495
424.70 0.3024009
424.80 0.2864992
424.90 0.2655694
425.00 0.252867
425.10 0.2586535
425.20 0.278917
425.30 0.297457
425.40 0.3021012
425.50 0.2969184
425.60 0.2974164
425.70 0.3139047
425.80 0.3413509
425.90 0.367336
426.00 0.3851651
426.10 0.395203
426.20 0.398385
426.30 0.3953487
426.40 0.3898763
426.50 0.3881822
426.60 0.3925232
426.70 0.3979366
426.80 0.3979399
426.90 0.3904093
427.00 0.379535
427.10 0.3738715
427.20 0.3736891
427.30 0.3709651
427.40 0.3563501
427.50 0.3293888
427.60 0.3028438
427.70 0.2946728
427.80 0.3126454
427.90 0.3490867
428.00 0.3864637
428.10 0.4100085
428.20 0.4157293
428.30 0.4086114
428.40 0.3966352
428.50 0.385182
428.60 0.3748613
428.70 0.3625002
428.80 0.3452933
428.90 0.3250644
429.00 0.3102519
429.10 0.3113996
429.20 0.3338605
429.30 0.3683287
429.40 0.396996
429.50 0.4101547
429.60 0.4121042
429.70 0.4109085
429.80 0.4079635
429.90 0.4000744
430.00 0.3860253
430.10 0.3681307
430.20 0.3511329
430.30 0.3432867
430.40 0.3526032
430.50 0.3757645
430.60 0.3958413
430.70 0.3981638
430.80 0.3871771
430.90 0.382217
431.00 0.3957236
431.10 0.4188674
431.20 0.4320367
431.30 0.4262629
431.40 0.4114286
431.50 0.404873
431.60 0.4146529
431.70 0.4365238
431.80 0.4616671
431.90 0.4828069
432.00 0.4957256
432.10 0.498974
432.20 0.4936567
432.30 0.4784325
432.40 0.4493464
432.50 0.4060336
432.60 0.360282
432.70 0.3327303
432.80 0.3380329
432.90 0.3724265
433.00 0.4163013
433.10 0.4491264
433.20 0.4623108
433.30 0.46231
433.40 0.4623544
433.50 0.4716193
433.60 0.4937404
433.70 0.5307757
433.80 0.5819336
433.90 0.6427403
434.00 0.6969792
434.10 0.7226879
434.20 0.7059672
434.30 0.6534274
434.40 0.5900947
434.50 0.5428509
434.60 0.5242512
434.70 0.5293547
434.80 0.5435522
434.90 0.5516815
435.00 0.5432794
435.10 0.5164961
435.20 0.4776295
435.30 0.4369487
435.40 0.4075199
435.50 0.4023801
435.60 0.4253424
435.70 0.4637219
435.80 0.4951134
435.90 0.5052052
436.00 0.4973739
436.10 0.486012
436.20 0.4824112
436.30 0.4906827
436.40 0.5020157
436.50 0.5058386
436.60 0.5018344
436.70 0.4985277
436.80 0.5037497
436.90 0.5161283
437.00 0.5282601
437.10 0.5331674
437.20 0.5268902
437.30 0.5090538
437.40 0.4862912
437.50 0.4722073
437.60 0.477732
437.70 0.4991604
437.80 0.5190155
437.90 0.5218106
438.00 0.5072168
438.10 0.487185
438.20 0.4705842
438.30 0.456348
438.40 0.4407293
438.50 0.4273197
438.60 0.4241865
438.70 0.4324012
438.80 0.4446051
438.90 0.4550303
439.00 0.4657382
439.10 0.4820637
439.20 0.5046385
439.30 0.5287833
439.40 0.5503392
439.50 0.5681325
439.60 0.5815996
439.70 0.589329
439.80 0.5891791
439.90 0.5793852
440.00 0.563067
440.10 0.5467709
440.20 0.5364227
440.30 0.5333961
440.40 0.5326065
440.50 0.5294314
440.60 0.5204277
440.70 0.5090141
440.80 0.507553
440.90 0.5278056
441.00 0.5701644
441.10 0.6151787
441.20 0.6382287
441.30 0.6305547
441.40 0.6061033
441.50 0.5880224
441.60 0.589463
441.70 0.6054569
441.80 0.6208679
441.90 0.6255526
442.00 0.6217672
442.10 0.6172771
442.20 0.612664
442.30 0.5994568
442.40 0.5719615
442.50 0.5378305
442.60 0.5154291
442.70 0.5195624
442.80 0.5483081
442.90 0.5843362
443.00 0.6093669
443.10 0.6180451
443.20 0.617122
443.30 0.6133
443.40 0.6078594
443.50 0.6036277
443.60 0.6097211
443.70 0.6326452
443.80 0.6637548
443.90 0.6881311
444.00 0.6965522
444.10 0.6923761
444.20 0.6840122
444.30 0.676152
444.40 0.6703905
444.50 0.6705344
444.60 0.6803027
444.70 0.6956499
444.80 0.7062494
444.90 0.7071851
445.00 0.7043625
445.10 0.7037784
445.20 0.6997625
445.30 0.6804772
445.40 0.6434721
445.50 0.6005536
445.60 0.568466
445.70 0.5572245
445.80 0.5665266
445.90 0.5876852
446.00 0.6102582
446.10 0.6292138
446.20 0.6459855
446.30 0.6626473
446.40 0.6782199
446.50 0.6913521
446.60 0.7032686
446.70 0.7157652
446.80 0.7282265
446.90 0.7389073
447.00 0.7476672
447.10 0.7557457
447.20 0.7638411
447.30 0.7713294
447.40 0.7766437
447.50 0.7791409
447.60 0.7808492
447.70 0.7855442
447.80 0.7947986
447.90 0.804214
448.00 0.8054097
448.10 0.798087
448.20 0.7887994
448.30 0.786603
448.40 0.7976748
448.50 0.8186297
448.60 0.8412728
448.70 0.8578494
448.80 0.863257
448.90 0.8559367
449.00 0.839022
449.10 0.8188028
449.20 0.8005723
449.30 0.7858066
449.40 0.7738739
449.50 0.7655615
449.60 0.7633723
449.70 0.7687917
449.80 0.7806574
449.90 0.796876
450.00 0.815583
450.10 0.8342683
450.20 0.8488153
450.30 0.8543931
450.40 0.8485593
450.50 0.8332536
450.60 0.8128424
450.70 0.7909375
450.80 0.7700191
450.90 0.7534295
451.00 0.7458586
451.10 0.7494264
451.20 0.75947
451.30 0.7675796
451.40 0.7695603
451.50 0.7686324
451.60 0.7711412
451.70 0.7795977
451.80 0.7912768
451.90 0.8023469
452.00 0.8112744
452.10 0.8196541
452.20 0.8310168
452.30 0.8474536
452.40 0.8649335
452.50 0.8735028
452.60 0.8664272
452.70 0.849905
452.80 0.8388579
452.90 0.8417782
453.00 0.8531532
453.10 0.8614783
453.20 0.8609358
453.30 0.8522676
453.40 0.8376927
453.50 0.8217638
453.60 0.8147334
453.70 0.8280058
453.80 0.8632635
453.90 0.9088026
454.00 0.9487391
454.10 0.9735724
454.20 0.9815887
454.30 0.9738298
454.40 0.9517962
454.50 0.9200605
454.60 0.8875085
454.70 0.8632108
454.80 0.8519743
454.90 0.8537165
455.00 0.864474
455.10 0.8773617
455.20 0.8851243
455.30 0.885537
455.40 0.8843572
455.50 0.8901989
455.60 0.9066842
455.70 0.9321345
455.80 0.9637561
455.90 0.9976218
456.00 1.026182
456.10 1.041922
456.20 1.045177
456.30 1.044582
456.40 1.048014
456.50 1.055784
456.60 1.063814
456.70 1.068885
456.80 1.069615
456.90 1.065811
457.00 1.0603
457.10 1.058913
457.20 1.064537
457.30 1.073197
457.40 1.078005
457.50 1.075778
457.60 1.067942
457.70 1.056199
457.80 1.040701
457.90 1.023286
458.00 1.00881
458.10 1.001061
458.20 0.9982279
458.30 0.9914033
458.40 0.969663
458.50 0.9306598
458.60 0.8860072
458.70 0.854384
458.80 0.8477273
458.90 0.8631865
459.00 0.8869602
459.10 0.9047854
459.20 0.9105185
459.30 0.9089751
459.40 0.9112198
459.50 0.9244375
459.60 0.9475644
459.70 0.9754973
459.80 1.00262
459.90 1.022077
460.00 1.027283
460.10 1.018641
460.20 1.00626
460.30 1.000408
460.40 0.9982708
460.50 0.9855857
460.60 0.9543206
460.70 0.9169917
460.80 0.9002793
460.90 0.9216228
461.00 0.9730583
461.10 1.029707
461.20 1.071918
461.30 1.096841
461.40 1.111607
461.50 1.121089
461.60 1.1257
461.70 1.127728
461.80 1.132246
461.90 1.141584
462.00 1.153824
462.10 1.166777
462.20 1.178822
462.30 1.183938
462.40 1.171215
462.50 1.133533
462.60 1.075474
462.70 1.010479
462.80 0.9530239
462.90 0.914646
463.00 0.9016287
463.10 0.9109691
463.20 0.9299453
463.30 0.9453893
463.40 0.9537844
463.50 0.9597647
463.60 0.9647268
463.70 0.9626611
463.80 0.9506955
463.90 0.9378216
464.00 0.9377211
464.10 0.9544996
464.20 0.9799308
464.30 1.003288
464.40 1.019548
464.50 1.027931
464.60 1.028128
464.70 1.020176
464.80 1.004971
464.90 0.9851797
465.00 0.9672621
465.10 0.9616965
465.20 0.9768558
465.30 1.009535
465.40 1.04432
465.50 1.065727
465.60 1.070427
465.70 1.068462
465.80 1.074042
465.90 1.094335
466.00 1.125531
466.10 1.157293
466.20 1.1806
466.30 1.192203
466.40 1.191273
466.50 1.175164
466.60 1.141311
466.70 1.091403
466.80 1.032884
466.90 0.9763139
467.00 0.9304286
467.10 0.8978559
467.20 0.8738293
467.30 0.85225
467.40 0.8351041
467.50 0.8323912
467.60 0.8511296
467.70 0.8867615
467.80 0.9267922
467.90 0.9608076
468.00 0.9844983
468.10 0.9961581
468.20 0.9944939
468.30 0.9807561
468.40 0.9618477
468.50 0.9498572
468.60 0.9554188
468.70 0.9794791
468.80 1.011303
468.90 1.036528
469.00 1.048984
469.10 1.05386
469.20 1.059045
469.30 1.066138
469.40 1.07125
469.50 1.071536
469.60 1.068415
469.70 1.065407
469.80 1.066612
469.90 1.077259
470.00 1.099381
470.10 1.125952
470.20 1.145078
470.30 1.151333
470.40 1.149701
470.50 1.147088
470.60 1.143379
470.70 1.134925
470.80 1.122698
470.90 1.11187
471.00 1.105831
471.10 1.103003
471.20 1.097936
471.30 1.084278
471.40 1.058179
471.50 1.022726
471.60 0.9894961
471.70 0.971525
471.80 0.9735871
471.90 0.9893655
472.00 1.007696
472.10 1.020682
472.20 1.027125
472.30 1.031888
472.40 1.042489
472.50 1.063239
472.60 1.090281
472.70 1.112439
472.80 1.118758
472.90 1.107726
473.00 1.089666
473.10 1.079506
473.20 1.085071
473.30 1.101017
473.40 1.115105
473.50 1.119338
473.60 1.114019
473.70 1.10441
473.80 1.096789
473.90 1.09647
474.00 1.105046
474.10 1.118191
474.20 1.128411
474.30 1.131443
474.40 1.129214
474.50 1.126613
474.60 1.127375
474.70 1.132623
474.80 1.141466
474.90 1.152312
475.00 1.163541
475.10 1.173047
475.20 1.179532
475.30 1.185441
475.40 1.195531
475.50 1.209439
475.60 1.216243
475.70 1.200804
475.80 1.157346
475.90 1.094153
476.00 1.024809
476.10 0.957713
476.20 0.8935125
476.30 0.8299142
476.40 0.767325
476.50 0.7134474
476.60 0.678132
476.70 0.6654447
476.80 0.6715674
476.90 0.6863528
477.00 0.7002583
477.10 0.7106562
477.20 0.7228794
477.30 0.7445755
477.40 0.7763615
477.50 0.8081206
477.60 0.8264872
477.70 0.8258745
477.80 0.8116264
477.90 0.7933472
478.00 0.7773963
478.10 0.7665853
478.20 0.7638591
478.30 0.7734322
478.40 0.7979976
478.50 0.833841
478.60 0.8700001
478.70 0.8949918
478.80 0.9049241
478.90 0.905174
479.00 0.9047193
479.10 0.9094287
479.20 0.9204991
479.30 0.9363173
479.40 0.9536954
479.50 0.9692074
479.60 0.9810483
479.70 0.9897151
479.80 0.9967714
479.90 1.003368
480.00 1.010092
480.10 1.016632
480.20 1.019498
480.30 1.010521
480.40 0.9812558
480.50 0.9323791
480.60 0.8775666
480.70 0.8340325
480.80 0.8085024
480.90 0.7947082
481.00 0.7849844
481.10 0.7800841
481.20 0.7858203
481.30 0.8046817
481.40 0.8339122
481.50 0.8688397
481.60 0.9033041
481.70 0.9289098
481.80 0.9394992
481.90 0.9371166
482.00 0.9303962
482.10 0.9267061
482.20 0.9274015
482.30 0.9304208
482.40 0.934363
482.50 0.9380967
482.60 0.9401204
482.70 0.9410755
482.80 0.9441883
482.90 0.949697
483.00 0.9501799
483.10 0.9371427
483.20 0.9147643
483.30 0.9010308
483.40 0.9108263
483.50 0.9414164
483.60 0.9773859
483.70 1.006546
483.80 1.026016
483.90 1.035163
484.00 1.030561
484.10 1.010441
484.20 0.9804897
484.30 0.9527833
484.40 0.9378151
484.50 0.9359911
484.60 0.9368584
484.70 0.9279699
484.80 0.906068
484.90 0.8790225
485.00 0.8576071
485.10 0.8480497
485.20 0.8510502
485.30 0.863769
485.40 0.8810105
485.50 0.8968892
485.60 0.9082669
485.70 0.918
485.80 0.93561
485.90 0.9744642
486.00 1.041571
486.10 1.123945
486.20 1.187957
486.30 1.200348
486.40 1.155013
486.50 1.077992
486.60 1.005537
486.70 0.9594642
486.80 0.942246
486.90 0.9463493
487.00 0.962053
487.10 0.9800422
487.20 0.9934958
487.30 1.00009
487.40 1.000294
487.50 0.9950289
487.60 0.9880675
487.70 0.9882116
487.80 1.002947
487.90 1.029758
488.00 1.057237
488.10 1.075629
488.20 1.084418
488.30 1.088852
488.40 1.091975
488.50 1.092223
488.60 1.087809
488.70 1.081615
488.80 1.080853
488.90 1.09053
489.00 1.106963
489.10 1.119724
489.20 1.121652
489.30 1.11604
489.40 1.112589
489.50 1.117461
489.60 1.128095
489.70 1.136911
489.80 1.13813
489.90 1.131565
490.00 1.122788
490.10 1.119921
490.20 1.128759
490.30 1.150074
490.40 1.179681
490.50 1.210742
490.60 1.238438
490.70 1.263153
490.80 1.288574
490.90 1.315318
491.00 1.337736
491.10 1.349435
491.20 1.34998
491.30 1.343871
491.40 1.335265
491.50 1.325487
491.60 1.314526
491.70 1.302389
491.80 1.288895
491.90 1.275333
492.00 1.267078
492.10 1.272397
492.20 1.296821
492.30 1.337382
492.40 1.382755
492.50 1.421903
492.60 1.452638
492.70 1.479554
492.80 1.503567
492.90 1.51727
493.00 1.51346
493.10 1.494939
493.20 1.471564
493.30 1.45055
493.40 1.434373
493.50 1.425786
493.60 1.428948
493.70 1.444124
493.80 1.464798
493.90 1.482403
494.00 1.49258
494.10 1.496637
494.20 1.499473
494.30 1.50687
494.40 1.523136
494.50 1.549429
494.60 1.583518
494.70 1.620614
494.80 1.654932
494.90 1.682204
495.00 1.700585
495.10 1.705325
495.20 1.680633
495.30 1.602158
495.40 1.456787
495.50 1.262749
495.60 1.065145
495.70 0.9087151
495.80 0.8135244
495.90 0.7728807
496.00 0.7675053
496.10 0.7787134
496.20 0.794098
496.30 0.8082976
496.40 0.8210968
496.50 0.8347173
496.60 0.8523092
496.70 0.8771967
496.80 0.9112081
496.90 0.9522131
497.00 0.9940345
497.10 1.030493
497.20 1.0577
497.30 1.072939
497.40 1.07433
497.50 1.063451
497.60 1.047499
497.70 1.034453
497.80 1.026422
497.90 1.020214
498.00 1.01327
498.10 1.007428
498.20 1.009077
498.30 1.026213
498.40 1.062406
498.50 1.110639
498.60 1.154273
498.70 1.17855
498.80 1.181336
498.90 1.172644
499.00 1.165986
499.10 1.169447
499.20 1.181047
499.30 1.192091
499.40 1.197298
499.50 1.200726
499.60 1.197572
499.70 1.151864
499.80 1.012323
499.90 0.7654419
500.00 1
500.10 0.9174233
500.20 0.9560288
500.30 0.969625
500.40 0.9762082
500.50 0.9739274
500.60 0.9632697
500.70 1.008451
500.80 0.9834227
500.90 0.9240535
501.00 0.9542806
501.10 0.9940545
501.20 0.9583927
501.30 0.9547656
501.40 0.853631
501.50 0.8093863
501.60 0.8764774
501.70 0.9202238
501.80 1.015862
501.90 1.03182
502.00 1.026595
502.10 1.043255
502.20 1.065233
502.30 1.067093
502.40 1.069348
502.50 1.068832
502.60 1.096832
502.70 1.081657
502.80 1.031076
502.90 1.039191
503.00 1.06223
503.10 1.118326
503.20 1.127406
503.30 1.141068
503.40 1.16045
503.50 1.234441
503.60 1.229769
503.70 1.15065
503.80 1.145734
503.90 1.208997
504.00 1.17229
504.10 1.161219
504.20 1.112603
504.30 1.166466
504.40 1.179374
504.50 1.191256
504.60 1.233175
504.70 1.262157
504.80 1.310095
504.90 1.307279
505.00 1.187635
505.10 1.10329
505.20 1.140424
505.30 1.176985
505.40 1.155377
505.50 1.149494
505.60 1.155574
505.70 1.120371
505.80 1.15804
505.90 1.178113
506.00 1.212807
506.10 1.249412
506.20 1.236237
506.30 1.234972
506.40 1.209085
506.50 1.151009
506.60 1.16804
506.70 1.155824
506.80 1.099784
506.90 1.14099
507.00 1.167464
507.10 1.241625
507.20 1.261988
507.30 1.189722
507.40 1.206153
507.50 1.338457
507.60 1.373985
507.70 1.2904
507.80 1.199399
507.90 1.288411
508.00 1.282072
508.10 1.226545
508.20 1.147723
508.30 1.155378
508.40 1.18599
508.50 1.217299
508.60 1.264408
508.70 1.375559
508.80 1.305596
508.90 1.195573
509.00 1.213579
509.10 1.312049
509.20 1.218841
509.30 1.2399
509.40 1.378196
509.50 1.369335
509.60 1.188637
509.70 1.190462
509.80 1.32449
509.90 1.373524
510.00 1.302394
510.10 1.170569
510.20 1.134936
510.30 1.156029
510.40 1.166314
510.50 1.156225
510.60 1.171798
510.70 1.174065
510.80 1.12326
510.90 1.108509
511.00 1.202214
511.10 1.21144
511.20 1.220167
511.30 1.220808
511.40 1.265228
511.50 1.270292
511.60 1.349027
511.70 1.454243
511.80 1.426451
511.90 1.362856
512.00 1.375252
512.10 1.364518
512.20 1.388607
512.30 1.323655
512.40 1.265126
512.50 1.260214
512.60 1.256028
512.70 1.194493
512.80 1.189952
512.90 1.165869
513.00 1.176467
513.10 1.179529
513.20 1.239921
513.30 1.300156
513.40 1.322007
513.50 1.261032
513.60 1.313311
513.70 1.461299
513.80 1.531531
513.90 1.439707
514.00 1.337038
514.10 1.367764
514.20 1.423745
514.30 1.453126
514.40 1.406647
514.50 1.27327
514.60 1.172567
514.70 1.205075
514.80 1.337095
514.90 1.370428
515.00 1.377613
515.10 1.280532
515.20 1.264208
515.30 1.161638
515.40 1.064088
515.50 1.057397
515.60 1.172902
515.70 1.252038
515.80 1.432073
515.90 1.556105
516.00 1.544828
516.10 1.582198
516.20 1.693679
516.30 1.678625
516.40 1.586206
516.50 1.596473
516.60 1.570688
516.70 1.328487
516.80 0.9306941
516.90 0.657201
517.00 0.6088203
517.10 0.6071786
517.20 0.6476637
517.30 0.6566245
517.40 0.6311522
517.50 0.7068865
517.60 0.737961
517.70 0.745326
517.80 0.760475
517.90 0.7721083
518.00 0.7642907
518.10 0.7755626
518.20 0.7327811
518.30 0.7336822
518.40 0.7535269
518.50 0.8278257
518.60 0.993433
518.70 1.065826
518.80 1.063951
518.90 1.114304
519.00 1.157513
519.10 1.156761
519.20 1.112807
519.30 1.089458
519.40 1.075539
519.50 1.084178
519.60 1.152519
519.70 1.234533
519.80 1.310656
519.90 1.273119
520.00 1.240584
520.10 1.266729
520.20 1.272045
520.30 1.155458
520.40 1.051991
520.50 0.9524642
520.60 0.9006369
520.70 0.8558412
520.80 0.887377
520.90 0.8436219
521.00 0.8199585
521.10 0.85963
521.20 1.017466
521.30 1.248052
521.40 1.457313
521.50 1.520119
521.60 1.454335
521.70 1.408283
521.80 1.525941
521.90 1.561645
522.00 1.507449
522.10 1.545579
522.20 1.665318
522.30 1.656898
522.40 1.597228
522.50 1.537694
522.60 1.512459
522.70 1.453692
522.80 1.501171
522.90 1.635926
523.00 1.701615
523.10 1.781727
523.20 1.770947
523.30 1.712522
523.40 1.634406
523.50 1.627044
523.60 1.633295
523.70 1.667307
523.80 1.708881
523.90 1.713827
524.00 1.749858
524.10 1.672045
524.20 1.506793
524.30 1.433379
524.40 1.492806
524.50 1.510675
524.60 1.524528
524.70 1.530745
524.80 1.466452
524.90 1.415955
525.00 1.390683
525.10 1.407699
525.20 1.498433
525.30 1.521856
525.40 1.590687
525.50 1.652214
525.60 1.677047
525.70 1.703492
525.80 1.650789
525.90 1.669089
526.00 1.750125
526.10 1.677009
526.20 1.563259
526.30 1.46121
526.40 1.419197
526.50 1.35254
526.60 1.344806
526.70 1.331453
526.80 1.348105
526.90 1.334557
527.00 1.183081
527.10 1.149046
527.20 1.306547
527.30 1.497473
527.40 1.633882
527.50 1.665589
527.60 1.668475
527.70 1.702923
527.80 1.719067
527.90 1.751232
528.00 1.682244
528.10 1.622381
528.20 1.606077
528.30 1.593075
528.40 1.581774
528.50 1.670195
528.60 1.755333
528.70 1.8526
528.80 1.858397
528.90 1.872209
529.00 1.80474
529.10 1.771044
529.20 1.822565
529.30 1.782432
529.40 1.765079
529.50 1.856066
529.60 1.856338
529.70 1.735117
529.80 1.683325
529.90 1.678689
530.00 1.657927
530.10 1.674501
530.20 1.693853
530.30 1.773875
530.40 1.878223
530.50 1.947334
530.60 1.939764
530.70 1.835696
530.80 1.738552
530.90 1.7495
531.00 1.711466
531.10 1.704934
531.20 1.784878
531.30 1.84581
531.40 1.763803
531.50 1.725513
531.60 1.769022
531.70 1.790214
531.80 1.828999
531.90 1.827623
532.00 1.834297
532.10 1.820759
532.20 1.780218
532.30 1.839108
532.40 1.886748
532.50 1.802717
532.60 1.772415
532.70 1.820531
532.80 1.668714
532.90 1.443969
533.00 1.442682
533.10 1.61619
533.20 1.813311
533.30 1.825112
533.40 1.751123
533.50 1.78439
533.60 1.842914
533.70 1.809315
533.80 1.743984
533.90 1.750708
534.00 1.752118
534.10 1.748109
534.20 1.767728
534.30 1.82712
534.40 1.845612
534.50 1.879662
534.60 1.85192
534.70 1.772101
534.80 1.704723
534.90 1.797641
535.00 1.86671
535.10 1.919185
535.20 2.019199
535.30 2.091357
535.40 2.030718
535.50 2.013364
535.60 2.023595
535.70 2.01193
535.80 2.033096
535.90 1.957242
536.00 1.869109
536.10 1.823818
536.20 1.856753
536.30 1.884614
536.40 1.941111
536.50 1.921762
536.60 1.907912
536.70 1.948307
536.80 1.905482
536.90 1.935594
537.00 1.994529
537.10 1.848503
537.20 1.673815
537.30 1.677086
537.40 1.880105
537.50 1.992558
537.60 2.017504
537.70 2.011247
537.80 1.990915
537.90 2.059839
538.00 2.166808
538.10 2.220905
538.20 2.17186
538.30 2.140001
538.40 2.096162
538.50 2.091343
538.60 2.036609
538.70 2.109824
538.80 2.180802
538.90 2.201021
539.00 2.174053
539.10 2.195919
539.20 2.149807
539.30 2.085603
539.40 2.049163
539.50 2.051875
539.60 2.060207
539.70 1.986714
539.80 1.873989
539.90 1.894694
540.00 2.027956
540.10 2.200884
540.20 2.276451
540.30 2.281306
540.40 2.224725
540.50 2.141784
540.60 2.022226
540.70 1.923986
540.80 1.98189
540.90 2.041057
541.00 2.007651
541.10 1.923862
541.20 1.981324
541.30 2.020077
541.40 2.070674
541.50 2.188836
541.60 2.252955
541.70 2.221721
541.80 2.251754
541.90 2.316873
542.00 2.285096
542.10 2.222491
542.20 2.266075
542.30 2.293561
542.40 2.198976
542.50 2.189236
542.60 2.259495
542.70 2.238383
542.80 2.252217
542.90 2.242673
543.00 2.118582
543.10 2.017051
543.20 2.039423
543.30 2.111048
543.40 2.08439
543.50 2.004247
543.60 2.052202
543.70 2.204206
543.80 2.354941
543.90 2.35133
544.00 2.33472
544.10 2.346034
544.20 2.422897
544.30 2.473069
544.40 2.557373
544.50 2.508727
544.60 2.341163
544.70 2.112324
544.80 1.853207
544.90 1.633023
545.00 1.497092
545.10 1.383128
545.20 1.314741
545.30 1.302302
545.40 1.256413
545.50 1.297936
545.60 1.364777
545.70 1.328391
545.80 1.311366
545.90 1.455726
546.00 1.552556
546.10 1.5434
546.20 1.551718
546.30 1.579003
546.40 1.641775
546.50 1.72517
546.60 1.625139
546.70 1.650531
546.80 1.761347
546.90 1.78855
547.00 1.699292
547.10 1.602674
547.20 1.636152
547.30 1.659561
547.40 1.746647
547.50 1.74278
547.60 1.70727
547.70 1.644528
547.80 1.604626
547.90 1.634883
548.00 1.712607
548.10 1.755599
548.20 1.761506
548.30 1.757032
548.40 1.742182
548.50 1.775308
548.60 1.814104
548.70 1.865035
548.80 1.815102
548.90 1.778164
549.00 1.794111
549.10 1.840055
549.20 1.871784
549.30 1.891185
549.40 1.894846
549.50 1.892606
549.60 1.871817
549.70 1.786862
549.80 1.607476
549.90 1.499402
550.00 1.418299
550.10 1.40481
550.20 1.373694
550.30 1.438791
550.40 1.485368
550.50 1.406576
550.60 1.359668
550.70 1.401145
550.80 1.439648
550.90 1.453282
551.00 1.471245
551.10 1.458823
551.20 1.38846
551.30 1.329177
551.40 1.361968
551.50 1.346847
551.60 1.327348
551.70 1.422242
551.80 1.531168
551.90 1.492909
552.00 1.398798
552.10 1.431657
552.20 1.484718
552.30 1.492442
552.40 1.459428
552.50 1.433625
552.60 1.392923
552.70 1.382323
552.80 1.410197
552.90 1.420518
553.00 1.458805
553.10 1.526957
553.20 1.526059
553.30 1.479864
553.40 1.435507
553.50 1.364128
553.60 1.336334
553.70 1.309631
553.80 1.271541
553.90 1.250506
554.00 1.280707
554.10 1.366866
554.20 1.265607
554.30 1.196857
554.40 1.260923
554.50 1.33742
554.60 1.326443
554.70 1.321659
554.80 1.403185
554.90 1.488089
555.00 1.453122
555.10 1.390318
555.20 1.381729
555.30 1.367381
555.40 1.349579
555.50 1.401563
555.60 1.441266
555.70 1.495238
555.80 1.548336
555.90 1.55003
556.00 1.509582
556.10 1.528857
556.20 1.591832
556.30 1.646808
556.40 1.629938
556.50 1.650588
556.60 1.631738
556.70 1.625677
556.80 1.663182
556.90 1.650851
557.00 1.647055
557.10 1.712358
557.20 1.725116
557.30 1.726146
557.40 1.725647
557.50 1.725601
557.60 1.725601
557.70 1.725601
557.80 1.725601
557.90 1.725601
558.00 1.725601
558.10 1.725601
558.20 1.725641
558.30 1.725296
558.40 1.718287
558.50 1.735331
558.60 1.853682
558.70 1.933967
558.80 1.894356
558.90 1.780969
559.00 1.678083
559.10 1.691591
559.20 1.834748
559.30 1.934183
559.40 1.93832
559.50 1.845157
559.60 1.791514
559.70 1.8476
559.80 1.723074
559.90 1.463413
560.00 1.330203
560.10 1.392794
560.20 1.493674
560.30 1.583377
560.40 1.61298
560.50 1.535618
560.60 1.522411
560.70 1.562604
560.80 1.572305
560.90 1.57971
561.00 1.612136
561.10 1.642836
561.20 1.675269
561.30 1.742549
561.40 1.79846
561.50 1.756856
561.60 1.677565
561.70 1.57947
561.80 1.546301
561.90 1.584659
562.00 1.643614
562.10 1.538315
562.20 1.464503
562.30 1.519076
562.40 1.583949
562.50 1.659122
562.60 1.71679
562.70 1.69992
562.80 1.658193
562.90 1.601753
563.00 1.467768
563.10 1.392868
563.20 1.441601
563.30 1.529468
563.40 1.605716
563.50 1.726483
563.60 1.750896
563.70 1.685373
563.80 1.662172
563.90 1.61303
564.00 1.57233
564.10 1.614307
564.20 1.701181
564.30 1.667869
564.40 1.625949
564.50 1.685903
564.60 1.714532
564.70 1.664948
564.80 1.658915
564.90 1.71698
565.00 1.706665
565.10 1.752558
565.20 1.800842
565.30 1.822415
565.40 1.872518
565.50 1.885781
565.60 1.880996
565.70 1.907794
565.80 1.955652
565.90 1.863018
566.00 1.776779
566.10 1.863288
566.20 1.892228
566.30 1.787796
566.40 1.685921
566.50 1.645612
566.60 1.677205
566.70 1.72803
566.80 1.742986
566.90 1.695375
567.00 1.708925
567.10 1.660491
567.20 1.661317
567.30 1.688173
567.40 1.741343
567.50 1.782434
567.60 1.7856
567.70 1.774573
567.80 1.823667
567.90 1.893777
568.00 1.886312
568.10 1.796202
568.20 1.785369
568.30 1.832679
568.40 1.860002
568.50 1.876657
568.60 1.903469
568.70 2.007791
568.80 1.989185
568.90 1.863919
569.00 1.738001
569.10 1.815388
569.20 1.955701
569.30 1.985844
569.40 1.995563
569.50 1.975247
569.60 1.95882
569.70 1.946739
569.80 1.938543
569.90 1.978496
570.00 1.987972
570.10 1.999197
570.20 2.017023
570.30 2.033076
570.40 1.980477
570.50 1.970698
570.60 2.013542
570.70 2.101279
570.80 2.129824
570.90 2.199267
571.00 2.228115
571.10 2.184381
571.20 2.09431
571.30 2.086993
571.40 2.056015
571.50 2.011597
571.60 1.970831
571.70 2.038995
571.80 2.065528
571.90 2.047805
572.00 2.060168
572.10 2.099408
572.20 2.002685
572.30 1.930505
572.40 1.997413
572.50 2.078875
572.60 2.036212
572.70 1.971734
572.80 1.992929
572.90 2.01725
573.00 2.066564
573.10 2.121261
573.20 2.120559
573.30 2.093369
573.40 2.103137
573.50 2.16981
573.60 2.194536
573.70 2.130615
573.80 2.073053
573.90 2.0905
574.00 2.131483
574.10 2.175536
574.20 2.101964
574.30 2.1129
574.40 2.164252
574.50 2.208609
574.60 2.213647
574.70 2.283258
574.80 2.348678
574.90 2.397242
575.00 2.385208
575.10 2.367048
575.20 2.383584
575.30 2.42372
575.40 2.423393
575.50 2.385183
575.60 2.384894
575.70 2.420909
575.80 2.409321
575.90 2.350123
576.00 2.226996
576.10 2.089448
576.20 1.991246
576.30 1.918807
576.40 1.86337
576.50 1.830357
576.60 1.826527
576.70 1.83913
576.80 1.926246
576.90 1.944307
577.00 1.936559
577.10 2.00312
577.20 2.056158
577.30 2.099963
577.40 2.099537
577.50 2.129951
577.60 2.072824
577.70 1.991669
577.80 1.979237
577.90 1.977947
578.00 1.995065
578.10 2.043384
578.20 2.079405
578.30 2.137354
578.40 2.209997
578.50 2.301884
578.60 2.250678
578.70 2.155628
578.80 2.182659
578.90 2.260477
579.00 2.228633
579.10 2.145519
579.20 2.10867
579.30 2.186796
579.40 2.234703
579.50 2.375863
579.60 2.453854
579.70 2.4272
579.80 2.424797
579.90 2.451719
580.00 2.459103
580.10 2.441952
580.20 2.426619
580.30 2.397748
580.40 2.423543
580.50 2.512268
580.60 2.482802
580.70 2.510921
580.80 2.553229
580.90 2.521853
581.00 2.44433
581.10 2.333169
581.20 2.192545
581.30 2.054895
581.40 1.941557
581.50 1.931614
581.60 1.936992
581.70 1.902865
581.80 1.876972
581.90 1.884531
582.00 1.871213
582.10 1.821005
582.20 1.856607
582.30 1.894875
582.40 1.929796
582.50 1.909788
582.60 1.881801
582.70 1.947008
582.80 2.014095
582.90 2.000617
583.00 2.040711
583.10 2.034682
583.20 2.018754
583.30 2.117157
583.40 2.140175
583.50 2.050285
583.60 2.011285
583.70 2.08705
583.80 2.149445
583.90 2.1279
584.00 2.079317
584.10 1.991254
584.20 2.00867
584.30 2.047421
584.40 2.036211
584.50 2.006581
584.60 2.005632
584.70 2.031676
584.80 1.972678
584.90 1.835791
585.00 1.710888
585.10 1.648418
585.20 1.596735
585.30 1.593095
585.40 1.615556
585.50 1.619648
585.60 1.627586
585.70 1.629629
585.80 1.590676
585.90 1.570483
586.00 1.583682
586.10 1.632952
586.20 1.599118
586.30 1.491309
586.40 1.441939
586.50 1.468839
586.60 1.462515
586.70 1.391126
586.80 1.448234
586.90 1.514252
587.00 1.532299
587.10 1.52857
587.20 1.53223
587.30 1.458613
587.40 1.331697
587.50 1.259113
587.60 1.278192
587.70 1.326518
587.80 1.334531
587.90 1.291783
588.00 1.289639
588.10 1.2654
588.20 1.175112
588.30 1.094348
588.40 1.062803
588.50 1.079511
588.60 1.041555
588.70 0.9729045
588.80 0.8149304
588.90 0.7467771
589.00 0.7352766
589.10 0.7181069
589.20 0.6989285
589.30 0.7330355
589.40 0.811558
589.50 0.6665739
589.60 0.6551458
589.70 0.6612639
589.80 0.6127072
589.90 0.7045517
590.00 0.807692
590.10 0.8709783
590.20 0.8107069
590.30 0.930931
590.40 1.065564
590.50 1.118758
590.60 1.117846
590.70 1.128418
590.80 1.191833
590.90 1.185448
591.00 1.149681
591.10 1.188239
591.20 1.261164
591.30 1.229659
591.40 1.190796
591.50 1.217605
591.60 1.213693
591.70 1.260874
591.80 1.337281
591.90 1.335874
592.00 1.332443
592.10 1.369051
592.20 1.363576
592.30 1.288767
592.40 1.268058
592.50 1.272902
592.60 1.270168
592.70 1.271611
592.80 1.29286
592.90 1.341077
593.00 1.396435
593.10 1.397144
593.20 1.407818
593.30 1.418424
593.40 1.414576
593.50 1.447265
593.60 1.49195
593.70 1.544854
593.80 1.554046
593.90 1.59006
594.00 1.57701
594.10 1.513954
594.20 1.47802
594.30 1.517535
594.40 1.5995
594.50 1.66937
594.60 1.623926
594.70 1.609082
594.80 1.575617
594.90 1.543883
595.00 1.469716
595.10 1.387925
595.20 1.379277
595.30 1.401351
595.40 1.434205
595.50 1.512359
595.60 1.537119
595.70 1.455981
595.80 1.393032
595.90 1.401188
596.00 1.356152
596.10 1.348123
596.20 1.433577
596.30 1.495761
596.40 1.495136
596.50 1.427884
596.60 1.473851
596.70 1.512996
596.80 1.534838
596.90 1.562974
597.00 1.614014
597.10 1.604787
597.20 1.563067
597.30 1.502597
597.40 1.450116
597.50 1.471911
597.60 1.503154
597.70 1.517396
597.80 1.544011
597.90 1.597963
598.00 1.627305
598.10 1.618344
598.20 1.675558
598.30 1.672462
598.40 1.577558
598.50 1.62868
598.60 1.675066
598.70 1.663722
598.80 1.630037
598.90 1.67977
599.00 1.698859
599.10 1.662667
599.20 1.728514
599.30 1.776895
599.40 1.841473
599.50 1.909907
599.60 1.868508
599.70 1.838268
599.80 1.864538
599.90 1.871736
600.00 1.770687
600.10 1.706842
600.20 1.723405
600.30 1.721769
600.40 1.720203
600.50 1.729431
600.60 1.78365
600.70 1.759232
600.80 1.715258
600.90 1.68144
601.00 1.694207
601.10 1.724545
601.20 1.768368
601.30 1.781961
601.40 1.808105
601.50 1.790656
601.60 1.736073
601.70 1.792895
601.80 1.839618
601.90 1.85565
602.00 1.8427
602.10 1.844141
602.20 1.868449
602.30 1.872307
602.40 1.880955
602.50 1.894417
602.60 1.93884
602.70 1.959243
602.80 1.967159
602.90 2.000567
603.00 1.994932
603.10 1.956979
603.20 1.96624
603.30 1.994833
603.40 2.006384
603.50 2.000886
603.60 1.975961
603.70 1.888093
603.80 1.731906
603.90 1.70042
604.00 1.789629
604.10 1.876331
604.20 1.957475
604.30 2.027146
604.40 2.038569
604.50 2.019652
604.60 2.082759
604.70 2.124681
604.80 2.103985
604.90 2.117296
605.00 2.220004
605.10 2.238903
605.20 2.175179
605.30 2.131884
605.40 2.106143
605.50 2.103877
605.60 2.159216
605.70 2.131862
605.80 2.089792
605.90 2.116483
606.00 2.127905
606.10 2.14287
606.20 2.194815
606.30 2.200808
606.40 2.151812
606.50 2.111603
606.60 2.087347
606.70 2.015484
606.80 2.071118
606.90 2.196236
607.00 2.259854
607.10 2.252653
607.20 2.227451
607.30 2.242472
607.40 2.157156
607.50 2.098581
607.60 2.153273
607.70 2.248047
607.80 2.312387
607.90 2.280362
608.00 2.184071
608.10 2.089311
608.20 2.037355
608.30 2.085947
608.40 2.106567
608.50 2.14655
608.60 2.187313
608.70 2.218533
608.80 2.203307
608.90 2.208845
609.00 2.219287
609.10 2.213357
609.20 2.213712
609.30 2.219775
609.40 2.268482
609.50 2.322777
609.60 2.35344
609.70 2.348824
609.80 2.348566
609.90 2.333051
610.00 2.30786
610.10 2.279167
610.20 2.204085
610.30 2.101706
610.40 2.033795
610.50 2.04837
610.60 2.125566
610.70 2.182187
610.80 2.216421
610.90 2.276913
611.00 2.314397
611.10 2.298362
611.20 2.274909
611.30 2.263275
611.40 2.263802
611.50 2.296934
611.60 2.310943
611.70 2.26703
611.80 2.198811
611.90 2.181375
612.00 2.165402
612.10 2.122607
612.20 2.048531
612.30 1.919243
612.40 1.882034
612.50 1.981813
612.60 2.148397
612.70 2.238784
612.80 2.241795
612.90 2.280127
613.00 2.295128
613.10 2.307289
613.20 2.315194
613.30 2.28546
613.40 2.229814
613.50 2.179522
613.60 2.198676
613.70 2.253447
613.80 2.244997
613.90 2.250339
614.00 2.277918
614.10 2.287142
614.20 2.276912
614.30 2.30965
614.40 2.384187
614.50 2.463619
614.60 2.504863
614.70 2.471445
614.80 2.350325
614.90 2.230611
615.00 2.110717
615.10 1.969776
615.20 1.90862
615.30 1.974896
615.40 2.050203
615.50 2.031572
615.60 2.002986
615.70 1.977573
615.80 1.875346
615.90 1.695793
616.00 1.55487
616.10 1.475006
616.20 1.361761
616.30 1.25402
616.40 1.236368
616.50 1.289042
616.60 1.285179
616.70 1.260403
616.80 1.287181
616.90 1.330313
617.00 1.355866
617.10 1.398387
617.20 1.426058
617.30 1.397208
617.40 1.409714
617.50 1.409138
617.60 1.38407
617.70 1.323432
617.80 1.361112
617.90 1.462442
618.00 1.495102
618.10 1.457995
618.20 1.434528
618.30 1.465681
618.40 1.433954
618.50 1.398182
618.60 1.362927
618.70 1.295724
618.80 1.171544
618.90 1.103896
619.00 1.161101
619.10 1.205916
619.20 1.202888
619.30 1.1651
619.40 1.148427
619.50 1.150273
619.60 1.158733
619.70 1.181631
619.80 1.227672
619.90 1.254569
620.00 1.248312
620.10 1.260012
620.20 1.260537
620.30 1.240379
620.40 1.241287
620.50 1.300009
620.60 1.331575
620.70 1.288282
620.80 1.29397
620.90 1.344707
621.00 1.361843
621.10 1.33959
621.20 1.299234
621.30 1.282396
621.40 1.263994
621.50 1.210565
621.60 1.133106
621.70 1.085744
621.80 1.079015
621.90 1.091612
622.00 1.152121
622.10 1.180371
622.20 1.196135
622.30 1.180477
622.40 1.074678
622.50 1.005124
622.60 0.9889538
622.70 1.052884
622.80 1.086586
622.90 1.086689
623.00 1.079502
623.10 1.077355
623.20 1.086325
623.30 1.109813
623.40 1.13286
623.50 1.117269
623.60 1.095905
623.70 1.128175
623.80 1.153888
623.90 1.160559
624.00 1.175105
624.10 1.162891
624.20 1.143358
624.30 1.154101
624.40 1.217014
624.50 1.190591
624.60 1.154517
624.70 1.153654
624.80 1.157652
624.90 1.215956
625.00 1.259412
625.10 1.261973
625.20 1.239153
625.30 1.249176
625.40 1.289796
625.50 1.313159
625.60 1.336271
625.70 1.346495
625.80 1.349929
625.90 1.345345
626.00 1.346641
626.10 1.333244
626.20 1.359822
626.30 1.443198
626.40 1.491951
626.50 1.508101
626.60 1.533169
626.70 1.526735
626.80 1.484291
626.90 1.446543
627.00 1.448677
627.10 1.472876
627.20 1.464415
627.30 1.490178
627.40 1.526418
627.50 1.542357
627.60 1.508153
627.70 1.423837
627.80 1.387067
627.90 1.425689
628.00 1.439369
628.10 1.453231
628.20 1.485038
628.30 1.510962
628.40 1.566007
628.50 1.607613
628.60 1.658984
628.70 1.674262
628.80 1.670273
628.90 1.694883
629.00 1.750428
629.10 1.790299
629.20 1.763368
629.30 1.748269
629.40 1.767999
629.50 1.744284
629.60 1.688062
629.70 1.755311
629.80 1.841095
629.90 1.791257
630.00 1.772988
630.10 1.966853
630.20 2.315217
630.30 2.185454
630.40 1.870092
630.50 1.896114
630.60 1.964926
630.70 1.966579
630.80 2.020093
630.90 2.111879
631.00 2.151822
631.10 2.127232
631.20 2.15016
631.30 2.218405
631.40 2.244124
631.50 2.239885
631.60 2.254163
631.70 2.255493
631.80 2.258356
631.90 2.286513
632.00 2.295109
632.10 2.256785
632.20 2.279271
632.30 2.326268
632.40 2.279641
632.50 2.254331
632.60 2.26136
632.70 2.305281
632.80 2.3787
632.90 2.428767
633.00 2.415134
633.10 2.35505
633.20 2.364715
633.30 2.409365
633.40 2.468848
633.50 2.50849
633.60 2.537032
633.70 2.522597
633.80 2.512931
633.90 2.564225
634.00 2.625594
634.10 2.628811
634.20 2.609059
634.30 2.644991
634.40 2.722448
634.50 2.771186
634.60 2.750146
634.70 2.715018
634.80 2.722265
634.90 2.795623
635.00 2.817618
635.10 2.814214
635.20 2.785887
635.30 2.710939
635.40 2.635109
635.50 2.597121
635.60 2.619224
635.70 2.577987
635.80 2.502501
635.90 2.415612
636.00 2.387919
636.10 2.377134
636.20 2.379529
636.30 2.404026
636.40 2.466946
636.50 2.554882
636.60 2.543019
636.70 2.444342
636.80 2.376835
636.90 2.397774
637.00 2.417231
637.10 2.463296
637.20 2.47649
637.30 2.510018
637.40 2.549168
637.50 2.542909
637.60 2.499243
637.70 2.47407
637.80 2.471002
637.90 2.440876
638.00 2.399922
638.10 2.297672
638.20 2.177707
638.30 2.09992
638.40 2.112426
638.50 2.169721
638.60 2.192363
638.70 2.195524
638.80 2.185325
638.90 2.160469
639.00 2.132607
639.10 2.184816
639.20 2.294237
639.30 2.375585
639.40 2.421972
639.50 2.469533
639.60 2.542246
639.70 2.647648
639.80 2.70361
639.90 2.711748
640.00 2.711241
640.10 2.72508
640.20 2.735159
640.30 2.74077
640.40 2.810541
640.50 2.873153
640.60 2.909912
640.70 2.94767
640.80 2.970842
640.90 2.985489
641.00 2.995653
641.10 3.018236
641.20 3.044643
641.30 3.030637
641.40 2.979695
641.50 2.93736
641.60 2.914493
641.70 2.883121
641.80 2.853472
641.90 2.850768
642.00 2.83452
642.10 2.784996
642.20 2.779374
642.30 2.793695
642.40 2.825284
642.50 2.868181
642.60 2.873893
642.70 2.871765
642.80 2.85261
642.90 2.878242
643.00 2.928008
643.10 2.951682
643.20 2.971478
643.30 2.967821
643.40 2.977434
643.50 3.018731
643.60 3.044772
643.70 3.034441
643.80 2.984289
643.90 2.93095
644.00 2.875968
644.10 2.852594
644.20 2.949351
644.30 3.120153
644.40 3.25156
644.50 3.328999
644.60 3.379496
644.70 3.355769
644.80 3.226194
644.90 3.062211
645.00 2.943473
645.10 2.926614
645.20 2.996444
645.30 3.08977
645.40 3.20973
645.50 3.265779
645.60 3.279416
645.70 3.283319
645.80 3.306013
645.90 3.323327
646.00 3.309936
646.10 3.275166
646.20 3.176387
646.30 3.065131
646.40 3.049725
646.50 3.114576
646.60 3.234611
646.70 3.347156
646.80 3.457779
646.90 3.569599
647.00 3.575082
647.10 3.534442
647.20 3.50675
647.30 3.500553
647.40 3.522862
647.50 3.584753
647.60 3.667687
647.70 3.718894
647.80 3.693579
647.90 3.615851
648.00 3.521062
648.10 3.41483
648.20 3.347644
648.30 3.309851
648.40 3.295567
648.50 3.239409
648.60 3.174636
648.70 3.175736
648.80 3.225035
648.90 3.29026
649.00 3.398152
649.10 3.460357
649.20 3.432932
649.30 3.351416
649.40 3.267466
649.50 3.215851
649.60 3.148132
649.70 3.167465
649.80 3.283763
649.90 3.362513
650.00 3.377026
650.10 3.336348
650.20 3.392666
650.30 3.539278
650.40 3.672045
650.50 3.747258
650.60 3.762245
650.70 3.753638
650.80 3.757833
650.90 3.777714
651.00 3.832366
651.10 3.901596
651.20 3.907788
651.30 3.844187
651.40 3.759776
651.50 3.704923
651.60 3.672353
651.70 3.68911
651.80 3.75411
651.90 3.822035
652.00 3.888589
652.10 3.936508
652.20 3.94962
652.30 3.961993
652.40 3.997856
652.50 4.02949
652.60 4.058546
652.70 4.081306
652.80 4.122016
652.90 4.170211
653.00 4.180848
653.10 4.174382
653.20 4.150244
653.30 4.151477
653.40 4.233106
653.50 4.31098
653.60 4.347319
653.70 4.383167
653.80 4.410148
653.90 4.426399
654.00 4.469246
654.10 4.537393
654.20 4.562519
654.30 4.516115
654.40 4.392778
654.50 4.238555
654.60 4.098938
654.70 4.002751
654.80 3.970391
654.90 3.965576
655.00 3.949587
655.10 3.911767
655.20 3.828972
655.30 3.759183
655.40 3.717027
655.50 3.727072
655.60 3.740034
655.70 3.764917
655.80 3.826163
655.90 3.889189
656.00 3.985913
656.10 4.101151
656.20 4.267228
656.30 4.562556
656.40 4.859871
656.50 4.844588
656.60 4.44374
656.70 3.932969
656.80 3.651388
656.90 3.595502
657.00 3.570121
657.10 3.555422
657.20 3.49934
657.30 3.404575
657.40 3.305995
657.50 3.268005
657.60 3.349807
657.70 3.488302
657.80 3.574943
657.90 3.551215
658.00 3.432135
658.10 3.330972
658.20 3.349338
658.30 3.415155
658.40 3.480688
658.50 3.54036
658.60 3.594342
658.70 3.637178
658.80 3.673353
658.90 3.737302
659.00 3.797888
659.10 3.784759
659.20 3.722775
659.30 3.652968
659.40 3.53622
659.50 3.399542
659.60 3.34112
659.70 3.382844
659.80 3.466801
659.90 3.481009
660.00 3.436571
660.10 3.410878
660.20 3.440614
660.30 3.508049
660.40 3.534577
660.50 3.520396
660.60 3.486077
660.70 3.429267
660.80 3.37918
660.90 3.382772
661.00 3.411081
661.10 3.457925
661.20 3.494869
661.30 3.502573
661.40 3.512793
661.50 3.504764
661.60 3.519214
661.70 3.494626
661.80 3.419622
661.90 3.354063
662.00 3.289956
662.10 3.247105
662.20 3.238158
662.30 3.234433
662.40 3.207921
662.50 3.166406
662.60 3.090781
662.70 2.989248
662.80 2.931282
662.90 2.928108
663.00 2.965798
663.10 3.059382
663.20 3.181275
663.30 3.24041
663.40 3.234998
663.50 3.188734
663.60 3.065064
663.70 2.94395
663.80 2.862742
663.90 2.849927
664.00 2.906258
664.10 2.969183
664.20 3.016333
664.30 3.045876
664.40 3.081935
664.50 3.104681
664.60 3.090228
664.70 3.062071
664.80 3.053493
664.90 3.059298
665.00 2.978278
665.10 2.813838
665.20 2.638999
665.30 2.504407
665.40 2.433787
665.50 2.408188
665.60 2.452207
665.70 2.536036
665.80 2.57239
665.90 2.549501
666.00 2.511957
666.10 2.516257
666.20 2.561438
666.30 2.613617
666.40 2.653019
666.50 2.698663
666.60 2.744078
666.70 2.788368
666.80 2.822849
666.90 2.863195
667.00 2.898193
667.10 2.916462
667.20 2.908066
667.30 2.884245
667.40 2.88505
667.50 2.900106
667.60 2.879168
667.70 2.828709
667.80 2.819212
667.90 2.827425
668.00 2.751938
668.10 2.603482
668.20 2.425097
668.30 2.273416
668.40 2.196292
668.50 2.204476
668.60 2.280036
668.70 2.343624
668.80 2.367381
668.90 2.39512
669.00 2.406972
669.10 2.414945
669.20 2.431104
669.30 2.412565
669.40 2.369267
669.50 2.329845
669.60 2.34645
669.70 2.387742
669.80 2.450382
669.90 2.516637
670.00 2.509867
670.10 2.492046
670.20 2.496863
670.30 2.506952
670.40 2.548405
670.50 2.567658
670.60 2.585402
670.70 2.601939
670.80 2.592785
670.90 2.640897
671.00 2.699309
671.10 2.681826
671.20 2.630914
671.30 2.580816
671.40 2.511134
671.50 2.414031
671.60 2.299766
671.70 2.174458
671.80 2.067126
671.90 1.991544
672.00 1.986834
672.10 2.007216
672.20 2.009066
672.30 1.998864
672.40 2.014852
672.50 2.080868
672.60 2.13137
672.70 2.1708
672.80 2.201381
672.90 2.208166
673.00 2.217111
673.10 2.225849
673.20 2.247861
673.30 2.260681
673.40 2.232303
673.50 2.241584
673.60 2.263063
673.70 2.272849
673.80 2.298391
673.90 2.330595
674.00 2.364953
674.10 2.389792
674.20 2.389616
674.30 2.401502
674.40 2.42198
674.50 2.431038
674.60 2.422934
674.70 2.377239
674.80 2.284601
674.90 2.164155
675.00 2.072377
675.10 2.041639
675.20 2.071876
675.30 2.14168
675.40 2.198329
675.50 2.217658
675.60 2.2296
675.70 2.255219
675.80 2.269351
675.90 2.270179
676.00 2.251964
676.10 2.24483
676.20 2.271838
676.30 2.309044
676.40 2.346713
676.50 2.403874
676.60 2.463928
676.70 2.498941
676.80 2.494099
676.90 2.473721
677.00 2.450946
677.10 2.468551
677.20 2.488212
677.30 2.480881
677.40 2.493601
677.50 2.520323
677.60 2.568768
677.70 2.621597
677.80 2.610629
677.90 2.581306
678.00 2.551085
678.10 2.502939
678.20 2.451604
678.30 2.335696
678.40 2.199576
678.50 2.105842
678.60 2.076575
678.70 2.111511
678.80 2.11299
678.90 2.089334
679.00 2.097872
679.10 2.147479
679.20 2.223781
679.30 2.236304
679.40 2.192237
679.50 2.183745
679.60 2.224844
679.70 2.259811
679.80 2.249839
679.90 2.233051
680.00 2.279403
680.10 2.337572
680.20 2.365835
680.30 2.375484
680.40 2.367481
680.50 2.333961
680.60 2.28573
680.70 2.280107
680.80 2.320903
680.90 2.350606
681.00 2.344908
681.10 2.354874
681.20 2.377727
681.30 2.417168
681.40 2.453724
681.50 2.448174
681.60 2.38912
681.70 2.294565
681.80 2.22585
681.90 2.223888
682.00 2.259776
682.10 2.28148
682.20 2.314758
682.30 2.331308
682.40 2.324669
682.50 2.320038
682.60 2.339812
682.70 2.360781
682.80 2.369718
682.90 2.408528
683.00 2.438009
683.10 2.452261
683.20 2.435578
683.30 2.423125
683.40 2.446614
683.50 2.468786
683.60 2.48263
683.70 2.431887
683.80 2.41119
683.90 2.432295
684.00 2.448933
684.10 2.467183
684.20 2.471617
684.30 2.490576
684.40 2.502264
684.50 2.513274
684.60 2.535614
684.70 2.515435
684.80 2.454377
684.90 2.436606
685.00 2.441057
685.10 2.424432
685.20 2.349719
685.30 2.260326
685.40 2.239968
685.50 2.28203
685.60 2.306171
685.70 2.294718
685.80 2.299412
685.90 2.314157
686.00 2.311172
686.10 2.297523
686.20 2.301243
686.30 2.317581
686.40 2.359848
686.50 2.436235
686.60 2.504258
686.70 2.512431
686.80 2.485296
686.90 2.428441
687.00 2.336891
687.10 2.281301
687.20 2.316863
687.30 2.40305
687.40 2.457065
687.50 2.481098
687.60 2.54768
687.70 2.612882
687.80 2.64274
687.90 2.671924
688.00 2.66791
688.10 2.647004
688.20 2.622012
688.30 2.590884
688.40 2.557152
688.50 2.512239
688.60 2.465253
688.70 2.457016
688.80 2.488822
688.90 2.55978
689.00 2.627026
689.10 2.645932
689.20 2.637438
689.30 2.637124
689.40 2.659176
689.50 2.713453
689.60 2.746786
689.70 2.742043
689.80 2.728979
689.90 2.70188
690.00 2.685704
690.10 2.644835
690.20 2.527742
690.30 2.418113
690.40 2.420539
690.50 2.536268
690.60 2.691429
690.70 2.84064
690.80 2.932163
690.90 2.955715
691.00 2.95994
691.10 2.973925
691.20 2.987328
691.30 2.970708
691.40 2.973833
691.50 3.03748
691.60 3.056648
691.70 2.996696
691.80 2.894627
691.90 2.736046
692.00 2.593702
692.10 2.568761
692.20 2.696851
692.30 2.921913
692.40 3.097345
692.50 3.179007
692.60 3.191984
692.70 3.173819
692.80 3.194056
692.90 3.202093
693.00 3.215919
693.10 3.24933
693.20 3.301264
693.30 3.390379
693.40 3.423014
693.50 3.4321
693.60 3.448868
693.70 3.441639
693.80 3.426614
693.90 3.426096
694.00 3.473815
694.10 3.523892
694.20 3.579177
694.30 3.641833
694.40 3.697421
694.50 3.781788
694.60 3.818251
694.70 3.838082
694.80 3.928563
694.90 4.009154
695.00 4.025798
695.10 3.98487
695.20 3.934755
695.30 3.857847
695.40 3.803529
695.50 3.785344
695.60 3.754245
695.70 3.737757
695.80 3.721202
695.90 3.715042
696.00 3.74038
696.10 3.749656
696.20 3.735307
696.30 3.738647
696.40 3.788414
696.50 3.869234
696.60 3.91275
696.70 3.923893
696.80 3.928512
696.90 3.9512
697.00 3.95813
697.10 3.919322
697.20 3.892619
697.30 3.867375
697.40 3.880908
697.50 3.917083
697.60 3.985277
697.70 4.069372
697.80 4.098281
697.90 4.095781
698.00 4.110286
698.10 4.114363
698.20 4.108544
698.30 4.157158
698.40 4.205267
698.50 4.223912
698.60 4.260885
698.70 4.282202
698.80 4.256701
698.90 4.221253
699.00 4.178639
699.10 4.138971
699.20 4.10345
699.30 4.057568
699.40 4.046945
699.50 4.084004
699.60 4.124142
699.70 4.172707
699.80 4.200546
699.90 4.189592
700.00 4.164382
700.10 4.202582
700.20 4.28717
700.30 4.341391
700.40 4.344145
700.50 4.307757
700.60 4.258989
700.70 4.24899
700.80 4.308615
700.90 4.362452
701.00 4.385323
701.10 4.380158
701.20 4.393738
701.30 4.477578
701.40 4.605058
701.50 4.707215
701.60 4.719744
701.70 4.644315
701.80 4.57225
701.90 4.577225
702.00 4.665027
702.10 4.782502
702.20 4.841269
702.30 4.807303
702.40 4.695253
702.50 4.553364
702.60 4.445909
702.70 4.438214
702.80 4.596727
702.90 4.878741
703.00 5.138731
703.10 5.264076
703.20 5.245797
703.30 5.192277
703.40 5.178297
703.50 5.226587
703.60 5.355812
703.70 5.525505
703.80 5.646664
703.90 5.673103
704.00 5.65436
704.10 5.675326
704.20 5.760589
704.30 5.881525
704.40 5.967238
704.50 5.99788
704.60 6.01089
704.70 6.012086
704.80 6.024448
704.90 6.048976
705.00 6.057313
705.10 6.101118
705.20 6.085294
705.30 5.922471
705.40 5.539262
705.50 4.875932
705.60 4.131813
705.70 3.601866
705.80 3.409525
705.90 3.467147
706.00 3.546194
706.10 3.471532
706.20 3.333857
706.30 3.260925
706.40 3.329282
706.50 3.444722
706.60 3.520059
706.70 3.600283
706.80 3.681739
706.90 3.740708
707.00 3.757427
707.10 3.796273
707.20 3.897607
707.30 3.986066
707.40 4.013296
707.50 4.011431
707.60 3.999331
707.70 4.00976
707.80 4.001397
707.90 3.992264
708.00 4.055252
708.10 4.122174
708.20 4.135913
708.30 4.145476
708.40 4.178097
708.50 4.209648
708.60 4.213317
708.70 4.079949
708.80 3.735937
708.90 3.256914
709.00 2.815363
709.10 2.578428
709.20 2.589795
709.30 2.725894
709.40 2.836968
709.50 2.838546
709.60 2.775956
709.70 2.727073
709.80 2.757537
709.90 2.853911
710.00 2.934002
710.10 2.968278
710.20 2.977549
710.30 2.976922
710.40 2.968959
710.50 2.974807
710.60 3.016391
710.70 3.089059
710.80 3.183778
710.90 3.313544
711.00 3.445286
711.10 3.533423
711.20 3.573025
711.30 3.576194
711.40 3.573144
711.50 3.571705
711.60 3.525253
711.70 3.468225
711.80 3.492318
711.90 3.588695
712.00 3.703804
712.10 3.804192
712.20 3.874927
712.30 3.9073
712.40 3.845217
712.50 3.614392
712.60 3.199837
712.70 2.696908
712.80 2.297592
712.90 2.141596
713.00 2.197547
713.10 2.293736
713.20 2.330108
713.30 2.275642
713.40 2.207833
713.50 2.210495
713.60 2.263728
713.70 2.329571
713.80 2.366884
713.90 2.363849
714.00 2.354423
714.10 2.359678
714.20 2.416854
714.30 2.52183
714.40 2.59068
714.50 2.623248
714.60 2.624379
714.70 2.591514
714.80 2.570785
714.90 2.550585
715.00 2.558592
715.10 2.625016
715.20 2.707471
715.30 2.807896
715.40 2.886402
715.50 2.933132
715.60 3.004147
715.70 3.075103
715.80 3.085581
715.90 3.007748
716.00 2.889718
716.10 2.790621
716.20 2.742327
716.30 2.766107
716.40 2.830402
716.50 2.860786
716.60 2.850625
716.70 2.850509
716.80 2.869515
716.90 2.884431
717.00 2.918766
717.10 2.977291
717.20 3.039529
717.30 3.105605
717.40 3.143751
717.50 3.125863
717.60 3.093048
717.70 3.073376
717.80 3.076373
717.90 3.132703
718.00 3.204798
718.10 3.253412
718.20 3.284956
718.30 3.317231
718.40 3.382034
718.50 3.472275
718.60 3.54012
718.70 3.565526
718.80 3.56718
718.90 3.558331
719.00 3.57956
719.10 3.64183
719.20 3.674054
719.30 3.652944
719.40 3.642729
719.50 3.696229
719.60 3.71257
719.70 3.582592
719.80 3.372657
719.90 3.23461
720.00 3.191834
720.10 3.15778
720.20 3.122494
720.30 3.107672
720.40 3.118536
720.50 3.137471
720.60 3.15303
720.70 3.179602
720.80 3.224758
720.90 3.252147
721.00 3.251167
721.10 3.26466
721.20 3.300918
721.30 3.354501
721.40 3.425168
721.50 3.468211
721.60 3.477053
721.70 3.485682
721.80 3.530398
721.90 3.618704
722.00 3.670854
722.10 3.689593
722.20 3.715938
722.30 3.733575
722.40 3.75735
722.50 3.80911
722.60 3.886394
722.70 3.977039
722.80 4.028123
722.90 4.014162
723.00 3.949474
723.10 3.87975
723.20 3.856181
723.30 3.863435
723.40 3.881045
723.50 3.938008
723.60 4.028068
723.70 4.108098
723.80 4.163045
723.90 4.22228
724.00 4.265889
724.10 4.233221
724.20 4.164732
724.30 4.162814
724.40 4.276664
724.50 4.37976
724.60 4.332796
724.70 4.267503
724.80 4.305472
724.90 4.415401
725.00 4.547068
725.10 4.62847
725.20 4.609732
725.30 4.54001
725.40 4.496452
725.50 4.532926
725.60 4.612498
725.70 4.665927
725.80 4.707042
725.90 4.73456
726.00 4.722992
726.10 4.730702
726.20 4.783583
726.30 4.878614
726.40 4.976374
726.50 5.011147
726.60 4.998363
726.70 5.010135
726.80 5.061556
726.90 5.078513
727.00 5.03232
727.10 4.935301
727.20 4.807719
727.30 4.702032
727.40 4.711003
727.50 4.877117
727.60 5.142114
727.70 5.324483
727.80 5.198455
727.90 4.904773
728.00 4.849893
728.10 5.000745
728.20 5.05916
728.30 5.05016
728.40 5.130649
728.50 5.228672
728.60 5.258911
728.70 5.293025
728.80 5.344354
728.90 5.373402
729.00 5.403186
729.10 5.434921
729.20 5.470665
729.30 5.500761
729.40 5.483659
729.50 5.449776
729.60 5.465953
729.70 5.554916
729.80 5.66201
729.90 5.693701
730.00 5.645621
730.10 5.593347
730.20 5.630312
730.30 5.736645
730.40 5.782998
730.50 5.773216
730.60 5.761962
730.70 5.789866
730.80 5.870347
730.90 5.900577
731.00 5.882564
731.10 5.885277
731.20 5.893965
731.30 5.938983
731.40 6.023977
731.50 6.108749
731.60 6.175938
731.70 6.207723
731.80 6.212062
731.90 6.218899
732.00 6.234041
732.10 6.283682
732.20 6.273432
732.30 6.221786
732.40 6.237624
732.50 6.187374
732.60 6.045788
732.70 5.897671
732.80 5.81041
732.90 5.930439
733.00 6.138161
733.10 6.241306
733.20 6.321333
733.30 6.372958
733.40 6.391263
733.50 6.436351
733.60 6.47615
733.70 6.532542
733.80 6.590179
733.90 6.624379
734.00 6.692698
734.10 6.774656
734.20 6.803234
734.30 6.763729
734.40 6.67998
734.50 6.561019
734.60 6.478515
734.70 6.481031
734.80 6.489986
734.90 6.526089
735.00 6.602697
735.10 6.67829
735.20 6.722113
735.30 6.721228
735.40 6.699354
735.50 6.663108
735.60 6.591486
735.70 6.486379
735.80 6.431819
735.90 6.487026
736.00 6.629557
736.10 6.766837
736.20 6.787065
736.30 6.732711
736.40 6.753566
736.50 6.824182
736.60 6.869067
736.70 6.922556
736.80 6.948265
736.90 7.021545
737.00 7.140828
737.10 7.140656
737.20 7.092254
737.30 7.064416
737.40 7.064885
737.50 7.063384
737.60 7.050413
737.70 7.061455
737.80 7.098707
737.90 7.161078
738.00 7.218826
738.10 7.238333
738.20 7.208983
738.30 7.147232
738.40 7.107462
738.50 7.161955
738.60 7.239229
738.70 7.268594
738.80 7.311522
738.90 7.361253
739.00 7.399416
739.10 7.396744
739.20 7.330909
739.30 7.261129
739.40 7.220776
739.50 7.202626
739.60 7.197928
739.70 7.241159
739.80 7.289683
739.90 7.305051
740.00 7.302735
740.10 7.268883
740.20 7.244882
740.30 7.309731
740.40 7.402328
740.50 7.410339
740.60 7.364525
740.70 7.275866
740.80 7.235216
740.90 7.278976
741.00 7.325801
741.10 7.362282
741.20 7.388802
741.30 7.422312
741.40 7.45477
741.50 7.462544
741.60 7.461637
741.70 7.455335
741.80 7.403913
741.90 7.308116
742.00 7.262359
742.10 7.295987
742.20 7.369476
742.30 7.434823
742.40 7.422377
742.50 7.390278
742.60 7.420984
742.70 7.481414
742.80 7.571108
742.90 7.636764
743.00 7.644775
743.10 7.668872
743.20 7.686597
743.30 7.662669
743.40 7.60108
743.50 7.510492
743.60 7.430852
743.70 7.408349
743.80 7.479452
743.90 7.64542
744.00 7.79115
744.10 7.791523
744.20 7.676146
744.30 7.570721
744.40 7.548746
744.50 7.563041
744.60 7.542208
744.70 7.504179
744.80 7.475644
744.90 7.431602
745.00 7.384936
745.10 7.388934
745.20 7.475006
745.30 7.597169
745.40 7.657025
745.50 7.622542
745.60 7.56043
745.70 7.544828
745.80 7.61486
745.90 7.712103
746.00 7.734556
746.10 7.674011
746.20 7.585985
746.30 7.536289
746.40 7.533045
746.50 7.557383
746.60 7.604851
746.70 7.651832
746.80 7.692462
746.90 7.74644
747.00 7.800683
747.10 7.857953
747.20 7.915414
747.30 7.914988
747.40 7.837334
747.50 7.728075
747.60 7.625262
747.70 7.622373
747.80 7.725968
747.90 7.817138
748.00 7.844452
748.10 7.813883
748.20 7.780623
748.30 7.789671
748.40 7.846901
748.50 7.906427
748.60 7.903573
748.70 7.85514
748.80 7.76046
748.90 7.66544
749.00 7.682151
749.10 7.731611
749.20 7.73148
749.30 7.723442
749.40 7.697336
749.50 7.679895
749.60 7.683951
749.70 7.686102
749.80 7.757076
749.90 7.909345
750.00 8.044172
750.10 8.108119
750.20 8.104509
750.30 8.061094
750.40 8.047008
750.50 8.077806
750.60 8.064334
750.70 7.957944
750.80 7.859054
750.90 7.873338
751.00 7.988949
751.10 8.104518
751.20 8.124213
751.30 8.070438
751.40 8.023481
751.50 8.046004
751.60 8.130603
751.70 8.226041
751.80 8.272516
751.90 8.231951
752.00 8.158241
752.10 8.106966
752.20 8.111492
752.30 8.187397
752.40 8.302875
752.50 8.326017
752.60 8.191304
752.70 8.001593
752.80 7.849334
752.90 7.795728
753.00 7.83827
753.10 7.954994
753.20 8.091039
753.30 8.177844
753.40 8.218602
753.50 8.187087
753.60 8.144073
753.70 8.177303
753.80 8.235477
753.90 8.318264
754.00 8.425837
754.10 8.498651
754.20 8.533357
754.30 8.512121
754.40 8.461902
754.50 8.47057
754.60 8.510956
754.70 8.515152
754.80 8.474818
754.90 8.428175
755.00 8.426801
755.10 8.460848
755.20 8.47112
755.30 8.455431
755.40 8.44319
755.50 8.433448
755.60 8.400175
755.70 8.382671
755.80 8.406816
755.90 8.426656
756.00 8.472032
756.10 8.539759
756.20 8.534964
756.30 8.483778
756.40 8.428832
756.50 8.368474
756.60 8.306306
756.70 8.229491
756.80 8.165372
756.90 8.137699
757.00 8.162381
757.10 8.270183
757.20 8.433147
757.30 8.612632
757.40 8.712469
757.50 8.697968
757.60 8.637036
757.70 8.572151
757.80 8.519432
757.90 8.461667
758.00 8.415488
758.10 8.460758
758.20 8.603552
758.30 8.739539
758.40 8.793912
758.50 8.776823
758.60 8.751485
758.70 8.731964
758.80 8.590016
758.90 8.221879
759.00 7.647929
759.10 7.043145
759.20 6.662551
759.30 6.592822
759.40 6.732451
759.50 6.905675
759.60 7.026853
759.70 7.092393
759.80 7.134682
759.90 7.207269
760.00 7.264976
760.10 7.257343
760.20 7.146678
760.30 6.955618
760.40 6.908816
760.50 7.057091
760.60 7.186872
760.70 7.199769
760.80 7.114411
760.90 7.060153
761.00 7.0856
761.10 7.105254
761.20 7.162762
761.30 7.367019
761.40 7.620003
761.50 7.705064
761.60 7.620867
761.70 7.496612
761.80 7.546988
761.90 7.778328
762.00 7.979141
762.10 8.051006
762.20 7.997815
762.30 7.876011
762.40 7.796191
762.50 7.816335
762.60 7.802156
762.70 7.628363
762.80 7.280551
762.90 6.805293
763.00 6.361749
763.10 6.094152
763.20 6.080318
763.30 6.242415
763.40 6.40229
763.50 6.469691
763.60 6.406763
763.70 6.344652
763.80 6.372725
763.90 6.429037
764.00 6.453325
764.10 6.379617
764.20 6.308419
764.30 6.412947
764.40 6.563334
764.50 6.578751
764.60 6.458139
764.70 6.350075
764.80 6.451231
764.90 6.626117
765.00 6.619253
765.10 6.468638
765.20 6.357333
765.30 6.384797
765.40 6.46352
765.50 6.435682
765.60 6.328561
765.70 6.345245
765.80 6.512233
765.90 6.634262
766.00 6.539204
766.10 6.224858
766.20 5.818203
766.30 5.38823
766.40 4.874433
766.50 4.203051
766.60 3.524732
766.70 3.172749
766.80 3.296415
766.90 3.788736
767.00 4.377965
767.10 4.788556
767.20 4.933554
767.30 4.873089
767.40 4.786312
767.50 4.796944
767.60 4.917498
767.70 5.05035
767.80 5.126847
767.90 5.217577
768.00 5.313068
768.10 5.376997
768.20 5.423119
768.30 5.445793
768.40 5.456557
768.50 5.465865
768.60 5.47359
768.70 5.493839
768.80 5.540162
768.90 5.585245
769.00 5.591406
769.10 5.593505
769.20 5.613922
769.30 5.637169
769.40 5.660101
769.50 5.647204
769.60 5.532115
769.70 5.239621
769.80 4.772513
769.90 4.189316
770.00 3.661818
770.10 3.475032
770.20 3.706775
770.30 4.224512
770.40 4.762486
770.50 5.10266
770.60 5.222549
770.70 5.200803
770.80 5.176439
770.90 5.224523
771.00 5.333563
771.10 5.467081
771.20 5.596311
771.30 5.691418
771.40 5.755071
771.50 5.723912
771.60 5.626404
771.70 5.65176
771.80 5.758781
771.90 5.830017
772.00 5.805055
772.10 5.727723
772.20 5.776455
772.30 5.908185
772.40 5.981196
772.50 5.973264
772.60 5.971602
772.70 6.056292
772.80 6.139854
772.90 6.169201
773.00 6.20654
773.10 6.241948
773.20 6.253743
773.30 6.270417
773.40 6.30877
773.50 6.369871
773.60 6.431664
773.70 6.468406
773.80 6.471986
773.90 6.481289
774.00 6.521158
774.10 6.538066
774.20 6.501425
774.30 6.417144
774.40 6.291882
774.50 6.158783
774.60 6.042246
774.70 5.948664
774.80 5.874265
774.90 5.795187
775.00 5.742149
775.10 5.644318
775.20 5.453981
775.30 5.359179
775.40 5.396432
775.50 5.484797
775.60 5.602229
775.70 5.668331
775.80 5.622212
775.90 5.570715
776.00 5.650127
776.10 5.719555
776.20 5.708281
776.30 5.693078
776.40 5.652391
776.50 5.642133
776.60 5.665757
776.70 5.677268
776.80 5.749906
776.90 5.88689
777.00 5.979066
777.10 5.995791
777.20 5.992846
777.30 6.012356
777.40 6.063572
777.50 6.10972
777.60 6.136824
777.70 6.158589
777.80 6.172124
777.90 6.160846
778.00 6.161455
778.10 6.165184
778.20 6.086719
778.30 5.952151
778.40 5.826988
778.50 5.72204
778.60 5.655851
778.70 5.63715
778.80 5.657271
778.90 5.716171
779.00 5.766993
779.10 5.780927
779.20 5.832854
779.30 5.974868
779.40 6.148316
779.50 6.250239
779.60 6.256112
779.70 6.177393
779.80 6.066555
779.90 5.990062
780.00 5.937648
780.10 5.902733
780.20 5.889609
780.30 5.953755
780.40 6.127608
780.50 6.310522
780.60 6.466626
780.70 6.608829
780.80 6.691277
780.90 6.733339
781.00 6.728646
781.10 6.652383
781.20 6.590322
781.30 6.584204
781.40 6.618981
781.50 6.693111
781.60 6.768608
781.70 6.810824
781.80 6.82562
781.90 6.822257
782.00 6.817485
782.10 6.829313
782.20 6.794797
782.30 6.644678
782.40 6.458404
782.50 6.387659
782.60 6.442046
782.70 6.477307
782.80 6.400282
782.90 6.217446
783.00 6.003403
783.10 5.886156
783.20 5.888934
783.30 5.946626
783.40 6.033658
783.50 6.088463
783.60 6.099785
783.70 6.130178
783.80 6.186331
783.90 6.264164
784.00 6.327535
784.10 6.32404
784.20 6.312605
784.30 6.331269
784.40 6.341868
784.50 6.356589
784.60 6.418517
784.70 6.506091
784.80 6.563773
784.90 6.567155
785.00 6.567698
785.10 6.616832
785.20 6.664441
785.30 6.679136
785.40 6.701566
785.50 6.709008
785.60 6.705399
785.70 6.751471
785.80 6.743571
785.90 6.706174
786.00 6.755304
786.10 6.778143
786.20 6.72667
786.30 6.633935
786.40 6.521838
786.50 6.482306
786.60 6.516054
786.70 6.590009
786.80 6.70739
786.90 6.804338
787.00 6.83151
787.10 6.777379
787.20 6.691539
787.30 6.649303
787.40 6.632587
787.50 6.63691
787.60 6.68164
787.70 6.774587
787.80 6.884706
787.90 6.940603
788.00 6.976745
788.10 7.039875
788.20 7.121944
788.30 7.172799
788.40 7.144767
788.50 7.105582
788.60 7.114417
788.70 7.139742
788.80 7.161227
788.90 7.194954
789.00 7.249864
789.10 7.302678
789.20 7.32263
789.30 7.304438
789.40 7.286651
789.50 7.296039
789.60 7.296663
789.70 7.286517
789.80 7.28616
789.90 7.270322
790.00 7.209591
790.10 7.105708
790.20 7.014544
790.30 6.993814
790.40 7.061059
790.50 7.170989
790.60 7.251909
790.70 7.247887
790.80 7.132316
790.90 6.955913
791.00 6.789489
791.10 6.700931
791.20 6.749443
791.30 6.882393
791.40 6.979732
791.50 7.028838
791.60 7.053955
791.70 7.023568
791.80 7.006599
791.90 7.029015
792.00 7.028966
792.10 7.033086
792.20 7.056889
792.30 7.075075
792.40 7.061182
792.50 7.030148
792.60 7.035957
792.70 7.060497
792.80 7.086945
792.90 7.128786
793.00 7.190307
793.10 7.306313
793.20 7.444407
793.30 7.530147
793.40 7.579279
793.50 7.569118
793.60 7.50273
793.70 7.465757
793.80 7.46957
793.90 7.478132
794.00 7.465489
794.10 7.414315
794.20 7.337578
794.30 7.288006
794.40 7.324639
794.50 7.412921
794.60 7.417751
794.70 7.293029
794.80 7.136553
794.90 7.061567
795.00 7.097126
795.10 7.189597
795.20 7.310234
795.30 7.450301
795.40 7.564844
795.50 7.625347
795.60 7.674027
795.70 7.740239
795.80 7.777703
795.90 7.754017
796.00 7.692566
796.10 7.603903
796.20 7.517487
796.30 7.530671
796.40 7.712688
796.50 7.953084
796.60 8.01451
796.70 7.896594
796.80 7.803403
796.90 7.818796
797.00 7.899402
797.10 7.958671
797.20 7.961275
797.30 7.918905
797.40 7.874253
797.50 7.892225
797.60 7.94382
797.70 7.985614
797.80 8.013515
797.90 8.000592
798.00 7.970688
798.10 7.96054
798.20 7.926089
798.30 7.871778
798.40 7.856572
798.50 7.877068
798.60 7.867159
798.70 7.809473
798.80 7.748576
798.90 7.697589
799.00 7.691268
799.10 7.781733
799.20 7.933875
799.30 8.10227
799.40 8.245839
799.50 8.244976
799.60 8.10443
799.70 7.978053
799.80 7.893046
799.90 7.816313
800.00 7.802941
800.10 7.839542
800.20 7.87868
800.30 7.944474
800.40 8.029088
800.50 8.098049
800.60 8.130563
800.70 8.127275
800.80 8.112489
800.90 8.116143
801.00 8.162658
801.10 8.215151
801.20 8.235045
801.30 8.268487
801.40 8.333562
801.50 8.372133
801.60 8.372161
801.70 8.348126
801.80 8.302156
801.90 8.323396
802.00 8.414057
802.10 8.409105
802.20 8.299157
802.30 8.235114
802.40 8.235396
802.50 8.272187
802.60 8.376993
802.70 8.453901
802.80 8.441543
802.90 8.452288
803.00 8.497621
803.10 8.525839
803.20 8.561042
803.30 8.581153
803.40 8.587463
803.50 8.634476
803.60 8.669876
803.70 8.635904
803.80 8.595017
803.90 8.599739
804.00 8.612064
804.10 8.593175
804.20 8.557346
804.30 8.549601
804.40 8.607139
804.50 8.698446
804.60 8.738696
804.70 8.687238
804.80 8.597591
804.90 8.543606
805.00 8.582768
805.10 8.743993
805.20 8.933889
805.30 9.04853
805.40 9.090754
805.50 9.085448
805.60 9.071017
805.70 9.08175
805.80 9.087791
805.90 9.047649
806.00 9.01376
806.10 9.07343
806.20 9.188449
806.30 9.265806
806.40 9.275254
806.50 9.202896
806.60 9.086293
806.70 9.017188
806.80 9.022148
806.90 9.032462
807.00 8.993926
807.10 8.971993
807.20 9.000718
807.30 9.03532
807.40 9.104729
807.50 9.182664
807.60 9.205394
807.70 9.234153
807.80 9.273948
807.90 9.265526
808.00 9.247474
808.10 9.256104
808.20 9.268129
808.30 9.292006
808.40 9.351429
808.50 9.401615
808.60 9.394678
808.70 9.361745
808.80 9.347373
808.90 9.366707
809.00 9.423348
809.10 9.469829
809.20 9.464462
809.30 9.46184
809.40 9.482633
809.50 9.473815
809.60 9.441567
809.70 9.420681
809.80 9.418951
809.90 9.43409
810.00 9.447306
810.10 9.441927
810.20 9.432887
810.30 9.417716
810.40 9.399361
810.50 9.427459
810.60 9.454966
810.70 9.417384
810.80 9.394815
810.90 9.435456
811.00 9.496896
811.10 9.546705
811.20 9.553616
811.30 9.54093
811.40 9.565519
811.50 9.593584
811.60 9.558381
811.70 9.428066
811.80 9.241477
811.90 9.148416
812.00 9.228734
812.10 9.411164
812.20 9.601183
812.30 9.696987
812.40 9.68409
812.50 9.661543
812.60 9.674956
812.70 9.737188
812.80 9.809956
812.90 9.805416
813.00 9.778471
813.10 9.793753
813.20 9.781622
813.30 9.741722
813.40 9.730457
813.50 9.715293
813.60 9.689824
813.70 9.707914
813.80 9.766671
813.90 9.838882
814.00 9.896249
814.10 9.908104
814.20 9.859911
814.30 9.762853
814.40 9.677363
814.50 9.639268
814.60 9.638552
814.70 9.68471
814.80 9.72893
814.90 9.681981
815.00 9.600732
815.10 9.600549
815.20 9.666845
815.30 9.746791
815.40 9.795897
815.50 9.77468
815.60 9.725901
815.70 9.708338
815.80 9.700056
815.90 9.666338
816.00 9.619983
816.10 9.577022
816.20 9.536203
816.30 9.488971
816.40 9.466487
816.50 9.491239
816.60 9.534092
816.70 9.647042
816.80 9.819778
816.90 9.904455
817.00 9.870031
817.10 9.779586
817.20 9.693352
817.30 9.674222
817.40 9.712656
817.50 9.748678
817.60 9.736531
817.70 9.661865
817.80 9.526149
817.90 9.37958
818.00 9.29707
818.10 9.148961
818.20 8.722013
818.30 7.953114
818.40 7.023545
818.50 6.42993
818.60 6.481883
818.70 7.072428
818.80 7.882766
818.90 8.499886
819.00 8.778033
819.10 8.834335
819.20 8.730563
819.30 8.415287
819.40 7.783071
819.50 6.872296
819.60 6.06099
819.70 5.748168
819.80 6.035167
819.90 6.757081
820.00 7.533548
820.10 8.107625
820.20 8.519468
820.30 8.848716
820.40 9.082044
820.50 9.184025
820.60 9.16684
820.70 9.086784
820.80 9.035088
820.90 9.047943
821.00 9.10534
821.10 9.208673
821.20 9.326964
821.30 9.397043
821.40 9.408119
821.50 9.395667
821.60 9.401694
821.70 9.417146
821.80 9.407269
821.90 9.375862
822.00 9.328695
822.10 9.288311
822.20 9.285973
822.30 9.323684
822.40 9.391608
822.50 9.475732
822.60 9.55115
822.70 9.575353
822.80 9.563542
822.90 9.58061
823.00 9.628754
823.10 9.688352
823.20 9.730174
823.30 9.691691
823.40 9.587892
823.50 9.506516
823.60 9.472104
823.70 9.494557
823.80 9.584594
823.90 9.699815
824.00 9.843022
824.10 9.972719
824.20 9.969732
824.30 9.864818
824.40 9.760519
824.50 9.697314
824.60 9.732696
824.70 9.871475
824.80 10.04427
824.90 10.19668
825.00 10.27651
825.10 10.26171
825.20 10.17732
825.30 10.04542
825.40 9.896061
825.50 9.751885
825.60 9.616948
825.70 9.490954
825.80 9.394951
825.90 9.390618
826.00 9.494252
826.10 9.670784
826.20 9.858848
826.30 9.964083
826.40 9.995946
826.50 10.02688
826.60 10.05988
826.70 10.09891
826.80 10.14692
826.90 10.17007
827.00 10.14139
827.10 10.04522
827.20 9.879458
827.30 9.673571
827.40 9.456918
827.50 9.271772
827.60 9.207764
827.70 9.276258
827.80 9.403021
827.90 9.540268
828.00 9.611026
828.10 9.596225
828.20 9.561546
828.30 9.517361
828.40 9.471851
828.50 9.440866
828.60 9.45407
828.70 9.552557
828.80 9.622803
828.90 9.549353
829.00 9.374709
829.10 9.176582
829.20 9.06326
829.30 9.093011
829.40 9.152157
829.50 9.177548
829.60 9.224336
829.70 9.291557
829.80 9.400165
829.90 9.587718
830.00 9.593685
830.10 9.428961
830.20 9.264237
830.30 9.171635
830.40 9.079032
830.50 9.029711
830.60 8.98039
830.70 8.967463
830.80 8.954537
830.90 9.110907
831.00 9.267278
831.10 9.341411
831.20 9.415544
831.30 9.384989
831.40 9.354434
831.50 9.345891
831.60 9.337348
831.70 9.330689
831.80 9.324031
831.90 9.321758
832.00 9.319485
832.10 9.325918
832.20 9.332352
832.30 9.341108
832.40 9.349863
832.50 9.337154
832.60 9.324445
832.70 9.150096
832.80 8.975747
832.90 8.926289
833.00 8.876831
833.10 9.029234
833.20 9.181636
833.30 9.278972
833.40 9.376308
833.50 9.253
833.60 9.129692
833.70 9.10166
833.80 9.073628
833.90 9.172452
834.00 9.271277
834.10 9.351099
834.20 9.430921
834.30 9.568652
834.40 9.706383
834.50 9.769044
834.60 9.831705
834.70 9.590841
834.80 9.349976
834.90 9.217086
835.00 9.084195
835.10 9.187537
835.20 9.290879
835.30 9.287846
835.40 9.284814
835.50 9.268337
835.60 9.251861
835.70 9.277876
835.80 9.303891
835.90 9.342924
836.00 9.381958
836.10 9.375768
836.20 9.369578
836.30 9.275659
836.40 9.18174
836.50 9.070142
836.60 8.958544
836.70 9.020119
836.80 9.081694
836.90 9.248019
837.00 9.414343
837.10 9.466574
837.20 9.518805
837.30 9.454133
837.40 9.38946
837.50 9.241934
837.60 9.094409
837.70 8.959348
837.80 8.824288
837.90 8.812569
838.00 8.80085
838.10 8.844964
838.20 8.889078
838.30 8.824212
838.40 8.759346
838.50 8.673589
838.60 8.587832
838.70 8.513547
838.80 8.439262
838.90 8.386456
839.00 8.333651
839.10 8.500516
839.20 8.667382
839.30 8.867567
839.40 9.067752
839.50 9.034864
839.60 9.001977
839.70 9.001809
839.80 9.001642
839.90 9.04149
840.00 9.081338
840.10 9.044766
840.20 9.109413
840.30 9.204998
840.40 9.266724
840.50 9.304758
840.60 9.3435
840.70 9.389438
840.80 9.424833
840.90 9.445908
841.00 9.453085
841.10 9.375524
841.20 9.227231
841.30 9.066239
841.40 8.969137
841.50 8.928479
841.60 9.061964
841.70 9.242042
841.80 9.349232
841.90 9.400614
842.00 9.386207
842.10 9.256314
842.20 9.128551
842.30 9.100809
842.40 9.04289
842.50 8.922099
842.60 8.774245
842.70 8.649957
842.80 8.568715
842.90 8.583265
843.00 8.704081
843.10 8.820974
843.20 8.790438
843.30 8.691328
843.40 8.443821
843.50 7.994057
843.60 7.571953
843.70 7.410293
843.80 7.272879
843.90 7.486097
844.00 7.884024
844.10 8.190362
844.20 8.373075
844.30 8.498208
844.40 8.419673
844.50 8.331355
844.60 8.309797
844.70 8.293921
844.80 8.32705
844.90 8.472394
845.00 8.526405
845.10 8.36852
845.20 8.240525
845.30 8.042853
845.40 7.824453
845.50 7.694698
845.60 7.634213
845.70 7.57684
845.80 7.579665
845.90 7.57835
846.00 7.624357
846.10 7.693521
846.20 7.75062
846.30 7.795613
846.40 7.804469
846.50 7.768971
846.60 7.715188
846.70 7.604741
846.80 7.475572
846.90 7.394029
847.00 7.37319
847.10 7.37574
847.20 7.414946
847.30 7.474467
847.40 7.503058
847.50 7.527498
847.60 7.559445
847.70 7.601956
847.80 7.638535
847.90 7.677091
848.00 7.720636
848.10 7.733853
848.20 7.758199
848.30 7.809136
848.40 7.873599
848.50 7.928862
848.60 7.973238
848.70 8.013093
848.80 8.025635
848.90 8.027922
849.00 8.042117
849.10 8.081437
849.20 8.137413
849.30 8.19086
849.40 8.205554
849.50 8.158244
849.60 8.090025
849.70 8.063005
849.80 8.06989
849.90 8.092053
850.00 8.085466
850.10 8.172378
850.20 8.132991
850.30 8.076029
850.40 7.989612
850.50 7.897499
850.60 7.780112
850.70 7.69162
850.80 7.625173
850.90 7.655178
851.00 7.644898
851.10 7.682229
851.20 7.75304
851.30 7.776996
851.40 7.725332
851.50 7.656807
851.60 7.544916
851.70 7.45979
851.80 7.418458
851.90 7.400272
852.00 7.428286
852.10 7.492751
852.20 7.548813
852.30 7.614478
852.40 7.640373
852.50 7.68366
852.60 7.751225
852.70 7.816797
852.80 7.888123
852.90 7.947765
853.00 7.913945
853.10 7.872652
853.20 7.887478
853.30 7.92669
853.40 7.968595
853.50 7.993488
853.60 7.992461
853.70 8.016624
853.80 8.024165
853.90 7.978707
854.00 7.879933
854.10 7.799371
854.20 7.786253
854.30 7.798615
854.40 7.727733
854.50 7.841965
854.60 7.900123
854.70 7.937536
854.80 8.002005
854.90 8.085211
855.00 8.125035
855.10 8.205086
855.20 8.270958
855.30 8.347916
855.40 8.421411
855.50 8.453085
855.60 8.440957
855.70 8.411733
855.80 8.386056
855.90 8.362948
856.00 8.263403
856.10 8.158126
856.20 8.105818
856.30 8.074562
856.40 8.069838
856.50 8.155961
856.60 8.244005
856.70 8.366598
856.80 8.504394
856.90 8.501298
857.00 8.427511
857.10 8.384637
857.20 8.382706
857.30 8.372981
857.40 8.355415
857.50 8.334583
857.60 8.371167
857.70 8.428511
857.80 8.475159
857.90 8.524493
858.00 8.563317
858.10 8.536142
858.20 8.512931
858.30 8.478798
858.40 8.446688
858.50 8.462096
858.60 8.533891
858.70 8.60516
858.80 8.645415
858.90 8.672752
859.00 8.657618
859.10 8.628974
859.20 8.585496
859.30 8.538084
859.40 8.519123
859.50 8.567792
859.60 8.604945
859.70 8.661547
859.80 8.719217
859.90 8.737726
860.00 8.723657
860.10 8.72579
860.20 8.760006
860.30 8.791888
860.40 8.826187
860.50 8.851297
860.60 8.878717
860.70 8.918219
860.80 8.931247
860.90 8.886775
861.00 8.85802
861.10 8.791459
861.20 8.720349
861.30 8.659454
861.40 8.604207
861.50 8.570198
861.60 8.587758
861.70 8.608587
861.80 8.622722
861.90 8.611941
862.00 8.636796
862.10 8.695322
862.20 8.721673
862.30 8.718372
862.40 8.732477
862.50 8.726834
862.60 8.724901
862.70 8.744715
862.80 8.792166
862.90 8.828787
863.00 8.821804
863.10 8.798399
863.20 8.768072
863.30 8.716361
863.40 8.744298
863.50 8.828057
863.60 8.889522
863.70 8.897149
863.80 8.905945
863.90 8.89535
864.00 8.915132
864.10 8.966146
864.20 9.002397
864.30 9.011116
864.40 9.017723
864.50 9.023972
864.60 8.997477
864.70 8.977265
864.80 8.947248
864.90 8.91733
865.00 8.915684
865.10 8.936813
865.20 8.963205
865.30 9.006392
865.40 9.030963
865.50 9.008821
865.60 8.982299
865.70 8.961084
865.80 8.945048
865.90 8.881545
866.00 8.791387
866.10 8.635927
866.20 8.503555
866.30 8.418052
866.40 8.429402
866.50 8.501698
866.60 8.684734
866.70 8.825205
866.80 8.953438
866.90 9.044387
867.00 9.087364
867.10 9.102416
867.20 9.103555
867.30 9.084596
867.40 9.087247
867.50 9.054975
867.60 8.972449
867.70 8.890893
867.80 8.918063
867.90 9.020657
868.00 9.112594
868.10 9.141742
868.20 9.138008
868.30 9.071737
868.40 8.994998
868.50 8.970162
868.60 8.976385
868.70 8.933758
868.80 8.836839
868.90 8.714879
869.00 8.550771
869.10 8.431775
869.20 8.377397
869.30 8.360706
869.40 8.368933
869.50 8.378228
869.60 8.382928
869.70 8.437176
869.80 8.462379
869.90 8.519241
870.00 8.580159
870.10 8.645936
870.20 8.726881
870.30 8.810174
870.40 8.87559
870.50 8.934422
870.60 8.971631
870.70 9.015803
870.80 9.010795
870.90 8.939476
871.00 8.856917
871.10 8.780044
871.20 8.702713
871.30 8.667572
871.40 8.639084
871.50 8.620035
871.60 8.618344
871.70 8.616294
871.80 8.592363
871.90 8.563484
872.00 8.644173
872.10 8.737915
872.20 8.801576
872.30 8.832711
872.40 8.853327
872.50 8.867924
872.60 8.897791
872.70 9.0068
872.80 9.083982
872.90 9.139132
873.00 9.213413
873.10 9.248054
873.20 9.188116
873.30 9.126272
873.40 9.042721
873.50 8.954267
873.60 8.928829
873.70 8.920066
873.80 8.921083
873.90 8.94855
874.00 8.998493
874.10 9.109824
874.20 9.194741
874.30 9.288806
874.40 9.373561
874.50 9.418004
874.60 9.437717
874.70 9.442783
874.80 9.34913
874.90 9.280076
875.00 9.263876
875.10 9.220862
875.20 9.227338
875.30 9.323885
875.40 9.406714
875.50 9.420677
875.60 9.436582
875.70 9.409299
875.80 9.355932
875.90 9.37403
876.00 9.456045
876.10 9.525945
876.20 9.551145
876.30 9.5906
876.40 9.589189
876.50 9.573054
876.60 9.464101
876.70 9.292057
876.80 9.196384
876.90 9.24845
877.00 9.279462
877.10 9.386272
877.20 9.490611
877.30 9.54739
877.40 9.587491
877.50 9.646599
877.60 9.723001
877.70 9.814856
877.80 9.764519
877.90 9.764127
878.00 9.716036
878.10 9.60271
878.20 9.544868
878.30 9.616378
878.40 9.672371
878.50 9.730644
878.60 9.796803
878.70 9.825441
878.80 9.842623
878.90 9.861494
879.00 9.888561
879.10 9.910657
879.20 9.929752
879.30 9.942398
879.40 9.933355
879.50 9.919393
879.60 9.940898
879.70 9.999594
879.80 10.01844
879.90 10.02177
880.00 10.0679
880.10 9.87215
880.20 9.651852
880.30 9.492513
880.40 9.346292
880.50 9.178405
880.60 9.142
880.70 9.105873
880.80 9.137638
880.90 9.214549
881.00 9.359509
881.10 9.504194
881.20 9.652959
881.30 9.85587
881.40 10.04161
881.50 10.15165
881.60 10.25682
881.70 10.29063
881.80 10.2671
881.90 10.23445
882.00 10.2256
882.10 10.2265
882.20 10.04078
882.30 9.86127
882.40 9.641155
882.50 9.385073
882.60 9.219649
882.70 9.183299
882.80 9.199175
882.90 9.416644
883.00 9.616821
883.10 9.821856
883.20 10.02318
883.30 10.15173
883.40 10.22205
883.50 10.2901
883.60 10.30515
883.70 10.30368
883.80 10.24832
883.90 10.18105
884.00 10.14708
884.10 10.13432
884.20 10.12793
884.30 10.17582
884.40 10.26928
884.50 10.22393
884.60 10.15921
884.70 10.09451
884.80 10.00824
884.90 9.900207
885.00 9.851942
885.10 9.797601
885.20 9.93328
885.30 10.04952
885.40 10.1428
885.50 10.28915
885.60 10.38848
885.70 10.32507
885.80 10.30229
885.90 10.09077
886.00 9.872558
886.10 9.600187
886.20 9.287957
886.30 9.084703
886.40 9.032953
886.50 8.95312
886.60 9.11126
886.70 9.257311
886.80 9.26867
886.90 9.27671
887.00 9.203685
887.10 8.997933
887.20 8.829278
887.30 8.695614
887.40 8.503008
887.50 8.520513
887.60 8.576214
887.70 8.656509
887.80 8.790504
887.90 8.928997
888.00 9.053824
888.10 9.186022
888.20 9.189534
888.30 9.216114
888.40 9.223501
888.50 9.157535
888.60 9.081115
888.70 9.062119
888.80 9.029663
888.90 9.085858
889.00 9.152481
889.10 9.221136
889.20 9.297468
889.30 9.347598
889.40 9.320917
889.50 9.287812
889.60 9.206862
889.70 9.149766
889.80 9.138964
889.90 9.111251
890.00 9.09366
890.10 9.184793
890.20 9.244851
890.30 9.356743
890.40 9.497616
890.50 9.568681
890.60 9.636667
890.70 9.695901
890.80 9.719797
890.90 9.72859
891.00 9.663838
891.10 9.606368
891.20 9.569514
891.30 9.510511
891.40 9.493483
891.50 9.569307
891.60 9.62304
891.70 9.637522
891.80 9.680329
891.90 9.67806
892.00 9.657876
892.10 9.644933
892.20 9.654405
892.30 9.662757
892.40 9.611454
892.50 9.576336
892.60 9.589693
892.70 9.597794
892.80 9.609872
892.90 9.625848
893.00 9.646755
893.10 9.691996
893.20 9.704829
893.30 9.756136
893.40 9.831418
893.50 9.86627
893.60 9.92049
893.70 9.921993
893.80 9.759859
893.90 9.648542
894.00 9.567863
894.10 9.406745
894.20 9.351031
894.30 9.349579
894.40 9.368448
894.50 9.398687
894.60 9.397121
894.70 9.405451
894.80 9.406081
894.90 9.427569
895.00 9.482702
895.10 9.522851
895.20 9.528857
895.30 9.555173
895.40 9.530411
895.50 9.460286
895.60 9.477706
895.70 9.530137
895.80 9.588552
895.90 9.642889
896.00 9.68753
896.10 9.679308
896.20 9.679402
896.30 9.642677
896.40 9.595774
896.50 9.547616
896.60 9.528937
896.70 9.54525
896.80 9.577908
896.90 9.585576
897.00 9.640991
897.10 9.679595
897.20 9.67586
897.30 9.67082
897.40 9.682526
897.50 9.703571
897.60 9.722845
897.70 9.803335
897.80 9.881393
897.90 9.87572
898.00 9.855407
898.10 9.86024
898.20 9.844813
898.30 9.828839
898.40 9.934697
898.50 9.966342
898.60 10.01945
898.70 10.11023
898.80 10.12245
898.90 10.05277
899.00 10.0236
899.10 9.969736
899.20 9.90734
899.30 9.947965
899.40 10.00088
899.50 10.02979
899.60 10.03911
899.70 9.999586
899.80 9.924845
899.90 9.863354
900.00 9.745814
900.10 9.601069
900.20 9.587049
900.30 9.685728
900.40 9.812595
900.50 10.00747
900.60 10.18127
900.70 10.2012
900.80 10.26834
900.90 10.19065
901.00 10.01384
901.10 9.8983
901.20 9.867696
901.30 9.802153
901.40 9.82322
901.50 9.871697
901.60 9.880475
901.70 9.899698
901.80 9.888163
901.90 9.786708
902.00 9.661415
902.10 9.606458
902.20 9.571086
902.30 9.562686
902.40 9.563563
902.50 9.550069
902.60 9.49625
902.70 9.437463
902.80 9.389942
902.90 9.337975
903.00 9.421077
903.10 9.53665
903.20 9.672464
903.30 9.80194
903.40 9.897639
903.50 9.978058
903.60 10.07136
903.70 10.09616
903.80 10.09922
903.90 10.12087
904.00 10.18971
904.10 10.24938
904.20 10.23601
904.30 10.25439
904.40 10.22649
904.50 10.17209
904.60 10.1679
904.70 10.18214
904.80 10.19113
904.90 10.26532
905.00 10.35827
905.10 10.29519
905.20 10.28526
905.30 10.24506
905.40 10.17203
905.50 10.114
905.60 10.07852
905.70 10.03859
905.80 10.08193
905.90 10.12389
906.00 10.14544
906.10 10.14861
906.20 10.15895
906.30 10.1996
906.40 10.20523
906.50 10.18685
906.60 10.2084
906.70 10.20979
906.80 10.20561
906.90 10.20223
907.00 10.17794
907.10 10.12005
907.20 10.09039
907.30 10.0651
907.40 10.0664
907.50 10.0809
907.60 10.11201
907.70 10.15681
907.80 10.24485
907.90 10.37472
908.00 10.45241
908.10 10.4734
908.20 10.54093
908.30 10.51545
908.40 10.41661
908.50 10.33088
908.60 10.30248
908.70 10.26408
908.80 10.14414
908.90 10.04211
909.00 9.994452
909.10 9.93586
909.20 9.939813
909.30 10.03732
909.40 10.14097
909.50 10.27325
909.60 10.41636
909.70 10.47435
909.80 10.50192
909.90 10.49773
910.00 10.47813
910.10 10.46694
910.20 10.48947
910.30 10.52785
910.40 10.49741
910.50 10.47863
910.60 10.44853
910.70 10.38092
910.80 10.31461
910.90 10.28836
911.00 10.22948
911.10 10.29969
911.20 10.3907
911.30 10.48765
911.40 10.60519
911.50 10.66719
911.60 10.61291
911.70 10.58095
911.80 10.52057
911.90 10.43669
912.00 10.39614
912.10 10.36888
912.20 10.3874
912.30 10.47775
912.40 10.55467
912.50 10.53818
912.60 10.53604
912.70 10.53599
912.80 10.52835
912.90 10.5314
913.00 10.55878
913.10 10.58524
913.20 10.59758
913.30 10.59871
913.40 10.59696
913.50 10.60438
913.60 10.59549
913.70 10.58783
913.80 10.59157
913.90 10.47558
914.00 10.36885
914.10 10.36673
914.20 10.30658
914.30 10.29071
914.40 10.31307
914.50 10.35377
914.60 10.45885
914.70 10.57248
914.80 10.54091
914.90 10.54874
915.00 10.55461
915.10 10.53164
915.20 10.52623
915.30 10.56185
915.40 10.55573
915.50 10.56139
915.60 10.55767
915.70 10.62106
915.80 10.75423
915.90 10.83331
916.00 10.7742
916.10 10.73371
916.20 10.69235
916.30 10.65544
916.40 10.64733
916.50 10.60697
916.60 10.61185
916.70 10.69386
916.80 10.74206
916.90 10.72532
917.00 10.75089
917.10 10.75015
917.20 10.74243
917.30 10.72444
917.40 10.68904
917.50 10.65576
917.60 10.61614
917.70 10.57436
917.80 10.6082
917.90 10.64865
918.00 10.70166
918.10 10.73688
918.20 10.7482
918.30 10.77981
918.40 10.83937
918.50 10.74138
918.60 10.65712
918.70 10.65432
918.80 10.64733
918.90 10.66184
919.00 10.778
919.10 10.87129
919.20 10.86977
919.30 10.95775
919.40 10.91266
919.50 10.82318
919.60 10.77832
919.70 10.76851
919.80 10.72631
919.90 10.78987
920.00 10.87206
920.10 10.86121
920.20 10.85391
920.30 10.87696
920.40 10.91994
920.50 10.92164
920.60 10.8733
920.70 10.84201
920.80 10.72061
920.90 10.63859
921.00 10.56971
921.10 10.44291
921.20 10.36693
921.30 10.48483
921.40 10.58676
921.50 10.69103
921.60 10.81084
921.70 10.83411
921.80 10.82366
921.90 10.8023
922.00 10.74258
922.10 10.70216
922.20 10.70804
922.30 10.71902
922.40 10.70009
922.50 10.64379
922.60 10.5924
922.70 10.58584
922.80 10.57806
922.90 10.57615
923.00 10.60806
923.10 10.52925
923.20 10.42366
923.30 10.32235
923.40 10.203
923.50 10.08779
923.60 10.11131
923.70 10.15836
923.80 10.22117
923.90 10.28287
924.00 10.31387
924.10 10.29535
924.20 10.29324
924.30 10.40619
924.40 10.53077
924.50 10.5281
924.60 10.56919
924.70 10.54901
924.80 10.48252
924.90 10.43062
925.00 10.37619
925.10 10.28712
925.20 10.2247
925.30 10.15562
925.40 10.16499
925.50 10.17716
925.60 10.20086
925.70 10.279
925.80 10.36768
925.90 10.4346
926.00 10.56134
926.10 10.59116
926.20 10.59709
926.30 10.62441
926.40 10.62867
926.50 10.60554
926.60 10.6787
926.70 10.70876
926.80 10.70643
926.90 10.74079
927.00 10.71537
927.10 10.64275
927.20 10.6027
927.30 10.58495
927.40 10.56035
927.50 10.47807
927.60 10.38591
927.70 10.29477
927.80 10.21692
927.90 10.16577
928.00 10.1087
928.10 10.02768
928.20 10.09054
928.30 10.14076
928.40 10.18555
928.50 10.23922
928.60 10.25731
928.70 10.26031
928.80 10.29505
928.90 10.24095
929.00 10.15428
929.10 10.06093
929.20 9.971515
929.30 9.949634
929.40 9.986917
929.50 10.02958
929.60 10.04957
929.70 10.06332
929.80 10.05822
929.90 10.07674
930.00 10.08528
930.10 10.0719
930.20 10.06525
930.30 10.01751
930.40 9.952576
930.50 9.971494
930.60 10.00699
930.70 10.06459
930.80 10.09585
930.90 10.06906
931.00 10.02537
931.10 10.00121
931.20 10.08183
931.30 10.18717
931.40 10.26678
931.50 10.32163
931.60 10.38072
931.70 10.30273
931.80 10.16649
931.90 10.0884
932.00 10.08856
932.10 10.07457
932.20 10.05181
932.30 10.12244
932.40 10.18495
932.50 10.18748
932.60 10.08995
932.70 10.02476
932.80 10.01048
932.90 10.01458
933.00 9.999007
933.10 10.07862
933.20 10.17173
933.30 10.22413
933.40 10.15285
933.50 10.0889
933.60 10.05764
933.70 10.04423
933.80 10.03846
933.90 10.07945
934.00 10.13473
934.10 10.18656
934.20 10.27717
934.30 10.37658
934.40 10.37684
934.50 10.21765
934.60 10.08116
934.70 10.02957
934.80 10.00931
934.90 9.97537
935.00 10.04338
935.10 10.13052
935.20 10.18949
935.30 10.17985
935.40 10.16529
935.50 10.1447
935.60 10.11297
935.70 10.06488
935.80 10.02152
935.90 9.962896
936.00 9.916981
936.10 9.960187
936.20 9.999912
936.30 10.04279
936.40 10.0925
936.50 10.17562
936.60 10.2005
936.70 10.18973
936.80 10.1893
936.90 10.12266
937.00 10.04821
937.10 9.954298
937.20 9.822352
937.30 9.673604
937.40 9.662146
937.50 9.803771
937.60 9.903695
937.70 9.987962
937.80 10.07234
937.90 10.14671
938.00 10.07822
938.10 10.04433
938.20 10.04198
938.30 10.05432
938.40 10.04115
938.50 10.06247
938.60 10.11924
938.70 10.16079
938.80 10.1093
938.90 10.05109
939.00 10.03222
939.10 10.08395
939.20 10.11828
939.30 10.14784
939.40 10.18338
939.50 10.22766
939.60 10.19665
939.70 10.15331
939.80 10.11685
939.90 10.09467
940.00 10.03598
940.10 9.982827
940.20 9.966838
940.30 9.954982
940.40 9.992348
940.50 10.05034
940.60 10.10611
940.70 10.17336
940.80 10.23675
940.90 10.27489
941.00 10.24767
941.10 10.25146
941.20 10.23469
941.30 10.18171
941.40 10.15473
941.50 10.14519
941.60 10.13278
941.70 10.0952
941.80 10.05537
941.90 10.00376
942.00 9.993417
942.10 10.02835
942.20 10.0595
942.30 10.09485
942.40 10.1473
942.50 10.20433
942.60 10.24838
942.70 10.29432
942.80 10.31255
942.90 10.22115
943.00 10.13194
943.10 10.11411
943.20 10.17909
943.30 10.21425
943.40 10.2946
943.50 10.40682
943.60 10.52272
943.70 10.49651
943.80 10.48699
943.90 10.44999
944.00 10.3541
944.10 10.25494
944.20 10.16878
944.30 10.07847
944.40 9.99348
944.50 9.965212
944.60 9.923839
944.70 9.857472
944.80 9.842584
944.90 9.847273
945.00 9.896268
945.10 9.969101
945.20 10.02847
945.30 10.08764
945.40 10.16064
945.50 10.2262
945.60 10.21021
945.70 10.20393
945.80 10.2021
945.90 10.18228
946.00 10.14462
946.10 10.1057
946.20 10.06077
946.30 10.03542
946.40 10.07809
946.50 10.15704
946.60 10.2295
946.70 10.29597
946.80 10.34222
946.90 10.35506
947.00 10.32775
947.10 10.30871
947.20 10.31806
947.30 10.34625
947.40 10.36688
947.50 10.36801
947.60 10.36344
947.70 10.37095
947.80 10.40414
947.90 10.4258
948.00 10.45656
948.10 10.49383
948.20 10.54418
948.30 10.47436
948.40 10.38553
948.50 10.33945
948.60 10.43067
948.70 10.52008
948.80 10.56373
948.90 10.55313
949.00 10.53296
949.10 10.54423
949.20 10.58128
949.30 10.61091
949.40 10.57151
949.50 10.55528
949.60 10.5337
949.70 10.46796
949.80 10.3624
949.90 10.36
950.00 10.43414
950.10 10.49932
950.20 10.43741
950.30 10.37191
950.40 10.3375
950.50 10.36026
950.60 10.3778
950.70 10.39491
950.80 10.42074
950.90 10.4412
951.00 10.45822
951.10 10.48259
951.20 10.50438
951.30 10.52205
951.40 10.55585
951.50 10.57197
951.60 10.53944
951.70 10.4842
951.80 10.43843
951.90 10.39572
952.00 10.35808
952.10 10.37317
952.20 10.38249
952.30 10.38983
952.40 10.40896
952.50 10.41739
952.60 10.4502
952.70 10.51602
952.80 10.5855
952.90 10.57773
953.00 10.54832
953.10 10.53142
953.20 10.52181
953.30 10.52638
953.40 10.53147
953.50 10.53846
953.60 10.54443
953.70 10.52959
953.80 10.48766
953.90 10.45082
954.00 10.46771
954.10 10.49019
954.20 10.49742
954.30 10.48478
954.40 10.46044
954.50 10.38292
954.60 10.25699
954.70 10.17863
954.80 10.17562
954.90 10.17835
955.00 10.19111
955.10 10.31455
955.20 10.43847
955.30 10.52342
955.40 10.54506
955.50 10.56888
955.60 10.54909
955.70 10.50143
955.80 10.45428
955.90 10.47621
956.00 10.51588
956.10 10.55873
956.20 10.59197
956.30 10.65383
956.40 10.69161
956.50 10.6922
956.60 10.68156
956.70 10.62175
956.80 10.54349
956.90 10.47517
957.00 10.50175
957.10 10.53613
957.20 10.53277
957.30 10.49442
957.40 10.48883
957.50 10.4642
957.60 10.41533
957.70 10.37389
957.80 10.43707
957.90 10.48605
958.00 10.50854
958.10 10.48636
958.20 10.45502
958.30 10.4341
958.40 10.42389
958.50 10.43625
958.60 10.50138
958.70 10.59512
958.80 10.67029
958.90 10.65083
959.00 10.63465
959.10 10.60821
959.20 10.5575
959.30 10.46821
959.40 10.41916
959.50 10.41042
959.60 10.39407
959.70 10.33062
959.80 10.28122
959.90 10.17266
960.00 9.981855
960.10 9.774619
960.20 9.773354
960.30 9.898986
960.40 10.01198
960.50 10.14157
960.60 10.30669
960.70 10.44015
960.80 10.45016
960.90 10.47966
961.00 10.50968
961.10 10.53861
961.20 10.56567
961.30 10.54493
961.40 10.50092
961.50 10.45893
961.60 10.46081
961.70 10.43737
961.80 10.43169
961.90 10.4934
962.00 10.57208
962.10 10.61642
962.20 10.64214
962.30 10.66588
962.40 10.66821
962.50 10.64985
962.60 10.62205
962.70 10.59609
962.80 10.59401
962.90 10.59483
963.00 10.58766
963.10 10.57948
963.20 10.58894
963.30 10.61654
963.40 10.63739
963.50 10.61459
963.60 10.6052
963.70 10.42414
963.80 10.00392
963.90 9.624527
964.00 9.425182
964.10 9.264837
964.20 9.165351
964.30 9.467241
964.40 9.821788
964.50 10.05105
964.60 9.969178
964.70 9.942628
964.80 9.843035
964.90 9.69568
965.00 9.582315
965.10 9.691708
965.20 9.854213
965.30 10.01381
965.40 10.14853
965.50 10.27246
965.60 10.35826
965.70 10.41303
965.80 10.48296
965.90 10.53334
966.00 10.57166
966.10 10.57907
966.20 10.57713
966.30 10.58538
966.40 10.57834
966.50 10.50759
966.60 10.45897
966.70 10.43863
966.80 10.43025
966.90 10.41678
967.00 10.38018
967.10 10.34618
967.20 10.29498
967.30 10.19547
967.40 10.12334
967.50 9.962458
967.60 9.704644
967.70 9.480493
967.80 9.487697
967.90 9.529187
968.00 9.604104
968.10 9.87445
968.20 10.17762
968.30 10.38164
968.40 10.39103
968.50 10.44491
968.60 10.42211
968.70 10.36312
968.80 10.28317
968.90 10.14207
969.00 9.951745
969.10 9.834621
969.20 9.971115
969.30 10.06435
969.40 10.18072
969.50 10.31801
969.60 10.47305
969.70 10.56418
969.80 10.65232
969.90 10.73281
970.00 10.71369
970.10 10.69311
970.20 10.62863
970.30 10.5044
970.40 10.39816
970.50 10.18956
970.60 9.915609
970.70 9.692377
970.80 9.697892
970.90 9.657264
971.00 9.716324
971.10 10.01145
971.20 10.29664
971.30 10.48003
971.40 10.58438
971.50 10.69287
971.60 10.67333
971.70 10.64465
971.80 10.60704
971.90 10.50398
972.00 10.41091
972.10 10.36604
972.20 10.38525
972.30 10.38577
972.40 10.41621
972.50 10.46863
972.60 10.48498
972.70 10.29447
972.80 10.13105
972.90 9.976499
973.00 9.849112
973.10 9.710527
973.20 9.758412
973.30 9.921215
973.40 10.03408
973.50 10.13255
973.60 10.24889
973.70 10.32068
973.80 10.29437
973.90 10.27386
974.00 10.28614
974.10 10.34182
974.20 10.38119
974.30 10.27377
974.40 10.11605
974.50 10.01495
974.60 10.00961
974.70 9.964765
974.80 9.986414
974.90 10.11155
975.00 10.22368
975.10 10.32864
975.20 10.43025
975.30 10.52149
975.40 10.51731
975.50 10.4944
975.60 10.46899
975.70 10.45001
975.80 10.44877
975.90 10.4694
976.00 10.5137
976.10 10.55639
976.20 10.54751
976.30 10.51368
976.40 10.48632
976.50 10.54199
976.60 10.58114
976.70 10.57789
976.80 10.51875
976.90 10.49314
977.00 10.35014
977.10 10.15145
977.20 9.991746
977.30 10.03194
977.40 10.02976
977.50 10.07523
977.60 10.20397
977.70 10.33083
977.80 10.39232
977.90 10.42635
978.00 10.47192
978.10 10.35836
978.20 10.24073
978.30 10.07419
978.40 9.781066
978.50 9.465363
978.60 9.265194
978.70 9.19699
978.80 9.108842
978.90 9.230477
979.00 9.412307
979.10 9.59894
979.20 9.820479
979.30 10.03028
979.40 10.19179
979.50 10.29157
979.60 10.44675
979.70 10.53383
979.80 10.571
979.90 10.61406
980.00 10.61728
980.10 10.61631
980.20 10.60778
980.30 10.59436
980.40 10.59157
980.50 10.58996
980.60 10.58784
980.70 10.58408
980.80 10.56991
980.90 10.54031
981.00 10.51038
981.10 10.53933
981.20 10.5756
981.30 10.58364
981.40 10.54464
981.50 10.53353
981.60 10.51887
981.70 10.48029
981.80 10.45013
981.90 10.47982
982.00 10.50393
982.10 10.50553
982.20 10.4858
982.30 10.47803
982.40 10.48381
982.50 10.49824
982.60 10.50443
982.70 10.50194
982.80 10.50856
982.90 10.513
983.00 10.48627
983.10 10.4654
983.20 10.43818
983.30 10.41279
983.40 10.38343
983.50 10.34508
983.60 10.30439
983.70 10.28581
983.80 10.30421
983.90 10.2947
984.00 10.29287
984.10 10.34342
984.20 10.39625
984.30 10.42651
984.40 10.45374
984.50 10.49434
984.60 10.51013
984.70 10.49854
984.80 10.47462
984.90 10.44696
985.00 10.45656
985.10 10.46338
985.20 10.44846
985.30 10.42852
985.40 10.45845
985.50 10.47679
985.60 10.48174
985.70 10.48751
985.80 10.51754
985.90 10.52825
986.00 10.5076
986.10 10.49588
986.20 10.48624
986.30 10.47277
986.40 10.44636
986.50 10.43935
986.60 10.44435
986.70 10.4574
986.80 10.44201
986.90 10.44894
987.00 10.45393
987.10 10.44793
987.20 10.42316
987.30 10.46911
987.40 10.51583
987.50 10.54225
987.60 10.53804
987.70 10.57085
987.80 10.56489
987.90 10.50376
988.00 10.4547
988.10 10.45095
988.20 10.43398
988.30 10.41119
988.40 10.46169
988.50 10.50068
988.60 10.52776
988.70 10.54598
988.80 10.60708
988.90 10.61745
989.00 10.602
989.10 10.58291
989.20 10.55106
989.30 10.53334
989.40 10.49144
989.50 10.35267
989.60 10.28058
989.70 10.12755
989.80 9.880045
989.90 9.614699
990.00 9.519655
990.10 9.438526
990.20 9.34131
990.30 9.235979
990.40 9.176387
990.50 9.07345
990.60 8.907673
990.70 8.716723
990.80 8.626441
990.90 8.539103
991.00 8.450839
991.10 8.526833
991.20 8.60701
991.30 8.629381
991.40 8.537703
991.50 8.491742
991.60 8.447437
991.70 8.387338
991.80 8.322375
991.90 8.447227
992.00 8.570509
992.10 8.655563
992.20 8.665905
992.30 8.754916
992.40 8.768248
992.50 8.688925
992.60 8.606368
992.70 8.649917
992.80 8.687765
992.90 8.718537
993.00 8.883947
993.10 9.063669
993.20 9.169156
993.30 9.158265
993.40 9.228801
993.50 9.242791
993.60 9.194922
993.70 9.12517
993.80 9.270238
993.90 9.389475
994.00 9.492262
994.10 9.562338
994.20 9.694761
994.30 9.700481
994.40 9.623572
994.50 9.568033
994.60 9.56936
994.70 9.553873
994.80 9.54975
994.90 9.604817
995.00 9.640305
995.10 9.69906
995.20 9.782966
995.30 9.872235
995.40 9.890059
995.50 9.921023
995.60 9.953725
995.70 9.834199
995.80 9.722006
995.90 9.645665
996.00 9.622575
996.10 9.568486
996.20 9.612653
996.30 9.678632
996.40 9.70864
996.50 9.844611
996.60 10.00151
996.70 10.09565
996.80 10.00324
996.90 10.0498
997.00 9.962271
997.10 9.756029
997.20 9.547522
997.30 9.483062
997.40 9.377032
997.50 9.279017
997.60 9.385686
997.70 9.471759
997.80 9.554249
997.90 9.629434
998.00 9.71362
998.10 9.773011
998.20 9.858903
998.30 9.93139
998.40 9.808289
998.50 9.700116
998.60 9.622965
998.70 9.580019
998.80 9.496603
998.90 9.488304
999.00 9.532348
999.10 9.589965
999.20 9.655001
999.30 9.688812
999.40 9.703361
999.50 9.722456
999.60 9.759712
999.70 9.751444
999.80 9.703687
999.90 9.658244
1000.00 9.718483
1000.10 9.763992
1000.20 9.791231
1000.30 9.847026
1000.40 9.939789
1000.50 9.995256
1000.60 9.992402
1000.70 10.03181
1000.80 9.955783
1000.90 9.850783
1001.00 9.775241
1001.10 9.739378
1001.20 9.649232
1001.30 9.619021
1001.40 9.74695
1001.50 9.814358
1001.60 9.914918
1001.70 10.04717
1001.80 10.17744
1001.90 10.14083
1002.00 10.13647
1002.10 10.13178
1002.20 10.08656
1002.30 10.00392
1002.40 9.983713
1002.50 10.02064
1002.60 10.05177
1002.70 10.05543
1002.80 10.0942
1002.90 10.14316
1003.00 10.10626
1003.10 10.03318
1003.20 9.97167
1003.30 9.947802
1003.40 9.942501
1003.50 9.894367
1003.60 9.823478
1003.70 9.76541
1003.80 9.805469
1003.90 9.798379
1004.00 9.832116
1004.10 9.950646
1004.20 10.03266
1004.30 10.0806
1004.40 10.13135
1004.50 10.20956
1004.60 10.20529
1004.70 10.22881
1004.80 10.21798
1004.90 10.11852
1005.00 10.08214
1005.10 10.00554
1005.20 9.872796
1005.30 9.730972
1005.40 9.629181
1005.50 9.488466
1005.60 9.344885
1005.70 9.359343
1005.80 9.324037
1005.90 9.314608
1006.00 9.352901
1006.10 9.405889
1006.20 9.429235
1006.30 9.461972
1006.40 9.521613
1006.50 9.588984
1006.60 9.611877
1006.70 9.651515
1006.80 9.762282
1006.90 9.873888
1007.00 9.940668
1007.10 10.01855
1007.20 10.1355
1007.30 10.13232
1007.40 10.06912
1007.50 10.04001
1007.60 10.12285
1007.70 10.16676
1007.80 10.17793
1007.90 10.18583
1008.00 10.22657
1008.10 10.22493
1008.20 10.20336
1008.30 10.18533
1008.40 10.20118
1008.50 10.20579
1008.60 10.18745
1008.70 10.15243
1008.80 10.16887
1008.90 10.11556
1009.00 10.03706
1009.10 9.976546
1009.20 9.996594
1009.30 9.966493
1009.40 9.960599
1009.50 10.04076
1009.60 10.07706
1009.70 10.13261
1009.80 10.19416
1009.90 10.24888
1010.00 10.32081
1010.10 10.4028
1010.20 10.47215
1010.30 10.48251
1010.40 10.55991
1010.50 10.56982
1010.60 10.51639
1010.70 10.48069
1010.80 10.40379
1010.90 10.31759
1011.00 10.2381
1011.10 10.16417
1011.20 10.09437
1011.30 10.05256
1011.40 10.04743
1011.50 10.00023
1011.60 9.956631
1011.70 9.919882
1011.80 9.889922
1011.90 9.892039
1012.00 9.836161
1012.10 9.84027
1012.20 10.0139
1012.30 10.18189
1012.40 10.26458
1012.50 10.30984
1012.60 10.37702
1012.70 10.35147
1012.80 10.33192
1012.90 10.31642
1013.00 10.31191
1013.10 10.30497
1013.20 10.28593
1013.30 10.26681
1013.40 10.2851
1013.50 10.17326
1013.60 10.04535
1013.70 9.935529
1013.80 9.884608
1013.90 9.741902
1014.00 9.686727
1014.10 9.758131
1014.20 9.784473
1014.30 9.847973
1014.40 9.957539
1014.50 10.05485
1014.60 9.978448
1014.70 9.939487
1014.80 9.938717
1014.90 9.958661
1015.00 9.890325
1015.10 9.948821
1015.20 10.07784
1015.30 10.19525
1015.40 10.15631
1015.50 10.19557
1015.60 10.20795
1015.70 10.06189
1015.80 9.899954
1015.90 9.834611
1016.00 9.826945
1016.10 9.770011
1016.20 9.818423
1016.30 9.892391
1016.40 9.96828
1016.50 9.978028
1016.60 9.96569
1016.70 9.964915
1016.80 9.998663
1016.90 10.07741
1017.00 10.01405
1017.10 9.920269
1017.20 9.859809
1017.30 9.932212
1017.40 9.912089
1017.50 9.953051
1017.60 10.1218
1017.70 10.33649
1017.80 10.30814
1017.90 10.20952
1018.00 10.17205
1018.10 10.11222
1018.20 10.00829
1018.30 9.900476
1018.40 9.839581
1018.50 9.790124
1018.60 9.781029
1018.70 9.777684
1018.80 9.735931
1018.90 9.829702
1019.00 9.91635
1019.10 9.977571
1019.20 9.987458
1019.30 10.04771
1019.40 10.06703
1019.50 10.03949
1019.60 10.01732
1019.70 10.02318
1019.80 10.04057
1019.90 10.05269
1020.00 10.01134
1020.10 9.97671
1020.20 9.970336
1020.30 9.998672
1020.40 9.994269
1020.50 10.04065
1020.60 10.10558
1020.70 10.16327
1020.80 10.18171
1020.90 10.21926
1021.00 10.22962
1021.10 10.18849
1021.20 10.19309
1021.30 10.14522
1021.40 10.05
1021.50 9.953331
1021.60 9.93716
1021.70 9.92271
1021.80 9.895808
1021.90 9.83314
1022.00 9.745264
1022.10 9.713287
1022.20 9.734699
1022.30 9.717168
1022.40 9.821543
1022.50 9.959589
1022.60 10.06463
1022.70 10.04767
1022.80 10.07175
1022.90 10.08465
1023.00 10.05889
1023.10 10.05338
1023.20 10.02179
1023.30 9.964713
1023.40 9.910705
1023.50 9.97766
1023.60 10.0045
1023.70 10.01444
1023.80 10.03789
1023.90 10.09808
1024.00 10.14373
1024.10 10.1618
1024.20 10.16522
1024.30 10.1969
1024.40 10.28062
1024.50 10.34305
1024.60 10.27374
1024.70 10.21371
1024.80 10.17724
1024.90 10.1593
1025.00 10.1281
1025.10 10.0623
1025.20 10.00005
1025.30 9.958606
1025.40 9.952882
1025.50 9.891943
1025.60 9.882798
1025.70 9.946424
1025.80 10.0261
1025.90 9.945521
1026.00 9.846244
1026.10 9.779204
1026.20 9.712228
1026.30 9.583482
1026.40 9.537641
1026.50 9.643489
1026.60 9.678506
1026.70 9.780011
1026.80 9.911417
1026.90 10.03318
1027.00 10.04869
1027.10 10.12795
1027.20 10.16868
1027.30 10.10204
1027.40 10.08368
1027.50 10.05539
1027.60 10.01023
1027.70 9.937792
1027.80 9.936313
1027.90 9.933343
1028.00 9.919796
1028.10 9.844757
1028.20 9.804089
1028.30 9.76213
1028.40 9.709841
1028.50 9.606106
1028.60 9.672634
1028.70 9.737217
1028.80 9.77389
1028.90 9.850966
1029.00 10.00418
1029.10 10.10022
1029.20 10.06867
1029.30 10.06425
1029.40 10.04903
1029.50 10.0136
1029.60 9.977482
1029.70 9.975286
1029.80 9.994543
1029.90 9.991769
1030.00 9.943184
1030.10 9.892264
1030.20 9.897294
1030.30 9.925348
1030.40 9.932
1030.50 10.0065
1030.60 10.07582
1030.70 10.12768
1030.80 10.09687
1030.90 10.12643
1031.00 10.13964
1031.10 10.12212
1031.20 10.08872
1031.30 10.11715
1031.40 10.16065
1031.50 10.16645
1031.60 10.10834
1031.70 10.10654
1031.80 10.08808
1031.90 10.02484
1032.00 9.933827
1032.10 9.919738
1032.20 9.935646
1032.30 9.955541
1032.40 9.925801
1032.50 9.884163
1032.60 9.869474
1032.70 9.920186
1032.80 9.895791
1032.90 9.968483
1033.00 10.09198
1033.10 10.21883
1033.20 10.24098
1033.30 10.3242
1033.40 10.35155
1033.50 10.21038
1033.60 10.13955
1033.70 10.02567
1033.80 9.870675
1033.90 9.675468
1034.00 9.588249
1034.10 9.493035
1034.20 9.302325
1034.30 9.026272
1034.40 8.788344
1034.50 8.647199
1034.60 8.560894
1034.70 8.479882
1034.80 8.677422
1034.90 8.929108
1035.00 9.171767
1035.10 9.321574
1035.20 9.509884
1035.30 9.641624
1035.40 9.741959
1035.50 9.79648
1035.60 9.857863
1035.70 9.923358
1035.80 9.976856
1035.90 10.04577
1036.00 10.11046
1036.10 10.17716
1036.20 10.23984
1036.30 10.32799
1036.40 10.34417
1036.50 10.31767
1036.60 10.29901
1036.70 10.30424
1036.80 10.30056
1036.90 10.29303
1037.00 10.31096
1037.10 10.30417
1037.20 10.33097
1037.30 10.38678
1037.40 10.46212
1037.50 10.41657
1037.60 10.3996
1037.70 10.37304
1037.80 10.25079
1037.90 10.15661
1038.00 10.07351
1038.10 9.987017
1038.20 9.848262
1038.30 9.883977
1038.40 9.916251
1038.50 9.908899
1038.60 9.985543
1038.70 10.09485
1038.80 10.15712
1038.90 10.11993
1039.00 10.12447
1039.10 10.10677
1039.20 10.07987
1039.30 10.04396
1039.40 9.961827
1039.50 9.887274
1039.60 9.777954
1039.70 9.657622
1039.80 9.510057
1039.90 9.496388
1040.00 9.545371
1040.10 9.588601
1040.20 9.739054
1040.30 9.90519
1040.40 10.04731
1040.50 10.12614
1040.60 10.22666
1040.70 10.2783
1040.80 10.29674
1040.90 10.33822
1041.00 10.30603
1041.10 10.29343
1041.20 10.28113
1041.30 10.20666
1041.40 10.09966
1041.50 10.05883
1041.60 10.08998
1041.70 10.02465
1041.80 10.06745
1041.90 10.17647
1042.00 10.27857
1042.10 10.24961
1042.20 10.3105
1042.30 10.32861
1042.40 10.23666
1042.50 10.15725
1042.60 10.05784
1042.70 9.947692
1042.80 9.841467
1042.90 9.839496
1043.00 9.758366
1043.10 9.732251
1043.20 9.908565
1043.30 10.02272
1043.40 10.10402
1043.50 10.18473
1043.60 10.32582
1043.70 10.33629
1043.80 10.35912
1043.90 10.3751
1044.00 10.37017
1044.10 10.35088
1044.20 10.35042
1044.30 10.36589
1044.40 10.36557
1044.50 10.31144
1044.60 10.25386
1044.70 10.22521
1044.80 10.27372
1044.90 10.28467
1045.00 10.31311
1045.10 10.36512
1045.20 10.39595
1045.30 10.44182
1045.40 10.51071
1045.50 10.59188
1045.60 10.59532
1045.70 10.64874
1045.80 10.69095
1045.90 10.65938
1046.00 10.65301
1046.10 10.61091
1046.20 10.54732
1046.30 10.46764
1046.40 10.42308
1046.50 10.36672
1046.60 10.30176
1046.70 10.21658
1046.80 10.13949
1046.90 10.06124
1047.00 9.978778
1047.10 9.882862
1047.20 9.885568
1047.30 9.869265
1047.40 9.860663
1047.50 9.929629
1047.60 10.01677
1047.70 10.06833
1047.80 10.0896
1047.90 10.13378
1048.00 10.15892
1048.10 10.15947
1048.20 10.14186
1048.30 10.19758
1048.40 10.23569
1048.50 10.25664
1048.60 10.25564
1048.70 10.29466
1048.80 10.31163
1048.90 10.31769
1049.00 10.33248
1049.10 10.35493
1049.20 10.36481
1049.30 10.33652
1049.40 10.27647
1049.50 10.26388
1049.60 10.14338
1049.70 9.952995
1049.80 9.798329
1049.90 9.848911
1050.00 9.845689
1050.10 9.896886
1050.20 10.06485
1050.30 10.24455
1050.40 10.30404
1050.50 10.30241
1050.60 10.32644
1050.70 10.31884
1050.80 10.30539
1050.90 10.27393
1051.00 10.24043
1051.10 10.24138
1051.20 10.20913
1051.30 10.12873
1051.40 10.04041
1051.50 10.00917
1051.60 9.961112
1051.70 9.903951
1051.80 9.927268
1051.90 9.965797
1052.00 9.98696
1052.10 9.972442
1052.20 9.950214
1052.30 9.977789
1052.40 10.00603
1052.50 10.01367
1052.60 10.11623
1052.70 10.22574
1052.80 10.3129
1052.90 10.35305
1053.00 10.44988
1053.10 10.45962
1053.20 10.39957
1053.30 10.33036
1053.40 10.35011
1053.50 10.35693
1053.60 10.35516
1053.70 10.33494
1053.80 10.3487
1053.90 10.35106
1054.00 10.33788
1054.10 10.30907
1054.20 10.34074
1054.30 10.36816
1054.40 10.3795
1054.50 10.3356
1054.60 10.34756
1054.70 10.33967
1054.80 10.29601
1054.90 10.21989
1055.00 10.25647
1055.10 10.28394
1055.20 10.29306
1055.30 10.28656
1055.40 10.33321
1055.50 10.33886
1055.60 10.27797
1055.70 10.25367
1055.80 10.19975
1055.90 10.12574
1056.00 10.04587
1056.10 10.05169
1056.20 10.02768
1056.30 10.01182
1056.40 10.01761
1056.50 10.00162
1056.60 10.01792
1056.70 10.06275
1056.80 10.11522
1056.90 10.10581
1057.00 10.09432
1057.10 10.10316
1057.20 10.13897
1057.30 10.15265
1057.40 10.17075
1057.50 10.2017
1057.60 10.23542
1057.70 10.2372
1057.80 10.24904
1057.90 10.26931
1058.00 10.29254
1058.10 10.30446
1058.20 10.27983
1058.30 10.23648
1058.40 10.211
1058.50 10.06963
1058.60 9.90386
1058.70 9.812089
1058.80 9.849615
1058.90 9.845681
1059.00 9.883
1059.10 9.975696
1059.20 10.06632
1059.30 10.13396
1059.40 10.18173
1059.50 10.20964
1059.60 10.24186
1059.70 10.2924
1059.80 10.31636
1059.90 10.2691
1060.00 10.25215
1060.10 10.2364
1060.20 10.21274
1060.30 10.18218
1060.40 10.16658
1060.50 10.16135
1060.60 10.1312
1060.70 10.05731
1060.80 9.989676
1060.90 9.969582
1061.00 9.961417
1061.10 9.923947
1061.20 9.970728
1061.30 10.01706
1061.40 10.05819
1061.50 10.11201
1061.60 10.19366
1061.70 10.20076
1061.80 10.14006
1061.90 10.11129
1062.00 10.09941
1062.10 10.08701
1062.20 10.07189
1062.30 10.07896
1062.40 10.056
1062.50 10.06265
1062.60 10.13389
1062.70 10.18175
1062.80 10.24017
1062.90 10.31536
1063.00 10.39054
1063.10 10.34351
1063.20 10.33039
1063.30 10.33167
1063.40 10.32055
1063.50 10.28575
1063.60 10.28487
1063.70 10.29164
1063.80 10.28271
1063.90 10.3058
1064.00 10.32585
1064.10 10.34192
1064.20 10.34305
1064.30 10.37498
1064.40 10.38946
1064.50 10.38889
1064.60 10.38748
1064.70 10.37284
1064.80 10.35745
1064.90 10.33406
1065.00 10.32508
1065.10 10.32033
1065.20 10.2865
1065.30 10.23043
1065.40 10.21278
1065.50 10.19076
1065.60 10.1397
1065.70 10.08008
1065.80 10.09892
1065.90 10.10613
1066.00 10.05842
1066.10 9.972938
1066.20 9.939258
1066.30 9.860141
1066.40 9.744159
1066.50 9.660743
1066.60 9.746888
1066.70 9.804439
1066.80 9.854421
1066.90 9.890813
1067.00 9.950936
1067.10 9.973613
1067.20 9.961997
1067.30 9.921958
1067.40 9.987747
1067.50 10.05026
1067.60 10.07483
1067.70 10.05649
1067.80 10.07581
1067.90 10.10543
1068.00 10.13265
1068.10 10.16045
1068.20 10.23294
1068.30 10.28944
1068.40 10.35568
1068.50 10.43567
1068.60 10.53023
1068.70 10.55471
1068.80 10.53705
1068.90 10.54195
1069.00 10.51807
1069.10 10.47867
1069.20 10.44912
1069.30 10.44593
1069.40 10.46912
1069.50 10.44895
1069.60 10.38529
1069.70 10.307
1069.80 10.29148
1069.90 10.26526
1070.00 10.22598
1070.10 10.20459
1070.20 10.21162
1070.30 10.2155
1070.40 10.18603
1070.50 10.11983
1070.60 10.12848
1070.70 10.16223
1070.80 10.18494
1070.90 10.16876
1071.00 10.19469
1071.10 10.2337
1071.20 10.25902
1071.30 10.2375
1071.40 10.24036
1071.50 10.26738
1071.60 10.29724
1071.70 10.26399
1071.80 10.24552
1071.90 10.2404
1072.00 10.24132
1072.10 10.23763
1072.20 10.21921
1072.30 10.20264
1072.40 10.19598
1072.50 10.10558
1072.60 9.98359
1072.70 9.874972
1072.80 9.863468
1072.90 9.818519
1073.00 9.858507
1073.10 9.960589
1073.20 10.07503
1073.30 10.05776
1073.40 10.02968
1073.50 10.00553
1073.60 10.01876
1073.70 9.98442
1073.80 10.0091
1073.90 10.1068
1074.00 10.19751
1074.10 10.21799
1074.20 10.21975
1074.30 10.23038
1074.40 10.21662
1074.50 10.23226
1074.60 10.23419
1074.70 10.20243
1074.80 10.15839
1074.90 10.144
1075.00 10.14911
1075.10 10.15225
1075.20 10.16164
1075.30 10.16758
1075.40 10.16791
1075.50 10.14346
1075.60 10.09186
1075.70 10.10274
1075.80 10.15567
1075.90 10.19525
1076.00 10.18561
1076.10 10.21155
1076.20 10.24598
1076.30 10.24923
1076.40 10.24749
1076.50 10.25575
1076.60 10.2757
1076.70 10.28857
1076.80 10.28949
1076.90 10.28082
1077.00 10.27214
1077.10 10.25309
1077.20 10.25223
1077.30 10.22482
1077.40 10.17178
1077.50 10.1246
1077.60 10.07409
1077.70 10.00314
1077.80 9.957717
1077.90 10.02709
1078.00 10.07119
1078.10 10.09628
1078.20 10.10865
1078.30 10.14377
1078.40 10.15856
1078.50 10.15929
1078.60 10.16109
1078.70 10.14106
1078.80 10.15123
1078.90 10.1564
1079.00 10.12236
1079.10 10.08101
1079.20 10.05213
1079.30 10.03362
1079.40 10.01205
1079.50 10.04264
1079.60 10.04456
1079.70 10.04393
1079.80 10.06842
1079.90 10.10456
1080.00 10.11946
1080.10 10.12057
1080.20 10.1182
1080.30 10.13983
1080.40 10.16762
1080.50 10.20033
1080.60 10.23488
1080.70 10.2527
1080.80 10.24667
1080.90 10.22211
1081.00 10.22123
1081.10 10.21601
1081.20 10.20876
1081.30 10.19311
1081.40 10.19469
1081.50 10.18811
1081.60 10.19458
1081.70 10.20483
1081.80 10.22109
1081.90 10.2164
1082.00 10.22588
1082.10 10.2561
1082.20 10.19986
1082.30 10.14624
1082.40 10.1092
1082.50 10.10347
1082.60 10.06985
1082.70 10.11277
1082.80 10.17854
1082.90 10.23886
1083.00 10.34733
1083.10 10.45581
1083.20 10.51463
1083.30 10.47058
1083.40 10.45126
1083.50 10.35544
1083.60 10.21538
1083.70 10.08145
1083.80 10.06573
1083.90 10.03534
1084.00 10.01443
1084.10 10.05984
1084.20 10.12283
1084.30 10.14045
1084.40 10.11211
1084.50 10.09201
1084.60 10.05521
1084.70 10.0212
1084.80 10.00655
1084.90 10.04101
1085.00 10.02615
1085.10 10.03149
1085.20 10.07636
1085.30 10.15582
1085.40 10.15001
1085.50 10.11587
1085.60 10.08363
1085.70 10.13078
1085.80 10.15638
1085.90 10.18103
1086.00 10.20911
1086.10 10.24469
1086.20 10.25769
1086.30 10.27546
1086.40 10.29624
1086.50 10.26356
1086.60 10.25474
1086.70 10.25336
1086.80 10.24236
1086.90 10.20118
1087.00 10.2139
1087.10 10.25809
1087.20 10.29745
1087.30 10.25097
1087.40 10.24408
1087.50 10.22644
1087.60 10.17177
1087.70 10.08798
1087.80 10.07585
1087.90 10.10779
1088.00 10.13132
1088.10 10.11905
1088.20 10.12402
1088.30 10.13429
1088.40 10.13278
1088.50 10.10865
1088.60 10.10063
1088.70 10.12563
1088.80 10.1689
1088.90 10.18105
1089.00 10.17863
1089.10 10.16335
1089.20 10.13987
1089.30 10.12568
1089.40 10.09807
1089.50 10.05708
1089.60 10.00278
1089.70 10.02725
1089.80 10.04836
1089.90 10.06342
1090.00 10.08706
1090.10 10.14184
1090.20 10.17448
1090.30 10.16995
1090.40 10.1659
1090.50 10.13755
1090.60 10.10905
1090.70 10.08975
1090.80 10.04915
1090.90 10.01611
1091.00 9.995406
1091.10 9.973787
1091.20 9.922897
1091.30 9.936439
1091.40 9.976582
1091.50 9.985368
1091.60 10.04563
1091.70 10.12397
1091.80 10.18052
1091.90 10.14628
1092.00 10.12497
1092.10 10.11795
1092.20 10.11918
1092.30 10.11872
1092.40 10.09818
1092.50 10.07912
1092.60 10.07313
1092.70 10.06845
1092.80 10.05708
1092.90 10.04122
1093.00 10.03216
1093.10 10.0364
1093.20 10.03918
1093.30 10.03714
1093.40 10.03544
1093.50 10.06454
1093.60 10.09395
1093.70 10.1283
1093.80 10.16824
1093.90 10.19259
1094.00 10.27931
1094.10 10.3779
1094.20 10.43605
1094.30 10.34055
1094.40 10.31278
1094.50 10.27947
1094.60 10.20396
1094.70 10.07513
1094.80 10.03796
1094.90 10.00994
1095.00 9.956806
1095.10 9.99181
1095.20 10.03117
1095.30 10.05899
1095.40 10.05381
1095.50 10.09737
1095.60 10.10231
1095.70 10.09081
1095.80 10.08562
1095.90 10.07211
1096.00 10.03185
1096.10 9.996875
1096.20 10.01497
1096.30 10.04124
1096.40 10.0556
1096.50 10.0668
1096.60 10.09134
1096.70 10.01138
1096.80 9.942939
1096.90 9.900258
1097.00 9.89008
1097.10 9.856276
1097.20 9.84732
1097.30 9.849257
1097.40 9.803976
1097.50 9.814609
1097.60 9.850479
1097.70 9.89284
1097.80 9.901343
1097.90 9.91029
1098.00 9.930101
1098.10 9.971287
1098.20 10.04152
1098.30 10.03955
1098.40 10.00635
1098.50 9.970329
1098.60 9.964024
1098.70 9.952783
1098.80 9.934886
1098.90 9.924393
1099.00 9.905206
1099.10 9.933191
1099.20 9.965894
1099.30 9.974395
1099.40 9.966046
1099.50 9.98131
1099.60 9.998167
1099.70 9.993005
1099.80 9.998014
1099.90 9.991319
1100.00 9.979696
1100.10 9.971921
1100.20 9.960984
1100.30 9.958081
1100.40 9.959837
1100.50 9.944818
1100.60 9.901502
1100.70 9.890449
1100.80 9.904871
1100.90 9.897319
1101.00 9.906022
1101.10 9.939846
1101.20 9.9987
1101.30 10.03935
1101.40 10.03572
1101.50 9.996674
1101.60 9.957621
1101.70 9.972227
1101.80 9.923904
1101.90 9.877015
1102.00 9.854397
1102.10 9.85089
1102.20 9.828824
1102.30 9.824556
1102.40 9.846213
1102.50 9.782201
1102.60 9.827278
1102.70 9.896245
1102.80 9.949724
1102.90 9.938121
1103.00 9.974701
1103.10 9.970944
1103.20 9.900292
1103.30 9.901808
1103.40 9.862416
1103.50 9.790142
1103.60 9.713691
1103.70 9.770775
1103.80 9.762692
1103.90 9.741748
1104.00 9.747497
1104.10 9.775311
1104.20 9.758473
1104.30 9.732949
1104.40 9.733614
1104.50 9.752383
1104.60 9.748583
1104.70 9.749021
1104.80 9.795058
1104.90 9.854346
1105.00 9.848168
1105.10 9.822847
1105.20 9.824893
1105.30 9.76225
1105.40 9.665586
1105.50 9.614545
1105.60 9.627127
1105.70 9.604978
1105.80 9.611023
1105.90 9.659113
1106.00 9.694592
1106.10 9.691267
1106.20 9.69498
1106.30 9.697304
1106.40 9.668598
1106.50 9.63168
1106.60 9.616331
1106.70 9.619872
1106.80 9.6592
1106.90 9.643035
1107.00 9.604114
1107.10 9.552947
1107.20 9.590393
1107.30 9.60047
1107.40 9.63093
1107.50 9.6751
1107.60 9.734372
1107.70 9.752622
1107.80 9.750482
1107.90 9.745812
1108.00 9.714764
1108.10 9.682595
1108.20 9.685141
1108.30 9.740683
1108.40 9.803556
1108.50 9.838381
1108.60 9.859667
1108.70 9.873233
1108.80 9.852585
1108.90 9.839958
1109.00 9.820938
1109.10 9.786065
1109.20 9.748292
1109.30 9.745403
1109.40 9.767124
1109.50 9.786043
1109.60 9.80626
1109.70 9.829314
1109.80 9.831403
1109.90 9.806689
1110.00 9.812609
1110.10 9.800766
1110.20 9.765638
1110.30 9.748203
1110.40 9.704576
1110.50 9.639837
1110.60 9.575959
1110.70 9.609948
1110.80 9.610669
1110.90 9.611411
1111.00 9.605135
1111.10 9.618764
1111.20 9.596765
1111.30 9.563716
1111.40 9.56046
1111.50 9.557245
1111.60 9.541898
1111.70 9.546463
1111.80 9.603539
1111.90 9.651262
1112.00 9.63116
1112.10 9.58727
1112.20 9.544682
1112.30 9.53001
1112.40 9.499905
1112.50 9.521008
1112.60 9.61435
1112.70 9.691854
1112.80 9.731188
1112.90 9.757617
1113.00 9.791425
1113.10 9.737344
1113.20 9.692148
1113.30 9.676655
1113.40 9.707516
1113.50 9.749331
1113.60 9.740942
1113.70 9.696427
1113.80 9.667581
1113.90 9.664208
1114.00 9.630833
1114.10 9.615132
1114.20 9.689681
1114.30 9.744358
1114.40 9.800187
1114.50 9.863036
1114.60 9.937401
1114.70 9.964412
1114.80 10.00356
1114.90 10.02156
1115.00 9.860565
1115.10 9.689645
1115.20 9.612102
1115.30 9.624252
1115.40 9.620308
1115.50 9.635564
1115.60 9.673305
1115.70 9.736818
1115.80 9.781488
1115.90 9.803746
1116.00 9.803428
1116.10 9.79746
1116.20 9.77133
1116.30 9.737774
1116.40 9.708308
1116.50 9.724784
1116.60 9.574722
1116.70 9.413435
1116.80 9.336476
1116.90 9.437115
1117.00 9.543317
1117.10 9.553511
1117.20 9.535409
1117.30 9.527787
1117.40 9.465617
1117.50 9.387954
1117.60 9.365773
1117.70 9.453146
1117.80 9.525892
1117.90 9.610281
1118.00 9.651424
1118.10 9.684008
1118.20 9.715647
1118.30 9.716743
1118.40 9.723643
1118.50 9.737718
1118.60 9.772636
1118.70 9.79978
1118.80 9.836059
1118.90 9.824024
1119.00 9.701446
1119.10 9.586215
1119.20 9.49785
1119.30 9.447186
1119.40 9.391303
1119.50 9.330897
1119.60 9.407653
1119.70 9.51474
1119.80 9.601358
1119.90 9.639664
1120.00 9.647685
1120.10 9.673062
1120.20 9.677928
1120.30 9.610994
1120.40 9.540499
1120.50 9.500591
1120.60 9.584137
1120.70 9.67591
1120.80 9.736322
1120.90 9.754346
1121.00 9.773283
1121.10 9.800921
1121.20 9.779609
1121.30 9.713455
1121.40 9.64652
1121.50 9.614633
1121.60 9.654752
1121.70 9.703222
1121.80 9.745747
1121.90 9.736616
1122.00 9.714321
1122.10 9.690964
1122.20 9.634044
1122.30 9.560109
1122.40 9.489662
1122.50 9.433318
1122.60 9.354969
1122.70 9.273962
1122.80 9.284523
1122.90 9.492649
1123.00 9.720313
1123.10 9.919752
1123.20 9.934169
1123.30 9.973829
1123.40 10.01263
1123.50 9.864831
1123.60 9.640618
1123.70 9.415508
1123.80 9.385961
1123.90 9.506444
1124.00 9.604418
1124.10 9.656674
1124.20 9.694022
1124.30 9.746888
1124.40 9.812051
1124.50 9.778274
1124.60 9.751189
1124.70 9.74038
1124.80 9.764444
1124.90 9.825656
1125.00 9.869151
1125.10 9.859372
1125.20 9.790824
1125.30 9.710999
1125.40 9.610792
1125.50 9.301166
1125.60 8.982027
1125.70 8.714362
1125.80 9.026392
1125.90 9.335791
1126.00 9.633242
1126.10 9.669108
1126.20 9.60592
1126.30 9.547956
1126.40 9.531596
1126.50 9.550829
1126.60 9.55349
1126.70 9.55849
1126.80 9.61713
1126.90 9.68266
1127.00 9.745152
1127.10 9.744555
1127.20 9.748784
1127.30 9.763786
1127.40 9.714289
1127.50 9.638958
1127.60 9.561488
1127.70 9.502773
1127.80 9.458913
1127.90 9.403524
1128.00 9.375932
1128.10 9.441002
1128.20 9.504791
1128.30 9.569289
1128.40 9.592342
1128.50 9.618512
1128.60 9.657619
1128.70 9.695728
1128.80 9.739333
1128.90 9.789383
1129.00 9.814507
1129.10 9.81939
1129.20 9.814692
1129.30 9.786172
1129.40 9.764296
1129.50 9.725077
1129.60 9.693545
1129.70 9.623982
1129.80 9.55215
1129.90 9.502166
1130.00 9.479664
1130.10 9.486676
1130.20 9.52929
1130.30 9.546149
1130.40 9.552632
1130.50 9.550581
1130.60 9.547382
1130.70 9.550497
1130.80 9.529464
1130.90 9.499212
1131.00 9.506223
1131.10 9.50698
1131.20 9.49987
1131.30 9.482918
1131.40 9.462588
1131.50 9.462236
1131.60 9.478906
1131.70 9.51319
1131.80 9.551657
1131.90 9.585552
1132.00 9.610194
1132.10 9.642104
1132.20 9.675069
1132.30 9.643831
1132.40 9.604854
1132.50 9.562809
1132.60 9.546688
1132.70 9.543853
1132.80 9.534252
1132.90 9.547833
1133.00 9.602844
1133.10 9.669477
1133.20 9.707741
1133.30 9.62994
1133.40 9.550306
1133.50 9.480163
1133.60 9.461252
1133.70 9.449688
1133.80 9.437245
1133.90 9.436834
1134.00 9.442134
1134.10 9.436494
1134.20 9.429254
1134.30 9.418951
1134.40 9.400187
1134.50 9.379282
1134.60 9.357616
1134.70 9.312049
1134.80 9.355003
1134.90 9.261677
1135.00 9.160016
1135.10 9.043838
1135.20 9.166093
1135.30 9.420688
1135.40 9.677582
1135.50 9.806535
1135.60 9.779733
1135.70 9.745605
1135.80 9.685478
1135.90 9.548673
1136.00 9.382497
1136.10 9.271779
1136.20 9.290613
1136.30 9.331809
1136.40 9.355402
1136.50 9.371962
1136.60 9.416991
1136.70 9.471585
1136.80 9.486429
1136.90 9.442279
1137.00 9.393762
1137.10 9.352993
1137.20 9.367691
1137.30 9.39452
1137.40 9.421764
1137.50 9.262994
1137.60 9.096411
1137.70 8.945273
1137.80 8.760535
1137.90 8.598383
1138.00 8.441505
1138.10 8.185505
1138.20 7.86897
1138.30 7.504933
1138.40 7.304264
1138.50 7.483919
1138.60 7.520972
1138.70 7.608696
1138.80 7.975557
1138.90 8.389079
1139.00 8.786039
1139.10 8.942265
1139.20 9.00135
1139.30 9.117939
1139.40 9.166766
1139.50 9.166197
1139.60 9.189082
1139.70 9.181724
1139.80 8.982787
1139.90 8.822933
1140.00 8.625916
1140.10 8.29314
1140.20 7.994852
1140.30 7.681482
1140.40 7.317327
1140.50 6.936208
1140.60 6.521018
1140.70 6.459417
1140.80 6.678421
1140.90 6.735204
1141.00 6.921072
1141.10 7.463237
1141.20 8.040625
1141.30 8.51341
1141.40 8.669233
1141.50 8.814665
1141.60 8.982888
1141.70 9.086249
1141.80 9.187994
1141.90 9.305945
1142.00 9.333098
1142.10 9.255374
1142.20 9.198178
1142.30 9.148217
1142.40 9.134608
1142.50 9.110155
1142.60 9.093278
1142.70 9.140949
1142.80 9.191875
1142.90 9.247833
1143.00 9.28811
1143.10 9.330067
1143.20 9.376455
1143.30 9.414958
1143.40 9.446917
1143.50 9.476732
1143.60 9.495723
1143.70 9.431467
1143.80 9.389061
1143.90 9.340459
1144.00 9.243281
1144.10 9.119945
1144.20 9.00415
1144.30 8.974075
1144.40 8.995793
1144.50 9.01261
1144.60 9.046386
1144.70 9.119529
1144.80 9.181867
1144.90 9.227668
1145.00 9.242688
1145.10 9.263906
1145.20 9.306021
1145.30 9.33027
1145.40 9.358417
1145.50 9.380316
1145.60 9.372078
1145.70 9.346049
1145.80 9.318611
1145.90 9.329049
1146.00 9.389463
1146.10 9.436072
1146.20 9.463903
1146.30 9.450439
1146.40 9.437597
1146.50 9.44208
1146.60 9.396201
1146.70 9.347465
1146.80 9.3258
1146.90 9.345152
1147.00 9.408873
1147.10 9.4655
1147.20 9.449178
1147.30 9.337958
1147.40 9.209246
1147.50 9.127166
1147.60 9.27641
1147.70 9.42005
1147.80 9.543932
1147.90 9.53165
1148.00 9.510213
1148.10 9.496908
1148.20 9.504278
1148.30 9.528285
1148.40 9.575149
1148.50 9.57679
1148.60 9.50911
1148.70 9.409416
1148.80 9.343961
1148.90 9.36119
1149.00 9.375837
1149.10 9.377757
1149.20 9.443493
1149.30 9.540348
1149.40 9.63845
1149.50 9.602298
1149.60 9.498442
1149.70 9.400009
1149.80 9.320531
1149.90 9.233234
1150.00 9.149495
1150.10 9.092979
1150.20 9.208838
1150.30 9.327079
1150.40 9.433451
1150.50 9.460983
1150.60 9.469017
1150.70 9.469129
1150.80 9.461178
1150.90 9.445524
1151.00 9.441806
1151.10 9.419529
1151.20 9.372995
1151.30 9.334432
1151.40 9.317338
1151.50 9.37091
1151.60 9.422946
1151.70 9.46415
1151.80 9.44795
1151.90 9.420629
1152.00 9.4009
1152.10 9.405148
1152.20 9.427326
1152.30 9.456547
1152.40 9.425917
1152.50 9.333896
1152.60 9.24118
1152.70 9.198022
1152.80 9.231306
1152.90 9.255159
1153.00 9.252351
1153.10 9.308765
1153.20 9.379232
1153.30 9.447973
1153.40 9.44849
1153.50 9.418412
1153.60 9.378144
1153.70 9.356521
1153.80 9.347976
1153.90 9.332797
1154.00 9.312382
1154.10 9.272025
1154.20 9.24536
1154.30 9.228431
1154.40 9.240801
1154.50 9.272728
1154.60 9.322205
1154.70 9.352899
1154.80 9.380389
1154.90 9.382414
1155.00 9.399511
1155.10 9.420564
1155.20 9.422324
1155.30 9.411733
1155.40 9.410758
1155.50 9.411962
1155.60 9.418751
1155.70 9.368747
1155.80 9.320998
1155.90 9.294653
1156.00 9.325359
1156.10 9.392312
1156.20 9.449579
1156.30 9.456749
1156.40 9.414458
1156.50 9.371152
1156.60 9.339505
1156.70 9.357293
1156.80 9.389263
1156.90 9.420868
1157.00 9.405836
1157.10 9.386629
1157.20 9.365925
1157.30 9.378417
1157.40 9.392855
1157.50 9.401682
1157.60 9.375764
1157.70 9.319549
1157.80 9.26637
1157.90 9.241142
1158.00 9.286428
1158.10 9.328227
1158.20 9.363891
1158.30 9.380898
1158.40 9.406291
1158.50 9.429681
1158.60 9.406904
1158.70 9.368894
1158.80 9.338839
1158.90 9.297939
1159.00 9.248645
1159.10 9.21928
1159.20 9.18691
1159.30 9.167285
1159.40 9.149156
1159.50 9.129867
1159.60 9.116032
1159.70 9.070716
1159.80 9.016525
1159.90 9.058672
1160.00 9.107473
1160.10 9.142798
1160.20 9.158581
1160.30 9.161825
1160.40 9.18637
1160.50 9.157903
1160.60 9.035209
1160.70 8.964882
1160.80 8.88894
1160.90 8.789029
1161.00 8.665615
1161.10 8.532681
1161.20 8.613395
1161.30 8.702956
1161.40 8.7561
1161.50 8.851312
1161.60 8.975532
1161.70 9.141033
1161.80 9.243626
1161.90 9.259321
1162.00 9.302391
1162.10 9.347549
1162.20 9.310344
1162.30 9.263945
1162.40 9.215093
1162.50 9.232102
1162.60 9.253421
1162.70 9.265761
1162.80 9.296008
1162.90 9.343214
1163.00 9.389572
1163.10 9.416605
1163.20 9.41128
1163.30 9.422533
1163.40 9.414423
1163.50 9.324393
1163.60 9.259899
1163.70 9.207974
1163.80 9.079319
1163.90 8.931334
1164.00 8.776537
1164.10 8.784738
1164.20 8.864504
1164.30 8.875337
1164.40 8.92938
1164.50 9.047169
1164.60 9.187666
1164.70 9.304044
1164.80 9.301076
1164.90 9.316677
1165.00 9.336204
1165.10 9.315772
1165.20 9.298058
1165.30 9.275236
1165.40 9.244312
1165.50 9.214338
1165.60 9.179024
1165.70 9.172864
1165.80 9.190278
1165.90 9.192138
1166.00 9.212002
1166.10 9.269037
1166.20 9.325704
1166.30 9.365066
1166.40 9.368746
1166.50 9.381819
1166.60 9.405397
1166.70 9.386733
1166.80 9.343301
1166.90 9.316309
1167.00 9.300199
1167.10 9.307625
1167.20 9.31237
1167.30 9.32235
1167.40 9.321244
1167.50 9.318108
1167.60 9.30514
1167.70 9.29881
1167.80 9.291171
1167.90 9.282324
1168.00 9.275136
1168.10 9.269226
1168.20 9.280526
1168.30 9.273008
1168.40 9.248495
1168.50 9.253166
1168.60 9.237426
1168.70 9.117819
1168.80 9.068155
1168.90 9.010206
1169.00 8.715083
1169.10 8.391511
1169.20 8.047316
1169.30 8.061716
1169.40 8.131958
1169.50 8.026518
1169.60 8.113352
1169.70 8.385393
1169.80 8.672215
1169.90 8.877938
1170.00 8.944227
1170.10 9.067825
1170.20 9.206409
1170.30 9.23035
1170.40 9.264735
1170.50 9.317591
1170.60 9.318959
1170.70 9.30986
1170.80 9.312959
1170.90 9.300302
1171.00 9.281375
1171.10 9.26316
1171.20 9.251691
1171.30 9.262436
1171.40 9.269935
1171.50 9.275124
1171.60 9.2662
1171.70 9.268286
1171.80 9.288434
1171.90 9.281635
1172.00 9.260919
1172.10 9.232869
1172.20 9.230156
1172.30 9.245732
1172.40 9.252291
1172.50 9.259967
1172.60 9.279177
1172.70 9.291
1172.80 9.284224
1172.90 9.268751
1173.00 9.254425
1173.10 9.24973
1173.20 9.248846
1173.30 9.260224
1173.40 9.285808
1173.50 9.277588
1173.60 9.244905
1173.70 9.213118
1173.80 9.198938
1173.90 9.186121
1174.00 9.160002
1174.10 9.139169
1174.20 9.177677
1174.30 9.21428
1174.40 9.240997
1174.50 9.262532
1174.60 9.288339
1174.70 9.318682
1174.80 9.321479
1174.90 9.312721
1175.00 9.318195
1175.10 9.314567
1175.20 9.281877
1175.30 9.245509
1175.40 9.221909
1175.50 9.256231
1175.60 9.279158
1175.70 9.291494
1175.80 9.289627
1175.90 9.293479
1176.00 9.304462
1176.10 9.286743
1176.20 9.261564
1176.30 9.250573
1176.40 9.25214
1176.50 9.248237
1176.60 9.282745
1176.70 9.268906
1176.80 9.059136
1176.90 8.929004
1177.00 8.798848
1177.10 8.475439
1177.20 8.117881
1177.30 7.716696
1177.40 7.570015
1177.50 7.520495
1177.60 7.274893
1177.70 7.342934
1177.80 7.720684
1177.90 8.0421
1178.00 8.297971
1178.10 8.416333
1178.20 8.603847
1178.30 8.795634
1178.40 8.781546
1178.50 8.76895
1178.60 8.788029
1178.70 8.840996
1178.80 8.920337
1178.90 9.001037
1179.00 9.063214
1179.10 9.109208
1179.20 9.178763
1179.30 9.226881
1179.40 9.174064
1179.50 9.130753
1179.60 9.092694
1179.70 9.068664
1179.80 9.04051
1179.90 9.003315
1180.00 9.021324
1180.10 9.057994
1180.20 9.089274
1180.30 9.125719
1180.40 9.156391
1180.50 9.197278
1180.60 9.224531
1180.70 9.213101
1180.80 9.21186
1180.90 9.21003
1181.00 9.204723
1181.10 9.198576
1181.20 9.189906
1181.30 9.199024
1181.40 9.214889
1181.50 9.230834
1181.60 9.231403
1181.70 9.212555
1181.80 9.183741
1181.90 9.161712
1182.00 9.152482
1182.10 9.141082
1182.20 9.115462
1182.30 9.099265
1182.40 9.101843
1182.50 9.09826
1182.60 9.001172
1182.70 8.883059
1182.80 8.779895
1182.90 8.690855
1183.00 8.610354
1183.10 8.497687
1183.20 8.493629
1183.30 8.608351
1183.40 8.709521
1183.50 8.815829
1183.60 8.867313
1183.70 8.940362
1183.80 9.000213
1183.90 9.049444
1184.00 9.087843
1184.10 9.09764
1184.20 9.13838
1184.30 9.191258
1184.40 9.260706
1184.50 9.287926
1184.60 9.245118
1184.70 9.231928
1184.80 9.208231
1184.90 9.149113
1185.00 9.084465
1185.10 9.018333
1185.20 9.038076
1185.30 9.066872
1185.40 9.078547
1185.50 9.102547
1185.60 9.124647
1185.70 9.157905
1185.80 9.176856
1185.90 9.176268
1186.00 9.175923
1186.10 9.176
1186.20 9.184692
1186.30 9.192715
1186.40 9.201658
1186.50 9.182964
1186.60 9.167364
1186.70 9.162505
1186.80 9.146393
1186.90 9.128365
1187.00 9.101018
1187.10 9.096679
1187.20 9.114548
1187.30 9.119924
1187.40 9.12209
1187.50 9.117919
1187.60 9.120268
1187.70 9.120571
1187.80 9.080177
1187.90 9.058478
1188.00 9.049022
1188.10 8.87764
1188.20 8.660949
1188.30 8.488726
1188.40 8.315635
1188.50 8.161125
1188.60 7.916889
1188.70 7.833039
1188.80 8.084156
1188.90 8.273484
1189.00 8.420413
1189.10 8.536979
1189.20 8.682961
1189.30 8.870702
1189.40 8.917915
1189.50 8.9242
1189.60 8.935109
1189.70 8.977214
1189.80 9.047694
1189.90 9.117356
1190.00 9.162513
1190.10 9.147068
1190.20 9.147418
1190.30 9.149161
1190.40 9.124801
1190.50 9.103145
1190.60 9.085282
1190.70 9.083594
1190.80 9.083907
1190.90 9.05508
1191.00 9.049209
1191.10 9.052976
1191.20 9.062612
1191.30 9.072093
1191.40 9.080019
1191.50 9.094055
1191.60 9.113363
1191.70 9.125602
1191.80 9.138927
1191.90 9.148712
1192.00 9.160243
1192.10 9.168317
1192.20 9.182241
1192.30 9.175795
1192.40 9.15985
1192.50 9.14814
1192.60 9.146179
1192.70 9.156619
1192.80 9.152983
1192.90 9.14712
1193.00 9.154664
1193.10 9.162506
1193.20 9.166006
1193.30 9.136029
1193.40 9.104826
1193.50 9.09517
1193.60 9.060229
1193.70 9.019503
1193.80 8.988177
1193.90 8.972433
1194.00 8.982565
1194.10 8.972819
1194.20 8.966064
1194.30 8.971872
1194.40 8.976181
1194.50 8.972684
1194.60 8.958962
1194.70 8.959882
1194.80 8.973085
1194.90 8.933081
1195.00 8.868806
1195.10 8.779168
1195.20 8.760653
1195.30 8.803156
1195.40 8.810721
1195.50 8.827781
1195.60 8.848026
1195.70 8.893551
1195.80 8.945042
1195.90 8.928864
1196.00 8.926423
1196.10 8.931405
1196.20 8.931933
1196.30 8.928869
1196.40 8.91192
1196.50 8.905085
1196.60 8.906096
1196.70 8.899054
1196.80 8.876532
1196.90 8.834008
1197.00 8.835266
1197.10 8.812636
1197.20 8.598989
1197.30 8.408531
1197.40 8.238597
1197.50 8.143426
1197.60 8.055907
1197.70 7.888609
1197.80 7.939397
1197.90 8.1252
1198.00 8.288272
1198.10 8.416291
1198.20 8.505263
1198.30 8.616119
1198.40 8.706621
1198.50 8.739066
1198.60 8.772617
1198.70 8.809823
1198.80 8.771221
1198.90 8.738609
1199.00 8.753576
1199.10 8.752359
1199.20 8.748489
1199.30 8.728629
1199.40 8.732775
1199.50 8.761729
1199.60 8.768665
1199.70 8.764612
1199.80 8.773742
1199.90 8.784093
1200.00 8.791999
