# Version 2.1 - nm, norm@500 to 1, cut digits
# Wavelength(nm)  Flambda(ergs/cm^s/s/nm)
300.00 0.01004756
300.10 0.01335354
300.20 0.01536769
300.30 0.01620161
300.40 0.016421
300.50 0.01648585
300.60 0.0165502
300.70 0.01661484
300.80 0.01668255
300.90 0.01675847
301.00 0.01684824
301.10 0.01695433
301.20 0.0170743
301.30 0.0172026
301.40 0.01733419
301.50 0.01746644
301.60 0.0175987
301.70 0.01773096
301.80 0.01786323
301.90 0.01799549
302.00 0.01812776
302.10 0.01826002
302.20 0.01839228
302.30 0.01852455
302.40 0.01865681
302.50 0.01878908
302.60 0.01892135
302.70 0.01905413
302.80 0.0191894
302.90 0.019331
303.00 0.01948313
303.10 0.01964766
303.20 0.01982273
303.30 0.02000412
303.40 0.02018801
303.50 0.0203724
303.60 0.02055679
303.70 0.02074119
303.80 0.02092559
303.90 0.02110999
304.00 0.02129439
304.10 0.02147879
304.20 0.02166319
304.30 0.02184759
304.40 0.02203198
304.50 0.02221637
304.60 0.02240074
304.70 0.02258358
304.80 0.02275878
304.90 0.02291463
305.00 0.02303826
305.10 0.02312397
305.20 0.02317745
305.30 0.0232116
305.40 0.0232381
305.50 0.02326307
305.60 0.02328802
305.70 0.02331297
305.80 0.02333791
305.90 0.02336285
306.00 0.02338779
306.10 0.02341273
306.20 0.02343767
306.30 0.02346261
306.40 0.02348755
306.50 0.02351249
306.60 0.02353743
306.70 0.02356237
306.80 0.02358733
306.90 0.02361233
307.00 0.0236374
307.10 0.02366256
307.20 0.02368778
307.30 0.02371305
307.40 0.02373833
307.50 0.02376362
307.60 0.0237889
307.70 0.02381419
307.80 0.02383947
307.90 0.02386476
308.00 0.02389005
308.10 0.02391533
308.20 0.02394062
308.30 0.02396591
308.40 0.02399121
308.50 0.02401653
308.60 0.02404188
308.70 0.02407109
308.80 0.0241194
308.90 0.02421614
309.00 0.0243935
309.10 0.0246658
309.20 0.02501872
309.30 0.02542007
309.40 0.02584052
309.50 0.02626483
309.60 0.02668917
309.70 0.02711353
309.80 0.0275379
309.90 0.02796228
310.00 0.02838665
310.10 0.02881102
310.20 0.0292354
310.30 0.02965977
310.40 0.03008413
310.50 0.03050847
310.60 0.03093278
310.70 0.03135321
310.80 0.03175444
310.90 0.03210698
311.00 0.03237848
311.10 0.03255454
311.20 0.03264955
311.30 0.03269589
311.40 0.03272301
311.50 0.03274626
311.60 0.03276948
311.70 0.03279267
311.80 0.03281586
311.90 0.03283905
312.00 0.03286223
312.10 0.03288541
312.20 0.0329086
312.30 0.03293179
312.40 0.03295499
312.50 0.03297821
312.60 0.03300148
312.70 0.03302953
312.80 0.0330813
312.90 0.0331932
313.00 0.0334052
313.10 0.03373506
313.20 0.03416502
313.30 0.03465511
313.40 0.03516891
313.50 0.03568751
313.60 0.03620615
313.70 0.03672481
313.80 0.03724348
313.90 0.03776215
314.00 0.03828083
314.10 0.03879951
314.20 0.03931818
314.30 0.03983686
314.40 0.04035555
314.50 0.04087426
314.60 0.04139299
314.70 0.04191505
314.80 0.04245363
314.90 0.04303406
315.00 0.04368417
315.10 0.04441632
315.20 0.04521816
315.30 0.04606184
315.40 0.04692204
315.50 0.04778557
315.60 0.04864913
315.70 0.04951271
315.80 0.05037629
315.90 0.05123988
316.00 0.05210346
316.10 0.05296705
316.20 0.05383063
316.30 0.05469421
316.40 0.05555775
316.50 0.05642123
316.60 0.05728462
316.70 0.05813574
316.80 0.05892617
316.90 0.05956277
317.00 0.05994322
317.10 0.06002211
317.20 0.05984486
317.30 0.05951377
317.40 0.05912199
317.50 0.05871795
317.60 0.05831381
317.70 0.05790961
317.80 0.05750538
317.90 0.05710114
318.00 0.05669689
318.10 0.05629265
318.20 0.05588841
318.30 0.05548417
318.40 0.05507996
318.50 0.0546758
318.60 0.05427171
318.70 0.05387701
318.80 0.05352876
318.90 0.05329828
319.00 0.05326387
319.10 0.0534603
319.20 0.05385281
319.30 0.05436308
319.40 0.0549198
319.50 0.05548592
319.60 0.0560521
319.70 0.05661834
319.80 0.05718459
319.90 0.05775086
320.00 0.05831713
320.10 0.05888339
320.20 0.05944966
320.30 0.06001592
320.40 0.06058218
320.50 0.06114841
320.60 0.06171462
320.70 0.06227736
320.80 0.06282292
320.90 0.06332492
321.00 0.0637544
321.10 0.06409851
321.20 0.0643701
321.30 0.06459813
321.40 0.06480898
321.50 0.06501636
321.60 0.06522372
321.70 0.06543105
321.80 0.06563838
321.90 0.0658457
322.00 0.06605303
322.10 0.06626035
322.20 0.06646768
322.30 0.06667501
322.40 0.06688238
322.50 0.06708981
322.60 0.06729734
322.70 0.06751756
322.80 0.06780053
322.90 0.06824259
323.00 0.06894953
323.10 0.06996834
323.20 0.07125202
323.30 0.07269479
323.40 0.07420032
323.50 0.07571853
323.60 0.07723685
323.70 0.07875523
323.80 0.08027363
323.90 0.08179205
324.00 0.08331047
324.10 0.0848289
324.20 0.08634732
324.30 0.08786574
324.40 0.08938415
324.50 0.09090255
324.60 0.09242094
324.70 0.09393727
324.80 0.0954434
324.90 0.09692369
325.00 0.09836096
325.10 0.09974756
325.20 0.1010911
325.30 0.1024089
325.40 0.1037164
325.50 0.1050219
325.60 0.1063274
325.70 0.1076328
325.80 0.1089383
325.90 0.1102437
326.00 0.1115491
326.10 0.1128546
326.20 0.11416
326.30 0.1154655
326.40 0.116771
326.50 0.1180764
326.60 0.119382
326.70 0.1206919
326.80 0.1220238
326.90 0.1234115
327.00 0.1248918
327.10 0.1264814
327.20 0.1281637
327.30 0.1299017
327.40 0.1316616
327.50 0.133426
327.60 0.1351905
327.70 0.1369549
327.80 0.1387194
327.90 0.1404839
328.00 0.1422484
328.10 0.1440128
328.20 0.1457773
328.30 0.1475418
328.40 0.1493061
328.50 0.1510704
328.60 0.1528345
328.70 0.1545725
328.80 0.1561815
328.90 0.1574638
329.00 0.1582019
329.10 0.1582994
329.20 0.1578528
329.30 0.1570794
329.40 0.1561771
329.50 0.1552487
329.60 0.1543201
329.70 0.1533913
329.80 0.1524625
329.90 0.1515337
330.00 0.1506049
330.10 0.1496761
330.20 0.1487472
330.30 0.1478184
330.40 0.1468897
330.50 0.145961
330.60 0.1450325
330.70 0.1441233
330.80 0.1433098
330.90 0.1427386
331.00 0.1425712
331.10 0.1428789
331.20 0.1435903
331.30 0.1445441
331.40 0.1455935
331.50 0.1466623
331.60 0.1477312
331.70 0.1488002
331.80 0.1498693
331.90 0.1509384
332.00 0.1520075
332.10 0.1530766
332.20 0.1541456
332.30 0.1552147
332.40 0.1562838
332.50 0.1573527
332.60 0.1584216
332.70 0.1594783
332.80 0.1604744
332.90 0.161317
333.00 0.161904
333.10 0.1621902
333.20 0.1622208
333.30 0.1620979
333.40 0.1619145
333.50 0.1617188
333.60 0.161523
333.70 0.1613272
333.80 0.1611313
333.90 0.1609354
334.00 0.1607395
334.10 0.1605437
334.20 0.1603479
334.30 0.1601523
334.40 0.1599568
334.50 0.1597615
334.60 0.1597289
334.70 0.1602274
334.80 0.1613991
334.90 0.1625902
335.00 0.1625557
335.10 0.1609564
335.20 0.1597529
335.30 0.1626093
335.40 0.1720717
335.50 0.1866921
335.60 0.2008743
335.70 0.208128
335.80 0.2052552
335.90 0.1939333
336.00 0.1789261
336.10 0.1651388
336.20 0.155993
336.30 0.1529235
336.40 0.1547701
336.50 0.1579212
336.60 0.1584781
336.70 0.1554902
336.80 0.1521647
336.90 0.1533508
337.00 0.1613852
337.10 0.1738126
337.20 0.1847906
337.30 0.1891042
337.40 0.1858268
337.50 0.1788979
337.60 0.174111
337.70 0.1748156
337.80 0.1799507
337.90 0.1859892
338.00 0.1902344
338.10 0.1919439
338.20 0.1907266
338.30 0.1853015
338.40 0.1752332
338.50 0.1634967
338.60 0.156016
338.70 0.1574076
338.80 0.1666733
338.90 0.1775183
339.00 0.1834098
339.10 0.1829261
339.20 0.1806325
339.30 0.182591
339.40 0.1907776
339.50 0.2018014
339.60 0.210571
339.70 0.2145716
339.80 0.2145079
339.90 0.2117829
340.00 0.2069554
340.10 0.2006029
340.20 0.1940602
340.30 0.1883412
340.40 0.1827644
340.50 0.1756679
340.60 0.1666521
340.70 0.157506
340.80 0.1507906
340.90 0.1479627
341.00 0.1489251
341.10 0.1527882
341.20 0.158527
341.30 0.1649369
341.40 0.1705988
341.50 0.1744277
341.60 0.1763159
341.70 0.1771808
341.80 0.1782666
341.90 0.1802254
342.00 0.1825384
342.10 0.1836178
342.20 0.181773
342.30 0.1766322
342.40 0.1699084
342.50 0.1645317
342.60 0.1626812
342.70 0.1644261
342.80 0.1680099
342.90 0.1712368
343.00 0.172823
343.10 0.1729727
343.20 0.1729005
343.30 0.1736502
343.40 0.1751848
343.50 0.1766019
343.60 0.1770885
343.70 0.1764215
343.80 0.1747742
343.90 0.172554
344.00 0.1705059
344.10 0.1694913
344.20 0.1697352
344.30 0.1704466
344.40 0.1705131
344.50 0.1695656
344.60 0.1682783
344.70 0.1677777
344.80 0.1689249
344.90 0.1720239
345.00 0.1769133
345.10 0.1830881
345.20 0.1897259
345.30 0.1956882
345.40 0.1997031
345.50 0.2009778
345.60 0.1998601
345.70 0.1977809
345.80 0.1962755
345.90 0.1959103
346.00 0.1960293
346.10 0.1953285
346.20 0.1927661
346.30 0.1883826
346.40 0.1835642
346.50 0.1802366
346.60 0.1793342
346.70 0.1799878
346.80 0.180333
346.90 0.1790282
347.00 0.1759456
347.10 0.1719152
347.20 0.1683135
347.30 0.1666755
347.40 0.1679774
347.50 0.1718669
347.60 0.1768281
347.70 0.1813458
347.80 0.1849195
347.90 0.1880478
348.00 0.191441
348.10 0.195226
348.20 0.1986902
348.30 0.2007525
348.40 0.2008391
348.50 0.1993863
348.60 0.1973906
348.70 0.1955002
348.80 0.1937104
348.90 0.1918125
349.00 0.1898175
349.10 0.1879027
349.20 0.1862267
349.30 0.1850176
349.40 0.184684
349.50 0.1854866
349.60 0.187028
349.70 0.1883124
349.80 0.1886275
349.90 0.1885455
350.00 0.1898551
350.10 0.1941523
350.20 0.2013101
350.30 0.209318
350.40 0.2156535
350.50 0.2188764
350.60 0.2191028
350.70 0.2173312
350.80 0.2145931
350.90 0.2114657
351.00 0.2078473
351.10 0.2030052
351.20 0.1961487
351.30 0.1874472
351.40 0.178586
351.50 0.1719569
351.60 0.1689636
351.70 0.1690321
351.80 0.1702781
351.90 0.171077
352.00 0.1709717
352.10 0.1702917
352.20 0.16942
352.30 0.1686891
352.40 0.1688123
352.50 0.1710962
352.60 0.1767237
352.70 0.1855299
352.80 0.195535
352.90 0.2040495
353.00 0.2096535
353.10 0.2131043
353.20 0.2161742
353.30 0.219846
353.40 0.22388
353.50 0.227795
353.60 0.231689
353.70 0.2359331
353.80 0.2405209
353.90 0.2450448
354.00 0.2489716
354.10 0.2516088
354.20 0.2521215
354.30 0.2501762
354.40 0.2466628
354.50 0.2433925
354.60 0.2417445
354.70 0.2416492
354.80 0.2419704
354.90 0.2416976
355.00 0.240642
355.10 0.2392094
355.20 0.2378322
355.30 0.23671
355.40 0.2359396
355.50 0.2355627
355.60 0.2353426
355.70 0.2346166
355.80 0.2326048
355.90 0.2290581
356.00 0.2245548
356.10 0.22003
356.20 0.2159744
356.30 0.2120427
356.40 0.2074321
356.50 0.2017557
356.60 0.1956776
356.70 0.1906755
356.80 0.1880108
356.90 0.1877966
357.00 0.1890079
357.10 0.1902732
357.20 0.1905923
357.30 0.1895387
357.40 0.1871348
357.50 0.1837175
357.60 0.1798398
357.70 0.1760773
357.80 0.1727943
357.90 0.1700619
358.00 0.1678598
358.10 0.1664289
358.20 0.1663645
358.30 0.1682262
358.40 0.1719759
358.50 0.1767759
358.60 0.1813129
358.70 0.1843602
358.80 0.1852887
358.90 0.1843708
359.00 0.1827998
359.10 0.1822421
359.20 0.18392
359.30 0.1877593
359.40 0.1922912
359.50 0.1955721
359.60 0.1965007
359.70 0.1955019
359.80 0.1940449
359.90 0.1934014
360.00 0.1936354
360.10 0.1936058
360.20 0.1919405
360.30 0.1881389
360.40 0.182993
360.50 0.178192
360.60 0.1755395
360.70 0.1762355
360.80 0.1803359
360.90 0.1866259
361.00 0.1932168
361.10 0.1986211
361.20 0.2024564
361.30 0.2051539
361.40 0.2070872
361.50 0.2081754
361.60 0.2083985
361.70 0.2083571
361.80 0.2089455
361.90 0.2104444
362.00 0.2121854
362.10 0.2132517
362.20 0.2133207
362.30 0.2127564
362.40 0.2121687
362.50 0.2120671
362.60 0.212621
362.70 0.2133676
362.80 0.2132945
362.90 0.2116447
363.00 0.2087991
363.10 0.2061634
363.20 0.2050354
363.30 0.2056381
363.40 0.2072134
363.50 0.2088164
363.60 0.2099231
363.70 0.2104811
363.80 0.2105967
363.90 0.2102258
364.00 0.2090982
364.10 0.2069052
364.20 0.2036122
364.30 0.199633
364.40 0.1957421
364.50 0.1928233
364.60 0.1915277
364.70 0.1919107
364.80 0.1933534
364.90 0.1950306
365.00 0.1966645
365.10 0.1988051
365.20 0.2021516
365.30 0.2065113
365.40 0.2105453
365.50 0.2126955
365.60 0.2124695
365.70 0.2108136
365.80 0.2092005
365.90 0.2084351
366.00 0.2083525
366.10 0.2084893
366.20 0.2088135
366.30 0.2096614
366.40 0.2111198
366.50 0.2126881
366.60 0.2135405
366.70 0.21306
366.80 0.2111596
366.90 0.2082358
367.00 0.2049611
367.10 0.2020997
367.20 0.2003455
367.30 0.2001445
367.40 0.2015014
367.50 0.2039406
367.60 0.2067389
367.70 0.2093007
367.80 0.211406
367.90 0.2131701
368.00 0.2147989
368.10 0.2163407
368.20 0.2175996
368.30 0.2182308
368.40 0.2179645
368.50 0.2168598
368.60 0.21541
368.70 0.2143384
368.80 0.2141566
368.90 0.214853
369.00 0.2160344
369.10 0.2173891
369.20 0.2189008
369.30 0.2205544
369.40 0.2219628
369.50 0.2224629
369.60 0.22169
369.70 0.2200254
369.80 0.2184635
369.90 0.2180484
370.00 0.2193319
370.10 0.2221573
370.20 0.2258368
370.30 0.2295211
370.40 0.2324928
370.50 0.2342863
370.60 0.2347404
370.70 0.2341256
370.80 0.2331608
370.90 0.2326924
371.00 0.2331447
371.10 0.2341685
371.20 0.2347727
371.30 0.2338371
371.40 0.2307379
371.50 0.2257624
371.60 0.2200661
371.70 0.2151328
371.80 0.2120969
371.90 0.2113755
372.00 0.2127034
372.10 0.2152098
372.20 0.2173586
372.30 0.2172156
372.40 0.2133433
372.50 0.2059276
372.60 0.1971181
372.70 0.1900655
372.80 0.1873166
372.90 0.1896993
373.00 0.19626
373.10 0.2049564
373.20 0.2135042
373.30 0.2199954
373.40 0.2232799
373.50 0.2230484
373.60 0.2196209
373.70 0.2136421
373.80 0.2059436
373.90 0.1976211
374.00 0.1900474
374.10 0.1846349
374.20 0.1824759
374.30 0.18415
374.40 0.1897691
374.50 0.1990179
374.60 0.2110376
374.70 0.2242627
374.80 0.2365194
374.90 0.2455773
375.00 0.249914
375.10 0.2492053
375.20 0.2442715
375.30 0.2366509
375.40 0.2281274
375.50 0.2203555
375.60 0.2144674
375.70 0.2107689
375.80 0.2087588
375.90 0.2075448
376.00 0.2064637
376.10 0.2055678
376.20 0.2057304
376.30 0.2082834
376.40 0.2143685
376.50 0.2244447
376.60 0.238277
376.70 0.2550866
376.80 0.2734443
376.90 0.2909712
377.00 0.3045341
377.10 0.3113184
377.20 0.3101154
377.30 0.301791
377.40 0.2886485
377.50 0.2733404
377.60 0.2581093
377.70 0.24457
377.80 0.2336516
377.90 0.2255481
378.00 0.2198351
378.10 0.2158367
378.20 0.2130222
378.30 0.211105
378.40 0.2098862
378.50 0.2092021
378.60 0.2090787
378.70 0.2098181
378.80 0.211869
378.90 0.2157337
379.00 0.2221202
379.10 0.2320287
379.20 0.2463369
379.30 0.2650308
379.40 0.2867303
379.50 0.3088874
379.60 0.3283743
379.70 0.3421062
379.80 0.3477394
379.90 0.3444013
380.00 0.3331369
380.10 0.3166043
380.20 0.2980619
380.30 0.2802523
380.40 0.264825
380.50 0.2523777
380.60 0.2427801
380.70 0.2354524
380.80 0.2295715
380.90 0.2244287
381.00 0.219779
381.10 0.2158308
381.20 0.2128256
381.30 0.2106416
381.40 0.2089111
381.50 0.2075404
381.60 0.2069223
381.70 0.2074398
381.80 0.2087714
381.90 0.209828
382.00 0.2095545
382.10 0.2075606
382.20 0.2042241
382.30 0.2011999
382.40 0.20338
382.50 0.2152562
382.60 0.2377943
382.70 0.269011
382.80 0.3058409
382.90 0.3440283
383.00 0.3735912
383.10 0.384428
383.20 0.3756287
383.30 0.3511714
383.40 0.3187022
383.50 0.285575
383.60 0.2554143
383.70 0.2265289
383.80 0.1934474
383.90 0.1561798
384.00 0.1268819
384.10 0.118962
384.20 0.1329683
384.30 0.1606267
384.40 0.1970161
384.50 0.2366202
384.60 0.2650104
384.70 0.266384
384.80 0.2526993
384.90 0.2522966
385.00 0.2737752
385.10 0.2940077
385.20 0.2884924
385.30 0.2608649
385.40 0.2306328
385.50 0.2070176
385.60 0.1892588
385.70 0.1806208
385.80 0.1893233
385.90 0.214168
386.00 0.239208
386.10 0.2491845
386.20 0.2418068
386.30 0.2243672
386.40 0.2051279
386.50 0.1929531
386.60 0.2015794
386.70 0.2430295
386.80 0.3124342
386.90 0.3802748
387.00 0.4089133
387.10 0.3807946
387.20 0.3137933
387.30 0.2477015
387.40 0.2108085
387.50 0.1993299
387.60 0.1898693
387.70 0.1718021
387.80 0.1588799
387.90 0.1688031
388.00 0.1997248
388.10 0.2322557
388.20 0.2541145
388.30 0.2696191
388.40 0.2851037
388.50 0.2967441
388.60 0.2973085
388.70 0.2875163
388.80 0.2738955
388.90 0.260161
389.00 0.2463567
389.10 0.2351167
389.20 0.2275957
389.30 0.2188774
389.40 0.205176
389.50 0.190253
389.60 0.1816609
389.70 0.1846387
389.80 0.1926983
389.90 0.2037663
390.00 0.2177122
390.10 0.2306183
390.20 0.2424653
390.30 0.2525838
390.40 0.2633617
390.50 0.2817023
390.60 0.3041662
390.70 0.3195778
390.80 0.3203511
390.90 0.3090929
391.00 0.2939432
391.10 0.2802151
391.20 0.2716512
391.30 0.274629
391.40 0.3033082
391.50 0.3519051
391.60 0.3948246
391.70 0.4089984
391.80 0.3920772
391.90 0.3565058
392.00 0.3126005
392.10 0.2670688
392.20 0.2307567
392.30 0.2109238
392.40 0.2066993
392.50 0.2107248
392.60 0.2225265
392.70 0.2480277
392.80 0.2794477
392.90 0.2989661
393.00 0.3015476
393.10 0.3104477
393.20 0.3559235
393.30 0.4363297
393.40 0.5125811
393.50 0.5356956
393.60 0.485818
393.70 0.3911771
393.80 0.3062692
393.90 0.2687661
394.00 0.2724921
394.10 0.2818909
394.20 0.2699515
394.30 0.2379053
394.40 0.2098065
394.50 0.2024525
394.60 0.2156041
394.70 0.2359455
394.80 0.2515764
394.90 0.2579143
395.00 0.2639411
395.10 0.2761401
395.20 0.2880713
395.30 0.2882273
395.40 0.2795249
395.50 0.2783409
395.60 0.2951292
395.70 0.3199616
395.80 0.3316261
395.90 0.322929
396.00 0.3049978
396.10 0.2922065
396.20 0.286447
396.30 0.2823026
396.40 0.2823044
396.50 0.2945195
396.60 0.3251539
396.70 0.3717813
396.80 0.4213117
396.90 0.4570756
397.00 0.4657282
397.10 0.4459378
397.20 0.4127174
397.30 0.386778
397.40 0.3790128
397.50 0.3862942
397.60 0.3964728
397.70 0.3970071
397.80 0.3837734
397.90 0.3634919
398.00 0.3481482
398.10 0.3452893
398.20 0.3556345
398.30 0.3793709
398.40 0.4165821
398.50 0.4594081
398.60 0.4909631
398.70 0.4975251
398.80 0.476734
398.90 0.4409934
399.00 0.4049591
399.10 0.3818163
399.20 0.3787461
399.30 0.3928679
399.40 0.412888
399.50 0.4252535
399.60 0.4193058
399.70 0.3955383
399.80 0.3701763
399.90 0.362954
400.00 0.3782234
400.10 0.4013534
400.20 0.416615
400.30 0.4239129
400.40 0.4318696
400.50 0.4403108
400.60 0.4392571
400.70 0.4241093
400.80 0.4035083
400.90 0.3949889
401.00 0.4099459
401.10 0.4386576
401.20 0.4593567
401.30 0.4585097
401.40 0.4466601
401.50 0.4431127
401.60 0.4510614
401.70 0.4565601
401.80 0.4522953
401.90 0.4425931
402.00 0.4317865
402.10 0.4142231
402.20 0.3872898
402.30 0.3657218
402.40 0.3689853
402.50 0.395598
402.60 0.4201078
402.70 0.4197701
402.80 0.3971422
402.90 0.3715321
403.00 0.3554135
403.10 0.3438695
403.20 0.3246636
403.30 0.2949908
403.40 0.2665375
403.50 0.2567147
403.60 0.2755309
403.70 0.3193908
403.80 0.3758233
403.90 0.4298826
404.00 0.4693419
404.10 0.4867743
404.20 0.477372
404.30 0.4415212
404.40 0.389778
404.50 0.3417943
404.60 0.3161718
404.70 0.318422
404.80 0.3418698
404.90 0.3762748
405.00 0.4109538
405.10 0.4352254
405.20 0.4415029
405.30 0.4300068
405.40 0.408793
405.50 0.3876196
405.60 0.3713607
405.70 0.3599063
405.80 0.3523928
405.90 0.3526116
406.00 0.3665249
406.10 0.3930152
406.20 0.422944
406.30 0.4471429
406.40 0.4624673
406.50 0.4702243
406.60 0.4722658
406.70 0.4729144
406.80 0.4782267
406.90 0.4867377
407.00 0.4874822
407.10 0.4731993
407.20 0.4516161
407.30 0.4412681
407.40 0.4475735
407.50 0.4510289
407.60 0.4305942
407.70 0.385543
407.80 0.3384907
407.90 0.3152233
408.00 0.3226297
408.10 0.3472738
408.20 0.3718836
408.30 0.3885194
408.40 0.3978031
408.50 0.4008863
408.60 0.3977158
408.70 0.3903125
408.80 0.380672
408.90 0.366761
409.00 0.3471208
409.10 0.3302326
409.20 0.3303516
409.30 0.3515441
409.40 0.3827495
409.50 0.4075202
409.60 0.4165095
409.70 0.4114421
409.80 0.4025804
409.90 0.4035558
410.00 0.4206373
410.10 0.4453712
410.20 0.4624775
410.30 0.4643689
410.40 0.4543701
410.50 0.4381145
410.60 0.4184658
410.70 0.3987871
410.80 0.3910044
410.90 0.3986861
411.00 0.4118182
411.10 0.413437
411.20 0.3971209
411.30 0.3738606
411.40 0.3608155
411.50 0.3661139
411.60 0.3825924
411.70 0.4019853
411.80 0.422757
411.90 0.4428477
412.00 0.4558357
412.10 0.4533213
412.20 0.4323122
412.30 0.4022982
412.40 0.3808826
412.50 0.3804392
412.60 0.3997314
412.70 0.4250057
412.80 0.4406631
412.90 0.4388994
413.00 0.4213544
413.10 0.3958532
413.20 0.371854
413.30 0.3568868
413.40 0.3551425
413.50 0.3657413
413.60 0.3824297
413.70 0.3980393
413.80 0.4082393
413.90 0.4115512
414.00 0.407052
414.10 0.3952855
414.20 0.379862
414.30 0.3704197
414.40 0.3699713
414.50 0.3740175
414.60 0.3779629
414.70 0.3831119
414.80 0.3921251
414.90 0.4073135
415.00 0.4247866
415.10 0.4337048
415.20 0.4272281
415.30 0.4113118
415.40 0.4004179
415.50 0.4058336
415.60 0.4219089
415.70 0.4304986
415.80 0.4201951
415.90 0.3968582
416.00 0.3748008
416.10 0.3646249
416.20 0.3689696
416.30 0.3877005
416.40 0.4181726
416.50 0.4514958
416.60 0.4731462
416.70 0.4771249
416.80 0.4665836
416.90 0.4503036
417.00 0.4335453
417.10 0.4156122
417.20 0.3979216
417.30 0.3835277
417.40 0.3776222
417.50 0.3812939
417.60 0.3896005
417.70 0.3973568
417.80 0.4045232
417.90 0.4129516
418.00 0.423138
418.10 0.4279871
418.20 0.4238422
418.30 0.4165317
418.40 0.4143119
418.50 0.4168935
418.60 0.4143145
418.70 0.4035621
418.80 0.3884892
418.90 0.3750165
419.00 0.3643113
419.10 0.3560622
419.20 0.3543401
419.30 0.3647488
419.40 0.3860718
419.50 0.4089809
419.60 0.4226838
419.70 0.4222664
419.80 0.410904
419.90 0.3959752
420.00 0.3849058
420.10 0.3812678
420.20 0.3836894
420.30 0.3884291
420.40 0.3950353
420.50 0.4048025
420.60 0.4149164
420.70 0.4197541
420.80 0.4175616
420.90 0.4163914
421.00 0.4220158
421.10 0.4302239
421.20 0.4323861
421.30 0.4258923
421.40 0.413539
421.50 0.3947915
421.60 0.3667265
421.70 0.3325194
421.80 0.3015643
421.90 0.2798117
422.00 0.265204
422.10 0.2510463
422.20 0.2302906
422.30 0.1991364
422.40 0.1617394
422.50 0.1299867
422.60 0.1138772
422.70 0.1113481
422.80 0.1181121
422.90 0.1314175
423.00 0.1526102
423.10 0.1815278
423.20 0.2144133
423.30 0.2466451
423.40 0.2761448
423.50 0.3026589
423.60 0.3271611
423.70 0.3497465
423.80 0.3637959
423.90 0.3622311
424.00 0.3468638
424.10 0.3280975
424.20 0.314448
424.30 0.3065398
424.40 0.3008006
424.50 0.2974007
424.60 0.2965194
424.70 0.29212
424.80 0.2769254
424.90 0.2563795
425.00 0.2454491
425.10 0.2538898
425.20 0.275337
425.30 0.2920672
425.40 0.2927546
425.50 0.2834218
425.60 0.2808439
425.70 0.2955806
425.80 0.3225653
425.90 0.3490429
426.00 0.3672775
426.10 0.37689
426.20 0.3793074
426.30 0.3763203
426.40 0.3719382
426.50 0.37091
426.60 0.373541
426.70 0.3746653
426.80 0.3704111
426.90 0.3622514
427.00 0.3555351
427.10 0.3559538
427.20 0.3594453
427.30 0.3568889
427.40 0.3416672
427.50 0.3161539
427.60 0.2927451
427.70 0.2868938
427.80 0.3048951
427.90 0.3397924
428.00 0.375507
428.10 0.3981865
428.20 0.4039473
428.30 0.3971072
428.40 0.384441
428.50 0.3704935
428.60 0.3567297
428.70 0.3424714
428.80 0.3272979
428.90 0.3132456
429.00 0.3059102
429.10 0.3113776
429.20 0.3323972
429.30 0.3609754
429.40 0.3831652
429.50 0.3922384
429.60 0.392819
429.70 0.3918307
429.80 0.3897639
429.90 0.3829422
430.00 0.3699252
430.10 0.3533966
430.20 0.3388303
430.30 0.3344427
430.40 0.3468668
430.50 0.3709952
430.60 0.3890484
430.70 0.3867982
430.80 0.3699479
430.90 0.3596563
431.00 0.3705431
431.10 0.3953941
431.20 0.4140363
431.30 0.4142216
431.40 0.4020176
431.50 0.393476
431.60 0.3985359
431.70 0.4159691
431.80 0.4388148
431.90 0.4600803
432.00 0.4749871
432.10 0.4809727
432.20 0.4784071
432.30 0.4663252
432.40 0.4415226
432.50 0.402856
432.60 0.3593758
432.70 0.329565
432.80 0.3291976
432.90 0.3580144
433.00 0.3989833
433.10 0.431719
433.20 0.4464068
433.30 0.4486011
433.40 0.4510127
433.50 0.4618251
433.60 0.4840175
433.70 0.5207045
433.80 0.5735167
433.90 0.639576
434.00 0.7008715
434.10 0.7316024
434.20 0.7155862
434.30 0.6604914
434.40 0.5936087
434.50 0.5425468
434.60 0.5194107
434.70 0.5196941
434.80 0.5302909
434.90 0.5365289
435.00 0.5265567
435.10 0.4971758
435.20 0.4555923
435.30 0.4145779
435.40 0.3883759
435.50 0.3882794
435.60 0.4148213
435.70 0.4536951
435.80 0.483702
435.90 0.4927178
436.00 0.4846937
436.10 0.4727733
436.20 0.4674237
436.30 0.4739535
436.40 0.484955
436.50 0.4892516
436.60 0.4846858
436.70 0.4792636
436.80 0.4825298
436.90 0.4948618
437.00 0.508496
437.10 0.5148981
437.20 0.5096728
437.30 0.4933562
437.40 0.4728457
437.50 0.4604123
437.60 0.4651606
437.70 0.4831226
437.80 0.4988167
437.90 0.4996822
438.00 0.4869281
438.10 0.4712092
438.20 0.4582298
438.30 0.4448175
438.40 0.4281551
438.50 0.4145149
438.60 0.4134797
438.70 0.4250403
438.80 0.4395347
438.90 0.4497844
439.00 0.4580767
439.10 0.4708901
439.20 0.4896447
439.30 0.5095225
439.40 0.5258852
439.50 0.5380372
439.60 0.5471312
439.70 0.5534206
439.80 0.5551031
439.90 0.5496336
440.00 0.5393893
440.10 0.530236
440.20 0.5267088
440.30 0.5280916
440.40 0.5276908
440.50 0.5212876
440.60 0.5074959
440.70 0.4921239
440.80 0.4887816
440.90 0.5087102
441.00 0.5510919
441.10 0.5955089
441.20 0.6175838
441.30 0.6099006
441.40 0.5875383
441.50 0.5731269
441.60 0.5778524
441.70 0.5953105
441.80 0.6103622
441.90 0.6131034
442.00 0.6053811
442.10 0.5952058
442.20 0.5853856
442.30 0.5702415
442.40 0.5447981
442.50 0.5149826
442.60 0.4966865
442.70 0.5028789
442.80 0.530984
442.90 0.5646591
443.00 0.587944
443.10 0.5972048
443.20 0.5986814
443.30 0.5970995
443.40 0.5926278
443.50 0.5884016
443.60 0.5939213
443.70 0.6155116
443.80 0.6446441
443.90 0.6679627
444.00 0.6779599
444.10 0.6779938
444.20 0.6743474
444.30 0.6693641
444.40 0.6637554
444.50 0.6619306
444.60 0.6689021
444.70 0.6820044
444.80 0.6920361
444.90 0.6940229
445.00 0.6922787
445.10 0.6914182
445.20 0.686218
445.30 0.6661945
445.40 0.6292376
445.50 0.5865413
445.60 0.5548868
445.70 0.5452176
445.80 0.5577352
445.90 0.5829965
446.00 0.6091367
446.10 0.6295985
446.20 0.644736
446.30 0.6570594
446.40 0.6678125
446.50 0.6779306
446.60 0.6890187
446.70 0.7014913
446.80 0.7134068
446.90 0.7229401
447.00 0.7307032
447.10 0.7388176
447.20 0.7486161
447.30 0.7593561
447.40 0.7684002
447.50 0.7736991
447.60 0.7766436
447.70 0.781578
447.80 0.7909564
447.90 0.8004408
448.00 0.8006639
448.10 0.7905392
448.20 0.777009
448.30 0.7709584
448.40 0.7807371
448.50 0.8033457
448.60 0.8285132
448.70 0.8455966
448.80 0.8483869
448.90 0.8372307
449.00 0.8188914
449.10 0.802126
449.20 0.7913425
449.30 0.7840848
449.40 0.7754741
449.50 0.7650687
449.60 0.7580456
449.70 0.7597916
449.80 0.770959
449.90 0.7882675
450.00 0.8077688
450.10 0.8264275
450.20 0.8413055
450.30 0.8488375
450.40 0.8464302
450.50 0.8343226
450.60 0.8152126
450.70 0.792589
450.80 0.7700466
450.90 0.7519107
451.00 0.7428504
451.10 0.7445397
451.20 0.7524781
451.30 0.7588545
451.40 0.7594718
451.50 0.7566218
451.60 0.7557454
451.70 0.7600928
451.80 0.7695307
451.90 0.7823535
452.00 0.7961312
452.10 0.8090394
452.20 0.8220243
452.30 0.83769
452.40 0.854356
452.50 0.8634766
452.60 0.8577997
452.70 0.8421697
452.80 0.8308328
452.90 0.8329367
453.00 0.8442158
453.10 0.8534801
453.20 0.853634
453.30 0.8440536
453.40 0.8274499
453.50 0.8104541
453.60 0.8047046
453.70 0.820801
453.80 0.8583238
453.90 0.9040008
454.00 0.9420837
454.10 0.9645656
454.20 0.9709984
454.30 0.9620113
454.40 0.9374812
454.50 0.9012511
454.60 0.8636907
454.70 0.8365702
454.80 0.8262877
454.90 0.8321756
455.00 0.8482246
455.10 0.8654266
455.20 0.8753235
455.30 0.8756176
455.40 0.8728373
455.50 0.876809
455.60 0.8921589
455.70 0.9171646
455.80 0.9480209
455.90 0.9801222
456.00 1.006634
456.10 1.021338
456.20 1.024789
456.30 1.02465
456.40 1.028189
456.50 1.036482
456.60 1.046639
456.70 1.055633
456.80 1.061049
456.90 1.061179
457.00 1.057681
457.10 1.056279
457.20 1.061106
457.30 1.06988
457.40 1.076055
457.50 1.074695
457.60 1.065104
457.70 1.048977
457.80 1.028914
457.90 1.009461
458.00 0.9962074
458.10 0.9913381
458.20 0.9905658
458.30 0.9835741
458.40 0.9599409
458.50 0.9188945
458.60 0.873023
458.70 0.8405033
458.80 0.8321583
458.90 0.8451163
459.00 0.8672673
459.10 0.8864479
459.20 0.8967012
459.30 0.9004655
459.40 0.9060819
459.50 0.9201273
459.60 0.9426851
459.70 0.9692691
459.80 0.9938145
459.90 1.009806
460.00 1.01265
460.10 1.004347
460.20 0.9940055
460.30 0.9890164
460.40 0.9847874
460.50 0.9682409
460.60 0.9343306
460.70 0.8977132
460.80 0.8848711
460.90 0.9113726
461.00 0.9673661
461.10 1.027161
461.20 1.071297
461.30 1.097542
461.40 1.113393
461.50 1.12345
461.60 1.127553
461.70 1.127636
461.80 1.129036
461.90 1.135236
462.00 1.146067
462.10 1.160453
462.20 1.175824
462.30 1.183152
462.40 1.168899
462.50 1.126401
462.60 1.063442
462.70 0.9965695
462.80 0.9408886
462.90 0.9061163
463.00 0.8960817
463.10 0.9064019
463.20 0.924507
463.30 0.9382209
463.40 0.9447131
463.50 0.9485946
463.60 0.9512113
463.70 0.9470739
463.80 0.9340862
463.90 0.9215529
464.00 0.922773
464.10 0.9411069
464.20 0.967663
464.30 0.9914327
464.40 1.007657
464.50 1.016268
464.60 1.017774
464.70 1.012632
464.80 1.001402
464.90 0.985633
465.00 0.9701545
465.10 0.9640301
465.20 0.9754164
465.30 1.002401
465.40 1.031515
465.50 1.048684
465.60 1.051086
465.70 1.049009
465.80 1.056961
465.90 1.081782
466.00 1.118062
466.10 1.153005
466.20 1.175867
466.30 1.184107
466.40 1.179942
466.50 1.16355
466.60 1.132676
466.70 1.087072
466.80 1.031968
466.90 0.9765772
467.00 0.9288681
467.10 0.8915548
467.20 0.8619868
467.30 0.8376713
467.40 0.8226637
467.50 0.8251797
467.60 0.8475947
467.70 0.8815297
467.80 0.9144736
467.90 0.9394292
468.00 0.9561681
468.10 0.9652613
468.20 0.9653636
468.30 0.9564939
468.40 0.9439789
468.50 0.937712
468.60 0.9457193
468.70 0.9676522
468.80 0.9945469
468.90 1.016093
469.00 1.029053
469.10 1.037836
469.20 1.046826
469.30 1.054675
469.40 1.057493
469.50 1.05488
469.60 1.050746
469.70 1.049252
469.80 1.053146
469.90 1.065485
470.00 1.086798
470.10 1.110319
470.20 1.126083
470.30 1.130848
470.40 1.13013
470.50 1.129385
470.60 1.126924
470.70 1.11911
470.80 1.107687
470.90 1.097544
471.00 1.090915
471.10 1.086063
471.20 1.079119
471.30 1.065279
471.40 1.040275
471.50 1.005418
471.60 0.9714592
471.70 0.9526351
471.80 0.9556822
471.90 0.9749338
472.00 0.9978191
472.10 1.014279
472.20 1.021871
472.30 1.025559
472.40 1.033679
472.50 1.051239
472.60 1.074853
472.70 1.094129
472.80 1.099292
472.90 1.089423
473.00 1.07389
473.10 1.065775
473.20 1.072247
473.30 1.089305
473.40 1.10613
473.50 1.114025
473.60 1.110782
473.70 1.09979
473.80 1.08782
473.90 1.08256
474.00 1.088099
474.10 1.101151
474.20 1.113336
474.30 1.118596
474.40 1.117809
474.50 1.116262
474.60 1.118727
474.70 1.12667
474.80 1.138402
474.90 1.151117
475.00 1.162558
475.10 1.171062
475.20 1.176541
475.30 1.182495
475.40 1.193996
475.50 1.210329
475.60 1.21981
475.70 1.206267
475.80 1.163064
475.90 1.098334
476.00 1.026086
476.10 0.9550113
476.20 0.8860217
476.30 0.8181518
476.40 0.7539977
476.50 0.7022771
476.60 0.670998
476.70 0.6608309
476.80 0.6660901
476.90 0.6775261
477.00 0.688001
477.10 0.6967343
477.20 0.7091272
477.30 0.7315958
477.40 0.7639526
477.50 0.7965675
477.60 0.8166477
477.70 0.8178045
477.80 0.8039004
477.90 0.7843313
478.00 0.7667344
478.10 0.7549056
478.20 0.7515201
478.30 0.7602131
478.40 0.7838226
478.50 0.8193217
478.60 0.8562109
478.70 0.8828219
478.80 0.8944935
478.90 0.8958178
479.00 0.8956917
479.10 0.9004773
479.20 0.9114461
479.30 0.9263966
479.40 0.9418888
479.50 0.9553191
479.60 0.966077
479.70 0.975095
479.80 0.9837332
479.90 0.9929345
480.00 1.002952
480.10 1.012722
480.20 1.017968
480.30 1.010349
480.40 0.9817722
480.50 0.9329534
480.60 0.8770156
480.70 0.8308013
480.80 0.8014646
480.90 0.7837077
481.00 0.7706662
481.10 0.7634516
481.20 0.7682075
481.30 0.787699
481.40 0.8187676
481.50 0.8555372
481.60 0.890634
481.70 0.9154113
481.80 0.9245317
481.90 0.9211843
482.00 0.9147215
482.10 0.9123973
482.20 0.9148259
482.30 0.9193814
482.40 0.9247113
482.50 0.9298657
482.60 0.9328917
482.70 0.933431
482.80 0.9344305
482.90 0.9374567
483.00 0.9371029
483.10 0.9257058
483.20 0.9062165
483.30 0.8946038
483.40 0.9049804
483.50 0.9353554
483.60 0.971251
483.70 1.000811
483.80 1.021225
483.90 1.031964
484.00 1.029121
484.10 1.009475
484.20 0.9777383
484.30 0.9473344
484.40 0.9318581
484.50 0.9334717
484.60 0.9396938
484.70 0.9337264
484.80 0.9096697
484.90 0.8766124
485.00 0.8487382
485.10 0.8349999
485.20 0.8369307
485.30 0.8510709
485.40 0.8707106
485.50 0.8880156
485.60 0.8987909
485.70 0.9070444
485.80 0.9255936
485.90 0.9710145
486.00 1.050311
486.10 1.146033
486.20 1.218129
486.30 1.229782
486.40 1.176796
486.50 1.090334
486.60 1.010412
486.70 0.9595117
486.80 0.9394779
486.90 0.9426595
487.00 0.9593659
487.10 0.979285
487.20 0.9938828
487.30 0.9998905
487.40 0.9984106
487.50 0.9917398
487.60 0.9842102
487.70 0.9838821
487.80 0.997285
487.90 1.022057
488.00 1.047786
488.10 1.065045
488.20 1.072605
488.30 1.075344
488.40 1.077298
488.50 1.078204
488.60 1.076317
488.70 1.073296
488.80 1.07504
488.90 1.085735
489.00 1.101154
489.10 1.110958
489.20 1.109252
489.30 1.101128
489.40 1.097116
489.50 1.102641
489.60 1.113849
489.70 1.122688
489.80 1.124046
489.90 1.118611
490.00 1.111791
490.10 1.110184
490.20 1.118144
490.30 1.137039
490.40 1.165336
490.50 1.198395
490.60 1.230583
490.70 1.259034
490.80 1.28512
490.90 1.310378
491.00 1.332024
491.10 1.345425
491.20 1.349398
491.30 1.346359
491.40 1.338943
491.50 1.328415
491.60 1.315838
491.70 1.302386
491.80 1.288168
491.90 1.273949
492.00 1.264774
492.10 1.269285
492.20 1.293394
492.30 1.333868
492.40 1.378957
492.50 1.417937
492.60 1.44942
492.70 1.478106
492.80 1.503791
492.90 1.517635
493.00 1.5119
493.10 1.490123
493.20 1.463719
493.30 1.441481
493.40 1.426608
493.50 1.421153
493.60 1.42766
493.70 1.44519
493.80 1.467111
493.90 1.48533
494.00 1.495824
494.10 1.49996
494.20 1.502708
494.30 1.509921
494.40 1.525884
494.50 1.551931
494.60 1.586397
494.70 1.625092
494.80 1.662205
494.90 1.692464
495.00 1.712587
495.10 1.717014
495.20 1.690205
495.30 1.608645
495.40 1.459869
495.50 1.2623
495.60 1.061164
495.70 0.9016727
495.80 0.804657
495.90 0.763895
496.00 0.7596474
496.10 0.7717948
496.20 0.7863702
496.30 0.7975498
496.40 0.8061997
496.50 0.8164539
496.60 0.8330276
496.70 0.8596205
496.80 0.8972939
496.90 0.942672
497.00 0.988407
497.10 1.027493
497.20 1.055736
497.30 1.070721
497.40 1.071339
497.50 1.05992
497.60 1.043825
497.70 1.030722
497.80 1.022621
497.90 1.016625
498.00 1.010115
498.10 1.004004
498.20 1.003586
498.30 1.01703
498.40 1.049759
498.50 1.096851
498.60 1.142277
498.70 1.169952
498.80 1.17546
498.90 1.167144
499.00 1.158415
499.10 1.158463
499.20 1.166522
499.30 1.174594
499.40 1.177957
499.50 1.181617
499.60 1.181481
499.70 1.140923
499.80 1.006695
499.90 0.7634985
500.00 1
500.10 0.9081258
500.20 0.940388
500.30 0.9646084
500.40 0.9616958
500.50 0.9504203
500.60 0.9435896
500.70 0.981846
500.80 0.9575527
500.90 0.9155427
501.00 0.945169
501.10 0.995251
501.20 0.9555762
501.30 0.9466916
501.40 0.8535751
501.50 0.8081036
501.60 0.8697926
501.70 0.9000182
501.80 0.9964378
501.90 1.027352
502.00 1.033416
502.10 1.05236
502.20 1.058023
502.30 1.054575
502.40 1.071677
502.50 1.073314
502.60 1.085676
502.70 1.068939
502.80 1.03787
502.90 1.04875
503.00 1.069747
503.10 1.127995
503.20 1.135486
503.30 1.149499
503.40 1.159486
503.50 1.221794
503.60 1.219395
503.70 1.145757
503.80 1.14857
503.90 1.206079
504.00 1.168803
504.10 1.155703
504.20 1.120559
504.30 1.162732
504.40 1.176654
504.50 1.189769
504.60 1.247847
504.70 1.274996
504.80 1.312318
504.90 1.294599
505.00 1.177818
505.10 1.102482
505.20 1.144685
505.30 1.180976
505.40 1.162065
505.50 1.134628
505.60 1.15092
505.70 1.12972
505.80 1.170486
505.90 1.179362
506.00 1.200617
506.10 1.239392
506.20 1.231667
506.30 1.234896
506.40 1.202259
506.50 1.14572
506.60 1.163581
506.70 1.161049
506.80 1.113268
506.90 1.139557
507.00 1.169538
507.10 1.24196
507.20 1.255217
507.30 1.19407
507.40 1.213657
507.50 1.340518
507.60 1.368893
507.70 1.284658
507.80 1.186688
507.90 1.27121
508.00 1.281088
508.10 1.241985
508.20 1.153241
508.30 1.149858
508.40 1.188828
508.50 1.220894
508.60 1.263842
508.70 1.376902
508.80 1.317254
508.90 1.207975
509.00 1.218923
509.10 1.295386
509.20 1.224366
509.30 1.254587
509.40 1.387613
509.50 1.367434
509.60 1.177508
509.70 1.175897
509.80 1.322238
509.90 1.386603
510.00 1.310591
510.10 1.172785
510.20 1.14377
510.30 1.152344
510.40 1.155254
510.50 1.154956
510.60 1.181423
510.70 1.180003
510.80 1.12024
510.90 1.106915
511.00 1.20175
511.10 1.206942
511.20 1.216099
511.30 1.225756
511.40 1.268983
511.50 1.278214
511.60 1.364138
511.70 1.446439
511.80 1.418614
511.90 1.383138
512.00 1.381514
512.10 1.35767
512.20 1.388021
512.30 1.34039
512.40 1.278841
512.50 1.27066
512.60 1.259322
512.70 1.20073
512.80 1.197108
512.90 1.172838
513.00 1.17871
513.10 1.192878
513.20 1.253311
513.30 1.307992
513.40 1.331567
513.50 1.27558
513.60 1.314157
513.70 1.461186
513.80 1.538984
513.90 1.461369
514.00 1.356625
514.10 1.364515
514.20 1.411039
514.30 1.444966
514.40 1.39526
514.50 1.270003
514.60 1.176464
514.70 1.20469
514.80 1.329225
514.90 1.36345
515.00 1.378921
515.10 1.288205
515.20 1.271198
515.30 1.172142
515.40 1.072069
515.50 1.069879
515.60 1.183439
515.70 1.258361
515.80 1.431555
515.90 1.557687
516.00 1.540786
516.10 1.579966
516.20 1.694788
516.30 1.701381
516.40 1.598575
516.50 1.604699
516.60 1.590237
516.70 1.338452
516.80 0.9227298
516.90 0.6565733
517.00 0.607826
517.10 0.6062096
517.20 0.6424455
517.30 0.6576033
517.40 0.6359626
517.50 0.705357
517.60 0.7267685
517.70 0.7274248
517.80 0.7568196
517.90 0.7760905
518.00 0.7602327
518.10 0.7694162
518.20 0.7292111
518.30 0.7400145
518.40 0.7666312
518.50 0.826581
518.60 0.9864926
518.70 1.066386
518.80 1.066374
518.90 1.116292
519.00 1.153169
519.10 1.149009
519.20 1.118304
519.30 1.093955
519.40 1.070761
519.50 1.089309
519.60 1.154834
519.70 1.228198
519.80 1.304182
519.90 1.272445
520.00 1.244884
520.10 1.245295
520.20 1.243249
520.30 1.150763
520.40 1.059068
520.50 0.9525256
520.60 0.890574
520.70 0.8425207
520.80 0.8800174
520.90 0.8492842
521.00 0.8119364
521.10 0.8443076
521.20 1.019303
521.30 1.257066
521.40 1.452847
521.50 1.51145
521.60 1.457415
521.70 1.428258
521.80 1.533926
521.90 1.572411
522.00 1.528867
522.10 1.55916
522.20 1.666057
522.30 1.660642
522.40 1.606348
522.50 1.529634
522.60 1.499221
522.70 1.452825
522.80 1.507747
522.90 1.628835
523.00 1.701002
523.10 1.774809
523.20 1.757797
523.30 1.703132
523.40 1.648474
523.50 1.640395
523.60 1.61783
523.70 1.650994
523.80 1.703922
523.90 1.705802
524.00 1.736278
524.10 1.661298
524.20 1.503663
524.30 1.431805
524.40 1.490314
524.50 1.512253
524.60 1.525767
524.70 1.523599
524.80 1.463259
524.90 1.416472
525.00 1.391845
525.10 1.412898
525.20 1.504305
525.30 1.539021
525.40 1.597594
525.50 1.653225
525.60 1.688271
525.70 1.711818
525.80 1.664019
525.90 1.681614
526.00 1.760331
526.10 1.679312
526.20 1.561879
526.30 1.465822
526.40 1.422929
526.50 1.355928
526.60 1.345659
526.70 1.334405
526.80 1.354633
526.90 1.337313
527.00 1.183908
527.10 1.152271
527.20 1.303407
527.30 1.498127
527.40 1.632321
527.50 1.665213
527.60 1.670734
527.70 1.691911
527.80 1.713041
527.90 1.760931
528.00 1.687963
528.10 1.62185
528.20 1.598994
528.30 1.589713
528.40 1.591552
528.50 1.67922
528.60 1.757506
528.70 1.853624
528.80 1.850608
528.90 1.858278
529.00 1.809461
529.10 1.790462
529.20 1.840374
529.30 1.791506
529.40 1.764816
529.50 1.847211
529.60 1.853207
529.70 1.744586
529.80 1.686045
529.90 1.674855
530.00 1.661925
530.10 1.676063
530.20 1.698118
530.30 1.783028
530.40 1.878329
530.50 1.946382
530.60 1.944896
530.70 1.853325
530.80 1.749984
530.90 1.749853
531.00 1.716023
531.10 1.715436
531.20 1.781038
531.30 1.830367
531.40 1.758289
531.50 1.728508
531.60 1.764438
531.70 1.786088
531.80 1.838013
531.90 1.833259
532.00 1.831144
532.10 1.815694
532.20 1.780839
532.30 1.841906
532.40 1.887992
532.50 1.803999
532.60 1.776121
532.70 1.820018
532.80 1.676653
532.90 1.447816
533.00 1.443002
533.10 1.61901
533.20 1.813386
533.30 1.829802
533.40 1.755779
533.50 1.772341
533.60 1.830942
533.70 1.808994
533.80 1.748323
533.90 1.744251
534.00 1.756226
534.10 1.757619
534.20 1.77535
534.30 1.839234
534.40 1.85701
534.50 1.881157
534.60 1.856908
534.70 1.780596
534.80 1.712588
534.90 1.80031
535.00 1.861031
535.10 1.924632
535.20 2.036791
535.30 2.106089
535.40 2.043555
535.50 2.033234
535.60 2.046762
535.70 2.033804
535.80 2.041898
535.90 1.964625
536.00 1.884025
536.10 1.838048
536.20 1.862354
536.30 1.887451
536.40 1.940436
536.50 1.918821
536.60 1.905536
536.70 1.947459
536.80 1.905525
536.90 1.943432
537.00 1.998134
537.10 1.850792
537.20 1.677035
537.30 1.678955
537.40 1.875216
537.50 1.997495
537.60 2.019116
537.70 2.004685
537.80 1.987727
537.90 2.055621
538.00 2.166561
538.10 2.224582
538.20 2.1823
538.30 2.145973
538.40 2.101448
538.50 2.099444
538.60 2.043183
538.70 2.114373
538.80 2.188428
538.90 2.223365
539.00 2.196913
539.10 2.210173
539.20 2.156203
539.30 2.089048
539.40 2.05782
539.50 2.062887
539.60 2.069426
539.70 1.994579
539.80 1.887179
539.90 1.908964
540.00 2.046909
540.10 2.215235
540.20 2.290875
540.30 2.29805
540.40 2.246677
540.50 2.175626
540.60 2.042979
540.70 1.938116
540.80 1.989207
540.90 2.05908
541.00 2.028189
541.10 1.934145
541.20 1.978488
541.30 2.017801
541.40 2.073607
541.50 2.19902
541.60 2.257299
541.70 2.226814
541.80 2.263546
541.90 2.339456
542.00 2.315342
542.10 2.237421
542.20 2.272027
542.30 2.306955
542.40 2.202205
542.50 2.186011
542.60 2.258938
542.70 2.251776
542.80 2.25369
542.90 2.240523
543.00 2.127973
543.10 2.031343
543.20 2.052224
543.30 2.126226
543.40 2.108375
543.50 2.030427
543.60 2.052117
543.70 2.194308
543.80 2.355962
543.90 2.360962
544.00 2.34072
544.10 2.353079
544.20 2.435918
544.30 2.492879
544.40 2.576871
544.50 2.52859
544.60 2.375461
544.70 2.142596
544.80 1.876737
544.90 1.639506
545.00 1.479211
545.10 1.352562
545.20 1.30572
545.30 1.300888
545.40 1.241737
545.50 1.289633
545.60 1.363624
545.70 1.332539
545.80 1.301726
545.90 1.433899
546.00 1.539337
546.10 1.538919
546.20 1.546166
546.30 1.570615
546.40 1.629814
546.50 1.703355
546.60 1.638894
546.70 1.663464
546.80 1.755999
546.90 1.777935
547.00 1.690706
547.10 1.601588
547.20 1.638293
547.30 1.660078
547.40 1.748343
547.50 1.746076
547.60 1.697773
547.70 1.634828
547.80 1.605754
547.90 1.633452
548.00 1.695514
548.10 1.741615
548.20 1.749561
548.30 1.743817
548.40 1.736709
548.50 1.774392
548.60 1.812288
548.70 1.860992
548.80 1.817265
548.90 1.786331
549.00 1.790876
549.10 1.834147
549.20 1.8623
549.30 1.881163
549.40 1.887993
549.50 1.896925
549.60 1.863648
549.70 1.76061
549.80 1.594845
549.90 1.500894
550.00 1.413126
550.10 1.398949
550.20 1.367182
550.30 1.420145
550.40 1.462613
550.50 1.386298
550.60 1.33861
550.70 1.374154
550.80 1.420204
550.90 1.435087
551.00 1.447687
551.10 1.433152
551.20 1.378934
551.30 1.334343
551.40 1.354701
551.50 1.337765
551.60 1.32119
551.70 1.410188
551.80 1.509043
551.90 1.474304
552.00 1.389385
552.10 1.420427
552.20 1.467004
552.30 1.476654
552.40 1.433089
552.50 1.397656
552.60 1.354845
552.70 1.353961
552.80 1.389546
552.90 1.396876
553.00 1.434171
553.10 1.498584
553.20 1.496117
553.30 1.451625
553.40 1.415142
553.50 1.3404
553.60 1.305955
553.70 1.287527
553.80 1.261423
553.90 1.232364
554.00 1.254196
554.10 1.345788
554.20 1.253031
554.30 1.176823
554.40 1.226356
554.50 1.305318
554.60 1.291761
554.70 1.28525
554.80 1.367281
554.90 1.456249
555.00 1.419045
555.10 1.355624
555.20 1.355167
555.30 1.347886
555.40 1.320734
555.50 1.363637
555.60 1.414715
555.70 1.484302
555.80 1.531778
555.90 1.52806
556.00 1.486776
556.10 1.505786
556.20 1.567966
556.30 1.621481
556.40 1.610805
556.50 1.635523
556.60 1.627081
556.70 1.633273
556.80 1.667678
556.90 1.643258
557.00 1.640439
557.10 1.70923
557.20 1.717275
557.30 1.718273
557.40 1.71782
557.50 1.717781
557.60 1.717781
557.70 1.717781
557.80 1.717781
557.90 1.717781
558.00 1.717781
558.10 1.717782
558.20 1.717781
558.30 1.7175
558.40 1.71112
558.50 1.728607
558.60 1.85291
558.70 1.941635
558.80 1.891484
558.90 1.76572
559.00 1.67143
559.10 1.694679
559.20 1.844717
559.30 1.934742
559.40 1.927382
559.50 1.828128
559.60 1.77316
559.70 1.83177
559.80 1.727243
559.90 1.482313
560.00 1.332866
560.10 1.377671
560.20 1.491526
560.30 1.591726
560.40 1.609892
560.50 1.524971
560.60 1.511238
560.70 1.545323
560.80 1.556264
560.90 1.567007
561.00 1.597436
561.10 1.629743
561.20 1.66911
561.30 1.727904
561.40 1.778287
561.50 1.733431
561.60 1.659062
561.70 1.571193
561.80 1.541015
561.90 1.574516
562.00 1.619537
562.10 1.532525
562.20 1.466736
562.30 1.516598
562.40 1.584109
562.50 1.663449
562.60 1.703664
562.70 1.676015
562.80 1.64614
562.90 1.592241
563.00 1.45228
563.10 1.387639
563.20 1.433184
563.30 1.510137
563.40 1.58334
563.50 1.709479
563.60 1.732293
563.70 1.666378
563.80 1.648858
563.90 1.607236
564.00 1.5621
564.10 1.595013
564.20 1.679022
564.30 1.660142
564.40 1.62962
564.50 1.678408
564.60 1.699851
564.70 1.656148
564.80 1.656201
564.90 1.702787
565.00 1.687252
565.10 1.747387
565.20 1.809109
565.30 1.82252
565.40 1.856121
565.50 1.868936
565.60 1.872241
565.70 1.919923
565.80 1.965963
565.90 1.868325
566.00 1.770543
566.10 1.845537
566.20 1.867627
566.30 1.779865
566.40 1.683286
566.50 1.641824
566.60 1.670924
566.70 1.716267
566.80 1.734462
566.90 1.696808
567.00 1.698193
567.10 1.635029
567.20 1.636793
567.30 1.668405
567.40 1.724391
567.50 1.764293
567.60 1.774024
567.70 1.757105
567.80 1.807049
567.90 1.879162
568.00 1.876552
568.10 1.793266
568.20 1.782378
568.30 1.823485
568.40 1.847233
568.50 1.870579
568.60 1.910835
568.70 2.016379
568.80 1.985607
568.90 1.852228
569.00 1.733165
569.10 1.811495
569.20 1.942179
569.30 1.97375
569.40 1.987364
569.50 1.976848
569.60 1.951796
569.70 1.942065
569.80 1.930571
569.90 1.970961
570.00 1.990028
570.10 2.001812
570.20 2.022885
570.30 2.039886
570.40 1.978662
570.50 1.963633
570.60 2.015325
570.70 2.11067
570.80 2.137819
570.90 2.196406
571.00 2.234924
571.10 2.200026
571.20 2.104089
571.30 2.086994
571.40 2.05714
571.50 2.0102
571.60 1.969898
571.70 2.027283
571.80 2.041105
571.90 2.023837
572.00 2.042617
572.10 2.0909
572.20 2.004001
572.30 1.92903
572.40 2.001509
572.50 2.070825
572.60 2.029262
572.70 1.966295
572.80 1.993505
572.90 1.994529
573.00 2.037248
573.10 2.100675
573.20 2.113115
573.30 2.088616
573.40 2.114372
573.50 2.175381
573.60 2.184166
573.70 2.122249
573.80 2.067747
573.90 2.078492
574.00 2.104387
574.10 2.156014
574.20 2.102905
574.30 2.113352
574.40 2.146014
574.50 2.188585
574.60 2.205036
574.70 2.267027
574.80 2.326201
574.90 2.381305
575.00 2.387948
575.10 2.374302
575.20 2.386152
575.30 2.419224
575.40 2.422339
575.50 2.38847
575.60 2.389543
575.70 2.421475
575.80 2.399241
575.90 2.342989
576.00 2.225448
576.10 2.087231
576.20 1.978114
576.30 1.897566
576.40 1.858187
576.50 1.827729
576.60 1.80967
576.70 1.825385
576.80 1.920915
576.90 1.944397
577.00 1.93367
577.10 1.99847
577.20 2.047818
577.30 2.086892
577.40 2.087022
577.50 2.111186
577.60 2.045257
577.70 1.96636
577.80 1.973802
577.90 1.986196
578.00 2.009301
578.10 2.044275
578.20 2.07871
578.30 2.136969
578.40 2.20668
578.50 2.292231
578.60 2.247129
578.70 2.1495
578.80 2.159098
578.90 2.242314
579.00 2.215076
579.10 2.135995
579.20 2.092977
579.30 2.177987
579.40 2.230175
579.50 2.374543
579.60 2.45263
579.70 2.419574
579.80 2.414929
579.90 2.446972
580.00 2.461157
580.10 2.438806
580.20 2.41534
580.30 2.392058
580.40 2.422039
580.50 2.506539
580.60 2.474572
580.70 2.49993
580.80 2.54774
580.90 2.52334
581.00 2.461058
581.10 2.357974
581.20 2.203397
581.30 2.062016
581.40 1.95794
581.50 1.945286
581.60 1.936201
581.70 1.899876
581.80 1.865173
581.90 1.870911
582.00 1.870414
582.10 1.816834
582.20 1.841883
582.30 1.882908
582.40 1.934048
582.50 1.912197
582.60 1.879443
582.70 1.933018
582.80 2.002283
582.90 1.994305
583.00 2.023866
583.10 2.013229
583.20 2.00176
583.30 2.119898
583.40 2.14892
583.50 2.04927
583.60 2.00366
583.70 2.0868
583.80 2.130929
583.90 2.100586
584.00 2.066633
584.10 1.982051
584.20 1.998911
584.30 2.038508
584.40 2.028889
584.50 2.010383
584.60 2.01146
584.70 2.035188
584.80 1.969975
584.90 1.826008
585.00 1.693094
585.10 1.633344
585.20 1.590874
585.30 1.585721
585.40 1.605507
585.50 1.607336
585.60 1.609611
585.70 1.604481
585.80 1.562375
585.90 1.557774
586.00 1.580369
586.10 1.620258
586.20 1.592272
586.30 1.497083
586.40 1.442767
586.50 1.451215
586.60 1.43506
586.70 1.364621
586.80 1.437796
586.90 1.517869
587.00 1.534924
587.10 1.516879
587.20 1.514483
587.30 1.434329
587.40 1.315626
587.50 1.265049
587.60 1.285856
587.70 1.330996
587.80 1.333025
587.90 1.291015
588.00 1.283605
588.10 1.255979
588.20 1.164946
588.30 1.074718
588.40 1.045713
588.50 1.079369
588.60 1.040516
588.70 0.9431938
588.80 0.7807515
588.90 0.7284694
589.00 0.734717
589.10 0.7400925
589.20 0.6791708
589.30 0.6757429
589.40 0.7782171
589.50 0.695832
589.60 0.6795626
589.70 0.6623475
589.80 0.6129845
589.90 0.6931012
590.00 0.7937809
590.10 0.8675846
590.20 0.8166508
590.30 0.9261659
590.40 1.063598
590.50 1.121331
590.60 1.116132
590.70 1.119387
590.80 1.174368
590.90 1.157788
591.00 1.127336
591.10 1.173344
591.20 1.25088
591.30 1.222843
591.40 1.184479
591.50 1.199438
591.60 1.194623
591.70 1.247275
591.80 1.322022
591.90 1.31294
592.00 1.307851
592.10 1.338698
592.20 1.338233
592.30 1.273765
592.40 1.261975
592.50 1.26655
592.60 1.259274
592.70 1.256896
592.80 1.28035
592.90 1.33622
593.00 1.37926
593.10 1.376287
593.20 1.389101
593.30 1.40449
593.40 1.401359
593.50 1.425605
593.60 1.474504
593.70 1.527351
593.80 1.543571
593.90 1.57643
594.00 1.552914
594.10 1.492411
594.20 1.467946
594.30 1.519716
594.40 1.589667
594.50 1.651449
594.60 1.611098
594.70 1.59431
594.80 1.558121
594.90 1.527412
595.00 1.458451
595.10 1.383129
595.20 1.388292
595.30 1.410865
595.40 1.421525
595.50 1.488848
595.60 1.516069
595.70 1.445234
595.80 1.383501
595.90 1.395872
596.00 1.341142
596.10 1.331142
596.20 1.422676
596.30 1.472701
596.40 1.478554
596.50 1.421896
596.60 1.466801
596.70 1.491342
596.80 1.507976
596.90 1.53586
597.00 1.587642
597.10 1.583677
597.20 1.548449
597.30 1.485152
597.40 1.434401
597.50 1.459854
597.60 1.490817
597.70 1.497736
597.80 1.53357
597.90 1.594374
598.00 1.618291
598.10 1.585922
598.20 1.63841
598.30 1.652661
598.40 1.575394
598.50 1.621375
598.60 1.668663
598.70 1.663979
598.80 1.634742
598.90 1.666412
599.00 1.67982
599.10 1.653053
599.20 1.720636
599.30 1.77647
599.40 1.833738
599.50 1.891098
599.60 1.843755
599.70 1.820045
599.80 1.853458
599.90 1.863204
600.00 1.766689
600.10 1.698588
600.20 1.709448
600.30 1.703212
600.40 1.705878
600.50 1.715625
600.60 1.768229
600.70 1.739986
600.80 1.696766
600.90 1.667872
601.00 1.678018
601.10 1.706405
601.20 1.749369
601.30 1.768792
601.40 1.796875
601.50 1.784055
601.60 1.7327
601.70 1.78445
601.80 1.822945
601.90 1.831794
602.00 1.828326
602.10 1.839302
602.20 1.857942
602.30 1.852797
602.40 1.864472
602.50 1.894113
602.60 1.939041
602.70 1.946845
602.80 1.951501
602.90 1.978121
603.00 1.968881
603.10 1.933231
603.20 1.951545
603.30 1.991463
603.40 2.000966
603.50 1.980684
603.60 1.949441
603.70 1.867956
603.80 1.722848
603.90 1.678579
604.00 1.766492
604.10 1.863059
604.20 1.94339
604.30 2.010385
604.40 2.032799
604.50 2.025486
604.60 2.083326
604.70 2.123572
604.80 2.101589
604.90 2.101172
605.00 2.199419
605.10 2.227878
605.20 2.164538
605.30 2.112752
605.40 2.093716
605.50 2.097498
605.60 2.140075
605.70 2.116586
605.80 2.086823
605.90 2.109022
606.00 2.118334
606.10 2.141616
606.20 2.203064
606.30 2.200542
606.40 2.147693
606.50 2.11099
606.60 2.076566
606.70 1.999757
606.80 2.052111
606.90 2.176157
607.00 2.245204
607.10 2.246777
607.20 2.232004
607.30 2.245169
607.40 2.152482
607.50 2.089456
607.60 2.144885
607.70 2.241153
607.80 2.305994
607.90 2.273941
608.00 2.172412
608.10 2.080154
608.20 2.032777
608.30 2.078266
608.40 2.10196
608.50 2.138452
608.60 2.175832
608.70 2.206331
608.80 2.190512
608.90 2.188502
609.00 2.199214
609.10 2.20174
609.20 2.201645
609.30 2.204047
609.40 2.254669
609.50 2.311422
609.60 2.3354
609.70 2.33377
609.80 2.338567
609.90 2.330836
610.00 2.306886
610.10 2.270663
610.20 2.197946
610.30 2.104042
610.40 2.040462
610.50 2.045885
610.60 2.121852
610.70 2.180544
610.80 2.213926
610.90 2.265885
611.00 2.304818
611.10 2.292261
611.20 2.269864
611.30 2.254886
611.40 2.256345
611.50 2.291533
611.60 2.304798
611.70 2.263081
611.80 2.196432
611.90 2.179189
612.00 2.162105
612.10 2.11734
612.20 2.043701
612.30 1.927091
612.40 1.901653
612.50 1.995482
612.60 2.152327
612.70 2.239074
612.80 2.22891
612.90 2.25834
613.00 2.275655
613.10 2.293184
613.20 2.301353
613.30 2.26261
613.40 2.211955
613.50 2.169539
613.60 2.195885
613.70 2.239482
613.80 2.230313
613.90 2.23711
614.00 2.270298
614.10 2.285329
614.20 2.273229
614.30 2.298851
614.40 2.368506
614.50 2.442262
614.60 2.476056
614.70 2.450064
614.80 2.330974
614.90 2.203839
615.00 2.085675
615.10 1.95442
615.20 1.890978
615.30 1.946777
615.40 2.021802
615.50 2.015614
615.60 1.984167
615.70 1.958586
615.80 1.865914
615.90 1.686973
616.00 1.542788
616.10 1.458631
616.20 1.350239
616.30 1.248787
616.40 1.2322
616.50 1.280191
616.60 1.271592
616.70 1.24351
616.80 1.277205
616.90 1.325326
617.00 1.340838
617.10 1.373427
617.20 1.404627
617.30 1.385741
617.40 1.391464
617.50 1.3848
617.60 1.365356
617.70 1.312756
617.80 1.351419
617.90 1.443161
618.00 1.466345
618.10 1.428964
618.20 1.408488
618.30 1.43826
618.40 1.409097
618.50 1.377828
618.60 1.346278
618.70 1.276724
618.80 1.163695
618.90 1.105596
619.00 1.152429
619.10 1.18773
619.20 1.181194
619.30 1.140224
619.40 1.125761
619.50 1.137136
619.60 1.147109
619.70 1.16066
619.80 1.206294
619.90 1.23782
620.00 1.239539
620.10 1.250424
620.20 1.243555
620.30 1.221694
620.40 1.224887
620.50 1.282337
620.60 1.324571
620.70 1.283721
620.80 1.285036
620.90 1.328029
621.00 1.343989
621.10 1.326198
621.20 1.290746
621.30 1.2783
621.40 1.253984
621.50 1.192444
621.60 1.115357
621.70 1.072723
621.80 1.07683
621.90 1.087211
622.00 1.13927
622.10 1.173129
622.20 1.185021
622.30 1.163065
622.40 1.066038
622.50 0.9993129
622.60 0.9810301
622.70 1.041943
622.80 1.068315
622.90 1.072351
623.00 1.077288
623.10 1.070298
623.20 1.072677
623.30 1.100506
623.40 1.120933
623.50 1.103375
623.60 1.084939
623.70 1.127667
623.80 1.148314
623.90 1.144736
624.00 1.153899
624.10 1.149016
624.20 1.140671
624.30 1.148406
624.40 1.211248
624.50 1.189245
624.60 1.153341
624.70 1.147105
624.80 1.146826
624.90 1.205782
625.00 1.243515
625.10 1.238416
625.20 1.221605
625.30 1.241362
625.40 1.282988
625.50 1.3063
625.60 1.325069
625.70 1.331461
625.80 1.338443
625.90 1.334864
626.00 1.338511
626.10 1.322648
626.20 1.342466
626.30 1.424365
626.40 1.476
626.50 1.497214
626.60 1.525085
626.70 1.528328
626.80 1.481054
626.90 1.430426
627.00 1.431275
627.10 1.459285
627.20 1.460987
627.30 1.489422
627.40 1.523759
627.50 1.531197
627.60 1.485262
627.70 1.410045
627.80 1.388326
627.90 1.424992
628.00 1.435154
628.10 1.447214
628.20 1.479037
628.30 1.498898
628.40 1.551059
628.50 1.591292
628.60 1.640455
628.70 1.660192
628.80 1.660242
628.90 1.68918
629.00 1.743605
629.10 1.780801
629.20 1.754681
629.30 1.739595
629.40 1.760238
629.50 1.744617
629.60 1.689469
629.70 1.753272
629.80 1.839988
629.90 1.78728
630.00 1.772577
630.10 1.989273
630.20 2.336602
630.30 2.167697
630.40 1.846628
630.50 1.884423
630.60 1.967028
630.70 1.977887
630.80 2.027441
630.90 2.110777
631.00 2.140805
631.10 2.112356
631.20 2.142866
631.30 2.213145
631.40 2.244898
631.50 2.247984
631.60 2.262266
631.70 2.265485
631.80 2.270489
631.90 2.299205
632.00 2.305419
632.10 2.268624
632.20 2.28837
632.30 2.325752
632.40 2.274148
632.50 2.250892
632.60 2.266404
632.70 2.307852
632.80 2.377079
632.90 2.424374
633.00 2.411063
633.10 2.361132
633.20 2.373733
633.30 2.41412
633.40 2.468524
633.50 2.510979
633.60 2.544892
633.70 2.525767
633.80 2.510788
633.90 2.558914
634.00 2.625849
634.10 2.634298
634.20 2.620149
634.30 2.657682
634.40 2.730212
634.50 2.776241
634.60 2.752585
634.70 2.726044
634.80 2.741814
634.90 2.8083
635.00 2.824926
635.10 2.821948
635.20 2.794327
635.30 2.716692
635.40 2.639189
635.50 2.601012
635.60 2.620929
635.70 2.580888
635.80 2.501799
635.90 2.419235
636.00 2.395614
636.10 2.380824
636.20 2.379824
636.30 2.414921
636.40 2.498615
636.50 2.571479
636.60 2.52163
636.70 2.430547
636.80 2.389209
636.90 2.414079
637.00 2.428352
637.10 2.465147
637.20 2.479203
637.30 2.521835
637.40 2.568257
637.50 2.55588
637.60 2.511138
637.70 2.48682
637.80 2.48281
637.90 2.453633
638.00 2.405339
638.10 2.309861
638.20 2.202347
638.30 2.126952
638.40 2.134366
638.50 2.19083
638.60 2.208508
638.70 2.200911
638.80 2.191571
638.90 2.172966
639.00 2.150258
639.10 2.198353
639.20 2.303127
639.30 2.38447
639.40 2.427415
639.50 2.480125
639.60 2.555807
639.70 2.656718
639.80 2.708902
639.90 2.720901
640.00 2.730236
640.10 2.742742
640.20 2.754854
640.30 2.763347
640.40 2.826805
640.50 2.888805
640.60 2.929219
640.70 2.966308
640.80 2.986321
640.90 3.00241
641.00 3.013776
641.10 3.027627
641.20 3.046359
641.30 3.042868
641.40 3.003049
641.50 2.966359
641.60 2.940126
641.70 2.89573
641.80 2.863942
641.90 2.862897
642.00 2.847685
642.10 2.801784
642.20 2.786413
642.30 2.794474
642.40 2.827154
642.50 2.871943
642.60 2.882858
642.70 2.883576
642.80 2.866419
642.90 2.884454
643.00 2.927707
643.10 2.95783
643.20 2.977855
643.30 2.973657
643.40 2.986421
643.50 3.026864
643.60 3.05399
643.70 3.049425
643.80 2.998365
643.90 2.948197
644.00 2.89845
644.10 2.876646
644.20 2.962886
644.30 3.127813
644.40 3.269854
644.50 3.352766
644.60 3.399306
644.70 3.37124
644.80 3.24623
644.90 3.087076
645.00 2.9686
645.10 2.944161
645.20 3.00974
645.30 3.10237
645.40 3.222371
645.50 3.286771
645.60 3.296676
645.70 3.297579
645.80 3.321578
645.90 3.347227
646.00 3.338797
646.10 3.302559
646.20 3.208394
646.30 3.098395
646.40 3.080537
646.50 3.14538
646.60 3.263118
646.70 3.373249
646.80 3.479985
646.90 3.583014
647.00 3.590235
647.10 3.555487
647.20 3.531121
647.30 3.524716
647.40 3.555618
647.50 3.615439
647.60 3.691353
647.70 3.740403
647.80 3.719537
647.90 3.648372
648.00 3.546553
648.10 3.434844
648.20 3.367276
648.30 3.334373
648.40 3.312852
648.50 3.251606
648.60 3.19096
648.70 3.191603
648.80 3.238619
648.90 3.303342
649.00 3.405668
649.10 3.464145
649.20 3.443441
649.30 3.375896
649.40 3.304829
649.50 3.247483
649.60 3.173336
649.70 3.188061
649.80 3.309155
649.90 3.391517
650.00 3.408947
650.10 3.380323
650.20 3.432837
650.30 3.57124
650.40 3.703679
650.50 3.781686
650.60 3.790296
650.70 3.77724
650.80 3.789329
650.90 3.818175
651.00 3.870785
651.10 3.933437
651.20 3.940836
651.30 3.880718
651.40 3.792348
651.50 3.730449
651.60 3.697331
651.70 3.724822
651.80 3.795065
651.90 3.861658
652.00 3.924553
652.10 3.972007
652.20 3.98682
652.30 4.001374
652.40 4.043036
652.50 4.079619
652.60 4.109339
652.70 4.129931
652.80 4.169111
652.90 4.21719
653.00 4.227628
653.10 4.224147
653.20 4.206461
653.30 4.207268
653.40 4.284476
653.50 4.35113
653.60 4.381462
653.70 4.423805
653.80 4.463322
653.90 4.492246
654.00 4.541351
654.10 4.604894
654.20 4.625016
654.30 4.570563
654.40 4.438522
654.50 4.284566
654.60 4.156942
654.70 4.062579
654.80 4.017788
654.90 4.003959
655.00 3.984441
655.10 3.94464
655.20 3.861667
655.30 3.801104
655.40 3.771016
655.50 3.772842
655.60 3.772679
655.70 3.796128
655.80 3.871661
655.90 3.942464
656.00 4.032945
656.10 4.163297
656.20 4.373074
656.30 4.725502
656.40 5.069446
656.50 5.060972
656.60 4.617451
656.70 4.039079
656.80 3.701179
656.90 3.623551
657.00 3.60051
657.10 3.587924
657.20 3.521879
657.30 3.415971
657.40 3.318654
657.50 3.284006
657.60 3.366726
657.70 3.509766
657.80 3.589798
657.90 3.562564
658.00 3.446267
658.10 3.342637
658.20 3.355939
658.30 3.424774
658.40 3.493202
658.50 3.555557
658.60 3.617018
658.70 3.665038
658.80 3.698176
658.90 3.758914
659.00 3.820141
659.10 3.81194
659.20 3.751623
659.30 3.676259
659.40 3.553986
659.50 3.41209
659.60 3.35335
659.70 3.401256
659.80 3.486921
659.90 3.501754
660.00 3.458864
660.10 3.433014
660.20 3.457329
660.30 3.522914
660.40 3.561481
660.50 3.552752
660.60 3.508878
660.70 3.445701
660.80 3.395488
660.90 3.398658
661.00 3.425651
661.10 3.475034
661.20 3.519834
661.30 3.526129
661.40 3.52788
661.50 3.525986
661.60 3.545758
661.70 3.518672
661.80 3.437703
661.90 3.367725
662.00 3.301716
662.10 3.258571
662.20 3.252216
662.30 3.251938
662.40 3.232238
662.50 3.185863
662.60 3.100932
662.70 3.000162
662.80 2.943493
662.90 2.936757
663.00 2.970305
663.10 3.061496
663.20 3.184605
663.30 3.249428
663.40 3.245815
663.50 3.197642
663.60 3.078129
663.70 2.955785
663.80 2.865148
663.90 2.84659
664.00 2.901238
664.10 2.965771
664.20 3.01778
664.30 3.053834
664.40 3.092882
664.50 3.112647
664.60 3.09732
664.70 3.075696
664.80 3.068061
664.90 3.065087
665.00 2.978922
665.10 2.812422
665.20 2.637445
665.30 2.498006
665.40 2.424455
665.50 2.401098
665.60 2.445962
665.70 2.530769
665.80 2.559239
665.90 2.533292
666.00 2.503318
666.10 2.524811
666.20 2.580226
666.30 2.619713
666.40 2.648749
666.50 2.696658
666.60 2.744167
666.70 2.792884
666.80 2.82876
666.90 2.870628
667.00 2.910494
667.10 2.928288
667.20 2.91767
667.30 2.892184
667.40 2.888733
667.50 2.896604
667.60 2.875564
667.70 2.836967
667.80 2.8351
667.90 2.847708
668.00 2.771843
668.10 2.617796
668.20 2.432527
668.30 2.27404
668.40 2.199816
668.50 2.208245
668.60 2.279358
668.70 2.338789
668.80 2.359075
668.90 2.39215
669.00 2.40686
669.10 2.414191
669.20 2.429555
669.30 2.410868
669.40 2.369529
669.50 2.333448
669.60 2.355255
669.70 2.402053
669.80 2.461627
669.90 2.520363
670.00 2.515385
670.10 2.504237
670.20 2.508641
670.30 2.51436
670.40 2.551657
670.50 2.571738
670.60 2.592729
670.70 2.614915
670.80 2.602035
670.90 2.645985
671.00 2.70355
671.10 2.685545
671.20 2.644048
671.30 2.600305
671.40 2.530352
671.50 2.424204
671.60 2.299589
671.70 2.177421
671.80 2.071349
671.90 1.991783
672.00 1.984158
672.10 2.002515
672.20 2.003856
672.30 1.999098
672.40 2.02237
672.50 2.091579
672.60 2.137651
672.70 2.17245
672.80 2.20482
672.90 2.213467
673.00 2.219867
673.10 2.223045
673.20 2.243465
673.30 2.263717
673.40 2.24664
673.50 2.253461
673.60 2.272319
673.70 2.283364
673.80 2.30529
673.90 2.335225
674.00 2.371965
674.10 2.399964
674.20 2.398951
674.30 2.408188
674.40 2.429347
674.50 2.440779
674.60 2.435746
674.70 2.387247
674.80 2.291965
674.90 2.172314
675.00 2.077698
675.10 2.048957
675.20 2.078622
675.30 2.146545
675.40 2.203856
675.50 2.224595
675.60 2.238921
675.70 2.264021
675.80 2.276775
675.90 2.279921
676.00 2.264357
676.10 2.253139
676.20 2.276406
676.30 2.315484
676.40 2.356186
676.50 2.411252
676.60 2.46887
676.70 2.505496
676.80 2.507889
676.90 2.493079
677.00 2.470778
677.10 2.488486
677.20 2.505103
677.30 2.497033
677.40 2.511697
677.50 2.543353
677.60 2.595872
677.70 2.643686
677.80 2.630857
677.90 2.600873
678.00 2.571559
678.10 2.527118
678.20 2.4712
678.30 2.350371
678.40 2.210473
678.50 2.115423
678.60 2.08695
678.70 2.116559
678.80 2.117959
678.90 2.102943
679.00 2.117787
679.10 2.165071
679.20 2.233986
679.30 2.245658
679.40 2.211184
679.50 2.207549
679.60 2.243432
679.70 2.274366
679.80 2.261951
679.90 2.24767
680.00 2.291106
680.10 2.349414
680.20 2.379768
680.30 2.385668
680.40 2.37626
680.50 2.347329
680.60 2.309104
680.70 2.307763
680.80 2.340878
680.90 2.366295
681.00 2.36381
681.10 2.375346
681.20 2.400987
681.30 2.440063
681.40 2.475846
681.50 2.470838
681.60 2.411669
681.70 2.313539
681.80 2.240124
681.90 2.240841
682.00 2.28387
682.10 2.309148
682.20 2.337965
682.30 2.346632
682.40 2.338181
682.50 2.335634
682.60 2.355415
682.70 2.37937
682.80 2.396908
682.90 2.43854
683.00 2.459076
683.10 2.460099
683.20 2.440219
683.30 2.441367
683.40 2.47759
683.50 2.49735
683.60 2.502425
683.70 2.446902
683.80 2.428164
683.90 2.456624
684.00 2.472389
684.10 2.491768
684.20 2.502566
684.30 2.51805
684.40 2.527583
684.50 2.534747
684.60 2.55762
684.70 2.545062
684.80 2.485584
684.90 2.466392
685.00 2.471567
685.10 2.45394
685.20 2.373821
685.30 2.277173
685.40 2.256374
685.50 2.300857
685.60 2.323952
685.70 2.312233
685.80 2.316684
685.90 2.330256
686.00 2.32683
686.10 2.308227
686.20 2.311162
686.30 2.337161
686.40 2.387935
686.50 2.470923
686.60 2.54075
686.70 2.545108
686.80 2.513777
686.90 2.450304
687.00 2.364629
687.10 2.313793
687.20 2.346077
687.30 2.42645
687.40 2.481427
687.50 2.517713
687.60 2.577906
687.70 2.632306
687.80 2.670077
687.90 2.701684
688.00 2.698512
688.10 2.68404
688.20 2.659673
688.30 2.625745
688.40 2.586878
688.50 2.537739
688.60 2.490078
688.70 2.477537
688.80 2.506307
688.90 2.57978
689.00 2.649642
689.10 2.673283
689.20 2.664408
689.30 2.661187
689.40 2.682661
689.50 2.736529
689.60 2.770212
689.70 2.767492
689.80 2.761694
689.90 2.735773
690.00 2.709014
690.10 2.663226
690.20 2.551522
690.30 2.447393
690.40 2.448582
690.50 2.565993
690.60 2.727282
690.70 2.878572
690.80 2.969516
690.90 2.990602
691.00 2.992553
691.10 3.004546
691.20 3.014494
691.30 3.000073
691.40 3.004165
691.50 3.063769
691.60 3.086639
691.70 3.031857
691.80 2.928368
691.90 2.767532
692.00 2.620366
692.10 2.5946
692.20 2.730124
692.30 2.956717
692.40 3.138171
692.50 3.220674
692.60 3.230812
692.70 3.220353
692.80 3.235651
692.90 3.235977
693.00 3.252459
693.10 3.289999
693.20 3.344942
693.30 3.440528
693.40 3.483634
693.50 3.49127
693.60 3.495605
693.70 3.481631
693.80 3.467385
693.90 3.469658
694.00 3.516706
694.10 3.569463
694.20 3.633802
694.30 3.701099
694.40 3.758283
694.50 3.842949
694.60 3.876959
694.70 3.895478
694.80 3.992626
694.90 4.081498
695.00 4.100411
695.10 4.054359
695.20 3.994512
695.30 3.909726
695.40 3.847801
695.50 3.828609
695.60 3.80232
695.70 3.788744
695.80 3.771808
695.90 3.765809
696.00 3.792039
696.10 3.809103
696.20 3.799422
696.30 3.800786
696.40 3.847878
696.50 3.926203
696.60 3.975145
696.70 3.990826
696.80 3.999131
696.90 4.02228
697.00 4.023496
697.10 3.979598
697.20 3.94891
697.30 3.925966
697.40 3.941775
697.50 3.982453
697.60 4.055077
697.70 4.144739
697.80 4.180915
697.90 4.1796
698.00 4.190842
698.10 4.18677
698.20 4.178066
698.30 4.230037
698.40 4.278506
698.50 4.299811
698.60 4.334318
698.70 4.350728
698.80 4.328401
698.90 4.298781
699.00 4.259169
699.10 4.21328
699.20 4.171696
699.30 4.127042
699.40 4.117438
699.50 4.155319
699.60 4.196134
699.70 4.246038
699.80 4.27869
699.90 4.271105
700.00 4.243941
700.10 4.274639
700.20 4.354987
700.30 4.413024
700.40 4.424288
700.50 4.387378
700.60 4.328412
700.70 4.316095
700.80 4.383479
700.90 4.447297
701.00 4.46999
701.10 4.463706
701.20 4.478113
701.30 4.557618
701.40 4.688448
701.50 4.799887
701.60 4.816196
701.70 4.743332
701.80 4.673045
701.90 4.677929
702.00 4.763656
702.10 4.87798
702.20 4.93669
702.30 4.905285
702.40 4.794879
702.50 4.652535
702.60 4.543096
702.70 4.535709
702.80 4.696186
702.90 4.980119
703.00 5.242605
703.10 5.366337
703.20 5.347667
703.30 5.295831
703.40 5.279848
703.50 5.329472
703.60 5.466258
703.70 5.643375
703.80 5.770223
703.90 5.798727
704.00 5.777304
704.10 5.795563
704.20 5.87709
704.30 5.998929
704.40 6.093566
704.50 6.127443
704.60 6.133328
704.70 6.131194
704.80 6.15159
704.90 6.185973
705.00 6.191416
705.10 6.227562
705.20 6.214624
705.30 6.053812
705.40 5.660094
705.50 4.972366
705.60 4.198329
705.70 3.639744
705.80 3.428864
705.90 3.48718
706.00 3.571532
706.10 3.492244
706.20 3.345962
706.30 3.269175
706.40 3.334571
706.50 3.449845
706.60 3.529666
706.70 3.616218
706.80 3.706704
706.90 3.770642
707.00 3.786134
707.10 3.823015
707.20 3.921364
707.30 4.010893
707.40 4.042496
707.50 4.042225
707.60 4.032283
707.70 4.044167
707.80 4.036831
707.90 4.026925
708.00 4.090405
708.10 4.162913
708.20 4.179238
708.30 4.190165
708.40 4.221069
708.50 4.255966
708.60 4.265074
708.70 4.124983
708.80 3.770742
708.90 3.281557
709.00 2.828047
709.10 2.577613
709.20 2.576788
709.30 2.71271
709.40 2.832749
709.50 2.847158
709.60 2.7901
709.70 2.736361
709.80 2.760988
709.90 2.856114
710.00 2.942413
710.10 2.981425
710.20 2.984046
710.30 2.975353
710.40 2.969586
710.50 2.98089
710.60 3.030719
710.70 3.107228
710.80 3.198002
710.90 3.325914
711.00 3.461151
711.10 3.555926
711.20 3.602423
711.30 3.608552
711.40 3.604123
711.50 3.603022
711.60 3.563862
711.70 3.513471
711.80 3.530837
711.90 3.617854
712.00 3.729333
712.10 3.830944
712.20 3.904839
712.30 3.94066
712.40 3.881339
712.50 3.649569
712.60 3.227607
712.70 2.712866
712.80 2.305563
712.90 2.147078
713.00 2.200891
713.10 2.29765
713.20 2.335488
713.30 2.280418
713.40 2.211102
713.50 2.212155
713.60 2.267259
713.70 2.333091
713.80 2.370661
713.90 2.364673
714.00 2.350926
714.10 2.362973
714.20 2.426045
714.30 2.533464
714.40 2.606243
714.50 2.636028
714.60 2.631575
714.70 2.59487
714.80 2.573546
714.90 2.563174
715.00 2.578621
715.10 2.63891
715.20 2.717475
715.30 2.817329
715.40 2.899854
715.50 2.955633
715.60 3.029067
715.70 3.096734
715.80 3.103874
715.90 3.024752
716.00 2.901932
716.10 2.796733
716.20 2.748477
716.30 2.779504
716.40 2.849151
716.50 2.880894
716.60 2.868944
716.70 2.86403
716.80 2.877101
716.90 2.8902
717.00 2.928115
717.10 2.99009
717.20 3.057183
717.30 3.127025
717.40 3.166311
717.50 3.148596
717.60 3.115333
717.70 3.097325
717.80 3.100798
717.90 3.153423
718.00 3.223064
718.10 3.272943
718.20 3.308392
718.30 3.346671
718.40 3.406134
718.50 3.486525
718.60 3.559707
718.70 3.591912
718.80 3.596829
718.90 3.592985
719.00 3.613743
719.10 3.670867
719.20 3.6992
719.30 3.683875
719.40 3.678835
719.50 3.727101
719.60 3.740331
719.70 3.61042
719.80 3.400256
719.90 3.254602
720.00 3.204233
720.10 3.17291
720.20 3.142734
720.30 3.135086
720.40 3.151134
720.50 3.168373
720.60 3.180685
720.70 3.200744
720.80 3.240692
720.90 3.270627
721.00 3.274501
721.10 3.290687
721.20 3.326565
721.30 3.379697
721.40 3.448099
721.50 3.490612
721.60 3.505886
721.70 3.513816
721.80 3.55326
721.90 3.644514
722.00 3.700966
722.10 3.725268
722.20 3.760331
722.30 3.783564
722.40 3.808517
722.50 3.852468
722.60 3.923175
722.70 4.02157
722.80 4.08228
722.90 4.070726
723.00 4.005222
723.10 3.9351
723.20 3.906832
723.30 3.907592
723.40 3.921352
723.50 3.972131
723.60 4.059362
723.70 4.151298
723.80 4.21955
723.90 4.280866
724.00 4.322327
724.10 4.284212
724.20 4.213837
724.30 4.215401
724.40 4.321037
724.50 4.423198
724.60 4.399409
724.70 4.348713
724.80 4.378864
724.90 4.478252
725.00 4.609222
725.10 4.700036
725.20 4.68847
725.30 4.614955
725.40 4.566239
725.50 4.605013
725.60 4.691895
725.70 4.754817
725.80 4.792234
725.90 4.805507
726.00 4.790784
726.10 4.799756
726.20 4.856203
726.30 4.957612
726.40 5.059373
726.50 5.097903
726.60 5.088578
726.70 5.101513
726.80 5.153166
726.90 5.174096
727.00 5.132086
727.10 5.032337
727.20 4.891726
727.30 4.770498
727.40 4.778124
727.50 4.956633
727.60 5.234402
727.70 5.429403
727.80 5.310142
727.90 5.012164
728.00 4.943943
728.10 5.073088
728.20 5.126176
728.30 5.134532
728.40 5.224323
728.50 5.324943
728.60 5.357433
728.70 5.387758
728.80 5.444415
728.90 5.478363
729.00 5.508332
729.10 5.544247
729.20 5.581701
729.30 5.609255
729.40 5.589979
729.50 5.559814
729.60 5.583463
729.70 5.672142
729.80 5.779243
729.90 5.817208
730.00 5.76669
730.10 5.710484
730.20 5.744773
730.30 5.851303
730.40 5.907576
730.50 5.899075
730.60 5.890326
730.70 5.924536
730.80 6.004858
730.90 6.037132
731.00 6.020018
731.10 6.018062
731.20 6.020894
731.30 6.065262
731.40 6.159196
731.50 6.25515
731.60 6.317636
731.70 6.348766
731.80 6.362388
731.90 6.370427
732.00 6.377169
732.10 6.410283
732.20 6.404985
732.30 6.373996
732.40 6.397706
732.50 6.349913
732.60 6.204506
732.70 6.049435
732.80 5.969142
732.90 6.097997
733.00 6.307019
733.10 6.410769
733.20 6.486714
733.30 6.538145
733.40 6.561616
733.50 6.608665
733.60 6.653602
733.70 6.710669
733.80 6.763717
733.90 6.799059
734.00 6.878694
734.10 6.977429
734.20 7.007619
734.30 6.952127
734.40 6.845382
734.50 6.711953
734.60 6.632131
734.70 6.642779
734.80 6.664012
734.90 6.703837
735.00 6.774028
735.10 6.847683
735.20 6.895479
735.30 6.900525
735.40 6.883098
735.50 6.847888
735.60 6.777799
735.70 6.678408
735.80 6.619808
735.90 6.665539
736.00 6.805954
736.10 6.947223
736.20 6.978474
736.30 6.931476
736.40 6.951343
736.50 7.022858
736.60 7.064992
736.70 7.112964
736.80 7.139273
736.90 7.222789
737.00 7.356191
737.10 7.361251
737.20 7.30558
737.30 7.266217
737.40 7.264963
737.50 7.267081
737.60 7.254873
737.70 7.269731
737.80 7.31106
737.90 7.370999
738.00 7.423092
738.10 7.441099
738.20 7.413744
738.30 7.355761
738.40 7.318465
738.50 7.36519
738.60 7.440159
738.70 7.479955
738.80 7.528175
738.90 7.578218
739.00 7.615573
739.10 7.616858
739.20 7.556093
739.30 7.486709
739.40 7.442739
739.50 7.415304
739.60 7.406214
739.70 7.445419
739.80 7.491554
739.90 7.515983
740.00 7.519853
740.10 7.493839
740.20 7.482676
740.30 7.539303
740.40 7.621364
740.50 7.636404
740.60 7.59119
740.70 7.492615
740.80 7.438988
740.90 7.481925
741.00 7.538116
741.10 7.575783
741.20 7.602135
741.30 7.640413
741.40 7.678041
741.50 7.688231
741.60 7.68269
741.70 7.667799
741.80 7.611883
741.90 7.517082
742.00 7.478038
742.10 7.522799
742.20 7.59516
742.30 7.651113
742.40 7.637256
742.50 7.607837
742.60 7.643096
742.70 7.708801
742.80 7.799112
742.90 7.862602
743.00 7.868908
743.10 7.893061
743.20 7.914352
743.30 7.890304
743.40 7.825271
743.50 7.734848
743.60 7.655977
743.70 7.633633
743.80 7.703536
743.90 7.872613
744.00 8.03407
744.10 8.041347
744.20 7.913938
744.30 7.797518
744.40 7.770129
744.50 7.781651
744.60 7.764372
744.70 7.725256
744.80 7.690955
744.90 7.64656
745.00 7.600018
745.10 7.605385
745.20 7.695365
745.30 7.821843
745.40 7.883676
745.50 7.850728
745.60 7.787611
745.70 7.769238
745.80 7.840504
745.90 7.937568
746.00 7.958177
746.10 7.900673
746.20 7.820076
746.30 7.770977
746.40 7.76444
746.50 7.788605
746.60 7.838232
746.70 7.887135
746.80 7.923377
746.90 7.973596
747.00 8.033508
747.10 8.096726
747.20 8.149357
747.30 8.141762
747.40 8.063562
747.50 7.957139
747.60 7.865219
747.70 7.866328
747.80 7.967176
747.90 8.061426
748.00 8.085159
748.10 8.048764
748.20 8.011806
748.30 8.021328
748.40 8.089822
748.50 8.158874
748.60 8.152436
748.70 8.091983
748.80 7.985673
748.90 7.89096
749.00 7.913713
749.10 7.968969
749.20 7.976161
749.30 7.967516
749.40 7.935313
749.50 7.908882
749.60 7.907397
749.70 7.913877
749.80 7.990468
749.90 8.148102
750.00 8.288308
750.10 8.358618
750.20 8.363718
750.30 8.323483
750.40 8.307873
750.50 8.33453
750.60 8.315318
750.70 8.205992
750.80 8.106516
750.90 8.118489
751.00 8.236163
751.10 8.359777
751.20 8.384259
751.30 8.329704
751.40 8.277806
751.50 8.298206
751.60 8.387992
751.70 8.491234
751.80 8.539398
751.90 8.490008
752.00 8.402631
752.10 8.346227
752.20 8.349776
752.30 8.42684
752.40 8.554082
752.50 8.591781
752.60 8.463132
752.70 8.264054
752.80 8.088567
752.90 8.018896
753.00 8.070217
753.10 8.208948
753.20 8.360343
753.30 8.446487
753.40 8.47119
753.50 8.429072
753.60 8.392551
753.70 8.435815
753.80 8.500735
753.90 8.589036
754.00 8.704068
754.10 8.780948
754.20 8.807775
754.30 8.783395
754.40 8.737704
754.50 8.74581
754.60 8.785933
754.70 8.791307
754.80 8.753774
754.90 8.711195
755.00 8.708478
755.10 8.735696
755.20 8.744543
755.30 8.734691
755.40 8.723638
755.50 8.709222
755.60 8.674116
755.70 8.660037
755.80 8.690986
755.90 8.710546
756.00 8.745832
756.10 8.809022
756.20 8.809649
756.30 8.760978
756.40 8.702921
756.50 8.634903
756.60 8.568326
756.70 8.496357
756.80 8.427805
756.90 8.387475
757.00 8.409774
757.10 8.521949
757.20 8.699128
757.30 8.899418
757.40 9.007528
757.50 8.996417
757.60 8.93205
757.70 8.84848
757.80 8.786481
757.90 8.733781
758.00 8.694205
758.10 8.747417
758.20 8.900063
758.30 9.039484
758.40 9.09096
758.50 9.07417
758.60 9.052735
758.70 9.026644
758.80 8.868382
758.90 8.480609
759.00 7.873101
759.10 7.231511
759.20 6.823235
759.30 6.738869
759.40 6.882745
759.50 7.064729
759.60 7.189318
759.70 7.256947
759.80 7.309416
759.90 7.393834
760.00 7.45284
760.10 7.449264
760.20 7.336814
760.30 7.13856
760.40 7.101148
760.50 7.256487
760.60 7.391866
760.70 7.413053
760.80 7.310842
760.90 7.230894
761.00 7.251552
761.10 7.28507
761.20 7.36673
761.30 7.587089
761.40 7.840069
761.50 7.925567
761.60 7.841116
761.70 7.720192
761.80 7.784133
761.90 8.023497
762.00 8.224075
762.10 8.28915
762.20 8.222407
762.30 8.092292
762.40 8.013202
762.50 8.038263
762.60 8.029042
762.70 7.847133
762.80 7.465017
762.90 6.951497
763.00 6.490605
763.10 6.218231
763.20 6.199995
763.30 6.363571
763.40 6.534484
763.50 6.609641
763.60 6.551403
763.70 6.488828
763.80 6.515567
763.90 6.580343
764.00 6.605739
764.10 6.520769
764.20 6.444153
764.30 6.550029
764.40 6.701502
764.50 6.712852
764.60 6.586917
764.70 6.485182
764.80 6.591287
764.90 6.756416
765.00 6.743266
765.10 6.597078
765.20 6.4912
765.30 6.52573
765.40 6.601497
765.50 6.557254
765.60 6.444593
765.70 6.465412
765.80 6.63441
765.90 6.756589
766.00 6.647288
766.10 6.314387
766.20 5.897555
766.30 5.450029
766.40 4.911936
766.50 4.218875
766.60 3.526267
766.70 3.172563
766.80 3.300396
766.90 3.801751
767.00 4.404214
767.10 4.82763
767.20 4.979447
767.30 4.918653
767.40 4.833931
767.50 4.8515
767.60 4.976369
767.70 5.110523
767.80 5.192059
767.90 5.290613
768.00 5.390774
768.10 5.456624
768.20 5.506704
768.30 5.531531
768.40 5.54094
768.50 5.552002
768.60 5.565941
768.70 5.592633
768.80 5.642606
768.90 5.68823
769.00 5.691552
769.10 5.689399
769.20 5.707468
769.30 5.727634
769.40 5.745962
769.50 5.727103
769.60 5.599716
769.70 5.293101
769.80 4.811526
769.90 4.218817
770.00 3.688249
770.10 3.491736
770.20 3.71874
770.30 4.247076
770.40 4.801409
770.50 5.158407
770.60 5.291534
770.70 5.276087
770.80 5.252039
770.90 5.298884
771.00 5.410665
771.10 5.552571
771.20 5.688368
771.30 5.790823
771.40 5.864566
771.50 5.835607
771.60 5.733096
771.70 5.754395
771.80 5.867789
771.90 5.956578
772.00 5.936694
772.10 5.844514
772.20 5.880021
772.30 6.006139
772.40 6.079406
772.50 6.085814
772.60 6.104661
772.70 6.196758
772.80 6.279116
772.90 6.307266
773.00 6.341121
773.10 6.378891
773.20 6.397585
773.30 6.414877
773.40 6.453486
773.50 6.516978
773.60 6.578196
773.70 6.615434
773.80 6.62197
773.90 6.634105
774.00 6.674943
774.10 6.696374
774.20 6.664077
774.30 6.574899
774.40 6.440624
774.50 6.297672
774.60 6.167218
774.70 6.059345
774.80 5.977149
774.90 5.899737
775.00 5.8509
775.10 5.751822
775.20 5.55959
775.30 5.460705
775.40 5.489379
775.50 5.572581
775.60 5.688788
775.70 5.758188
775.80 5.725514
775.90 5.682122
776.00 5.753464
776.10 5.828486
776.20 5.833544
776.30 5.817581
776.40 5.769108
776.50 5.750455
776.60 5.76826
776.70 5.785764
776.80 5.865009
776.90 6.002986
777.00 6.100941
777.10 6.128358
777.20 6.129304
777.30 6.147075
777.40 6.20191
777.50 6.251564
777.60 6.27472
777.70 6.290332
777.80 6.300064
777.90 6.291462
778.00 6.296163
778.10 6.298281
778.20 6.214085
778.30 6.073499
778.40 5.943336
778.50 5.837788
778.60 5.775153
778.70 5.758307
778.80 5.778187
778.90 5.833312
779.00 5.88398
779.10 5.904329
779.20 5.958802
779.30 6.102564
779.40 6.280056
779.50 6.38982
779.60 6.405919
779.70 6.315758
779.80 6.180796
779.90 6.101799
780.00 6.055828
780.10 6.021646
780.20 6.008662
780.30 6.072927
780.40 6.254166
780.50 6.451528
780.60 6.61757
780.70 6.767613
780.80 6.865242
780.90 6.918298
781.00 6.909278
781.10 6.819259
781.20 6.739524
781.30 6.726965
781.40 6.770187
781.50 6.858438
781.60 6.947628
781.70 6.995115
781.80 7.004519
781.90 6.99301
782.00 6.992631
782.10 7.011696
782.20 6.965709
782.30 6.791697
782.40 6.598658
782.50 6.536323
782.60 6.588086
782.70 6.621595
782.80 6.547192
782.90 6.3603
783.00 6.142992
783.10 6.017377
783.20 6.004577
783.30 6.057785
783.40 6.152297
783.50 6.220432
783.60 6.241913
783.70 6.270245
783.80 6.320868
783.90 6.399048
784.00 6.471363
784.10 6.479312
784.20 6.471324
784.30 6.489369
784.40 6.496973
784.50 6.503126
784.60 6.559142
784.70 6.654329
784.80 6.72838
784.90 6.739193
785.00 6.731716
785.10 6.767228
785.20 6.825236
785.30 6.880217
785.40 6.922285
785.50 6.904717
785.60 6.859423
785.70 6.87226
785.80 6.871077
785.90 6.86928
786.00 6.936113
786.10 6.957709
786.20 6.895042
786.30 6.793064
786.40 6.675141
786.50 6.628059
786.60 6.658023
786.70 6.732367
786.80 6.863245
786.90 6.977795
787.00 7.011362
787.10 6.948174
787.20 6.843554
787.30 6.799238
787.40 6.795427
787.50 6.804988
787.60 6.850686
787.70 6.95175
787.80 7.076152
787.90 7.14026
788.00 7.168526
788.10 7.217447
788.20 7.296436
788.30 7.352766
788.40 7.327239
788.50 7.286115
788.60 7.290765
788.70 7.314006
788.80 7.341528
788.90 7.386414
789.00 7.447123
789.10 7.502427
789.20 7.526302
789.30 7.50312
789.40 7.478243
789.50 7.490632
789.60 7.494033
789.70 7.484124
789.80 7.481597
789.90 7.457695
790.00 7.39054
790.10 7.286898
790.20 7.199094
790.30 7.183541
790.40 7.251101
790.50 7.357791
790.60 7.446299
790.70 7.449573
790.80 7.3248
790.90 7.130673
791.00 6.944802
791.10 6.844077
791.20 6.897102
791.30 7.048067
791.40 7.16356
791.50 7.214058
791.60 7.221045
791.70 7.168001
791.80 7.148729
791.90 7.182949
792.00 7.197141
792.10 7.214526
792.20 7.238768
792.30 7.257103
792.40 7.243715
792.50 7.207703
792.60 7.214105
792.70 7.239583
792.80 7.267065
792.90 7.312221
793.00 7.379146
793.10 7.498038
793.20 7.63098
793.30 7.717204
793.40 7.774401
793.50 7.770519
793.60 7.706482
793.70 7.669166
793.80 7.671347
793.90 7.680087
794.00 7.66774
794.10 7.612286
794.20 7.529643
794.30 7.475612
794.40 7.512773
794.50 7.605636
794.60 7.617474
794.70 7.493456
794.80 7.319941
794.90 7.232457
795.00 7.26882
795.10 7.362592
795.20 7.495231
795.30 7.64913
795.40 7.767683
795.50 7.836457
795.60 7.890126
795.70 7.949402
795.80 7.982212
795.90 7.960663
796.00 7.902846
796.10 7.816419
796.20 7.7253
796.30 7.729383
796.40 7.918683
796.50 8.18227
796.60 8.265269
796.70 8.156999
796.80 8.039541
796.90 8.019674
797.00 8.096338
797.10 8.165365
797.20 8.179955
797.30 8.150632
797.40 8.107458
797.50 8.120589
797.60 8.169338
797.70 8.212072
797.80 8.244692
797.90 8.233859
798.00 8.198669
798.10 8.179875
798.20 8.138052
798.30 8.080204
798.40 8.065586
798.50 8.088161
798.60 8.082794
798.70 8.031493
798.80 7.974299
798.90 7.921081
799.00 7.904057
799.10 7.985007
799.20 8.144036
799.30 8.339076
799.40 8.514213
799.50 8.512232
799.60 8.341264
799.70 8.191504
799.80 8.096715
799.90 8.02523
800.00 8.028175
800.10 8.074378
800.20 8.11549
800.30 8.185206
800.40 8.271551
800.50 8.335472
800.60 8.361182
800.70 8.354943
800.80 8.347015
800.90 8.361983
801.00 8.413443
801.10 8.462841
801.20 8.480239
801.30 8.520814
801.40 8.599806
801.50 8.647486
801.60 8.642792
801.70 8.606614
801.80 8.555732
801.90 8.578262
802.00 8.668391
802.10 8.668035
802.20 8.564873
802.30 8.498077
802.40 8.493122
802.50 8.531219
802.60 8.641808
802.70 8.722364
802.80 8.710132
802.90 8.716123
803.00 8.755703
803.10 8.789043
803.20 8.837621
803.30 8.87056
803.40 8.88081
803.50 8.921838
803.60 8.951725
803.70 8.917318
803.80 8.878203
803.90 8.880616
804.00 8.887639
804.10 8.867578
804.20 8.835154
804.30 8.835317
804.40 8.904552
804.50 9.001646
804.60 9.040011
804.70 8.986799
804.80 8.893532
804.90 8.837416
805.00 8.877931
805.10 9.036643
805.20 9.231191
805.30 9.36181
805.40 9.417017
805.50 9.415898
805.60 9.396815
805.70 9.399571
805.80 9.401474
805.90 9.359006
806.00 9.326861
806.10 9.398456
806.20 9.523151
806.30 9.598734
806.40 9.60466
806.50 9.530811
806.60 9.410864
806.70 9.336777
806.80 9.33808
806.90 9.343208
807.00 9.29904
807.10 9.272196
807.20 9.299107
807.30 9.345465
807.40 9.430124
807.50 9.513887
807.60 9.538946
807.70 9.565637
807.80 9.604325
807.90 9.605791
808.00 9.595622
808.10 9.601572
808.20 9.609879
808.30 9.631827
808.40 9.69242
808.50 9.749432
808.60 9.748838
808.70 9.714829
808.80 9.693956
808.90 9.71089
809.00 9.769722
809.10 9.818417
809.20 9.816632
809.30 9.816505
809.40 9.835523
809.50 9.826312
809.60 9.800072
809.70 9.782265
809.80 9.776198
809.90 9.79155
810.00 9.807442
810.10 9.798924
810.20 9.784525
810.30 9.763188
810.40 9.743226
810.50 9.771677
810.60 9.797452
810.70 9.763046
810.80 9.748034
810.90 9.798489
811.00 9.868959
811.10 9.919855
811.20 9.923311
811.30 9.910185
811.40 9.934666
811.50 9.961176
811.60 9.922377
811.70 9.785061
811.80 9.595895
811.90 9.504318
812.00 9.584964
812.10 9.77121
812.20 9.970456
812.30 10.07325
812.40 10.05971
812.50 10.03368
812.60 10.04558
812.70 10.10857
812.80 10.18289
812.90 10.18333
813.00 10.16226
813.10 10.17685
813.20 10.1643
813.30 10.12609
813.40 10.10925
813.50 10.08583
813.60 10.06112
813.70 10.08943
813.80 10.15873
813.90 10.23647
814.00 10.29476
814.10 10.30417
814.20 10.25183
814.30 10.15025
814.40 10.05718
814.50 10.01039
814.60 10.00829
814.70 10.05779
814.80 10.10441
814.90 10.05994
815.00 9.97544
815.10 9.9654
815.20 10.02838
815.30 10.11596
815.40 10.1738
815.50 10.15691
815.60 10.10676
815.70 10.08205
815.80 10.06938
815.90 10.03818
816.00 9.99341
816.10 9.953373
816.20 9.91634
816.30 9.863644
816.40 9.836474
816.50 9.866516
816.60 9.91809
816.70 10.04014
816.80 10.21433
816.90 10.29116
817.00 10.25126
817.10 10.15979
817.20 10.07447
817.30 10.05693
817.40 10.0927
817.50 10.12493
817.60 10.11404
817.70 10.03627
817.80 9.890765
817.90 9.738883
818.00 9.64932
818.10 9.482905
818.20 9.027922
818.30 8.223123
818.40 7.257233
818.50 6.637499
818.60 6.685913
818.70 7.301565
818.80 8.152251
818.90 8.807419
819.00 9.10836
819.10 9.16757
819.20 9.05417
819.30 8.716692
819.40 8.04608
819.50 7.094655
819.60 6.256415
819.70 5.936787
819.80 6.238484
819.90 6.985729
820.00 7.786205
820.10 8.38153
820.20 8.812661
820.30 9.160626
820.40 9.412009
820.50 9.524221
820.60 9.502685
820.70 9.412406
820.80 9.356666
820.90 9.371809
821.00 9.436602
821.10 9.547677
821.20 9.670231
821.30 9.742652
821.40 9.751384
821.50 9.736171
821.60 9.744401
821.70 9.761721
821.80 9.752096
821.90 9.72372
822.00 9.682357
822.10 9.64891
822.20 9.652846
822.30 9.690239
822.40 9.75218
822.50 9.835112
822.60 9.915384
822.70 9.945867
822.80 9.938268
822.90 9.952236
823.00 9.997476
823.10 10.06184
823.20 10.10733
823.30 10.06873
823.40 9.96192
823.50 9.874253
823.60 9.843852
823.70 9.885357
823.80 9.98619
823.90 10.0919
824.00 10.22455
824.10 10.35767
824.20 10.36777
824.30 10.27105
824.40 10.16153
824.50 10.08941
824.60 10.12086
824.70 10.26061
824.80 10.44129
824.90 10.60427
825.00 10.68949
825.10 10.67122
825.20 10.57384
825.30 10.42787
825.40 10.27293
825.50 10.12727
825.60 9.986697
825.70 9.851036
825.80 9.747394
825.90 9.741837
826.00 9.850593
826.10 10.04114
826.20 10.24711
826.30 10.35977
826.40 10.39009
826.50 10.41968
826.60 10.45359
826.70 10.50069
826.80 10.55708
826.90 10.5719
827.00 10.5251
827.10 10.41792
827.20 10.2462
827.30 10.0326
827.40 9.811378
827.50 9.630564
827.60 9.572835
827.70 9.642904
827.80 9.772562
827.90 9.912971
828.00 9.981575
828.10 9.968225
828.20 9.938317
828.30 9.88807
828.40 9.834902
828.50 9.809539
828.60 9.821797
828.70 9.910091
828.80 9.993133
828.90 9.935417
829.00 9.747889
829.10 9.533158
829.20 9.406751
829.30 9.417887
829.40 9.468587
829.50 9.503398
829.60 9.57075
829.70 9.651935
829.80 9.75393
829.90 9.930044
830.00 9.949829
830.10 9.778552
830.20 9.607274
830.30 9.503657
830.40 9.40004
830.50 9.352268
830.60 9.304497
830.70 9.292057
830.80 9.279617
830.90 9.446918
831.00 9.614219
831.10 9.688932
831.20 9.763645
831.30 9.72902
831.40 9.694396
831.50 9.690578
831.60 9.686761
831.70 9.684704
831.80 9.682648
831.90 9.681217
832.00 9.679786
832.10 9.690924
832.20 9.702062
832.30 9.711667
832.40 9.721273
832.50 9.705852
832.60 9.69043
832.70 9.506004
832.80 9.321578
832.90 9.263364
833.00 9.20515
833.10 9.364642
833.20 9.524135
833.30 9.635622
833.40 9.747109
833.50 9.611625
833.60 9.476141
833.70 9.449334
833.80 9.422528
833.90 9.525063
834.00 9.627599
834.10 9.711202
834.20 9.794804
834.30 9.937983
834.40 10.08116
834.50 10.14384
834.60 10.20652
834.70 9.953033
834.80 9.699545
834.90 9.548514
835.00 9.397482
835.10 9.513098
835.20 9.628713
835.30 9.638254
835.40 9.647795
835.50 9.628358
835.60 9.60892
835.70 9.627911
835.80 9.646902
835.90 9.693166
836.00 9.739431
836.10 9.733405
836.20 9.72738
836.30 9.627724
836.40 9.528068
836.50 9.415894
836.60 9.30372
836.70 9.367933
836.80 9.432147
836.90 9.601555
837.00 9.770963
837.10 9.829042
837.20 9.887122
837.30 9.820737
837.40 9.754353
837.50 9.594402
837.60 9.43445
837.70 9.289621
837.80 9.144791
837.90 9.137799
838.00 9.130806
838.10 9.177406
838.20 9.224006
838.30 9.161224
838.40 9.098443
838.50 9.000749
838.60 8.903055
838.70 8.823562
838.80 8.744069
838.90 8.68686
839.00 8.629651
839.10 8.803919
839.20 8.978187
839.30 9.187115
839.40 9.396042
839.50 9.364457
839.60 9.332871
839.70 9.340856
839.80 9.348841
839.90 9.408278
840.00 9.467715
840.10 9.394554
840.20 9.45476
840.30 9.55618
840.40 9.623904
840.50 9.663539
840.60 9.704435
840.70 9.754347
840.80 9.794972
840.90 9.818938
841.00 9.833697
841.10 9.752661
841.20 9.588722
841.30 9.424
841.40 9.336123
841.50 9.274901
841.60 9.417295
841.70 9.615485
841.80 9.728651
841.90 9.778859
842.00 9.774555
842.10 9.634813
842.20 9.489279
842.30 9.458654
842.40 9.400336
842.50 9.271555
842.60 9.111852
842.70 8.987884
842.80 8.917933
842.90 8.915311
843.00 9.036629
843.10 9.163633
843.20 9.123372
843.30 9.01474
843.40 8.780264
843.50 8.303374
843.60 7.84376
843.70 7.694738
843.80 7.515308
843.90 7.716922
844.00 8.139029
844.10 8.463471
844.20 8.636795
844.30 8.793873
844.40 8.709324
844.50 8.608383
844.60 8.579791
844.70 8.554892
844.80 8.577746
844.90 8.731715
845.00 8.811063
845.10 8.639058
845.20 8.511183
845.30 8.310687
845.40 8.080012
845.50 7.936922
845.60 7.875917
845.70 7.803319
845.80 7.802179
845.90 7.795198
846.00 7.843645
846.10 7.91705
846.20 7.971454
846.30 8.009269
846.40 8.023344
846.50 7.986351
846.60 7.93523
846.70 7.817099
846.80 7.676426
846.90 7.59116
847.00 7.576325
847.10 7.576301
847.20 7.626079
847.30 7.692095
847.40 7.715814
847.50 7.735674
847.60 7.767798
847.70 7.812921
847.80 7.850232
847.90 7.891715
848.00 7.94252
848.10 7.957309
848.20 7.983229
848.30 8.040804
848.40 8.115341
848.50 8.176883
848.60 8.225591
848.70 8.27069
848.80 8.283196
848.90 8.284664
849.00 8.301773
849.10 8.346159
849.20 8.400824
849.30 8.450846
849.40 8.479808
849.50 8.439351
849.60 8.387076
849.70 8.392327
849.80 8.434629
849.90 8.478142
850.00 8.487418
850.10 8.563089
850.20 8.49115
850.30 8.401459
850.40 8.276957
850.50 8.152326
850.60 8.026502
850.70 7.934759
850.80 7.85377
850.90 7.886648
851.00 7.871755
851.10 7.909544
851.20 7.988855
851.30 8.019946
851.40 7.959496
851.50 7.892302
851.60 7.773722
851.70 7.677283
851.80 7.632839
851.90 7.61248
852.00 7.636388
852.10 7.704097
852.20 7.759685
852.30 7.827719
852.40 7.856257
852.50 7.905068
852.60 7.98097
852.70 8.055162
852.80 8.135127
852.90 8.205859
853.00 8.165747
853.10 8.118275
853.20 8.137111
853.30 8.181913
853.40 8.225591
853.50 8.25049
853.60 8.254682
853.70 8.288966
853.80 8.315484
853.90 8.277693
854.00 8.192994
854.10 8.151021
854.20 8.189116
854.30 8.241441
854.40 8.195529
854.50 8.291904
854.60 8.314526
854.70 8.312854
854.80 8.343063
854.90 8.400215
855.00 8.430536
855.10 8.505863
855.20 8.571128
855.30 8.649897
855.40 8.728944
855.50 8.761235
855.60 8.742644
855.70 8.707185
855.80 8.674834
855.90 8.658586
856.00 8.553727
856.10 8.435945
856.20 8.374409
856.30 8.336748
856.40 8.32504
856.50 8.422953
856.60 8.518886
856.70 8.65531
856.80 8.815518
856.90 8.813459
857.00 8.725905
857.10 8.675371
857.20 8.676038
857.30 8.669022
857.40 8.651352
857.50 8.62582
857.60 8.665419
857.70 8.729575
857.80 8.77911
857.90 8.829349
858.00 8.874596
858.10 8.843612
858.20 8.818672
858.30 8.779715
858.40 8.738774
858.50 8.748346
858.60 8.827176
858.70 8.905235
858.80 8.945479
858.90 8.976009
859.00 8.95748
859.10 8.925706
859.20 8.882075
859.30 8.833096
859.40 8.809738
859.50 8.86725
859.60 8.907861
859.70 8.969891
859.80 9.035465
859.90 9.057341
860.00 9.03928
860.10 9.038089
860.20 9.075481
860.30 9.111347
860.40 9.150939
860.50 9.179573
860.60 9.210064
860.70 9.25552
860.80 9.277047
860.90 9.228573
861.00 9.198053
861.10 9.123539
861.20 9.044157
861.30 8.976669
861.40 8.914255
861.50 8.869953
861.60 8.887622
861.70 8.910591
861.80 8.925408
861.90 8.910434
862.00 8.934973
862.10 9.000083
862.20 9.03448
862.30 9.031103
862.40 9.046889
862.50 9.041795
862.60 9.038308
862.70 9.059307
862.80 9.11101
862.90 9.148881
863.00 9.136454
863.10 9.109392
863.20 9.073921
863.30 9.014444
863.40 9.047924
863.50 9.145515
863.60 9.217307
863.70 9.227286
863.80 9.241437
863.90 9.231481
864.00 9.248964
864.10 9.299814
864.20 9.336643
864.30 9.344506
864.40 9.348983
864.50 9.359061
864.60 9.33097
864.70 9.312424
864.80 9.283277
864.90 9.252154
865.00 9.251567
865.10 9.278224
865.20 9.303161
865.30 9.348705
865.40 9.378296
865.50 9.352511
865.60 9.321802
865.70 9.299502
865.80 9.286124
865.90 9.237333
866.00 9.153854
866.10 9.027273
866.20 8.93251
866.30 8.866639
866.40 8.889006
866.50 8.972826
866.60 9.12921
866.70 9.242531
866.80 9.353455
866.90 9.418998
867.00 9.449717
867.10 9.463215
867.20 9.461779
867.30 9.438589
867.40 9.436071
867.50 9.411085
867.60 9.326632
867.70 9.233055
867.80 9.263682
867.90 9.38074
868.00 9.476862
868.10 9.49917
868.20 9.502434
868.30 9.428465
868.40 9.341666
868.50 9.315213
868.60 9.326271
868.70 9.285013
868.80 9.178717
868.90 9.065856
869.00 8.900559
869.10 8.763072
869.20 8.697955
869.30 8.674262
869.40 8.674129
869.50 8.676955
869.60 8.675121
869.70 8.72828
869.80 8.747904
869.90 8.804365
870.00 8.868522
870.10 8.942043
870.20 9.033075
870.30 9.124207
870.40 9.193912
870.50 9.260427
870.60 9.302708
870.70 9.352669
870.80 9.344092
870.90 9.258664
871.00 9.170548
871.10 9.09023
871.20 9.006921
871.30 8.971535
871.40 8.93793
871.50 8.909841
871.60 8.902261
871.70 8.899102
871.80 8.871166
871.90 8.835133
872.00 8.929759
872.10 9.036906
872.20 9.106299
872.30 9.138608
872.40 9.160592
872.50 9.174593
872.60 9.203611
872.70 9.325833
872.80 9.412587
872.90 9.471281
873.00 9.552613
873.10 9.597524
873.20 9.530872
873.30 9.470713
873.40 9.384772
873.50 9.285059
873.60 9.25422
873.70 9.24311
873.80 9.242828
873.90 9.274867
874.00 9.32663
874.10 9.450738
874.20 9.545987
874.30 9.652571
874.40 9.750052
874.50 9.7982
874.60 9.812035
874.70 9.821386
874.80 9.716514
874.90 9.63982
875.00 9.626727
875.10 9.581856
875.20 9.589243
875.30 9.699644
875.40 9.789901
875.50 9.79715
875.60 9.818064
875.70 9.791285
875.80 9.731744
875.90 9.752027
876.00 9.846651
876.10 9.921026
876.20 9.940497
876.30 9.986706
876.40 9.988762
876.50 9.980683
876.60 9.866416
876.70 9.672586
876.80 9.556752
876.90 9.622398
877.00 9.651044
877.10 9.765321
877.20 9.883627
877.30 9.950368
877.40 9.996577
877.50 10.06297
877.60 10.14761
877.70 10.25147
877.80 10.19234
877.90 10.19507
878.00 10.14376
878.10 10.01552
878.20 9.944822
878.30 10.02614
878.40 10.08298
878.50 10.1434
878.60 10.21727
878.70 10.24922
878.80 10.26799
878.90 10.29022
879.00 10.32206
879.10 10.34553
879.20 10.36433
879.30 10.38024
879.40 10.37341
879.50 10.35885
879.60 10.38165
879.70 10.4476
879.80 10.4747
879.90 10.48238
880.00 10.54714
880.10 10.32805
880.20 10.07853
880.30 9.901096
880.40 9.742669
880.50 9.560278
880.60 9.532088
880.70 9.497658
880.80 9.543231
880.90 9.62312
881.00 9.770863
881.10 9.922706
881.20 10.07592
881.30 10.28903
881.40 10.4957
881.50 10.61132
881.60 10.72918
881.70 10.7702
881.80 10.7462
881.90 10.71255
882.00 10.70231
882.10 10.71581
882.20 10.50907
882.30 10.31774
882.40 10.08225
882.50 9.79925
882.60 9.608347
882.70 9.573555
882.80 9.566899
882.90 9.804537
883.00 10.02527
883.10 10.24853
883.20 10.47157
883.30 10.61804
883.40 10.69375
883.50 10.77591
883.60 10.79503
883.70 10.79799
883.80 10.73669
883.90 10.65956
884.00 10.61867
884.10 10.60295
884.20 10.59073
884.30 10.64438
884.40 10.75305
884.50 10.6971
884.60 10.61816
884.70 10.54119
884.80 10.44237
884.90 10.3271
885.00 10.28436
885.10 10.21725
885.20 10.36897
885.30 10.50046
885.40 10.60467
885.50 10.76831
885.60 10.8896
885.70 10.81784
885.80 10.80446
885.90 10.56982
886.00 10.3359
886.10 10.04403
886.20 9.699227
886.30 9.461169
886.40 9.405765
886.50 9.293068
886.60 9.460398
886.70 9.624297
886.80 9.635267
886.90 9.645229
887.00 9.578711
887.10 9.356133
887.20 9.171953
887.30 9.030545
887.40 8.807872
887.50 8.82326
887.60 8.884149
887.70 8.971771
887.80 9.122191
887.90 9.272463
888.00 9.406725
888.10 9.562275
888.20 9.57018
888.30 9.600581
888.40 9.607836
888.50 9.533515
888.60 9.454271
888.70 9.441094
888.80 9.398149
888.90 9.455422
889.00 9.526201
889.10 9.601597
889.20 9.686875
889.30 9.745487
889.40 9.710789
889.50 9.679735
889.60 9.595396
889.70 9.530731
889.80 9.512976
889.90 9.47713
890.00 9.452888
890.10 9.556331
890.20 9.621834
890.30 9.751892
890.40 9.916236
890.50 9.997565
890.60 10.07138
890.70 10.13635
890.80 10.16102
890.90 10.17706
891.00 10.10588
891.10 10.04152
891.20 9.99925
891.30 9.930908
891.40 9.909481
891.50 9.996558
891.60 10.05912
891.70 10.07518
891.80 10.12264
891.90 10.11641
892.00 10.09105
892.10 10.0778
892.20 10.09091
892.30 10.10221
892.40 10.04355
892.50 9.999258
892.60 10.01172
892.70 10.02105
892.80 10.03694
892.90 10.0565
893.00 10.07597
893.10 10.12551
893.20 10.14032
893.30 10.20056
893.40 10.28757
893.50 10.32706
893.60 10.38779
893.70 10.39917
893.80 10.21722
893.90 10.08876
894.00 9.996255
894.10 9.811777
894.20 9.746505
894.30 9.741946
894.40 9.753835
894.50 9.782236
894.60 9.789578
894.70 9.806474
894.80 9.80853
894.90 9.830495
895.00 9.890649
895.10 9.938412
895.20 9.94842
895.30 9.97694
895.40 9.946026
895.50 9.867591
895.60 9.891609
895.70 9.952888
895.80 10.01603
895.90 10.07505
896.00 10.12994
896.10 10.12196
896.20 10.1229
896.30 10.08056
896.40 10.02672
896.50 9.971705
896.60 9.948382
896.70 9.963903
896.80 10.00283
896.90 10.00838
897.00 10.06768
897.10 10.11101
897.20 10.10705
897.30 10.09982
897.40 10.11387
897.50 10.13915
897.60 10.15649
897.70 10.24531
897.80 10.33465
897.90 10.3291
898.00 10.30456
898.10 10.30984
898.20 10.29357
898.30 10.26904
898.40 10.38554
898.50 10.42146
898.60 10.48329
898.70 10.59047
898.80 10.61279
898.90 10.5344
899.00 10.50007
899.10 10.43878
899.20 10.36308
899.30 10.40794
899.40 10.46837
899.50 10.49839
899.60 10.50475
899.70 10.47169
899.80 10.39568
899.90 10.33512
900.00 10.20558
900.10 10.03834
900.20 10.01735
900.30 10.12688
900.40 10.25412
900.50 10.46713
900.60 10.67214
900.70 10.69488
900.80 10.77372
900.90 10.68821
901.00 10.48565
901.10 10.35246
901.20 10.32177
901.30 10.24243
901.40 10.26731
901.50 10.32214
901.60 10.3289
901.70 10.3469
901.80 10.33588
901.90 10.22057
902.00 10.07976
902.10 10.02457
902.20 9.990118
902.30 9.988174
902.40 9.995611
902.50 9.980179
902.60 9.916826
902.70 9.845529
902.80 9.786413
902.90 9.721514
903.00 9.817138
903.10 9.946303
903.20 10.09105
903.30 10.2318
903.40 10.34597
903.50 10.43785
903.60 10.542
903.70 10.56461
903.80 10.56615
903.90 10.59647
904.00 10.6808
904.10 10.75309
904.20 10.74108
904.30 10.76521
904.40 10.73117
904.50 10.66243
904.60 10.64705
904.70 10.65517
904.80 10.66556
904.90 10.75433
905.00 10.86422
905.10 10.78927
905.20 10.77655
905.30 10.73258
905.40 10.6508
905.50 10.58195
905.60 10.53981
905.70 10.49507
905.80 10.55061
905.90 10.60157
906.00 10.62447
906.10 10.62573
906.20 10.63283
906.30 10.67259
906.40 10.68176
906.50 10.6646
906.60 10.68835
906.70 10.68834
906.80 10.68145
906.90 10.67481
907.00 10.64671
907.10 10.59221
907.20 10.56899
907.30 10.53684
907.40 10.53016
907.50 10.54165
907.60 10.57913
907.70 10.63246
907.80 10.72417
907.90 10.86535
908.00 10.95875
908.10 10.98651
908.20 11.06658
908.30 11.0394
908.40 10.92847
908.50 10.83615
908.60 10.80877
908.70 10.77132
908.80 10.63471
908.90 10.51784
909.00 10.46502
909.10 10.39851
909.20 10.39684
909.30 10.5088
909.40 10.62337
909.50 10.77354
909.60 10.93779
909.70 10.99913
909.80 11.02694
909.90 11.02255
910.00 10.99843
910.10 10.98356
910.20 11.01149
910.30 11.06064
910.40 11.02811
910.50 11.00675
910.60 10.97087
910.70 10.89228
910.80 10.81361
910.90 10.78284
911.00 10.71193
911.10 10.79441
911.20 10.90079
911.30 11.01388
911.40 11.15017
911.50 11.226
911.60 11.16302
911.70 11.12896
911.80 11.06194
911.90 10.96626
912.00 10.91777
912.10 10.88382
912.20 10.89757
912.30 10.9972
912.40 11.09083
912.50 11.07444
912.60 11.07195
912.70 11.06713
912.80 11.05405
912.90 11.05805
913.00 11.09296
913.10 11.12591
913.20 11.14259
913.30 11.14485
913.40 11.14303
913.50 11.15338
913.60 11.14762
913.70 11.14113
913.80 11.14251
913.90 10.99891
914.00 10.86861
914.10 10.8681
914.20 10.80378
914.30 10.78824
914.40 10.81659
914.50 10.8579
914.60 10.97333
914.70 11.10847
914.80 11.07463
914.90 11.08235
915.00 11.08932
915.10 11.06484
915.20 11.05798
915.30 11.0995
915.40 11.09077
915.50 11.09259
915.60 11.08679
915.70 11.16429
915.80 11.32071
915.90 11.40994
916.00 11.33708
916.10 11.28963
916.20 11.24139
916.30 11.199
916.40 11.19096
916.50 11.14636
916.60 11.1511
916.70 11.24571
916.80 11.30653
916.90 11.29038
917.00 11.31935
917.10 11.317
917.20 11.30743
917.30 11.28715
917.40 11.24745
917.50 11.20948
917.60 11.16383
917.70 11.1149
917.80 11.15634
917.90 11.20357
918.00 11.26016
918.10 11.29885
918.20 11.31893
918.30 11.36223
918.40 11.43295
918.50 11.31542
918.60 11.21107
918.70 11.20179
918.80 11.19197
918.90 11.21037
919.00 11.34649
919.10 11.45526
919.20 11.45395
919.30 11.55584
919.40 11.50662
919.50 11.40429
919.60 11.35063
919.70 11.33875
919.80 11.28807
919.90 11.36246
920.00 11.46028
920.10 11.4508
920.20 11.44157
920.30 11.46367
920.40 11.50842
920.50 11.51271
920.60 11.45879
920.70 11.42827
920.80 11.29212
920.90 11.19727
921.00 11.11467
921.10 10.96749
921.20 10.87174
921.30 11.00741
921.40 11.1231
921.50 11.2392
921.60 11.37535
921.70 11.39965
921.80 11.38305
921.90 11.35771
922.00 11.29028
922.10 11.24736
922.20 11.25923
922.30 11.27438
922.40 11.25205
922.50 11.18929
922.60 11.13594
922.70 11.13334
922.80 11.12589
922.90 11.12431
923.00 11.15966
923.10 11.06409
923.20 10.93924
923.30 10.82567
923.40 10.69434
923.50 10.56271
923.60 10.59592
923.70 10.65024
923.80 10.72073
923.90 10.79182
924.00 10.82738
924.10 10.80656
924.20 10.80122
924.30 10.92703
924.40 11.06352
924.50 11.05061
924.60 11.09378
924.70 11.07767
924.80 11.00875
924.90 10.94942
925.00 10.88592
925.10 10.78548
925.20 10.71688
925.30 10.6393
925.40 10.65301
925.50 10.67194
925.60 10.70023
925.70 10.78887
925.80 10.88322
925.90 10.95253
926.00 11.09145
926.10 11.12066
926.20 11.11967
926.30 11.13664
926.40 11.12933
926.50 11.10103
926.60 11.18605
926.70 11.22995
926.80 11.23892
926.90 11.2877
927.00 11.26492
927.10 11.18507
927.20 11.14158
927.30 11.12628
927.40 11.10666
927.50 11.01865
927.60 10.91944
927.70 10.82087
927.80 10.73543
927.90 10.67367
928.00 10.60712
928.10 10.51312
928.20 10.58866
928.30 10.64467
928.40 10.68821
928.50 10.74376
928.60 10.77167
928.70 10.78153
928.80 10.82561
928.90 10.76262
929.00 10.66463
929.10 10.55846
929.20 10.45504
929.30 10.42944
929.40 10.47551
929.50 10.51769
929.60 10.53298
929.70 10.54542
929.80 10.53883
929.90 10.56133
930.00 10.57894
930.10 10.57237
930.20 10.56034
930.30 10.49933
930.40 10.42016
930.50 10.44263
930.60 10.48313
930.70 10.55024
930.80 10.59543
930.90 10.57145
931.00 10.5245
931.10 10.48923
931.20 10.57563
931.30 10.69051
931.40 10.78143
931.50 10.84284
931.60 10.9176
931.70 10.84101
931.80 10.69282
931.90 10.59322
932.00 10.58421
932.10 10.56435
932.20 10.53758
932.30 10.62342
932.40 10.70301
932.50 10.71241
932.60 10.60164
932.70 10.51956
932.80 10.4951
932.90 10.49336
933.00 10.47371
933.10 10.56702
933.20 10.67805
933.30 10.74608
933.40 10.66738
933.50 10.59261
933.60 10.55367
933.70 10.53699
933.80 10.52143
933.90 10.56515
934.00 10.62883
934.10 10.69431
934.20 10.80403
934.30 10.92581
934.40 10.93346
934.50 10.74925
934.60 10.57849
934.70 10.5056
934.80 10.4745
934.90 10.43682
935.00 10.52224
935.10 10.62961
935.20 10.70666
935.30 10.69873
935.40 10.68223
935.50 10.6549
935.60 10.61316
935.70 10.55756
935.80 10.50873
935.90 10.44299
936.00 10.38652
936.10 10.43479
936.20 10.47916
936.30 10.52784
936.40 10.58607
936.50 10.6845
936.60 10.71485
936.70 10.70227
936.80 10.70125
936.90 10.61992
937.00 10.53112
937.10 10.42493
937.20 10.27567
937.30 10.09816
937.40 10.07609
937.50 10.23572
937.60 10.35744
937.70 10.46151
937.80 10.56592
937.90 10.66419
938.00 10.58944
938.10 10.54915
938.20 10.54178
938.30 10.55485
938.40 10.54038
938.50 10.56597
938.60 10.63185
938.70 10.68722
938.80 10.63081
938.90 10.56225
939.00 10.52995
939.10 10.58192
939.20 10.61833
939.30 10.65236
939.40 10.69378
939.50 10.74733
939.60 10.71263
939.70 10.66212
939.80 10.62062
939.90 10.59579
940.00 10.53049
940.10 10.46984
940.20 10.45079
940.30 10.4339
940.40 10.47588
940.50 10.54493
940.60 10.61148
940.70 10.68982
940.80 10.76496
940.90 10.81404
941.00 10.78455
941.10 10.78756
941.20 10.76574
941.30 10.70218
941.40 10.66798
941.50 10.65596
941.60 10.64267
941.70 10.60686
941.80 10.56508
941.90 10.5052
942.00 10.48419
942.10 10.51909
942.20 10.55507
942.30 10.59946
942.40 10.66332
942.50 10.73191
942.60 10.78459
942.70 10.84017
942.80 10.86725
942.90 10.76357
943.00 10.6545
943.10 10.62132
943.20 10.68435
943.30 10.7224
943.40 10.81868
943.50 10.95256
943.60 11.09317
943.70 11.06366
943.80 11.05423
943.90 11.01609
944.00 10.90736
944.10 10.79184
944.20 10.68898
944.30 10.58206
944.40 10.47588
944.50 10.43894
944.60 10.39175
944.70 10.32611
944.80 10.31929
944.90 10.32638
945.00 10.37727
945.10 10.45754
945.20 10.52514
945.30 10.59328
945.40 10.67664
945.50 10.75551
945.60 10.73618
945.70 10.7267
945.80 10.72119
945.90 10.69605
946.00 10.65462
946.10 10.61229
946.20 10.56288
946.30 10.52406
946.40 10.56424
946.50 10.64669
946.60 10.73006
946.70 10.81119
946.80 10.87042
946.90 10.88916
947.00 10.85904
947.10 10.83486
947.20 10.8443
947.30 10.8759
947.40 10.9031
947.50 10.90651
947.60 10.90302
947.70 10.91243
947.80 10.95221
947.90 10.97974
948.00 11.01783
948.10 11.06345
948.20 11.12369
948.30 11.0402
948.40 10.93209
948.50 10.86643
948.60 10.96394
948.70 11.06568
948.80 11.12015
948.90 11.11204
949.00 11.08963
949.10 11.10297
949.20 11.1456
949.30 11.18605
949.40 11.14611
949.50 11.12986
949.60 11.10431
949.70 11.02639
949.80 10.90195
949.90 10.89668
950.00 10.9812
950.10 11.06058
950.20 10.98708
950.30 10.90654
950.40 10.86044
950.50 10.88694
950.60 10.9103
950.70 10.9352
950.80 10.96981
950.90 10.9949
951.00 11.01377
951.10 11.04016
951.20 11.06611
951.30 11.08849
951.40 11.12838
951.50 11.14694
951.60 11.10727
951.70 11.04332
951.80 10.99061
951.90 10.94198
952.00 10.89542
952.10 10.91148
952.20 10.92205
952.30 10.92972
952.40 10.94959
952.50 10.95645
952.60 10.9911
952.70 11.06447
952.80 11.15007
952.90 11.1466
953.00 11.11663
953.10 11.09598
953.20 11.08464
953.30 11.0896
953.40 11.09701
953.50 11.10669
953.60 11.11622
953.70 11.10145
953.80 11.05617
953.90 11.01197
954.00 11.03001
954.10 11.05484
954.20 11.06428
954.30 11.05109
954.40 11.0303
954.50 10.95277
954.60 10.81849
954.70 10.72704
954.80 10.7228
954.90 10.72697
955.00 10.73384
955.10 10.8725
955.20 11.01362
955.30 11.11232
955.40 11.13617
955.50 11.16309
955.60 11.13821
955.70 11.08021
955.80 11.02178
955.90 11.0466
956.00 11.09097
956.10 11.13839
956.20 11.17499
956.30 11.24638
956.40 11.29407
956.50 11.30054
956.60 11.29022
956.70 11.21651
956.80 11.12005
956.90 11.03256
957.00 11.06216
957.10 11.10295
957.20 11.10374
957.30 11.06028
957.40 11.05384
957.50 11.02742
957.60 10.97487
957.70 10.92362
957.80 10.9975
957.90 11.05637
958.00 11.08248
958.10 11.05172
958.20 11.01046
958.30 10.9822
958.40 10.96716
958.50 10.97681
958.60 11.0505
958.70 11.15739
958.80 11.24902
958.90 11.22837
959.00 11.21091
959.10 11.18035
959.20 11.12098
959.30 11.01659
959.40 10.95736
959.50 10.94302
959.60 10.93057
959.70 10.86629
959.80 10.82108
959.90 10.72069
960.00 10.52095
960.10 10.28788
960.20 10.28279
960.30 10.43002
960.40 10.54877
960.50 10.68087
960.60 10.85255
960.70 11.00124
960.80 11.00449
960.90 11.03049
961.00 11.06088
961.10 11.09188
961.20 11.12634
961.30 11.10678
961.40 11.06015
961.50 11.01295
961.60 11.01839
961.70 10.99548
961.80 10.99097
961.90 11.0641
962.00 11.15227
962.10 11.19621
962.20 11.21652
962.30 11.24301
962.40 11.24752
962.50 11.22942
962.60 11.198
962.70 11.16641
962.80 11.1608
962.90 11.15934
963.00 11.14982
963.10 11.14118
963.20 11.15557
963.30 11.19049
963.40 11.22045
963.50 11.19892
963.60 11.20418
963.70 11.0401
963.80 10.5939
963.90 10.17957
964.00 9.9686
964.10 9.810676
964.20 9.658625
964.30 9.971168
964.40 10.34942
964.50 10.60777
964.60 10.49942
964.70 10.46367
964.80 10.3625
964.90 10.20673
965.00 10.06597
965.10 10.18196
965.20 10.36194
965.30 10.53548
965.40 10.67802
965.50 10.81272
965.60 10.91285
965.70 10.9771
965.80 11.05514
965.90 11.10757
966.00 11.1453
966.10 11.15836
966.20 11.16065
966.30 11.17397
966.40 11.16919
966.50 11.08904
966.60 11.03227
966.70 11.00996
966.80 11.00427
966.90 10.99397
967.00 10.95414
967.10 10.91639
967.20 10.86482
967.30 10.75806
967.40 10.68915
967.50 10.53394
967.60 10.26561
967.70 10.01375
967.80 10.022
967.90 10.0777
968.00 10.13169
968.10 10.41394
968.20 10.73705
968.30 10.96463
968.40 10.96336
968.50 11.01831
968.60 10.99234
968.70 10.92262
968.80 10.84215
968.90 10.693
969.00 10.4876
969.10 10.34633
969.20 10.50522
969.30 10.6121
969.40 10.73488
969.50 10.8802
969.60 11.05125
969.70 11.15185
969.80 11.24727
969.90 11.34232
970.00 11.31781
970.10 11.29459
970.20 11.22808
970.30 11.09058
970.40 10.98445
970.50 10.77124
970.60 10.48367
970.70 10.23035
970.80 10.24352
970.90 10.20372
971.00 10.24215
971.10 10.55658
971.20 10.86765
971.30 11.07015
971.40 11.17869
971.50 11.30382
971.60 11.28244
971.70 11.24752
971.80 11.21088
971.90 11.09797
972.00 10.99474
972.10 10.94608
972.20 10.97516
972.30 10.97776
972.40 11.00866
972.50 11.06328
972.60 11.0953
972.70 10.88313
972.80 10.7009
972.90 10.54043
973.00 10.41611
973.10 10.25946
973.20 10.29349
973.30 10.46148
973.40 10.5761
973.50 10.67325
973.60 10.79023
973.70 10.87538
973.80 10.84614
973.90 10.82211
974.00 10.8351
974.10 10.89958
974.20 10.96274
974.30 10.86295
974.40 10.70349
974.50 10.58917
974.60 10.58709
974.70 10.53747
974.80 10.54415
974.90 10.66904
975.00 10.78379
975.10 10.89615
975.20 11.00625
975.30 11.11178
975.40 11.10437
975.50 11.07563
975.60 11.04737
975.70 11.02843
975.80 11.026
975.90 11.04426
976.00 11.08863
976.10 11.13479
976.20 11.12289
976.30 11.08301
976.40 11.04779
976.50 11.11054
976.60 11.15742
976.70 11.1597
976.80 11.09564
976.90 11.07759
977.00 10.93106
977.10 10.71939
977.20 10.53545
977.30 10.58662
977.40 10.5901
977.50 10.62619
977.60 10.75712
977.70 10.89358
977.80 10.96523
977.90 11.00396
978.00 11.0643
978.10 10.9399
978.20 10.80822
978.30 10.64505
978.40 10.33411
978.50 9.990517
978.60 9.76217
978.70 9.686901
978.80 9.575711
978.90 9.703971
979.00 9.906361
979.10 10.10373
979.20 10.33859
979.30 10.56333
979.40 10.74179
979.50 10.84737
979.60 11.01879
979.70 11.11951
979.80 11.16374
979.90 11.21508
980.00 11.2169
980.10 11.21343
980.20 11.20292
980.30 11.18721
980.40 11.18296
980.50 11.17997
980.60 11.17647
980.70 11.17229
980.80 11.15638
980.90 11.12366
981.00 11.08839
981.10 11.12288
981.20 11.16609
981.30 11.17823
981.40 11.13434
981.50 11.12244
981.60 11.10932
981.70 11.07118
981.80 11.03023
981.90 11.05565
982.00 11.07671
982.10 11.08001
982.20 11.05957
982.30 11.05111
982.40 11.05746
982.50 11.07408
982.60 11.08172
982.70 11.07809
982.80 11.08398
982.90 11.09044
983.00 11.06153
983.10 11.04044
983.20 11.01556
983.30 10.99273
983.40 10.96296
983.50 10.92035
983.60 10.87464
983.70 10.84655
983.80 10.86262
983.90 10.84864
984.00 10.84422
984.10 10.9
984.20 10.95985
984.30 10.99531
984.40 11.02628
984.50 11.07338
984.60 11.09106
984.70 11.07919
984.80 11.05451
984.90 11.02529
985.00 11.03454
985.10 11.038
985.20 11.01712
985.30 10.99229
985.40 11.02678
985.50 11.05037
985.60 11.05497
985.70 11.05899
985.80 11.09105
985.90 11.10605
986.00 11.08549
986.10 11.07339
986.20 11.06262
986.30 11.04768
986.40 11.01988
986.50 11.01427
986.60 11.02128
986.70 11.03573
986.80 11.01915
986.90 11.02737
987.00 11.03441
987.10 11.02956
987.20 10.99865
987.30 11.04658
987.40 11.09645
987.50 11.12851
987.60 11.12572
987.70 11.16353
987.80 11.15702
987.90 11.08579
988.00 11.02817
988.10 11.02519
988.20 11.01001
988.30 10.98167
988.40 11.03816
988.50 11.08309
988.60 11.11702
988.70 11.14065
988.80 11.20987
988.90 11.21884
989.00 11.19679
989.10 11.17513
989.20 11.13957
989.30 11.11966
989.40 11.07485
989.50 10.91592
989.60 10.83159
989.70 10.6569
989.80 10.37375
989.90 10.06594
990.00 9.955388
990.10 9.863456
990.20 9.750368
990.30 9.627608
990.40 9.556618
990.50 9.441878
990.60 9.254095
990.70 9.037866
990.80 8.939681
990.90 8.849438
991.00 8.743695
991.10 8.829922
991.20 8.921952
991.30 8.951812
991.40 8.847037
991.50 8.795648
991.60 8.752873
991.70 8.69459
991.80 8.615195
991.90 8.753931
992.00 8.893789
992.10 8.994586
992.20 9.007947
992.30 9.109591
992.40 9.129361
992.50 9.042093
992.60 8.944583
992.70 8.99027
992.80 9.033002
992.90 9.061099
993.00 9.249117
993.10 9.454407
993.20 9.576833
993.30 9.561784
993.40 9.639867
993.50 9.657524
993.60 9.606791
993.70 9.518404
993.80 9.680456
993.90 9.81529
994.00 9.930259
994.10 10.0065
994.20 10.15569
994.30 10.16426
994.40 10.07541
994.50 10.01131
994.60 10.01592
994.70 10.00305
994.80 9.99553
994.90 10.05594
995.00 10.09461
995.10 10.16032
995.20 10.25669
995.30 10.3621
995.40 10.3843
995.50 10.41802
995.60 10.46128
995.70 10.3271
995.80 10.1993
995.90 10.10826
996.00 10.07913
996.10 10.0133
996.20 10.06019
996.30 10.13578
996.40 10.16738
996.50 10.32229
996.60 10.50163
996.70 10.61544
996.80 10.51042
996.90 10.56247
997.00 10.46981
997.10 10.24054
997.20 10.00078
997.30 9.926712
997.40 9.81036
997.50 9.694155
997.60 9.817895
997.70 9.918203
997.80 10.01009
997.90 10.09223
998.00 10.18613
998.10 10.25249
998.20 10.34632
998.30 10.43946
998.40 10.30491
998.50 10.18533
998.60 10.09717
998.70 10.04909
998.80 9.953642
998.90 9.941606
999.00 9.989471
999.10 10.05109
999.20 10.12276
999.30 10.16111
999.40 10.17696
999.50 10.19558
999.60 10.23695
999.70 10.23097
999.80 10.17985
999.90 10.12487
1000.00 10.19002
1000.10 10.24136
1000.20 10.27291
1000.30 10.33803
1000.40 10.44384
1000.50 10.50876
1000.60 10.50523
1000.70 10.55354
1000.80 10.47157
1000.90 10.35375
1001.00 10.26363
1001.10 10.22159
1001.20 10.1194
1001.30 10.07849
1001.40 10.22196
1001.50 10.29866
1001.60 10.41169
1001.70 10.56061
1001.80 10.71509
1001.90 10.67487
1002.00 10.66764
1002.10 10.66565
1002.20 10.61742
1002.30 10.52519
1002.40 10.49796
1002.50 10.53641
1002.60 10.57186
1002.70 10.57773
1002.80 10.62063
1002.90 10.67654
1003.00 10.63274
1003.10 10.55011
1003.20 10.48129
1003.30 10.45569
1003.40 10.45364
1003.50 10.40457
1003.60 10.32951
1003.70 10.26148
1003.80 10.30994
1003.90 10.30538
1004.00 10.3357
1004.10 10.4626
1004.20 10.55431
1004.30 10.61041
1004.40 10.6676
1004.50 10.75614
1004.60 10.75081
1004.70 10.77579
1004.80 10.77403
1004.90 10.66854
1005.00 10.63072
1005.10 10.54557
1005.20 10.39543
1005.30 10.23309
1005.40 10.11537
1005.50 9.956782
1005.60 9.789975
1005.70 9.808904
1005.80 9.773032
1005.90 9.76347
1006.00 9.808669
1006.10 9.869184
1006.20 9.895385
1006.30 9.930696
1006.40 9.994628
1006.50 10.06801
1006.60 10.09276
1006.70 10.13388
1006.80 10.25687
1006.90 10.38283
1007.00 10.45919
1007.10 10.54509
1007.20 10.68124
1007.30 10.67919
1007.40 10.61022
1007.50 10.56786
1007.60 10.6556
1007.70 10.70364
1007.80 10.71669
1007.90 10.72344
1008.00 10.76877
1008.10 10.76704
1008.20 10.74316
1008.30 10.722
1008.40 10.74212
1008.50 10.74992
1008.60 10.72919
1008.70 10.68567
1008.80 10.70213
1008.90 10.64261
1009.00 10.55414
1009.10 10.48025
1009.20 10.5015
1009.30 10.46781
1009.40 10.45781
1009.50 10.54675
1009.60 10.58878
1009.70 10.65336
1009.80 10.72582
1009.90 10.79009
1010.00 10.8744
1010.10 10.96969
1010.20 11.05091
1010.30 11.06135
1010.40 11.14715
1010.50 11.16062
1010.60 11.10055
1010.70 11.06005
1010.80 10.97065
1010.90 10.87008
1011.00 10.77684
1011.10 10.69154
1011.20 10.60989
1011.30 10.55978
1011.40 10.55321
1011.50 10.50208
1011.60 10.45493
1011.70 10.41513
1011.80 10.38103
1011.90 10.38505
1012.00 10.32507
1012.10 10.32794
1012.20 10.52825
1012.30 10.72349
1012.40 10.81907
1012.50 10.86834
1012.60 10.9476
1012.70 10.92204
1012.80 10.9019
1012.90 10.88351
1013.00 10.8757
1013.10 10.86506
1013.20 10.84012
1013.30 10.81405
1013.40 10.83759
1013.50 10.71431
1013.60 10.57077
1013.70 10.44388
1013.80 10.38625
1013.90 10.22623
1014.00 10.15772
1014.10 10.23713
1014.20 10.26625
1014.30 10.33696
1014.40 10.45775
1014.50 10.57588
1014.60 10.49235
1014.70 10.44829
1014.80 10.44603
1014.90 10.47028
1015.00 10.39481
1015.10 10.45935
1015.20 10.60374
1015.30 10.74128
1015.40 10.69806
1015.50 10.73922
1015.60 10.75319
1015.70 10.58363
1015.80 10.39563
1015.90 10.31967
1016.00 10.31267
1016.10 10.2502
1016.20 10.30962
1016.30 10.39735
1016.40 10.48384
1016.50 10.49334
1016.60 10.47923
1016.70 10.47864
1016.80 10.5166
1016.90 10.60835
1017.00 10.53746
1017.10 10.43041
1017.20 10.35532
1017.30 10.43762
1017.40 10.41833
1017.50 10.46081
1017.60 10.65105
1017.70 10.89965
1017.80 10.87335
1017.90 10.7615
1018.00 10.71543
1018.10 10.644
1018.20 10.52542
1018.30 10.40308
1018.40 10.33386
1018.50 10.27609
1018.60 10.26523
1018.70 10.26368
1018.80 10.21533
1018.90 10.3225
1019.00 10.42359
1019.10 10.49599
1019.20 10.5078
1019.30 10.57505
1019.40 10.5981
1019.50 10.56672
1019.60 10.54047
1019.70 10.54641
1019.80 10.56537
1019.90 10.58088
1020.00 10.53366
1020.10 10.49298
1020.20 10.48274
1020.30 10.51327
1020.40 10.50732
1020.50 10.55969
1020.60 10.63434
1020.70 10.70178
1020.80 10.72284
1020.90 10.766
1021.00 10.78401
1021.10 10.74113
1021.20 10.74598
1021.30 10.6874
1021.40 10.57389
1021.50 10.45935
1021.60 10.44079
1021.70 10.42512
1021.80 10.39429
1021.90 10.31979
1022.00 10.21853
1022.10 10.18459
1022.20 10.21542
1022.30 10.19517
1022.40 10.31149
1022.50 10.46636
1022.60 10.59442
1022.70 10.57985
1022.80 10.60918
1022.90 10.62395
1023.00 10.59295
1023.10 10.58509
1023.20 10.54805
1023.30 10.48277
1023.40 10.41498
1023.50 10.48716
1023.60 10.5172
1023.70 10.53237
1023.80 10.56318
1023.90 10.63093
1024.00 10.67875
1024.10 10.69572
1024.20 10.70034
1024.30 10.73903
1024.40 10.83436
1024.50 10.91157
1024.60 10.83688
1024.70 10.76981
1024.80 10.72469
1024.90 10.69984
1025.00 10.66428
1025.10 10.59044
1025.20 10.51964
1025.30 10.4701
1025.40 10.463
1025.50 10.39389
1025.60 10.37753
1025.70 10.44357
1025.80 10.53637
1025.90 10.45029
1026.00 10.3407
1026.10 10.26508
1026.20 10.1891
1026.30 10.04522
1026.40 9.992447
1026.50 10.11722
1026.60 10.16033
1026.70 10.2723
1026.80 10.41784
1026.90 10.55703
1027.00 10.57365
1027.10 10.65952
1027.20 10.71048
1027.30 10.63664
1027.40 10.6144
1027.50 10.57992
1027.60 10.52634
1027.70 10.44273
1027.80 10.44173
1027.90 10.43993
1028.00 10.42509
1028.10 10.33851
1028.20 10.28968
1028.30 10.24219
1028.40 10.18384
1028.50 10.06503
1028.60 10.14062
1028.70 10.21813
1028.80 10.26146
1028.90 10.35025
1029.00 10.52203
1029.10 10.63181
1029.20 10.59474
1029.30 10.58997
1029.40 10.57666
1029.50 10.54148
1029.60 10.49791
1029.70 10.49146
1029.80 10.50927
1029.90 10.50739
1030.00 10.4529
1030.10 10.39389
1030.20 10.3989
1030.30 10.43283
1030.40 10.44115
1030.50 10.52609
1030.60 10.60605
1030.70 10.66544
1030.80 10.62835
1030.90 10.65816
1031.00 10.6737
1031.10 10.65598
1031.20 10.61579
1031.30 10.64316
1031.40 10.68758
1031.50 10.70194
1031.60 10.64155
1031.70 10.64193
1031.80 10.62297
1031.90 10.5534
1032.00 10.45036
1032.10 10.4336
1032.20 10.45061
1032.30 10.4724
1032.40 10.43736
1032.50 10.3892
1032.60 10.37308
1032.70 10.433
1032.80 10.4085
1032.90 10.49319
1033.00 10.63635
1033.10 10.78469
1033.20 10.81019
1033.30 10.9021
1033.40 10.9359
1033.50 10.77232
1033.60 10.68798
1033.70 10.56155
1033.80 10.38942
1033.90 10.17328
1034.00 10.08217
1034.10 9.983307
1034.20 9.797905
1034.30 9.508884
1034.40 9.257818
1034.50 9.114311
1034.60 9.03922
1034.70 8.939118
1034.80 9.137611
1034.90 9.400013
1035.00 9.6536
1035.10 9.800459
1035.20 9.991296
1035.30 10.13312
1035.40 10.23665
1035.50 10.29346
1035.60 10.36158
1035.70 10.43487
1035.80 10.49623
1035.90 10.57574
1036.00 10.65038
1036.10 10.72407
1036.20 10.7913
1036.30 10.89041
1036.40 10.91115
1036.50 10.88201
1036.60 10.86041
1036.70 10.86679
1036.80 10.86383
1036.90 10.85737
1037.00 10.87976
1037.10 10.87337
1037.20 10.90255
1037.30 10.96493
1037.40 11.05317
1037.50 11.00156
1037.60 10.97909
1037.70 10.9525
1037.80 10.81559
1037.90 10.70825
1038.00 10.61223
1038.10 10.51283
1038.20 10.35105
1038.30 10.38794
1038.40 10.42534
1038.50 10.41959
1038.60 10.51159
1038.70 10.63883
1038.80 10.71031
1038.90 10.66513
1039.00 10.6666
1039.10 10.64521
1039.20 10.61343
1039.30 10.57507
1039.40 10.48215
1039.50 10.39832
1039.60 10.28869
1039.70 10.16669
1039.80 10.00784
1039.90 9.991591
1040.00 10.0501
1040.10 10.09168
1040.20 10.25276
1040.30 10.4315
1040.40 10.58968
1040.50 10.67342
1040.60 10.78298
1040.70 10.84295
1040.80 10.86353
1040.90 10.91091
1041.00 10.87231
1041.10 10.8524
1041.20 10.84128
1041.30 10.75897
1041.40 10.63872
1041.50 10.58716
1041.60 10.62124
1041.70 10.54789
1041.80 10.59704
1041.90 10.72123
1042.00 10.84437
1042.10 10.81633
1042.20 10.88551
1042.30 10.90678
1042.40 10.79999
1042.50 10.70848
1042.60 10.59646
1042.70 10.4725
1042.80 10.34702
1042.90 10.34145
1043.00 10.25031
1043.10 10.21765
1043.20 10.42041
1043.30 10.55515
1043.40 10.64893
1043.50 10.73965
1043.60 10.90012
1043.70 10.91131
1043.80 10.93427
1043.90 10.95346
1044.00 10.94662
1044.10 10.92361
1044.20 10.9206
1044.30 10.93662
1044.40 10.93895
1044.50 10.8805
1044.60 10.81701
1044.70 10.783
1044.80 10.8396
1044.90 10.85453
1045.00 10.88378
1045.10 10.94037
1045.20 10.9753
1045.30 11.03025
1045.40 11.11123
1045.50 11.21046
1045.60 11.2182
1045.70 11.27971
1045.80 11.32747
1045.90 11.29018
1046.00 11.28177
1046.10 11.23319
1046.20 11.1599
1046.30 11.06694
1046.40 11.01286
1046.50 10.94619
1046.60 10.87131
1046.70 10.77345
1046.80 10.68481
1046.90 10.59605
1047.00 10.5028
1047.10 10.38994
1047.20 10.38991
1047.30 10.37078
1047.40 10.35973
1047.50 10.44125
1047.60 10.54272
1047.70 10.60295
1047.80 10.62615
1047.90 10.67437
1048.00 10.70056
1048.10 10.6999
1048.20 10.68019
1048.30 10.74566
1048.40 10.79225
1048.50 10.81861
1048.60 10.81865
1048.70 10.8637
1048.80 10.88645
1048.90 10.89714
1049.00 10.91145
1049.10 10.9326
1049.20 10.94206
1049.30 10.9164
1049.40 10.85269
1049.50 10.84624
1049.60 10.72133
1049.70 10.51512
1049.80 10.33343
1049.90 10.38859
1050.00 10.38714
1050.10 10.43135
1050.20 10.61158
1050.30 10.80997
1050.40 10.87801
1050.50 10.87349
1050.60 10.89812
1050.70 10.88665
1050.80 10.86849
1050.90 10.83444
1051.00 10.79674
1051.10 10.79663
1051.20 10.75955
1051.30 10.66774
1051.40 10.56697
1051.50 10.53233
1051.60 10.48111
1051.70 10.41569
1051.80 10.44303
1051.90 10.48688
1052.00 10.51102
1052.10 10.49372
1052.20 10.46647
1052.30 10.49584
1052.40 10.52813
1052.50 10.53642
1052.60 10.65518
1052.70 10.78181
1052.80 10.88536
1052.90 10.93347
1053.00 11.04377
1053.10 11.05292
1053.20 10.98095
1053.30 10.89885
1053.40 10.92096
1053.50 10.93017
1053.60 10.9282
1053.70 10.90419
1053.80 10.91749
1053.90 10.91958
1054.00 10.9049
1054.10 10.87143
1054.20 10.90667
1054.30 10.938
1054.40 10.95267
1054.50 10.90265
1054.60 10.91358
1054.70 10.90458
1054.80 10.85564
1054.90 10.76982
1055.00 10.81404
1055.10 10.85119
1055.20 10.86223
1055.30 10.85207
1055.40 10.90064
1055.50 10.90867
1055.60 10.83969
1055.70 10.81071
1055.80 10.74792
1055.90 10.66233
1056.00 10.57024
1056.10 10.58005
1056.20 10.55721
1056.30 10.53629
1056.40 10.5388
1056.50 10.51869
1056.60 10.53805
1056.70 10.59079
1056.80 10.65312
1056.90 10.64336
1057.00 10.63038
1057.10 10.63746
1057.20 10.67669
1057.30 10.69254
1057.40 10.71438
1057.50 10.75033
1057.60 10.78997
1057.70 10.79259
1057.80 10.8055
1057.90 10.82874
1058.00 10.85631
1058.10 10.8727
1058.20 10.84825
1058.30 10.79994
1058.40 10.78114
1058.50 10.6369
1058.60 10.46439
1058.70 10.35313
1058.80 10.39143
1058.90 10.38386
1059.00 10.41593
1059.10 10.51291
1059.20 10.60946
1059.30 10.68157
1059.40 10.73152
1059.50 10.76183
1059.60 10.79654
1059.70 10.85203
1059.80 10.88081
1059.90 10.8272
1060.00 10.80762
1060.10 10.79158
1060.20 10.76743
1060.30 10.73389
1060.40 10.71756
1060.50 10.71261
1060.60 10.68175
1060.70 10.59849
1060.80 10.51998
1060.90 10.49399
1061.00 10.48382
1061.10 10.43836
1061.20 10.48884
1061.30 10.5398
1061.40 10.58671
1061.50 10.65003
1061.60 10.74485
1061.70 10.75624
1061.80 10.68688
1061.90 10.65216
1062.00 10.63812
1062.10 10.62412
1062.20 10.60401
1062.30 10.60978
1062.40 10.58343
1062.50 10.59269
1062.60 10.67727
1062.70 10.73395
1062.80 10.79907
1062.90 10.88211
1063.00 10.97439
1063.10 10.92463
1063.20 10.91088
1063.30 10.91158
1063.40 10.89913
1063.50 10.85983
1063.60 10.8571
1063.70 10.86346
1063.80 10.85332
1063.90 10.88034
1064.00 10.90402
1064.10 10.92268
1064.20 10.92454
1064.30 10.9609
1064.40 10.97985
1064.50 10.98196
1064.60 10.98052
1064.70 10.9612
1064.80 10.94071
1064.90 10.91585
1065.00 10.90739
1065.10 10.90403
1065.20 10.86762
1065.30 10.80452
1065.40 10.78173
1065.50 10.7544
1065.60 10.69615
1065.70 10.62551
1065.80 10.64564
1065.90 10.65679
1066.00 10.61393
1066.10 10.52497
1066.20 10.49197
1066.30 10.40722
1066.40 10.28232
1066.50 10.17849
1066.60 10.27121
1066.70 10.33276
1066.80 10.38239
1066.90 10.41572
1067.00 10.47819
1067.10 10.50214
1067.20 10.48814
1067.30 10.43944
1067.40 10.51278
1067.50 10.58333
1067.60 10.61886
1067.70 10.60345
1067.80 10.62762
1067.90 10.66278
1068.00 10.6961
1068.10 10.72614
1068.20 10.80776
1068.30 10.87283
1068.40 10.94632
1068.50 11.03546
1068.60 11.14312
1068.70 11.1765
1068.80 11.15846
1068.90 11.16522
1069.00 11.13813
1069.10 11.09359
1069.20 11.05657
1069.30 11.05056
1069.40 11.0741
1069.50 11.04948
1069.60 10.97365
1069.70 10.88249
1069.80 10.86578
1069.90 10.83943
1070.00 10.79849
1070.10 10.77802
1070.20 10.78755
1070.30 10.79141
1070.40 10.75697
1070.50 10.68016
1070.60 10.68725
1070.70 10.72408
1070.80 10.7526
1070.90 10.73668
1071.00 10.76585
1071.10 10.80803
1071.20 10.83526
1071.30 10.81175
1071.40 10.81494
1071.50 10.84504
1071.60 10.882
1071.70 10.84807
1071.80 10.82927
1071.90 10.82383
1072.00 10.82568
1072.10 10.82154
1072.20 10.79712
1072.30 10.77294
1072.40 10.76806
1072.50 10.67071
1072.60 10.53877
1072.70 10.41967
1072.80 10.41279
1072.90 10.36486
1073.00 10.40146
1073.10 10.51102
1073.20 10.64106
1073.30 10.62173
1073.40 10.58754
1073.50 10.55942
1073.60 10.57513
1073.70 10.53795
1073.80 10.56043
1073.90 10.66949
1074.00 10.77329
1074.10 10.79636
1074.20 10.79584
1074.30 10.80813
1074.40 10.79463
1074.50 10.81283
1074.60 10.81436
1074.70 10.77496
1074.80 10.72212
1074.90 10.70436
1075.00 10.70909
1075.10 10.71114
1075.20 10.7231
1075.30 10.73117
1075.40 10.7302
1075.50 10.6998
1075.60 10.64053
1075.70 10.6551
1075.80 10.71916
1075.90 10.76857
1076.00 10.76008
1076.10 10.78906
1076.20 10.82936
1076.30 10.83349
1076.40 10.8322
1076.50 10.84205
1076.60 10.86547
1076.70 10.88079
1076.80 10.88158
1076.90 10.87172
1077.00 10.86223
1077.10 10.84032
1077.20 10.83852
1077.30 10.80668
1077.40 10.74411
1077.50 10.69143
1077.60 10.63997
1077.70 10.56727
1077.80 10.51116
1077.90 10.5864
1078.00 10.63487
1078.10 10.66249
1078.20 10.67467
1078.30 10.7136
1078.40 10.73274
1078.50 10.73653
1078.60 10.74025
1078.70 10.7179
1078.80 10.728
1078.90 10.73198
1079.00 10.69055
1079.10 10.64176
1079.20 10.60864
1079.30 10.58761
1079.40 10.5627
1079.50 10.59814
1079.60 10.60307
1079.70 10.60238
1079.80 10.63098
1079.90 10.67176
1080.00 10.68621
1080.10 10.68367
1080.20 10.68024
1080.30 10.70836
1080.40 10.74359
1080.50 10.78271
1080.60 10.82241
1080.70 10.84433
1080.80 10.83896
1080.90 10.81162
1081.00 10.80913
1081.10 10.80176
1081.20 10.7922
1081.30 10.77668
1081.40 10.7824
1081.50 10.77855
1081.60 10.78343
1081.70 10.79207
1081.80 10.80936
1081.90 10.80639
1082.00 10.81838
1082.10 10.8528
1082.20 10.78528
1082.30 10.72068
1082.40 10.67649
1082.50 10.66927
1082.60 10.6314
1082.70 10.68435
1082.80 10.76577
1082.90 10.839
1083.00 10.96873
1083.10 11.09881
1083.20 11.17164
1083.30 11.11993
1083.40 11.09681
1083.50 10.98525
1083.60 10.82034
1083.70 10.65948
1083.80 10.64036
1083.90 10.6074
1084.00 10.58129
1084.10 10.63466
1084.20 10.70704
1084.30 10.72529
1084.40 10.68802
1084.50 10.66476
1084.60 10.62655
1084.70 10.59152
1084.80 10.57216
1084.90 10.60864
1085.00 10.5922
1085.10 10.6001
1085.20 10.65339
1085.30 10.74443
1085.40 10.73679
1085.50 10.69681
1085.60 10.65714
1085.70 10.70893
1085.80 10.73767
1085.90 10.76627
1086.00 10.79931
1086.10 10.84092
1086.20 10.85623
1086.30 10.87557
1086.40 10.90243
1086.50 10.86941
1086.60 10.86196
1086.70 10.86187
1086.80 10.851
1086.90 10.80488
1087.00 10.81791
1087.10 10.86745
1087.20 10.91271
1087.30 10.85727
1087.40 10.84489
1087.50 10.82615
1087.60 10.76611
1087.70 10.67168
1087.80 10.65439
1087.90 10.6879
1088.00 10.7144
1088.10 10.7017
1088.20 10.70725
1088.30 10.7181
1088.40 10.71551
1088.50 10.68858
1088.60 10.68022
1088.70 10.70886
1088.80 10.75812
1088.90 10.7737
1089.00 10.7734
1089.10 10.75854
1089.20 10.73257
1089.30 10.71718
1089.40 10.68686
1089.50 10.64011
1089.60 10.57763
1089.70 10.60694
1089.80 10.63487
1089.90 10.65191
1090.00 10.67736
1090.10 10.73693
1090.20 10.77457
1090.30 10.7692
1090.40 10.76501
1090.50 10.7332
1090.60 10.70024
1090.70 10.68053
1090.80 10.63735
1090.90 10.60199
1091.00 10.57716
1091.10 10.55279
1091.20 10.49502
1091.30 10.50834
1091.40 10.55366
1091.50 10.56511
1091.60 10.63657
1091.70 10.72811
1091.80 10.79373
1091.90 10.75199
1092.00 10.72602
1092.10 10.72172
1092.20 10.72872
1092.30 10.73287
1092.40 10.71034
1092.50 10.68886
1092.60 10.67985
1092.70 10.67412
1092.80 10.66163
1092.90 10.6458
1093.00 10.63729
1093.10 10.64267
1093.20 10.64577
1093.30 10.64364
1093.40 10.64212
1093.50 10.67793
1093.60 10.71408
1093.70 10.75562
1093.80 10.80373
1093.90 10.83135
1094.00 10.92771
1094.10 11.03789
1094.20 11.1108
1094.30 11.00307
1094.40 10.9684
1094.50 10.92865
1094.60 10.84092
1094.70 10.69243
1094.80 10.64621
1094.90 10.61331
1095.00 10.55347
1095.10 10.59769
1095.20 10.64638
1095.30 10.67959
1095.40 10.67288
1095.50 10.72073
1095.60 10.72818
1095.70 10.71635
1095.80 10.70992
1095.90 10.69239
1096.00 10.64587
1096.10 10.6049
1096.20 10.62677
1096.30 10.6576
1096.40 10.67435
1096.50 10.68661
1096.60 10.71612
1096.70 10.62335
1096.80 10.54172
1096.90 10.49018
1097.00 10.47978
1097.10 10.44285
1097.20 10.43156
1097.30 10.43394
1097.40 10.3837
1097.50 10.39617
1097.60 10.43666
1097.70 10.48376
1097.80 10.4911
1097.90 10.49907
1098.00 10.51997
1098.10 10.56561
1098.20 10.6439
1098.30 10.64041
1098.40 10.60091
1098.50 10.56079
1098.60 10.55531
1098.70 10.545
1098.80 10.52969
1098.90 10.52268
1099.00 10.50138
1099.10 10.52942
1099.20 10.56412
1099.30 10.57531
1099.40 10.56516
1099.50 10.58063
1099.60 10.60136
1099.70 10.59864
1099.80 10.60635
1099.90 10.5987
1100.00 10.58431
1100.10 10.57412
1100.20 10.56065
1100.30 10.55569
1100.40 10.55482
1100.50 10.53466
1100.60 10.48384
1100.70 10.47057
1100.80 10.48695
1100.90 10.48037
1101.00 10.49428
1101.10 10.53536
1101.20 10.59959
1101.30 10.64213
1101.40 10.63866
1101.50 10.5984
1101.60 10.55598
1101.70 10.57237
1101.80 10.51686
1101.90 10.46157
1102.00 10.43249
1102.10 10.42519
1102.20 10.3977
1102.30 10.39092
1102.40 10.4162
1102.50 10.34658
1102.60 10.39931
1102.70 10.48138
1102.80 10.54523
1102.90 10.53256
1103.00 10.57346
1103.10 10.57394
1103.20 10.49492
1103.30 10.49544
1103.40 10.45236
1103.50 10.37309
1103.60 10.28075
1103.70 10.34164
1103.80 10.33269
1103.90 10.30903
1104.00 10.31655
1104.10 10.34984
1104.20 10.33362
1104.30 10.30469
1104.40 10.30108
1104.50 10.31957
1104.60 10.31438
1104.70 10.31419
1104.80 10.36997
1104.90 10.44165
1105.00 10.43684
1105.10 10.40554
1105.20 10.41121
1105.30 10.3476
1105.40 10.24723
1105.50 10.18061
1105.60 10.18764
1105.70 10.15749
1105.80 10.1614
1105.90 10.21385
1106.00 10.25415
1106.10 10.25068
1106.20 10.25397
1106.30 10.25877
1106.40 10.22682
1106.50 10.18509
1106.60 10.164
1106.70 10.16586
1106.80 10.20978
1106.90 10.1939
1107.00 10.15181
1107.10 10.09702
1107.20 10.14631
1107.30 10.16377
1107.40 10.19253
1107.50 10.23491
1107.60 10.30014
1107.70 10.32789
1107.80 10.33376
1107.90 10.33313
1108.00 10.29775
1108.10 10.26076
1108.20 10.25916
1108.30 10.32051
1108.40 10.38981
1108.50 10.42585
1108.60 10.44505
1108.70 10.46034
1108.80 10.43972
1108.90 10.42759
1109.00 10.41027
1109.10 10.37486
1109.20 10.33485
1109.30 10.332
1109.40 10.35692
1109.50 10.37669
1109.60 10.39739
1109.70 10.4212
1109.80 10.42856
1109.90 10.40535
1110.00 10.41552
1110.10 10.40658
1110.20 10.37127
1110.30 10.35453
1110.40 10.3056
1110.50 10.23306
1110.60 10.15806
1110.70 10.19498
1110.80 10.19534
1110.90 10.19083
1111.00 10.17821
1111.10 10.19403
1111.20 10.17453
1111.30 10.14273
1111.40 10.13131
1111.50 10.11587
1111.60 10.08821
1111.70 10.08976
1111.80 10.15468
1111.90 10.21265
1112.00 10.1947
1112.10 10.14852
1112.20 10.10277
1112.30 10.08989
1112.40 10.05973
1112.50 10.07859
1112.60 10.183
1112.70 10.27222
1112.80 10.31868
1112.90 10.34832
1113.00 10.38749
1113.10 10.32439
1113.20 10.26973
1113.30 10.24969
1113.40 10.28619
1113.50 10.33657
1113.60 10.3322
1113.70 10.28653
1113.80 10.25471
1113.90 10.24794
1114.00 10.20914
1114.10 10.18665
1114.20 10.27069
1114.30 10.33249
1114.40 10.39264
1114.50 10.4595
1114.60 10.54457
1114.70 10.58295
1114.80 10.63434
1114.90 10.66511
1115.00 10.48302
1115.10 10.28688
1115.20 10.18346
1115.30 10.18426
1115.40 10.17446
1115.50 10.19622
1115.60 10.24371
1115.70 10.31771
1115.80 10.36827
1115.90 10.39572
1116.00 10.40209
1116.10 10.40253
1116.20 10.38167
1116.30 10.35091
1116.40 10.32384
1116.50 10.33919
1116.60 10.15214
1116.70 9.952768
1116.80 9.851204
1116.90 9.965629
1117.00 10.09347
1117.10 10.12123
1117.20 10.10763
1117.30 10.10281
1117.40 10.03088
1117.50 9.936608
1117.60 9.901605
1117.70 9.996009
1117.80 10.07772
1117.90 10.18142
1118.00 10.23207
1118.10 10.27241
1118.20 10.3063
1118.30 10.30442
1118.40 10.30767
1118.50 10.32418
1118.60 10.36795
1118.70 10.40609
1118.80 10.45751
1118.90 10.4537
1119.00 10.31726
1119.10 10.18596
1119.20 10.07753
1119.30 10.01483
1119.40 9.94661
1119.50 9.871135
1119.60 9.959274
1119.70 10.08451
1119.80 10.19129
1119.90 10.24188
1120.00 10.2557
1120.10 10.28497
1120.20 10.28547
1120.30 10.20068
1120.40 10.11176
1120.50 10.05591
1120.60 10.14573
1120.70 10.24436
1120.80 10.32193
1120.90 10.3518
1121.00 10.38176
1121.10 10.41763
1121.20 10.39269
1121.30 10.31422
1121.40 10.23301
1121.50 10.19167
1121.60 10.23869
1121.70 10.2957
1121.80 10.34926
1121.90 10.33995
1122.00 10.31654
1122.10 10.28934
1122.20 10.22126
1122.30 10.1338
1122.40 10.05011
1122.50 9.980443
1122.60 9.885874
1122.70 9.783674
1122.80 9.785608
1122.90 10.02553
1123.00 10.29041
1123.10 10.53649
1123.20 10.56087
1123.30 10.61221
1123.40 10.6693
1123.50 10.50463
1123.60 10.25093
1123.70 9.975093
1123.80 9.918449
1123.90 10.04213
1124.00 10.15138
1124.10 10.22235
1124.20 10.275
1124.30 10.34251
1124.40 10.42077
1124.50 10.38099
1124.60 10.3481
1124.70 10.33195
1124.80 10.36019
1124.90 10.43033
1125.00 10.49321
1125.10 10.50457
1125.20 10.4502
1125.30 10.37772
1125.40 10.26787
1125.50 9.898099
1125.60 9.516346
1125.70 9.170791
1125.80 9.527457
1125.90 9.886747
1126.00 10.24168
1126.10 10.28458
1126.20 10.20397
1126.30 10.12667
1126.40 10.09873
1126.50 10.11409
1126.60 10.11427
1126.70 10.12109
1126.80 10.19136
1126.90 10.26908
1127.00 10.3456
1127.10 10.34724
1127.20 10.35368
1127.30 10.3726
1127.40 10.31356
1127.50 10.22326
1127.60 10.13066
1127.70 10.06171
1127.80 10.01215
1127.90 9.948015
1128.00 9.913726
1128.10 9.98983
1128.20 10.06569
1128.30 10.14337
1128.40 10.16979
1128.50 10.19816
1128.60 10.23587
1128.70 10.27263
1128.80 10.3163
1128.90 10.3688
1129.00 10.39287
1129.10 10.39265
1129.20 10.38642
1129.30 10.36387
1129.40 10.34863
1129.50 10.31422
1129.60 10.28138
1129.70 10.20312
1129.80 10.12069
1129.90 10.05585
1130.00 10.02404
1130.10 10.02665
1130.20 10.07368
1130.30 10.09631
1130.40 10.10689
1130.50 10.10823
1130.60 10.10847
1130.70 10.11572
1130.80 10.09684
1130.90 10.06495
1131.00 10.07622
1131.10 10.08102
1131.20 10.0783
1131.30 10.06311
1131.40 10.04326
1131.50 10.04185
1131.60 10.05845
1131.70 10.09655
1131.80 10.14021
1131.90 10.18041
1132.00 10.21019
1132.10 10.24776
1132.20 10.28744
1132.30 10.24986
1132.40 10.20242
1132.50 10.15103
1132.60 10.13121
1132.70 10.12768
1132.80 10.11837
1132.90 10.13832
1133.00 10.20746
1133.10 10.28904
1133.20 10.33744
1133.30 10.24626
1133.40 10.15309
1133.50 10.06636
1133.60 10.04279
1133.70 10.02883
1133.80 10.01424
1133.90 10.015
1134.00 10.02279
1134.10 10.02275
1134.20 10.02557
1134.30 10.02574
1134.40 10.01684
1134.50 10.00636
1134.60 9.992881
1134.70 9.953798
1134.80 9.976545
1134.90 9.828852
1135.00 9.670385
1135.10 9.512452
1135.20 9.655912
1135.30 9.959149
1135.40 10.26892
1135.50 10.43084
1135.60 10.4034
1135.70 10.3688
1135.80 10.30757
1135.90 10.15555
1136.00 9.97015
1136.10 9.822692
1136.20 9.827238
1136.30 9.859546
1136.40 9.887556
1136.50 9.91539
1136.60 9.975577
1136.70 10.04526
1136.80 10.06771
1136.90 10.0199
1137.00 9.966974
1137.10 9.922305
1137.20 9.94293
1137.30 9.976743
1137.40 10.01434
1137.50 9.829628
1137.60 9.633124
1137.70 9.462
1137.80 9.25634
1137.90 9.074012
1138.00 8.916103
1138.10 8.666767
1138.20 8.346138
1138.30 7.955543
1138.40 7.701009
1138.50 7.900258
1138.60 7.952292
1138.70 8.007886
1138.80 8.393428
1138.90 8.832042
1139.00 9.282553
1139.10 9.464273
1139.20 9.524708
1139.30 9.6531
1139.40 9.712854
1139.50 9.714018
1139.60 9.742294
1139.70 9.740872
1139.80 9.51132
1139.90 9.321407
1140.00 9.114867
1140.10 8.747936
1140.20 8.414703
1140.30 8.088474
1140.40 7.717117
1140.50 7.328148
1140.60 6.864273
1140.70 6.764726
1140.80 7.004325
1140.90 7.063656
1141.00 7.221783
1141.10 7.803482
1141.20 8.422155
1141.30 8.974363
1141.40 9.147452
1141.50 9.302849
1141.60 9.490451
1141.70 9.608211
1141.80 9.721536
1141.90 9.858712
1142.00 9.895911
1142.10 9.80672
1142.20 9.738302
1142.30 9.678363
1142.40 9.664532
1142.50 9.640853
1142.60 9.620481
1142.70 9.676669
1142.80 9.737143
1142.90 9.802885
1143.00 9.850247
1143.10 9.898237
1143.20 9.95293
1143.30 10.00115
1143.40 10.04224
1143.50 10.0813
1143.60 10.10789
1143.70 10.03329
1143.80 9.980886
1143.90 9.929666
1144.00 9.820066
1144.10 9.68243
1144.20 9.541747
1144.30 9.497262
1144.40 9.5143
1144.50 9.527195
1144.60 9.563161
1144.70 9.64695
1144.80 9.721062
1144.90 9.781003
1145.00 9.802856
1145.10 9.829985
1145.20 9.874521
1145.30 9.898583
1145.40 9.927071
1145.50 9.95148
1145.60 9.941523
1145.70 9.910386
1145.80 9.877494
1145.90 9.88893
1146.00 9.959823
1146.10 10.01665
1146.20 10.05589
1146.30 10.04643
1146.40 10.03776
1146.50 10.0424
1146.60 9.985456
1146.70 9.924159
1146.80 9.890706
1146.90 9.907024
1147.00 9.975461
1147.10 10.04189
1147.20 10.02805
1147.30 9.901468
1147.40 9.752928
1147.50 9.648598
1147.60 9.823148
1147.70 9.992408
1147.80 10.14583
1147.90 10.13388
1148.00 10.11033
1148.10 10.09537
1148.20 10.10507
1148.30 10.13322
1148.40 10.18756
1148.50 10.19022
1148.60 10.11042
1148.70 9.994121
1148.80 9.908677
1148.90 9.921701
1149.00 9.933271
1149.10 9.936631
1149.20 10.01973
1149.30 10.13781
1149.40 10.26231
1149.50 10.22736
1149.60 10.11122
1149.70 9.993365
1149.80 9.888745
1149.90 9.774909
1150.00 9.666936
1150.10 9.598807
1150.20 9.738425
1150.30 9.880903
1150.40 10.01348
1150.50 10.04944
1150.60 10.06267
1150.70 10.06645
1150.80 10.0592
1150.90 10.04296
1151.00 10.03891
1151.10 10.01247
1151.20 9.957304
1151.30 9.910328
1151.40 9.88767
1151.50 9.950205
1151.60 10.01184
1151.70 10.06436
1151.80 10.04754
1151.90 10.01683
1152.00 9.991431
1152.10 9.993059
1152.20 10.01543
1152.30 10.05129
1152.40 10.02425
1152.50 9.925012
1152.60 9.819508
1152.70 9.758228
1152.80 9.786706
1152.90 9.8059
1153.00 9.804106
1153.10 9.873617
1153.20 9.959371
1153.30 10.04433
1153.40 10.04764
1153.50 10.01401
1153.60 9.967891
1153.70 9.941741
1153.80 9.931424
1153.90 9.914104
1154.00 9.890143
1154.10 9.842164
1154.20 9.808735
1154.30 9.786409
1154.40 9.801956
1154.50 9.839281
1154.60 9.895631
1154.70 9.92991
1154.80 9.959803
1154.90 9.961237
1155.00 9.977875
1155.10 9.999052
1155.20 10.00093
1155.30 9.992818
1155.40 9.997074
1155.50 10.0037
1155.60 10.01562
1155.70 9.958174
1155.80 9.902722
1155.90 9.867098
1156.00 9.900116
1156.10 9.975968
1156.20 10.04366
1156.30 10.0536
1156.40 10.0044
1156.50 9.953243
1156.60 9.916074
1156.70 9.937849
1156.80 9.975361
1156.90 10.01562
1157.00 10.00155
1157.10 9.983145
1157.20 9.959199
1157.30 9.97171
1157.40 9.987211
1157.50 9.997967
1157.60 9.969009
1157.70 9.903737
1157.80 9.839955
1157.90 9.80532
1158.00 9.855486
1158.10 9.902571
1158.20 9.945046
1158.30 9.964742
1158.40 9.993119
1158.50 10.02143
1158.60 9.996233
1158.70 9.952695
1158.80 9.918128
1158.90 9.871251
1159.00 9.814157
1159.10 9.779106
1159.20 9.743935
1159.30 9.724122
1159.40 9.705829
1159.50 9.685784
1159.60 9.671563
1159.70 9.624404
1159.80 9.558127
1159.90 9.601233
1160.00 9.653985
1160.10 9.694853
1160.20 9.714577
1160.30 9.718735
1160.40 9.746742
1160.50 9.717334
1160.60 9.575024
1160.70 9.488815
1160.80 9.405761
1160.90 9.295917
1161.00 9.161808
1161.10 9.003254
1161.20 9.092457
1161.30 9.197723
1161.40 9.259424
1161.50 9.36522
1161.60 9.504466
1161.70 9.691231
1161.80 9.815014
1161.90 9.836781
1162.00 9.887509
1162.10 9.943225
1162.20 9.898448
1162.30 9.843535
1162.40 9.78237
1162.50 9.797691
1162.60 9.819498
1162.70 9.831785
1162.80 9.865781
1162.90 9.920451
1163.00 9.97515
1163.10 10.00862
1163.20 10.00276
1163.30 10.01491
1163.40 10.01015
1163.50 9.908645
1163.60 9.834054
1163.70 9.778429
1163.80 9.633231
1163.90 9.46533
1164.00 9.282427
1164.10 9.285019
1164.20 9.375707
1164.30 9.390047
1164.40 9.448105
1164.50 9.581195
1164.60 9.739015
1164.70 9.876983
1164.80 9.873621
1164.90 9.889731
1165.00 9.913225
1165.10 9.890694
1165.20 9.869895
1165.30 9.847228
1165.40 9.818905
1165.50 9.791996
1165.60 9.756506
1165.70 9.748869
1165.80 9.768986
1165.90 9.771651
1166.00 9.78825
1166.10 9.848268
1166.20 9.908482
1166.30 9.956087
1166.40 9.963125
1166.50 9.979681
1166.60 10.00685
1166.70 9.983817
1166.80 9.931084
1166.90 9.89707
1167.00 9.878975
1167.10 9.889814
1167.20 9.897091
1167.30 9.907571
1167.40 9.903708
1167.50 9.897918
1167.60 9.883822
1167.70 9.877937
1167.80 9.870867
1167.90 9.860702
1168.00 9.851711
1168.10 9.8442
1168.20 9.855913
1168.30 9.847618
1168.40 9.819415
1168.50 9.82342
1168.60 9.809345
1168.70 9.672426
1168.80 9.609278
1168.90 9.562141
1169.00 9.240105
1169.10 8.88463
1169.20 8.484778
1169.30 8.492853
1169.40 8.576938
1169.50 8.456759
1169.60 8.537586
1169.70 8.836282
1169.80 9.15434
1169.90 9.398069
1170.00 9.476133
1170.10 9.614532
1170.20 9.775856
1170.30 9.802573
1170.40 9.839002
1170.50 9.896941
1170.60 9.89707
1170.70 9.884557
1170.80 9.886897
1170.90 9.873559
1171.00 9.852664
1171.10 9.832414
1171.20 9.820022
1171.30 9.834708
1171.40 9.846169
1171.50 9.856294
1171.60 9.848965
1171.70 9.853167
1171.80 9.874757
1171.90 9.864631
1172.00 9.83863
1172.10 9.803904
1172.20 9.797323
1172.30 9.812276
1172.40 9.817675
1172.50 9.82465
1172.60 9.844997
1172.70 9.857473
1172.80 9.853452
1172.90 9.839305
1173.00 9.826361
1173.10 9.822933
1173.20 9.824729
1173.30 9.840273
1173.40 9.873128
1173.50 9.868892
1173.60 9.835431
1173.70 9.80098
1173.80 9.78111
1173.90 9.762308
1174.00 9.729495
1174.10 9.698941
1174.20 9.738954
1174.30 9.776866
1174.40 9.805988
1174.50 9.830956
1174.60 9.860784
1174.70 9.899565
1174.80 9.909602
1174.90 9.905111
1175.00 9.915111
1175.10 9.913514
1175.20 9.877899
1175.30 9.837789
1175.40 9.806825
1175.50 9.844002
1175.60 9.869501
1175.70 9.882918
1175.80 9.878283
1175.90 9.8794
1176.00 9.891925
1176.10 9.874883
1176.20 9.848947
1176.30 9.836363
1176.40 9.833247
1176.50 9.824157
1176.60 9.857451
1176.70 9.850941
1176.80 9.611721
1176.90 9.456798
1177.00 9.324697
1177.10 8.969943
1177.20 8.573642
1177.30 8.120062
1177.40 7.956978
1177.50 7.915529
1177.60 7.642413
1177.70 7.692774
1177.80 8.108671
1177.90 8.466381
1178.00 8.761787
1178.10 8.890465
1178.20 9.09105
1178.30 9.316678
1178.40 9.303138
1178.50 9.289248
1178.60 9.305967
1178.70 9.362036
1178.80 9.45036
1178.90 9.541785
1179.00 9.613958
1179.10 9.667255
1179.20 9.746284
1179.30 9.806149
1179.40 9.745223
1179.50 9.693781
1179.60 9.647732
1179.70 9.617976
1179.80 9.584502
1179.90 9.541388
1180.00 9.565325
1180.10 9.612644
1180.20 9.652506
1180.30 9.694144
1180.40 9.727796
1180.50 9.773147
1180.60 9.804755
1180.70 9.790777
1180.80 9.787472
1180.90 9.784553
1181.00 9.777738
1181.10 9.769797
1181.20 9.759635
1181.30 9.771346
1181.40 9.791424
1181.50 9.811827
1181.60 9.813494
1181.70 9.791895
1181.80 9.759033
1181.90 9.731421
1182.00 9.718345
1182.10 9.70286
1182.20 9.675506
1182.30 9.660748
1182.40 9.665646
1182.50 9.673345
1182.60 9.573741
1182.70 9.446304
1182.80 9.335012
1182.90 9.24224
1183.00 9.161602
1183.10 9.040433
1183.20 9.022092
1183.30 9.145342
1183.40 9.256927
1183.50 9.372826
1183.60 9.423548
1183.70 9.495635
1183.80 9.561006
1183.90 9.616563
1184.00 9.66009
1184.10 9.670548
1184.20 9.712726
1184.30 9.768744
1184.40 9.844179
1184.50 9.875037
1184.60 9.82361
1184.70 9.8045
1184.80 9.780916
1184.90 9.716127
1185.00 9.645368
1185.10 9.568319
1185.20 9.591083
1185.30 9.625931
1185.40 9.640381
1185.50 9.666063
1185.60 9.68928
1185.70 9.72543
1185.80 9.747839
1185.90 9.746979
1186.00 9.746252
1186.10 9.745784
1186.20 9.756604
1186.30 9.766896
1186.40 9.779391
1186.50 9.758493
1186.60 9.739707
1186.70 9.732979
1186.80 9.714877
1186.90 9.695054
1187.00 9.664344
1187.10 9.65809
1187.20 9.678062
1187.30 9.684486
1187.40 9.686805
1187.50 9.679943
1187.60 9.679784
1187.70 9.681431
1187.80 9.638008
1187.90 9.614135
1188.00 9.611326
1188.10 9.420742
1188.20 9.173094
1188.30 8.974713
1188.40 8.782505
1188.50 8.614653
1188.60 8.34528
1188.70 8.226459
1188.80 8.505536
1188.90 8.720928
1189.00 8.892488
1189.10 9.026026
1189.20 9.188416
1189.30 9.404716
1189.40 9.462492
1189.50 9.471385
1189.60 9.483567
1189.70 9.529982
1189.80 9.609588
1189.90 9.689197
1190.00 9.743119
1190.10 9.724318
1190.20 9.722235
1190.30 9.723845
1190.40 9.695889
1190.50 9.670474
1190.60 9.649218
1190.70 9.646846
1190.80 9.647303
1190.90 9.615621
1191.00 9.608968
1191.10 9.614055
1191.20 9.625386
1191.30 9.636356
1191.40 9.645232
1191.50 9.660916
1191.60 9.681669
1191.70 9.694322
1191.80 9.707981
1191.90 9.718105
1192.00 9.730714
1192.10 9.739805
1192.20 9.756382
1192.30 9.750702
1192.40 9.733143
1192.50 9.719522
1192.60 9.716023
1192.70 9.727126
1192.80 9.723311
1192.90 9.716352
1193.00 9.725164
1193.10 9.734308
1193.20 9.741424
1193.30 9.709516
1193.40 9.67525
1193.50 9.664
1193.60 9.624179
1193.70 9.577139
1193.80 9.539802
1193.90 9.51986
1194.00 9.531155
1194.10 9.520981
1194.20 9.510915
1194.30 9.514168
1194.40 9.515617
1194.50 9.51259
1194.60 9.498713
1194.70 9.500244
1194.80 9.518907
1194.90 9.479456
1195.00 9.411357
1195.10 9.311855
1195.20 9.287028
1195.30 9.335032
1195.40 9.345483
1195.50 9.36108
1195.60 9.379635
1195.70 9.424812
1195.80 9.483888
1195.90 9.467493
1196.00 9.465538
1196.10 9.471194
1196.20 9.471173
1196.30 9.466838
1196.40 9.447114
1196.50 9.438116
1196.60 9.437984
1196.70 9.429767
1196.80 9.406628
1196.90 9.359454
1197.00 9.358208
1197.10 9.348061
1197.20 9.111587
1197.30 8.898691
1197.40 8.7046
1197.50 8.598956
1197.60 8.507309
1197.70 8.315403
1197.80 8.357097
1197.90 8.560451
1198.00 8.742081
1198.10 8.888379
1198.20 8.987386
1198.30 9.107393
1198.40 9.213645
1198.50 9.249649
1198.60 9.286863
1198.70 9.332189
1198.80 9.291145
1198.90 9.254931
1199.00 9.270366
1199.10 9.269297
1199.20 9.265499
1199.30 9.242854
1199.40 9.242795
1199.50 9.271417
1199.60 9.276703
1199.70 9.271722
1199.80 9.28141
1199.90 9.292341
1200.00 9.303999
