# Version 2.1 - nm, norm@500 to 1, cut digits
# Wavelength(nm)  Flambda(ergs/cm^s/s/nm)
300.00 0.009748167
300.10 0.012956
300.20 0.01491019
300.30 0.01571906
300.40 0.01593164
300.50 0.01599435
300.60 0.01605665
300.70 0.0161193
300.80 0.01618496
300.90 0.01625861
301.00 0.0163457
301.10 0.01644863
301.20 0.01656502
301.30 0.0166895
301.40 0.01681717
301.50 0.01694548
301.60 0.01707379
301.70 0.01720211
301.80 0.01733043
301.90 0.01745875
302.00 0.01758707
302.10 0.01771539
302.20 0.0178437
302.30 0.01797202
302.40 0.01810034
302.50 0.01822867
302.60 0.01835699
302.70 0.01848581
302.80 0.01861704
302.90 0.01875441
303.00 0.018902
303.10 0.01906163
303.20 0.01923148
303.30 0.01940746
303.40 0.01958587
303.50 0.01976476
303.60 0.01994366
303.70 0.02012255
303.80 0.02030145
303.90 0.02048035
304.00 0.02065925
304.10 0.02083815
304.20 0.02101705
304.30 0.02119595
304.40 0.02137485
304.50 0.02155374
304.60 0.02173261
304.70 0.02191
304.80 0.02207998
304.90 0.02223119
305.00 0.02235114
305.10 0.02243429
305.20 0.02248617
305.30 0.02251929
305.40 0.022545
305.50 0.02256921
305.60 0.02259342
305.70 0.02261762
305.80 0.02264182
305.90 0.02266601
306.00 0.02269021
306.10 0.02271441
306.20 0.0227386
306.30 0.0227628
306.40 0.02278699
306.50 0.02281119
306.60 0.02283539
306.70 0.02285958
306.80 0.0228838
306.90 0.02290806
307.00 0.02293238
307.10 0.02295678
307.20 0.02298125
307.30 0.02300577
307.40 0.0230303
307.50 0.02305483
307.60 0.02307936
307.70 0.02310389
307.80 0.02312842
307.90 0.02315296
308.00 0.02317749
308.10 0.02320202
308.20 0.02322655
308.30 0.02325109
308.40 0.02327563
308.50 0.02330019
308.60 0.02332477
308.70 0.02335309
308.80 0.02339994
308.90 0.02349378
309.00 0.02366585
309.10 0.02393003
309.20 0.02427244
309.30 0.02466184
309.40 0.02506976
309.50 0.02548143
309.60 0.02589312
309.70 0.02630483
309.80 0.02671654
309.90 0.02712826
310.00 0.02753997
310.10 0.02795169
310.20 0.02836341
310.30 0.02877512
310.40 0.02918683
310.50 0.02959852
310.60 0.03001018
310.70 0.03041809
310.80 0.03080737
310.90 0.03114942
311.00 0.03141282
311.10 0.03158363
311.20 0.03167579
311.30 0.03172072
311.40 0.03174702
311.50 0.03176956
311.60 0.03179208
311.70 0.03181458
311.80 0.03183708
311.90 0.03185957
312.00 0.03188206
312.10 0.03190456
312.20 0.03192705
312.30 0.03194954
312.40 0.03197205
312.50 0.03199457
312.60 0.03201713
312.70 0.03204433
312.80 0.03209453
312.90 0.03220307
313.00 0.03240873
313.10 0.03272876
313.20 0.03314593
313.30 0.03362142
313.40 0.03411992
313.50 0.03462307
313.60 0.03512624
313.70 0.03562943
313.80 0.03613263
313.90 0.03663584
314.00 0.03713904
314.10 0.03764225
314.20 0.03814546
314.30 0.03864867
314.40 0.03915188
314.50 0.03965511
314.60 0.04015836
314.70 0.04066484
314.80 0.04118734
314.90 0.04175044
315.00 0.04238115
315.10 0.04309147
315.20 0.04386941
315.30 0.04468795
315.40 0.0455225
315.50 0.04636028
315.60 0.04719809
315.70 0.04803591
315.80 0.04887374
315.90 0.04971156
316.00 0.05054939
316.10 0.05138722
316.20 0.05222505
316.30 0.05306287
316.40 0.05390066
316.50 0.05473841
316.60 0.05557607
316.70 0.05640186
316.80 0.05716879
316.90 0.05778646
317.00 0.05815559
317.10 0.0582321
317.20 0.05806007
317.30 0.05773879
317.40 0.05735864
317.50 0.05696662
317.60 0.05657452
317.70 0.05618236
317.80 0.05579019
317.90 0.05539801
318.00 0.05500582
318.10 0.05461363
318.20 0.05422145
318.30 0.05382927
318.40 0.05343711
318.50 0.05304499
318.60 0.05265292
318.70 0.05226995
318.80 0.05193204
318.90 0.05170839
319.00 0.05167498
319.10 0.05186558
319.20 0.05224642
319.30 0.05274153
319.40 0.05328169
319.50 0.05383094
319.60 0.05438025
319.70 0.0549296
319.80 0.05547897
319.90 0.05602835
320.00 0.05657772
320.10 0.0571271
320.20 0.05767648
320.30 0.05822585
320.40 0.05877522
320.50 0.05932457
320.60 0.0598739
320.70 0.06041987
320.80 0.06094918
320.90 0.06143622
321.00 0.0618529
321.10 0.06218674
321.20 0.06245021
321.30 0.06267142
321.40 0.06287597
321.50 0.06307716
321.60 0.06327832
321.70 0.06347947
321.80 0.06368061
321.90 0.06388175
322.00 0.06408289
322.10 0.06428403
322.20 0.06448517
322.30 0.06468632
322.40 0.0648875
322.50 0.06508872
322.60 0.06529003
322.70 0.06550362
322.80 0.06577809
322.90 0.0662069
323.00 0.06689273
323.10 0.06788117
323.20 0.06912663
323.30 0.07052644
323.40 0.07198712
323.50 0.07346008
323.60 0.07493313
323.70 0.07640622
323.80 0.07787934
323.90 0.07935247
324.00 0.08082561
324.10 0.08229874
324.20 0.08377187
324.30 0.085245
324.40 0.08671813
324.50 0.08819125
324.60 0.08966435
324.70 0.09113546
324.80 0.09259668
324.90 0.09403283
325.00 0.09542723
325.10 0.09677247
325.20 0.09807596
325.30 0.09935438
325.40 0.1006229
325.50 0.1018895
325.60 0.103156
325.70 0.1044225
325.80 0.105689
325.90 0.1069555
326.00 0.108222
326.10 0.1094885
326.20 0.110755
326.30 0.1120215
326.40 0.1132881
326.50 0.1145546
326.60 0.1158212
326.70 0.117092
326.80 0.1183842
326.90 0.1197304
327.00 0.1211667
327.10 0.1227088
327.20 0.1243409
327.30 0.1260271
327.40 0.1277346
327.50 0.1294464
327.60 0.1311582
327.70 0.13287
327.80 0.1345819
327.90 0.1362937
328.00 0.1380056
328.10 0.1397174
328.20 0.1414293
328.30 0.1431411
328.40 0.1448529
328.50 0.1465646
328.60 0.1482761
328.70 0.1499623
328.80 0.1515235
328.90 0.1527677
329.00 0.1534839
329.10 0.1535784
329.20 0.153145
329.30 0.1523945
329.40 0.151519
329.50 0.1506182
329.60 0.1497172
329.70 0.1488162
329.80 0.1479151
329.90 0.147014
330.00 0.1461128
330.10 0.1452117
330.20 0.1443106
330.30 0.1434095
330.40 0.1425084
330.50 0.1416074
330.60 0.1407066
330.70 0.1398244
330.80 0.139035
330.90 0.1384809
331.00 0.1383183
331.10 0.1386169
331.20 0.1393072
331.30 0.1402327
331.40 0.1412509
331.50 0.1422878
331.60 0.1433249
331.70 0.144362
331.80 0.1453992
331.90 0.1464364
332.00 0.1474736
332.10 0.1485108
332.20 0.149548
332.30 0.1505852
332.40 0.1516224
332.50 0.1526595
332.60 0.1536965
332.70 0.1547217
332.80 0.1556882
332.90 0.1565057
333.00 0.1570753
333.10 0.1573528
333.20 0.1573825
333.30 0.1572632
333.40 0.1570852
333.50 0.1568953
333.60 0.1567053
333.70 0.1565153
333.80 0.1563253
333.90 0.1561353
334.00 0.1559452
334.10 0.1557552
334.20 0.1555653
334.30 0.1553755
334.40 0.1551857
334.50 0.1549961
334.60 0.1549645
334.70 0.1554482
334.80 0.1565852
334.90 0.1577409
335.00 0.1577069
335.10 0.156154
335.20 0.1549849
335.30 0.1577556
335.40 0.1669374
335.50 0.181125
335.60 0.1948878
335.70 0.2019271
335.80 0.1991394
335.90 0.1881524
336.00 0.1735895
336.10 0.1602107
336.20 0.1513364
336.30 0.1483589
336.40 0.1501521
336.50 0.1532108
336.60 0.1537515
336.70 0.1508514
336.80 0.1476234
336.90 0.1487736
337.00 0.1565698
337.10 0.1686293
337.20 0.1792824
337.30 0.1834679
337.40 0.1802865
337.50 0.1735616
337.60 0.1689156
337.70 0.1695991
337.80 0.1745824
337.90 0.1804426
338.00 0.1845626
338.10 0.1862219
338.20 0.1850411
338.30 0.1797769
338.40 0.1700065
338.50 0.1586171
338.60 0.1513576
338.70 0.1527083
338.80 0.1617002
338.90 0.1722246
339.00 0.1779412
339.10 0.1774706
339.20 0.1752433
339.30 0.1771425
339.40 0.1850861
339.50 0.1957834
339.60 0.2042932
339.70 0.2081751
339.80 0.208113
339.90 0.2054687
340.00 0.2007844
340.10 0.1946205
340.20 0.1882724
340.30 0.182724
340.40 0.1773138
340.50 0.1704287
340.60 0.1616808
340.70 0.1528061
340.80 0.14629
340.90 0.1435462
341.00 0.1444803
341.10 0.1482291
341.20 0.1537978
341.30 0.1600177
341.40 0.1655115
341.50 0.1692263
341.60 0.1710579
341.70 0.1718965
341.80 0.1729498
341.90 0.1748505
342.00 0.1770953
342.10 0.1781431
342.20 0.1763531
342.30 0.1713646
342.40 0.1648398
342.50 0.1596222
342.60 0.1578267
342.70 0.1595203
342.80 0.1629983
342.90 0.1661298
343.00 0.1676689
343.10 0.1678138
343.20 0.1677434
343.30 0.1684708
343.40 0.1699599
343.50 0.1713351
343.60 0.1718074
343.70 0.1711602
343.80 0.1695617
343.90 0.1674072
344.00 0.1654198
344.10 0.1644353
344.20 0.1646722
344.30 0.1653628
344.40 0.1654275
344.50 0.1645079
344.60 0.1632583
344.70 0.1627721
344.80 0.1638847
344.90 0.1668914
345.00 0.1716355
345.10 0.177627
345.20 0.1840677
345.30 0.189853
345.40 0.1937487
345.50 0.1949851
345.60 0.1939
345.70 0.1918821
345.80 0.1904212
345.90 0.1900671
346.00 0.1901831
346.10 0.1895036
346.20 0.1870174
346.30 0.1827639
346.40 0.1780883
346.50 0.1748597
346.60 0.1739845
346.70 0.1746194
346.80 0.174955
346.90 0.1736892
347.00 0.1706981
347.10 0.1667869
347.20 0.1632917
347.30 0.1617021
347.40 0.1629653
347.50 0.1667395
347.60 0.1715535
347.70 0.175937
347.80 0.1794043
347.90 0.1824392
348.00 0.1857313
348.10 0.1894037
348.20 0.1927652
348.30 0.1947662
348.40 0.19485
348.50 0.1934401
348.60 0.1915035
348.70 0.1896693
348.80 0.1879327
348.90 0.1860914
349.00 0.1841557
349.10 0.1822978
349.20 0.1806717
349.30 0.1794984
349.40 0.1791747
349.50 0.1799536
349.60 0.1814494
349.70 0.1826956
349.80 0.1830008
349.90 0.1829205
350.00 0.1841906
350.10 0.1883599
350.20 0.1953053
350.30 0.2030758
350.40 0.2092234
350.50 0.2123505
350.60 0.2125699
350.70 0.2108506
350.80 0.2081938
350.90 0.2051596
351.00 0.2016493
351.10 0.1969516
351.20 0.1902991
351.30 0.1818559
351.40 0.1732578
351.50 0.1668256
351.60 0.1639217
351.70 0.1639891
351.80 0.1651989
351.90 0.1659744
352.00 0.1658724
352.10 0.1652124
352.20 0.1643662
352.30 0.1636563
352.40 0.1637751
352.50 0.1659906
352.60 0.1714506
352.70 0.1799953
352.80 0.1897034
352.90 0.1979648
353.00 0.2034017
353.10 0.2067489
353.20 0.2097267
353.30 0.2132887
353.40 0.2172024
353.50 0.2210005
353.60 0.2247783
353.70 0.228896
353.80 0.2333474
353.90 0.2377368
354.00 0.241547
354.10 0.244106
354.20 0.2446033
354.30 0.2427154
354.40 0.2393059
354.50 0.2361324
354.60 0.2345333
354.70 0.2344412
354.80 0.2347533
354.90 0.2344889
355.00 0.2334647
355.10 0.2320747
355.20 0.2307383
355.30 0.2296496
355.40 0.2289022
355.50 0.2285369
355.60 0.2283238
355.70 0.2276198
355.80 0.225668
355.90 0.2222269
356.00 0.2178576
356.10 0.2134675
356.20 0.2095329
356.30 0.2057185
356.40 0.2012453
356.50 0.1957378
356.60 0.1898402
356.70 0.1849866
356.80 0.1824013
356.90 0.1821942
357.00 0.1833701
357.10 0.1845985
357.20 0.1849085
357.30 0.1838865
357.40 0.1815542
357.50 0.1782384
357.60 0.1744759
357.70 0.1708252
357.80 0.1676398
357.90 0.1649886
358.00 0.1628519
358.10 0.1614634
358.20 0.1614008
358.30 0.1632072
358.40 0.1668457
358.50 0.1715034
358.60 0.1759059
358.70 0.1788627
358.80 0.1797633
358.90 0.178872
359.00 0.1773469
359.10 0.1768052
359.20 0.1784332
359.30 0.1821587
359.40 0.1865564
359.50 0.1897401
359.60 0.190641
359.70 0.1896715
359.80 0.1882575
359.90 0.1876331
360.00 0.1878605
360.10 0.1878323
360.20 0.1862167
360.30 0.1825279
360.40 0.1775343
360.50 0.1728754
360.60 0.1703011
360.70 0.1709764
360.80 0.1749552
360.90 0.1810587
361.00 0.1874542
361.10 0.1926979
361.20 0.1964189
361.30 0.1990359
361.40 0.2009114
361.50 0.2019669
361.60 0.2021829
361.70 0.2021423
361.80 0.2027131
361.90 0.2041675
362.00 0.205857
362.10 0.2068916
362.20 0.2069584
362.30 0.2064107
362.40 0.2058404
362.50 0.2057418
362.60 0.2062794
362.70 0.2070042
362.80 0.2069334
362.90 0.2053325
363.00 0.2025712
363.10 0.2000134
363.20 0.1989189
363.30 0.1995038
363.40 0.2010326
363.50 0.2025883
363.60 0.2036622
363.70 0.2042038
363.80 0.204316
363.90 0.2039564
364.00 0.2028625
364.10 0.2007347
364.20 0.1975396
364.30 0.1936784
364.40 0.189903
364.50 0.1870708
364.60 0.1858138
364.70 0.1861856
364.80 0.1875855
364.90 0.1892129
365.00 0.1907981
365.10 0.1928748
365.20 0.1961219
365.30 0.2003523
365.40 0.2042666
365.50 0.206353
365.60 0.2061334
365.70 0.2045261
365.80 0.2029606
365.90 0.2022178
366.00 0.2021376
366.10 0.2022703
366.20 0.2025849
366.30 0.2034077
366.40 0.204823
366.50 0.206345
366.60 0.2071723
366.70 0.2067062
366.80 0.2048622
366.90 0.2020251
367.00 0.1988474
367.10 0.1960708
367.20 0.1943686
367.30 0.1941735
367.40 0.1954903
367.50 0.1978572
367.60 0.2005725
367.70 0.2030582
367.80 0.2051007
367.90 0.2068123
368.00 0.2083925
368.10 0.2098885
368.20 0.2111099
368.30 0.2117224
368.40 0.2114639
368.50 0.2103918
368.60 0.2089849
368.70 0.2079448
368.80 0.2077684
368.90 0.2084442
369.00 0.2095905
369.10 0.210905
369.20 0.2123718
369.30 0.2139765
369.40 0.2153431
369.50 0.2158283
369.60 0.2150782
369.70 0.2134626
369.80 0.2119467
369.90 0.2115435
370.00 0.2127888
370.10 0.2155304
370.20 0.2191007
370.30 0.2226758
370.40 0.2255592
370.50 0.2272994
370.60 0.2277397
370.70 0.2271428
370.80 0.2262064
370.90 0.2257517
371.00 0.2261908
371.10 0.2271847
371.20 0.2277715
371.30 0.226864
371.40 0.223857
371.50 0.2190291
371.60 0.2135017
371.70 0.2087147
371.80 0.205769
371.90 0.2050694
372.00 0.2063585
372.10 0.2087915
372.20 0.2108774
372.30 0.2107393
372.40 0.206982
372.50 0.199786
372.60 0.1912373
372.70 0.1843933
372.80 0.1817257
372.90 0.1840378
373.00 0.1904042
373.10 0.198843
373.20 0.2071376
373.30 0.2134364
373.40 0.2166235
373.50 0.2163988
373.60 0.213073
373.70 0.2072715
373.80 0.1998015
373.90 0.1917258
374.00 0.1843767
374.10 0.1791246
374.20 0.1770294
374.30 0.1786535
374.40 0.1841054
374.50 0.1930794
374.60 0.2047423
374.70 0.2175748
374.80 0.2294678
374.90 0.2382567
375.00 0.2424645
375.10 0.2417763
375.20 0.2369885
375.30 0.2295937
375.40 0.221323
375.50 0.2137819
375.60 0.2080689
375.70 0.2044809
375.80 0.202531
375.90 0.2013535
376.00 0.2003044
376.10 0.1994346
376.20 0.1995914
376.30 0.2020676
376.40 0.2079708
376.50 0.2177468
376.60 0.2311676
376.70 0.2474776
376.80 0.26529
376.90 0.2822967
377.00 0.2954571
377.10 0.30204
377.20 0.3008724
377.30 0.2927946
377.40 0.280042
377.50 0.2651883
377.60 0.2504098
377.70 0.2372733
377.80 0.22668
377.90 0.2188183
378.00 0.213276
378.10 0.2093973
378.20 0.2066671
378.30 0.2048074
378.40 0.2036251
378.50 0.2029613
378.60 0.2028412
378.70 0.2035582
378.80 0.2055472
378.90 0.2092959
379.00 0.2154912
379.10 0.225104
379.20 0.2389859
379.30 0.2571238
379.40 0.2781784
379.50 0.2996775
379.60 0.3185858
379.70 0.33191
379.80 0.3373759
379.90 0.3341365
380.00 0.323206
380.10 0.307164
380.20 0.2891722
380.30 0.2718919
380.40 0.2569237
380.50 0.2448474
380.60 0.2355364
380.70 0.2284278
380.80 0.2227228
380.90 0.2177337
381.00 0.2132228
381.10 0.2093923
381.20 0.2064769
381.30 0.2043581
381.40 0.2026792
381.50 0.2013495
381.60 0.2007486
381.70 0.2012469
381.80 0.2025317
381.90 0.2035448
382.00 0.2032605
382.10 0.2013457
382.20 0.198268
382.30 0.1953843
382.40 0.1957601
382.50 0.2021288
382.60 0.2169862
382.70 0.2439934
382.80 0.28625
382.90 0.3404407
383.00 0.3912787
383.10 0.4211389
383.20 0.4250804
383.30 0.4089175
383.40 0.3830894
383.50 0.3537443
383.60 0.3206911
383.70 0.2824154
383.80 0.2399453
383.90 0.200645
384.00 0.1778966
384.10 0.1802717
384.20 0.2015398
384.30 0.2271016
384.40 0.2475876
384.50 0.2588965
384.60 0.257063
384.70 0.2411191
384.80 0.2302439
384.90 0.2476796
385.00 0.2892856
385.10 0.321024
385.20 0.315347
385.30 0.280393
385.40 0.2429836
385.50 0.2173916
385.60 0.2027866
385.70 0.1984073
385.80 0.2078593
385.90 0.2283427
386.00 0.2466915
386.10 0.25099
386.20 0.2383761
386.30 0.2124546
386.40 0.1803616
386.50 0.1553717
386.60 0.1562552
386.70 0.1958861
386.80 0.2674074
386.90 0.3409787
387.00 0.3815152
387.10 0.3725509
387.20 0.3273556
387.30 0.2767657
387.40 0.2428457
387.50 0.2237981
387.60 0.2045182
387.70 0.1807712
387.80 0.1657652
387.90 0.173616
388.00 0.2018273
388.10 0.2333189
388.20 0.2558601
388.30 0.2689324
388.40 0.2739187
388.50 0.2692872
388.60 0.2578919
388.70 0.250468
388.80 0.2543055
388.90 0.2632694
389.00 0.2655735
389.10 0.2595532
389.20 0.2503936
389.30 0.2385665
389.40 0.2207186
389.50 0.1970589
389.60 0.1734868
389.70 0.1581446
389.80 0.1519225
389.90 0.1576628
390.00 0.174609
390.10 0.1947258
390.20 0.2135083
390.30 0.2290187
390.40 0.2433343
390.50 0.2623461
390.60 0.2846886
390.70 0.3034183
390.80 0.311127
390.90 0.3042653
391.00 0.2849129
391.10 0.2595865
391.20 0.2390441
391.30 0.235708
391.40 0.263116
391.50 0.3134122
391.60 0.3603936
391.70 0.3805992
391.80 0.3706634
391.90 0.3424316
392.00 0.3070117
392.10 0.2712079
392.20 0.2425251
392.30 0.2245566
392.40 0.2167641
392.50 0.2162423
392.60 0.2255719
392.70 0.249476
392.80 0.2785959
392.90 0.2971952
393.00 0.3055209
393.10 0.3298998
393.20 0.3976448
393.30 0.4981967
393.40 0.5819935
393.50 0.5966279
393.60 0.5290816
393.70 0.417619
393.80 0.3214026
393.90 0.276216
394.00 0.2729678
394.10 0.2758781
394.20 0.2584514
394.30 0.2216571
394.40 0.1890465
394.50 0.1792452
394.60 0.1936835
394.70 0.2181328
394.80 0.2371149
394.90 0.24403
395.00 0.2477989
395.10 0.2557753
395.20 0.2624571
395.30 0.2581305
395.40 0.2473706
395.50 0.2472517
395.60 0.2674245
395.70 0.2961829
395.80 0.3106189
395.90 0.3007205
396.00 0.2762014
396.10 0.2550743
396.20 0.2465115
396.30 0.24957
396.40 0.2652764
396.50 0.2983435
396.60 0.3530384
396.70 0.4239135
396.80 0.490552
396.90 0.527672
397.00 0.5186821
397.10 0.4677326
397.20 0.4017228
397.30 0.3544369
397.40 0.343696
397.50 0.3623477
397.60 0.3865227
397.70 0.3943314
397.80 0.3810474
397.90 0.3577989
398.00 0.339829
398.10 0.3349728
398.20 0.343989
398.30 0.3673184
398.40 0.4048031
398.50 0.4480618
398.60 0.479468
398.70 0.4840811
398.80 0.4589085
398.90 0.4184115
399.00 0.3836226
399.10 0.3723692
399.20 0.3883404
399.30 0.4192079
399.40 0.4465248
399.50 0.4566134
399.60 0.4428489
399.70 0.4088986
399.80 0.3727146
399.90 0.3559362
400.00 0.3642639
400.10 0.3824794
400.20 0.3937654
400.30 0.3987289
400.40 0.4079092
400.50 0.4215399
400.60 0.4274043
400.70 0.4177929
400.80 0.4001675
400.90 0.3916268
401.00 0.4012616
401.10 0.4186534
401.20 0.4265832
401.30 0.4195334
401.40 0.4117142
401.50 0.4179208
401.60 0.4339947
401.70 0.4430974
401.80 0.4395595
401.90 0.4305816
402.00 0.4219387
402.10 0.4087628
402.20 0.3888795
402.30 0.3756548
402.40 0.3842614
402.50 0.4088483
402.60 0.4237691
402.70 0.4101007
402.80 0.3750741
402.90 0.3414765
403.00 0.3242456
403.10 0.3188062
403.20 0.3095029
403.30 0.2882594
403.40 0.2644882
403.50 0.2573528
403.60 0.27826
403.70 0.3218364
403.80 0.3732077
403.90 0.4193776
404.00 0.4549111
404.10 0.4786942
404.20 0.485591
404.30 0.4676994
404.40 0.4250478
404.50 0.3723833
404.60 0.3321621
404.70 0.3185574
404.80 0.3312764
404.90 0.3603974
405.00 0.3912942
405.10 0.4103068
405.20 0.4111236
405.30 0.3970072
405.40 0.3765082
405.50 0.3575384
405.60 0.3446285
405.70 0.3398254
405.80 0.3423411
405.90 0.350623
406.00 0.3639507
406.10 0.3801155
406.20 0.3958674
406.30 0.4097336
406.40 0.423143
406.50 0.4373086
406.60 0.449434
406.70 0.4557043
406.80 0.4558216
406.90 0.4503001
407.00 0.4383066
407.10 0.4215705
407.20 0.4071899
407.30 0.4051669
407.40 0.414355
407.50 0.4168555
407.60 0.3970289
407.70 0.3571241
407.80 0.3175023
407.90 0.2995457
408.00 0.3088143
408.10 0.3356255
408.20 0.367186
408.30 0.3939997
408.40 0.4090001
408.50 0.4080558
408.60 0.3954968
408.70 0.3832917
408.80 0.3774859
408.90 0.3703422
409.00 0.3531891
409.10 0.3344305
409.20 0.334532
409.30 0.3614565
409.40 0.4006503
409.50 0.4286884
409.60 0.4326708
409.70 0.4171173
409.80 0.3994967
409.90 0.400299
410.00 0.4276201
410.10 0.4682048
410.20 0.4978061
410.30 0.5024338
410.40 0.4860807
410.50 0.4596806
410.60 0.4302431
410.70 0.401914
410.80 0.3852092
410.90 0.3852191
411.00 0.3958422
411.10 0.4023925
411.20 0.3958827
411.30 0.3807414
411.40 0.3685194
411.50 0.367529
411.60 0.3765558
411.70 0.3929123
411.80 0.4161325
411.90 0.4412364
412.00 0.457081
412.10 0.4519417
412.20 0.4234949
412.30 0.3858518
412.40 0.3616359
412.50 0.3639352
412.60 0.3876717
412.70 0.4157798
412.80 0.4334237
412.90 0.4349289
413.00 0.4207133
413.10 0.394745
413.20 0.3647905
413.30 0.3408013
413.40 0.3294764
413.50 0.3295331
413.60 0.3337829
413.70 0.3369934
413.80 0.3392217
413.90 0.3424383
414.00 0.3462181
414.10 0.3483417
414.20 0.3473597
414.30 0.3466063
414.40 0.3469943
414.50 0.3482903
414.60 0.3526861
414.70 0.3638756
414.80 0.3806344
414.90 0.399571
415.00 0.4160456
415.10 0.4233909
415.20 0.4173298
415.30 0.4016239
415.40 0.3877729
415.50 0.3871934
415.60 0.3966843
415.70 0.3995564
415.80 0.3839834
415.90 0.3562615
416.00 0.3332903
416.10 0.3275044
416.20 0.3400621
416.30 0.3667941
416.40 0.4025837
416.50 0.4389672
416.60 0.4618629
416.70 0.4629329
416.80 0.4447754
416.90 0.4207502
417.00 0.4025449
417.10 0.3901439
417.20 0.3775907
417.30 0.3609038
417.40 0.3445909
417.50 0.3346248
417.60 0.3319068
417.70 0.3348048
417.80 0.3448437
417.90 0.3638107
418.00 0.388695
418.10 0.4070948
418.20 0.4108376
418.30 0.4050129
418.40 0.400456
418.50 0.3990268
418.60 0.3908498
418.70 0.3727703
418.80 0.3517846
418.90 0.337205
419.00 0.3298582
419.10 0.3257234
419.20 0.3264532
419.30 0.3386799
419.40 0.36282
419.50 0.3885645
419.60 0.4026119
419.70 0.399852
419.80 0.3866389
419.90 0.3730678
420.00 0.3643825
420.10 0.3593937
420.20 0.3560481
420.30 0.3558461
420.40 0.3623847
420.50 0.373933
420.60 0.3816791
420.70 0.3783719
420.80 0.3658586
420.90 0.3553821
421.00 0.353886
421.10 0.358471
421.20 0.362312
421.30 0.3624813
421.40 0.3588675
421.50 0.3485043
421.60 0.3283341
421.70 0.3020567
421.80 0.2782838
421.90 0.261064
422.00 0.2467242
422.10 0.2289192
422.20 0.2042619
422.30 0.1740473
422.40 0.1440115
422.50 0.1217826
422.60 0.110994
422.70 0.107147
422.80 0.1077488
422.90 0.1140267
423.00 0.1299321
423.10 0.1558233
423.20 0.1874186
423.30 0.2196719
423.40 0.2504836
423.50 0.2791767
423.60 0.3050978
423.70 0.3267722
423.80 0.337841
423.90 0.3322293
424.00 0.3123209
424.10 0.2890873
424.20 0.2724469
424.30 0.2648267
424.40 0.2635759
424.50 0.2676727
424.60 0.2743242
424.70 0.2747285
424.80 0.2615966
424.90 0.2428513
425.00 0.2357083
425.10 0.248445
425.20 0.2706876
425.30 0.2829088
425.40 0.2760682
425.50 0.2596098
425.60 0.2517641
425.70 0.2627485
425.80 0.2873544
425.90 0.3128189
426.00 0.3303304
426.10 0.3387002
426.20 0.3402081
426.30 0.3382153
426.40 0.3366394
426.50 0.3374263
426.60 0.3373996
426.70 0.3310051
426.80 0.3190559
426.90 0.3099218
427.00 0.3113367
427.10 0.3228559
427.20 0.3325275
427.30 0.3296889
427.40 0.3132145
427.50 0.2907673
427.60 0.2738468
427.70 0.272957
427.80 0.2914635
427.90 0.3232967
428.00 0.3550754
428.10 0.3750227
428.20 0.3797607
428.30 0.3726394
428.40 0.3585026
428.50 0.3405752
428.60 0.3216122
428.70 0.3048957
428.80 0.2938422
428.90 0.2906971
429.00 0.2959905
429.10 0.3082481
429.20 0.3255798
429.30 0.3427046
429.40 0.353189
429.50 0.3557619
429.60 0.3551885
429.70 0.3557447
429.80 0.3559385
429.90 0.3512415
430.00 0.3401029
430.10 0.3262339
430.20 0.3165874
430.30 0.3190233
430.40 0.3371206
430.50 0.3623372
430.60 0.3757731
430.70 0.3645125
430.80 0.3365494
430.90 0.3158964
431.00 0.3208393
431.10 0.3474807
431.20 0.3754117
431.30 0.3868816
431.40 0.3806477
431.50 0.3694249
431.60 0.3659715
431.70 0.3746693
431.80 0.3925289
431.90 0.4137127
432.00 0.4325208
432.10 0.444087
432.20 0.4468906
432.30 0.4408953
432.40 0.4248612
432.50 0.3964367
432.60 0.3590029
432.70 0.3260314
432.80 0.3147984
432.90 0.331819
433.00 0.3657082
433.10 0.3971895
433.20 0.4146933
433.30 0.4216801
433.40 0.4287876
433.50 0.4419508
433.60 0.4632243
433.70 0.4982239
433.80 0.5540067
433.90 0.6303196
434.00 0.7058199
434.10 0.7472763
434.20 0.7336777
434.30 0.6741217
434.40 0.6000548
434.50 0.5409376
434.60 0.5086169
434.70 0.4995506
434.80 0.5031537
434.90 0.5054478
435.00 0.49218
435.10 0.4579601
435.20 0.4117744
435.30 0.370904
435.40 0.3514308
435.50 0.3609024
435.60 0.3934838
435.70 0.432038
435.80 0.4582341
435.90 0.4645581
436.00 0.4561054
436.10 0.4433882
436.20 0.4353111
436.30 0.4387739
436.40 0.4495869
436.50 0.4559643
436.60 0.4516853
436.70 0.4429914
436.80 0.4422665
436.90 0.4535804
437.00 0.4691628
437.10 0.4779152
437.20 0.4746081
437.30 0.4613273
437.40 0.4452441
437.50 0.4358473
437.60 0.438664
437.70 0.449434
437.80 0.4568872
437.90 0.4541802
438.00 0.4452177
438.10 0.4378035
438.20 0.4316659
438.30 0.4201222
438.40 0.4026344
438.50 0.3902843
438.60 0.3945214
438.70 0.4126537
438.80 0.430852
438.90 0.4398354
439.00 0.4427741
439.10 0.4482715
439.20 0.4590844
439.30 0.4702189
439.40 0.4763816
439.50 0.4779632
439.60 0.4792735
439.70 0.4833779
439.80 0.4888558
439.90 0.4919243
440.00 0.4933878
440.10 0.4975042
440.20 0.5060744
440.30 0.5147833
440.40 0.5149264
440.50 0.5029745
440.60 0.4812937
440.70 0.4596752
440.80 0.4532427
440.90 0.4721716
441.00 0.5131612
441.10 0.554858
441.20 0.5744267
441.30 0.5672707
441.40 0.5498543
441.50 0.5428022
441.60 0.5532853
441.70 0.5728213
441.80 0.5870997
441.90 0.5868868
442.00 0.5727807
442.10 0.5526739
442.20 0.5334882
442.30 0.5151776
442.40 0.4943916
442.50 0.4735749
442.60 0.4633832
442.70 0.4729432
442.80 0.4986877
442.90 0.5268327
443.00 0.5463736
443.10 0.556941
443.20 0.5633214
443.30 0.5660232
443.40 0.5629789
443.50 0.5581142
443.60 0.5618062
443.70 0.5800659
443.80 0.6054026
443.90 0.6272419
444.00 0.6409179
444.10 0.6493132
444.20 0.6547043
444.30 0.6554535
444.40 0.6508393
444.50 0.6459555
444.60 0.6476349
444.70 0.6558535
444.80 0.6641862
444.90 0.6681051
445.00 0.668893
445.10 0.6681649
445.20 0.6612677
445.30 0.6402062
445.40 0.6034945
445.50 0.5612294
445.60 0.5303552
445.70 0.5237092
445.80 0.5422013
445.90 0.5746637
446.00 0.60662
446.10 0.6291782
446.20 0.6412044
446.30 0.6460341
446.40 0.6485344
446.50 0.6533218
446.60 0.6625164
446.70 0.674212
446.80 0.6844683
446.90 0.6916919
447.00 0.6979623
447.10 0.7067388
447.20 0.7200424
447.30 0.7366008
447.40 0.7518597
447.50 0.7614112
447.60 0.7656305
447.70 0.7699489
447.80 0.7785508
447.90 0.7875574
448.00 0.7865094
448.10 0.7722851
448.20 0.7521757
448.30 0.740194
448.40 0.7478676
448.50 0.7729481
448.60 0.801873
448.70 0.8193433
448.80 0.8175362
448.90 0.800253
449.00 0.780455
449.10 0.7709104
449.20 0.7741996
449.30 0.7807957
449.40 0.7782377
449.50 0.7638991
449.60 0.7478794
449.70 0.7427963
449.80 0.7527249
449.90 0.7721893
450.00 0.7932385
450.10 0.8116516
450.20 0.826624
450.30 0.8372021
450.40 0.8408991
450.50 0.834895
450.60 0.8185092
450.70 0.7947734
450.80 0.7694926
450.90 0.7490496
451.00 0.7379192
451.10 0.736471
451.20 0.7403373
451.30 0.7432171
451.40 0.7413952
451.50 0.7354704
451.60 0.728824
451.70 0.7257807
451.80 0.7310686
451.90 0.7471356
452.00 0.7699957
452.10 0.7914214
452.20 0.8073793
452.30 0.8212348
452.40 0.8356598
452.50 0.8449712
452.60 0.8412393
452.70 0.82681
452.80 0.8144689
452.90 0.8144941
453.00 0.8250969
453.10 0.8358238
453.20 0.837152
453.30 0.8258319
453.40 0.8055451
453.50 0.7868252
453.60 0.7837029
453.70 0.8050387
453.80 0.8465534
453.90 0.8923803
454.00 0.9272249
454.10 0.9457754
454.20 0.9497865
454.30 0.9391233
454.40 0.9107126
454.50 0.8669299
454.60 0.8205458
454.70 0.7879633
454.80 0.7784048
454.90 0.7903783
455.00 0.8146608
455.10 0.8389356
455.20 0.8528844
455.30 0.8539616
455.40 0.8495527
455.50 0.8510844
455.60 0.8647709
455.70 0.8889478
455.80 0.9181702
455.90 0.9467016
456.00 0.9691761
456.10 0.9819993
456.20 0.9862118
456.30 0.9874525
456.40 0.9915778
456.50 1.001086
456.60 1.015484
456.70 1.032137
456.80 1.046498
456.90 1.053885
457.00 1.053938
457.10 1.052482
457.20 1.056073
457.30 1.065409
457.40 1.074344
457.50 1.074576
457.60 1.061472
457.70 1.036778
457.80 1.007784
457.90 0.9842332
458.00 0.973161
458.10 0.9737691
458.20 0.9770852
458.30 0.970024
458.40 0.9429627
458.50 0.897945
458.60 0.8492676
458.70 0.8141445
458.80 0.8015078
458.90 0.8088837
459.00 0.8277161
459.10 0.8497114
459.20 0.8688447
459.30 0.882788
459.40 0.8947983
459.50 0.9104994
459.60 0.9321373
459.70 0.9561492
459.80 0.9754613
459.90 0.98437
460.00 0.9824138
460.10 0.9748458
460.20 0.9687955
460.30 0.9659532
460.40 0.9582844
460.50 0.9350925
460.60 0.8970709
460.70 0.8627019
460.80 0.8576617
460.90 0.8938143
461.00 0.9581116
461.10 1.023837
461.20 1.071883
461.30 1.100703
461.40 1.11822
461.50 1.128902
461.60 1.132056
461.70 1.128948
461.80 1.124996
461.90 1.125578
462.00 1.133786
462.10 1.150559
462.20 1.171467
462.30 1.182171
462.40 1.164739
462.50 1.113358
462.60 1.041233
462.70 0.9703761
462.80 0.9173992
462.90 0.8890847
463.00 0.8847091
463.10 0.8970925
463.20 0.9139001
463.30 0.9248059
463.40 0.9280148
463.50 0.9278109
463.60 0.9255981
463.70 0.9174066
463.80 0.9028846
463.90 0.8915437
464.00 0.8952899
464.10 0.915872
464.20 0.943604
464.30 0.9674902
464.40 0.9832641
464.50 0.9917442
464.60 0.9947837
464.70 0.9940799
464.80 0.9903023
464.90 0.9831046
465.00 0.9736013
465.10 0.9672485
465.20 0.9714279
465.30 0.9871683
465.40 1.00547
465.50 1.015227
465.60 1.014254
465.70 1.012842
465.80 1.025808
465.90 1.059293
466.00 1.104827
466.10 1.145044
466.20 1.166253
466.30 1.167753
466.40 1.157929
466.50 1.14238
466.60 1.11896
466.70 1.082911
466.80 1.034579
466.90 0.980524
467.00 0.9278099
467.10 0.88007
467.20 0.8392206
467.30 0.8097283
467.40 0.7991874
467.50 0.8118493
467.60 0.8410234
467.70 0.87128
467.80 0.8903087
467.90 0.8975078
468.00 0.900244
468.10 0.903674
468.20 0.906898
468.30 0.9078416
468.40 0.908554
468.50 0.9142933
468.60 0.9279124
468.70 0.9466015
468.80 0.9647068
468.90 0.9794142
469.00 0.9928694
469.10 1.008038
469.20 1.023058
469.30 1.031639
469.40 1.030268
469.50 1.022926
469.60 1.017584
469.70 1.01918
469.80 1.02796
469.90 1.043049
470.00 1.062255
470.10 1.079526
470.20 1.088841
470.30 1.091095
470.40 1.092434
470.50 1.095168
470.60 1.094599
470.70 1.087349
470.80 1.076987
470.90 1.068299
471.00 1.061576
471.10 1.054427
471.20 1.045091
471.30 1.03104
471.40 1.007517
471.50 0.973398
471.60 0.9384006
471.70 0.918686
471.80 0.9240016
471.90 0.9496633
472.00 0.9807772
472.10 1.003631
472.20 1.013586
472.30 1.015667
472.40 1.019471
472.50 1.031071
472.60 1.047884
472.70 1.061171
472.80 1.063783
472.90 1.05631
473.00 1.046354
473.10 1.042992
473.20 1.051345
473.30 1.069549
473.40 1.089923
473.50 1.103406
473.60 1.103769
473.70 1.090926
473.80 1.072125
473.90 1.058848
474.00 1.059323
474.10 1.072062
474.20 1.087392
474.30 1.096501
474.40 1.098627
474.50 1.099637
474.60 1.105771
474.70 1.118773
474.80 1.13549
474.90 1.151191
475.00 1.16276
475.10 1.169443
475.20 1.173204
475.30 1.179219
475.40 1.192946
475.50 1.213051
475.60 1.226719
475.70 1.216191
475.80 1.173286
475.90 1.105565
476.00 1.027482
476.10 0.9482326
476.20 0.8696134
476.30 0.7936764
476.40 0.7275416
476.50 0.6812134
476.60 0.6584764
476.70 0.6535621
476.80 0.6573117
476.90 0.6623675
477.00 0.6662691
477.10 0.6716344
477.20 0.683847
477.30 0.707
477.40 0.7396428
477.50 0.7734809
477.60 0.7970645
477.70 0.8023398
477.80 0.7898921
477.90 0.7683562
478.00 0.7478859
478.10 0.7345284
478.20 0.7305891
478.30 0.7382169
478.40 0.7599277
478.50 0.7938541
478.60 0.830939
478.70 0.8599027
478.80 0.874836
478.90 0.8784021
479.00 0.8788054
479.10 0.8833116
479.20 0.8937668
479.30 0.907197
479.40 0.9196015
479.50 0.9296082
479.60 0.9386819
479.70 0.9486693
479.80 0.9606777
479.90 0.9751869
480.00 0.9915654
480.10 1.007087
480.20 1.015976
480.30 1.009916
480.40 0.982
480.50 0.9332339
480.60 0.8753222
480.70 0.8238723
480.80 0.7869335
480.90 0.7618113
481.00 0.7436657
481.10 0.7337777
481.20 0.7378299
481.30 0.7584959
481.40 0.7921025
481.50 0.8310596
481.60 0.8660776
481.70 0.8883034
481.80 0.8942201
481.90 0.8892714
482.00 0.8839658
482.10 0.8850925
482.20 0.891793
482.30 0.9002594
482.40 0.9088334
482.50 0.9165757
482.60 0.9209244
482.70 0.9202762
482.80 0.9173467
482.90 0.9158701
483.00 0.913902
483.10 0.9055703
483.20 0.8918824
483.30 0.8848053
483.40 0.8963434
483.50 0.9256442
483.60 0.9605301
483.70 0.9905234
483.80 1.01317
483.90 1.027766
484.00 1.029005
484.10 1.010734
484.20 0.9758882
484.30 0.94044
484.40 0.9236911
484.50 0.9311292
484.60 0.9468275
484.70 0.9462602
484.80 0.9186065
484.90 0.8748148
485.00 0.8349699
485.10 0.8128929
485.20 0.8117812
485.30 0.827409
485.40 0.8507029
485.50 0.8703662
485.60 0.8800096
485.70 0.8856277
485.80 0.9065733
485.90 0.9660308
486.00 1.070938
486.10 1.194363
486.20 1.282764
486.30 1.292051
486.40 1.222292
486.50 1.115639
486.60 1.020248
486.70 0.9600489
486.80 0.9351153
486.90 0.9367707
487.00 0.9549489
487.10 0.9776522
487.20 0.9937063
487.30 0.9985604
487.40 0.9945807
487.50 0.9862782
487.60 0.9784552
487.70 0.977317
487.80 0.9875714
487.90 1.007534
488.00 1.029133
488.10 1.043849
488.20 1.049113
488.30 1.048896
488.40 1.048881
488.50 1.051257
488.60 1.054579
488.70 1.058234
488.80 1.065202
488.90 1.07762
489.00 1.090376
489.10 1.09407
489.20 1.085745
489.30 1.073604
489.40 1.068958
489.50 1.075393
489.60 1.086879
489.70 1.095085
489.80 1.096504
489.90 1.09338
490.00 1.090545
490.10 1.091639
490.20 1.098359
490.30 1.113133
490.40 1.139212
490.50 1.17606
490.60 1.216795
490.70 1.252666
490.80 1.280451
490.90 1.302897
491.00 1.322458
491.10 1.338209
491.20 1.348027
491.30 1.350528
491.40 1.345356
491.50 1.333641
491.60 1.318592
491.70 1.303586
491.80 1.28908
491.90 1.274571
492.00 1.264247
492.10 1.267294
492.20 1.290299
492.30 1.329683
492.40 1.373284
492.50 1.411281
492.60 1.443749
492.70 1.475347
492.80 1.503845
492.90 1.518198
493.00 1.509967
493.10 1.483718
493.20 1.453128
493.30 1.429576
493.40 1.41764
493.50 1.418099
493.60 1.430411
493.70 1.451438
493.80 1.4746
493.90 1.493019
494.00 1.503584
494.10 1.508033
494.20 1.51154
494.30 1.519731
494.40 1.536109
494.50 1.561704
494.60 1.595876
494.70 1.636151
494.80 1.677429
494.90 1.71292
495.00 1.736443
495.10 1.740494
495.20 1.709865
495.30 1.622765
495.40 1.46792
495.50 1.263642
495.60 1.054958
495.70 0.8881745
495.80 0.7862947
495.90 0.7445649
496.00 0.7423731
496.10 0.7565289
496.20 0.769807
496.30 0.7754441
496.40 0.7765177
496.50 0.7809747
496.60 0.7964421
496.70 0.8269987
496.80 0.8719195
496.90 0.9254278
497.00 0.9781568
497.10 1.021664
497.20 1.051237
497.30 1.065305
497.40 1.064672
497.50 1.053312
497.60 1.038548
497.70 1.026856
497.80 1.019633
497.90 1.014298
498.00 1.007947
498.10 0.9998837
498.20 0.993948
498.30 0.9993757
498.40 1.025329
498.50 1.070489
498.60 1.119561
498.70 1.153862
498.80 1.164892
498.90 1.158041
499.00 1.146421
499.10 1.140829
499.20 1.142369
499.30 1.144441
499.40 1.143868
499.50 1.147759
499.60 1.153201
499.70 1.122039
499.80 0.9972737
499.90 0.7604303
500.00 1
500.10 0.8918697
500.20 0.9106655
500.30 0.9519838
500.40 0.932856
500.50 0.9064958
500.60 0.9085196
500.70 0.934162
500.80 0.9093891
500.90 0.8955545
501.00 0.9260023
501.10 0.9982369
501.20 0.95356
501.30 0.9332177
501.40 0.8582557
501.50 0.8102543
501.60 0.858906
501.70 0.8649559
501.80 0.9596377
501.90 1.019475
502.00 1.049174
502.10 1.070727
502.20 1.045819
502.30 1.031102
502.40 1.07177
502.50 1.077044
502.60 1.065495
502.70 1.047282
502.80 1.054067
502.90 1.070077
503.00 1.08601
503.10 1.146859
503.20 1.152217
503.30 1.167095
503.40 1.159911
503.50 1.195892
503.60 1.198432
503.70 1.137734
503.80 1.155733
503.90 1.198394
504.00 1.160059
504.10 1.141541
504.20 1.134663
504.30 1.156775
504.40 1.172974
504.50 1.189678
504.60 1.278117
504.70 1.302703
504.80 1.317472
504.90 1.272658
505.00 1.162401
505.10 1.104174
505.20 1.153463
505.30 1.188031
505.40 1.176617
505.50 1.111136
505.60 1.144071
505.70 1.149513
505.80 1.195563
505.90 1.186368
506.00 1.184406
506.10 1.223681
506.20 1.223174
506.30 1.235923
506.40 1.194921
506.50 1.141255
506.60 1.15636
506.70 1.171135
506.80 1.144694
506.90 1.142872
507.00 1.178264
507.10 1.245533
507.20 1.244075
507.30 1.204658
507.40 1.230701
507.50 1.345081
507.60 1.361647
507.70 1.278003
507.80 1.169332
507.90 1.245174
508.00 1.281734
508.10 1.270412
508.20 1.167521
508.30 1.145342
508.40 1.192472
508.50 1.223641
508.60 1.266028
508.70 1.381078
508.80 1.343745
508.90 1.238923
509.00 1.231603
509.10 1.265384
509.20 1.243646
509.30 1.28916
509.40 1.404743
509.50 1.361203
509.60 1.158881
509.70 1.155037
509.80 1.318873
509.90 1.41024
510.00 1.324742
510.10 1.180305
510.20 1.165309
510.30 1.149365
510.40 1.138387
510.50 1.15752
510.60 1.199847
510.70 1.191437
510.80 1.122242
510.90 1.11253
511.00 1.20438
511.10 1.202736
511.20 1.211785
511.30 1.236864
511.40 1.279356
511.50 1.299595
511.60 1.396703
511.70 1.435798
511.80 1.40928
511.90 1.424789
512.00 1.394736
512.10 1.346572
512.20 1.38612
512.30 1.373061
512.40 1.307748
512.50 1.291886
512.60 1.267036
512.70 1.217294
512.80 1.214514
512.90 1.18822
513.00 1.185747
513.10 1.221489
513.20 1.2802
513.30 1.328302
513.40 1.357476
513.50 1.30874
513.60 1.318735
513.70 1.459277
513.80 1.550784
513.90 1.504304
514.00 1.397358
514.10 1.357765
514.20 1.387169
514.30 1.429242
514.40 1.374947
514.50 1.269781
514.60 1.190685
514.70 1.205825
514.80 1.311873
514.90 1.350462
515.00 1.379729
515.10 1.302531
515.20 1.285828
515.30 1.196195
515.40 1.091728
515.50 1.096314
515.60 1.203713
515.70 1.276719
515.80 1.436684
515.90 1.563053
516.00 1.536682
516.10 1.579164
516.20 1.699402
516.30 1.745482
516.40 1.626086
516.50 1.625632
516.60 1.628115
516.70 1.356827
516.80 0.9100334
516.90 0.6576532
517.00 0.6061819
517.10 0.6061931
517.20 0.6309035
517.30 0.6559892
517.40 0.6439822
517.50 0.7005691
517.60 0.7084555
517.70 0.6990552
517.80 0.751452
517.90 0.7848902
518.00 0.7539188
518.10 0.7564354
518.20 0.7221952
518.30 0.7494161
518.40 0.7873957
518.50 0.8227493
518.60 0.9743076
518.70 1.071171
518.80 1.07482
518.90 1.120845
519.00 1.1449
519.10 1.135002
519.20 1.128928
519.30 1.102736
519.40 1.064173
519.50 1.101504
519.60 1.16007
519.70 1.216208
519.80 1.291941
519.90 1.272408
520.00 1.252103
520.10 1.203552
520.20 1.186644
520.30 1.144958
520.40 1.077999
520.50 0.9560456
520.60 0.8705888
520.70 0.8178701
520.80 0.866324
520.90 0.8605006
521.00 0.7987489
521.10 0.8180873
521.20 1.026568
521.30 1.279352
521.40 1.450569
521.50 1.498316
521.60 1.464265
521.70 1.467878
521.80 1.550506
521.90 1.591758
522.00 1.570934
522.10 1.585528
522.20 1.665353
522.30 1.66633
522.40 1.624498
522.50 1.522231
522.60 1.48172
522.70 1.455877
522.80 1.521119
522.90 1.613068
523.00 1.700633
523.10 1.76482
523.20 1.738232
523.30 1.689926
523.40 1.678324
523.50 1.66378
523.60 1.594424
523.70 1.628385
523.80 1.700267
523.90 1.696515
524.00 1.716806
524.10 1.643234
524.20 1.498464
524.30 1.429757
524.40 1.484664
524.50 1.517611
524.60 1.531595
524.70 1.51168
524.80 1.457868
524.90 1.423882
525.00 1.404294
525.10 1.428307
525.20 1.513846
525.30 1.571127
525.40 1.615141
525.50 1.65797
525.60 1.707426
525.70 1.725869
525.80 1.693909
525.90 1.712275
526.00 1.779646
526.10 1.68128
526.20 1.559478
526.30 1.476837
526.40 1.432069
526.50 1.36565
526.60 1.349683
526.70 1.343014
526.80 1.374056
526.90 1.347542
527.00 1.190386
527.10 1.160649
527.20 1.300562
527.30 1.500973
527.40 1.62963
527.50 1.666227
527.60 1.679817
527.70 1.674794
527.80 1.704985
527.90 1.778736
528.00 1.701792
528.10 1.624962
528.20 1.589143
528.30 1.588476
528.40 1.616777
528.50 1.697951
528.60 1.762251
528.70 1.855166
528.80 1.841448
528.90 1.836062
529.00 1.821802
529.10 1.829425
529.20 1.870858
529.30 1.809243
529.40 1.768865
529.50 1.833987
529.60 1.850271
529.70 1.767838
529.80 1.697383
529.90 1.670225
530.00 1.668718
530.10 1.683092
530.20 1.714365
530.30 1.806897
530.40 1.883539
530.50 1.948543
530.60 1.959264
530.70 1.895437
530.80 1.779427
530.90 1.752725
531.00 1.729889
531.10 1.738758
531.20 1.774052
531.30 1.801111
531.40 1.750646
531.50 1.736736
531.60 1.761404
531.70 1.784711
531.80 1.856514
531.90 1.846792
532.00 1.828465
532.10 1.810136
532.20 1.786578
532.30 1.850491
532.40 1.88998
532.50 1.807704
532.60 1.786835
532.70 1.821594
532.80 1.694549
532.90 1.460251
533.00 1.445874
533.10 1.625171
533.20 1.812611
533.30 1.841035
533.40 1.770325
533.50 1.754014
533.60 1.808554
533.70 1.807638
533.80 1.761082
533.90 1.739104
534.00 1.769505
534.10 1.779683
534.20 1.793577
534.30 1.861449
534.40 1.878181
534.50 1.885442
534.60 1.870383
534.70 1.79957
534.80 1.732066
534.90 1.807624
535.00 1.851897
535.10 1.937277
535.20 2.074408
535.30 2.140756
535.40 2.076645
535.50 2.077646
535.60 2.09471
535.70 2.080226
535.80 2.062649
535.90 1.981002
536.00 1.913994
536.10 1.871521
536.20 1.879589
536.30 1.89796
536.40 1.942274
536.50 1.917402
536.60 1.903965
536.70 1.947596
536.80 1.910416
536.90 1.961382
537.00 2.004505
537.10 1.856587
537.20 1.689697
537.30 1.691675
537.40 1.871032
537.50 2.008698
537.60 2.025078
537.70 1.998763
537.80 1.991759
537.90 2.056942
538.00 2.170044
538.10 2.2336
538.20 2.205078
538.30 2.161195
538.40 2.117844
538.50 2.119499
538.60 2.062848
538.70 2.128296
538.80 2.208548
538.90 2.268789
539.00 2.244179
539.10 2.240529
539.20 2.17312
539.30 2.099862
539.40 2.080167
539.50 2.087214
539.60 2.087645
539.70 2.01232
539.80 1.919616
539.90 1.944405
540.00 2.090862
540.10 2.2499
540.20 2.324891
540.30 2.337909
540.40 2.296032
540.50 2.242485
540.60 2.084011
540.70 1.969791
540.80 2.007885
540.90 2.095684
541.00 2.06979
541.10 1.957617
541.20 1.976948
541.30 2.018884
541.40 2.08504
541.50 2.221391
541.60 2.270791
541.70 2.24275
541.80 2.288034
541.90 2.38378
542.00 2.377408
542.10 2.272984
542.20 2.287722
542.30 2.333953
542.40 2.214398
542.50 2.187544
542.60 2.263606
542.70 2.282359
542.80 2.264238
542.90 2.243247
543.00 2.150867
543.10 2.063253
543.20 2.080932
543.30 2.154834
543.40 2.154234
543.50 2.085933
543.60 2.059177
543.70 2.181048
543.80 2.359952
543.90 2.382046
544.00 2.357492
544.10 2.374675
544.20 2.47042
544.30 2.538781
544.40 2.618959
544.50 2.571824
544.60 2.445737
544.70 2.204755
544.80 1.925606
544.90 1.655309
545.00 1.448234
545.10 1.296866
545.20 1.28693
545.30 1.295961
545.40 1.218169
545.50 1.277599
545.60 1.360608
545.70 1.33782
545.80 1.284952
545.90 1.392236
546.00 1.510249
546.10 1.526605
546.20 1.532056
546.30 1.554939
546.40 1.605531
546.50 1.658409
546.60 1.662738
546.70 1.688292
546.80 1.747472
546.90 1.758927
547.00 1.67488
547.10 1.600893
547.20 1.644102
547.30 1.662845
547.40 1.749041
547.50 1.749477
547.60 1.681763
547.70 1.619511
547.80 1.612154
547.90 1.634681
548.00 1.666325
548.10 1.715254
548.20 1.726475
548.30 1.719724
548.40 1.731038
548.50 1.778745
548.60 1.813267
548.70 1.855307
548.80 1.824391
548.90 1.803896
549.00 1.786556
549.10 1.823029
549.20 1.845876
549.30 1.866876
549.40 1.880408
549.50 1.907216
549.60 1.851167
549.70 1.713596
549.80 1.572506
549.90 1.504145
550.00 1.406134
550.10 1.389209
550.20 1.355206
550.30 1.383348
550.40 1.418292
550.50 1.349427
550.60 1.299982
550.70 1.322424
550.80 1.381356
550.90 1.400141
551.00 1.404589
551.10 1.386532
551.20 1.36187
551.30 1.345179
551.40 1.339446
551.50 1.319799
551.60 1.310106
551.70 1.385655
551.80 1.46032
551.90 1.433691
552.00 1.369968
552.10 1.395711
552.20 1.428981
552.30 1.443468
552.40 1.384241
552.50 1.330485
552.60 1.284262
552.70 1.299407
552.80 1.348613
552.90 1.349977
553.00 1.383125
553.10 1.439473
553.20 1.432821
553.30 1.390617
553.40 1.370557
553.50 1.295608
553.60 1.24752
553.70 1.241017
553.80 1.237904
553.90 1.197298
554.00 1.203499
554.10 1.298074
554.20 1.226388
554.30 1.139559
554.40 1.161453
554.50 1.242784
554.60 1.223226
554.70 1.213171
554.80 1.293502
554.90 1.387922
555.00 1.350983
555.10 1.28961
555.20 1.302236
555.30 1.309388
555.40 1.267365
555.50 1.292479
555.60 1.361465
555.70 1.45832
555.80 1.497851
555.90 1.486696
556.00 1.447062
556.10 1.464861
556.20 1.522281
556.30 1.571022
556.40 1.572105
556.50 1.60501
556.60 1.619697
556.70 1.647288
556.80 1.672864
556.90 1.627397
557.00 1.630436
557.10 1.704922
557.20 1.7035
557.30 1.704279
557.40 1.703954
557.50 1.70393
557.60 1.70393
557.70 1.70393
557.80 1.70393
557.90 1.70393
558.00 1.70393
558.10 1.703931
558.20 1.70386
558.30 1.703663
558.40 1.698199
558.50 1.718707
558.60 1.855816
558.70 1.95761
558.80 1.888086
558.90 1.741968
559.00 1.664127
559.10 1.705505
559.20 1.864939
559.30 1.934703
559.40 1.904876
559.50 1.797973
559.60 1.743189
559.70 1.803337
559.80 1.735249
559.90 1.52002
560.00 1.344021
560.10 1.356899
560.20 1.491716
560.30 1.60934
560.40 1.607096
560.50 1.509318
560.60 1.49403
560.70 1.515722
560.80 1.528962
560.90 1.546071
561.00 1.572674
561.10 1.607217
561.20 1.659159
561.30 1.701174
561.40 1.740213
561.50 1.690196
561.60 1.62469
561.70 1.55755
561.80 1.534361
561.90 1.556751
562.00 1.572687
562.10 1.523389
562.20 1.477171
562.30 1.516303
562.40 1.587314
562.50 1.671918
562.60 1.678094
562.70 1.633515
562.80 1.628909
562.90 1.580472
563.00 1.430992
563.10 1.379109
563.20 1.41593
563.30 1.473691
563.40 1.544623
563.50 1.67874
563.60 1.696508
563.70 1.631715
563.80 1.624599
563.90 1.598278
564.00 1.548431
564.10 1.562327
564.20 1.634641
564.30 1.642014
564.40 1.635192
564.50 1.660922
564.60 1.668333
564.70 1.639239
564.80 1.653546
564.90 1.680455
565.00 1.659102
565.10 1.742186
565.20 1.826082
565.30 1.825871
565.40 1.828192
565.50 1.83893
565.60 1.858195
565.70 1.943094
565.80 1.983971
565.90 1.881101
566.00 1.768983
566.10 1.819101
566.20 1.823472
566.30 1.767964
566.40 1.684318
566.50 1.641003
566.60 1.662622
566.70 1.697891
566.80 1.721906
566.90 1.699718
567.00 1.675517
567.10 1.590173
567.20 1.595492
567.30 1.63387
567.40 1.69105
567.50 1.729133
567.60 1.751826
567.70 1.726856
567.80 1.777384
567.90 1.850994
568.00 1.860189
568.10 1.794278
568.20 1.78231
568.30 1.808784
568.40 1.826122
568.50 1.863275
568.60 1.927327
568.70 2.031211
568.80 1.97682
568.90 1.832689
569.00 1.731769
569.10 1.808024
569.20 1.917254
569.30 1.951374
569.40 1.972049
569.50 1.978198
569.60 1.935692
569.70 1.930945
569.80 1.918001
569.90 1.959168
570.00 1.994176
570.10 2.007182
570.20 2.035631
570.30 2.052601
570.40 1.976303
570.50 1.956015
570.60 2.025833
570.70 2.131905
570.80 2.153582
570.90 2.190448
571.00 2.244663
571.10 2.228386
571.20 2.127295
571.30 2.095457
571.40 2.067025
571.50 2.013619
571.60 1.975995
571.70 2.010622
571.80 2.000288
571.90 1.983831
572.00 2.011159
572.10 2.071351
572.20 2.009181
572.30 1.935844
572.40 2.016014
572.50 2.058677
572.60 2.022609
572.70 1.965464
572.80 1.999453
572.90 1.956189
573.00 1.987303
573.10 2.065933
573.20 2.104299
573.30 2.088362
573.40 2.14165
573.50 2.188613
573.60 2.169409
573.70 2.11123
573.80 2.063239
573.90 2.061111
574.00 2.057245
574.10 2.122044
574.20 2.113844
574.30 2.122131
574.40 2.116715
574.50 2.157624
574.60 2.196688
574.70 2.240783
574.80 2.286628
574.90 2.350381
575.00 2.390882
575.10 2.390142
575.20 2.395532
575.30 2.413039
575.40 2.421176
575.50 2.397471
575.60 2.401037
575.70 2.425858
575.80 2.387241
575.90 2.33646
576.00 2.22576
576.10 2.084568
576.20 1.957161
576.30 1.861306
576.40 1.849664
576.50 1.82491
576.60 1.782356
576.70 1.804954
576.80 1.913169
576.90 1.949036
577.00 1.936209
577.10 1.99445
577.20 2.03229
577.30 2.05907
577.40 2.062708
577.50 2.074899
577.60 1.997491
577.70 1.925678
577.80 1.971296
577.90 2.007847
578.00 2.040722
578.10 2.052473
578.20 2.083852
578.30 2.138416
578.40 2.199096
578.50 2.274124
578.60 2.245181
578.70 2.14572
578.80 2.121076
578.90 2.211518
579.00 2.195836
579.10 2.125274
579.20 2.072644
579.30 2.170631
579.40 2.231915
579.50 2.376294
579.60 2.454743
579.70 2.412212
579.80 2.401581
579.90 2.441125
580.00 2.470816
580.10 2.441773
580.20 2.403237
580.30 2.38978
580.40 2.428602
580.50 2.503996
580.60 2.467726
580.70 2.486077
580.80 2.543063
580.90 2.532332
581.00 2.497088
581.10 2.409056
581.20 2.229221
581.30 2.080945
581.40 1.99487
581.50 1.974244
581.60 1.938672
581.70 1.899901
581.80 1.851033
581.90 1.849572
582.00 1.870235
582.10 1.814785
582.20 1.820405
582.30 1.861816
582.40 1.941099
582.50 1.917499
582.60 1.879453
582.70 1.912084
582.80 1.982932
582.90 1.982152
583.00 1.993154
583.10 1.979561
583.20 1.978004
583.30 2.12617
583.40 2.168991
583.50 2.058214
583.60 1.999017
583.70 2.08759
583.80 2.092387
583.90 2.04622
584.00 2.04143
584.10 1.968244
584.20 1.984085
584.30 2.024936
584.40 2.020761
584.50 2.02538
584.60 2.028194
584.70 2.043298
584.80 1.967058
584.90 1.812639
585.00 1.664232
585.10 1.606554
585.20 1.580038
585.30 1.572276
585.40 1.587138
585.50 1.585369
585.60 1.576635
585.70 1.557201
585.80 1.509861
585.90 1.534276
586.00 1.574761
586.10 1.595322
586.20 1.581255
586.30 1.510616
586.40 1.445346
586.50 1.418855
586.60 1.387524
586.70 1.322625
586.80 1.423352
586.90 1.52814
587.00 1.541196
587.10 1.492575
587.20 1.475866
587.30 1.386303
587.40 1.286257
587.50 1.277277
587.60 1.299733
587.70 1.337055
587.80 1.327777
587.90 1.28639
588.00 1.26836
588.10 1.235452
588.20 1.147384
588.30 1.042956
588.40 1.017344
588.50 1.076944
588.60 1.035136
588.70 0.8892177
588.80 0.7231618
588.90 0.6995254
589.00 0.73818
589.10 0.7784544
589.20 0.6368129
589.30 0.5692865
589.40 0.7154848
589.50 0.7510574
589.60 0.7220815
589.70 0.6590695
589.80 0.610031
589.90 0.66587
590.00 0.7662775
590.10 0.8618254
590.20 0.8337668
590.30 0.9198822
590.40 1.05569
590.50 1.118781
590.60 1.108536
590.70 1.104079
590.80 1.139516
590.90 1.10163
591.00 1.084344
591.10 1.147651
591.20 1.230547
591.30 1.207118
591.40 1.171009
591.50 1.164967
591.60 1.160677
591.70 1.221519
591.80 1.292008
591.90 1.272146
592.00 1.265236
592.10 1.282733
592.20 1.290096
592.30 1.247892
592.40 1.251222
592.50 1.251473
592.60 1.238726
592.70 1.22961
592.80 1.254252
592.90 1.321335
593.00 1.342899
593.10 1.335875
593.20 1.35179
593.30 1.376439
593.40 1.377116
593.50 1.3845
593.60 1.439589
593.70 1.49321
593.80 1.524176
593.90 1.549325
594.00 1.506565
594.10 1.454745
594.20 1.451123
594.30 1.523059
594.40 1.570534
594.50 1.61744
594.60 1.588484
594.70 1.569358
594.80 1.529436
594.90 1.499437
595.00 1.441507
595.10 1.379346
595.20 1.405039
595.30 1.424089
595.40 1.397154
595.50 1.444584
595.60 1.474749
595.70 1.425619
595.80 1.366304
595.90 1.383685
596.00 1.314026
596.10 1.302919
596.20 1.401387
596.30 1.426759
596.40 1.443465
596.50 1.409618
596.60 1.452736
596.70 1.451993
596.80 1.461299
596.90 1.487431
597.00 1.537228
597.10 1.542384
597.20 1.519805
597.30 1.45263
597.40 1.406138
597.50 1.436801
597.60 1.465857
597.70 1.46059
597.80 1.512928
597.90 1.58448
598.00 1.598479
598.10 1.526795
598.20 1.569158
598.30 1.616628
598.40 1.574321
598.50 1.608138
598.60 1.656172
598.70 1.663216
598.80 1.643537
598.90 1.641814
599.00 1.645357
599.10 1.637233
599.20 1.705194
599.30 1.774835
599.40 1.818239
599.50 1.852005
599.60 1.798009
599.70 1.788149
599.80 1.832049
599.90 1.844969
600.00 1.760868
600.10 1.687098
600.20 1.684616
600.30 1.668486
600.40 1.680077
600.50 1.691642
600.60 1.738338
600.70 1.704791
600.80 1.666057
600.90 1.646126
601.00 1.650333
601.10 1.675404
601.20 1.7166
601.30 1.746261
601.40 1.776021
601.50 1.772009
601.60 1.729837
601.70 1.771236
601.80 1.794456
601.90 1.79047
602.00 1.804217
602.10 1.830926
602.20 1.837973
602.30 1.816049
602.40 1.834645
602.50 1.893603
602.60 1.936549
602.70 1.920812
602.80 1.92188
602.90 1.93752
603.00 1.923165
603.10 1.892535
603.20 1.92688
603.30 1.985668
603.40 1.993817
603.50 1.948761
603.60 1.904678
603.70 1.833608
603.80 1.710733
603.90 1.643524
604.00 1.728231
604.10 1.842609
604.20 1.919563
604.30 1.981841
604.40 2.02382
604.50 2.037406
604.60 2.083211
604.70 2.122928
604.80 2.103858
604.90 2.07715
605.00 2.159698
605.10 2.206965
605.20 2.148449
605.30 2.07921
605.40 2.068425
605.50 2.084109
605.60 2.104645
605.70 2.092087
605.80 2.087394
605.90 2.100675
606.00 2.105024
606.10 2.142022
606.20 2.218382
606.30 2.200725
606.40 2.141196
606.50 2.10702
606.60 2.051411
606.70 1.971186
606.80 2.020235
606.90 2.141629
607.00 2.220189
607.10 2.238307
607.20 2.243654
607.30 2.250494
607.40 2.146726
607.50 2.077762
607.60 2.133265
607.70 2.229762
607.80 2.29392
607.90 2.261965
608.00 2.151011
608.10 2.064021
608.20 2.02579
608.30 2.064144
608.40 2.094563
608.50 2.123701
608.60 2.153794
608.70 2.183753
608.80 2.169281
608.90 2.15315
609.00 2.162281
609.10 2.180186
609.20 2.18067
609.30 2.17977
609.40 2.232595
609.50 2.291763
609.60 2.304144
609.70 2.307496
609.80 2.321817
609.90 2.328313
610.00 2.306487
610.10 2.258029
610.20 2.190564
610.30 2.111962
610.40 2.052792
610.50 2.041523
610.60 2.11574
610.70 2.179746
610.80 2.213488
610.90 2.249512
611.00 2.288657
611.10 2.280479
611.20 2.258815
611.30 2.239678
611.40 2.244731
611.50 2.283133
611.60 2.29349
611.70 2.254846
611.80 2.190379
611.90 2.173
612.00 2.155467
612.10 2.108931
612.20 2.035964
612.30 1.943497
612.40 1.940014
612.50 2.022898
612.60 2.159434
612.70 2.239325
612.80 2.204933
612.90 2.216931
613.00 2.242813
613.10 2.271725
613.20 2.275227
613.30 2.220159
613.40 2.180974
613.50 2.153178
613.60 2.190308
613.70 2.213039
613.80 2.203454
613.90 2.211016
614.00 2.254501
614.10 2.282372
614.20 2.267891
614.30 2.277238
614.40 2.336109
614.50 2.399485
614.60 2.419357
614.70 2.407081
614.80 2.295715
614.90 2.155598
615.00 2.038697
615.10 1.924086
615.20 1.857341
615.30 1.894283
615.40 1.967979
615.50 1.982676
615.60 1.942476
615.70 1.916384
615.80 1.845457
615.90 1.672314
616.00 1.521633
616.10 1.425773
616.20 1.324769
616.30 1.235709
616.40 1.221082
616.50 1.260319
616.60 1.245346
616.70 1.212499
616.80 1.256724
616.90 1.312589
617.00 1.311599
617.10 1.324364
617.20 1.361471
617.30 1.363975
617.40 1.356662
617.50 1.337677
617.60 1.328968
617.70 1.292537
617.80 1.331246
617.90 1.403408
618.00 1.410066
618.10 1.373047
618.20 1.35669
618.30 1.382688
618.40 1.36092
618.50 1.337041
618.60 1.311365
618.70 1.23888
618.80 1.150989
618.90 1.111853
619.00 1.136128
619.10 1.151706
619.20 1.137305
619.30 1.093327
619.40 1.084888
619.50 1.112808
619.60 1.124268
619.70 1.12082
619.80 1.163315
619.90 1.202472
620.00 1.220598
620.10 1.230835
620.20 1.210463
620.30 1.186972
620.40 1.195683
620.50 1.248692
620.60 1.308565
620.70 1.274167
620.80 1.268402
620.90 1.296497
621.00 1.309212
621.10 1.29987
621.20 1.274108
621.30 1.266916
621.40 1.231296
621.50 1.158205
621.60 1.084245
621.70 1.049329
621.80 1.070694
621.90 1.07753
622.00 1.114793
622.10 1.157924
622.20 1.162654
622.30 1.128413
622.40 1.049142
622.50 0.9880452
622.60 0.9671996
622.70 1.021455
622.80 1.03277
622.90 1.044373
623.00 1.072012
623.10 1.056244
623.20 1.045225
623.30 1.078579
623.40 1.096454
623.50 1.078955
623.60 1.067393
623.70 1.127914
623.80 1.13758
623.90 1.111372
624.00 1.109599
624.10 1.12172
624.20 1.135034
624.30 1.13502
624.40 1.194292
624.50 1.183244
624.60 1.150372
624.70 1.135366
624.80 1.127193
624.90 1.186227
625.00 1.213381
625.10 1.194819
625.20 1.190417
625.30 1.227835
625.40 1.270203
625.50 1.291771
625.60 1.301257
625.70 1.301347
625.80 1.314534
625.90 1.315996
626.00 1.325189
626.10 1.306002
626.20 1.313336
626.30 1.387983
626.40 1.445112
626.50 1.477117
626.60 1.510052
626.70 1.529087
626.80 1.471659
626.90 1.399489
627.00 1.398657
627.10 1.433253
627.20 1.454349
627.30 1.488937
627.40 1.521216
627.50 1.51185
627.60 1.443792
627.70 1.387653
627.80 1.393656
627.90 1.422904
628.00 1.426484
628.10 1.436465
628.20 1.468467
628.30 1.477634
628.40 1.524418
628.50 1.561871
628.60 1.60596
628.70 1.635167
628.80 1.645007
628.90 1.679953
629.00 1.72887
629.10 1.760476
629.20 1.737763
629.30 1.724232
629.40 1.745276
629.50 1.744604
629.60 1.695125
629.70 1.752715
629.80 1.839403
629.90 1.789405
630.00 1.787476
630.10 2.04111
630.20 2.35938
630.30 2.110809
630.40 1.801168
630.50 1.868936
630.60 1.977746
630.70 2.00384
630.80 2.044775
630.90 2.110311
631.00 2.120512
631.10 2.087435
631.20 2.132789
631.30 2.206565
631.40 2.250507
631.50 2.266507
631.60 2.281147
631.70 2.288844
631.80 2.297681
631.90 2.327595
632.00 2.330337
632.10 2.298399
632.20 2.30991
632.30 2.324525
632.40 2.264638
632.50 2.247533
632.60 2.280216
632.70 2.315879
632.80 2.376146
632.90 2.417889
633.00 2.40654
633.10 2.376751
633.20 2.393097
633.30 2.425103
633.40 2.469407
633.50 2.51793
633.60 2.561852
633.70 2.535429
633.80 2.511633
633.90 2.552629
634.00 2.627422
634.10 2.647765
634.20 2.649125
634.30 2.690412
634.40 2.748881
634.50 2.786585
634.60 2.760408
634.70 2.752972
634.80 2.786625
634.90 2.838608
635.00 2.844538
635.10 2.842533
635.20 2.814657
635.30 2.731205
635.40 2.651595
635.50 2.613386
635.60 2.627177
635.70 2.589848
635.80 2.505115
635.90 2.429372
636.00 2.411873
636.10 2.39305
636.20 2.389748
636.30 2.44563
636.40 2.563165
636.50 2.602765
636.60 2.483797
636.70 2.406413
636.80 2.416817
636.90 2.450723
637.00 2.454983
637.10 2.473601
637.20 2.49128
637.30 2.551232
637.40 2.607629
637.50 2.582345
637.60 2.537767
637.70 2.517204
637.80 2.511218
637.90 2.48333
638.00 2.41994
638.10 2.335518
638.20 2.250148
638.30 2.180395
638.40 2.179718
638.50 2.235673
638.60 2.245616
638.70 2.218392
638.80 2.208169
638.90 2.20028
639.00 2.189262
639.10 2.230692
639.20 2.325436
639.30 2.405338
639.40 2.443167
639.50 2.505973
639.60 2.586808
639.70 2.679411
639.80 2.725689
639.90 2.745644
640.00 2.772442
640.10 2.781563
640.20 2.797738
640.30 2.813026
640.40 2.865563
640.50 2.926979
640.60 2.974708
640.70 3.010193
640.80 3.024264
640.90 3.042661
641.00 3.055593
641.10 3.053973
641.20 3.058802
641.30 3.073118
641.40 3.053135
641.50 3.026817
641.60 2.994602
641.70 2.927558
641.80 2.892016
641.90 2.893414
642.00 2.880122
642.10 2.842206
642.20 2.807741
642.30 2.801999
642.40 2.835491
642.50 2.883345
642.60 2.905241
642.70 2.912029
642.80 2.900345
642.90 2.905358
643.00 2.935012
643.10 2.976215
643.20 2.997681
643.30 2.993489
643.40 3.010815
643.50 3.047131
643.60 3.076182
643.70 3.083711
643.80 3.03223
643.90 2.987691
644.00 2.947005
644.10 2.929483
644.20 2.998445
644.30 3.152398
644.40 3.31145
644.50 3.402577
644.60 3.441442
644.70 3.406221
644.80 3.291501
644.90 3.143547
645.00 3.027032
645.10 2.98575
645.20 3.041033
645.30 3.13487
645.40 3.256414
645.50 3.33633
645.60 3.338118
645.70 3.333332
645.80 3.35884
645.90 3.399774
646.00 3.402124
646.10 3.364851
646.20 3.279798
646.30 3.17231
646.40 3.148426
646.50 3.211678
646.60 3.324578
646.70 3.430825
646.80 3.530605
646.90 3.617113
647.00 3.628764
647.10 3.605569
647.20 3.587304
647.30 3.582702
647.40 3.63156
647.50 3.68528
647.60 3.743926
647.70 3.787578
647.80 3.776291
647.90 3.719268
648.00 3.604811
648.10 3.48185
648.20 3.411169
648.30 3.387312
648.40 3.353069
648.50 3.28221
648.60 3.228628
648.70 3.229275
648.80 3.273003
648.90 3.336311
649.00 3.42621
649.10 3.478857
649.20 3.473181
649.30 3.430872
649.40 3.382417
649.50 3.314812
649.60 3.232745
649.70 3.24062
649.80 3.368103
649.90 3.456414
650.00 3.480981
650.10 3.475316
650.20 3.519767
650.30 3.642604
650.40 3.77419
650.50 3.856788
650.60 3.854023
650.70 3.835904
650.80 3.864831
650.90 3.90793
651.00 3.954048
651.10 4.003802
651.20 4.013446
651.30 3.961781
651.40 3.866083
651.50 3.790848
651.60 3.758204
651.70 3.806394
651.80 3.88543
651.90 3.947729
652.00 4.003459
652.10 4.050613
652.20 4.071865
652.30 4.09393
652.40 4.145611
652.50 4.187669
652.60 4.216751
652.70 4.235103
652.80 4.272085
652.90 4.319505
653.00 4.330558
653.10 4.334805
653.20 4.331787
653.30 4.332143
653.40 4.3974
653.50 4.441639
653.60 4.463591
653.70 4.519054
653.80 4.581025
653.90 4.634867
654.00 4.697749
654.10 4.751384
654.20 4.759967
654.30 4.690243
654.40 4.543907
654.50 4.39094
654.60 4.284198
654.70 4.193237
654.80 4.126204
654.90 4.094379
655.00 4.064029
655.10 4.017586
655.20 3.935696
655.30 3.892166
655.40 3.884219
655.50 3.87144
655.60 3.848982
655.70 3.870226
655.80 3.970517
655.90 4.05706
656.00 4.137313
656.10 4.296018
656.20 4.59333
656.30 5.058649
656.40 5.488229
656.50 5.487538
656.60 4.960353
656.70 4.254345
656.80 3.808106
656.90 3.686917
657.00 3.667768
657.10 3.658236
657.20 3.573705
657.30 3.446735
657.40 3.354507
657.50 3.327999
657.60 3.41177
657.70 3.561496
657.80 3.628293
657.90 3.59457
658.00 3.482085
658.10 3.373517
658.20 3.37737
658.30 3.453645
658.40 3.529395
658.50 3.596366
658.60 3.670264
658.70 3.728573
658.80 3.758237
658.90 3.812946
659.00 3.874148
659.10 3.873904
659.20 3.817648
659.30 3.732773
659.40 3.600636
659.50 3.449726
659.60 3.388681
659.70 3.445255
659.80 3.533359
659.90 3.550941
660.00 3.513503
660.10 3.487005
660.20 3.498337
660.30 3.558781
660.40 3.620375
660.50 3.623539
660.60 3.56207
660.70 3.487508
660.80 3.439439
660.90 3.441773
661.00 3.46428
661.10 3.515796
661.20 3.574853
661.30 3.581393
661.40 3.57029
661.50 3.580119
661.60 3.605298
661.70 3.572281
661.80 3.482361
661.90 3.404367
662.00 3.334999
662.10 3.291611
662.20 3.288605
662.30 3.293434
662.40 3.285857
662.50 3.229775
662.60 3.125992
662.70 3.026036
662.80 2.972127
662.90 2.960116
663.00 2.986974
663.10 3.073861
663.20 3.197207
663.30 3.272741
663.40 3.275559
663.50 3.224953
663.60 3.112346
663.70 2.984226
663.80 2.874239
663.90 2.846095
664.00 2.898807
664.10 2.966761
664.20 3.027545
664.30 3.07702
664.40 3.122454
664.50 3.137438
664.60 3.120674
664.70 3.111603
664.80 3.106253
664.90 3.085171
665.00 2.987618
665.10 2.815566
665.20 2.638956
665.30 2.489825
665.40 2.41089
665.50 2.394937
665.60 2.443738
665.70 2.527549
665.80 2.538874
665.90 2.508165
666.00 2.494616
666.10 2.547762
666.20 2.620348
666.30 2.636569
666.40 2.648627
666.50 2.700807
666.60 2.751054
666.70 2.807245
666.80 2.8459
666.90 2.891247
667.00 2.940147
667.10 2.956495
667.20 2.942954
667.30 2.915405
667.40 2.903149
667.50 2.895497
667.60 2.874059
667.70 2.859251
667.80 2.872321
667.90 2.892067
668.00 2.81588
668.10 2.65177
668.20 2.452555
668.30 2.280151
668.40 2.209843
668.50 2.218203
668.60 2.281003
668.70 2.333435
668.80 2.348185
668.90 2.390794
669.00 2.410813
669.10 2.416546
669.20 2.428064
669.30 2.408498
669.40 2.372351
669.50 2.345252
669.60 2.378088
669.70 2.434137
669.80 2.486331
669.90 2.530482
670.00 2.531597
670.10 2.534472
670.20 2.53829
670.30 2.537615
670.40 2.567215
670.50 2.588234
670.60 2.614502
670.70 2.646366
670.80 2.62741
670.90 2.661051
671.00 2.715249
671.10 2.69892
671.20 2.676506
671.30 2.645198
671.40 2.574906
671.50 2.450726
671.60 2.305386
671.70 2.186802
671.80 2.083141
671.90 1.996974
672.00 1.982194
672.10 1.996154
672.20 1.998503
672.30 2.005507
672.40 2.041862
672.50 2.115968
672.60 2.154098
672.70 2.180834
672.80 2.21771
672.90 2.230872
673.00 2.231333
673.10 2.223133
673.20 2.240486
673.30 2.275129
673.40 2.280948
673.50 2.282893
673.60 2.29455
673.70 2.307234
673.80 2.323482
673.90 2.351271
674.00 2.39275
674.10 2.425213
674.20 2.422457
674.30 2.42661
674.40 2.449611
674.50 2.468145
674.60 2.471181
674.70 2.41654
674.80 2.31412
674.90 2.194965
675.00 2.095971
675.10 2.072036
675.20 2.099258
675.30 2.161883
675.40 2.219389
675.50 2.24383
675.60 2.262548
675.70 2.285259
675.80 2.296724
675.90 2.305651
676.00 2.294942
676.10 2.276496
676.20 2.293691
676.30 2.336732
676.40 2.382617
676.50 2.433113
676.60 2.4858
676.70 2.525566
676.80 2.542482
676.90 2.538902
677.00 2.517438
677.10 2.533786
677.20 2.545213
677.30 2.537067
677.40 2.555693
677.50 2.595811
677.60 2.65413
677.70 2.692601
677.80 2.677611
677.90 2.647208
678.00 2.61979
678.10 2.581339
678.20 2.514449
678.30 2.382935
678.40 2.236089
678.50 2.138947
678.60 2.111695
678.70 2.130718
678.80 2.134295
678.90 2.13882
679.00 2.165971
679.10 2.206743
679.20 2.259473
679.30 2.269727
679.40 2.253957
679.50 2.259471
679.60 2.285981
679.70 2.309719
679.80 2.294455
679.90 2.285595
680.00 2.321048
680.10 2.376657
680.20 2.411053
680.30 2.412507
680.40 2.403303
680.50 2.384353
680.60 2.364165
680.70 2.369053
680.80 2.385486
680.90 2.401613
681.00 2.406629
681.10 2.421879
681.20 2.453405
681.30 2.491844
681.40 2.525064
681.50 2.521318
681.60 2.46213
681.70 2.358011
681.80 2.276466
681.90 2.282715
682.00 2.338226
682.10 2.368855
682.20 2.388981
682.30 2.384246
682.40 2.372352
682.50 2.372861
682.60 2.393172
682.70 2.424598
682.80 2.460288
682.90 2.506666
683.00 2.509792
683.10 2.48668
683.20 2.462166
683.30 2.487052
683.40 2.544204
683.50 2.559292
683.60 2.549469
683.70 2.487122
683.80 2.47038
683.90 2.509715
684.00 2.523801
684.10 2.54749
684.20 2.572193
684.30 2.582213
684.40 2.587807
684.50 2.586802
684.60 2.607993
684.70 2.608027
684.80 2.553913
684.90 2.532413
685.00 2.537397
685.10 2.51601
685.20 2.425822
685.30 2.317401
685.40 2.295757
685.50 2.343478
685.60 2.365519
685.70 2.355281
685.80 2.359163
685.90 2.368878
686.00 2.36359
686.10 2.337533
686.20 2.339971
686.30 2.383634
686.40 2.450893
686.50 2.547021
686.60 2.618496
686.70 2.612721
686.80 2.569834
686.90 2.496576
687.00 2.427273
687.10 2.385585
687.20 2.410236
687.30 2.479163
687.40 2.537858
687.50 2.599292
687.60 2.648095
687.70 2.681757
687.80 2.732246
687.90 2.767551
688.00 2.766543
688.10 2.76406
688.20 2.74023
688.30 2.700379
688.40 2.652363
688.50 2.595322
688.60 2.546104
688.70 2.525814
688.80 2.5501
688.90 2.627743
689.00 2.701797
689.10 2.733852
689.20 2.724493
689.30 2.716915
689.40 2.737111
689.50 2.789141
689.60 2.823313
689.70 2.825079
689.80 2.833565
689.90 2.811574
690.00 2.765088
690.10 2.707229
690.20 2.603634
690.30 2.512943
690.40 2.516342
690.50 2.636659
690.60 2.807184
690.70 2.961003
690.80 3.051648
690.90 3.070157
691.00 3.068384
691.10 3.074385
691.20 3.075872
691.30 3.067883
691.40 3.077537
691.50 3.129048
691.60 3.157505
691.70 3.112478
691.80 3.003749
691.90 2.83593
692.00 2.678954
692.10 2.651193
692.20 2.79965
692.30 3.029722
692.40 3.224354
692.50 3.309946
692.60 3.313996
692.70 3.317595
692.80 3.324219
692.90 3.311604
693.00 3.334379
693.10 3.381054
693.20 3.443235
693.30 3.548781
693.40 3.610631
693.50 3.616245
693.60 3.597629
693.70 3.572764
693.80 3.56209
693.90 3.569483
694.00 3.612569
694.10 3.668743
694.20 3.749314
694.30 3.826309
694.40 3.89021
694.50 3.97731
694.60 4.008498
694.70 4.027186
694.80 4.135227
694.90 4.236429
695.00 4.258865
695.10 4.20468
695.20 4.128438
695.30 4.029332
695.40 3.950905
695.50 3.927194
695.60 3.910389
695.70 3.903767
695.80 3.887079
695.90 3.880712
696.00 3.90596
696.10 3.93618
696.20 3.936149
696.30 3.935498
696.40 3.978738
696.50 4.052385
696.60 4.11163
696.70 4.13593
696.80 4.150497
696.90 4.174253
697.00 4.165736
697.10 4.113955
697.20 4.075711
697.30 4.056328
697.40 4.075643
697.50 4.124385
697.60 4.204638
697.70 4.305116
697.80 4.357883
697.90 4.360914
698.00 4.366026
698.10 4.346319
698.20 4.332322
698.30 4.389412
698.40 4.438116
698.50 4.465376
698.60 4.495099
698.70 4.502739
698.80 4.487221
698.90 4.468159
699.00 4.433098
699.10 4.373826
699.20 4.319453
699.30 4.277742
699.40 4.272507
699.50 4.313597
699.60 4.356421
699.70 4.408899
699.80 4.450926
699.90 4.449048
700.00 4.41709
700.10 4.433083
700.20 4.505153
700.30 4.571914
700.40 4.598395
700.50 4.558203
700.60 4.480303
700.70 4.464216
700.80 4.546757
700.90 4.631651
701.00 4.655979
701.10 4.647845
701.20 4.663413
701.30 4.735925
701.40 4.872882
701.50 4.999358
701.60 5.022805
701.70 4.957073
701.80 4.891256
701.90 4.896055
702.00 4.977825
702.10 5.086569
702.20 5.145141
702.30 5.11727
702.40 5.008585
702.50 4.864365
702.60 4.752588
702.70 4.74836
702.80 4.913795
702.90 5.201639
703.00 5.468447
703.10 5.590755
703.20 5.573935
703.30 5.524681
703.40 5.503323
703.50 5.556418
703.60 5.709345
703.70 5.901691
703.80 6.03794
703.90 6.069234
704.00 6.044214
704.10 6.059658
704.20 6.13634
704.30 6.26039
704.40 6.370104
704.50 6.409618
704.60 6.404335
704.70 6.397843
704.80 6.433203
704.90 6.484712
705.00 6.484256
705.10 6.504369
705.20 6.496008
705.30 6.338383
705.40 5.921518
705.50 5.183536
705.60 4.346313
705.70 3.726486
705.80 3.477192
705.90 3.535492
706.00 3.630282
706.10 3.543264
706.20 3.380193
706.30 3.294741
706.40 3.352929
706.50 3.468944
706.60 3.560356
706.70 3.659661
706.80 3.766507
706.90 3.838664
707.00 3.852569
707.10 3.886987
707.20 3.980133
707.30 4.072686
707.40 4.11345
707.50 4.115805
707.60 4.108946
707.70 4.122955
707.80 4.119055
707.90 4.10984
708.00 4.17233
708.10 4.25264
708.20 4.276248
708.30 4.292197
708.40 4.320405
708.50 4.361135
708.60 4.37839
708.70 4.224777
708.80 3.849907
708.90 3.338791
709.00 2.861135
709.10 2.585333
709.20 2.562328
709.30 2.697173
709.40 2.831484
709.50 2.868083
709.60 2.821408
709.70 2.76009
709.80 2.775154
709.90 2.868385
710.00 2.966295
710.10 3.014075
710.20 3.004494
710.30 2.979925
710.40 2.977934
710.50 3.001128
710.60 3.067634
710.70 3.151307
710.80 3.234665
710.90 3.358995
711.00 3.500749
711.10 3.608903
711.20 3.669458
711.30 3.681831
711.40 3.674972
711.50 3.674118
711.60 3.64873
711.70 3.610886
711.80 3.615416
711.90 3.685565
712.00 3.791699
712.10 3.896468
712.20 3.976713
712.30 4.018834
712.40 3.963633
712.50 3.727914
712.60 3.289709
712.70 2.751095
712.80 2.326882
712.90 2.163238
713.00 2.213435
713.10 2.311906
713.20 2.35201
713.30 2.295228
713.40 2.223864
713.50 2.222892
713.60 2.281787
713.70 2.346673
713.80 2.382904
713.90 2.371014
714.00 2.350023
714.10 2.375444
714.20 2.450752
714.30 2.563296
714.40 2.643805
714.50 2.66878
714.60 2.654353
714.70 2.6118
714.80 2.590655
714.90 2.599249
715.00 2.628158
715.10 2.675943
715.20 2.746631
715.30 2.843918
715.40 2.933181
715.50 3.007117
715.60 3.085932
715.70 3.148712
715.80 3.1497
715.90 3.066402
716.00 2.933613
716.10 2.81747
716.20 2.770226
716.30 2.813377
716.40 2.890423
716.50 2.925059
716.60 2.912307
716.70 2.89987
716.80 2.902012
716.90 2.911796
717.00 2.956455
717.10 3.025564
717.20 3.101457
717.30 3.177152
717.40 3.217976
717.50 3.200636
717.60 3.167058
717.70 3.152404
717.80 3.157699
717.90 3.203487
718.00 3.268471
718.10 3.322012
718.20 3.365766
718.30 3.415782
718.40 3.465124
718.50 3.527516
718.60 3.611127
718.70 3.655507
718.80 3.665601
718.90 3.671675
719.00 3.692795
719.10 3.740119
719.20 3.761789
719.30 3.757947
719.40 3.761787
719.50 3.798347
719.60 3.805159
719.70 3.678028
719.80 3.469726
719.90 3.308494
720.00 3.240045
720.10 3.212201
720.20 3.192985
720.30 3.199429
720.40 3.224735
720.50 3.238472
720.60 3.245036
720.70 3.254081
720.80 3.284425
720.90 3.319103
721.00 3.332375
721.10 3.353482
721.20 3.38923
721.30 3.442846
721.40 3.507254
721.50 3.548477
721.60 3.575853
721.70 3.582917
721.80 3.613172
721.90 3.70843
722.00 3.771668
722.10 3.806348
722.20 3.857578
722.30 3.892265
722.40 3.920631
722.50 3.951198
722.60 4.010753
722.70 4.122623
722.80 4.200377
722.90 4.194625
723.00 4.129924
723.10 4.059187
723.20 4.02009
723.30 4.007644
723.40 4.014756
723.50 4.055093
723.60 4.137022
723.70 4.25038
723.80 4.342845
723.90 4.406766
724.00 4.44398
724.10 4.398752
724.20 4.32553
724.30 4.328548
724.40 4.417095
724.50 4.519634
724.60 4.543763
724.70 4.527157
724.80 4.543679
724.90 4.619179
725.00 4.746773
725.10 4.855091
725.20 4.858944
725.30 4.780863
725.40 4.722609
725.50 4.765848
725.60 4.867631
725.70 4.9488
725.80 4.978634
725.90 4.963435
726.00 4.942782
726.10 4.956223
726.20 5.020806
726.30 5.133875
726.40 5.243128
726.50 5.291352
726.60 5.291132
726.70 5.304304
726.80 5.353198
726.90 5.382311
727.00 5.348901
727.10 5.241298
727.20 5.073197
727.30 4.92345
727.40 4.930171
727.50 5.132212
727.60 5.432268
727.70 5.649182
727.80 5.5473
727.90 5.247658
728.00 5.151872
728.10 5.235222
728.20 5.280215
728.30 5.322598
728.40 5.428102
728.50 5.535695
728.60 5.57794
728.70 5.602376
728.80 5.664622
728.90 5.70534
729.00 5.737315
729.10 5.783001
729.20 5.822695
729.30 5.84383
729.40 5.821458
729.50 5.801387
729.60 5.841834
729.70 5.931314
729.80 6.037422
729.90 6.084155
730.00 6.028673
730.10 5.96832
730.20 5.999953
730.30 6.106264
730.40 6.181668
730.50 6.177123
730.60 6.171441
730.70 6.21636
730.80 6.297675
730.90 6.336715
731.00 6.323461
731.10 6.311436
731.20 6.302865
731.30 6.346841
731.40 6.457034
731.50 6.572478
731.60 6.629988
731.70 6.663771
731.80 6.691247
731.90 6.69707
732.00 6.686783
732.10 6.690454
732.20 6.698804
732.30 6.709932
732.40 6.74786
732.50 6.704858
732.60 6.552263
732.70 6.382706
732.80 6.31688
732.90 6.463958
733.00 6.67644
733.10 6.784173
733.20 6.851427
733.30 6.898114
733.40 6.929117
733.50 6.979732
733.60 7.036571
733.70 7.097767
733.80 7.144206
733.90 7.182822
734.00 7.281451
734.10 7.411164
734.20 7.449268
734.30 7.362623
734.40 7.205462
734.50 7.043383
734.60 6.968379
734.70 6.992289
734.80 7.038946
734.90 7.089415
735.00 7.150067
735.10 7.220328
735.20 7.275263
735.30 7.29437
735.40 7.288022
735.50 7.254206
735.60 7.184142
735.70 7.092731
735.80 7.027262
735.90 7.057245
736.00 7.192572
736.10 7.339266
736.20 7.39109
736.30 7.359761
736.40 7.379705
736.50 7.453399
736.60 7.490711
736.70 7.527451
736.80 7.557148
736.90 7.662324
737.00 7.822454
737.10 7.84177
737.20 7.774131
737.30 7.709645
737.40 7.701729
737.50 7.708785
737.60 7.696865
737.70 7.719175
737.80 7.768706
737.90 7.824857
738.00 7.867624
738.10 7.882258
738.20 7.858492
738.30 7.809598
738.40 7.779065
738.50 7.811244
738.60 7.880271
738.70 7.939375
738.80 7.998186
738.90 8.049774
739.00 8.086565
739.10 8.096559
739.20 8.047482
739.30 7.978563
739.40 7.924645
739.50 7.87638
739.60 7.8566
739.70 7.888325
739.80 7.932493
739.90 7.975402
740.00 7.989982
740.10 7.978052
740.20 7.993426
740.30 8.038236
740.40 8.098969
740.50 8.121312
740.60 8.072629
740.70 7.956441
740.80 7.881503
740.90 7.923247
741.00 7.997247
741.10 8.03933
741.20 8.066841
741.30 8.113042
741.40 8.159881
741.50 8.176395
741.60 8.164205
741.70 8.132023
741.80 8.064197
741.90 7.969911
742.00 7.943328
742.10 8.009176
742.20 8.080306
742.30 8.118172
742.40 8.102296
742.50 8.081169
742.60 8.125527
742.70 8.19985
742.80 8.289396
742.90 8.347864
743.00 8.355233
743.10 8.383225
743.20 8.410098
743.30 8.38463
743.40 8.313117
743.50 8.221514
743.60 8.14097
743.70 8.115855
743.80 8.183966
743.90 8.360545
744.00 8.552109
744.10 8.573942
744.20 8.423678
744.30 8.28362
744.40 8.244769
744.50 8.25275
744.60 8.244128
744.70 8.203881
744.80 8.156822
744.90 8.110167
745.00 8.066693
745.10 8.077996
745.20 8.176815
745.30 8.310384
745.40 8.374295
745.50 8.344706
745.60 8.280407
745.70 8.256436
745.80 8.327613
745.90 8.422061
746.00 8.439765
746.10 8.389121
746.20 8.323613
746.30 8.278179
746.40 8.266749
746.50 8.289869
746.60 8.343326
746.70 8.396131
746.80 8.424573
746.90 8.466912
747.00 8.53535
747.10 8.610506
747.20 8.656091
747.30 8.635382
747.40 8.554772
747.50 8.452382
747.60 8.382818
747.70 8.393705
747.80 8.489333
747.90 8.588902
748.00 8.605374
748.10 8.55615
748.20 8.510764
748.30 8.520758
748.40 8.611288
748.50 8.700921
748.60 8.688203
748.70 8.602311
748.80 8.473664
748.90 8.38234
749.00 8.416704
749.10 8.481241
749.20 8.502565
749.30 8.494296
749.40 8.451495
749.50 8.406366
749.60 8.390789
749.70 8.404485
749.80 8.494065
749.90 8.664925
750.00 8.818788
750.10 8.902189
750.20 8.92153
750.30 8.886801
750.40 8.869023
750.50 8.886824
750.60 8.855604
750.70 8.741333
750.80 8.641959
750.90 8.650781
751.00 8.774122
751.10 8.915088
751.20 8.950177
751.30 8.894124
751.40 8.831601
751.50 8.84689
751.60 8.946071
751.70 9.063017
751.80 9.114356
751.90 9.049324
752.00 8.935127
752.10 8.86632
752.20 8.865501
752.30 8.944611
752.40 9.096004
752.50 9.163927
752.60 9.049348
752.70 8.831525
752.80 8.608196
752.90 8.506716
753.00 8.57506
753.10 8.756236
753.20 8.939354
753.30 9.02735
753.40 9.022316
753.50 8.958718
753.60 8.931373
753.70 8.991503
753.80 9.072454
753.90 9.177056
754.00 9.309847
754.10 9.395156
754.20 9.406023
754.30 9.373514
754.40 9.336072
754.50 9.344181
754.60 9.383613
754.70 9.391209
754.80 9.35896
754.90 9.322928
755.00 9.316594
755.10 9.331226
755.20 9.339769
755.30 9.343477
755.40 9.335165
755.50 9.310199
755.60 9.271285
755.70 9.264036
755.80 9.306648
755.90 9.326653
756.00 9.344398
756.10 9.398236
756.20 9.408332
756.30 9.364087
756.40 9.300453
756.50 9.218412
756.60 9.142374
756.70 9.076955
756.80 8.997928
756.90 8.932567
757.00 8.948733
757.10 9.069882
757.20 9.279462
757.30 9.524029
757.40 9.650853
757.50 9.645246
757.60 9.570618
757.70 9.451605
757.80 9.371054
757.90 9.324881
758.00 9.298998
758.10 9.371273
758.20 9.546173
758.30 9.693578
758.40 9.738615
758.50 9.721524
758.60 9.706062
758.70 9.665775
758.80 9.472152
758.90 9.036376
759.00 8.35404
759.10 7.634715
759.20 7.168659
759.30 7.055235
759.40 7.210216
759.50 7.412788
759.60 7.543617
759.70 7.612127
759.80 7.682207
759.90 7.793219
760.00 7.865529
760.10 7.871538
760.20 7.745889
760.30 7.529341
760.40 7.512084
760.50 7.683575
760.60 7.829573
760.70 7.864014
760.80 7.731056
760.90 7.60618
761.00 7.618096
761.10 7.674669
761.20 7.800871
761.30 8.052288
761.40 8.307145
761.50 8.398956
761.60 8.31706
761.70 8.203801
761.80 8.294158
761.90 8.547843
762.00 8.748708
762.10 8.799943
762.20 8.703842
762.30 8.557743
762.40 8.483723
762.50 8.519932
762.60 8.517862
762.70 8.315633
762.80 7.865141
762.90 7.278209
763.00 6.782677
763.10 6.497152
763.20 6.464563
763.30 6.626609
763.40 6.818587
763.50 6.909278
763.60 6.860282
763.70 6.798147
763.80 6.822989
763.90 6.903342
764.00 6.931138
764.10 6.825859
764.20 6.740151
764.30 6.848227
764.40 7.000837
764.50 7.006163
764.60 6.871571
764.70 6.78073
764.80 6.896339
764.90 7.044769
765.00 7.019128
765.10 6.878881
765.20 6.781109
765.30 6.828539
765.40 6.899759
765.50 6.823038
765.60 6.697178
765.70 6.723985
765.80 6.895787
765.90 7.019371
766.00 6.882914
766.10 6.510237
766.20 6.067731
766.30 5.581106
766.40 4.991929
766.50 4.25414
766.60 3.531038
766.70 3.17193
766.80 3.309787
766.90 3.83248
767.00 4.464071
767.10 4.914432
767.20 5.080547
767.30 5.02123
767.40 4.942985
767.50 4.975609
767.60 5.109182
767.70 5.246879
767.80 5.339921
767.90 5.453164
768.00 5.561082
768.10 5.630006
768.20 5.68807
768.30 5.719302
768.40 5.728264
768.50 5.743214
768.60 5.768366
768.70 5.806373
768.80 5.862463
768.90 5.909363
769.00 5.91017
769.10 5.901953
769.20 5.914
769.30 5.927175
769.40 5.936126
769.50 5.902665
769.60 5.7482
769.70 5.412317
769.80 4.899649
769.90 4.283764
770.00 3.743317
770.10 3.526461
770.20 3.746432
770.30 4.299643
770.40 4.890124
770.50 5.283514
770.60 5.443343
770.70 5.440283
770.80 5.417541
770.90 5.462941
771.00 5.581688
771.10 5.741689
771.20 5.892752
771.30 6.010811
771.40 6.100702
771.50 6.071763
771.60 5.958873
771.70 5.973995
771.80 6.101498
771.90 6.22023
772.00 6.208808
772.10 6.095218
772.20 6.108487
772.30 6.222564
772.40 6.29613
772.50 6.332316
772.60 6.393454
772.70 6.500288
772.80 6.580808
772.90 6.608457
773.00 6.635871
773.10 6.676897
773.20 6.708412
773.30 6.728607
773.40 6.769919
773.50 6.838024
773.60 6.896557
773.70 6.933541
773.80 6.946515
773.90 6.965318
774.00 7.008522
774.10 7.039216
774.20 7.016749
774.30 6.918815
774.40 6.763441
774.50 6.595568
774.60 6.436071
774.70 6.302526
774.80 6.206257
774.90 6.129705
775.00 6.081624
775.10 5.976003
775.20 5.78519
775.30 5.682558
775.40 5.694093
775.50 5.765616
775.60 5.880731
775.70 5.959009
775.80 5.953569
775.90 5.927578
776.00 5.983704
776.10 6.070547
776.20 6.108919
776.30 6.091599
776.40 6.026871
776.50 5.988216
776.60 5.992686
776.70 6.024639
776.80 6.119456
776.90 6.259939
777.00 6.368932
777.10 6.416037
777.20 6.424047
777.30 6.439463
777.40 6.501243
777.50 6.55771
777.60 6.57394
777.70 6.577458
777.80 6.579653
777.90 6.577287
778.00 6.590937
778.10 6.590185
778.20 6.495587
778.30 6.342944
778.40 6.200003
778.50 6.089407
778.60 6.031653
778.70 6.018134
778.80 6.0384
778.90 6.088397
779.00 6.140672
779.10 6.176308
779.20 6.238891
779.30 6.384841
779.40 6.568699
779.50 6.694865
779.60 6.729824
779.70 6.618353
779.80 6.438989
779.90 6.351787
780.00 6.313386
780.10 6.278244
780.20 6.265544
780.30 6.333766
780.40 6.53418
780.50 6.763158
780.60 6.950094
780.70 7.115133
780.80 7.241394
780.90 7.314539
781.00 7.297536
781.10 7.182777
781.20 7.069274
781.30 7.044166
781.40 7.105075
781.50 7.222313
781.60 7.338949
781.70 7.396137
781.80 7.394419
781.90 7.368192
782.00 7.374508
782.10 7.401922
782.20 7.329596
782.30 7.109408
782.40 6.906145
782.50 6.860523
782.60 6.905651
782.70 6.936029
782.80 6.867848
782.90 6.673372
783.00 6.44783
783.10 6.303498
783.20 6.260229
783.30 6.306736
783.40 6.41722
783.50 6.512236
783.60 6.556356
783.70 6.583411
783.80 6.623606
783.90 6.699918
784.00 6.786335
784.10 6.817439
784.20 6.818981
784.30 6.835559
784.40 6.836948
784.50 6.828691
784.60 6.874729
784.70 6.983323
784.80 7.086268
784.90 7.11035
785.00 7.086702
785.10 7.094589
785.20 7.17149
785.30 7.301847
785.40 7.384298
785.50 7.326032
785.60 7.203684
785.70 7.152123
785.80 7.163104
785.90 7.227483
786.00 7.325428
786.10 7.344338
786.20 7.262084
786.30 7.141677
786.40 7.010474
786.50 6.947513
786.60 6.971228
786.70 7.049434
786.80 7.204402
786.90 7.348348
787.00 7.395244
787.10 7.319961
787.20 7.182787
787.30 7.131985
787.40 7.148128
787.50 7.166611
787.60 7.217344
787.70 7.336899
787.80 7.488895
787.90 7.571769
788.00 7.588952
788.10 7.610568
788.20 7.680863
788.30 7.746001
788.40 7.728958
788.50 7.688078
788.60 7.683361
788.70 7.699665
788.80 7.737484
788.90 7.80535
789.00 7.880735
789.10 7.941625
789.20 7.969952
789.30 7.935884
789.40 7.89863
789.50 7.916704
789.60 7.925912
789.70 7.916387
789.80 7.907031
789.90 7.866038
790.00 7.786055
790.10 7.682942
790.20 7.602535
790.30 7.59736
790.40 7.667146
790.50 7.769756
790.60 7.872106
790.70 7.887028
790.80 7.742795
790.90 7.51375
791.00 7.29135
791.10 7.166973
791.20 7.22227
791.30 7.401325
791.40 7.552636
791.50 7.609249
791.60 7.58547
791.70 7.493491
791.80 7.467925
791.90 7.519908
792.00 7.560368
792.10 7.605233
792.20 7.633401
792.30 7.653181
792.40 7.64039
792.50 7.594344
792.60 7.601196
792.70 7.629385
792.80 7.659839
792.90 7.71128
793.00 7.788248
793.10 7.912845
793.20 8.039894
793.30 8.132883
793.40 8.20592
793.50 8.21142
793.60 8.151807
793.70 8.114328
793.80 8.113336
793.90 8.121052
794.00 8.106703
794.10 8.041698
794.20 7.947684
794.30 7.885637
794.40 7.924268
794.50 8.025567
794.60 8.050017
794.70 7.926381
794.80 7.719392
794.90 7.604833
795.00 7.639486
795.10 7.739932
795.20 7.901718
795.30 8.085048
795.40 8.214638
795.50 8.300636
795.60 8.362533
795.70 8.407882
795.80 8.431609
795.90 8.413329
796.00 8.361808
796.10 8.279347
796.20 8.179136
796.30 8.16532
796.40 8.363899
796.50 8.668198
796.60 8.797021
796.70 8.711234
796.80 8.547546
796.90 8.460993
797.00 8.530402
797.10 8.620818
797.20 8.661549
797.30 8.657985
797.40 8.618793
797.50 8.622224
797.60 8.662278
797.70 8.703218
797.80 8.741676
797.90 8.734417
798.00 8.692278
798.10 8.659024
798.20 8.602754
798.30 8.536137
798.40 8.519518
798.50 8.545222
798.60 8.550729
798.70 8.51197
798.80 8.45867
798.90 8.399969
799.00 8.364393
799.10 8.429353
799.20 8.605229
799.30 8.852826
799.40 9.083923
799.50 9.076891
799.60 8.847386
799.70 8.652081
799.80 8.541959
799.90 8.484275
800.00 8.517024
800.10 8.582248
800.20 8.631361
800.30 8.708875
800.40 8.796337
800.50 8.849735
800.60 8.862579
800.70 8.852268
800.80 8.859077
800.90 8.896263
801.00 8.956892
801.10 9.000159
801.20 9.014448
801.30 9.069879
801.40 9.174401
801.50 9.238821
801.60 9.225733
801.70 9.168847
801.80 9.1121
801.90 9.136643
802.00 9.223801
802.10 9.234218
802.20 9.146384
802.30 9.073641
802.40 9.057288
802.50 9.098356
802.60 9.222006
802.70 9.311785
802.80 9.298877
802.90 9.291348
803.00 9.319119
803.10 9.366118
803.20 9.443148
803.30 9.501224
803.40 9.518407
803.50 9.546134
803.60 9.563879
803.70 9.529172
803.80 9.494567
803.90 9.493113
804.00 9.490597
804.10 9.469562
804.20 9.445529
804.30 9.461251
804.40 9.551925
804.50 9.65994
804.60 9.695121
804.70 9.639289
804.80 9.538928
804.90 9.476249
805.00 9.518124
805.10 9.674952
805.20 9.882616
805.30 10.04702
805.40 10.12866
805.50 10.13481
805.60 10.10511
805.70 10.09162
805.80 10.08536
805.90 10.04093
806.00 10.01677
806.10 10.11186
806.20 10.25341
806.30 10.32454
806.40 10.31994
806.50 10.24012
806.60 10.11454
806.70 10.03364
806.80 10.03121
806.90 10.02818
807.00 9.973764
807.10 9.936792
807.20 9.958798
807.30 10.0283
807.40 10.14296
807.50 10.23786
807.60 10.26878
807.70 10.29217
807.80 10.32841
807.90 10.35042
808.00 10.35749
808.10 10.36022
808.20 10.36338
808.30 10.38216
808.40 10.44438
808.50 10.51454
808.60 10.52731
808.70 10.49259
808.80 10.45954
808.90 10.4698
809.00 10.52924
809.10 10.58127
809.20 10.58934
809.30 10.59654
809.40 10.61269
809.50 10.60293
809.60 10.58647
809.70 10.57188
809.80 10.55604
809.90 10.57024
810.00 10.59093
810.10 10.57899
810.20 10.55778
810.30 10.52792
810.40 10.5059
810.50 10.53146
810.60 10.55076
810.70 10.52414
810.80 10.52731
810.90 10.59954
811.00 10.68827
811.10 10.73943
811.20 10.73454
811.30 10.72078
811.40 10.74629
811.50 10.77041
811.60 10.72312
811.70 10.57106
811.80 10.37747
811.90 10.29073
812.00 10.37648
812.10 10.57357
812.20 10.78944
812.30 10.90417
812.40 10.89003
812.50 10.85811
812.60 10.86796
812.70 10.9317
812.80 11.00839
812.90 11.02064
813.00 11.0122
813.10 11.0246
813.20 11.01058
813.30 10.97623
813.40 10.95024
813.50 10.91343
813.60 10.89222
813.70 10.93914
813.80 11.02748
813.90 11.1179
814.00 11.18048
814.10 11.18429
814.20 11.1202
814.30 11.00621
814.40 10.89598
814.50 10.83144
814.60 10.82887
814.70 10.8879
814.80 10.93886
814.90 10.89834
815.00 10.80763
815.10 10.77727
815.20 10.83365
815.30 10.93634
815.40 11.01072
815.50 11.00186
815.60 10.94812
815.70 10.9098
815.80 10.89095
815.90 10.8669
816.00 10.82484
816.10 10.78716
816.20 10.75475
816.30 10.69287
816.40 10.65959
816.50 10.70218
816.60 10.77405
816.70 10.91353
816.80 11.0863
816.90 11.1482
817.00 11.10108
817.10 11.00924
817.20 10.92665
817.30 10.91217
817.40 10.94161
817.50 10.9642
817.60 10.95303
817.70 10.86814
817.80 10.70319
817.90 10.53894
818.00 10.43094
818.10 10.22104
818.20 9.701682
818.30 8.817152
818.40 7.7717
818.50 7.095503
818.60 7.138364
818.70 7.810419
818.80 8.748048
818.90 9.484052
819.00 9.834158
819.10 9.901626
819.20 9.768715
819.30 9.381353
819.40 8.624854
819.50 7.583287
819.60 6.684664
819.70 6.349331
819.80 6.683843
819.90 7.487895
820.00 8.343137
820.10 8.988066
820.20 9.463155
820.30 9.851642
820.40 10.14116
820.50 10.27418
820.60 10.24273
820.70 10.12991
820.80 10.0629
820.90 10.08146
821.00 10.1637
821.10 10.29282
821.20 10.42439
821.30 10.50189
821.40 10.50693
821.50 10.48551
821.60 10.49541
821.70 10.51499
821.80 10.50743
821.90 10.48875
822.00 10.46245
822.10 10.44341
822.20 10.45891
822.30 10.49658
822.40 10.54904
822.50 10.63202
822.60 10.72379
822.70 10.76784
822.80 10.7685
822.90 10.7744
823.00 10.81191
823.10 10.88775
823.20 10.94622
823.30 10.91128
823.40 10.79798
823.50 10.69344
823.60 10.66535
823.70 10.74123
823.80 10.86533
823.90 10.95911
824.00 11.07511
824.10 11.21451
824.20 11.25078
824.30 11.17067
824.40 11.04865
824.50 10.95691
824.60 10.98098
824.70 11.12481
824.80 11.32554
824.90 11.51282
825.00 11.60631
825.10 11.57672
825.20 11.45091
825.30 11.27424
825.40 11.10543
825.50 10.95645
825.60 10.8051
825.70 10.64945
825.80 10.53048
825.90 10.52357
826.00 10.64361
826.10 10.86266
826.20 11.10491
826.30 11.23451
826.40 11.264
826.50 11.29125
826.60 11.32627
826.70 11.38878
826.80 11.46285
826.90 11.46411
827.00 11.38301
827.10 11.25171
827.20 11.06378
827.30 10.83154
827.40 10.59926
827.50 10.42605
827.60 10.38078
827.70 10.45393
827.80 10.59018
827.90 10.74071
828.00 10.81054
828.10 10.80126
828.20 10.7733
828.30 10.70268
828.40 10.63306
828.50 10.62026
828.60 10.63327
828.70 10.70027
828.80 10.79925
828.90 10.76814
829.00 10.55873
829.10 10.31361
829.20 10.16354
829.30 10.13885
829.40 10.17183
829.50 10.22439
829.60 10.32885
829.70 10.43697
829.80 10.53133
829.90 10.68593
830.00 10.71624
830.10 10.534
830.20 10.35176
830.30 10.2241
830.40 10.09644
830.50 10.05333
830.60 10.01022
830.70 10.00261
830.80 9.995002
830.90 10.18215
831.00 10.3693
831.10 10.44545
831.20 10.5216
831.30 10.47807
831.40 10.43454
831.50 10.43946
831.60 10.44438
831.70 10.45868
831.80 10.47297
831.90 10.47367
832.00 10.47436
832.10 10.49619
832.20 10.51803
832.30 10.5307
832.40 10.54338
832.50 10.52437
832.60 10.50537
832.70 10.29685
832.80 10.08833
832.90 10.00935
833.00 9.930382
833.10 10.11246
833.20 10.29454
833.30 10.42709
833.40 10.55965
833.50 10.39796
833.60 10.23627
833.70 10.21068
833.80 10.18509
833.90 10.29539
834.00 10.40568
834.10 10.49844
834.20 10.59121
834.30 10.74279
834.40 10.89437
834.50 10.95463
834.60 11.01488
834.70 10.73528
834.80 10.45568
834.90 10.2733
835.00 10.09093
835.10 10.23397
835.20 10.37702
835.30 10.40975
835.40 10.44248
835.50 10.41647
835.60 10.39045
835.70 10.39802
835.80 10.40559
835.90 10.46659
836.00 10.52759
836.10 10.52388
836.20 10.52018
836.30 10.40859
836.40 10.297
836.50 10.18352
836.60 10.07004
836.70 10.14242
836.80 10.21479
836.90 10.3934
837.00 10.572
837.10 10.64262
837.20 10.71323
837.30 10.63408
837.40 10.55494
837.50 10.36856
837.60 10.18218
837.70 10.0212
837.80 9.860225
837.90 9.865649
838.00 9.871072
838.10 9.92283
838.20 9.974588
838.30 9.914022
838.40 9.853457
838.50 9.732879
838.60 9.612302
838.70 9.516529
838.80 9.420757
838.90 9.354459
839.00 9.288161
839.10 9.479471
839.20 9.67078
839.30 9.897757
839.40 10.12473
839.50 10.09841
839.60 10.07208
839.70 10.0967
839.80 10.12133
839.90 10.21771
840.00 10.31409
840.10 10.18827
840.20 10.24452
840.30 10.35117
840.40 10.42448
840.50 10.46466
840.60 10.50724
840.70 10.56196
840.80 10.61111
840.90 10.64132
841.00 10.66903
841.10 10.5822
841.20 10.39416
841.30 10.22544
841.40 10.15379
841.50 10.07103
841.60 10.23539
841.70 10.45771
841.80 10.57337
841.90 10.61156
842.00 10.60936
842.10 10.45115
842.20 10.28046
842.30 10.24007
842.40 10.18454
842.50 10.05034
842.60 9.876789
842.70 9.752156
842.80 9.704797
842.90 9.677676
843.00 9.79682
843.10 9.932033
843.20 9.872571
843.30 9.733076
843.40 9.493033
843.50 8.961158
843.60 8.431236
843.70 8.281452
843.80 8.054594
843.90 8.253664
844.00 8.709829
844.10 9.060087
844.20 9.214681
844.30 9.399226
844.40 9.290789
844.50 9.163435
844.60 9.111991
844.70 9.068873
844.80 9.078854
844.90 9.239016
845.00 9.358291
845.10 9.172103
845.20 9.033155
845.30 8.822523
845.40 8.573655
845.50 8.404543
845.60 8.334858
845.70 8.24309
845.80 8.238009
845.90 8.226848
846.00 8.283267
846.10 8.366093
846.20 8.417773
846.30 8.438763
846.40 8.45398
846.50 8.414551
846.60 8.369035
846.70 8.24
846.80 8.083847
846.90 7.992985
847.00 7.984223
847.10 7.981537
847.20 8.054743
847.30 8.135676
847.40 8.152342
847.50 8.161497
847.60 8.191128
847.70 8.239752
847.80 8.281921
847.90 8.335878
848.00 8.401178
848.10 8.420498
848.20 8.445446
848.30 8.50921
848.40 8.598518
848.50 8.673144
848.60 8.730957
848.70 8.787037
848.80 8.803877
848.90 8.810337
849.00 8.838625
849.10 8.894433
849.20 8.94983
849.30 8.995266
849.40 9.043518
849.50 9.014445
849.60 8.98431
849.70 9.03499
849.80 9.132224
849.90 9.210589
850.00 9.243202
850.10 9.296889
850.20 9.174432
850.30 9.035787
850.40 8.855974
850.50 8.67587
850.60 8.525715
850.70 8.421076
850.80 8.312695
850.90 8.341763
851.00 8.329006
851.10 8.375314
851.20 8.468583
851.30 8.510019
851.40 8.437656
851.50 8.37061
851.60 8.240638
851.70 8.122152
851.80 8.070399
851.90 8.046087
852.00 8.060326
852.10 8.128525
852.20 8.184235
852.30 8.257799
852.40 8.302585
852.50 8.369085
852.60 8.460014
852.70 8.549423
852.80 8.64239
852.90 8.728071
853.00 8.679053
853.10 8.624739
853.20 8.651273
853.30 8.705406
853.40 8.751732
853.50 8.778263
853.60 8.796332
853.70 8.853101
853.80 8.913353
853.90 8.887945
854.00 8.82775
854.10 8.852834
854.20 8.982467
854.30 9.10494
854.40 9.105862
854.50 9.167252
854.60 9.129191
854.70 9.063581
854.80 9.039569
854.90 9.05662
855.00 9.07361
855.10 9.139966
855.20 9.203153
855.30 9.283838
855.40 9.369406
855.50 9.400058
855.60 9.37292
855.70 9.333018
855.80 9.292932
855.90 9.278711
856.00 9.160056
856.10 9.02149
856.20 8.942434
856.30 8.894556
856.40 8.878233
856.50 8.998914
856.60 9.114081
856.70 9.278613
856.80 9.470404
856.90 9.468618
857.00 9.356712
857.10 9.28856
857.20 9.292579
857.30 9.291053
857.40 9.271258
857.50 9.240762
857.60 9.285556
857.70 9.362311
857.80 9.420679
857.90 9.470593
858.00 9.522199
858.10 9.488892
858.20 9.462186
858.30 9.414245
858.40 9.357467
858.50 9.357609
858.60 9.449138
858.70 9.538876
858.80 9.577983
858.90 9.613267
859.00 9.590908
859.10 9.553961
859.20 9.50982
859.30 9.458153
859.40 9.425374
859.50 9.492595
859.60 9.541805
859.70 9.614942
859.80 9.694957
859.90 9.725073
860.00 9.702924
860.10 9.695897
860.20 9.736054
860.30 9.775915
860.40 9.822927
860.50 9.86072
860.60 9.902622
860.70 9.961745
860.80 10.00014
860.90 9.948006
861.00 9.911431
861.10 9.825172
861.20 9.733224
861.30 9.65406
861.40 9.580059
861.50 9.521319
861.60 9.536781
861.70 9.558207
861.80 9.570559
861.90 9.555789
862.00 9.586432
862.10 9.662983
862.20 9.712037
862.30 9.706809
862.40 9.717495
862.50 9.712003
862.60 9.705538
862.70 9.726259
862.80 9.776369
862.90 9.808409
863.00 9.785943
863.10 9.754537
863.20 9.71232
863.30 9.649679
863.40 9.697438
863.50 9.814925
863.60 9.902182
863.70 9.921369
863.80 9.94641
863.90 9.937259
864.00 9.945264
864.10 9.988703
864.20 10.02615
864.30 10.03792
864.40 10.04134
864.50 10.0544
864.60 10.02563
864.70 10.00726
864.80 9.977154
864.90 9.942476
865.00 9.940861
865.10 9.974339
865.20 10.00056
865.30 10.05516
865.40 10.10078
865.50 10.07617
865.60 10.04227
865.70 10.02128
865.80 10.01451
865.90 9.991358
866.00 9.920082
866.10 9.840007
866.20 9.805895
866.30 9.777103
866.40 9.819755
866.50 9.921479
866.60 10.0346
866.70 10.10361
866.80 10.18099
866.90 10.2029
867.00 10.21122
867.10 10.21925
867.20 10.21655
867.30 10.19436
867.40 10.18135
867.50 10.16463
867.60 10.075
867.70 9.966719
867.80 10.00596
867.90 10.14454
868.00 10.24751
868.10 10.26202
868.20 10.27665
868.30 10.19189
868.40 10.09468
868.50 10.06639
868.60 10.08043
868.70 10.04166
868.80 9.924056
868.90 9.819993
869.00 9.646853
869.10 9.476195
869.20 9.393223
869.30 9.354919
869.40 9.336009
869.50 9.326573
869.60 9.314278
869.70 9.357737
869.80 9.371862
869.90 9.431421
870.00 9.50452
870.10 9.592994
870.20 9.701703
870.30 9.807068
870.40 9.884651
870.50 9.963406
870.60 10.01398
870.70 10.06904
870.80 10.05018
870.90 9.941837
871.00 9.841725
871.10 9.756378
871.20 9.6662
871.30 9.627483
871.40 9.586833
871.50 9.548396
871.60 9.530092
871.70 9.519116
871.80 9.484006
871.90 9.439671
872.00 9.556203
872.10 9.686159
872.20 9.767734
872.30 9.808
872.40 9.839435
872.50 9.859291
872.60 9.889944
872.70 10.03053
872.80 10.14266
872.90 10.21825
873.00 10.30848
873.10 10.36066
873.20 10.28236
873.30 10.21754
873.40 10.12069
873.50 10.00452
873.60 9.964063
873.70 9.950176
873.80 9.952101
873.90 9.995325
874.00 10.0513
874.10 10.19175
874.20 10.30843
874.30 10.44146
874.40 10.57014
874.50 10.63458
874.60 10.63829
874.70 10.64623
874.80 10.5267
874.90 10.43161
875.00 10.41635
875.10 10.37878
875.20 10.40047
875.30 10.53229
875.40 10.63754
875.50 10.63809
875.60 10.66082
875.70 10.63337
875.80 10.57284
875.90 10.60226
876.00 10.71786
876.10 10.80442
876.20 10.81703
876.30 10.86223
876.40 10.86566
876.50 10.86561
876.60 10.73652
876.70 10.50397
876.80 10.35411
876.90 10.44315
877.00 10.48846
877.10 10.62609
877.20 10.77466
877.30 10.86777
877.40 10.93373
877.50 11.01537
877.60 11.11074
877.70 11.22427
877.80 11.15658
877.90 11.14638
878.00 11.07091
878.10 10.91763
878.20 10.83129
878.30 10.92196
878.40 10.9855
878.50 11.05576
878.60 11.14168
878.70 11.17965
878.80 11.20126
878.90 11.2294
879.00 11.26919
879.10 11.29886
879.20 11.31874
879.30 11.34019
879.40 11.34197
879.50 11.33465
879.60 11.36401
879.70 11.43965
879.80 11.48629
879.90 11.50573
880.00 11.582
880.10 11.31887
880.20 11.00946
880.30 10.7842
880.40 10.59805
880.50 10.4025
880.60 10.38616
880.70 10.35841
880.80 10.43035
880.90 10.52018
881.00 10.67851
881.10 10.85801
881.20 11.03744
881.30 11.27187
881.40 11.51256
881.50 11.64104
881.60 11.77673
881.70 11.83032
881.80 11.81599
881.90 11.79119
882.00 11.77701
882.10 11.79472
882.20 11.5511
882.30 11.3277
882.40 11.05342
882.50 10.72546
882.60 10.49671
882.70 10.46379
882.80 10.4312
882.90 10.70511
883.00 10.96699
883.10 11.22532
883.20 11.48622
883.30 11.66715
883.40 11.75583
883.50 11.85627
883.60 11.88238
883.70 11.89699
883.80 11.83042
883.90 11.74197
884.00 11.69174
884.10 11.67383
884.20 11.6598
884.30 11.72798
884.40 11.84645
884.50 11.76355
884.60 11.64986
884.70 11.54132
884.80 11.41789
884.90 11.29495
885.00 11.2656
885.10 11.19938
885.20 11.38256
885.30 11.55651
885.40 11.7002
885.50 11.88999
885.60 12.03222
885.70 11.94378
885.80 11.91665
885.90 11.62815
886.00 11.34516
886.10 10.99665
886.20 10.58505
886.30 10.28059
886.40 10.20532
886.50 10.0585
886.60 10.24521
886.70 10.43836
886.80 10.45712
886.90 10.45921
887.00 10.38279
887.10 10.12324
887.20 9.894536
887.30 9.721706
887.40 9.465934
887.50 9.480975
887.60 9.559244
887.70 9.672879
887.80 9.859254
887.90 10.03996
888.00 10.20113
888.10 10.39236
888.20 10.41195
888.30 10.4374
888.40 10.4304
888.50 10.34357
888.60 10.26213
888.70 10.25351
888.80 10.20611
888.90 10.27185
889.00 10.35479
889.10 10.44625
889.20 10.5491
889.30 10.62121
889.40 10.57412
889.50 10.5401
889.60 10.45039
889.70 10.37002
889.80 10.33142
889.90 10.28232
890.00 10.25788
890.10 10.38086
890.20 10.46882
890.30 10.64673
890.40 10.85568
890.50 10.95847
890.60 11.03572
890.70 11.10198
890.80 11.12558
890.90 11.14809
891.00 11.06668
891.10 10.98983
891.20 10.93409
891.30 10.85638
891.40 10.83807
891.50 10.94287
891.60 11.02536
891.70 11.05194
891.80 11.10484
891.90 11.09099
892.00 11.05695
892.10 11.0438
892.20 11.06175
892.30 11.0738
892.40 11.00518
892.50 10.94528
892.60 10.95247
892.70 10.96248
892.80 10.98257
892.90 11.00738
893.00 11.0303
893.10 11.09227
893.20 11.12627
893.30 11.21414
893.40 11.3259
893.50 11.38039
893.60 11.44249
893.70 11.44877
893.80 11.22577
893.90 11.04484
894.00 10.90827
894.10 10.6923
894.20 10.61166
894.30 10.59952
894.40 10.60245
894.50 10.63564
894.60 10.6642
894.70 10.69505
894.80 10.70758
894.90 10.73584
895.00 10.79765
895.10 10.85001
895.20 10.86636
895.30 10.89288
895.40 10.85276
895.50 10.77542
895.60 10.81599
895.70 10.89355
895.80 10.96771
895.90 11.0383
896.00 11.10798
896.10 11.10208
896.20 11.1034
896.30 11.05174
896.40 10.98768
896.50 10.92374
896.60 10.88632
896.70 10.88666
896.80 10.92992
896.90 10.93991
897.00 11.00883
897.10 11.06814
897.20 11.07525
897.30 11.06968
897.40 11.08636
897.50 11.11823
897.60 11.13789
897.70 11.24207
897.80 11.35033
897.90 11.35193
898.00 11.32197
898.10 11.31862
898.20 11.29753
898.30 11.26345
898.40 11.3904
898.50 11.45145
898.60 11.54487
898.70 11.68294
898.80 11.72416
898.90 11.63185
899.00 11.57548
899.10 11.49522
899.20 11.3983
899.30 11.44663
899.40 11.51993
899.50 11.55422
899.60 11.55558
899.70 11.53474
899.80 11.4589
899.90 11.39662
900.00 11.24493
900.10 11.05025
900.20 11.02313
900.30 11.14762
900.40 11.2856
900.50 11.5421
900.60 11.80613
900.70 11.84628
900.80 11.93097
900.90 11.82358
901.00 11.5776
901.10 11.40638
901.20 11.36669
901.30 11.27718
901.40 11.31767
901.50 11.38354
901.60 11.38805
901.70 11.39319
901.80 11.36574
901.90 11.22274
902.00 11.06061
902.10 11.00926
902.20 10.97437
902.30 10.97901
902.40 10.99425
902.50 10.97316
902.60 10.89422
902.70 10.80649
902.80 10.73005
902.90 10.64796
903.00 10.7609
903.10 10.91224
903.20 11.07575
903.30 11.24427
903.40 11.39726
903.50 11.51044
903.60 11.63203
903.70 11.65524
903.80 11.65955
903.90 11.70928
904.00 11.81706
904.10 11.90673
904.20 11.90258
904.30 11.92949
904.40 11.87662
904.50 11.78788
904.60 11.75592
904.70 11.75513
904.80 11.77592
904.90 11.89512
905.00 12.03242
905.10 11.94537
905.20 11.91292
905.30 11.84945
905.40 11.74979
905.50 11.662
905.60 11.6057
905.70 11.55163
905.80 11.6239
905.90 11.68949
906.00 11.71414
906.10 11.71539
906.20 11.72045
906.30 11.75327
906.40 11.76762
906.50 11.75574
906.60 11.77504
906.70 11.7666
906.80 11.75029
906.90 11.73436
907.00 11.70282
907.10 11.66012
907.20 11.64712
907.30 11.61373
907.40 11.60386
907.50 11.61333
907.60 11.66277
907.70 11.73454
907.80 11.8345
907.90 11.99286
908.00 12.12059
908.10 12.1707
908.20 12.26427
908.30 12.23089
908.40 12.10637
908.50 12.00695
908.60 11.97488
908.70 11.93451
908.80 11.76772
908.90 11.61736
909.00 11.54338
909.10 11.46439
909.20 11.46195
909.30 11.60305
909.40 11.74392
909.50 11.93241
909.60 12.1346
909.70 12.20492
909.80 12.23676
909.90 12.2358
910.00 12.20615
910.10 12.18808
910.20 12.23127
910.30 12.29562
910.40 12.25717
910.50 12.22086
910.60 12.16265
910.70 12.06068
910.80 11.96174
910.90 11.92228
911.00 11.84556
911.10 11.95721
911.20 12.09465
911.30 12.23932
911.40 12.4048
911.50 12.50227
911.60 12.4291
911.70 12.38405
911.80 12.29931
911.90 12.1879
912.00 12.12949
912.10 12.0902
912.20 12.1034
912.30 12.22149
912.40 12.34107
912.50 12.32651
912.60 12.32167
912.70 12.30387
912.80 12.27709
912.90 12.28081
913.00 12.32894
913.10 12.37406
913.20 12.40146
913.30 12.41496
913.40 12.42258
913.50 12.44184
913.60 12.44339
913.70 12.43658
913.80 12.41993
913.90 12.22027
914.00 12.03463
914.10 12.02055
914.20 11.9603
914.30 11.95664
914.40 12.00297
914.50 12.0593
914.60 12.19766
914.70 12.36203
914.80 12.32794
914.90 12.32406
915.00 12.32196
915.10 12.29449
915.20 12.28694
915.30 12.33665
915.40 12.3405
915.50 12.3461
915.60 12.34789
915.70 12.45841
915.80 12.649
915.90 12.7473
916.00 12.65781
916.10 12.59397
916.20 12.52878
916.30 12.46936
916.40 12.45092
916.50 12.40394
916.60 12.41743
916.70 12.53257
916.80 12.61845
916.90 12.61241
917.00 12.64253
917.10 12.63427
917.20 12.61862
917.30 12.5918
917.40 12.54612
917.50 12.5004
917.60 12.44475
917.70 12.38562
917.80 12.43647
917.90 12.49281
918.00 12.55247
918.10 12.59892
918.20 12.6394
918.30 12.70514
918.40 12.79059
918.50 12.64417
918.60 12.50689
918.70 12.48309
918.80 12.4759
918.90 12.5132
919.00 12.68094
919.10 12.82195
919.20 12.84176
919.30 12.95171
919.40 12.88907
919.50 12.76484
919.60 12.69132
919.70 12.66851
919.80 12.61663
919.90 12.715
920.00 12.83557
920.10 12.8333
920.20 12.82186
920.30 12.83782
920.40 12.87616
920.50 12.88175
920.60 12.82169
920.70 12.78537
920.80 12.6234
920.90 12.4907
921.00 12.363
921.10 12.17898
921.20 12.06324
921.30 12.22904
921.40 12.37597
921.50 12.5164
921.60 12.67615
921.70 12.70139
921.80 12.67126
921.90 12.63532
922.00 12.56187
922.10 12.51264
922.20 12.52715
922.30 12.54219
922.40 12.50893
922.50 12.43815
922.60 12.38586
922.70 12.38643
922.80 12.37951
922.90 12.37544
923.00 12.40173
923.10 12.27176
923.20 12.10913
923.30 11.96757
923.40 11.81841
923.50 11.67682
923.60 11.73241
923.70 11.80105
923.80 11.88542
923.90 11.97242
924.00 12.01623
924.10 12.00292
924.20 12.0091
924.30 12.15278
924.40 12.3033
924.50 12.28201
924.60 12.31313
924.70 12.29007
924.80 12.21463
924.90 12.13857
925.00 12.05314
925.10 11.93861
925.20 11.86148
925.30 11.77532
925.40 11.79877
925.50 11.83937
925.60 11.88964
925.70 11.99758
925.80 12.10418
925.90 12.18452
926.00 12.32623
926.10 12.34485
926.20 12.32744
926.30 12.321
926.40 12.29672
926.50 12.27095
926.60 12.37683
926.70 12.45458
926.80 12.49437
926.90 12.56537
927.00 12.5443
927.10 12.45053
927.20 12.39223
927.30 12.3743
927.40 12.3557
927.50 12.25412
927.60 12.14179
927.70 12.0293
927.80 11.92617
927.90 11.83971
928.00 11.75542
928.10 11.64881
928.20 11.74418
928.30 11.81807
928.40 11.86891
928.50 11.92919
928.60 11.97322
928.70 11.99489
928.80 12.04019
928.90 11.95194
929.00 11.8354
929.10 11.70794
929.20 11.58037
929.30 11.54578
929.40 11.60293
929.50 11.64557
929.60 11.654
929.70 11.6638
929.80 11.65853
929.90 11.68022
930.00 11.70365
930.10 11.70713
930.20 11.68697
930.30 11.60158
930.40 11.50189
930.50 11.53266
930.60 11.58014
930.70 11.66363
930.80 11.74228
930.90 11.73348
931.00 11.68974
931.10 11.64634
931.20 11.74232
931.30 11.86459
931.40 11.96871
931.50 12.03675
931.60 12.12374
931.70 12.05624
931.80 11.89596
931.90 11.7614
932.00 11.72779
932.10 11.69516
932.20 11.66321
932.30 11.77313
932.40 11.88033
932.50 11.90216
932.60 11.77559
932.70 11.66636
932.80 11.62359
932.90 11.61136
933.00 11.58829
933.10 11.70129
933.20 11.83423
933.30 11.92071
933.40 11.83144
933.50 11.7414
933.60 11.68915
933.70 11.66608
933.80 11.6371
933.90 11.69063
934.00 11.77205
934.10 11.86079
934.20 12.00136
934.30 12.15419
934.40 12.17187
934.50 11.94831
934.60 11.72462
934.70 11.61797
934.80 11.57196
934.90 11.52896
935.00 11.6434
935.10 11.78103
935.20 11.8853
935.30 11.87529
935.40 11.85522
935.50 11.81541
935.60 11.75427
935.70 11.68575
935.80 11.62846
935.90 11.55834
936.00 11.49306
936.10 11.55039
936.20 11.60436
936.30 11.66611
936.40 11.74469
936.50 11.86009
936.60 11.89297
936.70 11.87242
936.80 11.86133
936.90 11.74684
937.00 11.62402
937.10 11.48913
937.20 11.31001
937.30 11.09787
937.40 11.06647
937.50 11.25443
937.60 11.41932
937.70 11.56497
937.80 11.70959
937.90 11.85137
938.00 11.77143
938.10 11.71658
938.20 11.69431
938.30 11.70788
938.40 11.69924
938.50 11.73661
938.60 11.81575
938.70 11.89205
938.80 11.82846
938.90 11.74495
939.00 11.69033
939.10 11.73907
939.20 11.77866
939.30 11.82164
939.40 11.87457
939.50 11.93955
939.60 11.89983
939.70 11.83567
939.80 11.7806
939.90 11.74459
940.00 11.6747
940.10 11.60977
940.20 11.58573
940.30 11.5611
940.40 11.61201
940.50 11.70495
940.60 11.79592
940.70 11.89432
940.80 11.99085
940.90 12.06227
941.00 12.03511
941.10 12.03335
941.20 12.00154
941.30 11.9239
941.40 11.87131
941.50 11.84978
941.60 11.83262
941.70 11.80151
941.80 11.75081
941.90 11.68018
942.00 11.64565
942.10 11.68653
942.20 11.73346
942.30 11.79608
942.40 11.87921
942.50 11.96596
942.60 12.03168
942.70 12.09963
942.80 12.13833
942.90 12.01676
943.00 11.88318
943.10 11.82869
943.20 11.88256
943.30 11.92356
943.40 12.04799
943.50 12.21646
943.60 12.39209
943.70 12.35699
943.80 12.34017
943.90 12.29124
944.00 12.15456
944.10 12.0093
944.20 11.87456
944.30 11.73801
944.40 11.59734
944.50 11.54829
944.60 11.49915
944.70 11.44526
944.80 11.45396
944.90 11.46708
945.00 11.52136
945.10 11.61503
945.20 11.70025
945.30 11.78758
945.40 11.88792
945.50 11.98761
945.60 11.96352
945.70 11.94676
945.80 11.93189
945.90 11.8997
946.00 11.85744
946.10 11.81283
946.20 11.76031
946.30 11.70585
946.40 11.74202
946.50 11.81885
946.60 11.90664
946.70 12.0098
946.80 12.09496
946.90 12.1283
947.00 12.09811
947.10 12.06972
947.20 12.08342
947.30 12.12157
947.40 12.15988
947.50 12.16707
947.60 12.1679
947.70 12.18284
947.80 12.23402
947.90 12.2756
948.00 12.32925
948.10 12.3915
948.20 12.46591
948.30 12.36246
948.40 12.22788
948.50 12.13394
948.60 12.23776
948.70 12.35125
948.80 12.4174
948.90 12.41471
949.00 12.39621
949.10 12.41745
949.20 12.46726
949.30 12.52066
949.40 12.48288
949.50 12.46287
949.60 12.42489
949.70 12.32381
949.80 12.18189
949.90 12.17956
950.00 12.28147
950.10 12.38362
950.20 12.29288
950.30 12.18581
950.40 12.11456
950.50 12.14867
950.60 12.18294
950.70 12.22153
950.80 12.26947
950.90 12.30581
951.00 12.32916
951.10 12.35633
951.20 12.38564
951.30 12.41548
951.40 12.45962
951.50 12.47514
951.60 12.41852
951.70 12.34256
951.80 12.28084
951.90 12.22588
952.00 12.16917
952.10 12.18872
952.20 12.20702
952.30 12.22199
952.40 12.24502
952.50 12.256
952.60 12.30038
952.70 12.38985
952.80 12.4974
952.90 12.50132
953.00 12.47199
953.10 12.44612
953.20 12.43394
953.30 12.43603
953.40 12.44238
953.50 12.4516
953.60 12.4615
953.70 12.44181
953.80 12.39116
953.90 12.33733
954.00 12.35391
954.10 12.37823
954.20 12.38996
954.30 12.37794
954.40 12.36448
954.50 12.29126
954.60 12.15214
954.70 12.03946
954.80 12.02901
954.90 12.03541
955.00 12.0394
955.10 12.2039
955.20 12.37228
955.30 12.49395
955.40 12.52637
955.50 12.56164
955.60 12.5316
955.70 12.46126
955.80 12.38975
955.90 12.42363
956.00 12.47594
956.10 12.52986
956.20 12.57285
956.30 12.64791
956.40 12.70153
956.50 12.71623
956.60 12.71261
956.70 12.61647
956.80 12.49087
956.90 12.3752
957.00 12.4175
957.10 12.47152
957.20 12.48127
957.30 12.4276
957.40 12.40529
957.50 12.36455
957.60 12.30132
957.70 12.23311
957.80 12.32033
957.90 12.39788
958.00 12.43585
958.10 12.39089
958.20 12.33663
958.30 12.30082
958.40 12.2829
958.50 12.28542
958.60 12.37039
958.70 12.48974
958.80 12.59703
958.90 12.56884
959.00 12.54289
959.10 12.49867
959.20 12.41966
959.30 12.30083
959.40 12.23159
959.50 12.20548
959.60 12.19067
959.70 12.12824
959.80 12.08469
959.90 11.99195
960.00 11.77285
960.10 11.51181
960.20 11.50445
960.30 11.68715
960.40 11.83322
960.50 11.98196
960.60 12.16322
960.70 12.33008
960.80 12.32548
960.90 12.34102
961.00 12.36786
961.10 12.40246
961.20 12.44502
961.30 12.42529
961.40 12.37516
961.50 12.32188
961.60 12.33432
961.70 12.32273
961.80 12.33236
961.90 12.42693
962.00 12.53067
962.10 12.57558
962.20 12.58628
962.30 12.60989
962.40 12.61555
962.50 12.60248
962.60 12.57442
962.70 12.53744
962.80 12.52173
962.90 12.51159
963.00 12.497
963.10 12.48503
963.20 12.50646
963.30 12.5491
963.40 12.58922
963.50 12.56846
963.60 12.58113
963.70 12.43119
963.80 11.9473
963.90 11.47729
964.00 11.23662
964.10 11.08373
964.20 10.87941
964.30 11.21475
964.40 11.62504
964.50 11.92631
964.60 11.79483
964.70 11.73403
964.80 11.62229
964.90 11.45247
965.00 11.27459
965.10 11.40041
965.20 11.60704
965.30 11.80436
965.40 11.95892
965.50 12.11056
965.60 12.2356
965.70 12.32095
965.80 12.41497
965.90 12.47318
966.00 12.51208
966.10 12.53935
966.20 12.55303
966.30 12.57545
966.40 12.57458
966.50 12.48366
966.60 12.41119
966.70 12.384
966.80 12.38591
966.90 12.38493
967.00 12.33989
967.10 12.29241
967.20 12.23687
967.30 12.12271
967.40 12.04701
967.50 11.89063
967.60 11.6049
967.70 11.31375
967.80 11.31469
967.90 11.39612
968.00 11.44077
968.10 11.75251
968.20 12.10309
968.30 12.36185
968.40 12.35244
968.50 12.39643
968.60 12.35573
968.70 12.25946
968.80 12.16549
968.90 11.99518
969.00 11.77332
969.10 11.60523
969.20 11.79619
969.30 11.94014
969.40 12.08886
969.50 12.25627
969.60 12.4506
969.70 12.5703
969.80 12.67823
969.90 12.79197
970.00 12.75642
970.10 12.72469
970.20 12.65138
970.30 12.49211
970.40 12.3695
970.50 12.14144
970.60 11.8355
970.70 11.5378
970.80 11.5529
970.90 11.52996
971.00 11.5612
971.10 11.90991
971.20 12.26269
971.30 12.50031
971.40 12.62401
971.50 12.77269
971.60 12.75158
971.70 12.70383
971.80 12.66037
971.90 12.52999
972.00 12.40647
972.10 12.34658
972.20 12.38667
972.30 12.39941
972.40 12.4334
972.50 12.48766
972.60 12.53893
972.70 12.29567
972.80 12.07324
972.90 11.8873
973.00 11.75958
973.10 11.58668
973.20 11.59891
973.30 11.76371
973.40 11.8859
973.50 11.9862
973.60 12.1018
973.70 12.20281
973.80 12.17345
973.90 12.14733
974.00 12.16433
974.10 12.24334
974.20 12.33676
974.30 12.24943
974.40 12.0905
974.50 11.95273
974.60 11.94714
974.70 11.89853
974.80 11.89108
974.90 12.00908
975.00 12.12255
975.10 12.24538
975.20 12.37197
975.30 12.50098
975.40 12.49018
975.50 12.45574
975.60 12.42644
975.70 12.41466
975.80 12.41372
975.90 12.42887
976.00 12.46809
976.10 12.51207
976.20 12.49299
976.30 12.44611
976.40 12.40263
976.50 12.47527
976.60 12.53694
976.70 12.55249
976.80 12.48792
976.90 12.46993
977.00 12.31335
977.10 12.08157
977.20 11.85866
977.30 11.91723
977.40 11.94001
977.50 11.97688
977.60 12.1133
977.70 12.26124
977.80 12.34954
977.90 12.39695
978.00 12.47062
978.10 12.32758
978.20 12.16381
978.30 11.98921
978.40 11.64554
978.50 11.26757
978.60 10.99992
978.70 10.90373
978.80 10.76502
978.90 10.90716
979.00 11.14845
979.10 11.376
979.20 11.63637
979.30 11.89098
979.40 12.10495
979.50 12.2324
979.60 12.41878
979.70 12.53656
979.80 12.5964
979.90 12.6628
980.00 12.66072
980.10 12.65058
980.20 12.63584
980.30 12.6171
980.40 12.60765
980.50 12.59934
980.60 12.59071
980.70 12.58248
980.80 12.56056
980.90 12.52375
981.00 12.48417
981.10 12.52836
981.20 12.58037
981.30 12.59651
981.40 12.54421
981.50 12.51971
981.60 12.50009
981.70 12.4627
981.80 12.41162
981.90 12.42851
982.00 12.44412
982.10 12.45072
982.20 12.43451
982.30 12.42713
982.40 12.43567
982.50 12.45661
982.60 12.47024
982.70 12.46691
982.80 12.46981
982.90 12.47505
983.00 12.44365
983.10 12.42001
983.20 12.39645
983.30 12.37492
983.40 12.34525
983.50 12.29696
983.60 12.24357
983.70 12.19871
983.80 12.20945
983.90 12.19584
984.00 12.19703
984.10 12.26359
984.20 12.33494
984.30 12.3806
984.40 12.41758
984.50 12.46928
984.60 12.48435
984.70 12.47429
984.80 12.45397
984.90 12.42784
985.00 12.43116
985.10 12.42385
985.20 12.39257
985.30 12.35957
985.40 12.39698
985.50 12.43164
985.60 12.44621
985.70 12.45433
985.80 12.48699
985.90 12.50562
986.00 12.48744
986.10 12.47498
986.20 12.46209
986.30 12.44548
986.40 12.41956
986.50 12.41708
986.60 12.42462
986.70 12.43631
986.80 12.42071
986.90 12.42587
987.00 12.43051
987.10 12.42513
987.20 12.39305
987.30 12.44313
987.40 12.49843
987.50 12.54203
987.60 12.54918
987.70 12.58992
987.80 12.57778
987.90 12.49044
988.00 12.41465
988.10 12.40692
988.20 12.39732
988.30 12.3713
988.40 12.4407
988.50 12.50158
988.60 12.55402
988.70 12.59483
988.80 12.67184
988.90 12.67565
989.00 12.64061
989.10 12.61011
989.20 12.56511
989.30 12.53297
989.40 12.47197
989.50 12.27639
989.60 12.14385
989.70 11.90911
989.80 11.55708
989.90 11.17996
990.00 11.02984
990.10 10.91014
990.20 10.76928
990.30 10.61663
990.40 10.50818
990.50 10.35387
990.60 10.11713
990.70 9.856177
990.80 9.735961
990.90 9.641435
991.00 9.521194
991.10 9.625947
991.20 9.736624
991.30 9.779314
991.40 9.662203
991.50 9.592146
991.60 9.542224
991.70 9.485627
991.80 9.396805
991.90 9.557832
992.00 9.729223
992.10 9.865379
992.20 9.90061
992.30 10.01063
992.40 10.03025
992.50 9.931577
992.60 9.818092
992.70 9.863035
992.80 9.918072
992.90 9.959588
993.00 10.1949
993.10 10.44599
993.20 10.60128
993.30 10.59303
993.40 10.66519
993.50 10.67397
993.60 10.61869
993.70 10.51955
993.80 10.71242
993.90 10.88531
994.00 11.03564
994.10 11.1396
994.20 11.30809
994.30 11.31976
994.40 11.21628
994.50 11.13455
994.60 11.13863
994.70 11.13262
994.80 11.12725
994.90 11.19523
995.00 11.24496
995.10 11.32888
995.20 11.45282
995.30 11.5871
995.40 11.62088
995.50 11.65339
995.60 11.69755
995.70 11.53839
995.80 11.38296
995.90 11.26421
996.00 11.21539
996.10 11.1336
996.20 11.18219
996.30 11.27576
996.40 11.32885
996.50 11.52504
996.60 11.74432
996.70 11.89149
996.80 11.78415
996.90 11.8109
997.00 11.68201
997.10 11.40416
997.20 11.11009
997.30 11.00497
997.40 10.87591
997.50 10.75054
997.60 10.90368
997.70 11.0367
997.80 11.15358
997.90 11.25468
998.00 11.36724
998.10 11.44951
998.20 11.55058
998.30 11.66093
998.40 11.50978
998.50 11.36973
998.60 11.25907
998.70 11.19491
998.80 11.08886
998.90 11.07445
999.00 11.12411
999.10 11.18394
999.20 11.26063
999.30 11.31112
999.40 11.33972
999.50 11.36192
999.60 11.40554
999.70 11.40188
999.80 11.35024
999.90 11.28934
1000.00 11.36156
1000.10 11.43026
1000.20 11.48402
1000.30 11.57714
1000.40 11.70397
1000.50 11.78432
1000.60 11.78488
1000.70 11.83351
1000.80 11.73592
1000.90 11.58983
1001.00 11.46217
1001.10 11.39741
1001.20 11.28236
1001.30 11.23424
1001.40 11.3964
1001.50 11.50297
1001.60 11.6488
1001.70 11.83154
1001.80 12.02624
1001.90 11.9925
1002.00 11.97744
1002.10 11.96962
1002.20 11.91291
1002.30 11.81714
1002.40 11.7861
1002.50 11.82644
1002.60 11.86739
1002.70 11.87921
1002.80 11.91896
1002.90 11.96835
1003.00 11.90551
1003.10 11.81142
1003.20 11.736
1003.30 11.70738
1003.40 11.70111
1003.50 11.64364
1003.60 11.55846
1003.70 11.4725
1003.80 11.52985
1003.90 11.54217
1004.00 11.58193
1004.10 11.72317
1004.20 11.8399
1004.30 11.91979
1004.40 11.99263
1004.50 12.09238
1004.60 12.09143
1004.70 12.11315
1004.80 12.11609
1004.90 11.99921
1005.00 11.9368
1005.10 11.81672
1005.20 11.62426
1005.30 11.41972
1005.40 11.26224
1005.50 11.07507
1005.60 10.88214
1005.70 10.9066
1005.80 10.88556
1005.90 10.89206
1006.00 10.95769
1006.10 11.03525
1006.20 11.07561
1006.30 11.11935
1006.40 11.18596
1006.50 11.26515
1006.60 11.30423
1006.70 11.36264
1006.80 11.51042
1006.90 11.66268
1007.00 11.7624
1007.10 11.86009
1007.20 12.00616
1007.30 11.99429
1007.40 11.92187
1007.50 11.86937
1007.60 11.96353
1007.70 12.02772
1007.80 12.05502
1007.90 12.06572
1008.00 12.11065
1008.10 12.10583
1008.20 12.07982
1008.30 12.05671
1008.40 12.08736
1008.50 12.10785
1008.60 12.09124
1008.70 12.03604
1008.80 12.03367
1008.90 11.95401
1009.00 11.84274
1009.10 11.73874
1009.20 11.74964
1009.30 11.71516
1009.40 11.70674
1009.50 11.8059
1009.60 11.86746
1009.70 11.95606
1009.80 12.05705
1009.90 12.15064
1010.00 12.26802
1010.10 12.39503
1010.20 12.50412
1010.30 12.52482
1010.40 12.60957
1010.50 12.61808
1010.60 12.54398
1010.70 12.48617
1010.80 12.3686
1010.90 12.23692
1011.00 12.112
1011.10 12.00167
1011.20 11.89346
1011.30 11.82098
1011.40 11.80108
1011.50 11.74599
1011.60 11.69465
1011.70 11.64942
1011.80 11.60719
1011.90 11.61164
1012.00 11.5628
1012.10 11.58472
1012.20 11.83097
1012.30 12.07407
1012.40 12.19954
1012.50 12.26215
1012.60 12.3551
1012.70 12.33543
1012.80 12.31664
1012.90 12.29587
1013.00 12.27868
1013.10 12.25901
1013.20 12.22323
1013.30 12.18224
1013.40 12.1903
1013.50 12.03606
1013.60 11.8533
1013.70 11.68336
1013.80 11.59463
1013.90 11.41968
1014.00 11.3423
1014.10 11.43487
1014.20 11.48502
1014.30 11.58041
1014.40 11.71931
1014.50 11.86014
1014.60 11.76981
1014.70 11.71059
1014.80 11.6948
1014.90 11.71814
1015.00 11.65647
1015.10 11.74332
1015.20 11.91219
1015.30 12.08083
1015.40 12.04442
1015.50 12.07649
1015.60 12.06939
1015.70 11.85758
1015.80 11.62955
1015.90 11.53398
1016.00 11.52355
1016.10 11.46604
1016.20 11.5485
1016.30 11.65826
1016.40 11.75878
1016.50 11.772
1016.60 11.76634
1016.70 11.77774
1016.80 11.82671
1016.90 11.92431
1017.00 11.83577
1017.10 11.70339
1017.20 11.59858
1017.30 11.68463
1017.40 11.68657
1017.50 11.75774
1017.60 11.99279
1017.70 12.28356
1017.80 12.26333
1017.90 12.13189
1018.00 12.05347
1018.10 11.94815
1018.20 11.80497
1018.30 11.66316
1018.40 11.57591
1018.50 11.49706
1018.60 11.47438
1018.70 11.47219
1018.80 11.42691
1018.90 11.55746
1019.00 11.68914
1019.10 11.79201
1019.20 11.823
1019.30 11.89999
1019.40 11.9276
1019.50 11.89391
1019.60 11.86376
1019.70 11.86979
1019.80 11.88898
1019.90 11.90552
1020.00 11.84813
1020.10 11.79534
1020.20 11.77477
1020.30 11.80188
1020.40 11.79833
1020.50 11.8633
1020.60 11.95614
1020.70 12.04366
1020.80 12.07544
1020.90 12.12658
1021.00 12.15362
1021.10 12.108
1021.20 12.09944
1021.30 12.01276
1021.40 11.86444
1021.50 11.71572
1021.60 11.68377
1021.70 11.65854
1021.80 11.61513
1021.90 11.51453
1022.00 11.3927
1022.10 11.35619
1022.20 11.403
1022.30 11.39976
1022.40 11.54442
1022.50 11.73055
1022.60 11.89911
1022.70 11.90362
1022.80 11.94332
1022.90 11.95958
1023.00 11.92108
1023.10 11.90272
1023.20 11.85313
1023.30 11.77709
1023.40 11.69328
1023.50 11.76705
1023.60 11.80775
1023.70 11.84129
1023.80 11.89228
1023.90 11.97066
1024.00 12.02254
1024.10 12.04418
1024.20 12.05915
1024.30 12.11467
1024.40 12.21762
1024.50 12.30183
1024.60 12.21926
1024.70 12.14062
1024.80 12.07787
1024.90 12.03317
1025.00 11.98325
1025.10 11.89298
1025.20 11.80233
1025.30 11.73101
1025.40 11.71111
1025.50 11.63859
1025.60 11.62
1025.70 11.6861
1025.80 11.78299
1025.90 11.68572
1026.00 11.55535
1026.10 11.45148
1026.20 11.34565
1026.30 11.18355
1026.40 11.12878
1026.50 11.27907
1026.60 11.3581
1026.70 11.50171
1026.80 11.67876
1026.90 11.8546
1027.00 11.89262
1027.10 11.98728
1027.20 12.04664
1027.30 11.96522
1027.40 11.92516
1027.50 11.86877
1027.60 11.79273
1027.70 11.69179
1027.80 11.68592
1027.90 11.68264
1028.00 11.66261
1028.10 11.56057
1028.20 11.48975
1028.30 11.42325
1028.40 11.34889
1028.50 11.22082
1028.60 11.31119
1028.70 11.41956
1028.80 11.49723
1028.90 11.62224
1029.00 11.81544
1029.10 11.93656
1029.20 11.89751
1029.30 11.88746
1029.40 11.87173
1029.50 11.83747
1029.60 11.78916
1029.70 11.77676
1029.80 11.7851
1029.90 11.77653
1030.00 11.71098
1030.10 11.63995
1030.20 11.64461
1030.30 11.69011
1030.40 11.71234
1030.50 11.81453
1030.60 11.91487
1030.70 11.99063
1030.80 11.95595
1030.90 11.9772
1031.00 11.98894
1031.10 11.97245
1031.20 11.93266
1031.30 11.96052
1031.40 12.00592
1031.50 12.03486
1031.60 11.97766
1031.70 11.96979
1031.80 11.93652
1031.90 11.85155
1032.00 11.73612
1032.10 11.71424
1032.20 11.72624
1032.30 11.74133
1032.40 11.69538
1032.50 11.63845
1032.60 11.6229
1032.70 11.69326
1032.80 11.69196
1032.90 11.81347
1033.00 11.99876
1033.10 12.18972
1033.20 12.23629
1033.30 12.33728
1033.40 12.37036
1033.50 12.17497
1033.60 12.04696
1033.70 11.88101
1033.80 11.67145
1033.90 11.42562
1034.00 11.32053
1034.10 11.2134
1034.20 11.04199
1034.30 10.73677
1034.40 10.45909
1034.50 10.30187
1034.60 10.23952
1034.70 10.12843
1034.80 10.33038
1034.90 10.6076
1035.00 10.87639
1035.10 11.02912
1035.20 11.21957
1035.30 11.37162
1035.40 11.47378
1035.50 11.54068
1035.60 11.62621
1035.70 11.71905
1035.80 11.80294
1035.90 11.90752
1036.00 12.00791
1036.10 12.10173
1036.20 12.18138
1036.30 12.29107
1036.40 12.31663
1036.50 12.28483
1036.60 12.25841
1036.70 12.2655
1036.80 12.26618
1036.90 12.26579
1037.00 12.29514
1037.10 12.29916
1037.20 12.34154
1037.30 12.41943
1037.40 12.52286
1037.50 12.46391
1037.60 12.42256
1037.70 12.37761
1037.80 12.21154
1037.90 12.06873
1038.00 11.93526
1038.10 11.80018
1038.20 11.60882
1038.30 11.64039
1038.40 11.68935
1038.50 11.70592
1038.60 11.83409
1038.70 11.99084
1038.80 12.0762
1038.90 12.02593
1039.00 12.01496
1039.10 11.98238
1039.20 11.93912
1039.30 11.89358
1039.40 11.7807
1039.50 11.67599
1039.60 11.56061
1039.70 11.43293
1039.80 11.26833
1039.90 11.25389
1040.00 11.33112
1040.10 11.38483
1040.20 11.57096
1040.30 11.77562
1040.40 11.96325
1040.50 12.06361
1040.60 12.18716
1040.70 12.26134
1040.80 12.28806
1040.90 12.33844
1041.00 12.28759
1041.10 12.24323
1041.20 12.21224
1041.30 12.10507
1041.40 11.96446
1041.50 11.89511
1041.60 11.92986
1041.70 11.87422
1041.80 11.95394
1041.90 12.11103
1042.00 12.26937
1042.10 12.2588
1042.20 12.32732
1042.30 12.33376
1042.40 12.19511
1042.50 12.07052
1042.60 11.92699
1042.70 11.772
1042.80 11.61037
1042.90 11.5843
1043.00 11.48865
1043.10 11.46489
1043.20 11.70733
1043.30 11.89363
1043.40 12.02996
1043.50 12.15385
1043.60 12.33875
1043.70 12.35775
1043.80 12.38068
1043.90 12.40102
1044.00 12.38559
1044.10 12.35644
1044.20 12.34952
1044.30 12.36602
1044.40 12.37459
1044.50 12.31405
1044.60 12.24391
1044.70 12.19897
1044.80 12.26073
1044.90 12.28757
1045.00 12.32603
1045.10 12.3951
1045.20 12.44778
1045.30 12.53057
1045.40 12.64003
1045.50 12.76898
1045.60 12.78837
1045.70 12.85129
1045.80 12.89336
1045.90 12.84213
1046.00 12.81588
1046.10 12.74304
1046.20 12.64338
1046.30 12.52572
1046.40 12.44716
1046.50 12.35845
1046.60 12.26222
1046.70 12.14202
1046.80 12.02973
1046.90 11.91852
1047.00 11.8038
1047.10 11.66827
1047.20 11.66054
1047.30 11.64203
1047.40 11.63752
1047.50 11.74658
1047.60 11.87211
1047.70 11.94696
1047.80 11.97318
1047.90 12.02008
1048.00 12.04202
1048.10 12.04042
1048.20 12.02605
1048.30 12.10759
1048.40 12.1739
1048.50 12.21624
1048.60 12.22585
1048.70 12.27373
1048.80 12.30212
1048.90 12.31922
1049.00 12.33388
1049.10 12.35359
1049.20 12.36554
1049.30 12.34928
1049.40 12.28571
1049.50 12.27426
1049.60 12.13416
1049.70 11.90208
1049.80 11.67651
1049.90 11.72315
1050.00 11.73265
1050.10 11.78195
1050.20 11.98588
1050.30 12.20967
1050.40 12.2935
1050.50 12.28981
1050.60 12.31102
1050.70 12.29063
1050.80 12.2633
1050.90 12.2253
1051.00 12.17839
1051.10 12.16239
1051.20 12.10529
1051.30 11.99108
1051.40 11.86917
1051.50 11.8223
1051.60 11.76772
1051.70 11.70009
1051.80 11.73614
1051.90 11.78566
1052.00 11.81143
1052.10 11.79062
1052.20 11.76026
1052.30 11.79494
1052.40 11.84109
1052.50 11.86598
1052.60 12.01739
1052.70 12.17559
1052.80 12.30923
1052.90 12.37724
1053.00 12.49664
1053.10 12.49684
1053.20 12.40551
1053.30 12.30567
1053.40 12.32666
1053.50 12.34132
1053.60 12.34202
1053.70 12.31558
1053.80 12.3201
1053.90 12.31603
1054.00 12.29796
1054.10 12.26267
1054.20 12.30105
1054.30 12.33857
1054.40 12.359
1054.50 12.3046
1054.60 12.3003
1054.70 12.27609
1054.80 12.213
1054.90 12.11818
1055.00 12.17111
1055.10 12.22944
1055.20 12.25914
1055.30 12.25549
1055.40 12.30083
1055.50 12.30472
1055.60 12.22292
1055.70 12.17407
1055.80 12.08654
1055.90 11.97539
1056.00 11.85881
1056.10 11.86641
1056.20 11.84705
1056.30 11.82301
1056.40 11.81879
1056.50 11.79708
1056.60 11.82522
1056.70 11.89181
1056.80 11.96746
1056.90 11.95996
1057.00 11.94673
1057.10 11.95243
1057.20 11.9974
1057.30 12.02382
1057.40 12.05792
1057.50 12.10487
1057.60 12.15568
1057.70 12.16499
1057.80 12.18109
1057.90 12.20751
1058.00 12.24215
1058.10 12.26875
1058.20 12.24893
1058.30 12.19425
1058.40 12.17296
1058.50 12.02091
1058.60 11.83697
1058.70 11.68985
1058.80 11.71616
1058.90 11.70433
1059.00 11.73206
1059.10 11.83504
1059.20 11.93924
1059.30 12.01742
1059.40 12.07411
1059.50 12.11642
1059.60 12.15951
1059.70 12.22047
1059.80 12.25348
1059.90 12.19497
1060.00 12.16525
1060.10 12.14221
1060.20 12.11413
1060.30 12.0766
1060.40 12.05949
1060.50 12.05179
1060.60 12.01644
1060.70 11.91612
1060.80 11.81777
1060.90 11.7776
1061.00 11.76267
1061.10 11.71568
1061.20 11.77541
1061.30 11.83913
1061.40 11.90341
1061.50 11.99236
1061.60 12.10822
1061.70 12.12772
1061.80 12.04873
1061.90 11.99799
1062.00 11.97348
1062.10 11.95133
1062.20 11.92209
1062.30 11.92364
1062.40 11.89942
1062.50 11.9206
1062.60 12.02774
1062.70 12.10962
1062.80 12.19508
1062.90 12.29473
1063.00 12.41079
1063.10 12.36316
1063.20 12.34418
1063.30 12.33608
1063.40 12.31786
1063.50 12.27671
1063.60 12.27177
1063.70 12.27779
1063.80 12.27086
1063.90 12.30521
1064.00 12.33678
1064.10 12.36249
1064.20 12.37143
1064.30 12.40955
1064.40 12.43149
1064.50 12.43694
1064.60 12.43701
1064.70 12.41117
1064.80 12.38315
1064.90 12.35635
1065.00 12.3467
1065.10 12.34178
1065.20 12.29945
1065.30 12.2238
1065.40 12.17961
1065.50 12.13285
1065.60 12.06167
1065.70 11.98016
1065.80 12.00119
1065.90 12.0183
1066.00 11.98465
1066.10 11.89065
1066.20 11.84198
1066.30 11.73749
1066.40 11.59731
1066.50 11.46707
1066.60 11.56306
1066.70 11.63349
1066.80 11.68706
1066.90 11.72032
1067.00 11.78034
1067.10 11.80185
1067.20 11.78781
1067.30 11.74198
1067.40 11.83431
1067.50 11.92505
1067.60 11.9862
1067.70 11.98576
1067.80 12.01644
1067.90 12.05932
1068.00 12.10365
1068.10 12.14161
1068.20 12.24207
1068.30 12.33166
1068.40 12.42677
1068.50 12.53821
1068.60 12.66735
1068.70 12.71762
1068.80 12.70064
1068.90 12.70434
1069.00 12.66792
1069.10 12.61415
1069.20 12.56562
1069.30 12.55351
1069.40 12.56647
1069.50 12.52444
1069.60 12.42212
1069.70 12.30781
1069.80 12.28248
1069.90 12.25667
1070.00 12.21917
1070.10 12.20392
1070.20 12.21229
1070.30 12.2083
1070.40 12.16285
1070.50 12.08036
1070.60 12.0901
1070.70 12.13563
1070.80 12.17788
1070.90 12.17031
1071.00 12.19905
1071.10 12.23694
1071.20 12.26154
1071.30 12.24479
1071.40 12.25504
1071.50 12.29123
1071.60 12.33662
1071.70 12.30833
1071.80 12.29002
1071.90 12.28256
1072.00 12.2844
1072.10 12.2805
1072.20 12.2478
1072.30 12.20817
1072.40 12.19217
1072.50 12.07714
1072.60 11.93111
1072.70 11.80049
1072.80 11.79415
1072.90 11.74978
1073.00 11.7876
1073.10 11.91073
1073.20 12.05749
1073.30 12.03499
1073.40 11.98708
1073.50 11.94708
1073.60 11.95756
1073.70 11.9237
1073.80 11.95216
1073.90 12.08471
1074.00 12.21501
1074.10 12.24883
1074.20 12.24904
1074.30 12.26275
1074.40 12.25571
1074.50 12.27435
1074.60 12.26739
1074.70 12.20763
1074.80 12.13684
1074.90 12.10937
1075.00 12.10663
1075.10 12.10123
1075.20 12.11751
1075.30 12.13051
1075.40 12.1294
1075.50 12.09279
1075.60 12.03317
1075.70 12.06078
1075.80 12.14659
1075.90 12.22027
1076.00 12.22658
1076.10 12.26064
1076.20 12.30372
1076.30 12.30625
1076.40 12.30441
1076.50 12.31534
1076.60 12.34155
1076.70 12.36062
1076.80 12.36126
1076.90 12.35171
1077.00 12.3424
1077.10 12.31775
1077.20 12.30987
1077.30 12.26588
1077.40 12.18366
1077.50 12.11281
1077.60 12.05463
1077.70 11.98174
1077.80 11.91541
1077.90 11.99398
1078.00 12.05132
1078.10 12.08766
1078.20 12.10409
1078.30 12.14424
1078.40 12.16817
1078.50 12.17855
1078.60 12.18774
1078.70 12.16602
1078.80 12.17051
1078.90 12.16474
1079.00 12.10841
1079.10 12.04656
1079.20 12.00426
1079.30 11.97579
1079.40 11.94358
1079.50 11.97949
1079.60 11.99272
1079.70 12.00199
1079.80 12.04462
1079.90 12.0967
1080.00 12.11356
1080.10 12.10758
1080.20 12.10363
1080.30 12.14529
1080.40 12.19478
1080.50 12.24497
1080.60 12.28998
1080.70 12.32085
1080.80 12.32139
1080.90 12.29554
1081.00 12.28899
1081.10 12.27757
1081.20 12.26418
1081.30 12.24989
1081.40 12.26335
1081.50 12.26845
1081.60 12.27512
1081.70 12.28363
1081.80 12.30115
1081.90 12.30288
1082.00 12.31578
1082.10 12.34684
1082.20 12.25716
1082.30 12.16994
1082.40 12.10898
1082.50 12.09195
1082.60 12.04944
1082.70 12.11814
1082.80 12.22634
1082.90 12.32551
1083.00 12.49195
1083.10 12.65905
1083.20 12.75677
1083.30 12.69498
1083.40 12.65843
1083.50 12.51626
1083.60 12.30655
1083.70 12.09749
1083.80 12.06752
1083.90 12.03385
1084.00 12.00926
1084.10 12.08341
1084.20 12.17297
1084.30 12.19372
1084.40 12.14383
1084.50 12.11024
1084.60 12.06954
1084.70 12.03212
1084.80 12.00503
1084.90 12.03631
1085.00 12.02493
1085.10 12.04541
1085.20 12.11506
1085.30 12.21568
1085.40 12.20441
1085.50 12.15889
1085.60 12.11434
1085.70 12.17101
1085.80 12.20914
1085.90 12.24956
1086.00 12.29668
1086.10 12.35129
1086.20 12.37478
1086.30 12.39705
1086.40 12.42938
1086.50 12.39877
1086.60 12.38877
1086.70 12.38352
1086.80 12.36759
1086.90 12.32033
1087.00 12.33531
1087.10 12.39127
1087.20 12.44485
1087.30 12.38086
1087.40 12.35218
1087.50 12.32115
1087.60 12.25008
1087.70 12.14831
1087.80 12.12606
1087.90 12.15953
1088.00 12.18909
1088.10 12.18006
1088.20 12.18485
1088.30 12.19289
1088.40 12.18677
1088.50 12.16096
1088.60 12.15651
1088.70 12.18858
1088.80 12.23833
1088.90 12.25779
1089.00 12.26346
1089.10 12.25576
1089.20 12.22956
1089.30 12.21247
1089.40 12.17619
1089.50 12.11806
1089.60 12.04583
1089.70 12.08145
1089.80 12.12482
1089.90 12.15526
1090.00 12.19102
1090.10 12.25494
1090.20 12.29607
1090.30 12.28936
1090.40 12.28426
1090.50 12.24822
1090.60 12.20725
1090.70 12.18008
1090.80 12.12807
1090.90 12.08216
1091.00 12.04414
1091.10 12.01251
1091.20 11.95204
1091.30 11.96742
1091.40 12.02301
1091.50 12.05107
1091.60 12.14782
1091.70 12.26315
1091.80 12.34141
1091.90 12.29158
1092.00 12.25635
1092.10 12.25644
1092.20 12.27576
1092.30 12.29173
1092.40 12.26601
1092.50 12.23897
1092.60 12.22194
1092.70 12.21521
1092.80 12.20334
1092.90 12.19027
1093.00 12.18326
1093.10 12.18718
1093.20 12.18785
1093.30 12.18404
1093.40 12.18246
1093.50 12.22896
1093.60 12.27576
1093.70 12.32827
1093.80 12.38843
1093.90 12.42841
1094.00 12.53944
1094.10 12.66613
1094.20 12.7628
1094.30 12.64504
1094.40 12.58648
1094.50 12.51862
1094.60 12.40069
1094.70 12.23052
1094.80 12.17266
1094.90 12.14008
1095.00 12.08573
1095.10 12.15464
1095.20 12.22696
1095.30 12.27758
1095.40 12.27723
1095.50 12.32308
1095.60 12.32943
1095.70 12.31333
1095.80 12.30032
1095.90 12.27149
1096.00 12.21843
1096.10 12.17445
1096.20 12.20571
1096.30 12.24441
1096.40 12.26531
1096.50 12.27805
1096.60 12.30738
1096.70 12.1912
1096.80 12.07873
1096.90 11.99798
1097.00 11.97638
1097.10 11.93224
1097.20 11.91414
1097.30 11.91529
1097.40 11.87221
1097.50 11.89631
1097.60 11.94738
1097.70 12.00196
1097.80 12.00978
1097.90 12.01829
1098.00 12.04243
1098.10 12.09406
1098.20 12.17345
1098.30 12.16371
1098.40 12.11434
1098.50 12.0678
1098.60 12.06019
1098.70 12.04912
1098.80 12.03687
1098.90 12.03293
1099.00 12.01262
1099.10 12.04265
1099.20 12.08464
1099.30 12.11014
1099.40 12.1033
1099.50 12.1174
1099.60 12.13927
1099.70 12.14276
1099.80 12.15416
1099.90 12.14351
1100.00 12.12139
1100.10 12.10282
1100.20 12.08233
1100.30 12.06864
1100.40 12.05623
1100.50 12.02293
1100.60 11.96459
1100.70 11.95057
1100.80 11.97014
1100.90 11.97184
1101.00 12.0024
1101.10 12.05611
1101.20 12.12304
1101.30 12.16336
1101.40 12.16805
1101.50 12.13745
1101.60 12.09625
1101.70 12.10371
1101.80 12.0321
1101.90 11.95516
1102.00 11.90004
1102.10 11.86793
1102.20 11.81925
1102.30 11.79788
1102.40 11.82
1102.50 11.76272
1102.60 11.83682
1102.70 11.94996
1102.80 12.04452
1102.90 12.04965
1103.00 12.09979
1103.10 12.10355
1103.20 12.011
1103.30 11.98456
1103.40 11.91606
1103.50 11.81445
1103.60 11.69409
1103.70 11.74642
1103.80 11.74256
1103.90 11.72957
1104.00 11.75237
1104.10 11.79794
1104.20 11.78594
1104.30 11.74976
1104.40 11.7311
1104.50 11.74401
1104.60 11.73962
1104.70 11.74542
1104.80 11.82582
1104.90 11.92065
1105.00 11.91947
1105.10 11.87235
1105.20 11.86239
1105.30 11.78635
1105.40 11.67926
1105.50 11.58912
1105.60 11.58094
1105.70 11.54279
1105.80 11.54686
1105.90 11.60452
1106.00 11.6538
1106.10 11.65647
1106.20 11.66149
1106.30 11.66916
1106.40 11.63146
1106.50 11.58497
1106.60 11.55844
1106.70 11.56155
1106.80 11.60204
1106.90 11.58044
1107.00 11.53015
1107.10 11.47349
1107.20 11.53911
1107.30 11.57664
1107.40 11.61076
1107.50 11.65146
1107.60 11.7171
1107.70 11.75856
1107.80 11.78225
1107.90 11.7969
1108.00 11.75952
1108.10 11.72046
1108.20 11.71658
1108.30 11.78885
1108.40 11.86757
1108.50 11.90532
1108.60 11.91991
1108.70 11.93562
1108.80 11.91965
1108.90 11.91003
1109.00 11.897
1109.10 11.86483
1109.20 11.82753
1109.30 11.82663
1109.40 11.85385
1109.50 11.87473
1109.60 11.89701
1109.70 11.92199
1109.80 11.93807
1109.90 11.92181
1110.00 11.93296
1110.10 11.92417
1110.20 11.88832
1110.30 11.86708
1110.40 11.8038
1110.50 11.71751
1110.60 11.62853
1110.70 11.66024
1110.80 11.66171
1110.90 11.65336
1111.00 11.63601
1111.10 11.64829
1111.20 11.62889
1111.30 11.59764
1111.40 11.57075
1111.50 11.52777
1111.60 11.47569
1111.70 11.46968
1111.80 11.54395
1111.90 11.61556
1112.00 11.60274
1112.10 11.55593
1112.20 11.50847
1112.30 11.50018
1112.40 11.47738
1112.50 11.49965
1112.60 11.62456
1112.70 11.73892
1112.80 11.80289
1112.90 11.84098
1113.00 11.88815
1113.10 11.81651
1113.20 11.74744
1113.30 11.71814
1113.40 11.76265
1113.50 11.8205
1113.60 11.82111
1113.70 11.77771
1113.80 11.74237
1113.90 11.72126
1114.00 11.67411
1114.10 11.64552
1114.20 11.74317
1114.30 11.82197
1114.40 11.89413
1114.50 11.96844
1114.60 12.06319
1114.70 12.12472
1114.80 12.19683
1114.90 12.24669
1115.00 12.03667
1115.10 11.81196
1115.20 11.67176
1115.30 11.64886
1115.40 11.62403
1115.50 11.65619
1115.60 11.71587
1115.70 11.79451
1115.80 11.84144
1115.90 11.87069
1116.00 11.88625
1116.10 11.89742
1116.20 11.89197
1116.30 11.87166
1116.40 11.85146
1116.50 11.85842
1116.60 11.60717
1116.70 11.34574
1116.80 11.20509
1116.90 11.34419
1117.00 11.5013
1117.10 11.55546
1117.20 11.54896
1117.30 11.54692
1117.40 11.45526
1117.50 11.34006
1117.60 11.28869
1117.70 11.3908
1117.80 11.48574
1117.90 11.61993
1118.00 11.68389
1118.10 11.73817
1118.20 11.78198
1118.30 11.78493
1118.40 11.78979
1118.50 11.81077
1118.60 11.86667
1118.70 11.9262
1118.80 11.99977
1118.90 12.00632
1119.00 11.84814
1119.10 11.69147
1119.20 11.54935
1119.30 11.46604
1119.40 11.37836
1119.50 11.28258
1119.60 11.38737
1119.70 11.53976
1119.80 11.68063
1119.90 11.75361
1120.00 11.78051
1120.10 11.81679
1120.20 11.81221
1120.30 11.70491
1120.40 11.59403
1120.50 11.51483
1120.60 11.60821
1120.70 11.70869
1120.80 11.80456
1120.90 11.85256
1121.00 11.89791
1121.10 11.94451
1121.20 11.91124
1121.30 11.81423
1121.40 11.71308
1121.50 11.65839
1121.60 11.7143
1121.70 11.77932
1121.80 11.84427
1121.90 11.83058
1122.00 11.80555
1122.10 11.7749
1122.20 11.69204
1122.30 11.58887
1122.40 11.48889
1122.50 11.39625
1122.60 11.27924
1122.70 11.15112
1122.80 11.14675
1122.90 11.43924
1123.00 11.75597
1123.10 12.06855
1123.20 12.10655
1123.30 12.16616
1123.40 12.23677
1123.50 12.03628
1123.60 11.73897
1123.70 11.40323
1123.80 11.31133
1123.90 11.44183
1124.00 11.57052
1124.10 11.67575
1124.20 11.75694
1124.30 11.84808
1124.40 11.94536
1124.50 11.89788
1124.60 11.8556
1124.70 11.82627
1124.80 11.86186
1124.90 11.9389
1125.00 12.02145
1125.10 12.06134
1125.20 12.03894
1125.30 11.99574
1125.40 11.87932
1125.50 11.40686
1125.60 10.9231
1125.70 10.45027
1125.80 10.87765
1125.90 11.31366
1126.00 11.75438
1126.10 11.81007
1126.20 11.70457
1126.30 11.59909
1126.40 11.55329
1126.50 11.5627
1126.60 11.56258
1126.70 11.57658
1126.80 11.66642
1126.90 11.76227
1127.00 11.85911
1127.10 11.86552
1127.20 11.87536
1127.30 11.89616
1127.40 11.81722
1127.50 11.69756
1127.60 11.5761
1127.70 11.48872
1127.80 11.43187
1127.90 11.36102
1128.00 11.32298
1128.10 11.41941
1128.20 11.51697
1128.30 11.61694
1128.40 11.64735
1128.50 11.67767
1128.60 11.71109
1128.70 11.74749
1128.80 11.79213
1128.90 11.84582
1129.00 11.86625
1129.10 11.85588
1129.20 11.84489
1129.30 11.82979
1129.40 11.82138
1129.50 11.79698
1129.60 11.76736
1129.70 11.68188
1129.80 11.58946
1129.90 11.50558
1130.00 11.46746
1130.10 11.46662
1130.20 11.50776
1130.30 11.53045
1130.40 11.53979
1130.50 11.54156
1130.60 11.54275
1130.70 11.55064
1130.80 11.53727
1130.90 11.51038
1131.00 11.53164
1131.10 11.54901
1131.20 11.56122
1131.30 11.55471
1131.40 11.54047
1131.50 11.5382
1131.60 11.5554
1131.70 11.60028
1131.80 11.65077
1131.90 11.69947
1132.00 11.73772
1132.10 11.78224
1132.20 11.82936
1132.30 11.77932
1132.40 11.71671
1132.50 11.65027
1132.60 11.62537
1132.70 11.62097
1132.80 11.61342
1132.90 11.64424
1133.00 11.73507
1133.10 11.83578
1133.20 11.89501
1133.30 11.779
1133.40 11.66136
1133.50 11.54534
1133.60 11.51431
1133.70 11.49578
1133.80 11.47712
1133.90 11.48089
1134.00 11.49448
1134.10 11.50545
1134.20 11.52492
1134.30 11.54555
1134.40 11.55873
1134.50 11.56956
1134.60 11.56898
1134.70 11.54778
1134.80 11.5446
1134.90 11.30337
1135.00 11.04331
1135.10 10.79934
1135.20 10.9752
1135.30 11.35398
1135.40 11.74183
1135.50 11.95306
1135.60 11.91952
1135.70 11.88072
1135.80 11.81488
1135.90 11.64031
1136.00 11.43655
1136.10 11.24269
1136.20 11.22576
1136.30 11.24004
1136.40 11.26519
1136.50 11.30982
1136.60 11.39047
1136.70 11.47777
1136.80 11.50766
1136.90 11.45191
1137.00 11.3916
1137.10 11.34006
1137.20 11.36533
1137.30 11.40146
1137.40 11.44384
1137.50 11.21216
1137.60 10.95939
1137.70 10.73557
1137.80 10.48255
1137.90 10.24552
1138.00 10.04627
1138.10 9.774282
1138.20 9.418535
1138.30 8.987896
1138.40 8.645245
1138.50 8.859155
1138.60 8.961163
1138.70 9.01702
1138.80 9.46609
1138.90 9.971644
1139.00 10.51541
1139.10 10.75755
1139.20 10.83528
1139.30 10.97354
1139.40 11.04805
1139.50 11.05148
1139.60 11.07882
1139.70 11.07682
1139.80 10.79667
1139.90 10.54576
1140.00 10.30401
1140.10 9.871475
1140.20 9.457327
1140.30 9.071108
1140.40 8.654735
1140.50 8.223117
1140.60 7.694153
1140.70 7.523236
1140.80 7.781126
1140.90 7.888653
1141.00 8.052283
1141.10 8.729691
1141.20 9.435961
1141.30 10.13285
1141.40 10.36142
1141.50 10.55505
1141.60 10.78195
1141.70 10.93935
1141.80 11.08196
1141.90 11.25006
1142.00 11.30612
1142.10 11.20337
1142.20 11.11588
1142.30 11.03846
1142.40 11.0277
1142.50 11.01112
1142.60 10.99253
1142.70 11.06611
1142.80 11.1465
1142.90 11.23099
1143.00 11.29432
1143.10 11.35376
1143.20 11.42047
1143.30 11.48354
1143.40 11.5402
1143.50 11.59553
1143.60 11.63573
1143.70 11.54498
1143.80 11.47063
1143.90 11.40486
1144.00 11.26595
1144.10 11.1024
1144.20 10.92566
1144.30 10.85975
1144.40 10.86863
1144.50 10.87524
1144.60 10.91666
1144.70 11.01926
1144.80 11.11608
1144.90 11.20304
1145.00 11.23827
1145.10 11.27612
1145.20 11.32321
1145.30 11.34824
1145.40 11.37668
1145.50 11.4044
1145.60 11.39256
1145.70 11.35503
1145.80 11.31584
1145.90 11.32847
1146.00 11.41343
1146.10 11.48776
1146.20 11.54879
1146.30 11.5522
1146.40 11.55638
1146.50 11.5662
1146.60 11.49495
1146.70 11.41616
1146.80 11.35869
1146.90 11.36669
1147.00 11.43434
1147.10 11.50585
1147.20 11.48778
1147.30 11.3339
1147.40 11.15902
1147.50 11.0251
1147.60 11.24388
1147.70 11.45927
1147.80 11.66706
1147.90 11.66122
1148.00 11.63755
1148.10 11.62068
1148.20 11.63441
1148.30 11.66708
1148.40 11.72236
1148.50 11.71572
1148.60 11.60892
1148.70 11.47057
1148.80 11.35925
1148.90 11.36801
1149.00 11.37716
1149.10 11.38498
1149.20 11.50386
1149.30 11.65657
1149.40 11.81932
1149.50 11.78255
1149.60 11.64778
1149.70 11.50414
1149.80 11.36218
1149.90 11.20874
1150.00 11.0622
1150.10 10.97635
1150.20 11.15305
1150.30 11.33241
1150.40 11.50641
1150.50 11.55263
1150.60 11.57441
1150.70 11.58762
1150.80 11.58313
1150.90 11.56789
1151.00 11.56197
1151.10 11.52987
1151.20 11.46338
1151.30 11.40313
1151.40 11.37123
1151.50 11.44708
1151.60 11.5231
1151.70 11.59417
1151.80 11.57702
1151.90 11.54376
1152.00 11.51198
1152.10 11.50954
1152.20 11.52815
1152.30 11.56352
1152.40 11.5367
1152.50 11.42632
1152.60 11.30535
1152.70 11.2176
1152.80 11.23459
1152.90 11.24508
1153.00 11.24608
1153.10 11.33694
1153.20 11.44486
1153.30 11.55306
1153.40 11.55968
1153.50 11.52063
1153.60 11.46994
1153.70 11.43896
1153.80 11.42791
1153.90 11.41138
1154.00 11.38643
1154.10 11.33118
1154.20 11.28751
1154.30 11.25343
1154.40 11.27658
1154.50 11.32036
1154.60 11.37967
1154.70 11.41304
1154.80 11.43924
1154.90 11.44135
1155.00 11.45524
1155.10 11.47377
1155.20 11.47814
1155.30 11.47924
1155.40 11.49883
1155.50 11.52037
1155.60 11.54547
1155.70 11.47959
1155.80 11.4148
1155.90 11.36299
1156.00 11.39978
1156.10 11.4862
1156.20 11.56827
1156.30 11.58153
1156.40 11.52277
1156.50 11.46143
1156.60 11.41754
1156.70 11.4458
1156.80 11.48738
1156.90 11.53422
1157.00 11.51927
1157.10 11.501
1157.20 11.47445
1157.30 11.48414
1157.40 11.49971
1157.50 11.5127
1157.60 11.47972
1157.70 11.40212
1157.80 11.32392
1157.90 11.27568
1158.00 11.33371
1158.10 11.39004
1158.20 11.44457
1158.30 11.46924
1158.40 11.50054
1158.50 11.53376
1158.60 11.50554
1158.70 11.45439
1158.80 11.4109
1158.90 11.35353
1159.00 11.2834
1159.10 11.23161
1159.20 11.18411
1159.30 11.15603
1159.40 11.12909
1159.50 11.10018
1159.60 11.07587
1159.70 11.02597
1159.80 10.95142
1159.90 10.99815
1160.00 11.06198
1160.10 11.11877
1160.20 11.1528
1160.30 11.1666
1160.40 11.20041
1160.50 11.17139
1160.60 11.00246
1160.70 10.87847
1160.80 10.76591
1160.90 10.62723
1161.00 10.47011
1161.10 10.2795
1161.20 10.3776
1161.30 10.51296
1161.40 10.60899
1161.50 10.74738
1161.60 10.92278
1161.70 11.13959
1161.80 11.298
1161.90 11.33766
1162.00 11.40014
1162.10 11.46929
1162.20 11.40698
1162.30 11.33617
1162.40 11.25682
1162.50 11.26639
1162.60 11.28843
1162.70 11.30291
1162.80 11.34533
1162.90 11.41481
1163.00 11.48521
1163.10 11.53171
1163.20 11.52737
1163.30 11.53772
1163.40 11.53503
1163.50 11.41736
1163.60 11.32082
1163.70 11.24488
1163.80 11.06448
1163.90 10.85757
1164.00 10.6311
1164.10 10.61513
1164.20 10.71508
1164.30 10.75139
1164.40 10.82956
1164.50 10.99609
1164.60 11.18283
1164.70 11.35468
1164.80 11.35715
1164.90 11.3748
1165.00 11.40147
1165.10 11.37666
1165.20 11.34921
1165.30 11.3237
1165.40 11.29812
1165.50 11.27513
1165.60 11.24248
1165.70 11.23242
1165.80 11.25513
1165.90 11.263
1166.00 11.27818
1166.10 11.34318
1166.20 11.40904
1166.30 11.4705
1166.40 11.48756
1166.50 11.51065
1166.60 11.54163
1166.70 11.51255
1166.80 11.44658
1166.90 11.39674
1167.00 11.37176
1167.10 11.38554
1167.20 11.39575
1167.30 11.40535
1167.40 11.39323
1167.50 11.37985
1167.60 11.36194
1167.70 11.35441
1167.80 11.34647
1167.90 11.33431
1168.00 11.32311
1168.10 11.31361
1168.20 11.32034
1168.30 11.30769
1168.40 11.27219
1168.50 11.26348
1168.60 11.23982
1168.70 11.06949
1168.80 10.95717
1168.90 10.88185
1169.00 10.49061
1169.10 10.06122
1169.20 9.574479
1169.30 9.544375
1169.40 9.636662
1169.50 9.549384
1169.60 9.660431
1169.70 10.02765
1169.80 10.41374
1169.90 10.73929
1170.00 10.86426
1170.10 11.03655
1170.20 11.23394
1170.30 11.27427
1170.40 11.31682
1170.50 11.37833
1170.60 11.3799
1170.70 11.36528
1170.80 11.36435
1170.90 11.35022
1171.00 11.3266
1171.10 11.30336
1171.20 11.28966
1171.30 11.31128
1171.40 11.33061
1171.50 11.34997
1171.60 11.34563
1171.70 11.35027
1171.80 11.36699
1171.90 11.34791
1172.00 11.31192
1172.10 11.26808
1172.20 11.25394
1172.30 11.26508
1172.40 11.26866
1172.50 11.27467
1172.60 11.29563
1172.70 11.31032
1172.80 11.31503
1172.90 11.30825
1173.00 11.3024
1173.10 11.30344
1173.20 11.31402
1173.30 11.33807
1173.40 11.37809
1173.50 11.37813
1173.60 11.34244
1173.70 11.30402
1173.80 11.27263
1173.90 11.24043
1174.00 11.19723
1174.10 11.15256
1174.20 11.19358
1174.30 11.23284
1174.40 11.26677
1174.50 11.30165
1174.60 11.34147
1174.70 11.39246
1174.80 11.41491
1174.90 11.41741
1175.00 11.43074
1175.10 11.42905
1175.20 11.38808
1175.30 11.34295
1175.40 11.30079
1175.50 11.33865
1175.60 11.36774
1175.70 11.38642
1175.80 11.37955
1175.90 11.37493
1176.00 11.38319
1176.10 11.36496
1176.20 11.33615
1176.30 11.31626
1176.40 11.30005
1176.50 11.27866
1176.60 11.29251
1176.70 11.27793
1176.80 10.98186
1176.90 10.75244
1177.00 10.56348
1177.10 10.12269
1177.20 9.629172
1177.30 9.079265
1177.40 8.858658
1177.50 8.805304
1177.60 8.544883
1177.70 8.603629
1177.80 9.095654
1177.90 9.543162
1178.00 9.941413
1178.10 10.12536
1178.20 10.36461
1178.30 10.64375
1178.40 10.64624
1178.50 10.63931
1178.60 10.65383
1178.70 10.71984
1178.80 10.82705
1178.90 10.93849
1179.00 11.03218
1179.10 11.10489
1179.20 11.19861
1179.30 11.27616
1179.40 11.20425
1179.50 11.13913
1179.60 11.07813
1179.70 11.0355
1179.80 10.99112
1179.90 10.93907
1180.00 10.97387
1180.10 11.04158
1180.20 11.10165
1180.30 11.15555
1180.40 11.19537
1180.50 11.24541
1180.60 11.28196
1180.70 11.26471
1180.80 11.25576
1180.90 11.24811
1181.00 11.23661
1181.10 11.22388
1181.20 11.20981
1181.30 11.22421
1181.40 11.24994
1181.50 11.27617
1181.60 11.27735
1181.70 11.24964
1181.80 11.21229
1181.90 11.17789
1182.00 11.1586
1182.10 11.13728
1182.20 11.10967
1182.30 11.1025
1182.40 11.11061
1182.50 11.13007
1182.60 11.02615
1182.70 10.8815
1182.80 10.74969
1182.90 10.64252
1183.00 10.55469
1183.10 10.42884
1183.20 10.392
1183.30 10.52828
1183.40 10.65858
1183.50 10.79121
1183.60 10.8447
1183.70 10.91332
1183.80 10.98365
1183.90 11.04637
1184.00 11.09859
1184.10 11.1218
1184.20 11.17171
1184.30 11.23611
1184.40 11.31779
1184.50 11.35441
1184.60 11.29485
1184.70 11.26183
1184.80 11.23176
1184.90 11.15507
1185.00 11.07352
1185.10 10.98237
1185.20 11.00754
1185.30 11.05188
1185.40 11.07783
1185.50 11.10927
1185.60 11.13719
1185.70 11.17645
1185.80 11.20302
1185.90 11.20125
1186.00 11.19943
1186.10 11.19837
1186.20 11.21488
1186.30 11.23119
1186.40 11.25045
1186.50 11.2268
1186.60 11.20054
1186.70 11.18449
1186.80 11.16057
1186.90 11.13606
1187.00 11.10196
1187.10 11.09253
1187.20 11.11431
1187.30 11.125
1187.40 11.13089
1187.50 11.11954
1187.60 11.11324
1187.70 11.11227
1187.80 11.06747
1187.90 11.03721
1188.00 11.03159
1188.10 10.80479
1188.20 10.49951
1188.30 10.23516
1188.40 9.990863
1188.50 9.782944
1188.60 9.488571
1188.70 9.325563
1188.80 9.643994
1188.90 9.914146
1189.00 10.15063
1189.10 10.33334
1189.20 10.53426
1189.30 10.78729
1189.40 10.86611
1189.50 10.88411
1189.60 10.9032
1189.70 10.95926
1189.80 11.05338
1189.90 11.14842
1190.00 11.21716
1190.10 11.19516
1190.20 11.18637
1190.30 11.18269
1190.40 11.14859
1190.50 11.11611
1190.60 11.08704
1190.70 11.07925
1190.80 11.07636
1190.90 11.04673
1191.00 11.0422
1191.10 11.05301
1191.20 11.06879
1191.30 11.08351
1191.40 11.09478
1191.50 11.11184
1191.60 11.13242
1191.70 11.14431
1191.80 11.15682
1191.90 11.16673
1192.00 11.18091
1192.10 11.19286
1192.20 11.21204
1192.30 11.20781
1192.40 11.18727
1192.50 11.16928
1192.60 11.16086
1192.70 11.16954
1192.80 11.16643
1192.90 11.16056
1193.00 11.17319
1193.10 11.18611
1193.20 11.19992
1193.30 11.1672
1193.40 11.12854
1193.50 11.10834
1193.60 11.05895
1193.70 10.99958
1193.80 10.94766
1193.90 10.91516
1194.00 10.92226
1194.10 10.91194
1194.20 10.89866
1194.30 10.89553
1194.40 10.89072
1194.50 10.88606
1194.60 10.8717
1194.70 10.86931
1194.80 10.88453
1194.90 10.83961
1195.00 10.76088
1195.10 10.65274
1195.20 10.61838
1195.30 10.67268
1195.40 10.69688
1195.50 10.71998
1195.60 10.74359
1195.70 10.78808
1195.80 10.85101
1195.90 10.83819
1196.00 10.83541
1196.10 10.83845
1196.20 10.83374
1196.30 10.82409
1196.40 10.8015
1196.50 10.78844
1196.60 10.78442
1196.70 10.77443
1196.80 10.75198
1196.90 10.69942
1197.00 10.68269
1197.10 10.67496
1197.20 10.39543
1197.30 10.13337
1197.40 9.883216
1197.50 9.742341
1197.60 9.631595
1197.70 9.426187
1197.80 9.46137
1197.90 9.695851
1198.00 9.915734
1198.10 10.10198
1198.20 10.22764
1198.30 10.36729
1198.40 10.50367
1198.50 10.55026
1198.60 10.59785
1198.70 10.65604
1198.80 10.62001
1198.90 10.58142
1199.00 10.58506
1199.10 10.57657
1199.20 10.56635
1199.30 10.53929
1199.40 10.53023
1199.50 10.55293
1199.60 10.55711
1199.70 10.55465
1199.80 10.56626
1199.90 10.57879
1200.00 10.59515
