# Version 2.1 - nm, norm@500 to 1, cut digits
# Wavelength(nm)  Flambda(ergs/cm^s/s/nm)
300.00 0.009593586
300.10 0.0127512
300.20 0.01467449
300.30 0.01547018
300.40 0.01567889
300.50 0.01574023
300.60 0.01580132
300.70 0.01586285
300.80 0.01592741
300.90 0.01599988
301.00 0.01608557
301.10 0.01618687
301.20 0.01630142
301.30 0.01642392
301.40 0.01654956
301.50 0.01667584
301.60 0.01680211
301.70 0.01692839
301.80 0.01705466
301.90 0.01718094
302.00 0.01730722
302.10 0.01743349
302.20 0.01755977
302.30 0.01768605
302.40 0.01781233
302.50 0.0179386
302.60 0.01806489
302.70 0.01819165
302.80 0.01832079
302.90 0.01845597
303.00 0.01860121
303.10 0.0187583
303.20 0.01892545
303.30 0.01909864
303.40 0.01927421
303.50 0.01945026
303.60 0.01962631
303.70 0.01980236
303.80 0.01997841
303.90 0.02015446
304.00 0.02033052
304.10 0.02050657
304.20 0.02068262
304.30 0.02085868
304.40 0.02103473
304.50 0.02121077
304.60 0.02138681
304.70 0.02156139
304.80 0.02172868
304.90 0.0218775
305.00 0.02199555
305.10 0.02207736
305.20 0.02212841
305.30 0.02216098
305.40 0.02218627
305.50 0.02221009
305.60 0.02223391
305.70 0.02225772
305.80 0.02228154
305.90 0.02230535
306.00 0.02232916
306.10 0.02235297
306.20 0.02237678
306.30 0.02240059
306.40 0.0224244
306.50 0.02244821
306.60 0.02247202
306.70 0.02249584
306.80 0.02251967
306.90 0.02254354
307.00 0.02256747
307.10 0.02259149
307.20 0.02261557
307.30 0.02263969
307.40 0.02266383
307.50 0.02268797
307.60 0.02271212
307.70 0.02273626
307.80 0.0227604
307.90 0.02278454
308.00 0.02280868
308.10 0.02283282
308.20 0.02285696
308.30 0.02288111
308.40 0.02290526
308.50 0.02292941
308.60 0.02295359
308.70 0.02298143
308.80 0.02302749
308.90 0.0231198
309.00 0.02328912
309.10 0.02354911
309.20 0.02388611
309.30 0.02426935
309.40 0.02467081
309.50 0.02507595
309.60 0.0254811
309.70 0.02588626
309.80 0.02629142
309.90 0.02669659
310.00 0.02710175
310.10 0.02750692
310.20 0.02791208
310.30 0.02831724
310.40 0.0287224
310.50 0.02912755
310.60 0.02953269
310.70 0.02993413
310.80 0.03031726
310.90 0.0306539
311.00 0.03091313
311.10 0.0310812
311.20 0.03117186
311.30 0.03121603
311.40 0.03124189
311.50 0.03126405
311.60 0.0312862
311.70 0.03130834
311.80 0.03133048
311.90 0.03135261
312.00 0.03137475
312.10 0.03139688
312.20 0.03141902
312.30 0.03144115
312.40 0.0314633
312.50 0.03148545
312.60 0.03150762
312.70 0.03153435
312.80 0.03158371
312.90 0.03169047
313.00 0.03189285
313.10 0.0322078
313.20 0.03261837
313.30 0.03308635
313.40 0.03357696
313.50 0.03407212
313.60 0.03456729
313.70 0.03506248
313.80 0.03555768
313.90 0.03605288
314.00 0.03654808
314.10 0.03704328
314.20 0.03753848
314.30 0.03803368
314.40 0.03852888
314.50 0.03902409
314.60 0.03951932
314.70 0.04001772
314.80 0.04053186
314.90 0.04108597
315.00 0.04170664
315.10 0.04240567
315.20 0.04317126
315.30 0.0439768
315.40 0.0447981
315.50 0.04562257
315.60 0.04644706
315.70 0.04727155
315.80 0.04809605
315.90 0.04892054
316.00 0.04974504
316.10 0.05056954
316.20 0.05139403
316.30 0.05221852
316.40 0.053043
316.50 0.05386745
316.60 0.05469184
316.70 0.05550459
316.80 0.05625944
316.90 0.05686738
317.00 0.05723069
317.10 0.05730593
317.20 0.05713654
317.30 0.05682025
317.40 0.05644605
317.50 0.0560602
317.60 0.05567431
317.70 0.05528838
317.80 0.05490244
317.90 0.0545165
318.00 0.05413055
318.10 0.05374461
318.20 0.05335866
318.30 0.05297272
318.40 0.05258679
318.50 0.05220088
318.60 0.05181501
318.70 0.05143806
318.80 0.05110543
318.90 0.05088526
319.00 0.05085235
319.10 0.05103994
319.20 0.05141481
319.30 0.05190213
319.40 0.05243377
319.50 0.05297433
319.60 0.05351493
319.70 0.05405555
319.80 0.05459618
319.90 0.05513681
320.00 0.05567745
320.10 0.05621808
320.20 0.05675872
320.30 0.05729935
320.40 0.05783998
320.50 0.0583806
320.60 0.05892121
320.70 0.05945852
320.80 0.05997943
320.90 0.06045876
321.00 0.06086882
321.10 0.06119733
321.20 0.06145658
321.30 0.06167424
321.40 0.0618755
321.50 0.06207347
321.60 0.06227142
321.70 0.06246937
321.80 0.06266731
321.90 0.06286525
322.00 0.06306319
322.10 0.06326113
322.20 0.06345907
322.30 0.06365701
322.40 0.06385497
322.50 0.06405297
322.60 0.06425101
322.70 0.0644611
322.80 0.06473107
322.90 0.06515294
323.00 0.06582782
323.10 0.06680057
323.20 0.06802633
323.30 0.06940399
323.40 0.07084153
323.50 0.07229112
323.60 0.07374076
323.70 0.07519042
323.80 0.07664011
323.90 0.0780898
324.00 0.07953949
324.10 0.08098918
324.20 0.08243887
324.30 0.08388856
324.40 0.08533825
324.50 0.08678793
324.60 0.08823761
324.70 0.08968533
324.80 0.09112332
324.90 0.09253663
325.00 0.09390885
325.10 0.09523268
325.20 0.09651541
325.30 0.09777347
325.40 0.0990218
325.50 0.1002682
325.60 0.1015145
325.70 0.1027609
325.80 0.1040073
325.90 0.1052536
326.00 0.1065
326.10 0.1077463
326.20 0.1089927
326.30 0.110239
326.40 0.1114854
326.50 0.1127318
326.60 0.1139782
326.70 0.1152288
326.80 0.1165003
326.90 0.1178251
327.00 0.1192384
327.10 0.1207561
327.20 0.1223623
327.30 0.1240217
327.40 0.125702
327.50 0.1273866
327.60 0.1290712
327.70 0.1307558
327.80 0.1324404
327.90 0.134125
328.00 0.1358096
328.10 0.1374942
328.20 0.1391788
328.30 0.1408634
328.40 0.142548
328.50 0.1442325
328.60 0.1459169
328.70 0.1475765
328.80 0.1491132
328.90 0.1503378
329.00 0.1510426
329.10 0.1511356
329.20 0.1507088
329.30 0.14997
329.40 0.1491082
329.50 0.1482216
329.60 0.1473349
329.70 0.1464482
329.80 0.1455614
329.90 0.1446746
330.00 0.1437879
330.10 0.1429011
330.20 0.1420143
330.30 0.1411275
330.40 0.1402408
330.50 0.1393541
330.60 0.1384674
330.70 0.1375992
330.80 0.1368222
330.90 0.1362766
331.00 0.1361166
331.10 0.1364105
331.20 0.13709
331.30 0.1380009
331.40 0.1390031
331.50 0.1400236
331.60 0.1410442
331.70 0.1420649
331.80 0.1430856
331.90 0.1441063
332.00 0.145127
332.10 0.1461477
332.20 0.1471684
332.30 0.1481891
332.40 0.1492097
332.50 0.1502304
332.60 0.151251
332.70 0.1522599
332.80 0.1532111
332.90 0.1540158
333.00 0.1545763
333.10 0.1548495
333.20 0.1548785
333.30 0.154761
333.40 0.1545857
333.50 0.1543988
333.60 0.1542118
333.70 0.1540248
333.80 0.1538378
333.90 0.1536508
334.00 0.1534638
334.10 0.1532768
334.20 0.1530898
334.30 0.152903
334.40 0.1527161
334.50 0.1525294
334.60 0.1524982
334.70 0.1529744
334.80 0.1540937
334.90 0.1552312
335.00 0.1551968
335.10 0.1536663
335.20 0.1525131
335.30 0.1552389
335.40 0.1642774
335.50 0.1782453
335.60 0.1917955
335.70 0.1987264
335.80 0.1959818
335.90 0.1851648
336.00 0.1708275
336.10 0.1576566
336.20 0.1489213
336.30 0.145992
336.40 0.1477598
336.50 0.1507728
336.60 0.1513054
336.70 0.1484492
336.80 0.1452693
336.90 0.1464002
337.00 0.154075
337.10 0.1659479
337.20 0.1764359
337.30 0.1805558
337.40 0.1774219
337.50 0.1707992
337.60 0.1662236
337.70 0.1668961
337.80 0.1718027
337.90 0.1775729
338.00 0.1816298
338.10 0.1832643
338.20 0.1821026
338.30 0.1769203
338.40 0.1673011
338.50 0.1560875
338.60 0.1489401
338.70 0.1502703
338.80 0.1591241
338.90 0.169486
339.00 0.1751133
339.10 0.1746476
339.20 0.1724519
339.30 0.1743194
339.40 0.1821388
339.50 0.1926698
339.60 0.2010474
339.70 0.2048686
339.80 0.2048071
339.90 0.2022037
340.00 0.1975925
340.10 0.1915253
340.20 0.1852773
340.30 0.1798173
340.40 0.1744935
340.50 0.1677175
340.60 0.1591068
340.70 0.1503708
340.80 0.1439566
340.90 0.141256
341.00 0.142176
341.10 0.1458669
341.20 0.1513491
341.30 0.157472
341.40 0.1628798
341.50 0.1665358
341.60 0.1683377
341.70 0.1691621
341.80 0.1701982
341.90 0.1720694
342.00 0.1742798
342.10 0.175312
342.20 0.1735502
342.30 0.1686391
342.40 0.1622153
342.50 0.1570786
342.60 0.1553112
342.70 0.1569792
342.80 0.1604038
342.90 0.1634871
343.00 0.165002
343.10 0.1651441
343.20 0.1650742
343.30 0.1657899
343.40 0.1672559
343.50 0.1686099
343.60 0.169075
343.70 0.168438
343.80 0.1668642
343.90 0.1647432
344.00 0.1627866
344.10 0.1618177
344.20 0.1620514
344.30 0.1627317
344.40 0.1627954
344.50 0.1618898
344.60 0.160659
344.70 0.1601795
344.80 0.1612739
344.90 0.164233
345.00 0.1689026
345.10 0.1748002
345.20 0.1811402
345.30 0.1868349
345.40 0.1906693
345.50 0.1918857
345.60 0.1908166
345.70 0.1888294
345.80 0.1873911
345.90 0.187043
346.00 0.1871581
346.10 0.18649
346.20 0.1840431
346.30 0.1798559
346.40 0.1752532
346.50 0.1720752
346.60 0.1712145
346.70 0.1718408
346.80 0.1721724
346.90 0.1709269
347.00 0.1679825
347.10 0.1641319
347.20 0.1606906
347.30 0.1591253
347.40 0.1603686
347.50 0.1640841
347.60 0.168823
347.70 0.1731377
347.80 0.17655
347.90 0.1795365
348.00 0.1827765
348.10 0.1863912
348.20 0.1897
348.30 0.1916696
348.40 0.1917518
348.50 0.1903636
348.60 0.1884571
348.70 0.1866516
348.80 0.1849424
348.90 0.1831302
349.00 0.181225
349.10 0.1793964
349.20 0.1777957
349.30 0.1766408
349.40 0.1763223
349.50 0.1770893
349.60 0.1785618
349.70 0.1797883
349.80 0.1800879
349.90 0.1800074
350.00 0.1812564
350.10 0.1853599
350.20 0.1921969
350.30 0.1998463
350.40 0.205898
350.50 0.2089759
350.60 0.2091913
350.70 0.2074985
350.80 0.2048833
350.90 0.2018972
351.00 0.198443
351.10 0.19382
351.20 0.1872724
351.30 0.1789616
351.40 0.1704979
351.50 0.1641667
351.60 0.1613093
351.70 0.1613771
351.80 0.1625693
351.90 0.1633336
352.00 0.1632334
352.10 0.1625833
352.20 0.1617497
352.30 0.1610497
352.40 0.1611653
352.50 0.1633448
352.60 0.1687187
352.70 0.1771296
352.80 0.1866858
352.90 0.1948173
353.00 0.2001677
353.10 0.2034606
353.20 0.20639
353.30 0.2098948
353.40 0.2137461
353.50 0.2174837
353.60 0.2212014
353.70 0.2252538
353.80 0.229635
353.90 0.2339555
354.00 0.2377061
354.10 0.2402249
354.20 0.2407142
354.30 0.2388552
354.40 0.2354983
354.50 0.232374
354.60 0.2308
354.70 0.23071
354.80 0.2310179
354.90 0.2307581
355.00 0.2297501
355.10 0.2283819
355.20 0.2270665
355.30 0.225995
355.40 0.2252597
355.50 0.2249007
355.60 0.2246917
355.70 0.2239996
355.80 0.2220791
355.90 0.2186923
356.00 0.2143918
356.10 0.2100711
356.20 0.2061991
356.30 0.2024457
356.40 0.1980435
356.50 0.1926227
356.60 0.1868175
356.70 0.1820401
356.80 0.1794959
356.90 0.1792929
357.00 0.1804517
357.10 0.181662
357.20 0.181968
357.30 0.1809624
357.40 0.1786669
357.50 0.1754032
357.60 0.1716997
357.70 0.1681064
357.80 0.1649712
357.90 0.1623617
358.00 0.1602585
358.10 0.1588915
358.20 0.1588296
358.30 0.1606077
358.40 0.1641895
358.50 0.1687748
358.60 0.1731087
358.70 0.1760191
358.80 0.1769049
358.90 0.1760264
359.00 0.1745239
359.10 0.1739897
359.20 0.1755919
359.30 0.1792595
359.40 0.1835891
359.50 0.1867232
359.60 0.1876097
359.70 0.1866547
359.80 0.1852622
359.90 0.1846477
360.00 0.1848723
360.10 0.1848453
360.20 0.1832556
360.30 0.1796244
360.40 0.1747083
360.50 0.1701213
360.60 0.1675866
360.70 0.1682511
360.80 0.1721679
360.90 0.1781764
361.00 0.184472
361.10 0.1896334
361.20 0.1932955
361.30 0.1958707
361.40 0.197716
361.50 0.1987543
361.60 0.1989662
361.70 0.1989255
361.80 0.199487
361.90 0.2009187
362.00 0.2025819
362.10 0.2036004
362.20 0.203666
362.30 0.2031265
362.40 0.2025648
362.50 0.2024678
362.60 0.2029974
362.70 0.2037113
362.80 0.203642
362.90 0.2020661
363.00 0.1993475
363.10 0.1968293
363.20 0.1957518
363.30 0.1963278
363.40 0.1978332
363.50 0.1993649
363.60 0.2004222
363.70 0.2009556
363.80 0.2010662
363.90 0.2007126
364.00 0.1996362
364.10 0.197542
364.20 0.194397
364.30 0.1905962
364.40 0.1868797
364.50 0.1840918
364.60 0.1828546
364.70 0.1832209
364.80 0.1845992
364.90 0.186201
365.00 0.1877609
365.10 0.1898047
365.20 0.1930008
365.30 0.1971651
365.40 0.2010185
365.50 0.2030721
365.60 0.2028553
365.70 0.2012724
365.80 0.1997308
365.90 0.1989994
366.00 0.1989204
366.10 0.199051
366.20 0.1993607
366.30 0.2001707
366.40 0.2015642
366.50 0.2030628
366.60 0.2038776
366.70 0.203419
366.80 0.2016038
366.90 0.1988109
367.00 0.1956826
367.10 0.1929492
367.20 0.1912734
367.30 0.1910814
367.40 0.1923778
367.50 0.1947079
367.60 0.1973807
367.70 0.1998274
367.80 0.2018376
367.90 0.203522
368.00 0.2050771
368.10 0.2065495
368.20 0.2077518
368.30 0.2083546
368.40 0.2081001
368.50 0.2070444
368.60 0.205659
368.70 0.204635
368.80 0.2044612
368.90 0.2051264
369.00 0.2062548
369.10 0.2075488
369.20 0.2089927
369.30 0.2105724
369.40 0.2119177
369.50 0.2123953
369.60 0.2116565
369.70 0.2100656
369.80 0.2085726
369.90 0.2081752
370.00 0.2094008
370.10 0.2120995
370.20 0.2156142
370.30 0.2191334
370.40 0.2219717
370.50 0.2236844
370.60 0.2241173
370.70 0.2235291
370.80 0.2226068
370.90 0.2221591
371.00 0.2225917
371.10 0.2235708
371.20 0.2241493
371.30 0.2232569
371.40 0.2202972
371.50 0.2155446
371.60 0.2101033
371.70 0.205391
371.80 0.2024916
371.90 0.2018037
372.00 0.2030738
372.10 0.2054703
372.20 0.2075252
372.30 0.2073904
372.40 0.2036922
372.50 0.196608
372.60 0.1881916
372.70 0.1814534
372.80 0.1788269
372.90 0.1811031
373.00 0.1873707
373.10 0.1956786
373.20 0.2038443
373.30 0.2100451
373.40 0.2131825
373.50 0.2129612
373.60 0.2096873
373.70 0.2039764
373.80 0.1966231
373.90 0.1886734
374.00 0.1814388
374.10 0.1762684
374.20 0.1742054
374.30 0.1758035
374.40 0.1811696
374.50 0.1900027
374.60 0.2014829
374.70 0.2141147
374.80 0.2258217
374.90 0.2344731
375.00 0.2386146
375.10 0.2379364
375.20 0.2332226
375.30 0.2259427
375.40 0.2178009
375.50 0.210378
375.60 0.2047551
375.70 0.2012243
375.80 0.199306
375.90 0.1981476
376.00 0.1971149
376.10 0.1962578
376.20 0.1964106
376.30 0.1988459
376.40 0.2046546
376.50 0.2142757
376.60 0.2274847
376.70 0.2435384
376.80 0.2610716
376.90 0.2778123
377.00 0.290767
377.10 0.2972468
377.20 0.2960969
377.30 0.2881448
377.40 0.2755912
377.50 0.26097
377.60 0.2464235
377.70 0.2334939
377.80 0.2230683
377.90 0.2153319
378.00 0.2098785
378.10 0.2060623
378.20 0.2033763
378.30 0.2015466
378.40 0.2003833
378.50 0.1997298
378.60 0.1996112
378.70 0.2003158
378.80 0.202272
378.90 0.2059598
379.00 0.2120553
379.10 0.2215147
379.20 0.2351767
379.30 0.2530286
379.40 0.2737525
379.50 0.2949146
379.60 0.3135269
379.70 0.3266425
379.80 0.3320225
379.90 0.3288333
380.00 0.3180731
380.10 0.3022816
380.20 0.2845716
380.30 0.267563
380.40 0.2528311
380.50 0.2409465
380.60 0.2317841
380.70 0.2247895
380.80 0.2191762
380.90 0.2142671
381.00 0.2098282
381.10 0.2060588
381.20 0.2031898
381.30 0.2011049
381.40 0.1994528
381.50 0.1981442
381.60 0.1975507
381.70 0.1980344
381.80 0.1992857
381.90 0.2002611
382.00 0.1999469
382.10 0.1980983
382.20 0.1953586
382.30 0.1933108
382.40 0.1942098
382.50 0.1995606
382.60 0.2118708
382.70 0.2366152
382.80 0.2793803
382.90 0.3378356
383.00 0.3959237
383.10 0.43365
383.20 0.4436553
383.30 0.4319653
383.40 0.4097906
383.50 0.3828343
383.60 0.3495551
383.70 0.3084638
383.80 0.2628857
383.90 0.222951
384.00 0.2028116
384.10 0.209489
384.20 0.233813
384.30 0.2577906
384.40 0.2699057
384.50 0.2676818
384.60 0.2524879
384.70 0.2302015
384.80 0.2218197
384.90 0.2472563
385.00 0.2969526
385.10 0.3331955
385.20 0.3278648
385.30 0.2907036
385.40 0.2508719
385.50 0.2245393
385.60 0.2112371
385.70 0.2087693
385.80 0.2184306
385.90 0.236316
386.00 0.2506484
386.10 0.2516722
386.20 0.2368892
386.30 0.2082894
386.40 0.1719403
386.50 0.1423114
386.60 0.1399347
386.70 0.1780741
386.80 0.2492826
386.90 0.3239937
387.00 0.3686432
387.10 0.3675338
387.20 0.3320669
387.30 0.2892005
387.40 0.2581799
387.50 0.237651
387.60 0.2153574
387.70 0.1892172
387.80 0.172299
387.90 0.1777508
388.00 0.2032409
388.10 0.2328706
388.20 0.2546501
388.30 0.2663572
388.40 0.2674359
388.50 0.2572105
388.60 0.2426373
388.70 0.2384644
388.80 0.251849
388.90 0.2718831
389.00 0.2813936
389.10 0.2768768
389.20 0.2655281
389.30 0.2506842
389.40 0.2298203
389.50 0.2021356
389.60 0.172945
389.70 0.1505886
389.80 0.1392189
389.90 0.1433119
390.00 0.1617876
390.10 0.1852953
390.20 0.2065687
390.30 0.2232505
390.40 0.2380662
390.50 0.2562747
390.60 0.2774984
390.70 0.2967521
390.80 0.306966
390.90 0.3021509
391.00 0.2816753
391.10 0.2521959
391.20 0.2270681
391.30 0.2217916
391.40 0.2485098
391.50 0.2983466
391.60 0.3454353
391.70 0.3667671
391.80 0.3587194
391.90 0.3328335
392.00 0.3006371
392.10 0.2692597
392.20 0.2447759
392.30 0.229138
392.40 0.2210156
392.50 0.2189931
392.60 0.2271988
392.70 0.2500075
392.80 0.2781246
392.90 0.2969238
393.00 0.3087777
393.10 0.3406051
393.20 0.4178065
393.30 0.5263673
393.40 0.6122867
393.50 0.6216004
393.60 0.5448053
393.70 0.4254577
393.80 0.3250532
393.90 0.2779369
394.00 0.2730218
394.10 0.274203
394.20 0.2553087
394.30 0.2175065
394.40 0.183316
394.50 0.1720424
394.60 0.1862026
394.70 0.211794
394.80 0.2317494
394.90 0.2388849
395.00 0.2415942
395.10 0.2475378
395.20 0.2519916
395.30 0.2463176
395.40 0.2354802
395.50 0.2365338
395.60 0.2580962
395.70 0.2870142
395.80 0.3005231
395.90 0.2888297
396.00 0.2619066
396.10 0.238522
396.20 0.2294855
396.30 0.2354831
396.40 0.2573687
396.50 0.2992714
396.60 0.364993
396.70 0.4476759
396.80 0.5236221
396.90 0.5633439
397.00 0.548085
397.10 0.4838648
397.20 0.4028207
397.30 0.3448005
397.40 0.3311093
397.50 0.3531167
397.60 0.3821723
397.70 0.3927678
397.80 0.3800251
397.90 0.3564918
398.00 0.3381039
398.10 0.3325397
398.20 0.3407808
398.30 0.3634999
398.40 0.4001727
398.50 0.4420522
398.60 0.4717401
398.70 0.4746581
398.80 0.4482344
398.90 0.4067825
399.00 0.3733022
399.10 0.3674465
399.20 0.3918377
399.30 0.4304396
399.40 0.4615043
399.50 0.4708049
399.60 0.4534407
399.70 0.4147884
399.80 0.37371
399.90 0.3527076
400.00 0.3580309
400.10 0.374293
400.20 0.3841364
400.30 0.3880333
400.40 0.3969766
400.50 0.4117158
400.60 0.4199379
400.70 0.4129266
400.80 0.3975792
400.90 0.3903818
401.00 0.398598
401.10 0.4112073
401.20 0.4130239
401.30 0.4026282
401.40 0.3959942
401.50 0.4058212
401.60 0.4248078
401.70 0.4352852
401.80 0.4319339
401.90 0.4231274
402.00 0.4154958
402.10 0.4048662
402.20 0.3891881
402.30 0.3804506
402.40 0.3912066
402.50 0.4139832
402.60 0.4241881
402.70 0.4052536
402.80 0.3658355
402.90 0.3290299
403.00 0.3103993
403.10 0.3062942
403.20 0.3006805
403.30 0.2835455
403.40 0.2627549
403.50 0.2574568
403.60 0.2793672
403.70 0.3226589
403.80 0.3717101
403.90 0.4144121
404.00 0.4481601
404.10 0.4744269
404.20 0.4881949
404.30 0.4783069
404.40 0.4400964
404.50 0.3856423
404.60 0.3387501
404.70 0.3175503
404.80 0.3248013
404.90 0.3507612
405.00 0.3791936
405.10 0.3955312
405.20 0.3944177
405.30 0.3804738
405.40 0.3620845
405.50 0.3457726
405.60 0.3353351
405.70 0.3334398
405.80 0.3396003
405.90 0.3505181
406.00 0.3630023
406.10 0.3744061
406.20 0.3837827
406.30 0.3928368
406.40 0.4050591
406.50 0.4216892
406.60 0.4379047
406.70 0.446239
406.80 0.443503
406.90 0.4311129
407.00 0.4128485
407.10 0.3946025
407.20 0.3834843
407.30 0.385386
407.40 0.3958426
407.50 0.3980882
407.60 0.3791085
407.70 0.3426352
407.80 0.3077231
407.90 0.2931624
408.00 0.3035306
408.10 0.3309119
408.20 0.3648296
408.30 0.3954642
408.40 0.4126857
408.50 0.410263
408.60 0.3943066
408.70 0.3805822
408.80 0.3764741
408.90 0.3719359
409.00 0.3556954
409.10 0.3362655
409.20 0.3363263
409.30 0.365113
409.40 0.4067113
409.50 0.4353224
409.60 0.4370318
409.70 0.4175559
409.80 0.3970256
409.90 0.3984249
410.00 0.4305608
410.10 0.4783203
410.20 0.5135643
410.30 0.5190638
410.40 0.498726
410.50 0.4661775
410.60 0.431241
410.70 0.399466
410.80 0.3798315
410.90 0.3773216
411.00 0.3870812
411.10 0.39555
411.20 0.3930564
411.30 0.3815054
411.40 0.3700439
411.50 0.3667263
411.60 0.3728817
411.70 0.3877242
411.80 0.4107797
411.90 0.4365711
412.00 0.4530622
412.10 0.4477028
412.20 0.4180363
412.30 0.3790744
412.40 0.3545911
412.50 0.3577453
412.60 0.3823069
412.70 0.4105023
412.80 0.428255
412.90 0.4308377
413.00 0.4180447
413.10 0.3921383
413.20 0.3600712
413.30 0.332629
413.40 0.3173658
413.50 0.3127987
413.60 0.3115543
413.70 0.3094628
413.80 0.3085339
413.90 0.3121427
414.00 0.3199043
414.10 0.3281473
414.20 0.3334383
414.30 0.3359303
414.40 0.3358127
414.50 0.3350278
414.60 0.3388329
414.70 0.3518791
414.80 0.3716147
414.90 0.3919724
415.00 0.4077716
415.10 0.4146509
415.20 0.4098205
415.30 0.3957149
415.40 0.3819648
415.50 0.3792759
415.60 0.3853236
415.70 0.384758
415.80 0.3665336
415.90 0.3374928
416.00 0.3153032
416.10 0.3123766
416.20 0.3287545
416.30 0.3585463
416.40 0.3957948
416.50 0.4324617
416.60 0.4553078
416.70 0.4547837
416.80 0.4332635
416.90 0.4059488
417.00 0.3871891
417.10 0.3773017
417.20 0.3668245
417.30 0.3491521
417.40 0.328749
417.50 0.3135116
417.60 0.3064356
417.70 0.3071607
417.80 0.3179277
417.90 0.3409834
418.00 0.3717578
418.10 0.3959991
418.20 0.403688
418.30 0.3991675
418.40 0.3939598
418.50 0.3909805
418.60 0.3812248
418.70 0.3611054
418.80 0.3384686
418.90 0.3236523
419.00 0.3174603
419.10 0.3146852
419.20 0.3160466
419.30 0.3283917
419.40 0.3527685
419.50 0.3787528
419.60 0.3923732
419.70 0.3885753
419.80 0.374833
419.90 0.3620828
420.00 0.3544422
420.10 0.3486706
420.20 0.3424779
420.30 0.3397618
420.40 0.3457194
420.50 0.357211
420.60 0.3632343
420.70 0.3562289
420.80 0.3397643
420.90 0.3258373
421.00 0.3216912
421.10 0.3252414
421.20 0.3306743
421.30 0.3347687
421.40 0.3357744
421.50 0.3295997
421.60 0.3131889
421.70 0.2904332
421.80 0.2695172
421.90 0.2537908
422.00 0.2391953
422.10 0.2197555
422.20 0.1936333
422.30 0.1641355
422.40 0.1374642
422.50 0.1192149
422.60 0.1102833
422.70 0.1057392
422.80 0.1036697
422.90 0.107145
423.00 0.1210429
423.10 0.1455643
423.20 0.175978
423.30 0.2072285
423.40 0.2376216
423.50 0.2668464
423.60 0.2935608
423.70 0.314909
423.80 0.3246285
423.90 0.3175198
424.00 0.2965347
424.10 0.2726468
424.20 0.2557886
424.30 0.2487307
424.40 0.2493562
424.50 0.2563093
424.60 0.2657365
424.70 0.268021
424.80 0.2562901
424.90 0.2390897
425.00 0.2339359
425.10 0.2481562
425.20 0.2699342
425.30 0.2796015
425.40 0.2694797
425.50 0.2503184
425.60 0.2404523
425.70 0.2495082
425.80 0.272167
425.90 0.2960098
426.00 0.3122897
426.10 0.3198268
426.20 0.3212007
426.30 0.3200733
426.40 0.3200702
426.50 0.3220208
426.60 0.3214119
426.70 0.312399
426.80 0.2974703
426.90 0.2879596
427.00 0.2928608
427.10 0.308765
427.20 0.3206281
427.30 0.3173775
427.40 0.3002754
427.50 0.2791534
427.60 0.2651301
427.70 0.2666319
427.80 0.2857392
427.90 0.3163676
428.00 0.3461635
428.10 0.3644168
428.20 0.3681426
428.30 0.3604765
428.40 0.3457001
428.50 0.3266605
428.60 0.3063785
428.70 0.2892376
428.80 0.2798557
428.90 0.2805625
429.00 0.2900822
429.10 0.3044007
429.20 0.319798
429.30 0.3321383
429.40 0.3381378
429.50 0.3386715
429.60 0.3383955
429.70 0.3403145
429.80 0.3419271
429.90 0.3382416
430.00 0.327768
430.10 0.3149177
430.20 0.3074518
430.30 0.3129555
430.40 0.3333891
430.50 0.3586493
430.60 0.3696484
430.70 0.3543804
430.80 0.3218132
430.90 0.2967729
431.00 0.2987059
431.10 0.3251883
431.20 0.3562184
431.30 0.3722037
431.40 0.3688058
431.50 0.3568323
431.60 0.3498862
431.70 0.354738
431.80 0.3703038
431.90 0.3914711
432.00 0.4121249
432.10 0.4263271
432.20 0.4314931
432.30 0.4281294
432.40 0.416118
432.50 0.3927442
432.60 0.3587659
432.70 0.3250855
432.80 0.3092884
432.90 0.3207647
433.00 0.3508459
433.10 0.3811456
433.20 0.3997444
433.30 0.4090658
433.40 0.4182354
433.50 0.4320576
433.60 0.4524393
433.70 0.4863867
433.80 0.5437943
433.90 0.6251274
434.00 0.7075423
434.10 0.7544402
434.20 0.7424014
434.30 0.6808404
434.40 0.6030598
434.50 0.5397911
434.60 0.5032062
434.70 0.4901392
434.80 0.4906691
434.90 0.4908645
435.00 0.4756885
435.10 0.4392258
435.20 0.3913407
435.30 0.3510266
435.40 0.3348053
435.50 0.3483347
435.60 0.3830438
435.70 0.4207853
435.80 0.4447654
435.90 0.4496288
436.00 0.4409491
436.10 0.4279934
436.20 0.4190753
436.30 0.4212723
436.40 0.4320903
436.50 0.4398782
436.60 0.4364167
436.70 0.4267955
436.80 0.4243371
436.90 0.4348354
437.00 0.4508601
437.10 0.4604087
437.20 0.4578462
437.30 0.4457977
437.40 0.4314874
437.50 0.4231982
437.60 0.4249496
437.70 0.4324476
437.80 0.4363428
437.90 0.432202
438.00 0.4249366
438.10 0.4210166
438.20 0.4177904
438.30 0.4074169
438.40 0.3905326
438.50 0.3799112
438.60 0.3870746
438.70 0.4078733
438.80 0.4269944
438.90 0.434722
439.00 0.4348986
439.10 0.4369587
439.20 0.4440807
439.30 0.4512295
439.40 0.4530007
439.50 0.450382
439.60 0.4489475
439.70 0.4526486
439.80 0.4599451
439.90 0.4666733
440.00 0.4729504
440.10 0.4822962
440.20 0.4953877
440.30 0.5065912
440.40 0.5069428
440.50 0.4930333
440.60 0.4687122
440.70 0.4451561
440.80 0.4376274
440.90 0.4558771
441.00 0.4954417
441.10 0.5351326
441.20 0.5533784
441.30 0.5468456
441.40 0.532085
441.50 0.528316
441.60 0.5409141
441.70 0.5608982
441.80 0.5747428
441.90 0.5736165
442.00 0.5573887
442.10 0.5336374
442.20 0.5109439
442.30 0.4917569
442.40 0.4734944
442.50 0.4569815
442.60 0.4503462
442.70 0.4609092
442.80 0.4848804
442.90 0.5100132
443.00 0.5277302
443.10 0.5389848
443.20 0.5475933
443.30 0.5519829
443.40 0.549128
443.50 0.5435381
443.60 0.5461218
443.70 0.5627154
443.80 0.5867017
443.90 0.6084318
444.00 0.6241379
444.10 0.6362121
444.20 0.645287
444.30 0.6483918
444.40 0.644414
444.50 0.6384983
444.60 0.6378812
444.70 0.6436856
444.80 0.6510392
444.90 0.6558888
445.00 0.6581753
445.10 0.6580114
445.20 0.6508533
445.30 0.6297215
445.40 0.5933294
445.50 0.5512625
445.60 0.5205364
445.70 0.5149238
445.80 0.5356005
445.90 0.5705973
446.00 0.6043988
446.10 0.6274022
446.20 0.6381262
446.30 0.640245
446.40 0.6398067
446.50 0.6425707
446.60 0.6507297
446.70 0.6616071
446.80 0.6707985
446.90 0.6770766
447.00 0.6831304
447.10 0.6927093
447.20 0.7077681
447.30 0.7266177
447.40 0.743945
447.50 0.754497
447.60 0.7583447
447.70 0.7614855
447.80 0.7690197
447.90 0.7775461
448.00 0.776581
448.10 0.7615983
448.20 0.7397196
448.30 0.726134
448.40 0.7331544
448.50 0.7588958
448.60 0.7888136
448.70 0.8061516
448.80 0.8026989
448.90 0.783587
449.00 0.7639218
449.10 0.7577172
449.20 0.7667092
449.30 0.7787058
449.40 0.7784416
449.50 0.7625164
449.60 0.7429742
449.70 0.7352652
449.80 0.7448004
449.90 0.7652099
450.00 0.786889
450.10 0.8050332
450.20 0.8196346
450.30 0.8309305
450.40 0.8367748
450.50 0.8332861
450.60 0.8182986
450.70 0.7944545
450.80 0.7684177
450.90 0.7474543
451.00 0.7358466
451.10 0.7332031
451.20 0.7352232
451.30 0.7365623
451.40 0.7339768
451.50 0.7272577
451.60 0.7185957
451.70 0.7125847
451.80 0.7160627
451.90 0.7333613
452.00 0.7599219
452.10 0.7848535
452.20 0.8019811
452.30 0.8148757
452.40 0.8280083
452.50 0.8370601
452.60 0.8340066
452.70 0.8200989
452.80 0.8072584
452.90 0.8060788
453.00 0.8159125
453.10 0.8268352
453.20 0.8284609
453.30 0.8164971
453.40 0.7949983
453.50 0.7759457
453.60 0.7740752
453.70 0.797355
453.80 0.84007
453.90 0.8856473
454.00 0.919181
454.10 0.9363772
454.20 0.9397262
454.30 0.928766
454.40 0.8992974
454.50 0.8530355
454.60 0.803452
454.70 0.7685498
454.80 0.7586264
454.90 0.772039
455.00 0.7986072
455.10 0.8250536
455.20 0.8406034
455.30 0.8426414
455.40 0.8385471
455.50 0.8398575
455.60 0.8531222
455.70 0.8768037
455.80 0.9050955
455.90 0.9320037
456.00 0.9528071
456.10 0.9649846
456.20 0.9697466
456.30 0.9718113
456.40 0.9763574
456.50 0.9864707
456.60 1.002728
456.70 1.022682
456.80 1.040819
456.90 1.051176
457.00 1.052674
457.10 1.05136
457.20 1.054811
457.30 1.06475
457.40 1.074962
457.50 1.075701
457.60 1.06083
457.70 1.032279
457.80 0.9993776
457.90 0.9740355
458.00 0.9638347
458.10 0.9666986
458.20 0.9717073
458.30 0.9646309
458.40 0.936169
458.50 0.8894648
458.60 0.8393942
458.70 0.8026859
458.80 0.7875824
458.90 0.7920731
459.00 0.8093415
459.10 0.8326394
459.20 0.8556048
459.30 0.8737407
459.40 0.888293
459.50 0.9047022
459.60 0.9261324
459.70 0.9491901
459.80 0.9662072
459.90 0.9719052
460.00 0.9677999
460.10 0.9606579
460.20 0.9567189
460.30 0.955128
460.40 0.9463427
460.50 0.920711
460.60 0.8813516
460.70 0.8482395
460.80 0.8465549
460.90 0.8866358
461.00 0.9543681
461.10 1.022826
461.20 1.072895
461.30 1.102924
461.40 1.120889
461.50 1.131532
461.60 1.134306
461.70 1.130159
461.80 1.124232
461.90 1.122518
462.00 1.129492
462.10 1.146947
462.20 1.169721
462.30 1.181505
462.40 1.1628
462.50 1.108001
462.60 1.032074
462.70 0.9590579
462.80 0.9064747
462.90 0.8803134
463.00 0.8781203
463.10 0.8915105
463.20 0.9081987
463.30 0.9184893
463.40 0.9207089
463.50 0.9187893
463.60 0.9143232
463.70 0.9043633
463.80 0.8894233
463.90 0.87881
464.00 0.8834717
464.10 0.904469
464.20 0.9321324
464.30 0.9557665
464.40 0.9712358
464.50 0.9794349
464.60 0.9826734
464.70 0.9834286
464.80 0.9827967
464.90 0.9797199
465.00 0.9734187
465.10 0.9674014
465.20 0.9685868
465.30 0.9794862
465.40 0.9933262
465.50 1.000359
465.60 0.9985125
465.70 0.9978527
465.80 1.013164
465.90 1.050248
466.00 1.099373
466.10 1.141366
466.20 1.16154
466.30 1.160214
466.40 1.148509
466.50 1.134233
466.60 1.114954
466.70 1.083548
466.80 1.037986
466.90 0.9837386
467.00 0.9278511
467.10 0.8748164
467.20 0.8287932
467.30 0.7971765
467.40 0.7887199
467.50 0.8056211
467.60 0.8372895
467.70 0.8655716
467.80 0.878456
467.90 0.8779655
468.00 0.8745072
468.10 0.8752562
468.20 0.8797835
468.30 0.8852675
468.40 0.8922158
468.50 0.9036954
468.60 0.9203066
468.70 0.9382181
468.80 0.9530788
468.90 0.9650237
469.00 0.9783208
469.10 0.9954115
469.20 1.012137
469.30 1.020561
469.40 1.017566
469.50 1.008795
469.60 1.00348
469.70 1.006566
469.80 1.017249
469.90 1.033173
470.00 1.051167
470.10 1.06566
470.20 1.07241
470.30 1.073919
470.40 1.076259
470.50 1.080203
470.60 1.079894
470.70 1.072329
470.80 1.062059
470.90 1.054033
471.00 1.047859
471.10 1.040698
471.20 1.031166
471.30 1.017265
471.40 0.9941669
471.50 0.9602653
471.60 0.9251495
471.70 0.9055479
471.80 0.9120281
471.90 0.9401924
472.00 0.9744387
472.10 0.9998484
472.20 1.010988
472.30 1.012817
472.40 1.015239
472.50 1.024549
472.60 1.038396
472.70 1.048839
472.80 1.050111
472.90 1.043703
473.00 1.036492
473.10 1.035551
473.20 1.044662
473.30 1.062645
473.40 1.083422
473.50 1.098357
473.60 1.100001
473.70 1.086896
473.80 1.066211
473.90 1.050541
474.00 1.049404
474.10 1.061912
474.20 1.078118
474.30 1.088523
474.40 1.091934
474.50 1.094334
474.60 1.10223
474.70 1.11726
474.80 1.135738
474.90 1.15239
475.00 1.163934
475.10 1.16999
475.20 1.173211
475.30 1.179277
475.40 1.193689
475.50 1.214883
475.60 1.229748
475.70 1.220059
475.80 1.177035
475.90 1.107822
476.00 1.026855
476.10 0.9435516
476.20 0.8603663
476.30 0.7809698
476.40 0.714617
476.50 0.6713682
476.60 0.6527274
476.70 0.6502707
476.80 0.6534767
476.90 0.6559388
477.00 0.65722
477.10 0.6612152
477.20 0.6731154
477.30 0.696034
477.40 0.7282352
477.50 0.7623352
477.60 0.7876319
477.70 0.7952392
477.80 0.7840193
477.90 0.7620373
478.00 0.7405844
478.10 0.7269276
478.20 0.7233027
478.30 0.7309355
478.40 0.7517691
478.50 0.7843389
478.60 0.8206331
478.70 0.8500818
478.80 0.8663912
478.90 0.8710845
479.00 0.8716967
479.10 0.8758587
479.20 0.8859366
479.30 0.8988188
479.40 0.9101912
479.50 0.9190194
479.60 0.9275791
479.70 0.938189
479.80 0.9519073
479.90 0.9689182
480.00 0.9880065
480.10 1.005565
480.20 1.015197
480.30 1.008893
480.40 0.9806587
480.50 0.931796
480.60 0.873168
480.70 0.8195002
480.80 0.779251
480.90 0.7512715
481.00 0.7318465
481.10 0.7219718
481.20 0.7264497
481.30 0.7475587
481.40 0.7816061
481.50 0.8206646
481.60 0.8548757
481.70 0.8754366
481.80 0.8797364
481.90 0.8742272
482.00 0.8698026
482.10 0.8729224
482.20 0.8820655
482.30 0.8928491
482.40 0.9032394
482.50 0.912093
482.60 0.9167244
482.70 0.9153742
482.80 0.910822
482.90 0.9075055
483.00 0.9047445
483.10 0.8975698
483.20 0.8864098
483.30 0.8814568
483.40 0.8934844
483.50 0.9220074
483.60 0.9561255
483.70 0.9863098
483.80 1.010298
483.90 1.027061
484.00 1.03044
484.10 1.012983
484.20 0.9769367
484.30 0.9393361
484.40 0.9217796
484.50 0.9311506
484.60 0.9503161
484.70 0.9518254
484.80 0.9228632
484.90 0.8749023
485.00 0.8301638
485.10 0.8043232
485.20 0.8013324
485.30 0.8169135
485.40 0.8413165
485.50 0.8618921
485.60 0.8711479
485.70 0.8757964
485.80 0.8982458
485.90 0.964975
486.00 1.082932
486.10 1.220379
486.20 1.316898
486.30 1.324682
486.40 1.245959
486.50 1.128575
486.60 1.025092
486.70 0.960368
486.80 0.9333656
486.90 0.9343673
487.00 0.9528018
487.10 0.97609
487.20 0.992363
487.30 0.9968581
487.40 0.9924547
487.50 0.9842508
487.60 0.976816
487.70 0.9753247
487.80 0.9837909
487.90 1.001103
488.00 1.020451
488.10 1.033846
488.20 1.038174
488.30 1.036918
488.40 1.036298
488.50 1.039459
488.60 1.045163
488.70 1.051906
488.80 1.061277
488.90 1.074313
489.00 1.085602
489.10 1.08653
489.20 1.075666
489.30 1.062353
489.40 1.05779
489.50 1.064521
489.60 1.075736
489.70 1.083302
489.80 1.084561
489.90 1.082382
490.00 1.081288
490.10 1.08372
490.20 1.090311
490.30 1.103793
490.40 1.129161
490.50 1.167517
490.60 1.211687
490.70 1.250735
490.80 1.279478
490.90 1.300845
491.00 1.319295
491.10 1.335613
491.20 1.347546
491.30 1.352208
491.40 1.34793
491.50 1.335769
491.60 1.31993
491.70 1.30478
491.80 1.290866
491.90 1.276991
492.00 1.266764
492.10 1.269394
492.20 1.291647
492.30 1.329912
492.40 1.372168
492.50 1.40924
492.60 1.441798
492.70 1.474304
492.80 1.503718
492.90 1.518398
493.00 1.509824
493.10 1.482774
493.20 1.451443
493.30 1.42804
493.40 1.417695
493.50 1.420664
493.60 1.435108
493.70 1.457061
493.80 1.480159
493.90 1.49821
494.00 1.508607
494.10 1.513337
494.20 1.517688
494.30 1.527019
494.40 1.54414
494.50 1.569605
494.60 1.60312
494.70 1.643217
494.80 1.685557
494.90 1.722999
495.00 1.748053
495.10 1.752088
495.20 1.719863
495.30 1.630391
495.40 1.472928
495.50 1.265522
495.60 1.052916
495.70 0.8820275
495.80 0.7771973
495.90 0.7345798
496.00 0.7331293
496.10 0.7481272
496.20 0.760847
496.30 0.7641831
496.40 0.7622983
496.50 0.7648327
496.60 0.7805209
496.70 0.8133338
496.80 0.8615871
496.90 0.9184935
497.00 0.9739579
497.10 1.018973
497.20 1.048617
497.30 1.061863
497.40 1.060679
497.50 1.04992
497.60 1.036686
497.70 1.026533
497.80 1.020319
497.90 1.015476
498.00 1.008923
498.10 0.9993509
498.20 0.9902919
498.30 0.9918068
498.40 1.014771
498.50 1.059221
498.60 1.109963
498.70 1.147176
498.80 1.160776
498.90 1.155048
499.00 1.142885
499.10 1.135422
499.20 1.134281
499.30 1.133552
499.40 1.13106
499.50 1.134961
499.60 1.142673
499.70 1.115189
499.80 0.9939542
499.90 0.7593545
500.00 1
500.10 0.8863668
500.20 0.8977164
500.30 0.9436317
500.40 0.9192597
500.50 0.888516
500.60 0.8948921
500.70 0.9156368
500.80 0.8898992
500.90 0.8851211
501.00 0.9168473
501.10 0.9990903
501.20 0.9538519
501.30 0.9285372
501.40 0.8630292
501.50 0.8132531
501.60 0.854685
501.70 0.8520649
501.80 0.9442965
501.90 1.016685
502.00 1.057015
502.10 1.077874
502.20 1.041359
502.30 1.021717
502.40 1.06919
502.50 1.075401
502.60 1.05747
502.70 1.0399
502.80 1.063183
502.90 1.080859
503.00 1.094234
503.10 1.155027
503.20 1.159891
503.30 1.175335
503.40 1.161684
503.50 1.184201
503.60 1.188901
503.70 1.135245
503.80 1.160194
503.90 1.194369
504.00 1.155793
504.10 1.134417
504.20 1.140474
504.30 1.15544
504.40 1.172718
504.50 1.191222
504.60 1.292595
504.70 1.316539
504.80 1.31975
504.90 1.264899
505.00 1.158645
505.10 1.106814
505.20 1.157385
505.30 1.191074
505.40 1.184007
505.50 1.103953
505.60 1.142636
505.70 1.159045
505.80 1.206184
505.90 1.191561
506.00 1.181881
506.10 1.219049
506.20 1.219271
506.30 1.237038
506.40 1.196099
506.50 1.143271
506.60 1.154132
506.70 1.175457
506.80 1.16178
506.90 1.148506
507.00 1.185773
507.10 1.249953
507.20 1.240629
507.30 1.210385
507.40 1.240027
507.50 1.348019
507.60 1.360875
507.70 1.278418
507.80 1.167074
507.90 1.239932
508.00 1.284819
508.10 1.282321
508.20 1.176049
508.30 1.147433
508.40 1.193032
508.50 1.221995
508.60 1.269241
508.70 1.384772
508.80 1.358334
508.90 1.256323
509.00 1.238243
509.10 1.254538
509.20 1.257689
509.30 1.308122
509.40 1.411638
509.50 1.357325
509.60 1.153438
509.70 1.151463
509.80 1.318424
509.90 1.419718
510.00 1.329785
510.10 1.185356
510.20 1.176893
510.30 1.150215
510.40 1.133627
510.50 1.161807
510.60 1.208144
510.70 1.196594
510.80 1.127767
510.90 1.120287
511.00 1.208134
511.10 1.204236
511.20 1.212472
511.30 1.24326
511.40 1.285969
511.50 1.312136
511.60 1.413142
511.70 1.434927
511.80 1.409059
511.90 1.443502
512.00 1.401106
512.10 1.343493
512.20 1.384956
512.30 1.387194
512.40 1.321823
512.50 1.302021
512.60 1.271022
512.70 1.226749
512.80 1.224161
512.90 1.196016
513.00 1.190829
513.10 1.236133
513.20 1.293231
513.30 1.340803
513.40 1.373733
513.50 1.326447
513.60 1.323749
513.70 1.45857
513.80 1.555004
513.90 1.524049
514.00 1.417858
514.10 1.355377
514.20 1.37791
514.30 1.423173
514.40 1.367757
514.50 1.273928
514.60 1.20126
514.70 1.208215
514.80 1.30395
514.90 1.345789
515.00 1.379613
515.10 1.309112
515.20 1.293635
515.30 1.209634
515.40 1.103541
515.50 1.109667
515.60 1.211935
515.70 1.288342
515.80 1.443546
515.90 1.567697
516.00 1.538375
516.10 1.581815
516.20 1.703757
516.30 1.765979
516.40 1.641441
516.50 1.638745
516.60 1.645633
516.70 1.365222
516.80 0.9063883
516.90 0.6588082
517.00 0.6048939
517.10 0.6065127
517.20 0.6244463
517.30 0.6527851
517.40 0.6462105
517.50 0.6968429
517.60 0.7020397
517.70 0.6897683
517.80 0.7492177
517.90 0.7887024
518.00 0.7512913
518.10 0.7491653
518.20 0.7186282
518.30 0.7517717
518.40 0.7935932
518.50 0.8202239
518.60 0.9696177
518.70 1.075178
518.80 1.080685
518.90 1.123193
519.00 1.141433
519.10 1.129499
519.20 1.133482
519.30 1.106626
519.40 1.063166
519.50 1.108204
519.60 1.163009
519.70 1.211357
519.80 1.287023
519.90 1.273775
520.00 1.254623
520.10 1.184765
520.20 1.161256
520.30 1.144096
520.40 1.089106
520.50 0.9596058
520.60 0.8618577
520.70 0.8083231
520.80 0.8611099
520.90 0.8657966
521.00 0.794627
521.10 0.8091132
521.20 1.032046
521.30 1.292358
521.40 1.45442
521.50 1.495688
521.60 1.468675
521.70 1.48609
521.80 1.558258
521.90 1.599385
522.00 1.590014
522.10 1.59726
522.20 1.66459
522.30 1.668698
522.40 1.632413
522.50 1.524246
522.60 1.479935
522.70 1.461177
522.80 1.528438
522.90 1.606235
523.00 1.701583
523.10 1.763228
523.20 1.734111
523.30 1.687794
523.40 1.692403
523.50 1.672043
523.60 1.588747
523.70 1.624358
523.80 1.702183
523.90 1.696619
524.00 1.713147
524.10 1.63737
524.20 1.497078
524.30 1.429888
524.40 1.481916
524.50 1.52121
524.60 1.535903
524.70 1.507716
524.80 1.456364
524.90 1.431539
525.00 1.416194
525.10 1.437958
525.20 1.5171
525.30 1.584931
525.40 1.626452
525.50 1.662806
525.60 1.714178
525.70 1.730828
525.80 1.710558
525.90 1.730068
526.00 1.788376
526.10 1.681244
526.20 1.559468
526.30 1.483484
526.40 1.437916
526.50 1.372817
526.60 1.354297
526.70 1.349125
526.80 1.38663
526.90 1.355315
527.00 1.196674
527.10 1.16635
527.20 1.302086
527.30 1.504006
527.40 1.629927
527.50 1.668645
527.60 1.686807
527.70 1.670587
527.80 1.704243
527.90 1.786205
528.00 1.710176
528.10 1.629349
528.20 1.587251
528.30 1.591631
528.40 1.632153
528.50 1.707355
528.60 1.764951
528.70 1.856344
528.80 1.842022
528.90 1.829848
529.00 1.829046
529.10 1.847089
529.20 1.882071
529.30 1.817669
529.40 1.774199
529.50 1.831716
529.60 1.852031
529.70 1.782044
529.80 1.707131
529.90 1.6713
530.00 1.671971
530.10 1.689059
530.20 1.726616
530.30 1.821843
530.40 1.889987
530.50 1.953048
530.60 1.968777
530.70 1.919283
530.80 1.796964
530.90 1.755936
531.00 1.739031
531.10 1.75063
531.20 1.771641
531.30 1.789464
531.40 1.749437
531.50 1.74233
531.60 1.764311
531.70 1.788712
531.80 1.865679
531.90 1.853905
532.00 1.828924
532.10 1.810672
532.20 1.792393
532.30 1.856816
532.40 1.891369
532.50 1.810958
532.60 1.794644
532.70 1.824482
532.80 1.703906
532.90 1.46914
533.00 1.449398
533.10 1.628905
533.20 1.812666
533.30 1.84837
533.40 1.780652
533.50 1.749852
533.60 1.800145
533.70 1.806796
533.80 1.769268
533.90 1.741947
534.00 1.779538
534.10 1.792399
534.20 1.804236
534.30 1.870712
534.40 1.887202
534.50 1.888831
534.60 1.879534
534.70 1.810176
534.80 1.743813
534.90 1.813028
535.00 1.850299
535.10 1.945443
535.20 2.094306
535.30 2.160813
535.40 2.096907
535.50 2.101787
535.60 2.118925
535.70 2.104311
535.80 2.075231
535.90 1.990618
536.00 1.928072
536.10 1.889717
536.20 1.891379
536.30 1.906228
536.40 1.94585
536.50 1.920859
536.60 1.905746
536.70 1.948799
536.80 1.915894
536.90 1.972056
537.00 2.008242
537.10 1.860831
537.20 1.699938
537.30 1.703866
537.40 1.87318
537.50 2.014876
537.60 2.030366
537.70 2.001933
537.80 2.001057
537.90 2.064161
538.00 2.175627
538.10 2.240126
538.20 2.217657
538.30 2.171262
538.40 2.130148
538.50 2.132288
538.60 2.076598
538.70 2.138512
538.80 2.221507
538.90 2.290779
539.00 2.267876
539.10 2.256896
539.20 2.184501
539.30 2.107902
539.40 2.093872
539.50 2.100394
539.60 2.097404
539.70 2.023252
539.80 1.939202
539.90 1.965727
540.00 2.115528
540.10 2.270683
540.20 2.345253
540.30 2.361233
540.40 2.322993
540.50 2.273471
540.60 2.10343
540.70 1.987314
540.80 2.020157
540.90 2.11391
541.00 2.090174
541.10 1.970889
541.20 1.980003
541.30 2.024047
541.40 2.094363
541.50 2.233426
541.60 2.280801
541.70 2.254629
541.80 2.301023
541.90 2.404742
542.00 2.407388
542.10 2.293544
542.20 2.298413
542.30 2.347906
542.40 2.22517
542.50 2.19517
542.60 2.270851
542.70 2.299529
542.80 2.274793
542.90 2.250294
543.00 2.165046
543.10 2.080855
543.20 2.096821
543.30 2.167512
543.40 2.17463
543.50 2.113764
543.60 2.068082
543.70 2.180785
543.80 2.364822
543.90 2.394644
544.00 2.369699
544.10 2.39052
544.20 2.493051
544.30 2.565159
544.40 2.64172
544.50 2.595631
544.60 2.480976
544.70 2.235655
544.80 1.949766
544.90 1.664517
545.00 1.436807
545.10 1.274707
545.20 1.277777
545.30 1.291948
545.40 1.210222
545.50 1.274368
545.60 1.358066
545.70 1.337649
545.80 1.27853
545.90 1.374316
546.00 1.494876
546.10 1.518752
546.20 1.523803
546.30 1.549025
546.40 1.595197
546.50 1.637697
546.60 1.670925
546.70 1.699388
546.80 1.746079
546.90 1.752395
547.00 1.668797
547.10 1.601543
547.20 1.647608
547.30 1.664551
547.40 1.746702
547.50 1.74842
547.60 1.676515
547.70 1.615154
547.80 1.617377
547.90 1.637172
548.00 1.655769
548.10 1.704053
548.20 1.716639
548.30 1.710313
548.40 1.731691
548.50 1.784025
548.60 1.816093
548.70 1.853897
548.80 1.829066
548.90 1.812175
549.00 1.785625
549.10 1.818248
549.20 1.840058
549.30 1.863738
549.40 1.880289
549.50 1.912748
549.60 1.847965
549.70 1.695752
549.80 1.563998
549.90 1.505289
550.00 1.403676
550.10 1.3849
550.20 1.349759
550.30 1.3668
550.40 1.398644
550.50 1.334359
550.60 1.283938
550.70 1.300038
550.80 1.363373
550.90 1.383905
551.00 1.386036
551.10 1.366896
551.20 1.353771
551.30 1.349086
551.40 1.331025
551.50 1.310738
551.60 1.304998
551.70 1.373573
551.80 1.434085
551.90 1.411618
552.00 1.35919
552.10 1.381392
552.20 1.408156
552.30 1.425395
552.40 1.362224
552.50 1.300989
552.60 1.253889
552.70 1.274125
552.80 1.328686
552.90 1.327585
553.00 1.357609
553.10 1.409766
553.20 1.400578
553.30 1.359012
553.40 1.346802
553.50 1.275233
553.60 1.220203
553.70 1.216439
553.80 1.22307
553.90 1.179927
554.00 1.179777
554.10 1.271653
554.20 1.211374
554.30 1.121893
554.40 1.132363
554.50 1.213702
554.60 1.190699
554.70 1.178475
554.80 1.256542
554.90 1.352002
555.00 1.317762
555.10 1.259431
555.20 1.275942
555.30 1.290468
555.40 1.244457
555.50 1.261259
555.60 1.335779
555.70 1.443157
555.80 1.481451
555.90 1.46814
556.00 1.430737
556.10 1.447804
556.20 1.5016
556.30 1.547383
556.40 1.55399
556.50 1.590922
556.60 1.616909
556.70 1.651516
556.80 1.67166
556.90 1.618516
557.00 1.626627
557.10 1.703487
557.20 1.697993
557.30 1.698591
557.40 1.698336
557.50 1.698318
557.60 1.698318
557.70 1.698318
557.80 1.698318
557.90 1.698318
558.00 1.698318
558.10 1.698319
558.20 1.698223
558.30 1.698037
558.40 1.692804
558.50 1.716019
558.60 1.859662
558.70 1.965132
558.80 1.888298
558.90 1.735802
559.00 1.664503
559.10 1.713431
559.20 1.874469
559.30 1.934275
559.40 1.894716
559.50 1.787413
559.60 1.734099
559.70 1.792452
559.80 1.738495
559.90 1.536777
560.00 1.352154
560.10 1.352608
560.20 1.494098
560.30 1.617848
560.40 1.607992
560.50 1.505485
560.60 1.488647
560.70 1.504378
560.80 1.518853
560.90 1.538991
561.00 1.563944
561.10 1.598496
561.20 1.655178
561.30 1.690171
561.40 1.724703
561.50 1.673203
561.60 1.610574
561.70 1.552676
561.80 1.533508
561.90 1.55019
562.00 1.55192
562.10 1.519874
562.20 1.484169
562.30 1.517783
562.40 1.589179
562.50 1.674655
562.60 1.666424
562.70 1.617022
562.80 1.624767
562.90 1.579387
563.00 1.426876
563.10 1.375902
563.20 1.407147
563.30 1.457573
563.40 1.529944
563.50 1.666287
563.60 1.680836
563.70 1.617648
563.80 1.614777
563.90 1.59557
564.00 1.545798
564.10 1.55062
564.20 1.614438
564.30 1.632053
564.40 1.636212
564.50 1.651339
564.60 1.652791
564.70 1.631694
564.80 1.653556
564.90 1.673611
565.00 1.652279
565.10 1.742325
565.20 1.833485
565.30 1.829327
565.40 1.819115
565.50 1.827845
565.60 1.853265
565.70 1.951789
565.80 1.9899
565.90 1.888284
566.00 1.775178
566.10 1.812975
566.20 1.806697
566.30 1.764481
566.40 1.687761
566.50 1.643826
566.60 1.661029
566.70 1.692384
566.80 1.718402
566.90 1.700419
567.00 1.664547
567.10 1.573175
567.20 1.580885
567.30 1.620964
567.40 1.675919
567.50 1.713175
567.60 1.741806
567.70 1.715701
567.80 1.765558
567.90 1.83811
568.00 1.853961
568.10 1.79811
568.20 1.785322
568.30 1.804258
568.40 1.81933
568.50 1.863381
568.60 1.935676
568.70 2.03601
568.80 1.972049
568.90 1.82693
569.00 1.736313
569.10 1.80896
569.20 1.907853
569.30 1.942889
569.40 1.966098
569.50 1.977339
569.60 1.92753
569.70 1.925027
569.80 1.914076
569.90 1.955772
570.00 1.996436
570.10 2.010088
570.20 2.042278
570.30 2.057434
570.40 1.97537
570.50 1.957
570.60 2.035565
570.70 2.14279
570.80 2.160719
570.90 2.188678
571.00 2.247558
571.10 2.240135
571.20 2.1408
571.30 2.104467
571.40 2.075398
571.50 2.018519
571.60 1.983243
571.70 2.006921
571.80 1.986492
571.90 1.970115
572.00 1.998966
572.10 2.061049
572.20 2.012409
572.30 1.943771
572.40 2.026026
572.50 2.05585
572.60 2.024073
572.70 1.970918
572.80 2.005255
572.90 1.943484
573.00 1.970063
573.10 2.054253
573.20 2.104562
573.30 2.093986
573.40 2.157193
573.50 2.196109
573.60 2.166126
573.70 2.109591
573.80 2.065085
573.90 2.057434
574.00 2.039843
574.10 2.109458
574.20 2.123919
574.30 2.130902
574.40 2.108233
574.50 2.149605
574.60 2.198589
574.70 2.233052
574.80 2.272895
574.90 2.338087
575.00 2.390922
575.10 2.398355
575.20 2.40306
575.30 2.412733
575.40 2.421841
575.50 2.403667
575.60 2.40861
575.70 2.430522
575.80 2.387701
575.90 2.33891
576.00 2.228147
576.10 2.083887
576.20 1.949901
576.30 1.847942
576.40 1.846452
576.50 1.824442
576.60 1.773321
576.70 1.799492
576.80 1.91117
576.90 1.952905
577.00 1.941041
577.10 1.995204
577.20 2.025814
577.30 2.045097
577.40 2.051962
577.50 2.059675
577.60 1.980869
577.70 1.913076
577.80 1.97424
577.90 2.020144
578.00 2.056845
578.10 2.060368
578.20 2.090141
578.30 2.139969
578.40 2.194616
578.50 2.266584
578.60 2.247588
578.70 2.149157
578.80 2.109311
578.90 2.200796
579.00 2.191611
579.10 2.125546
579.20 2.070812
579.30 2.174161
579.40 2.240099
579.50 2.380925
579.60 2.459521
579.70 2.414687
579.80 2.40066
579.90 2.441738
580.00 2.479341
580.10 2.449525
580.20 2.405136
580.30 2.395091
580.40 2.437898
580.50 2.508845
580.60 2.470798
580.70 2.484937
580.80 2.545397
580.90 2.540807
581.00 2.515073
581.10 2.432792
581.20 2.242738
581.30 2.091476
581.40 2.013354
581.50 1.987488
581.60 1.94146
581.70 1.902925
581.80 1.84968
581.90 1.842755
582.00 1.86996
582.10 1.817157
582.20 1.815536
582.30 1.85399
582.40 1.943319
582.50 1.919506
582.60 1.881216
582.70 1.90664
582.80 1.976939
582.90 1.976672
583.00 1.980976
583.10 1.969888
583.20 1.973431
583.30 2.129555
583.40 2.179697
583.50 2.068542
583.60 2.002832
583.70 2.088796
583.80 2.074763
583.90 2.022497
584.00 2.030226
584.10 1.964479
584.20 1.979487
584.30 2.020482
584.40 2.020618
584.50 2.036156
584.60 2.038289
584.70 2.04715
584.80 1.966765
584.90 1.809689
585.00 1.654421
585.10 1.595581
585.20 1.574647
585.30 1.565724
585.40 1.579002
585.50 1.576394
585.60 1.563182
585.70 1.537495
585.80 1.488384
585.90 1.524165
586.00 1.571644
586.10 1.582489
586.20 1.576213
586.30 1.516485
586.40 1.445593
586.50 1.404465
586.60 1.369155
586.70 1.308787
586.80 1.418846
586.90 1.533271
587.00 1.543736
587.10 1.480404
587.20 1.455527
587.30 1.363544
587.40 1.27297
587.50 1.281479
587.60 1.304038
587.70 1.336952
587.80 1.323048
587.90 1.281346
588.00 1.258632
588.10 1.22406
588.20 1.140356
588.30 1.032553
588.40 1.007251
588.50 1.073928
588.60 1.029673
588.70 0.8665801
588.80 0.7029742
588.90 0.6916803
589.00 0.7433562
589.10 0.7926753
589.20 0.617332
589.30 0.5279371
589.40 0.6911654
589.50 0.7741406
589.60 0.7367684
589.70 0.6533623
589.80 0.6062869
589.90 0.6510888
590.00 0.7536866
590.10 0.8596212
590.20 0.8450671
590.30 0.9183449
590.40 1.048518
590.50 1.112129
590.60 1.101767
590.70 1.097649
590.80 1.122741
590.90 1.075113
591.00 1.065153
591.10 1.137151
591.20 1.219834
591.30 1.197087
591.40 1.162917
591.50 1.149279
591.60 1.146303
591.70 1.209271
591.80 1.277339
591.90 1.25569
592.00 1.248507
592.10 1.258943
592.20 1.268804
592.30 1.237637
592.40 1.246185
592.50 1.242203
592.60 1.229089
592.70 1.217289
592.80 1.240492
592.90 1.310397
593.00 1.323958
593.10 1.316928
593.20 1.333461
593.30 1.362193
593.40 1.366054
593.50 1.36584
593.60 1.422729
593.70 1.477871
593.80 1.516093
593.90 1.536763
594.00 1.485855
594.10 1.439818
594.20 1.444527
594.30 1.523057
594.40 1.561341
594.50 1.602199
594.60 1.578831
594.70 1.559656
594.80 1.519507
594.90 1.488771
595.00 1.436002
595.10 1.380063
595.20 1.410909
595.30 1.425485
595.40 1.385693
595.50 1.425502
595.60 1.455999
595.70 1.417379
595.80 1.359068
595.90 1.376225
596.00 1.301879
596.10 1.291725
596.20 1.39057
596.30 1.40529
596.40 1.425653
596.50 1.402804
596.60 1.445555
596.70 1.435686
596.80 1.443383
596.90 1.467895
597.00 1.514753
597.10 1.523308
597.20 1.505909
597.30 1.437915
597.40 1.393628
597.50 1.425485
597.60 1.453437
597.70 1.444404
597.80 1.502809
597.90 1.577328
598.00 1.587847
598.10 1.503414
598.20 1.540265
598.30 1.601268
598.40 1.574645
598.50 1.601724
598.60 1.649135
598.70 1.660237
598.80 1.645758
598.90 1.630824
599.00 1.631012
599.10 1.631225
599.20 1.698085
599.30 1.772926
599.40 1.810224
599.50 1.832455
599.60 1.778622
599.70 1.775484
599.80 1.821969
599.90 1.835426
600.00 1.758527
600.10 1.683876
600.20 1.674376
600.30 1.653313
600.40 1.669161
600.50 1.68188
600.60 1.724148
600.70 1.689527
600.80 1.654997
600.90 1.638797
601.00 1.639553
601.10 1.663434
601.20 1.703796
601.30 1.737251
601.40 1.766659
601.50 1.766351
601.60 1.729766
601.70 1.76644
601.80 1.783644
601.90 1.774937
602.00 1.795195
602.10 1.826478
602.20 1.828321
602.30 1.800308
602.40 1.822814
602.50 1.893033
602.60 1.933387
602.70 1.908189
602.80 1.90894
602.90 1.920749
603.00 1.90549
603.10 1.877403
603.20 1.917734
603.30 1.982577
603.40 1.991838
603.50 1.93853
603.60 1.888362
603.70 1.820648
603.80 1.707709
603.90 1.63177
604.00 1.714954
604.10 1.836153
604.20 1.910891
604.30 1.971668
604.40 2.020805
604.50 2.042211
604.60 2.081618
604.70 2.122981
604.80 2.109038
604.90 2.07145
605.00 2.142476
605.10 2.197613
605.20 2.143887
605.30 2.066885
605.40 2.056589
605.50 2.077353
605.60 2.090147
605.70 2.084411
605.80 2.090907
605.90 2.100084
606.00 2.102014
606.10 2.143526
606.20 2.223836
606.30 2.200181
606.40 2.138465
606.50 2.103564
606.60 2.038041
606.70 1.959527
606.80 2.009092
606.90 2.129528
607.00 2.211592
607.10 2.236468
607.20 2.250464
607.30 2.252668
607.40 2.145973
607.50 2.076025
607.60 2.13072
607.70 2.225592
607.80 2.288484
607.90 2.256736
608.00 2.142048
608.10 2.0574
608.20 2.023191
608.30 2.058169
608.40 2.091954
608.50 2.117165
608.60 2.143536
608.70 2.174082
608.80 2.161883
608.90 2.140144
609.00 2.147122
609.10 2.170955
609.20 2.172725
609.30 2.172962
609.40 2.225527
609.50 2.284041
609.60 2.292066
609.70 2.297336
609.80 2.316033
609.90 2.328135
610.00 2.306683
610.10 2.254231
610.20 2.189869
610.30 2.117705
610.40 2.05824
610.50 2.040512
610.60 2.113699
610.70 2.180219
610.80 2.214971
610.90 2.244947
611.00 2.282886
611.10 2.275223
611.20 2.253169
611.30 2.233552
611.40 2.240959
611.50 2.28011
611.60 2.288335
611.70 2.250088
611.80 2.185912
611.90 2.168945
612.00 2.152709
612.10 2.106569
612.20 2.03378
612.30 1.951489
612.40 1.957109
612.50 2.035793
612.60 2.162619
612.70 2.239138
612.80 2.19444
612.90 2.198356
613.00 2.230957
613.10 2.265719
613.20 2.263942
613.30 2.202198
613.40 2.16891
613.50 2.147011
613.60 2.18683
613.70 2.200962
613.80 2.191671
613.90 2.198335
614.00 2.246349
614.10 2.280807
614.20 2.265952
614.30 2.266777
614.40 2.319987
614.50 2.379188
614.60 2.393543
614.70 2.387137
614.80 2.281397
614.90 2.136119
615.00 2.018435
615.10 1.909022
615.20 1.840971
615.30 1.870855
615.40 1.944053
615.50 1.965958
615.60 1.92016
615.70 1.893963
615.80 1.834235
615.90 1.665867
616.00 1.512239
616.10 1.409796
616.20 1.310924
616.30 1.227143
616.40 1.213243
616.50 1.249098
616.60 1.232964
616.70 1.198851
616.80 1.245968
616.90 1.303986
617.00 1.297801
617.10 1.301654
617.20 1.340757
617.30 1.353638
617.40 1.340807
617.50 1.316162
617.60 1.311909
617.70 1.282163
617.80 1.319536
617.90 1.382933
618.00 1.383453
618.10 1.346862
618.20 1.33128
618.30 1.355726
618.40 1.338694
618.50 1.316976
618.60 1.293297
618.70 1.220897
618.80 1.14574
618.90 1.114909
619.00 1.128091
619.10 1.134448
619.20 1.116361
619.30 1.073334
619.40 1.06847
619.50 1.101857
619.60 1.11295
619.70 1.102954
619.80 1.142298
619.90 1.184017
620.00 1.210164
620.10 1.220859
620.20 1.194782
620.30 1.171263
620.40 1.18321
620.50 1.233191
620.60 1.29839
620.70 1.267821
620.80 1.260004
620.90 1.282059
621.00 1.292636
621.10 1.286915
621.20 1.265693
621.30 1.258493
621.40 1.21833
621.50 1.143197
621.60 1.072015
621.70 1.039421
621.80 1.065809
621.90 1.07164
622.00 1.103457
622.10 1.149433
622.20 1.151268
622.30 1.111666
622.40 1.040531
622.50 0.9818465
622.60 0.9608002
622.70 1.011836
622.80 1.016419
622.90 1.031205
623.00 1.067758
623.10 1.048598
623.20 1.031733
623.30 1.065672
623.40 1.083723
623.50 1.068514
623.60 1.060251
623.70 1.127141
623.80 1.131456
623.90 1.093428
624.00 1.086794
624.10 1.108278
624.20 1.130992
624.30 1.126353
624.40 1.182395
624.50 1.17743
624.60 1.147529
624.70 1.129904
624.80 1.118326
624.90 1.176349
625.00 1.199265
625.10 1.175905
625.20 1.177188
625.30 1.221442
625.40 1.263625
625.50 1.283353
625.60 1.288276
625.70 1.286392
625.80 1.302039
625.90 1.307791
626.00 1.320281
626.10 1.300446
626.20 1.302416
626.30 1.371278
626.40 1.430598
626.50 1.467679
626.60 1.502318
626.70 1.526406
626.80 1.464107
626.90 1.384471
627.00 1.383483
627.10 1.420954
627.20 1.450585
627.30 1.488402
627.40 1.520749
627.50 1.504056
627.60 1.426881
627.70 1.379629
627.80 1.396504
627.90 1.420395
628.00 1.421231
628.10 1.431427
628.20 1.463748
628.30 1.469054
628.40 1.513584
628.50 1.549692
628.60 1.591163
628.70 1.624879
628.80 1.640016
628.90 1.675824
629.00 1.720645
629.10 1.750085
629.20 1.729982
629.30 1.718073
629.40 1.738325
629.50 1.743709
629.60 1.698797
629.70 1.753981
629.80 1.839138
629.90 1.794738
630.00 1.801363
630.10 2.066513
630.20 2.357498
630.30 2.07241
630.40 1.781124
630.50 1.866461
630.60 1.986886
630.70 2.018216
630.80 2.054014
630.90 2.110877
631.00 2.112662
631.10 2.079437
631.20 2.131185
631.30 2.20613
631.40 2.2554
631.50 2.276332
631.60 2.291333
631.70 2.301551
631.80 2.31194
631.90 2.342541
632.00 2.344641
632.10 2.315665
632.20 2.321607
632.30 2.32404
632.40 2.261607
632.50 2.248309
632.60 2.288821
632.70 2.32147
632.80 2.377425
632.90 2.416757
633.00 2.407135
633.10 2.386239
633.20 2.402686
633.30 2.43129
633.40 2.471422
633.50 2.52306
633.60 2.571159
633.70 2.542627
633.80 2.515747
633.90 2.552943
634.00 2.629591
634.10 2.656566
634.20 2.667674
634.30 2.710783
634.40 2.760312
634.50 2.792802
634.60 2.76719
634.70 2.769291
634.80 2.811265
634.90 2.85645
635.00 2.857875
635.10 2.85623
635.20 2.826947
635.30 2.7403
635.40 2.660439
635.50 2.622681
635.60 2.632555
635.70 2.59661
635.80 2.510314
635.90 2.436437
636.00 2.420423
636.10 2.4021
636.20 2.400497
636.30 2.465423
636.40 2.593526
636.50 2.616382
636.60 2.470428
636.70 2.398582
636.80 2.432099
636.90 2.470819
637.00 2.470898
637.10 2.482088
637.20 2.502497
637.30 2.569053
637.40 2.626706
637.50 2.595267
637.60 2.552435
637.70 2.534923
637.80 2.528015
637.90 2.500391
638.00 2.430332
638.10 2.349448
638.20 2.27176
638.30 2.204818
638.40 2.202014
638.50 2.258606
638.60 2.266329
638.70 2.231164
638.80 2.218937
638.90 2.215005
639.00 2.210144
639.10 2.249691
639.20 2.339587
639.30 2.417903
639.40 2.454645
639.50 2.522103
639.60 2.604687
639.70 2.693728
639.80 2.738276
639.90 2.762269
640.00 2.795812
640.10 2.802972
640.20 2.820939
640.30 2.839743
640.40 2.888535
640.50 2.950229
640.60 3.001305
640.70 3.035855
640.80 3.04759
640.90 3.066854
641.00 3.079939
641.10 3.072495
641.20 3.07172
641.30 3.092255
641.40 3.079923
641.50 3.05765
641.60 3.02288
641.70 2.947701
641.80 2.911008
641.90 2.912729
642.00 2.899815
642.10 2.86572
642.20 2.822973
642.30 2.810278
642.40 2.843108
642.50 2.891794
642.60 2.918981
642.70 2.928933
642.80 2.920622
642.90 2.920993
643.00 2.944165
643.10 2.989382
643.20 3.012371
643.30 3.00877
643.40 3.027142
643.50 3.060474
643.60 3.09043
643.70 3.103647
643.80 3.052673
643.90 3.010506
644.00 2.973342
644.10 2.958517
644.20 3.022037
644.30 3.171622
644.40 3.335743
644.50 3.428651
644.60 3.464137
644.70 3.426361
644.80 3.316768
644.90 3.174871
645.00 3.060105
645.10 3.010395
645.20 3.060279
645.30 3.156432
645.40 3.279346
645.50 3.365255
645.60 3.362836
645.70 3.355758
645.80 3.381428
645.90 3.428226
646.00 3.435879
646.10 3.399514
646.20 3.31883
646.30 3.212802
646.40 3.185571
646.50 3.247348
646.60 3.358228
646.70 3.463205
646.80 3.560571
646.90 3.640413
647.00 3.654312
647.10 3.636084
647.20 3.620478
647.30 3.618525
647.40 3.675545
647.50 3.724965
647.60 3.77393
647.70 3.814624
647.80 3.80774
647.90 3.757136
648.00 3.637438
648.10 3.50917
648.20 3.435869
648.30 3.415436
648.40 3.376404
648.50 3.301392
648.60 3.250145
648.70 3.251521
648.80 3.294645
648.90 3.357213
649.00 3.441073
649.10 3.492326
649.20 3.494401
649.30 3.461828
649.40 3.421879
649.50 3.350626
649.60 3.268004
649.70 3.274285
649.80 3.402635
649.90 3.492893
650.00 3.521747
650.10 3.525609
650.20 3.566053
650.30 3.682365
650.40 3.813734
650.50 3.898181
650.60 3.891011
650.70 3.872727
650.80 3.909864
650.90 3.957179
651.00 3.999153
651.10 4.043608
651.20 4.054111
651.30 4.006829
651.40 3.908273
651.50 3.827696
651.60 3.7959
651.70 3.852563
651.80 3.934673
651.90 3.994574
652.00 4.047461
652.10 4.094802
652.20 4.121024
652.30 4.148547
652.40 4.203717
652.50 4.245538
652.60 4.273036
652.70 4.291649
652.80 4.328308
652.90 4.3756
653.00 4.388021
653.10 4.396913
653.20 4.401476
653.30 4.401805
653.40 4.459709
653.50 4.493714
653.60 4.514212
653.70 4.576171
653.80 4.646892
653.90 4.711651
654.00 4.781473
654.10 4.830317
654.20 4.832909
654.30 4.756924
654.40 4.605828
654.50 4.453155
654.60 4.353437
654.70 4.263688
654.80 4.188473
654.90 4.148293
655.00 4.110085
655.10 4.058575
655.20 3.977693
655.30 3.940961
655.40 3.941873
655.50 3.92376
655.60 3.893975
655.70 3.914766
655.80 4.024051
655.90 4.118131
656.00 4.195507
656.10 4.366363
656.20 4.705581
656.30 5.224639
656.40 5.691006
656.50 5.690164
656.60 5.123161
656.70 4.360306
656.80 3.865036
656.90 3.722956
657.00 3.704713
657.10 3.695835
657.20 3.603905
657.30 3.468306
657.40 3.380103
657.50 3.35811
657.60 3.44173
657.70 3.592972
657.80 3.653934
657.90 3.617781
658.00 3.505641
658.10 3.394245
658.20 3.394188
658.30 3.474976
658.40 3.555075
658.50 3.623652
658.60 3.701691
658.70 3.764751
658.80 3.79465
658.90 3.847106
659.00 3.907645
659.10 3.90989
659.20 3.855619
659.30 3.767289
659.40 3.631349
659.50 3.476965
659.60 3.413668
659.70 3.471687
659.80 3.560311
659.90 3.579867
660.00 3.546306
660.10 3.519408
660.20 3.523762
660.30 3.581116
660.40 3.652125
660.50 3.661134
660.60 3.592754
660.70 3.513894
660.80 3.468147
660.90 3.470436
661.00 3.490201
661.10 3.540867
661.20 3.605306
661.30 3.613725
661.40 3.599454
661.50 3.614214
661.60 3.638774
661.70 3.602577
661.80 3.51002
661.90 3.428184
662.00 3.357329
662.10 3.314251
662.20 3.31168
662.30 3.317622
662.40 3.314664
662.50 3.254265
662.60 3.141545
662.70 3.041131
662.80 2.988603
662.90 2.975373
663.00 3.000183
663.10 3.085782
663.20 3.208359
663.30 3.28845
663.40 3.29593
663.50 3.24498
663.60 3.134211
663.70 3.00098
663.80 2.881898
663.90 2.850668
664.00 2.903078
664.10 2.972693
664.20 3.037046
664.30 3.09283
664.40 3.141455
664.50 3.155046
664.60 3.137919
664.70 3.134204
664.80 3.130159
664.90 3.100708
665.00 2.997251
665.10 2.821497
665.20 2.64303
665.30 2.489257
665.40 2.407902
665.50 2.396973
665.60 2.448821
665.70 2.53057
665.80 2.53358
665.90 2.50163
666.00 2.496282
666.10 2.561759
666.20 2.640144
666.30 2.647543
666.40 2.654261
666.50 2.708164
666.60 2.759041
666.70 2.817946
666.80 2.857691
666.90 2.904798
667.00 2.957578
667.10 2.973211
667.20 2.95922
667.30 2.931288
667.40 2.91494
667.50 2.899885
667.60 2.87818
667.70 2.873795
667.80 2.893339
667.90 2.915598
668.00 2.839606
668.10 2.671416
668.20 2.465405
668.30 2.286163
668.40 2.216325
668.50 2.22432
668.60 2.283818
668.70 2.333965
668.80 2.346918
668.90 2.393172
669.00 2.415471
669.10 2.420441
669.20 2.429241
669.30 2.408927
669.40 2.375485
669.50 2.353321
669.60 2.391412
669.70 2.451049
669.80 2.499533
669.90 2.537511
670.00 2.542669
670.10 2.55212
670.20 2.556037
670.30 2.553991
670.40 2.580488
670.50 2.601423
670.60 2.629417
670.70 2.664973
670.80 2.644243
670.90 2.672127
671.00 2.723826
671.10 2.709646
671.20 2.695751
671.30 2.66986
671.40 2.599476
671.50 2.467024
671.60 2.312145
671.70 2.193434
671.80 2.09064
671.90 2.002309
672.00 1.983646
672.10 1.995448
672.20 1.999367
672.30 2.011972
672.40 2.053332
672.50 2.128851
672.60 2.164158
672.70 2.188399
672.80 2.228108
672.90 2.243836
673.00 2.240927
673.10 2.227367
673.20 2.243641
673.30 2.28456
673.40 2.300722
673.50 2.300461
673.60 2.307876
673.70 2.320491
673.80 2.334826
673.90 2.363221
674.00 2.40709
674.10 2.440631
674.20 2.4372
674.30 2.439257
674.40 2.463262
674.50 2.4862
674.60 2.493946
674.70 2.436362
674.80 2.329565
674.90 2.209625
675.00 2.109202
675.10 2.088046
675.20 2.113589
675.30 2.172875
675.40 2.22982
675.50 2.256749
675.60 2.27739
675.70 2.298231
675.80 2.309976
675.90 2.321936
676.00 2.313005
676.10 2.29202
676.20 2.307647
676.30 2.352783
676.40 2.400387
676.50 2.448746
676.60 2.499421
676.70 2.540616
676.80 2.564086
676.90 2.565621
677.00 2.544572
677.10 2.559451
677.20 2.568917
677.30 2.561556
677.40 2.582399
677.50 2.625661
677.60 2.68498
677.70 2.719584
677.80 2.704579
677.90 2.674484
678.00 2.647982
678.10 2.611345
678.20 2.53816
678.30 2.400718
678.40 2.250757
678.50 2.152965
678.60 2.125919
678.70 2.140398
678.80 2.146421
678.90 2.161109
679.00 2.193527
679.10 2.23044
679.20 2.275422
679.30 2.285071
679.40 2.277279
679.50 2.28662
679.60 2.309796
679.70 2.331062
679.80 2.315718
679.90 2.309431
680.00 2.339925
680.10 2.392797
680.20 2.429267
680.30 2.430305
680.40 2.422566
680.50 2.408606
680.60 2.395543
680.70 2.401953
680.80 2.410332
680.90 2.422072
681.00 2.431207
681.10 2.44835
681.20 2.482394
681.30 2.520829
681.40 2.552678
681.50 2.549472
681.60 2.490109
681.70 2.383751
681.80 2.299214
681.90 2.308066
682.00 2.368205
682.10 2.40031
682.20 2.416675
682.30 2.407236
682.40 2.393893
682.50 2.395205
682.60 2.416058
682.70 2.451778
682.80 2.496189
682.90 2.544323
683.00 2.53995
683.10 2.507203
683.20 2.481913
683.30 2.515474
683.40 2.579187
683.50 2.592049
683.60 2.576971
683.70 2.51325
683.80 2.496407
683.90 2.538554
684.00 2.551902
684.10 2.578836
684.20 2.610619
684.30 2.619137
684.40 2.623153
684.50 2.618259
684.60 2.637159
684.70 2.64125
684.80 2.590832
684.90 2.568346
685.00 2.571906
685.10 2.547723
685.20 2.453433
685.30 2.341257
685.40 2.31905
685.50 2.367371
685.60 2.389772
685.70 2.381512
685.80 2.385266
685.90 2.392376
686.00 2.385581
686.10 2.357523
686.20 2.360524
686.30 2.411171
686.40 2.485527
686.50 2.5877
686.60 2.658969
686.70 2.647003
686.80 2.596696
686.90 2.521151
687.00 2.462024
687.10 2.424112
687.20 2.444711
687.30 2.509006
687.40 2.570696
687.50 2.643764
687.60 2.688473
687.70 2.713636
687.80 2.768044
687.90 2.804132
688.00 2.803854
688.10 2.806179
688.20 2.782512
688.30 2.739782
688.40 2.688126
688.50 2.627626
688.60 2.577808
688.70 2.554487
688.80 2.577278
688.90 2.656583
689.00 2.732061
689.10 2.767145
689.20 2.75807
689.30 2.749844
689.40 2.769472
689.50 2.819951
689.60 2.854137
689.70 2.858246
689.80 2.87273
689.90 2.853058
690.00 2.798744
690.10 2.734192
690.20 2.632349
690.30 2.549111
690.40 2.556426
690.50 2.678062
690.60 2.851158
690.70 3.005274
690.80 3.096615
690.90 3.115736
691.00 3.112762
691.10 3.114591
691.20 3.111177
691.30 3.107449
691.40 3.12211
691.50 3.169964
691.60 3.199465
691.70 3.158312
691.80 3.045869
691.90 2.873157
692.00 2.711189
692.10 2.682096
692.20 2.835286
692.30 3.067704
692.40 3.269531
692.50 3.357491
692.60 3.358577
692.70 3.36765
692.80 3.37101
692.90 3.354094
693.00 3.380273
693.10 3.431785
693.20 3.498275
693.30 3.606662
693.40 3.675683
693.50 3.680965
693.60 3.653102
693.70 3.624676
693.80 3.616786
693.90 3.626322
694.00 3.666362
694.10 3.722966
694.20 3.80961
694.30 3.891521
694.40 3.960955
694.50 4.050477
694.60 4.081696
694.70 4.102191
694.80 4.213887
694.90 4.318334
695.00 4.341722
695.10 4.285335
695.20 4.203871
695.30 4.098832
695.40 4.011843
695.50 3.984387
695.60 3.971608
695.70 3.969089
695.80 3.953335
695.90 3.946338
696.00 3.969243
696.10 4.00372
696.20 4.008287
696.30 4.008197
696.40 4.050709
696.50 4.12249
696.60 4.186063
696.70 4.213884
696.80 4.230664
696.90 4.254658
697.00 4.24294
697.10 4.188993
697.20 4.147344
697.30 4.128847
697.40 4.149464
697.50 4.201324
697.60 4.284325
697.70 4.38976
697.80 4.451458
697.90 4.457778
698.00 4.460348
698.10 4.433793
698.20 4.417616
698.30 4.476446
698.40 4.525257
698.50 4.555459
698.60 4.583034
698.70 4.587468
698.80 4.575376
698.90 4.560191
699.00 4.52577
699.10 4.459849
699.20 4.399551
699.30 4.359497
699.40 4.357734
699.50 4.401352
699.60 4.445482
699.70 4.498935
699.80 4.544883
699.90 4.544979
700.00 4.510306
700.10 4.519813
700.20 4.588453
700.30 4.66002
700.40 4.692322
700.50 4.648977
700.60 4.563148
700.70 4.546241
700.80 4.63587
700.90 4.731097
701.00 4.75739
701.10 4.748788
701.20 4.76477
701.30 4.835214
701.40 4.974677
701.50 5.106087
701.60 5.132771
701.70 5.071279
701.80 5.007775
701.90 5.012599
702.00 5.092955
702.10 5.200075
702.20 5.258838
702.30 5.231574
702.40 5.122323
702.50 4.976037
702.60 4.863832
702.70 4.862694
702.80 5.031802
702.90 5.322482
703.00 5.591291
703.10 5.714072
703.20 5.699636
703.30 5.651173
703.40 5.626725
703.50 5.682007
703.60 5.843011
703.70 6.042968
703.80 6.182797
703.90 6.214713
704.00 6.189296
704.10 6.205065
704.20 6.281126
704.30 6.406596
704.40 6.52156
704.50 6.563156
704.60 6.554678
704.70 6.547632
704.80 6.589083
704.90 6.646613
705.00 6.643552
705.10 6.6564
705.20 6.649462
705.30 6.492343
705.40 6.062324
705.50 5.298348
705.60 4.427826
705.70 3.775747
705.80 3.507504
705.90 3.56495
706.00 3.664393
706.10 3.574577
706.20 3.403855
706.30 3.313538
706.40 3.36775
706.50 3.485163
706.60 3.583777
706.70 3.689167
706.80 3.802369
706.90 3.877397
707.00 3.891283
707.10 3.925531
707.20 4.016991
707.30 4.111721
707.40 4.157095
707.50 4.160418
707.60 4.154118
707.70 4.168452
707.80 4.166855
707.90 4.159249
708.00 4.220244
708.10 4.30227
708.20 4.33066
708.30 4.350501
708.40 4.378091
708.50 4.420817
708.60 4.43995
708.70 4.280073
708.80 3.895369
708.90 3.372631
709.00 2.882982
709.10 2.595928
709.20 2.56395
709.30 2.697878
709.40 2.836441
709.50 2.880836
709.60 2.838254
709.70 2.77478
709.80 2.787108
709.90 2.880247
710.00 2.983098
710.10 3.034399
710.20 3.019907
710.30 2.988413
710.40 2.987709
710.50 3.016607
710.60 3.090709
710.70 3.177644
710.80 3.25838
710.90 3.381421
711.00 3.526143
711.10 3.640758
711.20 3.707901
711.30 3.72315
711.40 3.715179
711.50 3.71414
711.60 3.694393
711.70 3.661717
711.80 3.661095
711.90 3.725172
712.00 3.830462
712.10 3.93717
712.20 4.020256
712.30 4.065016
712.40 4.010796
712.50 3.771518
712.60 3.32423
712.70 2.773789
712.80 2.340754
712.90 2.174332
713.00 2.223156
713.10 2.3226
713.20 2.363262
713.30 2.305437
713.40 2.233718
713.50 2.232756
713.60 2.293754
713.70 2.357662
713.80 2.391814
713.90 2.377127
714.00 2.353791
714.10 2.385241
714.20 2.466515
714.30 2.581775
714.40 2.665854
714.50 2.689168
714.60 2.671009
714.70 2.62702
714.80 2.607047
714.90 2.62387
715.00 2.657904
715.10 2.699958
715.20 2.766897
715.30 2.862042
715.40 2.953685
715.50 3.036091
715.60 3.117983
715.70 3.179734
715.80 3.178018
715.90 3.091489
716.00 2.953788
716.10 2.833435
716.20 2.787218
716.30 2.834347
716.40 2.912656
716.50 2.94865
716.60 2.937257
716.70 2.922795
716.80 2.920697
716.90 2.929214
717.00 2.976655
717.10 3.049286
717.20 3.12883
717.30 3.206404
717.40 3.247492
717.50 3.230258
717.60 3.197004
717.70 3.18389
717.80 3.190534
717.90 3.233788
718.00 3.297278
718.10 3.353409
718.20 3.400841
718.30 3.455699
718.40 3.500975
718.50 3.556537
718.60 3.644855
718.70 3.694028
718.80 3.705774
718.90 3.716296
719.00 3.738565
719.10 3.782126
719.20 3.801393
719.30 3.802387
719.40 3.809335
719.50 3.840068
719.60 3.844003
719.70 3.719068
719.80 3.512215
719.90 3.343615
720.00 3.265435
720.10 3.238014
720.20 3.22443
720.30 3.237321
720.40 3.266091
720.50 3.278042
720.60 3.282132
720.70 3.287198
720.80 3.313746
720.90 3.350577
721.00 3.368137
721.10 3.391348
721.20 3.427435
721.30 3.482191
721.40 3.545408
721.50 3.585973
721.60 3.618158
721.70 3.625198
721.80 3.652473
721.90 3.748626
722.00 3.813762
722.10 3.852543
722.20 3.910231
722.30 3.950356
722.40 3.981093
722.50 4.0072
722.60 4.063239
722.70 4.180254
722.80 4.264616
722.90 4.262234
723.00 4.199122
723.10 4.127686
723.20 4.082649
723.30 4.064255
723.40 4.069326
723.50 4.106397
723.60 4.186446
723.70 4.308308
723.80 4.410199
723.90 4.473976
724.00 4.508824
724.10 4.462941
724.20 4.390204
724.30 4.39154
724.40 4.471884
724.50 4.575262
724.60 4.621799
724.70 4.624015
724.80 4.635811
724.90 4.698822
725.00 4.823964
725.10 4.939494
725.20 4.950905
725.30 4.872535
725.40 4.810413
725.50 4.855687
725.60 4.964361
725.70 5.053162
725.80 5.079718
725.90 5.052257
726.00 5.029296
726.10 5.045748
726.20 5.11455
726.30 5.232296
726.40 5.34486
726.50 5.399263
726.60 5.40464
726.70 5.416614
726.80 5.4625
726.90 5.495502
727.00 5.465972
727.10 5.353056
727.20 5.171099
727.30 5.009698
727.40 5.017243
727.50 5.229334
727.60 5.538122
727.70 5.763443
727.80 5.671131
727.90 5.374342
728.00 5.265727
728.10 5.327827
728.20 5.37128
728.30 5.428042
728.40 5.538229
728.50 5.649881
728.60 5.700259
728.70 5.724076
728.80 5.786245
728.90 5.828133
729.00 5.861845
729.10 5.912551
729.20 5.952842
729.30 5.970846
729.40 5.947998
729.50 5.933909
729.60 5.982962
729.70 6.074016
729.80 6.179495
729.90 6.228089
730.00 6.170428
730.10 6.110602
730.20 6.142795
730.30 6.248738
730.40 6.332505
730.50 6.330822
730.60 6.325369
730.70 6.373875
730.80 6.456922
730.90 6.501286
731.00 6.491048
731.10 6.473538
731.20 6.459743
731.30 6.504343
731.40 6.621062
731.50 6.743524
731.60 6.801683
731.70 6.83968
731.80 6.871089
731.90 6.872848
732.00 6.854592
732.10 6.847757
732.20 6.864562
732.30 6.894781
732.40 6.938035
732.50 6.897162
732.60 6.741774
732.70 6.565166
732.80 6.506036
732.90 6.662209
733.00 6.877329
733.10 6.988564
733.20 7.051671
733.30 7.093677
733.40 7.12638
733.50 7.178416
733.60 7.241623
733.70 7.306846
733.80 7.352356
733.90 7.392887
734.00 7.497696
734.10 7.640244
734.20 7.685364
734.30 7.585336
734.40 7.402426
734.50 7.226929
734.60 7.153385
734.70 7.181363
734.80 7.240139
734.90 7.297563
735.00 7.355997
735.10 7.425212
735.20 7.48303
735.30 7.50987
735.40 7.50985
735.50 7.47603
735.60 7.40399
735.70 7.314021
735.80 7.246384
735.90 7.271589
736.00 7.404413
736.10 7.552073
736.20 7.612045
736.30 7.588457
736.40 7.610177
736.50 7.685555
736.60 7.721426
736.70 7.753014
736.80 7.785281
736.90 7.900906
737.00 8.072799
737.10 8.101023
737.20 8.029174
737.30 7.951914
737.40 7.938879
737.50 7.946835
737.60 7.934362
737.70 7.959888
737.80 8.013575
737.90 8.069247
738.00 8.108929
738.10 8.12137
738.20 8.098752
738.30 8.0551
738.40 8.029089
738.50 8.055485
738.60 8.121048
738.70 8.187885
738.80 8.251686
738.90 8.304912
739.00 8.342246
739.10 8.356615
739.20 8.313666
739.30 8.24461
739.40 8.184122
739.50 8.124609
739.60 8.098511
739.70 8.127258
739.80 8.172926
739.90 8.224662
740.00 8.242962
740.10 8.236613
740.20 8.26432
740.30 8.306823
740.40 8.358511
740.50 8.379769
740.60 8.326065
740.70 8.202737
740.80 8.120797
740.90 8.16272
741.00 8.244509
741.10 8.290014
741.20 8.319066
741.30 8.367937
741.40 8.418457
741.50 8.438864
741.60 8.425397
741.70 8.385315
741.80 8.309791
741.90 8.214291
742.00 8.19257
742.10 8.267318
742.20 8.338763
742.30 8.369125
742.40 8.352866
742.50 8.337327
742.60 8.386135
742.70 8.463435
742.80 8.551498
742.90 8.607344
743.00 8.618103
743.10 8.650218
743.20 8.678677
743.30 8.651876
743.40 8.577421
743.50 8.48391
743.60 8.400116
743.70 8.371335
743.80 8.439193
743.90 8.620896
744.00 8.826221
744.10 8.855407
744.20 8.694914
744.30 8.542463
744.40 8.498009
744.50 8.505746
744.60 8.502002
744.70 8.461944
744.80 8.408232
744.90 8.35926
745.00 8.318595
745.10 8.334537
745.20 8.438555
745.30 8.575063
745.40 8.638966
745.50 8.610778
745.60 8.545928
745.70 8.519198
745.80 8.588854
745.90 8.680691
746.00 8.69751
746.10 8.650441
746.20 8.592015
746.30 8.550042
746.40 8.537618
746.50 8.559933
746.60 8.614978
746.70 8.669697
746.80 8.695274
746.90 8.733775
747.00 8.804388
747.10 8.885426
747.20 8.929756
747.30 8.903636
747.40 8.820403
747.50 8.718212
747.60 8.65916
747.70 8.676001
747.80 8.769816
747.90 8.871526
748.00 8.884796
748.10 8.8289
748.20 8.77873
748.30 8.788439
748.40 8.888767
748.50 8.989203
748.60 8.974749
748.70 8.876612
748.80 8.737864
748.90 8.648896
749.00 8.687885
749.10 8.755717
749.20 8.783788
749.30 8.776748
749.40 8.729841
749.50 8.675508
749.60 8.651562
749.70 8.66768
749.80 8.764695
749.90 8.943977
750.00 9.106321
750.10 9.1959
750.20 9.219691
750.30 9.186791
750.40 9.168606
750.50 9.182318
750.60 9.145227
750.70 9.028704
750.80 8.929673
750.90 8.937965
751.00 9.065477
751.10 9.215964
751.20 9.256787
751.30 9.199721
751.40 9.131464
751.50 9.143659
751.60 9.246524
751.70 9.368727
751.80 9.421521
751.90 9.350689
752.00 9.224764
752.10 9.148993
752.20 9.144259
752.30 9.223924
752.40 9.38714
752.50 9.469854
752.60 9.362803
752.70 9.136055
752.80 8.889441
752.90 8.773227
753.00 8.848986
753.10 9.048875
753.20 9.247701
753.30 9.338921
753.40 9.322141
753.50 9.248745
753.60 9.222834
753.70 9.288361
753.80 9.378293
753.90 9.493998
754.00 9.637202
754.10 9.726795
754.20 9.730457
754.30 9.693282
754.40 9.658966
754.50 9.667724
754.60 9.706847
754.70 9.715305
754.80 9.685109
754.90 9.650982
755.00 9.6425
755.10 9.652261
755.20 9.662303
755.30 9.673291
755.40 9.666395
755.50 9.635921
755.60 9.595126
755.70 9.590774
755.80 9.637449
755.90 9.658555
756.00 9.67033
756.10 9.71975
756.20 9.732876
756.30 9.689929
756.40 9.624073
756.50 9.536496
756.60 9.455708
756.70 9.390967
756.80 9.305804
756.90 9.228928
757.00 9.241401
757.10 9.36753
757.20 9.595445
757.30 9.86267
757.40 9.999555
757.50 9.99517
757.60 9.913651
757.70 9.779843
757.80 9.690438
757.90 9.644227
758.00 9.624529
758.10 9.708042
758.20 9.895737
758.30 10.04833
758.40 10.09038
758.50 10.07258
758.60 10.05862
758.70 10.01081
758.80 9.798237
758.90 9.333161
759.00 8.609176
759.10 7.84909
759.20 7.353448
759.30 7.226425
759.40 7.388569
759.50 7.603282
759.60 7.737202
759.70 7.804213
759.80 7.880452
759.90 8.005553
760.00 8.091055
760.10 8.102449
760.20 7.964316
760.30 7.73631
760.40 7.729152
760.50 7.910009
760.60 8.06038
760.70 8.098496
760.80 7.953841
760.90 7.812552
761.00 7.820792
761.10 7.884916
761.20 8.029362
761.30 8.295517
761.40 8.553761
761.50 8.652206
761.60 8.572999
761.70 8.463234
761.80 8.565325
761.90 8.825208
762.00 9.027312
762.10 9.072443
762.20 8.961602
762.30 8.808574
762.40 8.738965
762.50 8.78108
762.60 8.780406
762.70 8.565199
762.80 8.081922
762.90 7.461502
763.00 6.948161
763.10 6.653205
763.20 6.610626
763.30 6.769698
763.40 6.970928
763.50 7.068736
763.60 7.024049
763.70 6.963163
763.80 6.987694
763.90 7.074732
764.00 7.103891
764.10 6.989987
764.20 6.900827
764.30 7.010332
764.40 7.163575
764.50 7.167538
764.60 7.029542
764.70 6.941889
764.80 7.062024
764.90 7.205444
765.00 7.174245
765.10 7.034439
765.20 6.938299
765.30 6.990621
765.40 7.060551
765.50 6.969139
765.60 6.835626
765.70 6.863638
765.80 7.03619
765.90 7.161189
766.00 7.012467
766.10 6.618498
766.20 6.159209
766.30 5.650451
766.40 5.034869
766.50 4.27457
766.60 3.535353
766.70 3.172134
766.80 3.315962
766.90 3.851078
767.00 4.498431
767.10 4.962871
767.20 5.136742
767.30 5.079851
767.40 5.00613
767.50 5.046394
767.60 5.184253
767.70 5.324588
767.80 5.424164
767.90 5.543982
768.00 5.65479
768.10 5.724675
768.20 5.786367
768.30 5.822012
768.40 5.832511
768.50 5.84967
768.60 5.879165
768.70 5.92129
768.80 5.97956
768.90 6.027268
769.00 6.028923
769.10 6.019582
769.20 6.028168
769.30 6.037597
769.40 6.0419
769.50 5.999695
769.60 5.830899
769.70 5.480023
769.80 4.950377
769.90 4.319772
770.00 3.771004
770.10 3.544055
770.20 3.763258
770.30 4.331496
770.40 4.941987
770.50 5.354478
770.60 5.526947
770.70 5.529471
770.80 5.507894
770.90 5.553938
771.00 5.677494
771.10 5.846742
771.20 6.006118
771.30 6.132065
771.40 6.227426
771.50 6.196791
771.60 6.079327
771.70 6.092237
771.80 6.226717
771.90 6.356139
772.00 6.347306
772.10 6.228821
772.20 6.234864
772.30 6.343402
772.40 6.417259
772.50 6.467642
772.60 6.548737
772.70 6.662779
772.80 6.743579
772.90 6.772448
773.00 6.797257
773.10 6.8388
773.20 6.875533
773.30 6.898084
773.40 6.942022
773.50 7.012281
773.60 7.068729
773.70 7.104966
773.80 7.121592
773.90 7.14444
774.00 7.18926
774.10 7.224248
774.20 7.206423
774.30 7.104659
774.40 6.937402
774.50 6.754471
774.60 6.580597
774.70 6.436764
774.80 6.334698
774.90 6.256807
775.00 6.203747
775.10 6.091477
775.20 5.904145
775.30 5.803084
775.40 5.8078
775.50 5.874293
775.60 5.989734
775.70 6.072846
775.80 6.079829
775.90 6.062387
776.00 6.111947
776.10 6.204427
776.20 6.258683
776.30 6.241157
776.40 6.168426
776.50 6.118791
776.60 6.116432
776.70 6.156505
776.80 6.260141
776.90 6.402653
777.00 6.516577
777.10 6.571304
777.20 6.581822
777.30 6.596925
777.40 6.661952
777.50 6.721759
777.60 6.735935
777.70 6.734473
777.80 6.733162
777.90 6.733669
778.00 6.751616
778.10 6.749791
778.20 6.651014
778.30 6.492692
778.40 6.341883
778.50 6.226129
778.60 6.16899
778.70 6.156847
778.80 6.177654
778.90 6.226561
779.00 6.280905
779.10 6.325213
779.20 6.393821
779.30 6.540438
779.40 6.726038
779.50 6.860081
779.60 6.902925
779.70 6.783398
779.80 6.586915
779.90 6.493876
780.00 6.454974
780.10 6.417103
780.20 6.404102
780.30 6.476947
780.40 6.689639
780.50 6.935422
780.60 7.133224
780.70 7.305167
780.80 7.4437
780.90 7.524568
781.00 7.503409
781.10 7.378805
781.20 7.251575
781.30 7.221357
781.40 7.290986
781.50 7.422289
781.60 7.551945
781.70 7.613595
781.80 7.60676
781.90 7.57428
782.00 7.581786
782.10 7.609028
782.20 7.522131
782.30 7.281013
782.40 7.074724
782.50 7.036896
782.60 7.078747
782.70 7.108187
782.80 7.042993
782.90 6.844402
783.00 6.61294
783.10 6.458449
783.20 6.402032
783.30 6.447356
783.40 6.566209
783.50 6.673698
783.60 6.729482
783.70 6.757889
783.80 6.794041
783.90 6.868499
784.00 6.959373
784.10 7.000859
784.20 7.007871
784.30 7.023291
784.40 7.021843
784.50 7.009264
784.60 7.052352
784.70 7.166078
784.80 7.279765
784.90 7.309054
785.00 7.278147
785.10 7.273045
785.20 7.356761
785.30 7.517364
785.40 7.618619
785.50 7.548304
785.60 7.39603
785.70 7.317302
785.80 7.33279
785.90 7.423843
786.00 7.533361
786.10 7.5509
786.20 7.461588
786.30 7.332742
786.40 7.194086
786.50 7.123093
786.60 7.144452
786.70 7.226213
786.80 7.390591
786.90 7.544615
787.00 7.598255
787.10 7.521431
787.20 7.37235
787.30 7.316913
787.40 7.338579
787.50 7.36053
787.60 7.415801
787.70 7.545223
787.80 7.709198
787.90 7.802239
788.00 7.817729
788.10 7.828113
788.20 7.893089
788.30 7.960954
788.40 7.950004
788.50 7.911665
788.60 7.901906
788.70 7.913413
788.80 7.954874
788.90 8.033576
789.00 8.117668
789.10 8.181663
789.20 8.209994
789.30 8.17052
789.40 8.128989
789.50 8.149703
789.60 8.161892
789.70 8.152364
789.80 8.137996
789.90 8.088267
790.00 8.001946
790.10 7.898553
790.20 7.821676
790.30 7.821392
790.40 7.893713
790.50 7.996604
790.60 8.104838
790.70 8.123273
790.80 7.969251
790.90 7.723827
791.00 7.485201
791.10 7.350074
791.20 7.402078
791.30 7.58845
791.40 7.755512
791.50 7.817759
791.60 7.784752
791.70 7.67975
791.80 7.649842
791.90 7.705565
792.00 7.756015
792.10 7.813686
792.20 7.84589
792.30 7.867556
792.40 7.854992
792.50 7.804452
792.60 7.811173
792.70 7.841205
792.80 7.873709
792.90 7.927884
793.00 8.009008
793.10 8.136752
793.20 8.264722
793.30 8.364907
793.40 8.445305
793.50 8.452899
793.60 8.394774
793.70 8.357798
793.80 8.35565
793.90 8.362003
794.00 8.344901
794.10 8.274327
794.20 8.174653
794.30 8.109077
794.40 8.148796
794.50 8.254088
794.60 8.283613
794.70 8.158947
794.80 7.936355
794.90 7.80769
795.00 7.83971
795.10 7.946539
795.20 8.125448
795.30 8.323755
795.40 8.460682
795.50 8.555065
795.60 8.619841
795.70 8.659356
795.80 8.679156
795.90 8.661442
796.00 8.612043
796.10 8.530775
796.20 8.426319
796.30 8.404252
796.40 8.603512
796.50 8.92307
796.60 9.074636
796.70 9.001172
796.80 8.818591
796.90 8.70504
797.00 8.772219
797.10 8.873669
797.20 8.927243
797.30 8.934719
797.40 8.897801
797.50 8.89716
797.60 8.931761
797.70 8.969254
797.80 9.007504
797.90 9.00102
798.00 8.957829
798.10 8.920138
798.20 8.857841
798.30 8.786316
798.40 8.766919
798.50 8.793284
798.60 8.804455
798.70 8.770933
798.80 8.716893
798.90 8.654713
799.00 8.61277
799.10 8.673103
799.20 8.859186
799.30 9.130385
799.40 9.381688
799.50 9.369806
799.60 9.115241
799.70 8.900927
799.80 8.787311
799.90 8.737892
800.00 8.782137
800.10 8.855744
800.20 8.910735
800.30 8.991878
800.40 9.078888
800.50 9.127596
800.60 9.13524
800.70 9.124051
800.80 9.138048
800.90 9.185473
801.00 9.250338
801.10 9.29108
801.20 9.305026
801.30 9.367242
801.40 9.481905
801.50 9.553662
801.60 9.538168
801.70 9.474296
801.80 9.417162
801.90 9.442239
802.00 9.526986
802.10 9.543157
802.20 9.463146
802.30 9.387394
802.40 9.365235
802.50 9.407965
802.60 9.539115
802.70 9.634693
802.80 9.62069
802.90 9.604506
803.00 9.627011
803.10 9.682536
803.20 9.773604
803.30 9.842879
803.40 9.862596
803.50 9.883372
803.60 9.895057
803.70 9.860586
803.80 9.82857
803.90 9.826033
804.00 9.819867
804.10 9.799008
804.20 9.779762
804.30 9.802368
804.40 9.9016
804.50 10.01461
804.60 10.04911
804.70 9.992741
804.80 9.889102
804.90 9.821522
805.00 9.863053
805.10 10.02187
805.20 10.23889
805.30 10.42027
805.40 10.51446
805.50 10.5234
805.60 10.48835
805.70 10.46723
805.80 10.45676
805.90 10.41269
806.00 10.39484
806.10 10.50071
806.20 10.64881
806.30 10.71747
806.40 10.70629
806.50 10.62224
806.60 10.49457
806.70 10.41231
806.80 10.41026
806.90 10.40467
807.00 10.34603
807.10 10.30436
807.20 10.32367
807.30 10.40349
807.40 10.53155
807.50 10.63172
807.60 10.66642
807.70 10.68894
807.80 10.72395
807.90 10.7555
808.00 10.77125
808.10 10.77423
808.20 10.77673
808.30 10.79442
808.40 10.85693
808.50 10.93298
808.60 10.9526
808.70 10.9187
808.80 10.88058
808.90 10.88648
809.00 10.94394
809.10 10.99699
809.20 11.01107
809.30 11.02297
809.40 11.03864
809.50 11.02898
809.60 11.01551
809.70 11.00054
809.80 10.97936
809.90 10.99174
810.00 11.01432
810.10 11.0026
810.20 10.9807
810.30 10.94963
810.40 10.92756
810.50 10.94966
810.60 10.96416
810.70 10.94187
810.80 10.95525
810.90 11.03909
811.00 11.13666
811.10 11.18692
811.20 11.17716
811.30 11.16297
811.40 11.1897
811.50 11.21341
811.60 11.16146
811.70 11.0018
811.80 10.8062
811.90 10.7229
812.00 10.81424
812.10 11.01886
812.20 11.24171
812.30 11.36082
812.40 11.34681
812.50 11.3129
812.60 11.32232
812.70 11.38602
812.80 11.46365
812.90 11.4826
813.00 11.4807
813.10 11.49166
813.20 11.47625
813.30 11.44371
813.40 11.41497
813.50 11.37428
813.60 11.35584
813.70 11.40985
813.80 11.50562
813.90 11.60326
814.00 11.66992
814.10 11.67115
814.20 11.59924
814.30 11.47664
814.40 11.35673
814.50 11.28363
814.60 11.28226
814.70 11.3477
814.80 11.40053
814.90 11.36107
815.00 11.26762
815.10 11.22772
815.20 11.28137
815.30 11.39122
815.40 11.47272
815.50 11.46684
815.60 11.41062
815.70 11.36658
815.80 11.34667
815.90 11.32691
816.00 11.28534
816.10 11.24625
816.20 11.21409
816.30 11.14932
816.40 11.11561
816.50 11.16542
816.60 11.24841
816.70 11.39552
816.80 11.56522
816.90 11.62095
817.00 11.57284
817.10 11.4818
817.20 11.40094
817.30 11.38773
817.40 11.41352
817.50 11.43027
817.60 11.41692
817.70 11.32797
817.80 11.15392
817.90 10.98226
818.00 10.86255
818.10 10.62755
818.20 10.07154
818.30 9.142585
818.40 8.053245
818.50 7.34683
818.60 7.388594
818.70 8.092423
818.80 9.076561
818.90 9.854622
819.00 10.2301
819.10 10.30273
819.20 10.16012
819.30 9.745209
819.40 8.941653
819.50 7.85059
819.60 6.917891
819.70 6.57317
819.80 6.925427
819.90 7.761044
820.00 8.647875
820.10 9.322175
820.20 9.822648
820.30 10.23311
820.40 10.54243
820.50 10.68576
820.60 10.64907
820.70 10.52419
820.80 10.44945
820.90 10.46866
821.00 10.56094
821.10 10.70066
821.20 10.83741
821.30 10.91777
821.40 10.92158
821.50 10.89666
821.60 10.90557
821.70 10.92542
821.80 10.92003
821.90 10.90811
822.00 10.89069
822.10 10.87844
822.20 10.8988
822.30 10.93767
822.40 10.98768
822.50 11.07223
822.60 11.17049
822.70 11.22157
822.80 11.22603
822.90 11.22738
823.00 11.26058
823.10 11.34311
823.20 11.41118
823.30 11.38031
823.40 11.26335
823.50 11.14803
823.60 11.11725
823.70 11.20645
823.80 11.34229
823.90 11.43543
824.00 11.54763
824.10 11.69045
824.20 11.73858
824.30 11.66558
824.40 11.53614
824.50 11.43405
824.60 11.45505
824.70 11.60249
824.80 11.8156
824.90 12.01641
825.00 12.11226
825.10 12.07439
825.20 11.93339
825.30 11.74043
825.40 11.56315
825.50 11.41204
825.60 11.25575
825.70 11.09038
825.80 10.96417
825.90 10.95729
826.00 11.08333
826.10 11.3162
826.20 11.57617
826.30 11.71555
826.40 11.74645
826.50 11.773
826.60 11.80806
826.70 11.87712
826.80 11.95988
826.90 11.95708
827.00 11.86163
827.10 11.71756
827.20 11.51861
827.30 11.27482
827.40 11.03538
827.50 10.86431
827.60 10.82463
827.70 10.89965
827.80 11.03996
827.90 11.198
828.00 11.27209
828.10 11.26531
828.20 11.23341
828.30 11.14811
828.40 11.0698
828.50 11.06307
828.60 11.07779
828.70 11.13473
828.80 11.23532
828.90 11.21332
829.00 10.996
829.10 10.73845
829.20 10.57934
829.30 10.53969
829.40 10.56419
829.50 10.6236
829.60 10.7416
829.70 10.861
829.80 10.9556
829.90 11.10144
830.00 11.12507
830.10 10.93897
830.20 10.75287
830.30 10.61263
830.40 10.47239
830.50 10.43214
830.60 10.3919
830.70 10.38915
830.80 10.3864
830.90 10.58214
831.00 10.77788
831.10 10.85478
831.20 10.93167
831.30 10.88357
831.40 10.83548
831.50 10.844
831.60 10.85253
831.70 10.87923
831.80 10.90594
831.90 10.90794
832.00 10.90995
832.10 10.93782
832.20 10.96568
832.30 10.98087
832.40 10.99605
832.50 10.97645
832.60 10.95686
832.70 10.73404
832.80 10.51123
832.90 10.42044
833.00 10.32966
833.10 10.52839
833.20 10.72713
833.30 10.86464
833.40 11.00216
833.50 10.82669
833.60 10.65121
833.70 10.62521
833.80 10.59921
833.90 10.71365
834.00 10.8281
834.10 10.9264
834.20 11.02471
834.30 11.17846
834.40 11.33222
834.50 11.38963
834.60 11.44704
834.70 11.15505
834.80 10.86306
834.90 10.66924
835.00 10.47543
835.10 10.63288
835.20 10.79033
835.30 10.83221
835.40 10.87409
835.50 10.84503
835.60 10.81596
835.70 10.82003
835.80 10.8241
835.90 10.89212
836.00 10.96014
836.10 10.95891
836.20 10.95769
836.30 10.84001
836.40 10.72233
836.50 10.60791
836.60 10.4935
836.70 10.5718
836.80 10.6501
836.90 10.83553
837.00 11.02096
837.10 11.09798
837.20 11.17499
837.30 11.08326
837.40 10.99152
837.50 10.79141
837.60 10.59129
837.70 10.42482
837.80 10.25835
837.90 10.27135
838.00 10.28436
838.10 10.33876
838.20 10.39316
838.30 10.33247
838.40 10.27179
838.50 10.14121
838.60 10.01064
838.70 9.902921
838.80 9.795201
838.90 9.724417
839.00 9.653633
839.10 9.854725
839.20 10.05582
839.30 10.29187
839.40 10.52793
839.50 10.50586
839.60 10.4838
839.70 10.51609
839.80 10.54837
839.90 10.66018
840.00 10.77198
840.10 10.637
840.20 10.69491
840.30 10.7997
840.40 10.87138
840.50 10.91015
840.60 10.95181
840.70 11.00667
840.80 11.0585
840.90 11.09208
841.00 11.12427
841.10 11.03544
841.20 10.84084
841.30 10.67229
841.40 10.60659
841.50 10.52774
841.60 10.70553
841.70 10.93118
841.80 11.04171
841.90 11.06765
842.00 11.05355
842.10 10.88687
842.20 10.71104
842.30 10.66331
842.40 10.61131
842.50 10.48145
842.60 10.30772
842.70 10.18159
842.80 10.14476
842.90 10.11366
843.00 10.22984
843.10 10.36067
843.20 10.29195
843.30 10.129
843.40 9.863446
843.50 9.304451
843.60 8.744302
843.70 8.57618
843.80 8.353388
843.90 8.56573
844.00 9.028628
844.10 9.384323
844.20 9.530608
844.30 9.702568
844.40 9.574293
844.50 9.43334
844.60 9.36528
844.70 9.313734
844.80 9.32342
844.90 9.479654
845.00 9.610197
845.10 9.426234
845.20 9.273425
845.30 9.053625
845.40 8.799311
845.50 8.61778
845.60 8.538348
845.70 8.445211
845.80 8.441102
845.90 8.433006
846.00 8.495691
846.10 8.584087
846.20 8.63678
846.30 8.648577
846.40 8.657955
846.50 8.617739
846.60 8.574846
846.70 8.443664
846.80 8.285292
846.90 8.193179
847.00 8.183492
847.10 8.181487
847.20 8.266812
847.30 8.35581
847.40 8.370897
847.50 8.373802
847.60 8.400312
847.70 8.449506
847.80 8.496387
847.90 8.560836
848.00 8.632964
848.10 8.655419
848.20 8.677183
848.30 8.739195
848.40 8.831997
848.50 8.913284
848.60 8.975651
848.70 9.037184
848.80 9.059128
848.90 9.072489
849.00 9.109591
849.10 9.171614
849.20 9.229957
849.30 9.275263
849.40 9.326163
849.50 9.300762
849.60 9.273921
849.70 9.333262
849.80 9.446163
849.90 9.536463
850.00 9.574786
850.10 9.619685
850.20 9.482526
850.30 9.331064
850.40 9.138786
850.50 8.938301
850.60 8.770626
850.70 8.655127
850.80 8.534917
850.90 8.555659
851.00 8.551678
851.10 8.607298
851.20 8.70516
851.30 8.748989
851.40 8.675274
851.50 8.606681
851.60 8.47274
851.70 8.344567
851.80 8.288359
851.90 8.262275
852.00 8.270998
852.10 8.335337
852.20 8.39184
852.30 8.468454
852.40 8.528084
852.50 8.607477
852.60 8.704439
852.70 8.799845
852.80 8.896332
852.90 8.984264
853.00 8.933422
853.10 8.87947
853.20 8.909584
853.30 8.967133
853.40 9.014304
853.50 9.042797
853.60 9.069661
853.70 9.138669
853.80 9.211718
853.90 9.190506
854.00 9.139281
854.10 9.189372
854.20 9.355536
854.30 9.505544
854.40 9.526937
854.50 9.574675
854.60 9.51445
854.70 9.427674
854.80 9.387433
854.90 9.39339
855.00 9.407207
855.10 9.46949
855.20 9.530799
855.30 9.611252
855.40 9.696681
855.50 9.724589
855.60 9.696381
855.70 9.659768
855.80 9.619804
855.90 9.598167
856.00 9.470419
856.10 9.324667
856.20 9.237997
856.30 9.187163
856.40 9.175166
856.50 9.306082
856.60 9.432861
856.70 9.611296
856.80 9.809136
856.90 9.806111
857.00 9.684652
857.10 9.606501
857.20 9.610826
857.30 9.61189
857.40 9.589708
857.50 9.559926
857.60 9.606746
857.70 9.688938
857.80 9.753779
857.90 9.802325
858.00 9.852525
858.10 9.821602
858.20 9.795049
858.30 9.743378
858.40 9.680533
858.50 9.678044
858.60 9.774899
858.70 9.86907
858.80 9.906942
858.90 9.943264
859.00 9.921114
859.10 9.882371
859.20 9.837634
859.30 9.784825
859.40 9.747232
859.50 9.813759
859.60 9.868423
859.70 9.947215
859.80 10.03331
859.90 10.06847
860.00 10.04717
860.10 10.03804
860.20 10.07707
860.30 10.11611
860.40 10.16448
860.50 10.20807
860.60 10.25904
860.70 10.3259
860.80 10.37208
860.90 10.32109
861.00 10.27981
861.10 10.19074
861.20 10.09546
861.30 10.01183
861.40 9.934315
861.50 9.872986
861.60 9.885524
861.70 9.902031
861.80 9.910621
861.90 9.901825
862.00 9.940063
862.10 10.02098
862.20 10.07599
862.30 10.06881
862.40 10.07144
862.50 10.06479
862.60 10.05712
862.70 10.07582
862.80 10.11823
862.90 10.14186
863.00 10.11527
863.10 10.08376
863.20 10.04076
863.30 9.985014
863.40 10.04198
863.50 10.16396
863.60 10.25516
863.70 10.28174
863.80 10.3119
863.90 10.30255
864.00 10.30271
864.10 10.338
864.20 10.3755
864.30 10.3929
864.40 10.39794
864.50 10.40904
864.60 10.38159
864.70 10.36103
864.80 10.32853
864.90 10.29135
865.00 10.28706
865.10 10.32081
865.20 10.35068
865.30 10.41283
865.40 10.47024
865.50 10.45206
865.60 10.42025
865.70 10.40228
865.80 10.39955
865.90 10.38558
866.00 10.31941
866.10 10.25294
866.20 10.23792
866.30 10.22634
866.40 10.2784
866.50 10.38602
866.60 10.48676
866.70 10.54084
866.80 10.60204
866.90 10.60805
867.00 10.60645
867.10 10.60987
867.20 10.60897
867.30 10.59356
867.40 10.57569
867.50 10.55836
867.60 10.46548
867.70 10.35701
867.80 10.4015
867.90 10.54529
868.00 10.65043
868.10 10.66496
868.20 10.68257
868.30 10.59597
868.40 10.50062
868.50 10.47245
868.60 10.48338
868.70 10.4456
868.80 10.32783
868.90 10.22117
869.00 10.04065
869.10 9.857736
869.20 9.768344
869.30 9.722332
869.40 9.692854
869.50 9.677737
869.60 9.662038
869.70 9.695991
869.80 9.711569
869.90 9.775567
870.00 9.854829
870.10 9.950261
870.20 10.06594
870.30 10.17736
870.40 10.25838
870.50 10.34085
870.60 10.39404
870.70 10.44705
870.80 10.42111
870.90 10.3054
871.00 10.19868
871.10 10.11201
871.20 10.02191
871.30 9.979596
871.40 9.937882
871.50 9.899837
871.60 9.877125
871.70 9.858547
871.80 9.82061
871.90 9.776509
872.00 9.899461
872.10 10.0377
872.20 10.12547
872.30 10.17315
872.40 10.21353
872.50 10.24096
872.60 10.27474
872.70 10.41868
872.80 10.54714
872.90 10.63755
873.00 10.72856
873.10 10.77509
873.20 10.69248
873.30 10.61972
873.40 10.51331
873.50 10.39348
873.60 10.34941
873.70 10.33566
873.80 10.34199
873.90 10.39188
874.00 10.45037
874.10 10.59241
874.20 10.71981
874.30 10.86642
874.40 11.01382
874.50 11.09222
874.60 11.09257
874.70 11.09294
874.80 10.97149
874.90 10.86531
875.00 10.8433
875.10 10.81671
875.20 10.8537
875.30 10.99147
875.40 11.10407
875.50 11.10616
875.60 11.12398
875.70 11.09521
875.80 11.04213
875.90 11.07924
876.00 11.20201
876.10 11.29675
876.20 11.30937
876.30 11.34406
876.40 11.34434
876.50 11.34237
876.60 11.20316
876.70 10.95542
876.80 10.79376
876.90 10.89112
877.00 10.95903
877.10 11.11367
877.20 11.27814
877.30 11.3883
877.40 11.46898
877.50 11.5587
877.60 11.65566
877.70 11.76429
877.80 11.69819
877.90 11.66816
878.00 11.56912
878.10 11.40721
878.20 11.32052
878.30 11.40887
878.40 11.47935
878.50 11.55826
878.60 11.64769
878.70 11.68814
878.80 11.71092
878.90 11.74135
879.00 11.78389
879.10 11.81898
879.20 11.84067
879.30 11.86407
879.40 11.87285
879.50 11.87485
879.60 11.91013
879.70 11.98718
879.80 12.045
879.90 12.07195
880.00 12.13576
880.10 11.85303
880.20 11.5137
880.30 11.25774
880.40 11.05617
880.50 10.86505
880.60 10.85123
880.70 10.82917
880.80 10.91324
880.90 11.01153
881.00 11.17856
881.10 11.38017
881.20 11.58372
881.30 11.8288
881.40 12.07991
881.50 12.216
881.60 12.35508
881.70 12.41334
881.80 12.41071
881.90 12.39737
882.00 12.38049
882.10 12.38559
882.20 12.12777
882.30 11.88296
882.40 11.58467
882.50 11.24148
882.60 11.0039
882.70 10.97097
882.80 10.93972
882.90 11.2279
883.00 11.50904
883.10 11.78357
883.20 12.05901
883.30 12.2554
883.40 12.35178
883.50 12.454
883.60 12.48273
883.70 12.50473
883.80 12.44004
883.90 12.35185
884.00 12.30041
884.10 12.28421
884.20 12.27617
884.30 12.35327
884.40 12.46225
884.50 12.36272
884.60 12.22825
884.70 12.09986
884.80 11.96486
884.90 11.84255
885.00 11.82076
885.10 11.77307
885.20 11.97104
885.30 12.17352
885.40 12.348
885.50 12.54458
885.60 12.68092
885.70 12.58445
885.80 12.52824
885.90 12.20857
886.00 11.88958
886.10 11.50141
886.20 11.05639
886.30 10.72252
886.40 10.62908
886.50 10.4881
886.60 10.68532
886.70 10.88829
886.80 10.91686
886.90 10.90739
887.00 10.81009
887.10 10.53005
887.20 10.27049
887.30 10.07132
887.40 9.818041
887.50 9.835674
887.60 9.927124
887.70 10.06103
887.80 10.26679
887.90 10.46693
888.00 10.64652
888.10 10.84701
888.20 10.87396
888.30 10.88842
888.40 10.86514
888.50 10.77513
888.60 10.69478
888.70 10.68343
888.80 10.6455
888.90 10.71988
889.00 10.8115
889.10 10.91241
889.20 11.02341
889.30 11.09956
889.40 11.04917
889.50 11.00875
889.60 10.91729
889.70 10.82918
889.80 10.77628
889.90 10.72322
890.00 10.70776
890.10 10.83664
890.20 10.94326
890.30 11.15177
890.40 11.38031
890.50 11.494
890.60 11.56745
890.70 11.62744
890.80 11.64873
890.90 11.66869
891.00 11.58419
891.10 11.5023
891.20 11.43862
891.30 11.36306
891.40 11.35442
891.50 11.4644
891.60 11.55788
891.70 11.59442
891.80 11.64722
891.90 11.62994
892.00 11.59281
892.10 11.58014
892.20 11.59868
892.30 11.60764
892.40 11.53758
892.50 11.47229
892.60 11.47468
892.70 11.48381
892.80 11.50363
892.90 11.52974
893.00 11.55876
893.10 11.62925
893.20 11.68266
893.30 11.79021
893.40 11.91458
893.50 11.98004
893.60 12.03483
893.70 12.02134
893.80 11.7774
893.90 11.55896
894.00 11.38759
894.10 11.16701
894.20 11.08176
894.30 11.06535
894.40 11.06778
894.50 11.1092
894.60 11.14996
894.70 11.18527
894.80 11.20814
894.90 11.24311
895.00 11.30011
895.10 11.34721
895.20 11.3651
895.30 11.38613
895.40 11.3436
895.50 11.27851
895.60 11.32913
895.70 11.41346
895.80 11.49418
895.90 11.572
896.00 11.64488
896.10 11.64116
896.20 11.64187
896.30 11.58695
896.40 11.52035
896.50 11.45539
896.60 11.40804
896.70 11.39203
896.80 11.43178
896.90 11.44994
897.00 11.52493
897.10 11.59644
897.20 11.6166
897.30 11.61589
897.40 11.63243
897.50 11.66632
897.60 11.69159
897.70 11.80255
897.80 11.91761
897.90 11.92726
898.00 11.89677
898.10 11.88262
898.20 11.85676
898.30 11.82326
898.40 11.94813
898.50 12.03253
898.60 12.1505
898.70 12.30181
898.80 12.35089
898.90 12.25426
899.00 12.1794
899.10 12.0873
899.20 11.98402
899.30 12.03056
899.40 12.10854
899.50 12.1463
899.60 12.14598
899.70 12.13002
899.80 12.05574
899.90 11.98995
900.00 11.8292
900.10 11.63377
900.20 11.60926
900.30 11.73651
900.40 11.88672
900.50 12.16875
900.60 12.4581
900.70 12.51449
900.80 12.58997
900.90 12.46776
901.00 12.20646
901.10 12.01549
901.20 11.96587
901.30 11.88378
901.40 11.93689
901.50 12.00671
901.60 12.0113
901.70 12.00314
901.80 11.95591
901.90 11.79971
902.00 11.63391
902.10 11.58709
902.20 11.55026
902.30 11.55337
902.40 11.5684
902.50 11.54334
902.60 11.4593
902.70 11.36966
902.80 11.28914
902.90 11.20499
903.00 11.32105
903.10 11.47984
903.20 11.65316
903.30 11.83857
903.40 12.01118
903.50 12.13361
903.60 12.26088
903.70 12.28793
903.80 12.29757
903.90 12.35785
904.00 12.4716
904.10 12.56406
904.20 12.56688
904.30 12.58904
904.40 12.52308
904.50 12.43118
904.60 12.39569
904.70 12.3933
904.80 12.4244
904.90 12.55915
905.00 12.70519
905.10 12.62015
905.20 12.56854
905.30 12.48761
905.40 12.37912
905.50 12.28414
905.60 12.22049
905.70 12.16206
905.80 12.23698
905.90 12.30724
906.00 12.33231
906.10 12.33641
906.20 12.34402
906.30 12.37066
906.40 12.38632
906.50 12.37873
906.60 12.38985
906.70 12.37333
906.80 12.34955
906.90 12.32711
907.00 12.29651
907.10 12.26219
907.20 12.25165
907.30 12.22606
907.40 12.22362
907.50 12.23504
907.60 12.28969
907.70 12.37123
907.80 12.47613
907.90 12.63932
908.00 12.78534
908.10 12.85211
908.20 12.94428
908.30 12.90594
908.40 12.78196
908.50 12.68307
908.60 12.64408
908.70 12.599
908.80 12.42025
908.90 12.25165
909.00 12.16073
909.10 12.07863
909.20 12.08321
909.30 12.23824
909.40 12.39457
909.50 12.60274
909.60 12.81972
909.70 12.89589
909.80 12.93203
909.90 12.93518
910.00 12.90522
910.10 12.88837
910.20 12.94164
910.30 13.00863
910.40 12.96599
910.50 12.91579
910.60 12.83966
910.70 12.72565
910.80 12.62023
910.90 12.57707
911.00 12.51019
911.10 12.63894
911.20 12.79142
911.30 12.95078
911.40 13.12467
911.50 13.22829
911.60 13.15508
911.70 13.09999
911.80 13.00362
911.90 12.88995
912.00 12.83111
912.10 12.79502
912.20 12.81437
912.30 12.94138
912.40 13.06798
912.50 13.05494
912.60 13.04753
912.70 13.02148
912.80 12.98649
912.90 12.98854
913.00 13.04155
913.10 13.09179
913.20 13.12557
913.30 13.15042
913.40 13.16872
913.50 13.19391
913.60 13.19951
913.70 13.19066
913.80 13.15674
913.90 12.93044
914.00 12.71336
914.10 12.68156
914.20 12.63174
914.30 12.64111
914.40 12.69984
914.50 12.77288
914.60 12.924
914.70 13.09299
914.80 13.06176
914.90 13.04482
915.00 13.03064
915.10 13.00161
915.20 12.9952
915.30 13.04633
915.40 13.06824
915.50 13.08339
915.60 13.09667
915.70 13.22599
915.80 13.42442
915.90 13.51956
916.00 13.42969
916.10 13.3564
916.20 13.28099
916.30 13.20931
916.40 13.17885
916.50 13.13495
916.60 13.15877
916.70 13.28051
916.80 13.3781
916.90 13.3829
917.00 13.40976
917.10 13.39683
917.20 13.37665
917.30 13.34526
917.40 13.29842
917.50 13.25003
917.60 13.19093
917.70 13.12956
917.80 13.18052
917.90 13.23785
918.00 13.2965
918.10 13.34743
918.20 13.39962
918.30 13.47551
918.40 13.563
918.50 13.40979
918.60 13.26188
918.70 13.23034
918.80 13.23017
918.90 13.28391
919.00 13.46093
919.10 13.61822
919.20 13.6623
919.30 13.76282
919.40 13.6902
919.50 13.55803
919.60 13.47342
919.70 13.4406
919.80 13.39886
919.90 13.51024
920.00 13.63585
920.10 13.64
920.20 13.62867
920.30 13.63878
920.40 13.66727
920.50 13.67058
920.60 13.61079
920.70 13.56644
920.80 13.39463
920.90 13.23569
921.00 13.07497
921.10 12.87644
921.20 12.76477
921.30 12.94127
921.40 13.10571
921.50 13.25827
921.60 13.42313
921.70 13.44809
921.80 13.41069
921.90 13.36797
922.00 13.29806
922.10 13.24487
922.20 13.25419
922.30 13.26344
922.40 13.22208
922.50 13.15068
922.60 13.10228
922.70 13.10126
922.80 13.09469
922.90 13.08739
923.00 13.09876
923.10 12.95214
923.20 12.77224
923.30 12.61485
923.40 12.4611
923.50 12.33
923.60 12.39777
923.70 12.47274
923.80 12.56252
923.90 12.65489
924.00 12.7021
924.10 12.70061
924.20 12.72456
924.30 12.87155
924.40 13.02238
924.50 13.00563
924.60 13.02014
924.70 12.98329
924.80 12.90335
924.90 12.81806
925.00 12.71965
925.10 12.60408
925.20 12.5251
925.30 12.44024
925.40 12.46891
925.50 12.52521
925.60 12.59485
925.70 12.71121
925.80 12.82484
925.90 12.91523
926.00 13.04415
926.10 13.05176
926.20 13.02524
926.30 13.00652
926.40 12.97903
926.50 12.96335
926.60 13.07727
926.70 13.17498
926.80 13.23439
926.90 13.3109
927.00 13.28775
927.10 13.18731
927.20 13.11617
927.30 13.09143
927.40 13.06681
927.50 12.95713
927.60 12.83901
927.70 12.72033
927.80 12.60695
927.90 12.50641
928.00 12.41445
928.10 12.31091
928.20 12.41208
928.30 12.49901
928.40 12.56017
928.50 12.62348
928.60 12.67243
928.70 12.69811
928.80 12.73206
928.90 12.62685
929.00 12.50433
929.10 12.36972
929.20 12.23336
929.30 12.19354
929.40 12.25158
929.50 12.29554
929.60 12.30234
929.70 12.31069
929.80 12.30881
929.90 12.32393
930.00 12.34154
930.10 12.34713
930.20 12.32505
930.30 12.22965
930.40 12.12558
930.50 12.16094
930.60 12.20956
930.70 12.29916
930.80 12.3974
930.90 12.40214
931.00 12.3664
931.10 12.32906
931.20 12.42889
931.30 12.54728
931.40 12.65091
931.50 12.71731
931.60 12.79684
931.70 12.73748
931.80 12.57932
931.90 12.43421
932.00 12.38518
932.10 12.34553
932.20 12.31275
932.30 12.42941
932.40 12.54486
932.50 12.5715
932.60 12.44466
932.70 12.32727
932.80 12.27778
932.90 12.26194
933.00 12.24029
933.10 12.35726
933.20 12.49102
933.30 12.57737
933.40 12.48584
933.50 12.39304
933.60 12.33606
933.70 12.31012
933.80 12.27923
933.90 12.34013
934.00 12.43013
934.10 12.52691
934.20 12.67734
934.30 12.83578
934.40 12.85481
934.50 12.61958
934.60 12.38205
934.70 12.26625
934.80 12.21801
934.90 12.17333
935.00 12.29708
935.10 12.44204
935.20 12.55311
935.30 12.53847
935.40 12.51706
935.50 12.47232
935.60 12.40275
935.70 12.32945
935.80 12.26972
935.90 12.20409
936.00 12.14299
936.10 12.20394
936.20 12.26279
936.30 12.33189
936.40 12.42252
936.50 12.53654
936.60 12.56465
936.70 12.53719
936.80 12.51547
936.90 12.38286
937.00 12.24029
937.10 12.08858
937.20 11.89811
937.30 11.68538
937.40 11.65839
937.50 11.85539
937.60 12.03994
937.70 12.20607
937.80 12.3694
937.90 12.5287
938.00 12.45105
938.10 12.38818
938.20 12.35583
938.30 12.36923
938.40 12.3691
938.50 12.41421
938.60 12.49631
938.70 12.57776
938.80 12.51236
938.90 12.42572
939.00 12.36417
939.10 12.40953
939.20 12.45002
939.30 12.49705
939.40 12.5551
939.50 12.62089
939.60 12.58053
939.70 12.51047
939.80 12.44647
939.90 12.40107
940.00 12.33473
940.10 12.27493
940.20 12.24925
940.30 12.22272
940.40 12.27787
940.50 12.38356
940.60 12.48806
940.70 12.59462
940.80 12.69986
940.90 12.78199
941.00 12.76041
941.10 12.75418
941.20 12.71768
941.30 12.63816
941.40 12.5742
941.50 12.54509
941.60 12.52461
941.70 12.49629
941.80 12.43772
941.90 12.36593
942.00 12.3306
942.10 12.37878
942.20 12.4317
942.30 12.5029
942.40 12.59259
942.50 12.68446
942.60 12.75339
942.70 12.8224
942.80 12.86224
942.90 12.73644
943.00 12.60177
943.10 12.54409
943.20 12.5907
943.30 12.63095
943.40 12.76589
943.50 12.94465
943.60 13.12726
943.70 13.09029
943.80 13.06489
943.90 13.00504
944.00 12.85351
944.10 12.69613
944.20 12.54731
944.30 12.39915
944.40 12.24756
944.50 12.1964
944.60 12.15289
944.70 12.11124
944.80 12.1266
944.90 12.14334
945.00 12.19916
945.10 12.29838
945.20 12.39279
945.30 12.49012
945.40 12.59605
945.50 12.70167
945.60 12.67663
945.70 12.65592
945.80 12.63547
945.90 12.60256
946.00 12.56416
946.10 12.52114
946.20 12.47078
946.30 12.41708
946.40 12.45262
946.50 12.51858
946.60 12.59645
946.70 12.70483
946.80 12.80211
946.90 12.84426
947.00 12.8178
947.10 12.79181
947.20 12.81061
947.30 12.85193
947.40 12.89397
947.50 12.90228
947.60 12.90653
947.70 12.92534
947.80 12.9808
947.90 13.03049
948.00 13.09198
948.10 13.16193
948.20 13.23935
948.30 13.13148
948.40 12.99274
948.50 12.89318
948.60 12.99628
948.70 13.10656
948.80 13.1711
948.90 13.17086
949.00 13.16004
949.10 13.18779
949.20 13.23847
949.30 13.29188
949.40 13.25699
949.50 13.23268
949.60 13.186
949.70 13.07497
949.80 12.93841
949.90 12.94323
950.00 13.05104
950.10 13.15986
950.20 13.0646
950.30 12.94734
950.40 12.86343
950.50 12.90165
950.60 12.94057
950.70 12.98406
950.80 13.03519
950.90 13.07839
951.00 13.10466
951.10 13.13021
951.20 13.1577
951.30 13.18972
951.40 13.2305
951.50 13.23924
951.60 13.1728
951.70 13.09461
951.80 13.03166
951.90 12.9772
952.00 12.92098
952.10 12.94332
952.20 12.96886
952.30 12.99178
952.40 13.01745
952.50 13.03543
952.60 13.08876
952.70 13.1868
952.80 13.29754
952.90 13.30374
953.00 13.27562
953.10 13.24904
953.20 13.23843
953.30 13.23677
953.40 13.23871
953.50 13.2437
953.60 13.24925
953.70 13.22382
953.80 13.17154
953.90 13.11655
954.00 13.12987
954.10 13.15048
954.20 13.16191
954.30 13.15205
954.40 13.1422
954.50 13.07378
954.60 12.94024
954.70 12.82123
954.80 12.80577
954.90 12.81301
955.00 12.82158
955.10 12.99514
955.20 13.17145
955.30 13.30061
955.40 13.3396
955.50 13.38034
955.60 13.35131
955.70 13.2808
955.80 13.20945
955.90 13.24979
956.00 13.3049
956.10 13.3602
956.20 13.40609
956.30 13.47236
956.40 13.51915
956.50 13.5351
956.60 13.53887
956.70 13.4359
956.80 13.30156
956.90 13.17957
957.00 13.23255
957.10 13.29323
957.20 13.30759
957.30 13.24899
957.40 13.20981
957.50 13.15525
957.60 13.08481
957.70 13.01024
957.80 13.09819
957.90 13.18371
958.00 13.23032
958.10 13.18054
958.20 13.12488
958.30 13.09052
958.40 13.07603
958.50 13.07416
958.60 13.16064
958.70 13.27664
958.80 13.37955
958.90 13.34415
959.00 13.31007
959.10 13.25562
959.20 13.16565
959.30 13.05064
959.40 12.98378
959.50 12.95181
959.60 12.92867
959.70 12.8691
959.80 12.82153
959.90 12.72606
960.00 12.49633
960.10 12.23803
960.20 12.2337
960.30 12.42846
960.40 12.5983
960.50 12.76306
960.60 12.94681
960.70 13.11412
960.80 13.10976
960.90 13.11806
961.00 13.14025
961.10 13.17613
961.20 13.21786
961.30 13.19617
961.40 13.14536
961.50 13.09208
961.60 13.10773
961.70 13.10845
961.80 13.13289
961.90 13.23687
962.00 13.34588
962.10 13.39272
962.20 13.39996
962.30 13.41663
962.40 13.42071
962.50 13.41303
962.60 13.39366
962.70 13.35802
962.80 13.33544
962.90 13.3184
963.00 13.30115
963.10 13.28586
963.20 13.30862
963.30 13.35015
963.40 13.38957
963.50 13.3679
963.60 13.36894
963.70 13.21103
963.80 12.7176
963.90 12.23027
964.00 11.97109
964.10 11.82048
964.20 11.62766
964.30 11.97575
964.40 12.39162
964.50 12.70286
964.60 12.5804
964.70 12.50341
964.80 12.38154
964.90 12.20682
965.00 12.02333
965.10 12.1518
965.20 12.36569
965.30 12.57172
965.40 12.72971
965.50 12.88654
965.60 13.02104
965.70 13.11798
965.80 13.21974
965.90 13.28218
966.00 13.32358
966.10 13.3595
966.20 13.38045
966.30 13.40637
966.40 13.40676
966.50 13.31595
966.60 13.23632
966.70 13.20614
966.80 13.21309
966.90 13.21842
967.00 13.17169
967.10 13.11802
967.20 13.0582
967.30 12.94509
967.40 12.85698
967.50 12.69097
967.60 12.39883
967.70 12.09977
967.80 12.0911
967.90 12.18294
968.00 12.24554
968.10 12.57561
968.20 12.93141
968.30 13.19437
968.40 13.19021
968.50 13.22023
968.60 13.16678
968.70 13.05433
968.80 12.94537
968.90 12.76132
969.00 12.54061
969.10 12.37463
969.20 12.57251
969.30 12.74073
969.40 12.91076
969.50 13.09287
969.60 13.2926
969.70 13.42157
969.80 13.53425
969.90 13.64995
970.00 13.60915
970.10 13.57123
970.20 13.49256
970.30 13.32594
970.40 13.18388
970.50 12.94435
970.60 12.63499
970.70 12.3269
970.80 12.334
970.90 12.3292
971.00 12.38054
971.10 12.74309
971.20 13.10941
971.30 13.36187
971.40 13.49763
971.50 13.65092
971.60 13.63246
971.70 13.5783
971.80 13.52554
971.90 13.38827
972.00 13.25502
972.10 13.18723
972.20 13.22654
972.30 13.24801
972.40 13.28489
972.50 13.33578
972.60 13.38777
972.70 13.13771
972.80 12.89427
972.90 12.68684
973.00 12.55082
973.10 12.38356
973.20 12.38994
973.30 12.54459
973.40 12.67332
973.50 12.77921
973.60 12.89268
973.70 12.99394
973.80 12.96843
973.90 12.94472
974.00 12.96539
974.10 13.04928
974.20 13.14496
974.30 13.06099
974.40 12.90434
974.50 12.75761
974.60 12.74376
974.70 12.70276
974.80 12.69958
974.90 12.8103
975.00 12.91895
975.10 13.0439
975.20 13.17805
975.30 13.31483
975.40 13.30452
975.50 13.2714
975.60 13.24463
975.70 13.24089
975.80 13.24329
975.90 13.25821
976.00 13.2916
976.10 13.32853
976.20 13.30534
976.30 13.25865
976.40 13.21644
976.50 13.29105
976.60 13.35931
976.70 13.38251
976.80 13.32387
976.90 13.29551
977.00 13.13172
977.10 12.89392
977.20 12.65891
977.30 12.71123
977.40 12.74844
977.50 12.79912
977.60 12.93912
977.70 13.08751
977.80 13.1812
977.90 13.23221
978.00 13.30097
978.10 13.15074
978.20 12.96882
978.30 12.77596
978.40 12.41817
978.50 12.03788
978.60 11.76313
978.70 11.6525
978.80 11.51331
978.90 11.66274
979.00 11.92123
979.10 12.16946
979.20 12.44168
979.30 12.71085
979.40 12.94278
979.50 13.08757
979.60 13.26945
979.70 13.38854
979.80 13.4569
979.90 13.52943
980.00 13.52478
980.10 13.51041
980.20 13.49347
980.30 13.47431
980.40 13.46086
980.50 13.4482
980.60 13.43547
980.70 13.42315
980.80 13.39667
980.90 13.35934
981.00 13.32202
981.10 13.36989
981.20 13.42269
981.30 13.43785
981.40 13.38247
981.50 13.34448
981.60 13.31515
981.70 13.27787
981.80 13.22999
981.90 13.24316
982.00 13.25688
982.10 13.26493
982.20 13.25449
982.30 13.24928
982.40 13.25962
982.50 13.28265
982.60 13.30119
982.70 13.29978
982.80 13.30023
982.90 13.30122
983.00 13.26977
983.10 13.24334
983.20 13.21786
983.30 13.19413
983.40 13.16493
983.50 13.11572
983.60 13.06016
983.70 13.00893
983.80 13.01675
983.90 13.00967
984.00 13.02089
984.10 13.09287
984.20 13.16807
984.30 13.21852
984.40 13.25744
984.50 13.30567
984.60 13.31521
984.70 13.30759
984.80 13.29321
984.90 13.27259
985.00 13.26966
985.10 13.25471
985.20 13.21975
985.30 13.18402
985.40 13.21873
985.50 13.25904
985.60 13.28562
985.70 13.3009
985.80 13.33156
985.90 13.3484
986.00 13.3327
986.10 13.32027
986.20 13.30643
986.30 13.28983
986.40 13.26776
986.50 13.2668
986.60 13.27212
986.70 13.27871
986.80 13.26576
986.90 13.26564
987.00 13.26469
987.10 13.25707
987.20 13.23203
987.30 13.28209
987.40 13.3395
987.50 13.38875
987.60 13.40538
987.70 13.44271
987.80 13.42478
987.90 13.33243
988.00 13.24726
988.10 13.23294
988.20 13.2272
988.30 13.21149
988.40 13.28781
988.50 13.35907
988.60 13.4235
988.70 13.4767
988.80 13.55188
988.90 13.55192
989.00 13.51111
989.10 13.47393
989.20 13.42305
989.30 13.37976
989.40 13.30389
989.50 13.09324
989.60 12.92166
989.70 12.64686
989.80 12.26351
989.90 11.86383
990.00 11.68902
990.10 11.55182
990.20 11.40033
990.30 11.23672
990.40 11.10056
990.50 10.91658
990.60 10.65315
990.70 10.37469
990.80 10.23961
990.90 10.14381
991.00 10.0305
991.10 10.1428
991.20 10.25896
991.30 10.30614
991.40 10.1924
991.50 10.10816
991.60 10.04781
991.70 9.990533
991.80 9.910615
991.90 10.07895
992.00 10.26451
992.10 10.41993
992.20 10.4761
992.30 10.57866
992.40 10.58921
992.50 10.48794
992.60 10.37634
992.70 10.41774
992.80 10.48045
992.90 10.54126
993.00 10.80066
993.10 11.07008
993.20 11.24026
993.30 11.24544
993.40 11.30074
993.50 11.2944
993.60 11.23775
993.70 11.1517
993.80 11.35741
993.90 11.55327
994.00 11.72797
994.10 11.85563
994.20 12.02382
994.30 12.03514
994.40 11.93087
994.50 11.84026
994.60 11.83913
994.70 11.83725
994.80 11.83901
994.90 11.90858
995.00 11.96685
995.10 12.06251
995.20 12.20149
995.30 12.34736
995.40 12.38872
995.50 12.41632
995.60 12.44708
995.70 12.27878
995.80 12.1125
995.90 11.98172
996.00 11.91842
996.10 11.83429
996.20 11.88146
996.30 11.98299
996.40 12.05884
996.50 12.27719
996.60 12.51226
996.70 12.67099
996.80 12.57776
996.90 12.56789
997.00 12.40387
997.10 12.10087
997.20 11.78643
997.30 11.65858
997.40 11.52874
997.50 11.41748
997.60 11.58149
997.70 11.73297
997.80 11.86604
997.90 11.97968
998.00 12.1007
998.10 12.19195
998.20 12.29079
998.30 12.39287
998.40 12.2379
998.50 12.08951
998.60 11.96782
998.70 11.89204
998.80 11.78996
998.90 11.77787
999.00 11.82443
999.10 11.87701
999.20 11.95075
999.30 12.00919
999.40 12.05072
999.50 12.0777
999.60 12.11837
999.70 12.1142
999.80 12.06639
999.90 12.0117
1000.00 12.08568
1000.10 12.16665
1000.20 12.24015
1000.30 12.35288
1000.40 12.48638
1000.50 12.57177
1000.60 12.57801
1000.70 12.61486
1000.80 12.50703
1000.90 12.34547
1001.00 12.1944
1001.10 12.11186
1001.20 11.99827
1001.30 11.95648
1001.40 12.1193
1001.50 12.24781
1001.60 12.41473
1001.70 12.61408
1001.80 12.82219
1001.90 12.80057
1002.00 12.78034
1002.10 12.76207
1002.20 12.69958
1002.30 12.61254
1002.40 12.58665
1002.50 12.62713
1002.60 12.66857
1002.70 12.68418
1002.80 12.71474
1002.90 12.74731
1003.00 12.67197
1003.10 12.57756
1003.20 12.50434
1003.30 12.47449
1003.40 12.45893
1003.50 12.39293
1003.60 12.30159
1003.70 12.20853
1003.80 12.26479
1003.90 12.29311
1004.00 12.34862
1004.10 12.49533
1004.20 12.62784
1004.30 12.72395
1004.40 12.806
1004.50 12.90478
1004.60 12.91034
1004.70 12.92643
1004.80 12.92218
1004.90 12.80002
1005.00 12.71111
1005.10 12.56234
1005.20 12.34464
1005.30 12.11914
1005.40 11.93737
1005.50 11.74128
1005.60 11.54968
1005.70 11.57447
1005.80 11.57121
1005.90 11.59642
1006.00 11.67626
1006.10 11.76332
1006.20 11.81618
1006.30 11.86621
1006.40 11.93018
1006.50 12.00801
1006.60 12.06114
1006.70 12.13771
1006.80 12.29776
1006.90 12.46098
1007.00 12.57458
1007.10 12.67501
1007.20 12.80649
1007.30 12.78171
1007.40 12.713
1007.50 12.66702
1007.60 12.76228
1007.70 12.83962
1007.80 12.8808
1007.90 12.89764
1008.00 12.93601
1008.10 12.92774
1008.20 12.90239
1008.30 12.8813
1008.40 12.91836
1008.50 12.94915
1008.60 12.94055
1008.70 12.88345
1008.80 12.8595
1008.90 12.76498
1009.00 12.64089
1009.10 12.52039
1009.20 12.51781
1009.30 12.4873
1009.40 12.48647
1009.50 12.58575
1009.60 12.66212
1009.70 12.76614
1009.80 12.88518
1009.90 12.99954
1010.00 13.13819
1010.10 13.28379
1010.20 13.40898
1010.30 13.44151
1010.40 13.51382
1010.50 13.51176
1010.60 13.43041
1010.70 13.35912
1010.80 13.22594
1010.90 13.07779
1011.00 12.9349
1011.10 12.81102
1011.20 12.68824
1011.30 12.60141
1011.40 12.56827
1011.50 12.51381
1011.60 12.46227
1011.70 12.41473
1011.80 12.36869
1011.90 12.37104
1012.00 12.34049
1012.10 12.38615
1012.20 12.64936
1012.30 12.91084
1012.40 13.05339
1012.50 13.12603
1012.60 13.2184
1012.70 13.20547
1012.80 13.18895
1012.90 13.16929
1013.00 13.14577
1013.10 13.12068
1013.20 13.0804
1013.30 13.03163
1013.40 13.01459
1013.50 12.83983
1013.60 12.63277
1013.70 12.43634
1013.80 12.32083
1013.90 12.15196
1014.00 12.08251
1014.10 12.17952
1014.20 12.25024
1014.30 12.36447
1014.40 12.50928
1014.50 12.64797
1014.60 12.55927
1014.70 12.48943
1014.80 12.46027
1014.90 12.47685
1015.00 12.44064
1015.10 12.54504
1015.20 12.72138
1015.30 12.8986
1015.40 12.87573
1015.50 12.89478
1015.60 12.86121
1015.70 12.63241
1015.80 12.39344
1015.90 12.28966
1016.00 12.27435
1016.10 12.22985
1016.20 12.32378
1016.30 12.44023
1016.40 12.54283
1016.50 12.5609
1016.60 12.56748
1016.70 12.59248
1016.80 12.64847
1016.90 12.7352
1017.00 12.63635
1017.10 12.49255
1017.20 12.37342
1017.30 12.45049
1017.40 12.47573
1017.50 12.57814
1017.60 12.83599
1017.70 13.12958
1017.80 13.11331
1017.90 12.97696
1018.00 12.87298
1018.10 12.74432
1018.20 12.59257
1018.30 12.44776
1018.40 12.35084
1018.50 12.25887
1018.60 12.22498
1018.70 12.21961
1018.80 12.18686
1018.90 12.32638
1019.00 12.47388
1019.10 12.5967
1019.20 12.64717
1019.30 12.72599
1019.40 12.75382
1019.50 12.72267
1019.60 12.69357
1019.70 12.69962
1019.80 12.71698
1019.90 12.73003
1020.00 12.66878
1020.10 12.61021
1020.20 12.58307
1020.30 12.60337
1020.40 12.60471
1020.50 12.67613
1020.60 12.7768
1020.70 12.87431
1020.80 12.91492
1020.90 12.96768
1021.00 12.99446
1021.10 12.94776
1021.20 12.9234
1021.30 12.81893
1021.40 12.65534
1021.50 12.49158
1021.60 12.44758
1021.70 12.41306
1021.80 12.36058
1021.90 12.246
1022.00 12.11853
1022.10 12.08157
1022.20 12.13387
1022.30 12.15387
1022.40 12.31517
1022.50 12.51471
1022.60 12.69865
1022.70 12.72172
1022.80 12.76625
1022.90 12.78178
1023.00 12.7418
1023.10 12.71445
1023.20 12.65764
1023.30 12.58015
1023.40 12.49675
1023.50 12.56555
1023.60 12.61432
1023.70 12.66184
1023.80 12.72599
1023.90 12.80641
1024.00 12.86019
1024.10 12.88882
1024.20 12.91401
1024.30 12.97935
1024.40 13.07542
1024.50 13.14767
1024.60 13.06323
1024.70 12.98077
1024.80 12.90947
1024.90 12.85134
1025.00 12.79069
1025.10 12.69224
1025.20 12.59016
1025.30 12.50478
1025.40 12.47205
1025.50 12.40665
1025.60 12.39548
1025.70 12.45867
1025.80 12.54247
1025.90 12.4394
1026.00 12.29872
1026.10 12.17385
1026.20 12.04573
1026.30 11.88293
1026.40 11.83527
1026.50 11.98937
1026.60 12.09888
1026.70 12.2651
1026.80 12.45963
1026.90 12.6542
1027.00 12.71541
1027.10 12.81138
1027.20 12.86647
1027.30 12.7859
1027.40 12.73057
1027.50 12.65733
1027.60 12.56683
1027.70 12.46098
1027.80 12.44883
1027.90 12.44223
1028.00 12.41789
1028.10 12.31357
1028.20 12.22848
1028.30 12.14755
1028.40 12.06289
1028.50 11.94448
1028.60 12.03965
1028.70 12.16605
1028.80 12.27437
1028.90 12.42536
1029.00 12.61827
1029.10 12.73384
1029.20 12.69989
1029.30 12.68421
1029.40 12.66304
1029.50 12.6294
1029.60 12.58577
1029.70 12.57238
1029.80 12.57189
1029.90 12.55436
1030.00 12.48401
1030.10 12.40997
1030.20 12.41418
1030.30 12.46496
1030.40 12.501
1030.50 12.60904
1030.60 12.71856
1030.70 12.803
1030.80 12.77961
1030.90 12.79077
1031.00 12.79498
1031.10 12.78017
1031.20 12.75012
1031.30 12.78014
1031.40 12.82565
1031.50 12.85963
1031.60 12.80902
1031.70 12.78861
1031.80 12.73941
1031.90 12.64515
1032.00 12.53159
1032.10 12.50745
1032.20 12.5122
1032.30 12.51694
1032.40 12.46548
1032.50 12.40723
1032.60 12.39435
1032.70 12.46438
1032.80 12.48994
1032.90 12.63776
1033.00 12.84512
1033.10 13.05623
1033.20 13.12265
1033.30 13.2225
1033.40 13.24585
1033.50 13.04393
1033.60 12.88384
1033.70 12.68916
1033.80 12.45944
1033.90 12.2074
1034.00 12.09119
1034.10 11.9792
1034.20 11.81592
1034.30 11.50881
1034.40 11.21789
1034.50 11.04829
1034.60 10.98559
1034.70 10.88772
1034.80 11.09309
1034.90 11.37354
1035.00 11.64519
1035.10 11.80875
1035.20 11.99576
1035.30 12.14628
1035.40 12.2429
1035.50 12.31846
1035.60 12.41491
1035.70 12.51972
1035.80 12.61914
1035.90 12.73847
1036.00 12.8552
1036.10 12.96282
1036.20 13.05077
1036.30 13.1579
1036.40 13.18279
1036.50 13.15146
1036.60 13.1233
1036.70 13.1295
1036.80 13.1333
1036.90 13.13846
1037.00 13.16983
1037.10 13.18531
1037.20 13.23979
1037.30 13.32677
1037.40 13.43026
1037.50 13.37103
1037.60 13.31542
1037.70 13.24917
1037.80 13.0691
1037.90 12.90312
1038.00 12.74401
1038.10 12.58529
1038.20 12.39103
1038.30 12.41508
1038.40 12.47054
1038.50 12.51052
1038.60 12.65949
1038.70 12.82597
1038.80 12.91482
1038.90 12.86943
1039.00 12.84836
1039.10 12.8079
1039.20 12.7581
1039.30 12.70749
1039.40 12.5861
1039.50 12.46986
1039.60 12.348
1039.70 12.21577
1039.80 12.05958
1039.90 12.05093
1040.00 12.13702
1040.10 12.20691
1040.20 12.40766
1040.30 12.62532
1040.40 12.82537
1040.50 12.9384
1040.60 13.06606
1040.70 13.14537
1040.80 13.17629
1040.90 13.22209
1041.00 13.16569
1041.10 13.10304
1041.20 13.04758
1041.30 12.92235
1041.40 12.77615
1041.50 12.70089
1041.60 12.73252
1041.70 12.70819
1041.80 12.81471
1041.90 12.98938
1042.00 13.1597
1042.10 13.1678
1042.20 13.22436
1042.30 13.20938
1042.40 13.05407
1042.50 12.9077
1042.60 12.74479
1042.70 12.57259
1042.80 12.3953
1042.90 12.35051
1043.00 12.26309
1043.10 12.2585
1043.20 12.51098
1043.30 12.72889
1043.40 12.89748
1043.50 13.04621
1043.60 13.23315
1043.70 13.26015
1043.80 13.28295
1043.90 13.30039
1044.00 13.27776
1044.10 13.24663
1044.20 13.23868
1044.30 13.25502
1044.40 13.26711
1044.50 13.20992
1044.60 13.13999
1044.70 13.08967
1044.80 13.14642
1044.90 13.18156
1045.00 13.22976
1045.10 13.30723
1045.20 13.3749
1045.30 13.47753
1045.40 13.60347
1045.50 13.74225
1045.60 13.76926
1045.70 13.82291
1045.80 13.85088
1045.90 13.79127
1046.00 13.74725
1046.10 13.6552
1046.20 13.53822
1046.30 13.40986
1046.40 13.31579
1046.50 13.21551
1046.60 13.10801
1046.70 12.97914
1046.80 12.85517
1046.90 12.73228
1047.00 12.60737
1047.10 12.46878
1047.20 12.45607
1047.30 12.44221
1047.40 12.4485
1047.50 12.57223
1047.60 12.7061
1047.70 12.78609
1047.80 12.8132
1047.90 12.85307
1048.00 12.86861
1048.10 12.86748
1048.20 12.86217
1048.30 12.94908
1048.40 13.0267
1048.50 13.08018
1048.60 13.09944
1048.70 13.14249
1048.80 13.16952
1048.90 13.18772
1049.00 13.20341
1049.10 13.22325
1049.20 13.23867
1049.30 13.22945
1049.40 13.17081
1049.50 13.14515
1049.60 12.99317
1049.70 12.75237
1049.80 12.51295
1049.90 12.54393
1050.00 12.56371
1050.10 12.62851
1050.20 12.84332
1050.30 13.07127
1050.40 13.16166
1050.50 13.16276
1050.60 13.17931
1050.70 13.15397
1050.80 13.12254
1050.90 13.08345
1051.00 13.03161
1051.10 12.99876
1051.20 12.92508
1051.30 12.80045
1051.40 12.67101
1051.50 12.61464
1051.60 12.56042
1051.70 12.50135
1051.80 12.54197
1051.90 12.59084
1052.00 12.61453
1052.10 12.59347
1052.20 12.56629
1052.30 12.60468
1052.40 12.6613
1052.50 12.70454
1052.60 12.87179
1052.70 13.04328
1052.80 13.18929
1052.90 13.26936
1053.00 13.38106
1053.10 13.3718
1053.20 13.27433
1053.30 13.1716
1053.40 13.18818
1053.50 13.20596
1053.60 13.21006
1053.70 13.186
1053.80 13.18104
1053.90 13.17016
1054.00 13.15009
1054.10 13.11908
1054.20 13.15641
1054.30 13.19586
1054.40 13.21829
1054.50 13.16701
1054.60 13.14652
1054.70 13.10615
1054.80 13.03376
1054.90 12.94159
1055.00 12.99416
1055.10 13.06374
1055.20 13.11251
1055.30 13.12153
1055.40 13.16081
1055.50 13.15668
1055.60 13.07098
1055.70 13.00555
1055.80 12.9015
1055.90 12.77652
1056.00 12.6482
1056.10 12.64774
1056.20 12.63068
1056.30 12.60998
1056.40 12.60258
1056.50 12.58464
1056.60 12.61871
1056.70 12.69055
1056.80 12.76818
1056.90 12.76372
1057.00 12.75222
1057.10 12.75877
1057.20 12.8058
1057.30 12.84154
1057.40 12.88484
1057.50 12.93782
1057.60 12.99336
1057.70 13.00909
1057.80 13.02729
1057.90 13.05341
1058.00 13.09038
1058.10 13.12264
1058.20 13.10771
1058.30 13.05221
1058.40 13.01893
1058.50 12.86147
1058.60 12.67314
1058.70 12.51125
1058.80 12.523
1058.90 12.51126
1059.00 12.54111
1059.10 12.64526
1059.20 12.75042
1059.30 12.82964
1059.40 12.89125
1059.50 12.94433
1059.60 12.99388
1059.70 13.05458
1059.80 13.08578
1059.90 13.03005
1060.00 12.99216
1060.10 12.9614
1060.20 12.9294
1060.30 12.89127
1060.40 12.87421
1060.50 12.86295
1060.60 12.82335
1060.70 12.716
1060.80 12.6095
1060.90 12.56107
1061.00 12.54346
1061.10 12.50556
1061.20 12.57109
1061.30 12.64339
1061.40 12.71975
1061.50 12.8253
1061.60 12.94757
1061.70 12.97055
1061.80 12.8921
1061.90 12.83098
1062.00 12.7973
1062.10 12.76789
1062.20 12.73493
1062.30 12.73346
1062.40 12.71628
1062.50 12.74759
1062.60 12.8626
1062.70 12.96162
1062.80 13.06167
1062.90 13.17011
1063.00 13.29032
1063.10 13.2487
1063.20 13.2245
1063.30 13.20711
1063.40 13.18411
1063.50 13.14686
1063.60 13.14188
1063.70 13.14808
1063.80 13.14643
1063.90 13.18388
1064.00 13.2196
1064.10 13.24994
1064.20 13.26606
1064.30 13.30027
1064.40 13.31959
1064.50 13.3252
1064.60 13.32706
1064.70 13.30008
1064.80 13.27032
1064.90 13.24326
1065.00 13.23154
1065.10 13.22285
1065.20 13.17696
1065.30 13.09615
1065.40 13.03433
1065.50 12.97253
1065.60 12.89626
1065.70 12.8171
1065.80 12.83744
1065.90 12.85602
1066.00 12.82611
1066.10 12.7307
1066.20 12.66301
1066.30 12.54339
1066.40 12.39757
1066.50 12.26458
1066.60 12.35558
1066.70 12.43089
1066.80 12.48951
1066.90 12.52687
1067.00 12.58117
1067.10 12.59837
1067.20 12.58769
1067.30 12.55689
1067.40 12.66095
1067.50 12.76417
1067.60 12.83989
1067.70 12.85265
1067.80 12.88427
1067.90 12.92856
1068.00 12.97737
1068.10 13.02156
1068.20 13.13153
1068.30 13.23797
1068.40 13.34848
1068.50 13.47351
1068.60 13.60991
1068.70 13.6676
1068.80 13.65236
1068.90 13.64992
1069.00 13.60694
1069.10 13.54934
1069.20 13.49773
1069.30 13.48247
1069.40 13.48278
1069.50 13.42658
1069.60 13.31006
1069.70 13.18629
1069.80 13.15244
1069.90 13.1272
1070.00 13.09552
1070.10 13.08469
1070.20 13.08814
1070.30 13.07517
1070.40 13.02381
1070.50 12.94925
1070.60 12.96444
1070.70 13.01606
1070.80 13.06636
1070.90 13.0681
1071.00 13.09203
1071.10 13.12074
1071.20 13.13977
1071.30 13.13345
1071.40 13.15135
1071.50 13.19036
1071.60 13.23571
1071.70 13.21464
1071.80 13.19721
1071.90 13.18792
1072.00 13.18856
1072.10 13.18553
1072.20 13.1514
1072.30 13.10427
1072.40 13.07311
1072.50 12.94697
1072.60 12.798
1072.70 12.66823
1072.80 12.65621
1072.90 12.62002
1073.00 12.66432
1073.10 12.79346
1073.20 12.93845
1073.30 12.91492
1073.40 12.85936
1073.50 12.81093
1073.60 12.81193
1073.70 12.78553
1073.80 12.82377
1073.90 12.96793
1074.00 13.11106
1074.10 13.15379
1074.20 13.15801
1074.30 13.17109
1074.40 13.17108
1074.50 13.18677
1074.60 13.17072
1074.70 13.098
1074.80 13.01851
1074.90 12.98448
1075.00 12.97372
1075.10 12.96124
1075.20 12.97904
1075.30 12.9948
1075.40 12.99537
1075.50 12.95972
1075.60 12.91005
1075.70 12.94765
1075.80 13.04341
1075.90 13.1317
1076.00 13.15345
1076.10 13.18929
1076.20 13.22765
1076.30 13.22717
1076.40 13.22402
1076.50 13.23394
1076.60 13.25854
1076.70 13.27864
1076.80 13.27934
1076.90 13.27178
1077.00 13.26376
1077.10 13.23979
1077.20 13.22618
1077.30 13.17419
1077.40 13.08221
1077.50 12.99783
1077.60 12.93303
1077.70 12.86212
1077.80 12.79857
1077.90 12.87323
1078.00 12.935
1078.10 12.97795
1078.20 12.99952
1078.30 13.03599
1078.40 13.05956
1078.50 13.07337
1078.60 13.08624
1078.70 13.06836
1078.80 13.0665
1078.90 13.05112
1079.00 12.98759
1079.10 12.92076
1079.20 12.87359
1079.30 12.83989
1079.40 12.8038
1079.50 12.83367
1079.60 12.85236
1079.70 12.87311
1079.80 12.92629
1079.90 12.98516
1080.00 13.00554
1080.10 13.00069
1080.20 12.99762
1080.30 13.04604
1080.40 13.10185
1080.50 13.15616
1080.60 13.20038
1080.70 13.23599
1080.80 13.24241
1080.90 13.22196
1081.00 13.21313
1081.10 13.20019
1081.20 13.18577
1081.30 13.17276
1081.40 13.18958
1081.50 13.2012
1081.60 13.21194
1081.70 13.22241
1081.80 13.23875
1081.90 13.24344
1082.00 13.25387
1082.10 13.27541
1082.20 13.17548
1082.30 13.07708
1082.40 13.00643
1082.50 12.98006
1082.60 12.93797
1082.70 13.01131
1082.80 13.12919
1082.90 13.24105
1083.00 13.42131
1083.10 13.60206
1083.20 13.70957
1083.30 13.64666
1083.40 13.59965
1083.50 13.44316
1083.60 13.2151
1083.70 12.98689
1083.80 12.94898
1083.90 12.91784
1084.00 12.90196
1084.10 12.98923
1084.20 13.08591
1084.30 13.10874
1084.40 13.0565
1084.50 13.01519
1084.60 12.97337
1084.70 12.93442
1084.80 12.90481
1084.90 12.92739
1085.00 12.92391
1085.10 12.95537
1085.20 13.0324
1085.30 13.12845
1085.40 13.11553
1085.50 13.07152
1085.60 13.03147
1085.70 13.08756
1085.80 13.13232
1085.90 13.18111
1086.00 13.23784
1086.10 13.29926
1086.20 13.32898
1086.30 13.35247
1086.40 13.38287
1086.50 13.35542
1086.60 13.34057
1086.70 13.32751
1086.80 13.30547
1086.90 13.26369
1087.00 13.2808
1087.10 13.33724
1087.20 13.39246
1087.30 13.33078
1087.40 13.29079
1087.50 13.24688
1087.60 13.17015
1087.70 13.07407
1087.80 13.05303
1087.90 13.08427
1088.00 13.11344
1088.10 13.10928
1088.20 13.11245
1088.30 13.11656
1088.40 13.10788
1088.50 13.08715
1088.60 13.0877
1088.70 13.11885
1088.80 13.16104
1088.90 13.1802
1089.00 13.18977
1089.10 13.18973
1089.20 13.16663
1089.30 13.14922
1089.40 13.10972
1089.50 13.04622
1089.60 12.97383
1089.70 13.01021
1089.80 13.06213
1089.90 13.10526
1090.00 13.15043
1090.10 13.21291
1090.20 13.25132
1090.30 13.24421
1090.40 13.23822
1090.50 13.20194
1090.60 13.15769
1090.70 13.12247
1090.80 13.06376
1090.90 13.00873
1091.00 12.96111
1091.10 12.92479
1091.20 12.87048
1091.30 12.8886
1091.40 12.94907
1091.50 12.99267
1091.60 13.10344
1091.70 13.22838
1091.80 13.309
1091.90 13.26007
1092.00 13.22045
1092.10 13.22165
1092.20 13.24709
1092.30 13.27026
1092.40 13.24346
1092.50 13.21315
1092.60 13.19092
1092.70 13.18437
1092.80 13.17472
1092.90 13.1648
1093.00 13.15881
1093.10 13.15947
1093.20 13.15682
1093.30 13.15113
1093.40 13.14921
1093.50 13.19893
1093.60 13.24884
1093.70 13.30415
1093.80 13.36704
1093.90 13.41686
1094.00 13.53197
1094.10 13.66224
1094.20 13.76613
1094.30 13.65313
1094.40 13.57636
1094.50 13.48494
1094.60 13.34885
1094.70 13.18024
1094.80 13.12126
1094.90 13.09564
1095.00 13.05669
1095.10 13.14159
1095.20 13.22853
1095.30 13.29204
1095.40 13.30123
1095.50 13.33909
1095.60 13.34071
1095.70 13.3201
1095.80 13.30113
1095.90 13.26468
1096.00 13.21255
1096.10 13.17324
1096.20 13.21026
1096.30 13.25187
1096.40 13.27429
1096.50 13.28612
1096.60 13.3086
1096.70 13.18287
1096.80 13.05282
1096.90 12.95037
1097.00 12.91607
1097.10 12.86777
1097.20 12.84499
1097.30 12.84413
1097.40 12.81592
1097.50 12.85088
1097.60 12.9079
1097.70 12.96495
1097.80 12.97516
1097.90 12.98585
1098.00 13.01235
1098.10 13.06497
1098.20 13.13483
1098.30 13.11997
1098.40 13.06779
1098.50 13.01925
1098.60 13.0079
1098.70 12.99451
1098.80 12.98209
1098.90 12.97676
1099.00 12.96046
1099.10 12.99293
1099.20 13.04082
1099.30 13.07913
1099.40 13.07855
1099.50 13.09081
1099.60 13.10871
1099.70 13.11593
1099.80 13.12788
1099.90 13.11507
1100.00 13.0878
1100.10 13.06275
1100.20 13.0375
1100.30 13.01647
1100.40 12.99443
1100.50 12.95303
1100.60 12.89627
1100.70 12.88443
1100.80 12.90507
1100.90 12.91493
1101.00 12.95752
1101.10 13.01591
1101.20 13.07891
1101.30 13.11435
1101.40 13.12829
1101.50 13.11042
1101.60 13.07516
1101.70 13.0699
1101.80 12.98935
1101.90 12.89877
1102.00 12.8223
1102.10 12.76666
1102.20 12.70083
1102.30 12.66598
1102.40 12.67953
1102.50 12.64398
1102.60 12.7324
1102.70 12.86366
1102.80 12.97961
1102.90 13.00674
1103.00 13.06172
1103.10 13.06334
1103.20 12.96635
1103.30 12.91013
1103.40 12.81721
1103.50 12.69915
1103.60 12.56804
1103.70 12.60549
1103.80 12.60864
1103.90 12.61151
1104.00 12.6494
1104.10 12.70159
1104.20 12.69345
1104.30 12.65335
1104.40 12.62336
1104.50 12.63046
1104.60 12.62901
1104.70 12.64267
1104.80 12.7383
1104.90 12.84306
1105.00 12.8442
1105.10 12.78697
1105.20 12.75388
1105.30 12.66442
1105.40 12.55416
1105.50 12.45813
1105.60 12.44009
1105.70 12.40374
1105.80 12.4111
1105.90 12.46909
1106.00 12.52225
1106.10 12.53215
1106.20 12.53973
1106.30 12.54734
1106.40 12.50738
1106.50 12.46186
1106.60 12.43691
1106.70 12.44379
1106.80 12.47418
1106.90 12.44554
1107.00 12.39003
1107.10 12.33586
1107.20 12.40404
1107.30 12.45457
1107.40 12.49752
1107.50 12.53907
1107.60 12.59715
1107.70 12.64126
1107.80 12.67431
1107.90 12.70107
1108.00 12.66726
1108.10 12.63236
1108.20 12.63156
1108.30 12.70865
1108.40 12.78967
1108.50 12.82796
1108.60 12.84027
1108.70 12.85411
1108.80 12.84335
1108.90 12.83584
1109.00 12.82523
1109.10 12.79732
1109.20 12.766
1109.30 12.76719
1109.40 12.79268
1109.50 12.81384
1109.60 12.83746
1109.70 12.86294
1109.80 12.88183
1109.90 12.87142
1110.00 12.87786
1110.10 12.86518
1110.20 12.82878
1110.30 12.80125
1110.40 12.72848
1110.50 12.63675
1110.60 12.54679
1110.70 12.56868
1110.80 12.57195
1110.90 12.56637
1111.00 12.55221
1111.10 12.55745
1111.20 12.53465
1111.30 12.50222
1111.40 12.46877
1111.50 12.41087
1111.60 12.34757
1111.70 12.33701
1111.80 12.41153
1111.90 12.48499
1112.00 12.4751
1112.10 12.43058
1112.20 12.38546
1112.30 12.38009
1112.40 12.36575
1112.50 12.39507
1112.60 12.52864
1112.70 12.6561
1112.80 12.73049
1112.90 12.77388
1113.00 12.82307
1113.10 12.75379
1113.20 12.68095
1113.30 12.64725
1113.40 12.6934
1113.50 12.74815
1113.60 12.7487
1113.70 12.70914
1113.80 12.67385
1113.90 12.64108
1114.00 12.59183
1114.10 12.56548
1114.20 12.66605
1114.30 12.75492
1114.40 12.83536
1114.50 12.91315
1114.60 13.00458
1114.70 13.07714
1114.80 13.15633
1114.90 13.21058
1115.00 12.99662
1115.10 12.77302
1115.20 12.62597
1115.30 12.59167
1115.40 12.55752
1115.50 12.5926
1115.60 12.65287
1115.70 12.72276
1115.80 12.75774
1115.90 12.7821
1116.00 12.79901
1116.10 12.8137
1116.20 12.81838
1116.30 12.80573
1116.40 12.7896
1116.50 12.78862
1116.60 12.51373
1116.70 12.23258
1116.80 12.0804
1116.90 12.22936
1117.00 12.39074
1117.10 12.45102
1117.20 12.44637
1117.30 12.44388
1117.40 12.34285
1117.50 12.22635
1117.60 12.17384
1117.70 12.27563
1117.80 12.37368
1117.90 12.51647
1118.00 12.58254
1118.10 12.64238
1118.20 12.69478
1118.30 12.7076
1118.40 12.71975
1118.50 12.74284
1118.60 12.80062
1118.70 12.86943
1118.80 12.94747
1118.90 12.9545
1119.00 12.7898
1119.10 12.62552
1119.20 12.47189
1119.30 12.38126
1119.40 12.28799
1119.50 12.18932
1119.60 12.29801
1119.70 12.45709
1119.80 12.60979
1119.90 12.6918
1120.00 12.72588
1120.10 12.7651
1120.20 12.76087
1120.30 12.65215
1120.40 12.54119
1120.50 12.45696
1120.60 12.54624
1120.70 12.63984
1120.80 12.7331
1120.90 12.78548
1121.00 12.83323
1121.10 12.88101
1121.20 12.8431
1121.30 12.74161
1121.40 12.63721
1121.50 12.58029
1121.60 12.63679
1121.70 12.69906
1121.80 12.76181
1121.90 12.74323
1122.00 12.71773
1122.10 12.68829
1122.20 12.60357
1122.30 12.50061
1122.40 12.39965
1122.50 12.29844
1122.60 12.17753
1122.70 12.04877
1122.80 12.04954
1122.90 12.35987
1123.00 12.68586
1123.10 13.01147
1123.20 13.05132
1123.30 13.10434
1123.40 13.16533
1123.50 12.94593
1123.60 12.63824
1123.70 12.30301
1123.80 12.20835
1123.90 12.34314
1124.00 12.47884
1124.10 12.5976
1124.20 12.69037
1124.30 12.78876
1124.40 12.89039
1124.50 12.84231
1124.60 12.79733
1124.70 12.76018
1124.80 12.79868
1124.90 12.8716
1125.00 12.95013
1125.10 12.9935
1125.20 12.98812
1125.30 12.96873
1125.40 12.85816
1125.50 12.34928
1125.60 11.83319
1125.70 11.32023
1125.80 11.76954
1125.90 12.22563
1126.00 12.68624
1126.10 12.74602
1126.20 12.63535
1126.30 12.52409
1126.40 12.47387
1126.50 12.48205
1126.60 12.48496
1126.70 12.50466
1126.80 12.60121
1126.90 12.70142
1127.00 12.80261
1127.10 12.81142
1127.20 12.82223
1127.30 12.83992
1127.40 12.75103
1127.50 12.61778
1127.60 12.48345
1127.70 12.38857
1127.80 12.33091
1127.90 12.26425
1128.00 12.23112
1128.10 12.33618
1128.20 12.44222
1128.30 12.54991
1128.40 12.58026
1128.50 12.61016
1128.60 12.64108
1128.70 12.67947
1128.80 12.72555
1128.90 12.77756
1129.00 12.79541
1129.10 12.78045
1129.20 12.76593
1129.30 12.7509
1129.40 12.74093
1129.50 12.72109
1129.60 12.69678
1129.70 12.61459
1129.80 12.52518
1129.90 12.4399
1130.00 12.40751
1130.10 12.4089
1130.20 12.43715
1130.30 12.4519
1130.40 12.45405
1130.50 12.45154
1130.60 12.44901
1130.70 12.45187
1130.80 12.4417
1130.90 12.42268
1131.00 12.44958
1131.10 12.4759
1131.20 12.49924
1131.30 12.50023
1131.40 12.49175
1131.50 12.49001
1131.60 12.50816
1131.70 12.5558
1131.80 12.60709
1131.90 12.65696
1132.00 12.6979
1132.10 12.74266
1132.20 12.78919
1132.30 12.73329
1132.40 12.66476
1132.50 12.59376
1132.60 12.56811
1132.70 12.56365
1132.80 12.55757
1132.90 12.59209
1133.00 12.68864
1133.10 12.79118
1133.20 12.8492
1133.30 12.72273
1133.40 12.59526
1133.50 12.46809
1133.60 12.43486
1133.70 12.41417
1133.80 12.39348
1133.90 12.39889
1134.00 12.41556
1134.10 12.43134
1134.20 12.45597
1134.30 12.48563
1134.40 12.51068
1134.50 12.53175
1134.60 12.53476
1134.70 12.52519
1134.80 12.52041
1134.90 12.24604
1135.00 11.94661
1135.10 11.66012
1135.20 11.84433
1135.30 12.244
1135.40 12.64993
1135.50 12.87307
1135.60 12.83318
1135.70 12.79015
1135.80 12.72029
1135.90 12.54008
1136.00 12.34149
1136.10 12.14493
1136.20 12.12366
1136.30 12.12956
1136.40 12.14496
1136.50 12.19304
1136.60 12.27633
1136.70 12.36344
1136.80 12.3916
1136.90 12.33167
1137.00 12.26888
1137.10 12.21465
1137.20 12.23725
1137.30 12.26652
1137.40 12.30023
1137.50 12.04942
1137.60 11.77247
1137.70 11.51487
1137.80 11.23532
1137.90 10.96243
1138.00 10.71615
1138.10 10.40748
1138.20 10.01526
1138.30 9.573638
1138.40 9.203505
1138.50 9.408863
1138.60 9.547409
1138.70 9.648156
1138.80 10.14624
1138.90 10.69618
1139.00 11.27508
1139.10 11.552
1139.20 11.648
1139.30 11.78204
1139.40 11.85883
1139.50 11.86254
1139.60 11.88129
1139.70 11.87018
1139.80 11.57276
1139.90 11.29258
1140.00 11.02243
1140.10 10.55984
1140.20 10.0996
1140.30 9.660768
1140.40 9.200943
1140.50 8.729123
1140.60 8.190596
1140.70 7.990078
1140.80 8.242031
1140.90 8.401309
1141.00 8.61015
1141.10 9.345611
1141.20 10.09849
1141.30 10.8543
1141.40 11.12323
1141.50 11.34791
1141.60 11.59431
1141.70 11.77817
1141.80 11.93914
1141.90 12.11692
1142.00 12.18092
1142.10 12.07798
1142.20 11.98404
1142.30 11.90027
1142.40 11.89362
1142.50 11.88391
1142.60 11.87205
1142.70 11.95406
1142.80 12.04441
1142.90 12.13723
1143.00 12.20934
1143.10 12.27384
1143.20 12.34315
1143.30 12.41005
1143.40 12.47217
1143.50 12.53355
1143.60 12.57897
1143.70 12.48346
1143.80 12.39763
1143.90 12.31855
1144.00 12.16261
1144.10 11.98824
1144.20 11.80371
1144.30 11.73287
1144.40 11.73897
1144.50 11.7439
1144.60 11.78875
1144.70 11.89864
1144.80 12.00543
1144.90 12.10407
1145.00 12.14516
1145.10 12.18747
1145.20 12.23451
1145.30 12.26114
1145.40 12.28921
1145.50 12.31735
1145.60 12.30563
1145.70 12.26761
1145.80 12.22852
1145.90 12.24116
1146.00 12.32815
1146.10 12.40876
1146.20 12.47931
1146.30 12.49198
1146.40 12.50514
1146.50 12.52076
1146.60 12.44807
1146.70 12.36635
1146.80 12.29743
1146.90 12.30019
1147.00 12.36066
1147.10 12.42459
1147.20 12.39798
1147.30 12.23318
1147.40 12.05486
1147.50 11.91737
1147.60 12.15323
1147.70 12.3872
1147.80 12.61756
1147.90 12.61826
1148.00 12.59716
1148.10 12.58019
1148.20 12.5953
1148.30 12.6276
1148.40 12.67399
1148.50 12.65528
1148.60 12.53385
1148.70 12.3927
1148.80 12.27906
1148.90 12.28902
1149.00 12.29958
1149.10 12.31038
1149.20 12.44669
1149.30 12.6102
1149.40 12.78078
1149.50 12.73977
1149.60 12.59998
1149.70 12.45326
1149.80 12.30284
1149.90 12.14016
1150.00 11.98216
1150.10 11.89153
1150.20 12.07864
1150.30 12.26748
1150.40 12.45352
1150.50 12.49999
1150.60 12.52456
1150.70 12.54371
1150.80 12.54148
1150.90 12.52823
1151.00 12.52058
1151.10 12.48758
1151.20 12.41974
1151.30 12.35563
1151.40 12.3207
1151.50 12.39984
1151.60 12.47928
1151.70 12.55617
1151.80 12.53926
1151.90 12.50776
1152.00 12.47661
1152.10 12.47337
1152.20 12.4875
1152.30 12.51307
1152.40 12.48115
1152.50 12.3673
1152.60 12.24585
1152.70 12.15264
1152.80 12.16341
1152.90 12.17043
1153.00 12.17313
1153.10 12.27069
1153.20 12.38322
1153.30 12.49608
1153.40 12.50259
1153.50 12.46209
1153.60 12.41417
1153.70 12.38387
1153.80 12.37445
1153.90 12.36174
1154.00 12.34043
1154.10 12.28713
1154.20 12.24087
1154.30 12.2006
1154.40 12.22821
1154.50 12.27212
1154.60 12.32555
1154.70 12.35303
1154.80 12.37176
1154.90 12.37555
1155.00 12.38705
1155.10 12.4025
1155.20 12.40957
1155.30 12.41779
1155.40 12.44782
1155.50 12.47905
1155.60 12.51232
1155.70 12.4467
1155.80 12.38163
1155.90 12.32391
1156.00 12.36208
1156.10 12.44865
1156.20 12.53301
1156.30 12.54615
1156.40 12.48568
1156.50 12.42339
1156.60 12.37938
1156.70 12.40986
1156.80 12.44864
1156.90 12.49122
1157.00 12.47383
1157.10 12.45445
1157.20 12.42927
1157.30 12.43571
1157.40 12.44991
1157.50 12.4628
1157.60 12.42916
1157.70 12.34955
1157.80 12.2692
1157.90 12.21824
1158.00 12.27891
1158.10 12.33874
1158.20 12.39783
1158.30 12.42451
1158.40 12.45516
1158.50 12.48735
1158.60 12.45888
1158.70 12.40644
1158.80 12.35876
1158.90 12.29735
1159.00 12.22276
1159.10 12.15948
1159.20 12.10152
1159.30 12.06413
1159.40 12.02741
1159.50 11.98938
1159.60 11.95402
1159.70 11.90325
1159.80 11.83561
1159.90 11.88543
1160.00 11.95676
1160.10 12.0243
1160.20 12.0693
1160.30 12.09292
1160.40 12.12889
1160.50 12.10153
1160.60 11.92849
1160.70 11.7828
1160.80 11.64585
1160.90 11.48735
1161.00 11.31784
1161.10 11.12517
1161.20 11.22236
1161.30 11.37113
1161.40 11.49507
1161.50 11.6568
1161.60 11.85365
1161.70 12.07641
1161.80 12.24578
1161.90 12.2976
1162.00 12.36323
1162.10 12.43346
1162.20 12.36114
1162.30 12.28354
1162.40 12.20005
1162.50 12.20544
1162.60 12.22718
1162.70 12.24434
1162.80 12.29144
1162.90 12.36794
1163.00 12.44518
1163.10 12.498
1163.20 12.49615
1163.30 12.50331
1163.40 12.49835
1163.50 12.37746
1163.60 12.26936
1163.70 12.17488
1163.80 11.97614
1163.90 11.75105
1164.00 11.51256
1164.10 11.48315
1164.20 11.57908
1164.30 11.63575
1164.40 11.73174
1164.50 11.91616
1164.60 12.11297
1164.70 12.2945
1164.80 12.30411
1164.90 12.32288
1165.00 12.34775
1165.10 12.32305
1165.20 12.29212
1165.30 12.26303
1165.40 12.2369
1165.50 12.21405
1165.60 12.18476
1165.70 12.17396
1165.80 12.19607
1165.90 12.20895
1166.00 12.22724
1166.10 12.29429
1166.20 12.36202
1166.30 12.4282
1166.40 12.45212
1166.50 12.47796
1166.60 12.50851
1166.70 12.47839
1166.80 12.40979
1166.90 12.35125
1167.00 12.32098
1167.10 12.33348
1167.20 12.34365
1167.30 12.35165
1167.40 12.33385
1167.50 12.31535
1167.60 12.29451
1167.70 12.28441
1167.80 12.27457
1167.90 12.26182
1168.00 12.25049
1168.10 12.24084
1168.20 12.24126
1168.30 12.22454
1168.40 12.18557
1168.50 12.16312
1168.60 12.12597
1168.70 11.94037
1168.80 11.78989
1168.90 11.66675
1169.00 11.23134
1169.10 10.75923
1169.20 10.24782
1169.30 10.18287
1169.40 10.26578
1169.50 10.23612
1169.60 10.39065
1169.70 10.80134
1169.80 11.22417
1169.90 11.5925
1170.00 11.75552
1170.10 11.94715
1170.20 12.15543
1170.30 12.20777
1170.40 12.25476
1170.50 12.31365
1170.60 12.31864
1170.70 12.30629
1170.80 12.30264
1170.90 12.28847
1171.00 12.26432
1171.10 12.24038
1171.20 12.22639
1171.30 12.25064
1171.40 12.27356
1171.50 12.29672
1171.60 12.29352
1171.70 12.29574
1171.80 12.30495
1171.90 12.28015
1172.00 12.23985
1172.10 12.1946
1172.20 12.17709
1172.30 12.1848
1172.40 12.1879
1172.50 12.19381
1172.60 12.21402
1172.70 12.2304
1172.80 12.24134
1172.90 12.24114
1173.00 12.2415
1173.10 12.24592
1173.20 12.26291
1173.30 12.29106
1173.40 12.32936
1173.50 12.32873
1173.60 12.29134
1173.70 12.25189
1173.80 12.21506
1173.90 12.17563
1174.00 12.12955
1174.10 12.08193
1174.20 12.12222
1174.30 12.16143
1174.40 12.19771
1174.50 12.23942
1174.60 12.28536
1174.70 12.33889
1174.80 12.36564
1174.90 12.37028
1175.00 12.38135
1175.10 12.37685
1175.20 12.33373
1175.30 12.28794
1175.40 12.24312
1175.50 12.27816
1175.60 12.308
1175.70 12.33135
1175.80 12.32572
1175.90 12.31821
1176.00 12.3193
1176.10 12.29853
1176.20 12.26719
1176.30 12.24094
1176.40 12.21601
1176.50 12.18753
1176.60 12.18078
1176.70 12.14654
1176.80 11.82439
1176.90 11.54268
1177.00 11.29001
1177.10 10.79152
1177.20 10.2376
1177.30 9.647203
1177.40 9.382414
1177.50 9.303931
1177.60 9.094998
1177.70 9.188417
1177.80 9.717578
1177.90 10.22005
1178.00 10.68341
1178.10 10.91726
1178.20 11.18429
1178.30 11.47955
1178.40 11.49992
1178.50 11.50283
1178.60 11.51822
1178.70 11.59177
1178.80 11.70871
1178.90 11.82861
1179.00 11.93339
1179.10 12.01848
1179.20 12.11643
1179.30 12.19833
1179.40 12.12467
1179.50 12.05495
1179.60 11.98771
1179.70 11.93815
1179.80 11.8884
1179.90 11.83399
1180.00 11.8732
1180.10 11.94989
1180.20 12.02158
1180.30 12.08267
1180.40 12.12564
1180.50 12.17503
1180.60 12.21128
1180.70 12.1936
1180.80 12.18093
1180.90 12.16925
1181.00 12.15434
1181.10 12.13852
1181.20 12.12197
1181.30 12.13595
1181.40 12.16247
1181.50 12.18934
1181.60 12.18844
1181.70 12.15739
1181.80 12.12034
1181.90 12.08573
1182.00 12.06456
1182.10 12.04213
1182.20 12.01649
1182.30 12.01603
1182.40 12.02478
1182.50 12.04224
1182.60 11.93636
1182.70 11.7845
1182.80 11.6404
1182.90 11.522
1183.00 11.42608
1183.10 11.30597
1183.20 11.26767
1183.30 11.40793
1183.40 11.54533
1183.50 11.68393
1183.60 11.74133
1183.70 11.80748
1183.80 11.87607
1183.90 11.93838
1184.00 11.99369
1184.10 12.03081
1184.20 12.08789
1184.30 12.15794
1184.40 12.23886
1184.50 12.27718
1184.60 12.21989
1184.70 12.17891
1184.80 12.14101
1184.90 12.05808
1185.00 11.97217
1185.10 11.87951
1185.20 11.90338
1185.30 11.95042
1185.40 11.98584
1185.50 12.0217
1185.60 12.05364
1185.70 12.09267
1185.80 12.11937
1185.90 12.11691
1186.00 12.1144
1186.10 12.11343
1186.20 12.13365
1186.30 12.1538
1186.40 12.17598
1186.50 12.15207
1186.60 12.12153
1186.70 12.09732
1186.80 12.0694
1186.90 12.04185
1187.00 12.0083
1187.10 11.99778
1187.20 12.01877
1187.30 12.03295
1187.40 12.04278
1187.50 12.02992
1187.60 12.02008
1187.70 12.01425
1187.80 11.97189
1187.90 11.93723
1188.00 11.91914
1188.10 11.6762
1188.20 11.34633
1188.30 11.04166
1188.40 10.76332
1188.50 10.5272
1188.60 10.23744
1188.70 10.0716
1188.80 10.39824
1188.90 10.69608
1189.00 10.97369
1189.10 11.18977
1189.20 11.41322
1189.30 11.67018
1189.40 11.75902
1189.50 11.78397
1189.60 11.80929
1189.70 11.87071
1189.80 11.9693
1189.90 12.06862
1190.00 12.14245
1190.10 12.12118
1190.20 12.10794
1190.30 12.09822
1190.40 12.06179
1190.50 12.02624
1190.60 11.99279
1190.70 11.97969
1190.80 11.97275
1190.90 11.94931
1191.00 11.9483
1191.10 11.96392
1191.20 11.98257
1191.30 11.99964
1191.40 12.01243
1191.50 12.02882
1191.60 12.04726
1191.70 12.05772
1191.80 12.06851
1191.90 12.07777
1192.00 12.09233
1192.10 12.10623
1192.20 12.12477
1192.30 12.12109
1192.40 12.09926
1192.50 12.07885
1192.60 12.06693
1192.70 12.07202
1192.80 12.06995
1192.90 12.06682
1193.00 12.08214
1193.10 12.09764
1193.20 12.11419
1193.30 12.08304
1193.40 12.04338
1193.50 12.01499
1193.60 11.96112
1193.70 11.89604
1193.80 11.83544
1193.90 11.79417
1194.00 11.79487
1194.10 11.78492
1194.20 11.77249
1194.30 11.76556
1194.40 11.75755
1194.50 11.75037
1194.60 11.73563
1194.70 11.72795
1194.80 11.73177
1194.90 11.67963
1195.00 11.59366
1195.10 11.48891
1195.20 11.45241
1195.30 11.50671
1195.40 11.5427
1195.50 11.5765
1195.60 11.60829
1195.70 11.6527
1195.80 11.7098
1195.90 11.7013
1196.00 11.69681
1196.10 11.6958
1196.20 11.68634
1196.30 11.67224
1196.40 11.65011
1196.50 11.63531
1196.60 11.62842
1196.70 11.61796
1196.80 11.59703
1196.90 11.54448
1197.00 11.51354
1197.10 11.49128
1197.20 11.19259
1197.30 10.90422
1197.40 10.62247
1197.50 10.45551
1197.60 10.32812
1197.70 10.14024
1197.80 10.18077
1197.90 10.42778
1198.00 10.6665
1198.10 10.87367
1198.20 11.01613
1198.30 11.16645
1198.40 11.31631
1198.50 11.37038
1198.60 11.42507
1198.70 11.48704
1198.80 11.45999
1198.90 11.42343
1199.00 11.41281
1199.10 11.39548
1199.20 11.37767
1199.30 11.34924
1199.40 11.33562
1199.50 11.35207
1199.60 11.35726
1199.70 11.35898
1199.80 11.37205
1199.90 11.38567
1200.00 11.40226
