# Version 2.1 - nm, norm@500 to 1, cut digits
# Wavelength(nm)  Flambda(ergs/cm^s/s/nm)
300.00 0.009279639
300.10 0.01233641
300.20 0.0141971
300.30 0.01496537
300.40 0.0151654
300.50 0.01522326
300.60 0.01528147
300.70 0.01534053
300.80 0.01540277
300.90 0.01547278
301.00 0.01555565
301.10 0.01565362
301.20 0.01576442
301.30 0.01588291
301.40 0.01600443
301.50 0.01612656
301.60 0.01624868
301.70 0.0163708
301.80 0.01649292
301.90 0.01661504
302.00 0.01673715
302.10 0.01685927
302.20 0.01698139
302.30 0.01710351
302.40 0.01722562
302.50 0.01734774
302.60 0.01746985
302.70 0.01759242
302.80 0.01771729
302.90 0.017848
303.00 0.01798845
303.10 0.01814037
303.20 0.01830203
303.30 0.01846954
303.40 0.01863934
303.50 0.0188096
303.60 0.01897985
303.70 0.01915011
303.80 0.01932036
303.90 0.01949062
304.00 0.01966087
304.10 0.01983113
304.20 0.02000138
304.30 0.02017164
304.40 0.0203419
304.50 0.02051216
304.60 0.02068243
304.70 0.0208513
304.80 0.02101314
304.90 0.02115711
305.00 0.02127129
305.10 0.02135039
305.20 0.02139971
305.30 0.02143115
305.40 0.02145555
305.50 0.02147856
305.60 0.02150158
305.70 0.0215246
305.80 0.02154763
305.90 0.02157066
306.00 0.02159368
306.10 0.02161671
306.20 0.02163974
306.30 0.02166276
306.40 0.02168579
306.50 0.02170882
306.60 0.02173184
306.70 0.02175487
306.80 0.02177792
306.90 0.021801
307.00 0.02182415
307.10 0.02184737
307.20 0.02187066
307.30 0.02189399
307.40 0.02191733
307.50 0.02194068
307.60 0.02196403
307.70 0.02198737
307.80 0.02201072
307.90 0.02203407
308.00 0.02205741
308.10 0.02208076
308.20 0.0221041
308.30 0.02212745
308.40 0.02215078
308.50 0.02217411
308.60 0.02219741
308.70 0.02222422
308.80 0.02226862
308.90 0.02235775
309.00 0.02252144
309.10 0.02277292
309.20 0.02309895
309.30 0.02346972
309.40 0.02385808
309.50 0.02424994
309.60 0.02464178
309.70 0.02503361
309.80 0.02542544
309.90 0.02581726
310.00 0.02620908
310.10 0.0266009
310.20 0.02699272
310.30 0.02738454
310.40 0.02777637
310.50 0.02816821
310.60 0.02856008
310.70 0.02894842
310.80 0.02931907
310.90 0.02964476
311.00 0.0298955
311.10 0.03005798
311.20 0.03014552
311.30 0.0301881
311.40 0.03021298
311.50 0.03023434
311.60 0.03025572
311.70 0.03027712
311.80 0.03029852
311.90 0.03031992
312.00 0.03034133
312.10 0.03036274
312.20 0.03038414
312.30 0.03040554
312.40 0.03042693
312.50 0.03044831
312.60 0.03046966
312.70 0.03049536
312.80 0.03054291
312.90 0.030646
313.00 0.03084164
313.10 0.03114629
313.20 0.0315435
313.30 0.03199624
313.40 0.03247084
313.50 0.03294978
313.60 0.03342869
313.70 0.03390759
313.80 0.03438649
313.90 0.03486537
314.00 0.03534426
314.10 0.03582315
314.20 0.03630204
314.30 0.03678092
314.40 0.0372598
314.50 0.03773867
314.60 0.03821752
314.70 0.0386994
314.80 0.03919648
314.90 0.03973223
315.00 0.04033241
315.10 0.04100846
315.20 0.04174894
315.30 0.04252808
315.40 0.04332244
315.50 0.04411981
315.60 0.04491717
315.70 0.04571452
315.80 0.04651186
315.90 0.0473092
316.00 0.04810654
316.10 0.04890388
316.20 0.04970123
316.30 0.05049858
316.40 0.05129595
316.50 0.05209335
316.60 0.05289083
316.70 0.05367718
316.80 0.05440764
316.90 0.05499598
317.00 0.05534748
317.10 0.05542008
317.20 0.05525585
317.30 0.0549495
317.40 0.05458726
317.50 0.05421389
317.60 0.05384058
317.70 0.05346732
317.80 0.05309408
317.90 0.05272084
318.00 0.05234761
318.10 0.05197437
318.20 0.05160114
318.30 0.0512279
318.40 0.05085464
318.50 0.05048135
318.60 0.05010802
318.70 0.04974319
318.80 0.04942116
318.90 0.04920791
319.00 0.04917596
319.10 0.04935751
319.20 0.04972035
319.30 0.05019197
319.40 0.05070639
319.50 0.05122932
319.60 0.05175221
319.70 0.05227506
319.80 0.05279789
319.90 0.05332072
320.00 0.05384355
320.10 0.05436638
320.20 0.05488921
320.30 0.05541204
320.40 0.05593487
320.50 0.05645772
320.60 0.05698059
320.70 0.0575003
320.80 0.0580042
320.90 0.05846785
321.00 0.05886446
321.10 0.0591821
321.20 0.05943269
321.30 0.05964305
321.40 0.05983758
321.50 0.06002896
321.60 0.06022036
321.70 0.06041177
321.80 0.06060318
321.90 0.0607946
322.00 0.06098602
322.10 0.06117744
322.20 0.06136886
322.30 0.06156027
322.40 0.06175165
322.50 0.061943
322.60 0.06213428
322.70 0.06233706
322.80 0.06259765
322.90 0.0630052
323.00 0.06365767
323.10 0.06459856
323.20 0.06578437
323.30 0.06711714
323.40 0.06850772
323.50 0.06990981
323.60 0.07131182
323.70 0.07271379
323.80 0.07411574
323.90 0.07551769
324.00 0.07691963
324.10 0.07832157
324.20 0.07972351
324.30 0.08112545
324.40 0.0825274
324.50 0.08392935
324.60 0.08533132
324.70 0.08673141
324.80 0.08812212
324.90 0.08948895
325.00 0.090816
325.10 0.0920962
325.20 0.09333661
325.30 0.09455315
325.40 0.0957603
325.50 0.09696558
325.60 0.09817087
325.70 0.09937617
325.80 0.1005815
325.90 0.1017868
326.00 0.1029921
326.10 0.1041974
326.20 0.1054027
326.30 0.106608
326.40 0.1078133
326.50 0.1090186
326.60 0.1102238
326.70 0.1114331
326.80 0.1126626
326.90 0.1139436
327.00 0.1153103
327.10 0.116778
327.20 0.1183315
327.30 0.1199364
327.40 0.1215615
327.50 0.1231907
327.60 0.1248198
327.70 0.126449
327.80 0.1280781
327.90 0.1297072
328.00 0.1313363
328.10 0.1329655
328.20 0.1345946
328.30 0.1362237
328.40 0.1378529
328.50 0.1394822
328.60 0.1411116
328.70 0.1427174
328.80 0.1442044
328.90 0.1453895
329.00 0.1460715
329.10 0.1461611
329.20 0.1457475
329.30 0.145032
329.40 0.1441978
329.50 0.1433399
329.60 0.1424822
329.70 0.1416245
329.80 0.140767
329.90 0.1399094
330.00 0.1390518
330.10 0.1381942
330.20 0.1373366
330.30 0.1364791
330.40 0.1356214
330.50 0.1347637
330.60 0.133906
330.70 0.1330657
330.80 0.1323135
330.90 0.1317853
331.00 0.1316303
331.10 0.1319148
331.20 0.1325725
331.30 0.1334542
331.40 0.134424
331.50 0.1354113
331.60 0.1363984
331.70 0.1373856
331.80 0.1383726
331.90 0.1393597
332.00 0.1403468
332.10 0.1413339
332.20 0.142321
332.30 0.143308
332.40 0.1442951
332.50 0.1452823
332.60 0.1462695
332.70 0.1472456
332.80 0.148166
332.90 0.1489445
333.00 0.1494867
333.10 0.1497507
333.20 0.1497784
333.30 0.1496643
333.40 0.1494944
333.50 0.1493134
333.60 0.1491325
333.70 0.1489516
333.80 0.1487707
333.90 0.1485899
334.00 0.148409
334.10 0.1482281
334.20 0.1480472
334.30 0.1478662
334.40 0.1476851
334.50 0.1475039
334.60 0.1474734
334.70 0.1479346
334.80 0.1490187
334.90 0.1501194
335.00 0.1500827
335.10 0.1485935
335.20 0.1474679
335.30 0.1501008
335.40 0.1588525
335.50 0.1723835
335.60 0.1855122
335.70 0.1922281
335.80 0.1895695
335.90 0.1790901
336.00 0.1652015
336.10 0.1524455
336.20 0.1439893
336.30 0.1411598
336.40 0.142881
336.50 0.145806
336.60 0.1463233
336.70 0.1435524
336.80 0.1404652
336.90 0.141555
337.00 0.1489873
337.10 0.1604889
337.20 0.1706488
337.30 0.1746366
337.40 0.1715942
337.50 0.1651708
337.60 0.1607327
337.70 0.1613825
337.80 0.1661372
337.90 0.1717299
338.00 0.1756629
338.10 0.1772493
338.20 0.176127
338.30 0.1711087
338.40 0.1617898
338.50 0.1509247
338.60 0.1439996
338.70 0.1452901
338.80 0.1538708
338.90 0.1639108
339.00 0.1693588
339.10 0.1688988
339.20 0.1667606
339.30 0.1685609
339.40 0.1761311
339.50 0.1863308
339.60 0.1944447
339.70 0.1981441
339.80 0.1980827
339.90 0.1955607
340.00 0.191096
340.10 0.185223
340.20 0.1791775
340.30 0.1738975
340.40 0.1687506
340.50 0.1621957
340.60 0.1538614
340.70 0.1454035
340.80 0.1391936
340.90 0.1365802
341.00 0.1374731
341.10 0.1410487
341.20 0.1463583
341.30 0.1522872
341.40 0.1575222
341.50 0.1610591
341.60 0.1627993
341.70 0.1635933
341.80 0.1645941
341.90 0.1664061
342.00 0.1685489
342.10 0.1695512
342.20 0.1678464
342.30 0.1630896
342.40 0.1568664
342.50 0.1518906
342.60 0.1501798
342.70 0.1517979
342.80 0.1551175
342.90 0.158105
343.00 0.1595715
343.10 0.1597068
343.20 0.1596367
343.30 0.1603286
343.40 0.1617486
343.50 0.1630606
343.60 0.1635117
343.70 0.1628949
343.80 0.1613706
343.90 0.1593161
344.00 0.1574212
344.10 0.1564836
344.20 0.1567116
344.30 0.1573722
344.40 0.1574345
344.50 0.1565563
344.60 0.1553617
344.70 0.1548939
344.80 0.1559504
344.90 0.1588128
345.00 0.1633321
345.10 0.1690411
345.20 0.175179
345.30 0.1806921
345.40 0.184403
345.50 0.1855778
345.60 0.1845389
345.70 0.1826119
345.80 0.1812185
345.90 0.1808833
346.00 0.180998
346.10 0.1803544
346.20 0.1779869
346.30 0.1739326
346.40 0.1694756
346.50 0.1663994
346.60 0.1655696
346.70 0.1661809
346.80 0.1665063
346.90 0.1653027
347.00 0.1624517
347.10 0.1587216
347.20 0.155387
347.30 0.1538696
347.40 0.1550731
347.50 0.1586712
347.60 0.1632597
347.70 0.1674358
347.80 0.1707364
347.90 0.1736244
348.00 0.1767584
348.10 0.1802567
348.20 0.1834598
348.30 0.1853663
348.40 0.1854448
348.50 0.1840992
348.60 0.1822526
348.70 0.1805049
348.80 0.1788513
348.90 0.177098
349.00 0.1752545
349.10 0.1734847
349.20 0.1719354
349.30 0.1708175
349.40 0.1705095
349.50 0.1712528
349.60 0.172679
349.70 0.1738657
349.80 0.1741524
349.90 0.1740693
350.00 0.1752736
350.10 0.179244
350.20 0.1858636
350.30 0.1932711
350.40 0.1991308
350.50 0.2021096
350.60 0.2023159
350.70 0.2006755
350.80 0.1981439
350.90 0.1952556
351.00 0.1919158
351.10 0.1874449
351.20 0.1811093
351.30 0.1730645
351.40 0.1648708
351.50 0.1587429
351.60 0.1559805
351.70 0.1560519
351.80 0.1572114
351.90 0.1579545
352.00 0.1578582
352.10 0.1572277
352.20 0.1564177
352.30 0.1557357
352.40 0.1558423
352.50 0.1579475
352.60 0.1631472
352.70 0.1712892
352.80 0.1805405
352.90 0.1884103
353.00 0.1935845
353.10 0.1967649
353.20 0.1995938
353.30 0.2029812
353.40 0.2067052
353.50 0.2103194
353.60 0.2139145
353.70 0.2178346
353.80 0.2220741
353.90 0.2262558
354.00 0.2298864
354.10 0.2323248
354.20 0.2327976
354.30 0.2309955
354.40 0.2277426
354.50 0.224716
354.60 0.2231928
354.70 0.2231081
354.80 0.223409
354.90 0.2231594
355.00 0.2221843
355.10 0.2208599
355.20 0.2195867
355.30 0.21855
355.40 0.2178395
355.50 0.2174942
355.60 0.217295
355.70 0.2166282
355.80 0.2147716
355.90 0.2114948
356.00 0.2073333
356.10 0.2031532
356.20 0.1994089
356.30 0.1957799
356.40 0.1915221
356.50 0.1862763
356.60 0.180657
356.70 0.1760327
356.80 0.1735719
356.90 0.1733793
357.00 0.1745058
357.10 0.1756818
357.20 0.1759812
357.30 0.1750096
357.40 0.1727884
357.50 0.1696294
357.60 0.1660448
357.70 0.1625671
357.80 0.1595331
357.90 0.1570079
358.00 0.1549718
358.10 0.1536477
358.20 0.1535869
358.30 0.155308
358.40 0.1587765
358.50 0.163217
358.60 0.1674137
358.70 0.1702308
358.80 0.1710858
358.90 0.170231
359.00 0.1687714
359.10 0.1682505
359.20 0.1698006
359.30 0.1733526
359.40 0.1775464
359.50 0.1805816
359.60 0.1814387
359.70 0.1805115
359.80 0.1791615
359.90 0.1785669
360.00 0.178787
360.10 0.1787643
360.20 0.1772273
360.30 0.1737115
360.40 0.1689495
360.50 0.1645053
360.60 0.1620488
360.70 0.1626911
360.80 0.1664841
360.90 0.1723026
361.00 0.1783984
361.10 0.1833941
361.20 0.1869367
361.30 0.1894265
361.40 0.1912099
361.50 0.1922121
361.60 0.1924142
361.70 0.1923723
361.80 0.1929146
361.90 0.1943008
362.00 0.1959116
362.10 0.1968977
362.20 0.1969604
362.30 0.1964368
362.40 0.1958922
362.50 0.1957983
362.60 0.1963123
362.70 0.1970056
362.80 0.1969398
362.90 0.1954139
363.00 0.1927802
363.10 0.1903405
363.20 0.1892969
363.30 0.1898557
363.40 0.1913148
363.50 0.1927992
363.60 0.1938237
363.70 0.1943407
363.80 0.1944487
363.90 0.1941076
364.00 0.1930671
364.10 0.191041
364.20 0.1879967
364.30 0.1843169
364.40 0.1807186
364.50 0.1780196
364.60 0.1768225
364.70 0.1771782
364.80 0.1785134
364.90 0.1800637
365.00 0.1815721
365.10 0.1835488
365.20 0.1866422
365.30 0.1906744
365.40 0.1944058
365.50 0.1963934
365.60 0.1961813
365.70 0.1946458
365.80 0.193151
365.90 0.1924419
366.00 0.1923654
366.10 0.1924918
366.20 0.1927915
366.30 0.193576
366.40 0.1949263
366.50 0.1963789
366.60 0.1971694
366.70 0.1967263
366.80 0.1949689
366.90 0.1922642
367.00 0.1892346
367.10 0.1865873
367.20 0.1849643
367.30 0.1847786
367.40 0.1860342
367.50 0.1882908
367.60 0.1908787
367.70 0.1932466
367.80 0.1951914
367.90 0.1968205
368.00 0.1983248
368.10 0.1997495
368.20 0.2009133
368.30 0.2014966
368.40 0.2012495
368.50 0.2002262
368.60 0.1988835
368.70 0.1978909
368.80 0.1977221
368.90 0.1983662
369.00 0.1994588
369.10 0.2007116
369.20 0.2021096
369.30 0.2036394
369.40 0.2049424
369.50 0.2054046
369.60 0.2046879
369.70 0.2031451
369.80 0.2016968
369.90 0.20131
370.00 0.2024955
370.10 0.2051084
370.20 0.2085116
370.30 0.2119191
370.40 0.2146668
370.50 0.2163238
370.60 0.216741
370.70 0.2161691
370.80 0.2152742
370.90 0.2148402
371.00 0.2152603
371.10 0.2162112
371.20 0.2167749
371.30 0.2159137
371.40 0.2130496
371.50 0.2084481
371.60 0.203179
371.70 0.1986162
371.80 0.1958099
371.90 0.1951465
372.00 0.1963807
372.10 0.1987069
372.20 0.2007026
372.30 0.2005766
372.40 0.1969972
372.50 0.1901359
372.60 0.1819826
372.70 0.1754544
372.80 0.1729095
372.90 0.175114
373.00 0.181185
373.10 0.1892319
373.20 0.1971406
373.30 0.2031456
373.40 0.2061836
373.50 0.2059691
373.60 0.202799
373.70 0.1972696
373.80 0.19015
373.90 0.1824528
374.00 0.1754473
374.10 0.1704398
374.20 0.1684405
374.30 0.1699853
374.40 0.175178
374.50 0.1837277
374.60 0.1948409
374.70 0.20707
374.80 0.2184039
374.90 0.226779
375.00 0.2307867
375.10 0.2301272
375.20 0.2255603
375.30 0.2185096
375.40 0.210626
375.50 0.2034404
375.60 0.1979995
375.70 0.1945855
375.80 0.1927327
375.90 0.1916139
376.00 0.1906139
376.10 0.1897807
376.20 0.1899223
376.30 0.1922721
376.40 0.1978872
376.50 0.2071936
376.60 0.2199748
376.70 0.2355118
376.80 0.2524838
376.90 0.2686905
377.00 0.2812328
377.10 0.2875055
377.20 0.2863904
377.30 0.2786891
377.40 0.266534
377.50 0.2523795
377.60 0.2383001
377.70 0.2257886
377.80 0.2157032
377.90 0.2082221
378.00 0.2029509
378.10 0.1992635
378.20 0.1966685
378.30 0.1949008
378.40 0.1937765
378.50 0.193144
378.60 0.1930271
378.70 0.1937051
378.80 0.1955925
378.90 0.1991538
379.00 0.2050441
379.10 0.2141902
379.20 0.2274058
379.30 0.2446802
379.40 0.2647378
379.50 0.2852224
379.60 0.3032401
379.70 0.3159369
379.80 0.3211442
379.90 0.3180544
380.00 0.3076346
380.10 0.2923452
380.20 0.2752014
380.30 0.2587403
380.40 0.2444867
380.50 0.2329916
380.60 0.2241328
380.70 0.2173722
380.80 0.2119474
380.90 0.2072022
381.00 0.2029103
381.10 0.1992652
381.20 0.1964912
381.30 0.1944756
381.40 0.1928782
381.50 0.1916124
381.60 0.1910303
381.70 0.1914723
381.80 0.1926328
381.90 0.1934931
382.00 0.1930574
382.10 0.1914096
382.20 0.1898789
382.30 0.1915038
382.40 0.1973365
382.50 0.2056085
382.60 0.2166943
382.70 0.2366831
382.80 0.2743323
382.90 0.3306925
383.00 0.3932244
383.10 0.4408839
383.20 0.4605341
383.30 0.4569993
383.40 0.4417355
383.50 0.420238
383.60 0.3897623
383.70 0.3484354
383.80 0.301256
383.90 0.2612015
384.00 0.2443897
384.10 0.2572067
384.20 0.2860222
384.30 0.30587
384.40 0.3016824
384.50 0.2766858
384.60 0.2422668
384.70 0.2150766
384.80 0.2144609
384.90 0.2522214
385.00 0.311507
385.10 0.3525658
385.20 0.3487335
385.30 0.311141
385.40 0.2699253
385.50 0.2430407
385.60 0.2315726
385.70 0.232162
385.80 0.2418687
385.90 0.2538892
386.00 0.2588185
386.10 0.2520839
386.20 0.2337306
386.30 0.2037263
386.40 0.1651556
386.50 0.132084
386.60 0.1260292
386.70 0.1604653
386.80 0.2277082
386.90 0.2999458
387.00 0.3472537
387.10 0.3559605
387.20 0.3350958
387.30 0.306137
387.40 0.2841241
387.50 0.2671107
387.60 0.2443866
387.70 0.2147864
387.80 0.1915046
387.90 0.1884367
388.00 0.2051787
388.10 0.2281015
388.20 0.246001
388.30 0.2552103
388.40 0.2530161
388.50 0.2396286
388.60 0.2270259
388.70 0.2345042
388.80 0.2674341
388.90 0.3065249
389.00 0.3262531
389.10 0.3207972
389.20 0.3012214
389.30 0.2766315
389.40 0.2475456
389.50 0.2131863
389.60 0.1784269
389.70 0.1487646
389.80 0.1334981
389.90 0.1379734
390.00 0.1602917
390.10 0.1903616
390.20 0.2141602
390.30 0.2290546
390.40 0.2411897
390.50 0.2544875
390.60 0.2705798
390.70 0.2879416
390.80 0.3007615
390.90 0.2998746
391.00 0.2801041
391.10 0.2470668
391.20 0.2167606
391.30 0.21094
391.40 0.2364139
391.50 0.2823476
391.60 0.3249603
391.70 0.3436024
391.80 0.334738
391.90 0.3093228
392.00 0.2798081
392.10 0.2548422
392.20 0.2386755
392.30 0.2307992
392.40 0.2257915
392.50 0.2230737
392.60 0.2298509
392.70 0.2505345
392.80 0.277982
392.90 0.2994109
393.00 0.3195925
393.10 0.3642563
393.20 0.4545436
393.30 0.5730235
393.40 0.6594034
393.50 0.6566168
393.60 0.5614169
393.70 0.4279697
393.80 0.3226333
393.90 0.2762413
394.00 0.2725909
394.10 0.2741816
394.20 0.2556026
394.30 0.2195514
394.40 0.1846878
394.50 0.1706875
394.60 0.182234
394.70 0.2072646
394.80 0.2265036
394.90 0.2333803
395.00 0.2343333
395.10 0.2371189
395.20 0.2388963
395.30 0.2332582
395.40 0.2247457
395.50 0.2295565
395.60 0.2528098
395.70 0.277205
395.80 0.2829127
395.90 0.2648381
396.00 0.2359066
396.10 0.2133254
396.20 0.2055252
396.30 0.2147137
396.40 0.2432607
396.50 0.2973867
396.60 0.3813558
396.70 0.4856908
396.80 0.5813886
396.90 0.631432
397.00 0.6117868
397.10 0.5297517
397.20 0.4252004
397.30 0.3476002
397.40 0.3244335
397.50 0.3457831
397.60 0.3773948
397.70 0.3902056
397.80 0.3794572
397.90 0.3580489
398.00 0.3406671
398.10 0.3340936
398.20 0.3404757
398.30 0.3612224
398.40 0.3943191
398.50 0.4298457
398.60 0.4522905
398.70 0.45038
398.80 0.4244207
398.90 0.3852595
399.00 0.3560431
399.10 0.3582983
399.20 0.3946344
399.30 0.4452031
399.40 0.4830352
399.50 0.4914959
399.60 0.4680566
399.70 0.421713
399.80 0.3731807
399.90 0.3461052
400.00 0.3471837
400.10 0.3611178
400.20 0.3698242
400.30 0.372313
400.40 0.378847
400.50 0.391717
400.60 0.4012125
400.70 0.398495
400.80 0.3897018
400.90 0.3890991
401.00 0.398502
401.10 0.4048242
401.20 0.3958794
401.30 0.3782137
401.40 0.3711521
401.50 0.3841084
401.60 0.4053383
401.70 0.4171723
401.80 0.4136723
401.90 0.404767
402.00 0.3989461
402.10 0.3938306
402.20 0.3871535
402.30 0.3866972
402.40 0.3993725
402.50 0.4165681
402.60 0.4186913
402.70 0.3944278
402.80 0.3523798
402.90 0.3123169
403.00 0.2893365
403.10 0.283458
403.20 0.2814
403.30 0.2714558
403.40 0.2576964
403.50 0.2570305
403.60 0.280707
403.70 0.3230502
403.80 0.3681222
403.90 0.4053125
404.00 0.4359886
404.10 0.4649996
404.20 0.4881845
404.30 0.490591
404.40 0.4604003
404.50 0.4042289
404.60 0.3467824
404.70 0.3124525
404.80 0.3093358
404.90 0.3281754
405.00 0.3506699
405.10 0.3619814
405.20 0.3593258
405.30 0.3495142
405.40 0.3396383
405.50 0.3324126
405.60 0.3286919
405.70 0.3309975
405.80 0.3401333
405.90 0.3521571
406.00 0.3617434
406.10 0.3657432
406.20 0.3656808
406.30 0.3672325
406.40 0.3769795
406.50 0.3963323
406.60 0.4175411
406.70 0.4275964
406.80 0.4188256
406.90 0.3941154
407.00 0.3645478
407.10 0.3428126
407.20 0.3369318
407.30 0.3456114
407.40 0.3580817
407.50 0.3604225
407.60 0.3441322
407.70 0.3157077
407.80 0.2915293
407.90 0.2847372
408.00 0.2971831
408.10 0.3237297
408.20 0.3583916
408.30 0.3922499
408.40 0.4118568
408.50 0.4084518
408.60 0.3899735
408.70 0.3757828
408.80 0.3739233
408.90 0.3717683
409.00 0.3561824
409.10 0.336377
409.20 0.3366125
409.30 0.3664157
409.40 0.4082586
409.50 0.4350529
409.60 0.4332755
409.70 0.4104354
409.80 0.3889608
409.90 0.3937132
410.00 0.4341029
410.10 0.4930593
410.20 0.5369977
410.30 0.542657
410.40 0.5125049
410.50 0.4651335
410.60 0.4177328
410.70 0.381544
410.80 0.3606045
410.90 0.3571683
411.00 0.366478
411.10 0.37692
411.20 0.3792967
411.30 0.3730318
411.40 0.363926
411.50 0.3585748
411.60 0.361898
411.70 0.3743332
411.80 0.3939056
411.90 0.4165561
412.00 0.432215
412.10 0.4289807
412.20 0.4031594
412.30 0.3680423
412.40 0.3460695
412.50 0.3496154
412.60 0.3721213
412.70 0.3969359
412.80 0.4124722
412.90 0.4155427
413.00 0.4047777
413.10 0.3798917
413.20 0.3464843
413.30 0.3158932
413.40 0.2961015
413.50 0.2851692
413.60 0.2761445
413.70 0.2671242
413.80 0.2630069
413.90 0.2687064
414.00 0.2832264
414.10 0.3001366
414.20 0.3141047
414.30 0.3195126
414.40 0.3160393
414.50 0.309548
414.60 0.3099151
414.70 0.3229419
414.80 0.3454447
414.90 0.3670381
415.00 0.3811795
415.10 0.3883374
415.20 0.3888472
415.30 0.3817999
415.40 0.3722254
415.50 0.3676166
415.60 0.3666245
415.70 0.3580849
415.80 0.3348479
415.90 0.3054692
416.00 0.2877137
416.10 0.2916556
416.20 0.3143581
416.30 0.3474859
416.40 0.3845157
416.50 0.4187455
416.60 0.4401443
416.70 0.4366808
416.80 0.4103259
416.90 0.3784323
417.00 0.3588448
417.10 0.3526207
417.20 0.3444629
417.30 0.3254588
417.40 0.3007962
417.50 0.2803268
417.60 0.268403
417.70 0.2655363
417.80 0.2752686
417.90 0.3023291
418.00 0.3399959
418.10 0.3727931
418.20 0.3882568
418.30 0.3881089
418.40 0.3833418
418.50 0.3787756
418.60 0.3694053
418.70 0.3499281
418.80 0.3276828
418.90 0.3129328
419.00 0.3069158
419.10 0.3043077
419.20 0.3050019
419.30 0.3152755
419.40 0.3366214
419.50 0.3594734
419.60 0.3705158
419.70 0.3654146
419.80 0.352307
419.90 0.3419927
420.00 0.336278
420.10 0.3290809
420.20 0.3180063
420.30 0.3107205
420.40 0.3141577
420.50 0.3228655
420.60 0.3240116
420.70 0.3108533
420.80 0.2900458
420.90 0.2728963
421.00 0.2665159
421.10 0.2705517
421.20 0.2810189
421.30 0.2936768
421.40 0.3034862
421.50 0.3048584
421.60 0.2950804
421.70 0.2781017
421.80 0.260995
421.90 0.2463072
422.00 0.2303322
422.10 0.208314
422.20 0.1805395
422.30 0.1526298
422.40 0.1309002
422.50 0.1176379
422.60 0.1099505
422.70 0.1041196
422.80 0.09828523
422.90 0.0985271
423.00 0.1105161
423.10 0.133086
423.20 0.1601315
423.30 0.187044
423.40 0.2139421
423.50 0.2427778
423.60 0.2713703
423.70 0.2927348
423.80 0.3005539
423.90 0.2920195
424.00 0.2718222
424.10 0.2503701
424.20 0.2360305
424.30 0.230799
424.40 0.2336743
424.50 0.2433301
424.60 0.2551278
424.70 0.2594817
424.80 0.2513781
424.90 0.2388338
425.00 0.2377752
425.10 0.2532672
425.20 0.2722314
425.30 0.2765537
425.40 0.2615299
425.50 0.2393249
425.60 0.2270488
425.70 0.2323221
425.80 0.2495225
425.90 0.2676482
426.00 0.2795115
426.10 0.2849429
426.20 0.2867172
426.30 0.2878586
426.40 0.2909857
426.50 0.2957897
426.60 0.2963511
426.70 0.2858183
426.80 0.26776
426.90 0.2576598
427.00 0.2672228
427.10 0.2880719
427.20 0.3017831
427.30 0.297263
427.40 0.2789468
427.50 0.259364
427.60 0.2493545
427.70 0.2548534
427.80 0.2761301
427.90 0.305738
428.00 0.3322339
428.10 0.3468742
428.20 0.3477246
428.30 0.3382233
428.40 0.3227083
428.50 0.3040746
428.60 0.2847204
428.70 0.2686359
428.80 0.2608318
428.90 0.2639809
429.00 0.2756269
429.10 0.2904562
429.20 0.3025554
429.30 0.3090527
429.40 0.3105595
429.50 0.3103015
429.60 0.3125345
429.70 0.3183939
429.80 0.3234898
429.90 0.3216132
430.00 0.3114957
430.10 0.2994078
430.20 0.295005
430.30 0.3052463
430.40 0.3288123
430.50 0.3529896
430.60 0.3592462
430.70 0.3379874
430.80 0.2996526
430.90 0.2689582
431.00 0.2655606
431.10 0.2890711
431.20 0.3215323
431.30 0.3423828
431.40 0.3431583
431.50 0.3307227
431.60 0.3190255
431.70 0.318296
431.80 0.3306048
431.90 0.3522329
432.00 0.3761965
432.10 0.394856
432.20 0.4034931
432.30 0.4038247
432.40 0.3980287
432.50 0.3833034
432.60 0.3563273
432.70 0.3234275
432.80 0.3017499
432.90 0.3044651
433.00 0.3272832
433.10 0.3540935
433.20 0.3737497
433.30 0.3869876
433.40 0.3990761
433.50 0.4128492
433.60 0.4308319
433.70 0.4629546
433.80 0.5246211
433.90 0.6158299
434.00 0.7111461
434.10 0.7684525
434.20 0.7598475
434.30 0.6944679
434.40 0.6088099
434.50 0.5371839
434.60 0.4936281
434.70 0.4751544
434.80 0.4711447
434.90 0.4667963
435.00 0.4468756
435.10 0.4062968
435.20 0.3566599
435.30 0.3186033
435.40 0.308053
435.50 0.3271305
435.60 0.3635228
435.70 0.3983401
435.80 0.4177721
435.90 0.4198636
436.00 0.410745
436.10 0.3976482
436.20 0.3884131
436.30 0.3887437
436.40 0.3994246
436.50 0.4102799
436.60 0.409712
436.70 0.4001939
436.80 0.3955136
436.90 0.4041384
437.00 0.4199715
437.10 0.4302082
437.20 0.428422
437.30 0.4176106
437.40 0.4050314
437.50 0.3974938
437.60 0.3971443
437.70 0.3998322
437.80 0.398977
437.90 0.3931637
438.00 0.3882808
438.10 0.3888483
438.20 0.3896969
438.30 0.3824347
438.40 0.3696864
438.50 0.3651522
438.60 0.3781374
438.70 0.4017023
438.80 0.4196577
438.90 0.4232466
439.00 0.4181483
439.10 0.4146489
439.20 0.4159862
439.30 0.41712
439.40 0.4129977
439.50 0.4058712
439.60 0.4028019
439.70 0.4078645
439.80 0.4182868
439.90 0.4297925
440.00 0.4416655
440.10 0.4565385
440.20 0.4738471
440.30 0.486725
440.40 0.4874867
440.50 0.4721389
440.60 0.446217
440.70 0.4219719
440.80 0.4134161
440.90 0.4299429
441.00 0.4651898
441.10 0.4998674
441.20 0.51582
441.30 0.5114488
441.40 0.5018797
441.50 0.5029272
441.60 0.5174025
441.70 0.5367308
441.80 0.5495754
441.90 0.5479735
442.00 0.5303981
442.10 0.5034069
442.20 0.47757
442.30 0.4588606
442.40 0.4458218
442.50 0.4366109
442.60 0.435048
442.70 0.4455438
442.80 0.4646766
442.90 0.4836996
443.00 0.4982858
443.10 0.5108952
443.20 0.522859
443.30 0.5288826
443.40 0.524739
443.50 0.516711
443.60 0.5170454
443.70 0.5310993
443.80 0.5545749
443.90 0.5780639
444.00 0.5980174
444.10 0.6153157
444.20 0.6285773
444.30 0.63418
444.40 0.6312556
444.50 0.6244066
444.60 0.6203818
444.70 0.6219694
444.80 0.6274812
444.90 0.6342357
445.00 0.6400714
445.10 0.6423748
445.20 0.6364396
445.30 0.6165865
445.40 0.5815098
445.50 0.539791
445.60 0.5084327
445.70 0.5029669
445.80 0.525063
445.90 0.56167
446.00 0.5960903
446.10 0.6184416
446.20 0.6274755
446.30 0.6272725
446.40 0.6244733
446.50 0.6251491
446.60 0.6311307
446.70 0.6393801
446.80 0.6461132
446.90 0.6514453
447.00 0.6587799
447.10 0.6713067
447.20 0.6897612
447.30 0.7113104
447.40 0.7297279
447.50 0.7389868
447.60 0.7391302
447.70 0.7374435
447.80 0.7411177
447.90 0.7483765
448.00 0.7499011
448.10 0.7372374
448.20 0.7161774
448.30 0.7031939
448.40 0.7100679
448.50 0.7356116
448.60 0.7651841
448.70 0.7815801
448.80 0.7769233
448.90 0.7576989
449.00 0.7404007
449.10 0.7393183
449.20 0.7548692
449.30 0.7723842
449.40 0.7742138
449.50 0.7564759
449.60 0.7333526
449.70 0.7232187
449.80 0.7327634
449.90 0.7545093
450.00 0.7768666
450.10 0.7940693
450.20 0.8067867
450.30 0.8170352
450.40 0.8241106
450.50 0.8236459
450.60 0.8114559
450.70 0.7889619
450.80 0.7634902
450.90 0.7433213
451.00 0.7321155
451.10 0.7279756
451.20 0.7269715
451.30 0.7261709
451.40 0.723699
451.50 0.717713
451.60 0.7076296
451.70 0.697889
451.80 0.6985247
451.90 0.7168988
452.00 0.7479234
452.10 0.777216
452.20 0.7956166
452.30 0.8066596
452.40 0.8171813
452.50 0.8252429
452.60 0.8232679
452.70 0.8107507
452.80 0.797432
452.90 0.7936666
453.00 0.8006769
453.10 0.8101627
453.20 0.811379
453.30 0.7990011
453.40 0.7773604
453.50 0.7594491
453.60 0.7597349
453.70 0.7844607
453.80 0.826777
453.90 0.8706179
454.00 0.9023318
454.10 0.9185695
454.20 0.9220921
454.30 0.9119567
454.40 0.8828864
454.50 0.8356065
454.60 0.7834932
454.70 0.7455342
454.80 0.7331329
454.90 0.7450652
455.00 0.7710206
455.10 0.7977062
455.20 0.8148484
455.30 0.820051
455.40 0.8196095
455.50 0.8232694
455.60 0.836758
455.70 0.8590409
455.80 0.8851188
455.90 0.9095465
456.00 0.9284598
456.10 0.9404009
456.20 0.9465609
456.30 0.9503111
456.40 0.9558147
456.50 0.9669276
456.60 0.9857826
456.70 1.01025
456.80 1.0334
456.90 1.047541
457.00 1.051051
457.10 1.050789
457.20 1.055609
457.30 1.067751
457.40 1.080028
457.50 1.08068
457.60 1.062244
457.70 1.027617
457.80 0.9891194
457.90 0.9613613
458.00 0.9522669
458.10 0.9578658
458.20 0.9647576
458.30 0.9574102
458.40 0.9270778
458.50 0.8781575
458.60 0.8257761
458.70 0.7856281
458.80 0.7652924
458.90 0.7643003
459.00 0.7789423
459.10 0.8042518
459.20 0.8324109
459.30 0.8555389
459.40 0.8727357
459.50 0.8900343
459.60 0.9118805
459.70 0.9343242
459.80 0.9482591
459.90 0.9491816
460.00 0.9419761
460.10 0.9358678
460.20 0.9357409
460.30 0.9369192
460.40 0.9276508
460.50 0.899715
460.60 0.8594131
460.70 0.8284087
460.80 0.8309791
460.90 0.87579
461.00 0.9482257
461.10 1.021559
461.20 1.075875
461.30 1.10805
461.40 1.125841
461.50 1.135519
461.60 1.137888
461.70 1.133268
461.80 1.125407
461.90 1.120564
462.00 1.125161
462.10 1.142327
462.20 1.16621
462.30 1.178728
462.40 1.158991
462.50 1.100918
462.60 1.020036
462.70 0.9422551
462.80 0.8872969
462.90 0.8616547
463.00 0.8613722
463.10 0.8765407
463.20 0.8947617
463.30 0.9064765
463.40 0.9089352
463.50 0.9048774
463.60 0.8967788
463.70 0.8843068
463.80 0.8694466
463.90 0.8602553
464.00 0.865378
464.10 0.8851543
464.20 0.9111084
464.30 0.9337373
464.40 0.9487085
464.50 0.9561023
464.60 0.9585548
464.70 0.9603114
464.80 0.9640175
464.90 0.9678143
465.00 0.9675325
465.10 0.9630874
465.20 0.960552
465.30 0.9650216
465.40 0.9734382
465.50 0.9780464
465.60 0.9765483
465.70 0.9781483
465.80 0.9971251
465.90 1.038664
466.00 1.091525
466.10 1.134629
466.20 1.152724
466.30 1.148151
466.40 1.135861
466.50 1.126163
466.60 1.115151
466.70 1.091285
466.80 1.048635
466.90 0.9914588
467.00 0.9279267
467.10 0.8650964
467.20 0.8110175
467.30 0.7768297
467.40 0.771658
467.50 0.7937627
467.60 0.8272661
467.70 0.8513613
467.80 0.8552217
467.90 0.8441318
468.00 0.8319426
468.10 0.828625
468.20 0.8351178
468.30 0.8479765
468.40 0.865205
468.50 0.8863338
468.60 0.9088661
468.70 0.9276905
468.80 0.9398023
468.90 0.9484716
469.00 0.9603045
469.10 0.9774145
469.20 0.9937326
469.30 1.000501
469.40 0.9958312
469.50 0.9870083
469.60 0.9835248
469.70 0.9892709
469.80 1.002018
469.90 1.018016
470.00 1.033484
470.10 1.044127
470.20 1.04831
470.30 1.049995
470.40 1.053939
470.50 1.058287
470.60 1.056236
470.70 1.04629
470.80 1.034958
470.90 1.027871
471.00 1.024086
471.10 1.01976
471.20 1.012559
471.30 0.9998763
471.40 0.9770864
471.50 0.9434914
471.60 0.9093761
471.70 0.8914511
471.80 0.9000287
471.90 0.9307696
472.00 0.9680508
472.10 0.9964434
472.20 1.009886
472.30 1.012963
472.40 1.015231
472.50 1.022466
472.60 1.032217
472.70 1.037898
472.80 1.036495
472.90 1.031547
473.00 1.029013
473.10 1.032315
473.20 1.042081
473.30 1.057465
473.40 1.075376
473.50 1.089451
473.60 1.092032
473.70 1.080189
473.80 1.060182
473.90 1.044536
474.00 1.042965
474.10 1.05484
474.20 1.070708
474.30 1.081694
474.40 1.086909
474.50 1.092046
474.60 1.102833
474.70 1.120118
474.80 1.139866
474.90 1.156948
475.00 1.168407
475.10 1.174229
475.20 1.177413
475.30 1.183698
475.40 1.198312
475.50 1.219488
475.60 1.234221
475.70 1.224239
475.80 1.180062
475.90 1.107793
476.00 1.02125
476.10 0.9302402
476.20 0.8390774
476.30 0.7547099
476.40 0.6899182
476.50 0.6532046
476.60 0.6414201
476.70 0.6428716
476.80 0.6456404
476.90 0.6451323
477.00 0.6437365
477.10 0.6464085
477.20 0.6573351
477.30 0.6782974
477.40 0.7080908
477.50 0.7417756
477.60 0.77024
477.70 0.7830095
477.80 0.7755112
477.90 0.7542584
478.00 0.7323281
478.10 0.7194911
478.20 0.7181468
478.30 0.7272899
478.40 0.7466655
478.50 0.7751002
478.60 0.8074578
478.70 0.8359213
478.80 0.8541273
478.90 0.8609928
479.00 0.8619436
479.10 0.8650567
479.20 0.8742356
479.30 0.8866908
479.40 0.8974108
479.50 0.9053182
479.60 0.9137007
479.70 0.9258308
479.80 0.9428222
479.90 0.9640457
480.00 0.9867622
480.10 1.005578
480.20 1.013341
480.30 1.00348
480.40 0.9726353
480.50 0.9231103
480.60 0.8638855
480.70 0.8073666
480.80 0.7626162
480.90 0.731845
481.00 0.7135729
481.10 0.7072708
481.20 0.7144891
481.30 0.735961
481.40 0.7686423
481.50 0.8053699
481.60 0.8362367
481.70 0.8528569
481.80 0.8541911
481.90 0.8482249
482.00 0.8461158
482.10 0.8535266
482.20 0.8679251
482.30 0.8839138
482.40 0.8982195
482.50 0.9087964
482.60 0.9131509
482.70 0.9103465
482.80 0.9036849
482.90 0.8979385
483.00 0.8935915
483.10 0.8873541
483.20 0.8795961
483.30 0.8779168
483.40 0.8905362
483.50 0.9172335
483.60 0.9496987
483.70 0.9805769
483.80 1.007803
483.90 1.02911
484.00 1.036517
484.10 1.020722
484.20 0.9832551
484.30 0.9425352
484.40 0.9229163
484.50 0.9331316
484.60 0.9551621
484.70 0.958644
484.80 0.928364
484.90 0.8757616
485.00 0.8248746
485.10 0.7932561
485.20 0.786033
485.30 0.7997011
485.40 0.8245642
485.50 0.8463989
485.60 0.8555835
485.70 0.8594421
485.80 0.8856242
485.90 0.9669252
486.00 1.110574
486.10 1.275602
486.20 1.388046
486.30 1.392487
486.40 1.295079
486.50 1.155009
486.60 1.034403
486.70 0.9607327
486.80 0.9303626
486.90 0.930143
487.00 0.9476357
487.10 0.9698715
487.20 0.9853748
487.30 0.9900944
487.40 0.987415
487.50 0.9819771
487.60 0.9766287
487.70 0.9744834
487.80 0.9790132
487.90 0.9908358
488.00 1.005622
488.10 1.0165
488.20 1.01969
488.30 1.01777
488.40 1.017151
488.50 1.02191
488.60 1.031228
488.70 1.042665
488.80 1.05567
488.90 1.069258
489.00 1.077784
489.10 1.074697
489.20 1.061343
489.30 1.048134
489.40 1.04488
489.50 1.051981
489.60 1.061907
489.70 1.0676
489.80 1.067977
489.90 1.06671
490.00 1.067912
490.10 1.072742
490.20 1.080586
490.30 1.093976
490.40 1.119186
490.50 1.159117
490.60 1.207008
490.70 1.250136
490.80 1.28082
490.90 1.301265
491.00 1.317851
491.10 1.333919
491.20 1.347766
491.30 1.354819
491.40 1.35149
491.50 1.338711
491.60 1.322338
491.70 1.308376
491.80 1.297468
491.90 1.287027
492.00 1.27911
492.10 1.282107
492.20 1.302565
492.30 1.337192
492.40 1.375244
492.50 1.409346
492.60 1.440938
492.70 1.47363
492.80 1.50338
492.90 1.518758
493.00 1.511815
493.10 1.486979
493.20 1.457821
493.30 1.436862
493.40 1.429838
493.50 1.436296
493.60 1.4527
493.70 1.474353
493.80 1.49582
493.90 1.512326
494.00 1.522164
494.10 1.527824
494.20 1.534774
494.30 1.547618
494.40 1.567351
494.50 1.59293
494.60 1.624172
494.70 1.661633
494.80 1.703349
494.90 1.74268
495.00 1.770159
495.10 1.774605
495.20 1.740076
495.30 1.646839
495.40 1.485047
495.50 1.271921
495.60 1.051376
495.70 0.8716637
495.80 0.7601181
495.90 0.7148379
496.00 0.7138599
496.10 0.7296872
496.20 0.741312
496.30 0.7415151
496.40 0.7364795
496.50 0.7383083
496.60 0.7566989
496.70 0.7945563
496.80 0.8482922
496.90 0.9098172
497.00 0.9684161
497.10 1.014374
497.20 1.042451
497.30 1.052978
497.40 1.050679
497.50 1.042275
497.60 1.033937
497.70 1.028669
497.80 1.025723
497.90 1.022273
498.00 1.01491
498.10 1.00169
498.20 0.9864614
498.30 0.9813369
498.40 0.9998871
498.50 1.043622
498.60 1.096949
498.70 1.138424
498.80 1.156239
498.90 1.153606
499.00 1.142815
499.10 1.134354
499.20 1.129722
499.30 1.124352
499.40 1.118541
499.50 1.122287
499.60 1.132812
499.70 1.109289
499.80 0.9912435
499.90 0.7582568
500.00 1
500.10 0.8839825
500.20 0.8783314
500.30 0.9212058
500.40 0.8954902
500.50 0.8662528
500.60 0.879566
500.70 0.8951696
500.80 0.8666972
500.90 0.8659333
501.00 0.9016072
501.10 0.9973062
501.20 0.9557945
501.30 0.9249754
501.40 0.8774681
501.50 0.822031
501.60 0.8486643
501.70 0.8402039
501.80 0.9245635
501.90 1.014854
502.00 1.069984
502.10 1.083133
502.20 1.037009
502.30 1.011376
502.40 1.058075
502.50 1.063127
502.60 1.047917
502.70 1.035681
502.80 1.082711
502.90 1.100272
503.00 1.109578
503.10 1.166358
503.20 1.171536
503.30 1.188487
503.40 1.169201
503.50 1.16711
503.60 1.17433
503.70 1.134828
503.80 1.171155
503.90 1.187775
504.00 1.149883
504.10 1.123803
504.20 1.148931
504.30 1.158207
504.40 1.177092
504.50 1.197903
504.60 1.317622
504.70 1.34178
504.80 1.322286
504.90 1.259373
505.00 1.16335
505.10 1.116003
505.20 1.162941
505.30 1.196186
505.40 1.197922
505.50 1.102161
505.60 1.145565
505.70 1.17522
505.80 1.21889
505.90 1.20398
506.00 1.19145
506.10 1.218738
506.20 1.212317
506.30 1.240564
506.40 1.212087
506.50 1.158592
506.60 1.153782
506.70 1.181484
506.80 1.196634
506.90 1.169798
507.00 1.209067
507.10 1.266785
507.20 1.240215
507.30 1.221525
507.40 1.259749
507.50 1.356279
507.60 1.368301
507.70 1.289822
507.80 1.180977
507.90 1.253413
508.00 1.299957
508.10 1.299037
508.20 1.195308
508.30 1.162833
508.40 1.191172
508.50 1.210996
508.60 1.281037
508.70 1.397399
508.80 1.389541
508.90 1.292194
509.00 1.250503
509.10 1.24706
509.20 1.295177
509.30 1.347163
509.40 1.420226
509.50 1.349223
509.60 1.155147
509.70 1.164333
509.80 1.321595
509.90 1.431516
510.00 1.333782
510.10 1.197514
510.20 1.19906
510.30 1.156983
510.40 1.133995
510.50 1.177464
510.60 1.22177
510.70 1.205077
510.80 1.149001
510.90 1.146924
511.00 1.22208
511.10 1.217278
511.20 1.221732
511.30 1.258304
511.40 1.302042
511.50 1.338722
511.60 1.443923
511.70 1.446706
511.80 1.420525
511.90 1.470455
512.00 1.412007
512.10 1.345059
512.20 1.38264
512.30 1.406852
512.40 1.346599
512.50 1.319821
512.60 1.278274
512.70 1.245935
512.80 1.24391
512.90 1.210414
513.00 1.204819
513.10 1.264582
513.20 1.31739
513.30 1.370576
513.40 1.412568
513.50 1.361955
513.60 1.342269
513.70 1.460341
513.80 1.559944
513.90 1.556543
514.00 1.457588
514.10 1.35534
514.20 1.369355
514.30 1.418225
514.40 1.363473
514.50 1.293312
514.60 1.229896
514.70 1.218741
514.80 1.293443
514.90 1.343358
515.00 1.379387
515.10 1.321039
515.20 1.310691
515.30 1.239069
515.40 1.13143
515.50 1.135244
515.60 1.221079
515.70 1.31545
515.80 1.468688
515.90 1.582982
516.00 1.553436
516.10 1.596173
516.20 1.718651
516.30 1.801923
516.40 1.675882
516.50 1.671269
516.60 1.676003
516.70 1.380448
516.80 0.9070842
516.90 0.6610582
517.00 0.5999246
517.10 0.6063261
517.20 0.6099055
517.30 0.6402059
517.40 0.6447881
517.50 0.6856379
517.60 0.6962696
517.70 0.6836608
517.80 0.7443569
517.90 0.7927078
518.00 0.746166
518.10 0.7320728
518.20 0.7111111
518.30 0.7501744
518.40 0.794245
518.50 0.8141456
518.60 0.9643331
518.70 1.085818
518.80 1.095229
518.90 1.127493
519.00 1.136923
519.10 1.123281
519.20 1.139745
519.30 1.112489
519.40 1.06758
519.50 1.121916
519.60 1.169556
519.70 1.205889
519.80 1.28168
519.90 1.28105
520.00 1.256616
520.10 1.155064
520.20 1.122158
520.30 1.147004
520.40 1.11273
520.50 0.9705352
520.60 0.8498121
520.70 0.7989909
520.80 0.8565506
520.90 0.8751126
521.00 0.7937772
521.10 0.8039612
521.20 1.046756
521.30 1.321388
521.40 1.475939
521.50 1.502657
521.60 1.481043
521.70 1.515961
521.80 1.570735
521.90 1.608381
522.00 1.620582
522.10 1.615396
522.20 1.663991
522.30 1.67363
522.40 1.643417
522.50 1.542861
522.60 1.496064
522.70 1.482528
522.80 1.545613
522.90 1.599159
523.00 1.707507
523.10 1.770423
523.20 1.742626
523.30 1.696442
523.40 1.714873
523.50 1.677686
523.60 1.594821
523.70 1.636208
523.80 1.714945
523.90 1.709529
524.00 1.723233
524.10 1.63547
524.20 1.498354
524.30 1.433877
524.40 1.477584
524.50 1.529853
524.60 1.546666
524.70 1.505724
524.80 1.457424
524.90 1.456476
525.00 1.452659
525.10 1.459822
525.20 1.51971
525.30 1.605412
525.40 1.655651
525.50 1.680011
525.60 1.719425
525.70 1.734979
525.80 1.747205
525.90 1.769693
526.00 1.803125
526.10 1.679936
526.20 1.564242
526.30 1.499643
526.40 1.453247
526.50 1.393712
526.60 1.372097
526.70 1.36602
526.80 1.416682
526.90 1.376893
527.00 1.216816
527.10 1.182046
527.20 1.313928
527.30 1.515342
527.40 1.637273
527.50 1.679823
527.60 1.706078
527.70 1.675378
527.80 1.712372
527.90 1.796834
528.00 1.730546
528.10 1.645563
528.20 1.591675
528.30 1.607899
528.40 1.668192
528.50 1.725583
528.60 1.771444
528.70 1.861201
528.80 1.85806
528.90 1.832141
529.00 1.844858
529.10 1.874427
529.20 1.893172
529.30 1.833197
529.40 1.793935
529.50 1.840859
529.60 1.865766
529.70 1.816607
529.80 1.737384
529.90 1.684652
530.00 1.679394
530.10 1.707109
530.20 1.75994
530.30 1.858265
530.40 1.913775
530.50 1.972236
530.60 1.993131
530.70 1.970957
530.80 1.83651
530.90 1.767614
531.00 1.761352
531.10 1.772604
531.20 1.77083
531.30 1.777335
531.40 1.754497
531.50 1.75742
531.60 1.782182
531.70 1.809041
531.80 1.883136
531.90 1.867036
532.00 1.833484
532.10 1.820811
532.20 1.811564
532.30 1.874817
532.40 1.896555
532.50 1.822313
532.60 1.817083
532.70 1.83638
532.80 1.722079
532.90 1.492983
533.00 1.462987
533.10 1.638749
533.20 1.815938
533.30 1.868346
533.40 1.80841
533.50 1.756555
533.60 1.793745
533.70 1.805404
533.80 1.788758
533.90 1.762083
534.00 1.808404
534.10 1.82159
534.20 1.828798
534.30 1.883697
534.40 1.900489
534.50 1.899637
534.60 1.904255
534.70 1.833965
534.80 1.771669
534.90 1.82921
535.00 1.857573
535.10 1.967826
535.20 2.135986
535.30 2.206642
535.40 2.144884
535.50 2.153026
535.60 2.166572
535.70 2.153167
535.80 2.106356
535.90 2.014245
536.00 1.952181
536.10 1.926502
536.20 1.921607
536.30 1.930224
536.40 1.960886
536.50 1.940674
536.60 1.916808
536.70 1.954114
536.80 1.934482
536.90 1.998181
537.00 2.019207
537.10 1.873876
537.20 1.730118
537.30 1.74297
537.40 1.889381
537.50 2.028324
537.60 2.047924
537.70 2.026531
537.80 2.039045
537.90 2.095618
538.00 2.198892
538.10 2.260136
538.20 2.245896
538.30 2.19833
538.40 2.165814
538.50 2.165413
538.60 2.113527
538.70 2.167532
538.80 2.254354
538.90 2.330819
539.00 2.313778
539.10 2.292681
539.20 2.215199
539.30 2.130949
539.40 2.126425
539.50 2.128556
539.60 2.120128
539.70 2.051772
539.80 1.985833
539.90 2.015895
540.00 2.169477
540.10 2.320288
540.20 2.394506
540.30 2.415158
540.40 2.380452
540.50 2.325886
540.60 2.138205
540.70 2.025715
540.80 2.052753
540.90 2.149511
541.00 2.128624
541.10 2.000793
541.20 1.997991
541.30 2.047904
541.40 2.122201
541.50 2.258923
541.60 2.309457
541.70 2.28875
541.80 2.329311
541.90 2.442494
542.00 2.460941
542.10 2.340122
542.20 2.327843
542.30 2.37768
542.40 2.260388
542.50 2.230931
542.60 2.299966
542.70 2.337638
542.80 2.310056
542.90 2.281001
543.00 2.200553
543.10 2.119383
543.20 2.131673
543.30 2.188011
543.40 2.207044
543.50 2.166122
543.60 2.10087
543.70 2.200452
543.80 2.384995
543.90 2.426763
544.00 2.40521
544.10 2.43544
544.20 2.551813
544.30 2.625523
544.40 2.691221
544.50 2.648772
544.60 2.549986
544.70 2.294811
544.80 1.994764
544.90 1.685265
545.00 1.426016
545.10 1.248827
545.20 1.26149
545.30 1.279706
545.40 1.20421
545.50 1.27463
545.60 1.349357
545.70 1.328724
545.80 1.271347
545.90 1.348864
546.00 1.463719
546.10 1.499659
546.20 1.505679
546.30 1.544243
546.40 1.58284
546.50 1.605623
546.60 1.675445
546.70 1.717101
546.80 1.753272
546.90 1.749706
547.00 1.663069
547.10 1.605482
547.20 1.655431
547.30 1.667365
547.40 1.73364
547.50 1.738185
547.60 1.674499
547.70 1.616006
547.80 1.631714
547.90 1.645481
548.00 1.646334
548.10 1.688428
548.20 1.703565
548.30 1.70033
548.40 1.741979
548.50 1.800786
548.60 1.826514
548.70 1.85455
548.80 1.83995
548.90 1.825078
549.00 1.786612
549.10 1.811339
549.20 1.835922
549.30 1.868123
549.40 1.888793
549.50 1.923519
549.60 1.850197
549.70 1.678262
549.80 1.555157
549.90 1.505169
550.00 1.399308
550.10 1.376369
550.20 1.339964
550.30 1.341165
550.40 1.368882
550.50 1.314549
550.60 1.262
550.70 1.267796
550.80 1.333673
550.90 1.355126
551.00 1.357227
551.10 1.338035
551.20 1.337103
551.30 1.349668
551.40 1.311571
551.50 1.292015
551.60 1.29513
551.70 1.350638
551.80 1.378788
551.90 1.363858
552.00 1.333659
552.10 1.346877
552.20 1.361707
552.30 1.3847
552.40 1.324113
552.50 1.254152
552.60 1.20794
552.70 1.229679
552.80 1.290765
552.90 1.28696
553.00 1.308744
553.10 1.352525
553.20 1.337609
553.30 1.296459
553.40 1.297497
553.50 1.240063
553.60 1.171096
553.70 1.164282
553.80 1.18391
553.90 1.144461
554.00 1.136645
554.10 1.214242
554.20 1.175729
554.30 1.087426
554.40 1.083797
554.50 1.163071
554.60 1.132313
554.70 1.114137
554.80 1.184749
554.90 1.278101
555.00 1.254759
555.10 1.207397
555.20 1.223938
555.30 1.253483
555.40 1.209928
555.50 1.212239
555.60 1.288694
555.70 1.408251
555.80 1.452034
555.90 1.437232
556.00 1.406465
556.10 1.422323
556.20 1.467258
556.30 1.506862
556.40 1.523677
556.50 1.568292
556.60 1.612939
556.70 1.649272
556.80 1.657283
556.90 1.597479
557.00 1.62039
557.10 1.701467
557.20 1.690783
557.30 1.690887
557.40 1.690749
557.50 1.690742
557.60 1.690742
557.70 1.690742
557.80 1.690742
557.90 1.690742
558.00 1.690742
558.10 1.690742
558.20 1.690622
558.30 1.690373
558.40 1.685022
558.50 1.716324
558.60 1.872501
558.70 1.977404
558.80 1.894332
558.90 1.74043
559.00 1.675783
559.10 1.734791
559.20 1.8907
559.30 1.933072
559.40 1.880024
559.50 1.781449
559.60 1.733651
559.70 1.781445
559.80 1.742152
559.90 1.561249
560.00 1.372595
560.10 1.359345
560.20 1.503507
560.30 1.632434
560.40 1.615756
560.50 1.508549
560.60 1.485844
560.70 1.490959
560.80 1.508507
560.90 1.534386
561.00 1.556939
561.10 1.587825
561.20 1.648799
561.30 1.675513
561.40 1.70644
561.50 1.655156
561.60 1.592709
561.70 1.548
561.80 1.53791
561.90 1.544219
562.00 1.520545
562.10 1.514572
562.20 1.498814
562.30 1.522315
562.40 1.590646
562.50 1.673829
562.60 1.647203
562.70 1.598565
562.80 1.627877
562.90 1.589521
563.00 1.435544
563.10 1.371841
563.20 1.389484
563.30 1.431975
563.40 1.513882
563.50 1.650268
563.60 1.65756
563.70 1.599849
563.80 1.602421
563.90 1.594759
564.00 1.550752
564.10 1.540442
564.20 1.582884
564.30 1.611477
564.40 1.63267
564.50 1.631564
564.60 1.625358
564.70 1.619855
564.80 1.656147
564.90 1.671607
565.00 1.657586
565.10 1.748476
565.20 1.843067
565.30 1.840246
565.40 1.81652
565.50 1.818446
565.60 1.848501
565.70 1.957934
565.80 1.991516
565.90 1.90357
566.00 1.80502
566.10 1.820925
566.20 1.790396
566.30 1.763648
566.40 1.699924
566.50 1.655524
566.60 1.663954
566.70 1.69133
566.80 1.718162
566.90 1.698491
567.00 1.645694
567.10 1.555695
567.20 1.568831
567.30 1.608234
567.40 1.651799
567.50 1.687109
567.60 1.725412
567.70 1.705149
567.80 1.750837
567.90 1.816424
568.00 1.846306
568.10 1.812075
568.20 1.797602
568.30 1.803176
568.40 1.816922
568.50 1.874225
568.60 1.950805
568.70 2.037069
568.80 1.962866
568.90 1.828312
569.00 1.758354
569.10 1.817356
569.20 1.899901
569.30 1.935565
569.40 1.960368
569.50 1.971205
569.60 1.9133
569.70 1.913871
569.80 1.912629
569.90 1.956085
570.00 2.001776
570.10 2.016757
570.20 2.055641
570.30 2.061679
570.40 1.973222
570.50 1.972194
570.60 2.066294
570.70 2.162866
570.80 2.172094
570.90 2.190789
571.00 2.249473
571.10 2.256615
571.20 2.171823
571.30 2.133297
571.40 2.098083
571.50 2.03492
571.60 2.006644
571.70 2.011745
571.80 1.978219
571.90 1.960685
572.00 1.985715
572.10 2.041254
572.20 2.018679
572.30 1.967774
572.40 2.050585
572.50 2.059657
572.60 2.039259
572.70 1.99546
572.80 2.023507
572.90 1.937915
573.00 1.959072
573.10 2.048154
573.20 2.118284
573.30 2.119364
573.40 2.190879
573.50 2.212498
573.60 2.170367
573.70 2.116452
573.80 2.079421
573.90 2.06406
574.00 2.023673
574.10 2.097548
574.20 2.153359
574.30 2.158139
574.40 2.109637
574.50 2.155288
574.60 2.21833
574.70 2.233807
574.80 2.265508
574.90 2.326309
575.00 2.387991
575.10 2.41459
575.20 2.425453
575.30 2.420988
575.40 2.427612
575.50 2.42068
575.60 2.429205
575.70 2.446862
575.80 2.40715
575.90 2.359563
576.00 2.238659
576.10 2.08337
576.20 1.943224
576.30 1.834724
576.40 1.842464
576.50 1.824708
576.60 1.767808
576.70 1.800865
576.80 1.911838
576.90 1.962102
577.00 1.956403
577.10 2.002516
577.20 2.017165
577.30 2.019036
577.40 2.03592
577.50 2.040576
577.60 1.97056
577.70 1.909841
577.80 1.988516
577.90 2.045049
578.00 2.087364
578.10 2.085044
578.20 2.111162
578.30 2.144161
578.40 2.183968
578.50 2.256848
578.60 2.261082
578.70 2.169201
578.80 2.106625
578.90 2.193254
579.00 2.197366
579.10 2.140779
579.20 2.090378
579.30 2.200465
579.40 2.275528
579.50 2.401385
579.60 2.479893
579.70 2.437092
579.80 2.416333
579.90 2.454154
580.00 2.505954
580.10 2.481359
580.20 2.431206
580.30 2.423078
580.40 2.471388
580.50 2.53467
580.60 2.493897
580.70 2.498346
580.80 2.563034
580.90 2.567987
581.00 2.5479
581.10 2.470631
581.20 2.26747
581.30 2.111612
581.40 2.045449
581.50 2.006686
581.60 1.948993
581.70 1.914938
581.80 1.860611
581.90 1.838907
582.00 1.86699
582.10 1.829252
582.20 1.821897
582.30 1.846846
582.40 1.943798
582.50 1.920197
582.60 1.886858
582.70 1.909313
582.80 1.975946
582.90 1.967853
583.00 1.967037
583.10 1.970805
583.20 1.983966
583.30 2.136485
583.40 2.200896
583.50 2.101613
583.60 2.02468
583.70 2.093342
583.80 2.048666
583.90 1.990001
584.00 2.013804
584.10 1.965178
584.20 1.976984
584.30 2.016708
584.40 2.029665
584.50 2.063156
584.60 2.059987
584.70 2.052759
584.80 1.96833
584.90 1.812645
585.00 1.646877
585.10 1.580156
585.20 1.562905
585.30 1.551814
585.40 1.565236
585.50 1.564021
585.60 1.545968
585.70 1.511665
585.80 1.461452
585.90 1.508842
586.00 1.562851
586.10 1.554793
586.20 1.565046
586.30 1.521971
586.40 1.440449
586.50 1.380078
586.60 1.347222
586.70 1.299285
586.80 1.41404
586.90 1.539833
587.00 1.544969
587.10 1.457158
587.20 1.414178
587.30 1.322951
587.40 1.249248
587.50 1.281115
587.60 1.302903
587.70 1.326604
587.80 1.307129
587.90 1.263067
588.00 1.233804
588.10 1.1984
588.20 1.130644
588.30 1.026692
588.40 0.9979984
588.50 1.062606
588.60 1.010642
588.70 0.8338831
588.80 0.6873389
588.90 0.6956546
589.00 0.7630852
589.10 0.8061152
589.20 0.5892764
589.30 0.4873965
589.40 0.6684818
589.50 0.8043288
589.60 0.7449792
589.70 0.6307956
589.80 0.5931734
589.90 0.6216613
590.00 0.7332061
590.10 0.856932
590.20 0.8733122
590.30 0.9183901
590.40 1.02494
590.50 1.084606
590.60 1.08026
590.70 1.086774
590.80 1.091924
590.90 1.029938
591.00 1.034826
591.10 1.121483
591.20 1.195748
591.30 1.170113
591.40 1.141837
591.50 1.122464
591.60 1.123916
591.70 1.185852
591.80 1.248934
591.90 1.233926
592.00 1.227181
592.10 1.22405
592.20 1.235369
592.30 1.223889
592.40 1.235877
592.50 1.218992
592.60 1.211142
592.70 1.195878
592.80 1.211216
592.90 1.279512
593.00 1.285226
593.10 1.282995
593.20 1.298112
593.30 1.332989
593.40 1.345978
593.50 1.334231
593.60 1.391723
593.70 1.453702
593.80 1.50504
593.90 1.515779
594.00 1.453064
594.10 1.420587
594.20 1.435343
594.30 1.516972
594.40 1.543976
594.50 1.577283
594.60 1.563173
594.70 1.54689
594.80 1.511357
594.90 1.476023
595.00 1.431256
595.10 1.385914
595.20 1.413256
595.30 1.412526
595.40 1.364845
595.50 1.397418
595.60 1.425938
595.70 1.405439
595.80 1.348256
595.90 1.357181
596.00 1.280317
596.10 1.275254
596.20 1.367624
596.30 1.368788
596.40 1.391236
596.50 1.386605
596.60 1.430505
596.70 1.413067
596.80 1.422835
596.90 1.442364
597.00 1.478993
597.10 1.490971
597.20 1.479357
597.30 1.412512
597.40 1.371979
597.50 1.402552
597.60 1.42925
597.70 1.419905
597.80 1.483221
597.90 1.55667
598.00 1.56555
598.10 1.476796
598.20 1.501516
598.30 1.577918
598.40 1.575168
598.50 1.588184
598.60 1.631272
598.70 1.644537
598.80 1.641456
598.90 1.612055
599.00 1.610627
599.10 1.623445
599.20 1.686156
599.30 1.765269
599.40 1.793107
599.50 1.795212
599.60 1.750683
599.70 1.759141
599.80 1.803712
599.90 1.815918
600.00 1.753729
600.10 1.682438
600.20 1.659724
600.30 1.629714
600.40 1.652621
600.50 1.667786
600.60 1.697982
600.70 1.665295
600.80 1.644099
600.90 1.633129
601.00 1.625764
601.10 1.648659
601.20 1.687619
601.30 1.724566
601.40 1.750692
601.50 1.755262
601.60 1.730935
601.70 1.760382
601.80 1.77122
601.90 1.758657
602.00 1.784891
602.10 1.814993
602.20 1.80932
602.30 1.777694
602.40 1.80889
602.50 1.890394
602.60 1.922166
602.70 1.886193
602.80 1.889285
602.90 1.897558
603.00 1.88517
603.10 1.861839
603.20 1.907759
603.30 1.974472
603.40 1.990451
603.50 1.93296
603.60 1.872365
603.70 1.806085
603.80 1.707774
603.90 1.623248
604.00 1.704459
604.10 1.83247
604.20 1.902565
604.30 1.963322
604.40 2.018169
604.50 2.046484
604.60 2.073266
604.70 2.122853
604.80 2.128556
604.90 2.077757
605.00 2.11791
605.10 2.182453
605.20 2.143796
605.30 2.056079
605.40 2.037087
605.50 2.06441
605.60 2.071875
605.70 2.081833
605.80 2.104263
605.90 2.106747
606.00 2.105046
606.10 2.148825
606.20 2.226593
606.30 2.195543
606.40 2.133251
606.50 2.093571
606.60 2.012227
606.70 1.944294
606.80 2.000436
606.90 2.121165
607.00 2.2064
607.10 2.239377
607.20 2.265358
607.30 2.255027
607.40 2.14951
607.50 2.082715
607.60 2.133785
607.70 2.22113
607.80 2.279472
607.90 2.248648
608.00 2.129513
608.10 2.047927
608.20 2.019351
608.30 2.049501
608.40 2.089312
608.50 2.10607
608.60 2.125328
608.70 2.159694
608.80 2.155969
608.90 2.128214
609.00 2.127529
609.10 2.157325
609.20 2.16422
609.30 2.17407
609.40 2.222166
609.50 2.274243
609.60 2.277727
609.70 2.28552
609.80 2.311947
609.90 2.330274
610.00 2.307044
610.10 2.252496
610.20 2.195754
610.30 2.133094
610.40 2.067269
610.50 2.04293
610.60 2.112531
610.70 2.182055
610.80 2.220023
610.90 2.24491
611.00 2.27789
611.10 2.267014
611.20 2.242534
611.30 2.225904
611.40 2.238409
611.50 2.276381
611.60 2.279086
611.70 2.23822
611.80 2.172265
611.90 2.158812
612.00 2.149684
612.10 2.107349
612.20 2.0345
612.30 1.965734
612.40 1.983262
612.50 2.057928
612.60 2.168293
612.70 2.237826
612.80 2.177937
612.90 2.168037
613.00 2.219914
613.10 2.266257
613.20 2.247333
613.30 2.17672
613.40 2.154089
613.50 2.139166
613.60 2.176897
613.70 2.180111
613.80 2.172382
613.90 2.17424
614.00 2.22968
614.10 2.276518
614.20 2.26284
614.30 2.247395
614.40 2.289348
614.50 2.343474
614.60 2.35194
614.70 2.354286
614.80 2.263043
614.90 2.111048
615.00 1.988278
615.10 1.878925
615.20 1.808291
615.30 1.831895
615.40 1.90572
615.50 1.932687
615.60 1.87404
615.70 1.848463
615.80 1.809334
615.90 1.653268
616.00 1.495042
616.10 1.37996
616.20 1.281299
616.30 1.204304
616.40 1.190967
616.50 1.223662
616.60 1.210361
616.70 1.176399
616.80 1.222881
616.90 1.280369
617.00 1.272844
617.10 1.263221
617.20 1.303473
617.30 1.333925
617.40 1.313817
617.50 1.280214
617.60 1.281476
617.70 1.258912
617.80 1.290013
617.90 1.340825
618.00 1.335477
618.10 1.299761
618.20 1.28239
618.30 1.30637
618.40 1.300566
618.50 1.278395
618.60 1.256439
618.70 1.188858
618.80 1.136463
618.90 1.117261
619.00 1.111265
619.10 1.102823
619.20 1.079475
619.30 1.045035
619.40 1.047853
619.50 1.082935
619.60 1.090308
619.70 1.073713
619.80 1.102635
619.90 1.145953
620.00 1.186773
620.10 1.200601
620.20 1.166174
620.30 1.143936
620.40 1.163274
620.50 1.205946
620.60 1.270991
620.70 1.248841
620.80 1.24139
620.90 1.256793
621.00 1.26193
621.10 1.261362
621.20 1.248021
621.30 1.233553
621.40 1.188522
621.50 1.119999
621.60 1.056815
621.70 1.02426
621.80 1.050256
621.90 1.056363
622.00 1.083276
622.10 1.129456
622.20 1.127807
622.30 1.080529
622.40 1.022149
622.50 0.9665937
622.60 0.9478808
622.70 0.9936878
622.80 0.9887585
622.90 1.007614
623.00 1.05322
623.10 1.030553
623.20 1.005999
623.30 1.035401
623.40 1.05689
623.50 1.051313
623.60 1.047857
623.70 1.120189
623.80 1.115444
623.90 1.054201
624.00 1.040685
624.10 1.08176
624.20 1.117869
624.30 1.102855
624.40 1.150224
624.50 1.157466
624.60 1.136633
624.70 1.119135
624.80 1.102354
624.90 1.155251
625.00 1.173245
625.10 1.146524
625.20 1.156422
625.30 1.207774
625.40 1.248668
625.50 1.262446
625.60 1.259321
625.70 1.256997
625.80 1.275837
625.90 1.29423
626.00 1.314559
626.10 1.295929
626.20 1.289787
626.30 1.342837
626.40 1.40446
626.50 1.449479
626.60 1.484546
626.70 1.510593
626.80 1.440106
626.90 1.354945
627.00 1.355545
627.10 1.398151
627.20 1.440853
627.30 1.484798
627.40 1.519962
627.50 1.493126
627.60 1.40464
627.70 1.371229
627.80 1.399601
627.90 1.409802
628.00 1.407014
628.10 1.421308
628.20 1.45511
628.30 1.457459
628.40 1.4989
628.50 1.532582
628.60 1.569267
628.70 1.610328
628.80 1.635732
628.90 1.667132
629.00 1.701837
629.10 1.729926
629.20 1.716822
629.30 1.710008
629.40 1.726085
629.50 1.738886
629.60 1.706433
629.70 1.759019
629.80 1.836763
629.90 1.811947
630.00 1.838334
630.10 2.106572
630.20 2.319755
630.30 1.97804
630.40 1.751167
630.50 1.875064
630.60 2.013822
630.70 2.049048
630.80 2.071872
630.90 2.113485
631.00 2.104974
631.10 2.077198
631.20 2.137604
631.30 2.213051
631.40 2.269489
631.50 2.295718
631.60 2.311824
631.70 2.32746
631.80 2.339927
631.90 2.372185
632.00 2.376215
632.10 2.353312
632.20 2.345101
632.30 2.32394
632.40 2.26138
632.50 2.256429
632.60 2.309036
632.70 2.336166
632.80 2.38493
632.90 2.421044
633.00 2.416544
633.10 2.408493
633.20 2.419995
633.30 2.445081
633.40 2.480605
633.50 2.538279
633.60 2.591982
633.70 2.563476
633.80 2.534084
633.90 2.563623
634.00 2.638822
634.10 2.680313
634.20 2.714433
634.30 2.7603
634.40 2.788713
634.50 2.80967
634.60 2.7899
634.70 2.808675
634.80 2.863544
634.90 2.898065
635.00 2.894127
635.10 2.892475
635.20 2.856793
635.30 2.763052
635.40 2.684698
635.50 2.649408
635.60 2.649824
635.70 2.61638
635.80 2.530599
635.90 2.45594
636.00 2.43846
636.10 2.427308
636.20 2.436092
636.30 2.513676
636.40 2.644441
636.50 2.63718
636.60 2.462227
636.70 2.397475
636.80 2.465749
636.90 2.513947
637.00 2.508901
637.10 2.512069
637.20 2.539647
637.30 2.611488
637.40 2.66088
637.50 2.61927
637.60 2.584386
637.70 2.575625
637.80 2.567273
637.90 2.539263
638.00 2.460199
638.10 2.380657
638.20 2.306845
638.30 2.244455
638.40 2.243234
638.50 2.303597
638.60 2.311458
638.70 2.266356
638.80 2.246424
638.90 2.246406
639.00 2.253546
639.10 2.29379
639.20 2.375619
639.30 2.448708
639.40 2.487578
639.50 2.562848
639.60 2.646296
639.70 2.730036
639.80 2.774488
639.90 2.8065
640.00 2.847486
640.10 2.850405
640.20 2.870925
640.30 2.896068
640.40 2.942817
640.50 3.006767
640.60 3.063163
640.70 3.0956
640.80 3.105003
640.90 3.125426
641.00 3.137066
641.10 3.123944
641.20 3.116128
641.30 3.141223
641.40 3.137164
641.50 3.119092
641.60 3.080223
641.70 2.998637
641.80 2.962173
641.90 2.961648
642.00 2.947118
642.10 2.919033
642.20 2.864774
642.30 2.839494
642.40 2.867949
642.50 2.916125
642.60 2.952344
642.70 2.968726
642.80 2.968152
642.90 2.964807
643.00 2.977123
643.10 3.025899
643.20 3.054249
643.30 3.053092
643.40 3.070242
643.50 3.096486
643.60 3.128311
643.70 3.150647
643.80 3.102147
643.90 3.063628
644.00 3.030787
644.10 3.022442
644.20 3.084555
644.30 3.229345
644.40 3.393691
644.50 3.483296
644.60 3.513735
644.70 3.473492
644.80 3.372643
644.90 3.243001
645.00 3.133374
645.10 3.068826
645.20 3.108984
645.30 3.214097
645.40 3.340607
645.50 3.4322
645.60 3.421536
645.70 3.411931
645.80 3.436646
645.90 3.489055
646.00 3.505884
646.10 3.475264
646.20 3.402649
646.30 3.300448
646.40 3.266436
646.50 3.324174
646.60 3.433067
646.70 3.537335
646.80 3.633538
646.90 3.705712
647.00 3.723116
647.10 3.711595
647.20 3.700265
647.30 3.708535
647.40 3.777345
647.50 3.815099
647.60 3.844067
647.70 3.879021
647.80 3.878435
647.90 3.836577
648.00 3.709394
648.10 3.572244
648.20 3.491869
648.30 3.474374
648.40 3.430545
648.50 3.349429
648.60 3.29904
648.70 3.303915
648.80 3.348833
648.90 3.410296
649.00 3.484417
649.10 3.537606
649.20 3.554296
649.30 3.531809
649.40 3.500407
649.50 3.426909
649.60 3.352145
649.70 3.360408
649.80 3.484195
649.90 3.575403
650.00 3.614371
650.10 3.630165
650.20 3.663292
650.30 3.771002
650.40 3.903053
650.50 3.990433
650.60 3.978454
650.70 3.965604
650.80 4.016967
650.90 4.064398
651.00 4.097062
651.10 4.135671
651.20 4.146955
651.30 4.107306
651.40 4.005831
651.50 3.919446
651.60 3.890141
651.70 3.956466
651.80 4.04101
651.90 4.096996
652.00 4.147251
652.10 4.195709
652.20 4.235868
652.30 4.277956
652.40 4.335366
652.50 4.369043
652.60 4.390202
652.70 4.412837
652.80 4.451227
652.90 4.499687
653.00 4.518242
653.10 4.53769
653.20 4.55637
653.30 4.557055
653.40 4.598017
653.50 4.615844
653.60 4.641023
653.70 4.715492
653.80 4.796032
653.90 4.876411
654.00 4.95882
654.10 4.999667
654.20 4.991158
654.30 4.907642
654.40 4.753697
654.50 4.600165
654.60 4.503269
654.70 4.414081
654.80 4.33219
654.90 4.278071
655.00 4.218046
655.10 4.151971
655.20 4.073367
655.30 4.044402
655.40 4.055756
655.50 4.033405
655.60 4.000912
655.70 4.022855
655.80 4.139914
655.90 4.247356
656.00 4.32604
656.10 4.514675
656.20 4.929493
656.30 5.545882
656.40 6.068712
656.50 6.056887
656.60 5.41689
656.70 4.561524
656.80 3.985409
656.90 3.805525
657.00 3.7855
657.10 3.775533
657.20 3.675119
657.30 3.529091
657.40 3.452321
657.50 3.439566
657.60 3.520903
657.70 3.670081
657.80 3.722816
657.90 3.684698
658.00 3.568522
658.10 3.449928
658.20 3.444787
658.30 3.536337
658.40 3.626311
658.50 3.695976
658.60 3.776273
658.70 3.847223
658.80 3.883098
658.90 3.933936
659.00 3.991866
659.10 3.994828
659.20 3.943466
659.30 3.851972
659.40 3.711907
659.50 3.553376
659.60 3.482769
659.70 3.53548
659.80 3.623229
659.90 3.647566
660.00 3.623974
660.10 3.59634
660.20 3.587189
660.30 3.637819
660.40 3.719745
660.50 3.73881
660.60 3.663058
660.70 3.580093
660.80 3.541566
660.90 3.545374
661.00 3.559703
661.10 3.603836
661.20 3.673159
661.30 3.689352
661.40 3.678096
661.50 3.699288
661.60 3.714389
661.70 3.672022
661.80 3.578633
661.90 3.488851
662.00 3.415313
662.10 3.374307
662.20 3.369396
662.30 3.373407
662.40 3.375152
662.50 3.308454
662.60 3.180318
662.70 3.076061
662.80 3.026041
662.90 3.014351
663.00 3.038863
663.10 3.125122
663.20 3.244925
663.30 3.331442
663.40 3.351135
663.50 3.301604
663.60 3.189128
663.70 3.039956
663.80 2.905799
663.90 2.873557
664.00 2.926567
664.10 2.999048
664.20 3.068105
664.30 3.134278
664.40 3.188797
664.50 3.202566
664.60 3.185892
664.70 3.189481
664.80 3.188258
664.90 3.1457
665.00 3.030817
665.10 2.845328
665.20 2.660219
665.30 2.498051
665.40 2.412487
665.50 2.41387
665.60 2.473814
665.70 2.548151
665.80 2.537336
665.90 2.506278
666.00 2.515711
666.10 2.593845
666.20 2.675601
666.30 2.675114
666.40 2.680418
666.50 2.736285
666.60 2.786926
666.70 2.848461
666.80 2.889124
666.90 2.939303
667.00 2.99786
667.10 3.012696
667.20 3.000408
667.30 2.973046
667.40 2.950231
667.50 2.923328
667.60 2.901018
667.70 2.910963
667.80 2.939494
667.90 2.96411
668.00 2.889528
668.10 2.715984
668.20 2.49736
668.30 2.305329
668.40 2.232195
668.50 2.2387
668.60 2.294648
668.70 2.343951
668.80 2.355881
668.90 2.405891
669.00 2.431596
669.10 2.435569
669.20 2.438168
669.30 2.415706
669.40 2.386639
669.50 2.373534
669.60 2.42023
669.70 2.484599
669.80 2.527103
669.90 2.557091
670.00 2.571661
670.10 2.59153
670.20 2.597061
670.30 2.597432
670.40 2.62027
670.50 2.639512
670.60 2.668438
670.70 2.708289
670.80 2.687898
670.90 2.704064
671.00 2.749203
671.10 2.741757
671.20 2.740099
671.30 2.721865
671.40 2.651388
671.50 2.505601
671.60 2.335273
671.70 2.211145
671.80 2.108729
671.90 2.019371
672.00 1.993171
672.10 2.001255
672.20 2.010556
672.30 2.032104
672.40 2.078539
672.50 2.154136
672.60 2.18771
672.70 2.212241
672.80 2.259006
672.90 2.280246
673.00 2.269908
673.10 2.247416
673.20 2.263362
673.30 2.31333
673.40 2.344971
673.50 2.341278
673.60 2.339786
673.70 2.349471
673.80 2.362188
673.90 2.396247
674.00 2.444998
674.10 2.477871
674.20 2.474054
674.30 2.473631
674.40 2.499446
674.50 2.532079
674.60 2.549847
674.70 2.487581
674.80 2.370711
674.90 2.245999
675.00 2.144479
675.10 2.129513
675.20 2.151267
675.30 2.20272
675.40 2.257036
675.50 2.290638
675.60 2.314386
675.70 2.330175
675.80 2.34476
675.90 2.36205
676.00 2.354381
676.10 2.33188
676.20 2.349077
676.30 2.398629
676.40 2.446954
676.50 2.492133
676.60 2.540841
676.70 2.584403
676.80 2.617802
676.90 2.627272
677.00 2.607177
677.10 2.617552
677.20 2.624786
677.30 2.620914
677.40 2.647112
677.50 2.693597
677.60 2.749456
677.70 2.779032
677.80 2.766791
677.90 2.738494
678.00 2.71357
678.10 2.677083
678.20 2.589932
678.30 2.439112
678.40 2.283764
678.50 2.185724
678.60 2.157746
678.70 2.166319
678.80 2.180358
678.90 2.214349
679.00 2.253784
679.10 2.282609
679.20 2.315304
679.30 2.323864
679.40 2.326601
679.50 2.341015
679.60 2.362161
679.70 2.382368
679.80 2.370302
679.90 2.368074
680.00 2.387018
680.10 2.431937
680.20 2.472956
680.30 2.477423
680.40 2.474967
680.50 2.469986
680.60 2.465236
680.70 2.470503
680.80 2.46563
680.90 2.470634
681.00 2.488325
681.10 2.508715
681.20 2.545577
681.30 2.585262
681.40 2.615205
681.50 2.612458
681.60 2.551771
681.70 2.442838
681.80 2.355495
681.90 2.368622
682.00 2.433106
682.10 2.465094
682.20 2.476233
682.30 2.46326
682.40 2.447986
682.50 2.449075
682.60 2.471618
682.70 2.516553
682.80 2.575669
682.90 2.625701
683.00 2.611105
683.10 2.567001
683.20 2.544744
683.30 2.585794
683.40 2.650989
683.50 2.659727
683.60 2.640591
683.70 2.579729
683.80 2.560177
683.90 2.601041
684.00 2.613286
684.10 2.649025
684.20 2.694085
684.30 2.703184
684.40 2.705332
684.50 2.694119
684.60 2.705413
684.70 2.710993
684.80 2.669733
684.90 2.645377
685.00 2.642276
685.10 2.610598
685.20 2.511271
685.30 2.397608
685.40 2.373632
685.50 2.420613
685.60 2.446357
685.70 2.445039
685.80 2.449318
685.90 2.450107
686.00 2.438959
686.10 2.41149
686.20 2.417847
686.30 2.476338
686.40 2.560497
686.50 2.672524
686.60 2.741243
686.70 2.715045
686.80 2.646589
686.90 2.573663
687.00 2.537985
687.10 2.504608
687.20 2.517417
687.30 2.576981
687.40 2.647446
687.50 2.738884
687.60 2.780748
687.70 2.79606
687.80 2.851383
687.90 2.885774
688.00 2.884866
688.10 2.892658
688.20 2.869686
688.30 2.821955
688.40 2.765776
688.50 2.699862
688.60 2.649839
688.70 2.623085
688.80 2.644267
688.90 2.726112
689.00 2.802781
689.10 2.84005
689.20 2.833449
689.30 2.828806
689.40 2.847764
689.50 2.893642
689.60 2.927151
689.70 2.935858
689.80 2.957609
689.90 2.942229
690.00 2.879443
690.10 2.801315
690.20 2.696119
690.30 2.628029
690.40 2.649827
690.50 2.774078
690.60 2.946998
690.70 3.099443
690.80 3.19484
690.90 3.220674
691.00 3.217232
691.10 3.208009
691.20 3.193737
691.30 3.200629
691.40 3.230661
691.50 3.272931
691.60 3.299071
691.70 3.261959
691.80 3.140165
691.90 2.954515
692.00 2.782389
692.10 2.74958
692.20 2.906973
692.30 3.146217
692.40 3.363696
692.50 3.45835
692.60 3.454437
692.70 3.469282
692.80 3.469332
692.90 3.450293
693.00 3.483219
693.10 3.544535
693.20 3.621193
693.30 3.72952
693.40 3.805898
693.50 3.81242
693.60 3.773509
693.70 3.743084
693.80 3.742713
693.90 3.755286
694.00 3.787722
694.10 3.841927
694.20 3.934046
694.30 4.025607
694.40 4.11139
694.50 4.208817
694.60 4.243926
694.70 4.272213
694.80 4.38632
694.90 4.489596
695.00 4.512588
695.10 4.457402
695.20 4.37477
695.30 4.26148
695.40 4.157547
695.50 4.119107
695.60 4.111421
695.70 4.118456
695.80 4.106921
695.90 4.09756
696.00 4.111032
696.10 4.146772
696.20 4.159152
696.30 4.164709
696.40 4.209218
696.50 4.278981
696.60 4.348286
696.70 4.380271
696.80 4.398802
696.90 4.423356
697.00 4.410471
697.10 4.357174
697.20 4.309847
697.30 4.290462
697.40 4.312937
697.50 4.368187
697.60 4.45355
697.70 4.567308
697.80 4.647161
697.90 4.662564
698.00 4.661893
698.10 4.625104
698.20 4.606043
698.30 4.666653
698.40 4.716221
698.50 4.751424
698.60 4.775603
698.70 4.777506
698.80 4.771781
698.90 4.759537
699.00 4.721025
699.10 4.643128
699.20 4.573798
699.30 4.537278
699.40 4.545261
699.50 4.596069
699.60 4.643349
699.70 4.697545
699.80 4.748291
699.90 4.749733
700.00 4.709329
700.10 4.709297
700.20 4.773929
700.30 4.85573
700.40 4.89404
700.50 4.840495
700.60 4.743776
700.70 4.728825
700.80 4.8309
700.90 4.944577
701.00 4.97745
701.10 4.969436
701.20 4.98609
701.30 5.056649
701.40 5.19942
701.50 5.333657
701.60 5.36584
701.70 5.313331
701.80 5.253694
701.90 5.258762
702.00 5.338533
702.10 5.446637
702.20 5.506986
702.30 5.477794
702.40 5.363012
702.50 5.208779
702.60 5.096972
702.70 5.105587
702.80 5.28605
702.90 5.586192
703.00 5.859182
703.10 5.985972
703.20 5.979482
703.30 5.931339
703.40 5.900604
703.50 5.961301
703.60 6.137322
703.70 6.352046
703.80 6.496505
703.90 6.527857
704.00 6.505623
704.10 6.526513
704.20 6.606098
704.30 6.735336
704.40 6.854141
704.50 6.897681
704.60 6.889559
704.70 6.885746
704.80 6.934633
704.90 6.996189
705.00 6.989553
705.10 6.991983
705.20 6.985521
705.30 6.825656
705.40 6.364935
705.50 5.54681
705.60 4.606093
705.70 3.887032
705.80 3.583583
705.90 3.637291
706.00 3.74374
706.10 3.651155
706.20 3.46788
706.30 3.366673
706.40 3.412879
706.50 3.536301
706.60 3.652314
706.70 3.768464
706.80 3.888431
706.90 3.965849
707.00 3.98209
707.10 4.018895
707.20 4.110076
707.30 4.210991
707.40 4.265227
707.50 4.269675
707.60 4.261669
707.70 4.27437
707.80 4.27828
707.90 4.276757
708.00 4.332783
708.10 4.412748
708.20 4.453141
708.30 4.48403
708.40 4.51268
708.50 4.556431
708.60 4.573014
708.70 4.402859
708.80 4.000743
708.90 3.453732
709.00 2.940663
709.10 2.635401
709.20 2.592105
709.30 2.723422
709.40 2.862278
709.50 2.911998
709.60 2.873595
709.70 2.810407
709.80 2.823685
709.90 2.919646
710.00 3.029556
710.10 3.084972
710.20 3.064568
710.30 3.023366
710.40 3.023349
710.50 3.061412
710.60 3.147222
710.70 3.239916
710.80 3.319634
710.90 3.442179
711.00 3.592145
711.10 3.718536
711.20 3.796616
711.30 3.816171
711.40 3.806056
711.50 3.803772
711.60 3.790822
711.70 3.764512
711.80 3.758397
711.90 3.818444
712.00 3.927748
712.10 4.03908
712.20 4.126382
712.30 4.174888
712.40 4.119591
712.50 3.868745
712.60 3.40076
712.70 2.827371
712.80 2.376146
712.90 2.203474
713.00 2.250675
713.10 2.351907
713.20 2.391979
713.30 2.331851
713.40 2.261187
713.50 2.263264
713.60 2.329304
713.70 2.390178
713.80 2.416297
713.90 2.3967
714.00 2.372575
714.10 2.413433
714.20 2.505434
714.30 2.626505
714.40 2.716595
714.50 2.738937
714.60 2.717367
714.70 2.674807
714.80 2.66027
714.90 2.688901
715.00 2.727889
715.10 2.761046
715.20 2.821426
715.30 2.910237
715.40 3.003883
715.50 3.100494
715.60 3.189589
715.70 3.253433
715.80 3.247308
715.90 3.151239
716.00 3.004496
716.10 2.879704
716.20 2.836684
716.30 2.885527
716.40 2.959697
716.50 2.997801
716.60 2.993457
716.70 2.980053
716.80 2.97371
716.90 2.981036
717.00 3.031954
717.10 3.111144
717.20 3.195826
717.30 3.274621
717.40 3.314928
717.50 3.297522
717.60 3.266315
717.70 3.255641
717.80 3.265843
717.90 3.307213
718.00 3.371051
718.10 3.434308
718.20 3.486456
718.30 3.546841
718.40 3.58769
718.50 3.637052
718.60 3.732864
718.70 3.787683
718.80 3.800274
718.90 3.817574
719.00 3.844795
719.10 3.885185
719.20 3.902355
719.30 3.909164
719.40 3.918286
719.50 3.938981
719.60 3.938825
719.70 3.818606
719.80 3.614098
719.90 3.433015
720.00 3.335828
720.10 3.305917
720.20 3.303373
720.30 3.326815
720.40 3.358729
720.50 3.367085
720.60 3.367116
720.70 3.368492
720.80 3.390876
720.90 3.4315
721.00 3.456228
721.10 3.482647
721.20 3.520421
721.30 3.579709
721.40 3.643434
721.50 3.682916
721.60 3.72019
721.70 3.728354
721.80 3.755123
721.90 3.850499
722.00 3.915082
722.10 3.958195
722.20 4.023215
722.30 4.072633
722.40 4.109754
722.50 4.134057
722.60 4.189682
722.70 4.312442
722.80 4.404306
722.90 4.409527
723.00 4.35186
723.10 4.277091
723.20 4.219556
723.30 4.192364
723.40 4.197713
723.50 4.234536
723.60 4.313822
723.70 4.445917
723.80 4.557804
723.90 4.616865
724.00 4.645877
724.10 4.606805
724.20 4.542254
724.30 4.536309
724.40 4.602571
724.50 4.707803
724.60 4.790495
724.70 4.832182
724.80 4.841236
724.90 4.88034
725.00 4.999669
725.10 5.124465
725.20 5.149001
725.30 5.075122
725.40 5.008287
725.50 5.056957
725.60 5.17663
725.70 5.275084
725.80 5.297555
725.90 5.254178
726.00 5.229013
726.10 5.252544
726.20 5.329246
726.30 5.452646
726.40 5.570572
726.50 5.640512
726.60 5.659003
726.70 5.665344
726.80 5.701979
726.90 5.741606
727.00 5.717714
727.10 5.590955
727.20 5.382509
727.30 5.206099
727.40 5.218772
727.50 5.444996
727.60 5.764584
727.70 5.99955
727.80 5.925605
727.90 5.642345
728.00 5.513296
728.10 5.542924
728.20 5.591195
728.30 5.666075
728.40 5.775285
728.50 5.895419
728.60 5.969935
728.70 6.000666
728.80 6.056245
728.90 6.094438
729.00 6.132881
729.10 6.192541
729.20 6.233166
729.30 6.246845
729.40 6.226216
729.50 6.224995
729.60 6.289944
729.70 6.387637
729.80 6.492482
729.90 6.538336
730.00 6.477752
730.10 6.425862
730.20 6.464206
730.30 6.569077
730.40 6.665179
730.50 6.67139
730.60 6.663045
730.70 6.713298
730.80 6.803612
730.90 6.863865
731.00 6.861952
731.10 6.832442
731.20 6.809931
731.30 6.858257
731.40 6.982983
731.50 7.111051
731.60 7.178897
731.70 7.233139
731.80 7.264993
731.90 7.251322
732.00 7.219787
732.10 7.205987
732.20 7.242334
732.30 7.301197
732.40 7.349162
732.50 7.311518
732.60 7.15347
732.70 6.964308
732.80 6.91553
732.90 7.0891
733.00 7.312486
733.10 7.434081
733.20 7.490421
733.30 7.518184
733.40 7.54861
733.50 7.602374
733.60 7.678216
733.70 7.756735
733.80 7.807694
733.90 7.85213
734.00 7.959211
734.10 8.118879
734.20 8.185665
734.30 8.067516
734.40 7.836086
734.50 7.637286
734.60 7.563108
734.70 7.591669
734.80 7.671092
734.90 7.745755
735.00 7.806986
735.10 7.876406
735.20 7.937955
735.30 7.980664
735.40 7.9941
735.50 7.958037
735.60 7.876989
735.70 7.782886
735.80 7.714974
735.90 7.740321
736.00 7.869421
736.10 8.014488
736.20 8.083193
736.30 8.073495
736.40 8.103854
736.50 8.184742
736.60 8.221195
736.70 8.244807
736.80 8.283424
736.90 8.416805
737.00 8.606994
737.10 8.656276
737.20 8.580716
737.30 8.479494
737.40 8.452248
737.50 8.457888
737.60 8.442756
737.70 8.47269
737.80 8.534855
737.90 8.594468
738.00 8.632552
738.10 8.638899
738.20 8.616247
738.30 8.584219
738.40 8.570017
738.50 8.590178
738.60 8.648308
738.70 8.724101
738.80 8.796531
738.90 8.855684
739.00 8.896463
739.10 8.918736
739.20 8.887398
739.30 8.816804
739.40 8.739426
739.50 8.656491
739.60 8.615829
739.70 8.641291
739.80 8.697452
739.90 8.764614
740.00 8.785208
740.10 8.785545
740.20 8.832784
740.30 8.880867
740.40 8.921854
740.50 8.928368
740.60 8.85584
740.70 8.722793
740.80 8.637216
740.90 8.682369
741.00 8.776029
741.10 8.831289
741.20 8.865868
741.30 8.916376
741.40 8.971547
741.50 9.001137
741.60 8.990904
741.70 8.938416
741.80 8.843375
741.90 8.740749
742.00 8.723893
742.10 8.810651
742.20 8.885578
742.30 8.90688
742.40 8.891673
742.50 8.890093
742.60 8.947365
742.70 9.027115
742.80 9.109805
742.90 9.160784
743.00 9.18543
743.10 9.230903
743.20 9.259141
743.30 9.228364
743.40 9.148839
743.50 9.047552
743.60 8.950564
743.70 8.90819
743.80 8.977642
743.90 9.174044
744.00 9.402855
744.10 9.446182
744.20 9.269067
744.30 9.091306
744.40 9.036923
744.50 9.0484
744.60 9.054952
744.70 9.017322
744.80 8.950604
744.90 8.893697
745.00 8.860822
745.10 8.889497
745.20 9.00608
745.30 9.147648
745.40 9.209226
745.50 9.182267
745.60 9.115479
745.70 9.083472
745.80 9.146717
745.90 9.230377
746.00 9.246973
746.10 9.206768
746.20 9.160211
746.30 9.1293
746.40 9.119203
746.50 9.139538
746.60 9.196916
746.70 9.255214
746.80 9.278393
746.90 9.310111
747.00 9.379365
747.10 9.471788
747.20 9.520409
747.30 9.48698
747.40 9.393806
747.50 9.285996
747.60 9.244344
747.70 9.275635
747.80 9.369046
747.90 9.473782
748.00 9.482617
748.10 9.413674
748.20 9.352691
748.30 9.36014
748.40 9.475362
748.50 9.597779
748.60 9.584916
748.70 9.466054
748.80 9.310671
748.90 9.225976
749.00 9.269635
749.10 9.340976
749.20 9.381758
749.30 9.379801
749.40 9.327957
749.50 9.256684
749.60 9.213822
749.70 9.231344
749.80 9.345249
749.90 9.54631
750.00 9.729391
750.10 9.829315
750.20 9.85416
750.30 9.821903
750.40 9.8048
750.50 9.812511
750.60 9.764892
750.70 9.643698
750.80 9.54505
750.90 9.555102
751.00 9.694998
751.10 9.866752
751.20 9.919705
751.30 9.859344
751.40 9.778621
751.50 9.783296
751.60 9.890306
751.70 10.01838
751.80 10.07376
751.90 9.997725
752.00 9.85505
752.10 9.76458
752.20 9.747382
752.30 9.826504
752.40 10.01149
752.50 10.12101
752.60 10.02876
752.70 9.786045
752.80 9.497323
752.90 9.356423
753.00 9.442911
753.10 9.67118
753.20 9.899545
753.30 10.0035
753.40 9.974075
753.50 9.885486
753.60 9.853177
753.70 9.920069
753.80 10.02917
753.90 10.17369
754.00 10.34102
754.10 10.43916
754.20 10.43207
754.30 10.38515
754.40 10.35368
754.50 10.36521
754.60 10.40409
754.70 10.41334
754.80 10.38502
754.90 10.3506
755.00 10.33746
755.10 10.34247
755.20 10.35968
755.30 10.38511
755.40 10.38077
755.50 10.3397
755.60 10.29541
755.70 10.29463
755.80 10.34406
755.90 10.37003
756.00 10.37896
756.10 10.42103
756.20 10.43443
756.30 10.39078
756.40 10.32214
756.50 10.22837
756.60 10.13873
756.70 10.06771
756.80 9.968252
756.90 9.872381
757.00 9.87641
757.10 10.01442
757.20 10.28357
757.30 10.59517
757.40 10.75268
757.50 10.74566
757.60 10.64674
757.70 10.49378
757.80 10.38849
757.90 10.33212
758.00 10.32133
758.10 10.43096
758.20 10.64846
758.30 10.81536
758.40 10.85331
758.50 10.83276
758.60 10.81747
758.70 10.75397
758.80 10.50112
758.90 9.964642
759.00 9.14793
759.10 8.302781
759.20 7.747689
759.30 7.597222
759.40 7.777638
759.50 8.021102
759.60 8.16183
759.70 8.221355
759.80 8.301631
759.90 8.454803
760.00 8.582397
760.10 8.605439
760.20 8.42828
760.30 8.171959
760.40 8.183352
760.50 8.386075
760.60 8.541807
760.70 8.578434
760.80 8.422946
760.90 8.267543
761.00 8.270434
761.10 8.337904
761.20 8.505809
761.30 8.799448
761.40 9.072981
761.50 9.193333
761.60 9.121974
761.70 9.016517
761.80 9.136497
761.90 9.406692
762.00 9.615198
762.10 9.652007
762.20 9.514137
762.30 9.351098
762.40 9.294095
762.50 9.34786
762.60 9.343739
762.70 9.095108
762.80 8.552025
762.90 7.874809
763.00 7.323521
763.10 7.00149
763.20 6.933273
763.30 7.08213
763.40 7.297541
763.50 7.406786
763.60 7.369547
763.70 7.313968
763.80 7.339704
763.90 7.436909
764.00 7.469295
764.10 7.342167
764.20 7.248811
764.30 7.36322
764.40 7.519248
764.50 7.525142
764.60 7.381992
764.70 7.292978
764.80 7.421672
764.90 7.566258
765.00 7.526799
765.10 7.380289
765.20 7.280109
765.30 7.336867
765.40 7.406858
765.50 7.292406
765.60 7.14149
765.70 7.166775
765.80 7.33936
765.90 7.468895
766.00 7.299728
766.10 6.860175
766.20 6.356365
766.30 5.796781
766.40 5.127576
766.50 4.323267
766.60 3.550358
766.70 3.175153
766.80 3.333099
766.90 3.896829
767.00 4.577763
767.10 5.071434
767.20 5.262672
767.30 5.215476
767.40 5.153618
767.50 5.208263
767.60 5.354368
767.70 5.50268
767.80 5.617048
767.90 5.747809
768.00 5.861988
768.10 5.93224
768.20 5.999577
768.30 6.04683
768.40 6.065392
768.50 6.087641
768.60 6.121742
768.70 6.167274
768.80 6.227488
768.90 6.277345
769.00 6.286092
769.10 6.279878
769.20 6.281155
769.30 6.282986
769.40 6.278322
769.50 6.215493
769.60 6.017509
769.70 5.636245
769.80 5.068933
769.90 4.400125
770.00 3.824415
770.10 3.578723
770.20 3.805496
770.30 4.410707
770.40 5.065583
770.50 5.516959
770.60 5.711377
770.70 5.7227
770.80 5.704938
770.90 5.757016
771.00 5.894224
771.10 6.081294
771.20 6.257755
771.30 6.398798
771.40 6.498564
771.50 6.462352
771.60 6.338902
771.70 6.348884
771.80 6.495279
771.90 6.633584
772.00 6.624845
772.10 6.512069
772.20 6.515648
772.30 6.616229
772.40 6.691561
772.50 6.765985
772.60 6.880232
772.70 7.008081
772.80 7.094033
772.90 7.129555
773.00 7.151248
773.10 7.190765
773.20 7.233881
773.30 7.263075
773.40 7.315192
773.50 7.38931
773.60 7.440218
773.70 7.473772
773.80 7.498954
773.90 7.531791
774.00 7.58126
774.10 7.62314
774.20 7.612015
774.30 7.503679
774.40 7.310457
774.50 7.0923
774.60 6.89173
774.70 6.734943
774.80 6.624877
774.90 6.539519
775.00 6.462267
775.10 6.326791
775.20 6.152207
775.30 6.063981
775.40 6.062719
775.50 6.124323
775.60 6.242612
775.70 6.334408
775.80 6.360581
775.90 6.358105
776.00 6.397991
776.10 6.499798
776.20 6.58163
776.30 6.565556
776.40 6.478205
776.50 6.406207
776.60 6.39154
776.70 6.448843
776.80 6.571832
776.90 6.721193
777.00 6.843042
777.10 6.905342
777.20 6.917279
777.30 6.934206
777.40 7.005083
777.50 7.071513
777.60 7.086585
777.70 7.079587
777.80 7.072347
777.90 7.076491
778.00 7.101321
778.10 7.098477
778.20 6.994518
778.30 6.826356
778.40 6.656657
778.50 6.523658
778.60 6.462396
778.70 6.452208
778.80 6.474631
778.90 6.524941
779.00 6.586677
779.10 6.649875
779.20 6.735523
779.30 6.883197
779.40 7.068058
779.50 7.215516
779.60 7.269276
779.70 7.143153
779.80 6.93006
779.90 6.821611
780.00 6.769347
780.10 6.719073
780.20 6.703514
780.30 6.792701
780.40 7.036464
780.50 7.316998
780.60 7.537208
780.70 7.721213
780.80 7.877399
780.90 7.965851
781.00 7.934895
781.10 7.798325
781.20 7.65556
781.30 7.619831
781.40 7.705398
781.50 7.862025
781.60 8.014555
781.70 8.084445
781.80 8.069769
781.90 8.027763
782.00 8.030713
782.10 8.045889
782.20 7.927762
782.30 7.652325
782.40 7.445138
782.50 7.420525
782.60 7.457633
782.70 7.48746
782.80 7.426493
782.90 7.217625
783.00 6.968466
783.10 6.792486
783.20 6.718074
783.30 6.767795
783.40 6.903876
783.50 7.031846
783.60 7.109703
783.70 7.146115
783.80 7.178537
783.90 7.248315
784.00 7.341271
784.10 7.397983
784.20 7.415841
784.30 7.427372
784.40 7.421741
784.50 7.409911
784.60 7.453856
784.70 7.573192
784.80 7.696775
784.90 7.732124
785.00 7.690476
785.10 7.663501
785.20 7.751619
785.30 7.946348
785.40 8.077781
785.50 8.008441
785.60 7.826353
785.70 7.712851
785.80 7.732012
785.90 7.854411
786.00 7.974821
786.10 7.989724
786.20 7.894811
786.30 7.752357
786.40 7.597238
786.50 7.51078
786.60 7.529239
786.70 7.621515
786.80 7.796648
786.90 7.957587
787.00 8.024381
787.10 7.956922
787.20 7.797161
787.30 7.729175
787.40 7.749438
787.50 7.775842
787.60 7.845306
787.70 7.994513
787.80 8.175691
787.90 8.289657
788.00 8.312944
788.10 8.310116
788.20 8.363308
788.30 8.431936
788.40 8.437111
788.50 8.409492
788.60 8.38929
788.70 8.388726
788.80 8.433004
788.90 8.529723
789.00 8.633532
789.10 8.704389
789.20 8.727094
789.30 8.678065
789.40 8.634158
789.50 8.659645
789.60 8.677819
789.70 8.667537
789.80 8.639143
789.90 8.572237
790.00 8.473513
790.10 8.367118
790.20 8.295736
790.30 8.303911
790.40 8.385616
790.50 8.496355
790.60 8.613428
790.70 8.632291
790.80 8.459655
790.90 8.185529
791.00 7.920514
791.10 7.76777
791.20 7.801971
791.30 7.983099
791.40 8.172784
791.50 8.253561
791.60 8.222427
791.70 8.111936
791.80 8.070186
791.90 8.117929
792.00 8.17724
792.10 8.255248
792.20 8.300893
792.30 8.330047
792.40 8.318193
792.50 8.261128
792.60 8.266913
792.70 8.301714
792.80 8.339667
792.90 8.397962
793.00 8.48458
793.10 8.619998
793.20 8.761409
793.30 8.885692
793.40 8.978726
793.50 8.983044
793.60 8.925128
793.70 8.891061
793.80 8.888329
793.90 8.889837
794.00 8.862648
794.10 8.778616
794.20 8.667183
794.30 8.595561
794.40 8.638514
794.50 8.751712
794.60 8.787727
794.70 8.656895
794.80 8.407272
794.90 8.250351
795.00 8.273295
795.10 8.401339
795.20 8.619533
795.30 8.846893
795.40 9.002878
795.50 9.112245
795.60 9.1795
795.70 9.212348
795.80 9.226721
795.90 9.20671
796.00 9.158239
796.10 9.076461
796.20 8.964399
796.30 8.928521
796.40 9.118204
796.50 9.452818
796.60 9.645881
796.70 9.597962
796.80 9.39334
796.90 9.248997
797.00 9.317095
797.10 9.439854
797.20 9.515501
797.30 9.537427
797.40 9.505075
797.50 9.499693
797.60 9.522121
797.70 9.54597
797.80 9.574462
797.90 9.565863
798.00 9.526828
798.10 9.489054
798.20 9.419539
798.30 9.337909
798.40 9.308989
798.50 9.333958
798.60 9.355285
798.70 9.32799
798.80 9.264949
798.90 9.193808
799.00 9.148397
799.10 9.210544
799.20 9.421118
799.30 9.728669
799.40 9.995047
799.50 9.966778
799.60 9.677784
799.70 9.440414
799.80 9.332898
799.90 9.301983
800.00 9.357802
800.10 9.443491
800.20 9.513597
800.30 9.600882
800.40 9.685388
800.50 9.727754
800.60 9.729499
800.70 9.719438
800.80 9.745808
800.90 9.810374
801.00 9.883038
801.10 9.921045
801.20 9.937374
801.30 10.00965
801.40 10.1359
801.50 10.21959
801.60 10.20586
801.70 10.13846
801.80 10.08693
801.90 10.1117
802.00 10.18988
802.10 10.21725
802.20 10.15144
802.30 10.07002
802.40 10.03691
802.50 10.0833
802.60 10.23186
802.70 10.34188
802.80 10.32358
802.90 10.28674
803.00 10.30191
803.10 10.37776
803.20 10.49399
803.30 10.58029
803.40 10.60216
803.50 10.60935
803.60 10.61032
803.70 10.57731
803.80 10.55074
803.90 10.54883
804.00 10.53899
804.10 10.51978
804.20 10.51081
804.30 10.54361
804.40 10.65286
804.50 10.77457
804.60 10.81098
804.70 10.75587
804.80 10.64666
804.90 10.565
805.00 10.60304
805.10 10.77483
805.20 11.01823
805.30 11.23183
805.40 11.34758
805.50 11.35979
805.60 11.31548
805.70 11.28157
805.80 11.262
805.90 11.22133
806.00 11.22078
806.10 11.34437
806.20 11.50037
806.30 11.56421
806.40 11.53831
806.50 11.44387
806.60 11.31394
806.70 11.23416
806.80 11.23832
806.90 11.23161
807.00 11.16717
807.10 11.11806
807.20 11.1325
807.30 11.22788
807.40 11.37643
807.50 11.48646
807.60 11.53096
807.70 11.55412
807.80 11.58687
807.90 11.63349
808.00 11.66502
808.10 11.67414
808.20 11.68088
808.30 11.69771
808.40 11.75947
808.50 11.84487
808.60 11.87809
808.70 11.8493
808.80 11.80453
808.90 11.79947
809.00 11.84753
809.10 11.90114
809.20 11.92868
809.30 11.9518
809.40 11.9698
809.50 11.9617
809.60 11.94853
809.70 11.92769
809.80 11.89512
809.90 11.90043
810.00 11.92524
810.10 11.91888
810.20 11.90278
810.30 11.87799
810.40 11.85878
810.50 11.86936
810.60 11.87118
810.70 11.85762
810.80 11.89273
810.90 12.00038
811.00 12.11411
811.10 12.16041
811.20 12.13959
811.30 12.12374
811.40 12.15454
811.50 12.17995
811.60 12.11838
811.70 11.94342
811.80 11.74377
811.90 11.66956
812.00 11.78
812.10 12.00512
812.20 12.23834
812.30 12.3617
812.40 12.3491
812.50 12.31403
812.60 12.32404
812.70 12.38685
812.80 12.46613
812.90 12.49978
813.00 12.51077
813.10 12.51834
813.20 12.49809
813.30 12.46801
813.40 12.43935
813.50 12.3994
813.60 12.38859
813.70 12.44934
813.80 12.55333
813.90 12.66728
814.00 12.74758
814.10 12.74553
814.20 12.65365
814.30 12.50739
814.40 12.36579
814.50 12.27725
814.60 12.28186
814.70 12.36378
814.80 12.41967
814.90 12.37954
815.00 12.28187
815.10 12.22637
815.20 12.27706
815.30 12.39961
815.40 12.4913
815.50 12.48763
815.60 12.42448
815.70 12.37299
815.80 12.35666
815.90 12.34611
816.00 12.30223
816.10 12.25319
816.20 12.21607
816.30 12.15083
816.40 12.12377
816.50 12.18981
816.60 12.29592
816.70 12.45457
816.80 12.61309
816.90 12.66112
817.00 12.61798
817.10 12.53073
817.20 12.45388
817.30 12.44214
817.40 12.4598
817.50 12.46293
817.60 12.4396
817.70 12.34147
817.80 12.15166
817.90 11.96184
818.00 11.81299
818.10 11.52139
818.20 10.88231
818.30 9.853912
818.40 8.666998
818.50 7.896471
818.60 7.941571
818.70 8.717236
818.80 9.800316
818.90 10.66406
819.00 11.0895
819.10 11.17408
819.20 11.01262
819.30 10.53768
819.40 9.632817
819.50 8.433894
819.60 7.423762
819.70 7.056017
819.80 7.445532
819.90 8.350823
820.00 9.311274
820.10 10.05588
820.20 10.61562
820.30 11.07386
820.40 11.42359
820.50 11.58679
820.60 11.5398
820.70 11.38995
820.80 11.29447
820.90 11.31175
821.00 11.42662
821.10 11.59144
821.20 11.74089
821.30 11.82796
821.40 11.83074
821.50 11.79795
821.60 11.80026
821.70 11.81869
821.80 11.82066
821.90 11.82619
822.00 11.82829
822.10 11.82718
822.20 11.85445
822.30 11.89932
822.40 11.95139
822.50 12.04293
822.60 12.1553
822.70 12.22029
822.80 12.23113
822.90 12.22338
823.00 12.24833
823.10 12.3461
823.20 12.44017
823.30 12.42252
823.40 12.29695
823.50 12.15498
823.60 12.10887
823.70 12.21234
823.80 12.37011
823.90 12.47687
824.00 12.59587
824.10 12.74744
824.20 12.81379
824.30 12.74951
824.40 12.60273
824.50 12.4797
824.60 12.49668
824.70 12.65568
824.80 12.89866
824.90 13.1288
825.00 13.22472
825.10 13.1641
825.20 12.99124
825.30 12.76471
825.40 12.56701
825.50 12.40988
825.60 12.24512
825.70 12.06227
825.80 11.92351
825.90 11.91837
826.00 12.05681
826.10 12.31506
826.20 12.60803
826.30 12.77011
826.40 12.80909
826.50 12.83586
826.60 12.86972
826.70 12.9477
826.80 13.04608
826.90 13.04322
827.00 12.92893
827.10 12.75883
827.20 12.53019
827.30 12.25734
827.40 11.99873
827.50 11.82599
827.60 11.79486
827.70 11.87515
827.80 12.02593
827.90 12.20502
828.00 12.29697
828.10 12.29581
828.20 12.24371
828.30 12.11933
828.40 12.02296
828.50 12.02592
828.60 12.04681
828.70 12.0873
828.80 12.17482
828.90 12.15833
829.00 11.93368
829.10 11.65991
829.20 11.49199
829.30 11.43376
829.40 11.44403
829.50 11.50958
829.60 11.63759
829.70 11.77121
829.80 11.87732
829.90 12.01267
830.00 11.99131
830.10 11.80196
830.20 11.61261
830.30 11.4472
830.40 11.28178
830.50 11.24768
830.60 11.21358
830.70 11.22662
830.80 11.23967
830.90 11.44923
831.00 11.65879
831.10 11.73697
831.20 11.81514
831.30 11.75838
831.40 11.70162
831.50 11.71484
831.60 11.72806
831.70 11.78948
831.80 11.85089
831.90 11.85612
832.00 11.86135
832.10 11.90269
832.20 11.94403
832.30 11.96681
832.40 11.98959
832.50 11.97185
832.60 11.95412
832.70 11.69764
832.80 11.44116
832.90 11.32442
833.00 11.20769
833.10 11.45305
833.20 11.69842
833.30 11.83024
833.40 11.96206
833.50 11.75824
833.60 11.55442
833.70 11.52455
833.80 11.49468
833.90 11.61826
834.00 11.74183
834.10 11.85353
834.20 11.96523
834.30 12.11747
834.40 12.26972
834.50 12.31714
834.60 12.36455
834.70 12.0518
834.80 11.73906
834.90 11.53496
835.00 11.33087
835.10 11.51663
835.20 11.70239
835.30 11.75424
835.40 11.80609
835.50 11.77276
835.60 11.73942
835.70 11.74308
835.80 11.74674
835.90 11.82689
836.00 11.90704
836.10 11.91418
836.20 11.92133
836.30 11.79146
836.40 11.66159
836.50 11.54424
836.60 11.42688
836.70 11.52168
836.80 11.61648
836.90 11.82164
837.00 12.02681
837.10 12.11615
837.20 12.20549
837.30 12.0727
837.40 11.93992
837.50 11.71184
837.60 11.48376
837.70 11.31349
837.80 11.14322
837.90 11.17382
838.00 11.20443
838.10 11.26422
838.20 11.324
838.30 11.26
838.40 11.19599
838.50 11.05058
838.60 10.90516
838.70 10.76397
838.80 10.62278
838.90 10.54351
839.00 10.46424
839.10 10.68776
839.20 10.91127
839.30 11.1651
839.40 11.41893
839.50 11.40931
839.60 11.3997
839.70 11.444
839.80 11.48829
839.90 11.62038
840.00 11.75248
840.10 11.64937
840.20 11.72052
840.30 11.8099
840.40 11.86684
840.50 11.89869
840.60 11.93397
840.70 11.9831
840.80 12.03574
840.90 12.07656
841.00 12.11161
841.10 12.02144
841.20 11.82906
841.30 11.66601
841.40 11.60543
841.50 11.57489
841.60 11.78503
841.70 11.99392
841.80 12.07802
841.90 12.06374
842.00 11.99105
842.10 11.80916
842.20 11.64285
842.30 11.57441
842.40 11.53456
842.50 11.43153
842.60 11.27505
842.70 11.14238
842.80 11.12306
842.90 11.10814
843.00 11.21405
843.10 11.31361
843.20 11.22773
843.30 10.99705
843.40 10.61933
843.50 10.00841
843.60 9.403423
843.70 9.151347
843.80 9.013914
843.90 9.29132
844.00 9.740146
844.10 10.08686
844.20 10.22111
844.30 10.29673
844.40 10.10844
844.50 9.939658
844.60 9.825988
844.70 9.760771
844.80 9.787435
844.90 9.918606
845.00 10.04678
845.10 9.891151
845.20 9.687843
845.30 9.437125
845.40 9.17998
845.50 8.97523
845.60 8.861909
845.70 8.788334
845.80 8.794226
845.90 8.806236
846.00 8.887723
846.10 8.989868
846.20 9.051764
846.30 9.044871
846.40 9.025887
846.50 8.985293
846.60 8.946319
846.70 8.819758
846.80 8.671998
846.90 8.581968
847.00 8.56037
847.10 8.56548
847.20 8.67392
847.30 8.779297
847.40 8.796548
847.50 8.785043
847.60 8.800667
847.70 8.848021
847.80 8.910276
847.90 9.006244
848.00 9.090152
848.10 9.120975
848.20 9.12958
848.30 9.175453
848.40 9.264714
848.50 9.359206
848.60 9.43019
848.70 9.501932
848.80 9.541629
848.90 9.579969
849.00 9.642244
849.10 9.717384
849.20 9.788907
849.30 9.840707
849.40 9.877485
849.50 9.85335
849.60 9.810788
849.70 9.84897
849.80 9.960626
849.90 10.06006
850.00 10.09389
850.10 10.13037
850.20 9.992619
850.30 9.846717
850.40 9.670811
850.50 9.450223
850.60 9.23321
850.70 9.084403
850.80 8.946574
850.90 8.934059
851.00 8.967633
851.10 9.054831
851.20 9.155211
851.30 9.196514
851.40 9.133381
851.50 9.057571
851.60 8.92079
851.70 8.778336
851.80 8.710943
851.90 8.681641
852.00 8.678066
852.10 8.724006
852.20 8.784003
852.30 8.866988
852.40 8.972425
852.50 9.087307
852.60 9.19196
852.70 9.294822
852.80 9.390536
852.90 9.468916
853.00 9.421542
853.10 9.378243
853.20 9.41475
853.30 9.475922
853.40 9.523807
853.50 9.559308
853.60 9.607692
853.70 9.702715
853.80 9.788587
853.90 9.770613
854.00 9.727441
854.10 9.80245
854.20 10.01414
854.30 10.19779
854.40 10.25085
854.50 10.28715
854.60 10.20599
854.70 10.1072
854.80 10.065
854.90 10.07352
855.00 10.08951
855.10 10.14497
855.20 10.19999
855.30 10.27688
855.40 10.35273
855.50 10.37028
855.60 10.34866
855.70 10.33299
855.80 10.30388
855.90 10.24471
856.00 10.09302
856.10 9.941696
856.20 9.843555
856.30 9.793115
856.40 9.807476
856.50 9.954862
856.60 10.10945
856.70 10.31451
856.80 10.49785
856.90 10.48858
857.00 10.3557
857.10 10.25512
857.20 10.25616
857.30 10.26153
857.40 10.23108
857.50 10.21137
857.60 10.26078
857.70 10.35134
857.80 10.43443
857.90 10.47766
858.00 10.51294
858.10 10.49587
858.20 10.47204
858.30 10.41541
858.40 10.34637
858.50 10.34501
858.60 10.44961
858.70 10.54877
858.80 10.58266
858.90 10.61727
859.00 10.60133
859.10 10.56116
859.20 10.51399
859.30 10.45923
859.40 10.41231
859.50 10.46282
859.60 10.53143
859.70 10.62168
859.80 10.71656
859.90 10.76404
860.00 10.75234
860.10 10.74165
860.20 10.77189
860.30 10.80182
860.40 10.84657
860.50 10.90439
860.60 10.98163
860.70 11.06574
860.80 11.12488
860.90 11.08394
861.00 11.02909
861.10 10.94276
861.20 10.8488
861.30 10.76028
861.40 10.6823
861.50 10.62855
861.60 10.63023
861.70 10.62583
861.80 10.62045
861.90 10.6388
862.00 10.70383
862.10 10.78963
862.20 10.85231
862.30 10.83891
862.40 10.81172
862.50 10.80031
862.60 10.79122
862.70 10.80073
862.80 10.80989
862.90 10.80291
863.00 10.77092
863.10 10.74467
863.20 10.70706
863.30 10.68721
863.40 10.76771
863.50 10.88428
863.60 10.97312
863.70 11.02111
863.80 11.0598
863.90 11.04803
864.00 11.0249
864.10 11.03307
864.20 11.07022
864.30 11.10828
864.40 11.12208
864.50 11.11993
864.60 11.09932
864.70 11.06809
864.80 11.02564
864.90 10.98173
865.00 10.96651
865.10 10.99224
865.20 11.03755
865.30 11.12266
865.40 11.21297
865.50 11.22299
865.60 11.20523
865.70 11.19957
865.80 11.20649
865.90 11.19954
866.00 11.14061
866.10 11.07266
866.20 11.06409
866.30 11.08353
866.40 11.15309
866.50 11.26536
866.60 11.36973
866.70 11.41366
866.80 11.44406
866.90 11.4357
867.00 11.41733
867.10 11.40621
867.20 11.41478
867.30 11.42882
867.40 11.40315
867.50 11.37156
867.60 11.27088
867.70 11.18216
867.80 11.23932
867.90 11.3782
868.00 11.48415
868.10 11.50876
868.20 11.52352
868.30 11.44314
868.40 11.37057
868.50 11.34557
868.60 11.33833
868.70 11.30173
868.80 11.19846
868.90 11.06731
869.00 10.86346
869.10 10.67025
869.20 10.5745
869.30 10.51193
869.40 10.45853
869.50 10.43309
869.60 10.41534
869.70 10.41908
869.80 10.44915
869.90 10.52994
870.00 10.62597
870.10 10.73374
870.20 10.85824
870.30 10.97891
870.40 11.06548
870.50 11.14866
870.60 11.20269
870.70 11.23938
870.80 11.19479
870.90 11.07581
871.00 10.95416
871.10 10.86766
871.20 10.78681
871.30 10.73225
871.40 10.69534
871.50 10.67306
871.60 10.64447
871.70 10.60141
871.80 10.56015
871.90 10.52841
872.00 10.65155
872.10 10.79753
872.20 10.89732
872.30 10.96808
872.40 11.03662
872.50 11.09101
872.60 11.1371
872.70 11.27201
872.80 11.44175
872.90 11.57789
873.00 11.6608
873.10 11.67159
873.20 11.58479
873.30 11.4813
873.40 11.34518
873.50 11.23071
873.60 11.18311
873.70 11.17398
873.80 11.19763
873.90 11.26306
874.00 11.32768
874.10 11.45529
874.20 11.60341
874.30 11.77698
874.40 11.96851
874.50 12.08948
874.60 12.08876
874.70 12.05621
874.80 11.9451
874.90 11.81214
875.00 11.76175
875.10 11.7757
875.20 11.86371
875.30 12.00023
875.40 12.12686
875.50 12.14541
875.60 12.13802
875.70 12.10426
875.80 12.08711
875.90 12.14747
876.00 12.27522
876.10 12.39165
876.20 12.41385
876.30 12.40139
876.40 12.38523
876.50 12.36303
876.60 12.19675
876.70 11.93112
876.80 11.76106
876.90 11.8648
877.00 12.01446
877.10 12.2163
877.20 12.41332
877.30 12.56689
877.40 12.68911
877.50 12.79624
877.60 12.88705
877.70 12.96057
877.80 12.91236
877.90 12.80739
878.00 12.6322
878.10 12.46413
878.20 12.39695
878.30 12.46255
878.40 12.55665
878.50 12.66253
878.60 12.75202
878.70 12.79593
878.80 12.82029
878.90 12.85341
879.00 12.89814
879.10 12.95003
879.20 12.97887
879.30 13.00392
879.40 13.03342
879.50 13.06861
879.60 13.12239
879.70 13.19308
879.80 13.27582
879.90 13.32125
880.00 13.31156
880.10 12.99702
880.20 12.59963
880.30 12.26646
880.40 12.03111
880.50 11.87785
880.60 11.85983
880.70 11.85554
880.80 11.96063
880.90 12.08632
881.00 12.27959
881.10 12.54542
881.20 12.82442
881.30 13.08984
881.40 13.34276
881.50 13.49732
881.60 13.62831
881.70 13.69121
881.80 13.72906
881.90 13.7562
882.00 13.73224
882.10 13.67314
882.20 13.39913
882.30 13.09794
882.40 12.74102
882.50 12.3882
882.60 12.16118
882.70 12.12553
882.80 12.13645
882.90 12.4412
883.00 12.75515
883.10 13.05797
883.20 13.35014
883.30 13.5715
883.40 13.686
883.50 13.77175
883.60 13.80327
883.70 13.8435
883.80 13.79427
883.90 13.72238
884.00 13.67829
884.10 13.67333
884.20 13.69559
884.30 13.79399
884.40 13.84598
884.50 13.7062
884.60 13.52289
884.70 13.34534
884.80 13.18979
884.90 13.07977
885.00 13.07399
885.10 13.1105
885.20 13.3348
885.30 13.61202
885.40 13.87534
885.50 14.06833
885.60 14.14929
885.70 14.03808
885.80 13.86586
885.90 13.47431
886.00 13.05419
886.10 12.55823
886.20 12.04812
886.30 11.66797
886.40 11.51747
886.50 11.45019
886.60 11.67104
886.70 11.88056
886.80 11.94445
886.90 11.89253
887.00 11.71159
887.10 11.38555
887.20 11.0429
887.30 10.76367
887.40 10.56578
887.50 10.59582
887.60 10.72489
887.70 10.91747
887.80 11.16459
887.90 11.41379
888.00 11.64239
888.10 11.83728
888.20 11.88215
888.30 11.85259
888.40 11.77366
888.50 11.68543
888.60 11.61242
888.70 11.5823
888.80 11.59448
888.90 11.69781
889.00 11.81364
889.10 11.93672
889.20 12.06165
889.30 12.13823
889.40 12.08953
889.50 12.02333
889.60 11.93068
889.70 11.82806
889.80 11.73789
889.90 11.68495
890.00 11.71129
890.10 11.84145
890.20 12.00405
890.30 12.28899
890.40 12.54767
890.50 12.68288
890.60 12.73465
890.70 12.76436
890.80 12.77645
890.90 12.7756
891.00 12.69055
891.10 12.6022
891.20 12.52047
891.30 12.46776
891.40 12.49944
891.50 12.60957
891.60 12.72676
891.70 12.79478
891.80 12.83993
891.90 12.81716
892.00 12.77738
892.10 12.76653
892.20 12.78127
892.30 12.77506
892.40 12.71175
892.50 12.64286
892.60 12.63038
892.70 12.63455
892.80 12.64761
892.90 12.67302
893.00 12.72577
893.10 12.81879
893.20 12.93548
893.30 13.09633
893.40 13.24546
893.50 13.34122
893.60 13.36053
893.70 13.26233
893.80 12.97634
893.90 12.65547
894.00 12.38322
894.10 12.18352
894.20 12.09783
894.30 12.07252
894.40 12.0853
894.50 12.15841
894.60 12.22631
894.70 12.2634
894.80 12.32004
894.90 12.37765
895.00 12.41069
895.10 12.42722
895.20 12.443
895.30 12.44121
895.40 12.39955
895.50 12.38874
895.60 12.46302
895.70 12.55682
895.80 12.65339
895.90 12.74936
896.00 12.81716
896.10 12.82086
896.20 12.81843
896.30 12.76083
896.40 12.69601
896.50 12.6382
896.60 12.56429
896.70 12.49377
896.80 12.5115
896.90 12.56154
897.00 12.65198
897.10 12.75835
897.20 12.82347
897.30 12.84283
897.40 12.85533
897.50 12.88991
897.60 12.9385
897.70 13.06066
897.80 13.18209
897.90 13.21916
898.00 13.19335
898.10 13.1408
898.20 13.09879
898.30 13.08073
898.40 13.18257
898.50 13.34092
898.60 13.52922
898.70 13.69971
898.80 13.75924
898.90 13.66122
899.00 13.53114
899.10 13.40989
899.20 13.30593
899.30 13.33961
899.40 13.42168
899.50 13.46977
899.60 13.46851
899.70 13.45768
899.80 13.38965
899.90 13.30951
900.00 13.13714
900.10 12.97572
900.20 12.97169
900.30 13.09222
900.40 13.28525
900.50 13.62621
900.60 13.95191
900.70 14.05966
900.80 14.08481
900.90 13.92363
901.00 13.64982
901.10 13.41947
901.20 13.33692
901.30 13.30311
901.40 13.39285
901.50 13.46575
901.60 13.47363
901.70 13.42152
901.80 13.30528
901.90 13.1254
902.00 12.97099
902.10 12.93924
902.20 12.8937
902.30 12.88013
902.40 12.88311
902.50 12.84723
902.60 12.76057
902.70 12.68426
902.80 12.60861
902.90 12.53837
903.00 12.64585
903.10 12.80986
903.20 13.00366
903.30 13.22954
903.40 13.44009
903.50 13.57689
903.60 13.70753
903.70 13.7519
903.80 13.78241
903.90 13.86492
904.00 13.97466
904.10 14.05641
904.20 14.08009
904.30 14.07635
904.40 13.976
904.50 13.89716
904.60 13.86851
904.70 13.87149
904.80 13.93647
904.90 14.10226
905.00 14.25191
905.10 14.19203
905.20 14.07855
905.30 13.94346
905.40 13.81822
905.50 13.71546
905.60 13.63683
905.70 13.57062
905.80 13.63506
905.90 13.70705
906.00 13.73208
906.10 13.7496
906.20 13.77252
906.30 13.7813
906.40 13.79631
906.50 13.80107
906.60 13.78063
906.70 13.7379
906.80 13.69203
906.90 13.65182
907.00 13.62953
907.10 13.61663
907.20 13.60274
907.30 13.61454
907.40 13.65104
907.50 13.67448
907.60 13.73708
907.70 13.83889
907.80 13.95617
907.90 14.11926
908.00 14.30323
908.10 14.41668
908.20 14.48453
908.30 14.43157
908.40 14.32777
908.50 14.24033
908.60 14.17571
908.70 14.1128
908.80 13.92001
908.90 13.71301
909.00 13.57362
909.10 13.4951
909.20 13.53336
909.30 13.71322
909.40 13.90521
909.50 14.15175
909.60 14.3852
909.70 14.47629
909.80 14.52679
909.90 14.54412
910.00 14.52018
910.10 14.51318
910.20 14.59184
910.30 14.65
910.40 14.59575
910.50 14.50155
910.60 14.37322
910.70 14.23522
910.80 14.12746
910.90 14.0793
911.00 14.06578
911.10 14.23393
911.20 14.41396
911.30 14.59866
911.40 14.77238
911.50 14.87522
911.60 14.81534
911.70 14.72862
911.80 14.60232
911.90 14.49918
912.00 14.45203
912.10 14.43829
912.20 14.48702
912.30 14.6305
912.40 14.75417
912.50 14.74485
912.60 14.72827
912.70 14.68215
912.80 14.62835
912.90 14.62304
913.00 14.68049
913.10 14.7378
913.20 14.78636
913.30 14.84804
913.40 14.90215
913.50 14.94201
913.60 14.95616
913.70 14.93828
913.80 14.84977
913.90 14.57729
914.00 14.29075
914.10 14.19574
914.20 14.18838
914.30 14.24116
914.40 14.33248
914.50 14.46253
914.60 14.64228
914.70 14.79352
914.80 14.77586
914.90 14.71483
915.00 14.65708
915.10 14.62447
915.20 14.62408
915.30 14.6707
915.40 14.75875
915.50 14.8128
915.60 14.86865
915.70 15.04003
915.80 15.22864
915.90 15.29757
916.00 15.22836
916.10 15.13352
916.20 15.03378
916.30 14.92857
916.40 14.85693
916.50 14.83049
916.60 14.88996
916.70 15.01461
916.80 15.13233
916.90 15.17331
917.00 15.18369
917.10 15.15717
917.20 15.12425
917.30 15.08059
917.40 15.03619
917.50 14.98577
917.60 14.92405
917.70 14.8657
917.80 14.90384
917.90 14.95293
918.00 15.00338
918.10 15.0649
918.20 15.14353
918.30 15.23616
918.40 15.31353
918.50 15.16791
918.60 15.01548
918.70 14.96819
918.80 14.99701
918.90 15.10083
919.00 15.27821
919.10 15.46725
919.20 15.59467
919.30 15.6413
919.40 15.54057
919.50 15.40103
919.60 15.29183
919.70 15.22762
919.80 15.23407
919.90 15.3733
920.00 15.49155
920.10 15.51543
920.20 15.50761
920.30 15.49898
920.40 15.49091
920.50 15.48166
920.60 15.43077
920.70 15.35669
920.80 15.17401
920.90 14.94529
921.00 14.69403
921.10 14.47877
921.20 14.41291
921.30 14.59824
921.40 14.80138
921.50 14.97736
921.60 15.13423
921.70 15.1569
921.80 15.10459
921.90 15.04517
922.00 14.99949
922.10 14.93624
922.20 14.91799
922.30 14.90067
922.40 14.83671
922.50 14.77283
922.60 14.7408
922.70 14.72851
922.80 14.72313
922.90 14.70468
923.00 14.66017
923.10 14.48371
923.20 14.27546
923.30 14.08255
923.40 13.9311
923.50 13.86076
923.60 13.95349
923.70 14.03776
923.80 14.1334
923.90 14.22874
924.00 14.28057
924.10 14.32334
924.20 14.41353
924.30 14.55237
924.40 14.68653
924.50 14.70258
924.60 14.65709
924.70 14.56568
924.80 14.47314
924.90 14.36766
925.00 14.239
925.10 14.13711
925.20 14.06027
925.30 13.99235
925.40 14.03175
925.50 14.13092
925.60 14.26043
925.70 14.39049
925.80 14.52123
925.90 14.64407
926.00 14.71159
926.10 14.68359
926.20 14.63798
926.30 14.59542
926.40 14.57695
926.50 14.60438
926.60 14.72732
926.70 14.87081
926.80 14.97792
926.90 15.04905
927.00 15.01338
927.10 14.90019
927.20 14.78923
927.30 14.73593
927.40 14.68152
927.50 14.55231
927.60 14.42468
927.70 14.29579
927.80 14.15879
927.90 14.02677
928.00 13.9232
928.10 13.8506
928.20 13.95197
928.30 14.07532
928.40 14.17453
928.50 14.24573
928.60 14.29515
928.70 14.32275
928.80 14.3028
928.90 14.15385
929.00 14.02883
929.10 13.88989
929.20 13.74571
929.30 13.69405
929.40 13.7415
929.50 13.79116
929.60 13.79959
929.70 13.80449
929.80 13.81606
929.90 13.80163
930.00 13.78419
930.10 13.78539
930.20 13.76552
930.30 13.65715
930.40 13.56053
930.50 13.60553
930.60 13.64998
930.70 13.74588
930.80 13.8888
930.90 13.93498
931.00 13.93142
931.10 13.93343
931.20 14.03934
931.30 14.13121
931.40 14.21439
931.50 14.26396
931.60 14.29249
931.70 14.25723
931.80 14.12453
931.90 13.97876
932.00 13.89284
932.10 13.83778
932.20 13.80762
932.30 13.92234
932.40 14.03792
932.50 14.06972
932.60 13.96274
932.70 13.84473
932.80 13.78993
932.90 13.77262
933.00 13.76177
933.10 13.87033
933.20 13.97829
933.30 14.03895
933.40 13.95095
933.50 13.86623
933.60 13.80581
933.70 13.77541
933.80 13.75432
933.90 13.83542
934.00 13.94015
934.10 14.04207
934.20 14.19684
934.30 14.33956
934.40 14.35093
934.50 14.11458
934.60 13.88577
934.70 13.77497
934.80 13.73687
934.90 13.69046
935.00 13.81698
935.10 13.95466
935.20 14.06023
935.30 14.0273
935.40 14.00489
935.50 13.95475
935.60 13.87316
935.70 13.79524
935.80 13.7356
935.90 13.69615
936.00 13.66604
936.10 13.73167
936.20 13.80035
936.30 13.88598
936.40 14.00479
936.50 14.08943
936.60 14.0918
936.70 14.04288
936.80 13.98613
936.90 13.81519
937.00 13.62757
937.10 13.43658
937.20 13.23328
937.30 13.06484
937.40 13.07189
937.50 13.27385
937.60 13.48977
937.70 13.6931
937.80 13.88751
937.90 14.06841
938.00 14.00791
938.10 13.92797
938.20 13.86985
938.30 13.88215
938.40 13.9131
938.50 13.97789
938.60 14.05579
938.70 14.13253
938.80 14.06808
938.90 13.98733
939.00 13.92501
939.10 13.96024
939.20 14.0008
939.30 14.05412
939.40 14.11989
939.50 14.17433
939.60 14.13807
939.70 14.05938
939.80 13.97232
939.90 13.89858
940.00 13.85429
940.10 13.82363
940.20 13.79707
940.30 13.77263
940.40 13.83578
940.50 13.96811
940.60 14.10197
940.70 14.21912
940.80 14.33567
940.90 14.43677
941.00 14.43742
941.10 14.41711
941.20 14.37261
941.30 14.30323
941.40 14.21178
941.50 14.16053
941.60 14.12985
941.70 14.10745
941.80 14.02444
941.90 13.96179
942.00 13.94169
942.10 14.01591
942.20 14.08153
942.30 14.16725
942.40 14.26092
942.50 14.35165
942.60 14.41764
942.70 14.4747
942.80 14.50387
942.90 14.38224
943.00 14.27576
943.10 14.23302
943.20 14.2598
943.30 14.29246
943.40 14.43741
943.50 14.61655
943.60 14.78449
943.70 14.74657
943.80 14.69184
943.90 14.5962
944.00 14.41388
944.10 14.2408
944.20 14.07016
944.30 13.90848
944.40 13.75323
944.50 13.70876
944.60 13.69348
944.70 13.69153
944.80 13.71617
944.90 13.74138
945.00 13.80008
945.10 13.90711
945.20 14.02015
945.30 14.13766
945.40 14.2466
945.50 14.35163
945.60 14.32864
945.70 14.29984
945.80 14.26668
945.90 14.24019
946.00 14.22007
946.10 14.18672
946.20 14.14978
946.30 14.12155
946.40 14.16069
946.50 14.18523
946.60 14.21137
946.70 14.31356
946.80 14.43137
946.90 14.49429
947.00 14.485
947.10 14.47624
947.20 14.51324
947.30 14.56068
947.40 14.60473
947.50 14.61281
947.60 14.62684
947.70 14.65611
947.80 14.71607
947.90 14.78391
948.00 14.86033
948.10 14.94309
948.20 15.01545
948.30 14.91418
948.40 14.79212
948.50 14.70555
948.60 14.79772
948.70 14.87751
948.80 14.9184
948.90 14.92134
949.00 14.94076
949.10 14.9882
949.20 15.03366
949.30 15.06929
949.40 15.04422
949.50 15.00507
949.60 14.9355
949.70 14.81023
949.80 14.72141
949.90 14.75491
950.00 14.86635
950.10 14.97473
950.20 14.88139
950.30 14.75298
950.40 14.64556
950.50 14.69306
950.60 14.73845
950.70 14.78554
950.80 14.83283
950.90 14.89274
951.00 14.92682
951.10 14.94439
951.20 14.95904
951.30 14.99096
951.40 15.01068
951.50 14.99243
951.60 14.90365
951.70 14.83099
951.80 14.7741
951.90 14.73008
952.00 14.68985
952.10 14.7205
952.20 14.76889
952.30 14.81843
952.40 14.85206
952.50 14.89697
952.60 14.97882
952.70 15.09505
952.80 15.19051
952.90 15.1966
953.00 15.17272
953.10 15.15024
953.20 15.14827
953.30 15.13341
953.40 15.11642
953.50 15.10249
953.60 15.08759
953.70 15.04253
953.80 14.98986
953.90 14.94231
954.00 14.94266
954.10 14.94706
954.20 14.95429
954.30 14.9529
954.40 14.94981
954.50 14.89738
954.60 14.7955
954.70 14.67651
954.80 14.64708
954.90 14.65556
955.00 14.68884
955.10 14.86923
955.20 15.04513
955.30 15.17745
955.40 15.2345
955.50 15.28917
955.60 15.27189
955.70 15.21732
955.80 15.16415
955.90 15.22185
956.00 15.27921
956.10 15.33231
956.20 15.38303
956.30 15.40398
956.40 15.41103
956.50 15.42105
956.60 15.44983
956.70 15.34597
956.80 15.21106
956.90 15.0983
957.00 15.18346
957.10 15.25692
957.20 15.28023
957.30 15.21266
957.40 15.11778
957.50 15.01947
957.60 14.93044
957.70 14.84909
957.80 14.92224
957.90 15.01894
958.00 15.08905
958.10 15.03619
958.20 14.99184
958.30 14.97472
958.40 14.98021
958.50 14.96794
958.60 15.04639
958.70 15.13046
958.80 15.192
958.90 15.13337
959.00 15.0731
959.10 14.98993
959.20 14.87583
959.30 14.79775
959.40 14.75537
959.50 14.71258
959.60 14.65388
959.70 14.6041
959.80 14.53517
959.90 14.41597
960.00 14.16246
960.10 13.95407
960.20 13.96749
960.30 14.17089
960.40 14.41341
960.50 14.62996
960.60 14.81319
960.70 14.95869
960.80 14.96627
960.90 14.95563
961.00 14.96117
961.10 14.99791
961.20 15.0247
961.30 14.99382
961.40 14.94418
961.50 14.89899
961.60 14.91981
961.70 14.96178
961.80 15.03537
961.90 15.15414
962.00 15.26691
962.10 15.32177
962.20 15.32662
962.30 15.31556
962.40 15.31092
962.50 15.32112
962.60 15.33687
962.70 15.3146
962.80 15.27409
962.90 15.23714
963.00 15.2144
963.10 15.18821
963.20 15.20728
963.30 15.23317
963.40 15.25562
963.50 15.22853
963.60 15.1656
963.70 14.94973
963.80 14.46035
963.90 13.96707
964.00 13.66246
964.10 13.515
964.20 13.44595
964.30 13.8238
964.40 14.22405
964.50 14.52366
964.60 14.47344
964.70 14.35606
964.80 14.20173
964.90 14.02307
965.00 13.86363
965.10 13.99157
965.20 14.20344
965.30 14.41789
965.40 14.57594
965.50 14.73448
965.60 14.87936
965.70 15.00149
965.80 15.11779
965.90 15.19253
966.00 15.24444
966.10 15.3009
966.20 15.33991
966.30 15.36955
966.40 15.37019
966.50 15.29403
966.60 15.20256
966.70 15.16509
966.80 15.18467
966.90 15.2062
967.00 15.15856
967.10 15.08944
967.20 15.01497
967.30 14.91606
967.40 14.77967
967.50 14.56981
967.60 14.2702
967.70 13.98699
967.80 13.9444
967.90 14.04954
968.00 14.20772
968.10 14.58346
968.20 14.92769
968.30 15.16869
968.40 15.19974
968.50 15.18059
968.60 15.08813
968.70 14.93688
968.80 14.777
968.90 14.5578
969.00 14.36374
969.10 14.24373
969.20 14.43095
969.30 14.66098
969.40 14.89438
969.50 15.1148
969.60 15.30864
969.70 15.45488
969.80 15.57298
969.90 15.67286
970.00 15.62306
970.10 15.5682
970.20 15.47364
970.30 15.30194
970.40 15.09217
970.50 14.81865
970.60 14.51678
970.70 14.2202
970.80 14.18816
970.90 14.24369
971.00 14.39762
971.10 14.77895
971.20 15.15261
971.30 15.4268
971.40 15.5982
971.50 15.7411
971.60 15.73418
971.70 15.66779
971.80 15.58137
971.90 15.43561
972.00 15.28462
972.10 15.19543
972.20 15.21616
972.30 15.26372
972.40 15.30967
972.50 15.34572
972.60 15.3748
972.70 15.13454
972.80 14.84825
972.90 14.57588
973.00 14.40563
973.10 14.28551
973.20 14.29516
973.30 14.40863
973.40 14.55773
973.50 14.6856
973.60 14.79186
973.70 14.87321
973.80 14.86557
973.90 14.85576
974.00 14.88794
974.10 14.97473
974.20 15.03956
974.30 14.95297
974.40 14.80476
974.50 14.64846
974.60 14.60171
974.70 14.59415
974.80 14.62992
974.90 14.71728
975.00 14.80618
975.10 14.9271
975.20 15.07397
975.30 15.2151
975.40 15.2117
975.50 15.19226
975.60 15.17828
975.70 15.20151
975.80 15.21719
975.90 15.23552
976.00 15.24952
976.10 15.25743
976.20 15.22523
976.30 15.18886
976.40 15.16373
976.50 15.23445
976.60 15.31326
976.70 15.35351
976.80 15.32245
976.90 15.24603
977.00 15.06177
977.10 14.82232
977.20 14.58391
977.30 14.59773
977.40 14.67502
977.50 14.78827
977.60 14.93804
977.70 15.07365
977.80 15.1698
977.90 15.22564
978.00 15.25364
978.10 15.09467
978.20 14.87195
978.30 14.6096
978.40 14.22953
978.50 13.88354
978.60 13.62875
978.70 13.48008
978.80 13.3757
978.90 13.54052
979.00 13.82627
979.10 14.12976
979.20 14.42331
979.30 14.72017
979.40 14.9871
979.50 15.18231
979.60 15.32413
979.70 15.42668
979.80 15.5132
979.90 15.59359
980.00 15.58242
980.10 15.55765
980.20 15.53637
980.30 15.51937
980.40 15.49441
980.50 15.46887
980.60 15.44406
980.70 15.41843
980.80 15.37907
980.90 15.3448
981.00 15.32362
981.10 15.37542
981.20 15.4201
981.30 15.42538
981.40 15.36709
981.50 15.28399
981.60 15.21858
981.70 15.1804
981.80 15.16112
981.90 15.16937
982.00 15.18218
982.10 15.1924
982.20 15.2026
982.30 15.20592
982.40 15.22169
982.50 15.24857
982.60 15.28167
982.70 15.28866
982.80 15.28197
982.90 15.26494
983.00 15.2363
983.10 15.20018
983.20 15.16375
983.30 15.12771
983.40 15.10014
983.50 15.05406
983.60 14.99858
983.70 14.94067
983.80 14.94235
983.90 14.96471
984.00 15.01447
984.10 15.09713
984.20 15.17482
984.30 15.23373
984.40 15.27364
984.50 15.29998
984.60 15.28771
984.70 15.28884
984.80 15.2956
984.90 15.29598
985.00 15.27246
985.10 15.23729
985.20 15.19961
985.30 15.16244
985.40 15.18093
985.50 15.23238
985.60 15.30083
985.70 15.34369
985.80 15.36452
985.90 15.36814
986.00 15.36029
986.10 15.34831
986.20 15.33287
986.30 15.31845
986.40 15.3112
986.50 15.3128
986.60 15.30698
986.70 15.29383
986.80 15.2915
986.90 15.27117
987.00 15.24766
987.10 15.2303
987.20 15.23919
987.30 15.28666
987.40 15.3469
987.50 15.40667
987.60 15.45344
987.70 15.4712
987.80 15.43408
987.90 15.34016
988.00 15.23614
988.10 15.19773
988.20 15.20201
988.30 15.2306
988.40 15.32165
988.50 15.41935
988.60 15.51382
988.70 15.60075
988.80 15.65752
988.90 15.64765
989.00 15.5983
989.10 15.5423
989.20 15.47702
989.30 15.39885
989.40 15.27623
989.50 15.04509
989.60 14.75871
989.70 14.38005
989.80 13.94443
989.90 13.53337
990.00 13.29796
990.10 13.11727
990.20 12.95392
990.30 12.77976
990.40 12.56666
990.50 12.29926
990.60 11.97855
990.70 11.67917
990.80 11.50502
990.90 11.40849
991.00 11.34624
991.10 11.46844
991.20 11.58484
991.30 11.63525
991.40 11.55313
991.50 11.42875
991.60 11.32988
991.70 11.26687
991.80 11.24079
991.90 11.4137
992.00 11.62258
992.10 11.8189
992.20 11.94156
992.30 11.99862
992.40 11.96747
992.50 11.86902
992.60 11.78738
992.70 11.8139
992.80 11.89565
992.90 12.02752
993.00 12.33471
993.10 12.62725
993.20 12.82182
993.30 12.87937
993.40 12.86559
993.50 12.80191
993.60 12.74502
993.70 12.73381
993.80 12.95805
993.90 13.20885
994.00 13.44833
994.10 13.64795
994.20 13.78934
994.30 13.7948
994.40 13.70635
994.50 13.59827
994.60 13.57354
994.70 13.58106
994.80 13.61274
994.90 13.67975
995.00 13.76271
995.10 13.88823
995.20 14.05962
995.30 14.2204
995.40 14.28136
995.50 14.28846
995.60 14.25634
995.70 14.07905
995.80 13.89955
995.90 13.7506
996.00 13.64725
996.10 13.57405
996.20 13.61294
996.30 13.72742
996.40 13.8793
996.50 14.14462
996.60 14.39904
996.70 14.56587
996.80 14.53991
996.90 14.39574
997.00 14.11837
997.10 13.76395
997.20 13.4283
997.30 13.23765
997.40 13.12089
997.50 13.08668
997.60 13.26149
997.70 13.45403
997.80 13.62818
997.90 13.77436
998.00 13.90959
998.10 14.02095
998.20 14.10029
998.30 14.14129
998.40 13.99044
998.50 13.8308
998.60 13.68838
998.70 13.58067
998.80 13.51071
998.90 13.51234
999.00 13.54244
999.10 13.5646
999.20 13.6184
999.30 13.69725
999.40 13.78103
999.50 13.82541
999.60 13.84965
999.70 13.83984
999.80 13.80997
999.90 13.79197
1000.00 13.86513
1000.10 13.97958
1000.20 14.11396
1000.30 14.27932
1000.40 14.41557
1000.50 14.50364
1000.60 14.53057
1000.70 14.51271
1000.80 14.37822
1000.90 14.183
1001.00 13.97475
1001.10 13.84111
1001.20 13.7512
1001.30 13.74827
1001.40 13.88959
1001.50 14.07905
1001.60 14.2992
1001.70 14.52989
1001.80 14.74565
1001.90 14.77058
1002.00 14.73702
1002.10 14.67849
1002.20 14.60054
1002.30 14.55797
1002.40 14.56079
1002.50 14.59961
1002.60 14.63596
1002.70 14.66092
1002.80 14.65367
1002.90 14.61813
1003.00 14.51102
1003.10 14.43027
1003.20 14.37564
1003.30 14.34399
1003.40 14.29135
1003.50 14.19723
1003.60 14.09088
1003.70 13.98923
1003.80 14.02866
1003.90 14.10764
1004.00 14.22317
1004.10 14.37657
1004.20 14.54818
1004.30 14.68681
1004.40 14.79021
1004.50 14.86989
1004.60 14.8995
1004.70 14.8942
1004.80 14.85004
1004.90 14.71818
1005.00 14.54033
1005.10 14.30647
1005.20 14.02928
1005.30 13.76368
1005.40 13.52341
1005.50 13.32432
1005.60 13.17363
1005.70 13.19262
1005.80 13.25094
1005.90 13.34048
1006.00 13.4584
1006.10 13.56643
1006.20 13.65778
1006.30 13.72554
1006.40 13.774
1006.50 13.83794
1006.60 13.93652
1006.70 14.07365
1006.80 14.25748
1006.90 14.43603
1007.00 14.58206
1007.10 14.67934
1007.20 14.73076
1007.30 14.6596
1007.40 14.61218
1007.50 14.61014
1007.60 14.70253
1007.70 14.81895
1007.80 14.9048
1007.90 14.94478
1008.00 14.95378
1008.10 14.93387
1008.20 14.91436
1008.30 14.9053
1008.40 14.95759
1008.50 15.01868
1008.60 15.04136
1008.70 14.99143
1008.80 14.89389
1008.90 14.75811
1009.00 14.60551
1009.10 14.44956
1009.20 14.39911
1009.30 14.38783
1009.40 14.42001
1009.50 14.50675
1009.60 14.62506
1009.70 14.76776
1009.80 14.93141
1009.90 15.1018
1010.00 15.29373
1010.10 15.48219
1010.20 15.64423
1010.30 15.71755
1010.40 15.73454
1010.50 15.69067
1010.60 15.59467
1010.70 15.48453
1010.80 15.31728
1010.90 15.135
1011.00 14.95173
1011.10 14.79878
1011.20 14.64472
1011.30 14.52216
1011.40 14.44637
1011.50 14.39974
1011.60 14.35252
1011.70 14.3013
1011.80 14.24862
1011.90 14.24061
1012.00 14.27884
1012.10 14.40812
1012.20 14.68829
1012.30 14.9704
1012.40 15.15158
1012.50 15.25268
1012.60 15.32419
1012.70 15.33398
1012.80 15.32589
1012.90 15.31443
1013.00 15.27446
1013.10 15.23669
1013.20 15.19027
1013.30 15.12577
1013.40 15.01393
1013.50 14.78566
1013.60 14.51893
1013.70 14.25837
1013.80 14.0616
1013.90 13.94011
1014.00 13.91897
1014.10 14.01906
1014.20 14.15629
1014.30 14.32432
1014.40 14.47263
1014.50 14.57114
1014.60 14.49862
1014.70 14.40026
1014.80 14.32808
1014.90 14.31505
1015.00 14.37688
1015.10 14.53208
1015.20 14.71039
1015.30 14.88553
1015.40 14.91544
1015.50 14.88707
1015.60 14.76018
1015.70 14.50952
1015.80 14.27358
1015.90 14.15821
1016.00 14.12504
1016.10 14.13314
1016.20 14.24864
1016.30 14.3663
1016.40 14.46018
1016.50 14.49597
1016.60 14.54761
1016.70 14.61898
1016.80 14.69264
1016.90 14.72167
1017.00 14.59878
1017.10 14.43626
1017.20 14.2913
1017.30 14.32234
1017.40 14.42602
1017.50 14.63373
1017.60 14.93698
1017.70 15.18733
1017.80 15.18062
1017.90 15.0475
1018.00 14.86962
1018.10 14.67924
1018.20 14.52069
1018.30 14.3877
1018.40 14.27015
1018.50 14.14607
1018.60 14.0766
1018.70 14.05739
1018.80 14.07813
1018.90 14.22796
1019.00 14.40743
1019.10 14.5811
1019.20 14.6953
1019.30 14.76968
1019.40 14.79245
1019.50 14.77597
1019.60 14.7569
1019.70 14.76295
1019.80 14.77172
1019.90 14.76722
1020.00 14.70165
1020.10 14.63267
1020.20 14.58948
1020.30 14.58336
1020.40 14.60394
1020.50 14.68818
1020.60 14.80056
1020.70 14.91715
1020.80 14.98401
1020.90 15.03344
1021.00 15.04647
1021.10 14.9979
1021.20 14.91899
1021.30 14.77064
1021.40 14.58365
1021.50 14.39677
1021.60 14.31555
1021.70 14.25134
1021.80 14.17407
1021.90 14.03043
1022.00 13.90446
1022.10 13.8685
1022.20 13.92425
1022.30 14.02806
1022.40 14.22821
1022.50 14.44803
1022.60 14.64817
1022.70 14.73057
1022.80 14.78333
1022.90 14.79368
1023.00 14.75709
1023.10 14.70237
1023.20 14.62889
1023.30 14.55874
1023.40 14.499
1023.50 14.54348
1023.60 14.61533
1023.70 14.70225
1023.80 14.7997
1023.90 14.8755
1024.00 14.93285
1024.10 14.98748
1024.20 15.04566
1024.30 15.13338
1024.40 15.18789
1024.50 15.19596
1024.60 15.11309
1024.70 15.02831
1024.80 14.94143
1024.90 14.84843
1025.00 14.75762
1025.10 14.64323
1025.20 14.51505
1025.30 14.39435
1025.40 14.31992
1025.50 14.29176
1025.60 14.31799
1025.70 14.36836
1025.80 14.38668
1025.90 14.27128
1026.00 14.11044
1026.10 13.9267
1026.20 13.73601
1026.30 13.59393
1026.40 13.58139
1026.50 13.71897
1026.60 13.92043
1026.70 14.14875
1026.80 14.38217
1026.90 14.614
1027.00 14.75304
1027.10 14.84363
1027.20 14.86771
1027.30 14.80086
1027.40 14.69917
1027.50 14.57795
1027.60 14.45108
1027.70 14.34578
1027.80 14.31133
1027.90 14.29138
1028.00 14.25412
1028.10 14.15978
1028.20 14.03853
1028.30 13.9167
1028.40 13.80606
1028.50 13.74408
1028.60 13.84174
1028.70 14.00964
1028.80 14.21285
1028.90 14.43501
1029.00 14.59853
1029.10 14.67352
1029.20 14.66525
1029.30 14.6307
1029.40 14.58758
1029.50 14.55528
1029.60 14.53948
1029.70 14.52974
1029.80 14.50173
1029.90 14.4521
1030.00 14.37441
1030.10 14.30241
1030.20 14.30483
1030.30 14.3641
1030.40 14.44489
1030.50 14.55703
1030.60 14.68163
1030.70 14.78422
1030.80 14.80939
1030.90 14.78591
1031.00 14.76075
1031.10 14.75181
1031.20 14.76594
1031.30 14.80562
1031.40 14.8508
1031.50 14.88815
1031.60 14.86309
1031.70 14.79603
1031.80 14.6927
1031.90 14.57599
1032.00 14.48736
1032.10 14.4597
1032.20 14.43799
1032.30 14.40407
1032.40 14.34168
1032.50 14.28899
1032.60 14.28774
1032.70 14.34259
1032.80 14.46038
1032.90 14.67992
1033.00 14.93259
1033.10 15.17953
1033.20 15.3091
1033.30 15.39195
1033.40 15.37131
1033.50 15.18148
1033.60 14.93253
1033.70 14.65847
1033.80 14.38568
1033.90 14.14415
1034.00 13.99505
1034.10 13.87138
1034.20 13.72519
1034.30 13.42974
1034.40 13.11308
1034.50 12.90537
1034.60 12.82424
1034.70 12.80181
1034.80 13.01964
1034.90 13.29644
1035.00 13.56119
1035.10 13.76661
1035.20 13.93898
1035.30 14.06949
1035.40 14.14322
1035.50 14.2452
1035.60 14.36845
1035.70 14.502
1035.80 14.64294
1035.90 14.79679
1036.00 14.95425
1036.10 15.09849
1036.20 15.20821
1036.30 15.2898
1036.40 15.30514
1036.50 15.27939
1036.60 15.24942
1036.70 15.25036
1036.80 15.26343
1036.90 15.28596
1037.00 15.31743
1037.10 15.37167
1037.20 15.4642
1037.30 15.57244
1037.40 15.65604
1037.50 15.60521
1037.60 15.50948
1037.70 15.36968
1037.80 15.16371
1037.90 14.93848
1038.00 14.71174
1038.10 14.49215
1038.20 14.32407
1038.30 14.32116
1038.40 14.39119
1038.50 14.50859
1038.60 14.70465
1038.70 14.87628
1038.80 14.96258
1038.90 14.94625
1039.00 14.89566
1039.10 14.83414
1039.20 14.76966
1039.30 14.70519
1039.40 14.57127
1039.50 14.42995
1039.60 14.28555
1039.70 14.13941
1039.80 14.02909
1039.90 14.04488
1040.00 14.14696
1040.10 14.27489
1040.20 14.50959
1040.30 14.75274
1040.40 14.97073
1040.50 15.12001
1040.60 15.24821
1040.70 15.33221
1040.80 15.3743
1040.90 15.39492
1041.00 15.32917
1041.10 15.21539
1041.20 15.0742
1041.30 14.89915
1041.40 14.75425
1041.50 14.6758
1041.60 14.69241
1041.70 14.78806
1041.80 14.97712
1041.90 15.189
1042.00 15.36713
1042.10 15.43708
1042.20 15.43967
1042.30 15.34631
1042.40 15.15698
1042.50 14.95462
1042.60 14.74452
1042.70 14.53446
1042.80 14.33341
1042.90 14.23016
1043.00 14.18623
1043.10 14.2578
1043.20 14.50381
1043.30 14.79812
1043.40 15.0582
1043.50 15.27693
1043.60 15.44081
1043.70 15.49399
1043.80 15.51631
1043.90 15.51908
1044.00 15.4752
1044.10 15.44328
1044.20 15.4359
1044.30 15.45089
1044.40 15.4707
1044.50 15.43138
1044.60 15.37109
1044.70 15.31062
1044.80 15.33747
1044.90 15.39484
1045.00 15.47585
1045.10 15.57571
1045.20 15.68872
1045.30 15.84519
1045.40 16.00884
1045.50 16.15294
1045.60 16.19925
1045.70 16.20853
1045.80 16.1794
1045.90 16.09972
1046.00 15.99787
1046.10 15.84994
1046.20 15.68863
1046.30 15.54381
1046.40 15.41111
1046.50 15.28694
1046.60 15.15612
1046.70 15.01709
1046.80 14.87107
1046.90 14.72439
1047.00 14.58133
1047.10 14.45913
1047.20 14.43435
1047.30 14.44113
1047.40 14.48815
1047.50 14.64226
1047.60 14.78219
1047.70 14.86627
1047.80 14.89358
1047.90 14.90293
1048.00 14.89468
1048.10 14.89679
1048.20 14.92599
1048.30 15.01638
1048.40 15.11957
1048.50 15.20296
1048.60 15.25392
1048.70 15.27115
1048.80 15.28441
1048.90 15.29901
1049.00 15.31897
1049.10 15.34145
1049.20 15.36943
1049.30 15.37958
1049.40 15.34296
1049.50 15.25845
1049.60 15.07165
1049.70 14.8246
1049.80 14.58049
1049.90 14.55165
1050.00 14.60396
1050.10 14.73333
1050.20 14.96692
1050.30 15.1804
1050.40 15.27967
1050.50 15.30146
1050.60 15.30139
1050.70 15.26544
1050.80 15.22755
1050.90 15.18873
1051.00 15.12659
1051.10 15.03784
1051.20 14.91475
1051.30 14.77191
1051.40 14.636
1051.50 14.55244
1051.60 14.5042
1051.70 14.48718
1051.80 14.53711
1051.90 14.57554
1052.00 14.5876
1052.10 14.57018
1052.20 14.56179
1052.30 14.61014
1052.40 14.6962
1052.50 14.80158
1052.60 14.99816
1052.70 15.18865
1052.80 15.35109
1052.90 15.45974
1053.00 15.5241
1053.10 15.48354
1053.20 15.38382
1053.30 15.29162
1053.40 15.28976
1053.50 15.3146
1053.60 15.33086
1053.70 15.32109
1053.80 15.28446
1053.90 15.25032
1054.00 15.22539
1054.10 15.21654
1054.20 15.24517
1054.30 15.28535
1054.40 15.30903
1054.50 15.27765
1054.60 15.20329
1054.70 15.10894
1054.80 15.01239
1054.90 14.94409
1055.00 14.98341
1055.10 15.07606
1055.20 15.18771
1055.30 15.24666
1055.40 15.263
1055.50 15.2275
1055.60 15.14087
1055.70 15.02589
1055.80 14.87899
1055.90 14.72459
1056.00 14.57489
1056.10 14.54016
1056.20 14.52868
1056.30 14.52756
1056.40 14.51483
1056.50 14.51643
1056.60 14.56603
1056.70 14.6435
1056.80 14.71245
1056.90 14.71888
1057.00 14.7156
1057.10 14.72805
1057.20 14.77697
1057.30 14.84147
1057.40 14.91076
1057.50 14.97697
1057.60 15.03918
1057.70 15.07511
1057.80 15.09864
1057.90 15.11919
1058.00 15.15748
1058.10 15.20193
1058.20 15.20284
1058.30 15.15185
1058.40 15.06671
1058.50 14.89425
1058.60 14.70031
1058.70 14.51891
1058.80 14.4804
1058.90 14.4748
1059.00 14.52024
1059.10 14.62179
1059.20 14.72144
1059.30 14.79758
1059.40 14.87292
1059.50 14.95968
1059.60 15.02811
1059.70 15.08064
1059.80 15.09774
1059.90 15.06096
1060.00 14.99903
1060.10 14.94214
1060.20 14.89724
1060.30 14.86151
1060.40 14.84559
1060.50 14.82158
1060.60 14.7683
1060.70 14.65143
1060.80 14.53411
1060.90 14.46697
1061.00 14.4435
1061.10 14.44946
1061.20 14.52963
1061.30 14.62446
1061.40 14.73305
1061.50 14.88032
1061.60 15.00383
1061.70 15.03174
1061.80 14.96853
1061.90 14.88115
1062.00 14.81931
1062.10 14.76751
1062.20 14.72984
1062.30 14.72033
1062.40 14.73248
1062.50 14.7942
1062.60 14.91513
1062.70 15.0593
1062.80 15.19952
1062.90 15.32658
1063.00 15.43399
1063.10 15.41675
1063.20 15.37553
1063.30 15.32742
1063.40 15.29022
1063.50 15.27318
1063.60 15.2709
1063.70 15.27838
1063.80 15.29666
1063.90 15.33853
1064.00 15.38281
1064.10 15.42512
1064.20 15.46473
1064.30 15.47876
1064.40 15.48201
1064.50 15.48384
1064.60 15.49175
1064.70 15.46832
1064.80 15.44081
1064.90 15.41508
1065.00 15.3955
1065.10 15.3714
1065.20 15.31666
1065.30 15.22853
1065.40 15.1146
1065.50 15.00996
1065.60 14.9276
1065.70 14.87358
1065.80 14.88954
1065.90 14.90675
1066.00 14.88108
1066.10 14.7855
1066.20 14.65141
1066.30 14.48873
1066.40 14.33716
1066.50 14.22679
1066.60 14.29087
1066.70 14.37679
1066.80 14.45347
1066.90 14.50982
1067.00 14.54163
1067.10 14.54273
1067.20 14.54785
1067.30 14.5822
1067.40 14.71501
1067.50 14.84872
1067.60 14.95691
1067.70 15.01006
1067.80 15.03736
1067.90 15.07798
1068.00 15.13265
1068.10 15.19507
1068.20 15.3239
1068.30 15.47497
1068.40 15.62759
1068.50 15.78559
1068.60 15.92687
1068.70 15.99597
1068.80 15.98738
1068.90 15.9607
1069.00 15.89985
1069.10 15.83672
1069.20 15.78649
1069.30 15.7651
1069.40 15.72158
1069.50 15.62339
1069.60 15.47688
1069.70 15.34039
1069.80 15.27873
1069.90 15.25488
1070.00 15.24465
1070.10 15.2464
1070.20 15.22858
1070.30 15.18501
1070.40 15.12124
1070.50 15.09079
1070.60 15.12792
1070.70 15.19635
1070.80 15.26529
1070.90 15.2986
1071.00 15.30126
1071.10 15.29372
1071.20 15.29074
1071.30 15.32313
1071.40 15.36673
1071.50 15.41072
1071.60 15.4445
1071.70 15.44853
1071.80 15.43421
1071.90 15.41938
1072.00 15.41462
1072.10 15.41521
1072.20 15.38559
1072.30 15.32478
1072.40 15.23897
1072.50 15.08524
1072.60 14.94112
1072.70 14.83043
1072.80 14.79177
1072.90 14.78834
1073.00 14.86156
1073.10 15.00098
1073.20 15.11565
1073.30 15.09129
1073.40 15.01873
1073.50 14.94743
1073.60 14.91191
1073.70 14.9149
1073.80 14.98984
1073.90 15.15572
1074.00 15.32244
1074.10 15.39186
1074.20 15.41367
1074.30 15.42199
1074.40 15.44534
1074.50 15.44695
1074.60 15.40085
1074.70 15.29625
1074.80 15.20102
1074.90 15.14992
1075.00 15.11249
1075.10 15.07763
1075.20 15.0965
1075.30 15.11826
1075.40 15.12673
1075.50 15.10375
1075.60 15.10016
1075.70 15.16609
1075.80 15.27844
1075.90 15.40123
1076.00 15.47382
1076.10 15.51115
1076.20 15.52424
1076.30 15.51206
1076.40 15.50356
1076.50 15.5072
1076.60 15.52057
1076.70 15.54047
1076.80 15.54175
1076.90 15.54298
1077.00 15.54053
1077.10 15.52334
1077.20 15.49163
1077.30 15.41914
1077.40 15.30867
1077.50 15.18646
1077.60 15.09999
1077.70 15.03788
1077.80 15.00084
1077.90 15.0536
1078.00 15.12404
1078.10 15.18571
1078.20 15.22523
1078.30 15.24335
1078.40 15.25889
1078.50 15.27954
1078.60 15.30184
1078.70 15.3006
1078.80 15.27719
1078.90 15.23073
1079.00 15.154
1079.10 15.08169
1079.20 15.02427
1079.30 14.97644
1079.40 14.93215
1079.50 14.93382
1079.60 14.96632
1079.70 15.0263
1079.80 15.10907
1079.90 15.18411
1080.00 15.2177
1080.10 15.22298
1080.20 15.22478
1080.30 15.28608
1080.40 15.35171
1080.50 15.41009
1080.60 15.44374
1080.70 15.48923
1080.80 15.51465
1080.90 15.51692
1081.00 15.50344
1081.10 15.48938
1081.20 15.47576
1081.30 15.46712
1081.40 15.48905
1081.50 15.51837
1081.60 15.54527
1081.70 15.56472
1081.80 15.5753
1081.90 15.58701
1082.00 15.58477
1082.10 15.56712
1082.20 15.44976
1082.30 15.33027
1082.40 15.23749
1082.50 15.18134
1082.60 15.14737
1082.70 15.22099
1082.80 15.34746
1082.90 15.48323
1083.00 15.67825
1083.10 15.87247
1083.20 15.99178
1083.30 15.93759
1083.40 15.86033
1083.50 15.67847
1083.60 15.42564
1083.70 15.17409
1083.80 15.11416
1083.90 15.09536
1084.00 15.11737
1084.10 15.23683
1084.20 15.34318
1084.30 15.37239
1084.40 15.32637
1084.50 15.26333
1084.60 15.21926
1084.70 15.17606
1084.80 15.14518
1084.90 15.13499
1085.00 15.16091
1085.10 15.2258
1085.20 15.31483
1085.30 15.37721
1085.40 15.36156
1085.50 15.33186
1085.60 15.31903
1085.70 15.36625
1085.80 15.42911
1085.90 15.50068
1086.00 15.58278
1086.10 15.65809
1086.20 15.70541
1086.30 15.73063
1086.40 15.74489
1086.50 15.72846
1086.60 15.6946
1086.70 15.65242
1086.80 15.60888
1086.90 15.59387
1087.00 15.61874
1087.10 15.66941
1087.20 15.72123
1087.30 15.68152
1087.40 15.61155
1087.50 15.52467
1087.60 15.43608
1087.70 15.37546
1087.80 15.36645
1087.90 15.38757
1088.00 15.41099
1088.10 15.42427
1088.20 15.42123
1088.30 15.41113
1088.40 15.39547
1088.50 15.39658
1088.60 15.41493
1088.70 15.43755
1088.80 15.44438
1088.90 15.45673
1089.00 15.47587
1089.10 15.50131
1089.20 15.49279
1089.30 15.47611
1089.40 15.42968
1089.50 15.35673
1089.60 15.2967
1089.70 15.32829
1089.80 15.39877
1089.90 15.48211
1090.00 15.55666
1090.10 15.60698
1090.20 15.62835
1090.30 15.62123
1090.40 15.61233
1090.50 15.58042
1090.60 15.53178
1090.70 15.46953
1090.80 15.3917
1090.90 15.30887
1091.00 15.23473
1091.10 15.18645
1091.20 15.16383
1091.30 15.19187
1091.40 15.26116
1091.50 15.35396
1091.60 15.49537
1091.70 15.63276
1091.80 15.70752
1091.90 15.67369
1092.00 15.62621
1092.10 15.62618
1092.20 15.66258
1092.30 15.70257
1092.40 15.6749
1092.50 15.63687
1092.60 15.60147
1092.70 15.59687
1092.80 15.59648
1092.90 15.59733
1093.00 15.59403
1093.10 15.58156
1093.20 15.56685
1093.30 15.55463
1093.40 15.55119
1093.50 15.60124
1093.60 15.65094
1093.70 15.7041
1093.80 15.7631
1093.90 15.84173
1094.00 15.95644
1094.10 16.08152
1094.20 16.18655
1094.30 16.10848
1094.40 15.9801
1094.50 15.81845
1094.60 15.6395
1094.70 15.50683
1094.80 15.45831
1094.90 15.4641
1095.00 15.48847
1095.10 15.61375
1095.20 15.73633
1095.30 15.83604
1095.40 15.88085
1095.50 15.88498
1095.60 15.86626
1095.70 15.83052
1095.80 15.79297
1095.90 15.73676
1096.00 15.69749
1096.10 15.68367
1096.20 15.73455
1096.30 15.77897
1096.40 15.80276
1096.50 15.80981
1096.60 15.8012
1096.70 15.66315
1096.80 15.49386
1096.90 15.33078
1097.00 15.25287
1097.10 15.19488
1097.20 15.15972
1097.30 15.15129
1097.40 15.18144
1097.50 15.25064
1097.60 15.32089
1097.70 15.37987
1097.80 15.40101
1097.90 15.42135
1098.00 15.45458
1098.10 15.50402
1098.20 15.52903
1098.30 15.49905
1098.40 15.44708
1098.50 15.39755
1098.60 15.37155
1098.70 15.34827
1098.80 15.33057
1098.90 15.31438
1099.00 15.31518
1099.10 15.35656
1099.20 15.42215
1099.30 15.50012
1099.40 15.52397
1099.50 15.52985
1099.60 15.52793
1099.70 15.54366
1099.80 15.55303
1099.90 15.53425
1100.00 15.49372
1100.10 15.45002
1100.20 15.41211
1100.30 15.36903
1100.40 15.31838
1100.50 15.25753
1100.60 15.21811
1100.70 15.2174
1100.80 15.23889
1100.90 15.27501
1101.00 15.35032
1101.10 15.41318
1101.20 15.45497
1101.30 15.47142
1101.40 15.51712
1101.50 15.54457
1101.60 15.535
1101.70 15.48328
1101.80 15.38309
1101.90 15.25865
1102.00 15.11879
1102.10 14.9882
1102.20 14.87183
1102.30 14.79461
1102.40 14.77275
1102.50 14.82021
1102.60 14.94601
1102.70 15.11905
1102.80 15.29224
1102.90 15.39649
1103.00 15.46142
1103.10 15.44851
1103.20 15.34886
1103.30 15.192
1103.40 15.02069
1103.50 14.85659
1103.60 14.71361
1103.70 14.69462
1103.80 14.7231
1103.90 14.78428
1104.00 14.87083
1104.10 14.93674
1104.20 14.94035
1104.30 14.89186
1104.40 14.83055
1104.50 14.81891
1104.60 14.83018
1104.70 14.87202
1104.80 15.00461
1104.90 15.12389
1105.00 15.13064
1105.10 15.04826
1105.20 14.92968
1105.30 14.79449
1105.40 14.67771
1105.50 14.58621
1105.60 14.54358
1105.70 14.52642
1105.80 14.54915
1105.90 14.60225
1106.00 14.66138
1106.10 14.69614
1106.20 14.71317
1106.30 14.7166
1106.40 14.67393
1106.50 14.63927
1106.60 14.62892
1106.70 14.65149
1106.80 14.64016
1106.90 14.58667
1107.00 14.51796
1107.10 14.47726
1107.20 14.53496
1107.30 14.61798
1107.40 14.69487
1107.50 14.74343
1107.60 14.76651
1107.70 14.80383
1107.80 14.85527
1107.90 14.91697
1108.00 14.90233
1108.10 14.88936
1108.20 14.90609
1108.30 14.99092
1108.40 15.07025
1108.50 15.10912
1108.60 15.1176
1108.70 15.12236
1108.80 15.12894
1108.90 15.12754
1109.00 15.1219
1109.10 15.10875
1109.20 15.10086
1109.30 15.10886
1109.40 15.1233
1109.50 15.14461
1109.60 15.1727
1109.70 15.19928
1109.80 15.21923
1109.90 15.22609
1110.00 15.20939
1110.10 15.17834
1110.20 15.13972
1110.30 15.08889
1110.40 14.99129
1110.50 14.89261
1110.60 14.81694
1110.70 14.80113
1110.80 14.81131
1110.90 14.8237
1111.00 14.83069
1111.10 14.80835
1111.20 14.76958
1111.30 14.73071
1111.40 14.68819
1111.50 14.5993
1111.60 14.51766
1111.70 14.49665
1111.80 14.55997
1111.90 14.62368
1112.00 14.62017
1112.10 14.58683
1112.20 14.55474
1112.30 14.55668
1112.40 14.57124
1112.50 14.62842
1112.60 14.77449
1112.70 14.92836
1112.80 15.02701
1112.90 15.08341
1113.00 15.1313
1113.10 15.08434
1113.20 15.01365
1113.30 14.97239
1113.40 15.01547
1113.50 15.04574
1113.60 15.03861
1113.70 15.01276
1113.80 14.98232
1113.90 14.91579
1114.00 14.86827
1114.10 14.86052
1114.20 14.95652
1114.30 15.06917
1114.40 15.17219
1114.50 15.25678
1114.60 15.32024
1114.70 15.41195
1114.80 15.49543
1114.90 15.54361
1115.00 15.34833
1115.10 15.1677
1115.20 15.03939
1115.30 14.98558
1115.40 14.92898
1115.50 14.96298
1115.60 15.00914
1115.70 15.03283
1115.80 15.01816
1115.90 15.01791
1116.00 15.02853
1116.10 15.0447
1116.20 15.07436
1116.30 15.08177
1116.40 15.07414
1116.50 15.04829
1116.60 14.75147
1116.70 14.46335
1116.80 14.31091
1116.90 14.47203
1117.00 14.61333
1117.10 14.66542
1117.20 14.65914
1117.30 14.65096
1117.40 14.53363
1117.50 14.43969
1117.60 14.40439
1117.70 14.49498
1117.80 14.5896
1117.90 14.73048
1118.00 14.788
1118.10 14.85479
1118.20 14.9338
1118.30 14.98593
1118.40 15.03035
1118.50 15.05761
1118.60 15.10766
1118.70 15.18966
1118.80 15.25752
1118.90 15.25224
1119.00 15.0863
1119.10 14.92074
1119.20 14.75963
1119.30 14.66318
1119.40 14.5704
1119.50 14.48589
1119.60 14.59032
1119.70 14.74374
1119.80 14.9048
1119.90 14.99797
1120.00 15.04752
1120.10 15.09104
1120.20 15.09564
1120.30 15.01105
1120.40 14.92967
1120.50 14.85417
1120.60 14.9205
1120.70 14.98079
1120.80 15.03687
1120.90 15.08405
1121.00 15.1215
1121.10 15.16028
1121.20 15.11229
1121.30 15.01544
1121.40 14.92337
1121.50 14.87474
1121.60 14.92146
1121.70 14.95977
1121.80 14.99646
1121.90 14.96117
1122.00 14.93548
1122.10 14.91625
1122.20 14.84283
1122.30 14.7619
1122.40 14.67807
1122.50 14.56828
1122.60 14.45945
1122.70 14.36354
1122.80 14.39748
1122.90 14.71983
1123.00 15.01879
1123.10 15.31424
1123.20 15.34367
1123.30 15.35495
1123.40 15.35287
1123.50 15.09388
1123.60 14.79665
1123.70 14.54532
1123.80 14.48725
1123.90 14.63405
1124.00 14.77572
1124.10 14.9096
1124.20 15.01634
1124.30 15.1162
1124.40 15.21258
1124.50 15.1724
1124.60 15.12805
1124.70 15.07295
1124.80 15.11503
1124.90 15.15987
1125.00 15.19274
1125.10 15.2125
1125.20 15.24089
1125.30 15.29121
1125.40 15.21669
1125.50 14.67949
1125.60 14.15285
1125.70 13.62847
1125.80 14.08511
1125.90 14.52932
1126.00 14.96419
1126.10 15.02366
1126.20 14.92246
1126.30 14.82333
1126.40 14.77761
1126.50 14.78874
1126.60 14.80608
1126.70 14.84208
1126.80 14.94305
1126.90 15.03897
1127.00 15.13285
1127.10 15.14624
1127.20 15.15704
1127.30 15.15797
1127.40 15.05022
1127.50 14.89396
1127.60 14.73914
1127.70 14.63425
1127.80 14.58242
1127.90 14.54398
1128.00 14.53864
1128.10 14.65622
1128.20 14.77181
1128.30 14.88481
1128.40 14.90941
1128.50 14.9354
1128.60 14.96164
1128.70 15.01062
1128.80 15.06273
1128.90 15.10582
1129.00 15.11705
1129.10 15.09483
1129.20 15.07039
1129.30 15.04488
1129.40 15.01793
1129.50 15.00483
1129.60 15.00035
1129.70 14.94267
1129.80 14.88083
1129.90 14.81531
1130.00 14.81833
1130.10 14.83489
1130.20 14.81178
1130.30 14.78948
1130.40 14.75979
1130.50 14.73664
1130.60 14.71536
1130.70 14.69394
1130.80 14.69065
1130.90 14.70081
1131.00 14.7401
1131.10 14.79052
1131.20 14.84474
1131.30 14.8683
1131.40 14.87866
1131.50 14.88074
1131.60 14.90279
1131.70 14.95419
1131.80 15.00004
1131.90 15.04371
1132.00 15.08542
1132.10 15.12184
1132.20 15.1555
1132.30 15.0893
1132.40 15.01408
1132.50 14.94253
1132.60 14.92039
1132.70 14.91678
1132.80 14.91483
1132.90 14.95141
1133.00 15.04491
1133.10 15.13021
1133.20 15.16818
1133.30 15.02707
1133.40 14.88736
1133.50 14.74852
1133.60 14.71534
1133.70 14.69056
1133.80 14.66559
1133.90 14.67389
1134.00 14.6964
1134.10 14.71885
1134.20 14.74409
1134.30 14.78702
1134.40 14.83645
1134.50 14.87547
1134.60 14.87738
1134.70 14.89676
1134.80 14.92107
1134.90 14.6222
1135.00 14.28013
1135.10 13.91427
1135.20 14.09284
1135.30 14.48646
1135.40 14.87007
1135.50 15.08111
1135.60 15.01995
1135.70 14.96309
1135.80 14.88055
1135.90 14.70424
1136.00 14.5544
1136.10 14.40927
1136.20 14.39868
1136.30 14.39106
1136.40 14.36486
1136.50 14.40502
1136.60 14.47223
1136.70 14.53464
1136.80 14.54489
1136.90 14.47635
1137.00 14.41196
1137.10 14.35452
1137.20 14.35848
1137.30 14.35307
1137.40 14.34031
1137.50 14.06433
1137.60 13.75196
1137.70 13.4096
1137.80 13.07105
1137.90 12.70649
1138.00 12.29834
1138.10 11.84874
1138.20 11.33323
1138.30 10.89322
1138.40 10.51698
1138.50 10.66546
1138.60 10.90327
1138.70 11.21157
1138.80 11.85161
1138.90 12.51795
1139.00 13.13357
1139.10 13.48866
1139.20 13.64582
1139.30 13.74818
1139.40 13.81578
1139.50 13.81773
1139.60 13.79797
1139.70 13.74506
1139.80 13.43535
1139.90 13.10297
1140.00 12.74831
1140.10 12.23412
1140.20 11.67035
1140.30 11.06871
1140.40 10.46724
1140.50 9.864818
1140.60 9.368596
1140.70 9.130214
1140.80 9.332009
1140.90 9.66364
1141.00 10.07502
1141.10 10.95125
1141.20 11.8037
1141.30 12.63586
1141.40 13.01551
1141.50 13.33249
1141.60 13.6167
1141.70 13.86938
1141.80 14.07606
1141.90 14.25707
1142.00 14.33206
1142.10 14.24648
1142.20 14.14912
1142.30 14.06033
1142.40 14.06886
1142.50 14.08064
1142.60 14.09714
1142.70 14.19451
1142.80 14.30376
1142.90 14.40963
1143.00 14.50055
1143.10 14.57305
1143.20 14.63819
1143.30 14.70261
1143.40 14.76868
1143.50 14.83564
1143.60 14.88654
1143.70 14.79066
1143.80 14.68206
1143.90 14.56125
1144.00 14.36634
1144.10 14.17648
1144.20 14.00464
1144.30 13.94034
1144.40 13.94512
1144.50 13.95112
1144.60 14.0046
1144.70 14.1228
1144.80 14.24447
1144.90 14.35991
1145.00 14.4095
1145.10 14.45817
1145.20 14.502
1145.30 14.53516
1145.40 14.56184
1145.50 14.58745
1145.60 14.57871
1145.70 14.54695
1145.80 14.51677
1145.90 14.52789
1146.00 14.60533
1146.10 14.69136
1146.20 14.77615
1146.30 14.81378
1146.40 14.85067
1146.50 14.88603
1146.60 14.82613
1146.70 14.75479
1146.80 14.66604
1146.90 14.65627
1147.00 14.68516
1147.10 14.7072
1147.20 14.64651
1147.30 14.46773
1147.40 14.30903
1147.50 14.19549
1147.60 14.4509
1147.70 14.7085
1147.80 14.96922
1147.90 14.99165
1148.00 14.98226
1148.10 14.9672
1148.20 14.98307
1148.30 15.00777
1148.40 15.01238
1148.50 14.95092
1148.60 14.79859
1148.70 14.6744
1148.80 14.58559
1148.90 14.60761
1149.00 14.628
1149.10 14.64611
1149.20 14.81391
1149.30 14.97988
1149.40 15.13425
1149.50 15.07539
1149.60 14.93715
1149.70 14.81141
1149.80 14.67314
1149.90 14.52195
1150.00 14.36332
1150.10 14.27426
1150.20 14.45918
1150.30 14.6416
1150.40 14.827
1150.50 14.86066
1150.60 14.88655
1150.70 14.92034
1150.80 14.92497
1150.90 14.91953
1151.00 14.90649
1151.10 14.87697
1151.20 14.81806
1151.30 14.75412
1151.40 14.7178
1151.50 14.79423
1151.60 14.86985
1151.70 14.94813
1151.80 14.93239
1151.90 14.91254
1152.00 14.89328
1152.10 14.89236
1152.20 14.89138
1152.30 14.87223
1152.40 14.81567
1152.50 14.70002
1152.60 14.59707
1152.70 14.51504
1152.80 14.51357
1152.90 14.51679
1153.00 14.52326
1153.10 14.62271
1153.20 14.72625
1153.30 14.82903
1153.40 14.83043
1153.50 14.7906
1153.60 14.7617
1153.70 14.74125
1153.80 14.74052
1153.90 14.74425
1154.00 14.74107
1154.10 14.70649
1154.20 14.66222
1154.30 14.60939
1154.40 14.64721
1154.50 14.68297
1154.60 14.70543
1154.70 14.70704
1154.80 14.69651
1154.90 14.70719
1155.00 14.7117
1155.10 14.71682
1155.20 14.73301
1155.30 14.76138
1155.40 14.81849
1155.50 14.8739
1155.60 14.92676
1155.70 14.8736
1155.80 14.81989
1155.90 14.75706
1156.00 14.79672
1156.10 14.8699
1156.20 14.94528
1156.30 14.95311
1156.40 14.89742
1156.50 14.84473
1156.60 14.80941
1156.70 14.84165
1156.80 14.8621
1156.90 14.87613
1157.00 14.84841
1157.10 14.82341
1157.20 14.80787
1157.30 14.80333
1157.40 14.81125
1157.50 14.82053
1157.60 14.78906
1157.70 14.71658
1157.80 14.64586
1157.90 14.60104
1158.00 14.66364
1158.10 14.72704
1158.20 14.79076
1158.30 14.81983
1158.40 14.84361
1158.50 14.86455
1158.60 14.83893
1158.70 14.79069
1158.80 14.73567
1158.90 14.66963
1159.00 14.59204
1159.10 14.4986
1159.20 14.40899
1159.30 14.33978
1159.40 14.26971
1159.50 14.20171
1159.60 14.12929
1159.70 14.07775
1159.80 14.05303
1159.90 14.11265
1160.00 14.20374
1160.10 14.29913
1160.20 14.37511
1160.30 14.43084
1160.40 14.46923
1160.50 14.44891
1160.60 14.29261
1160.70 14.09858
1160.80 13.88915
1160.90 13.67814
1161.00 13.48196
1161.10 13.32302
1161.20 13.40492
1161.30 13.5749
1161.40 13.78086
1161.50 14.00621
1161.60 14.25346
1161.70 14.4636
1161.80 14.63644
1161.90 14.71955
1162.00 14.78384
1162.10 14.84077
1162.20 14.74589
1162.30 14.65846
1162.40 14.58051
1162.50 14.57482
1162.60 14.5951
1162.70 14.6217
1162.80 14.67914
1162.90 14.76814
1163.00 14.8558
1163.10 14.92007
1163.20 14.92771
1163.30 14.92284
1163.40 14.9045
1163.50 14.79021
1163.60 14.65848
1163.70 14.50587
1163.80 14.2697
1163.90 14.01308
1164.00 13.77785
1164.10 13.71229
1164.20 13.77753
1164.30 13.8979
1164.40 14.0488
1164.50 14.2708
1164.60 14.47552
1164.70 14.65598
1164.80 14.69027
1164.90 14.71214
1165.00 14.72441
1165.10 14.70302
1165.20 14.66497
1165.30 14.6231
1165.40 14.59037
1165.50 14.56247
1165.60 14.54451
1165.70 14.53363
1165.80 14.54963
1165.90 14.57872
1166.00 14.61378
1166.10 14.68418
1166.20 14.75329
1166.30 14.82243
1166.40 14.86418
1166.50 14.89391
1166.60 14.91737
1166.70 14.89068
1166.80 14.82784
1166.90 14.75064
1167.00 14.70513
1167.10 14.70761
1167.20 14.71361
1167.30 14.71556
1167.40 14.68296
1167.50 14.65119
1167.60 14.62187
1167.70 14.60203
1167.80 14.58448
1167.90 14.57162
1168.00 14.56255
1168.10 14.55483
1168.20 14.53286
1168.30 14.50314
1168.40 14.45779
1168.50 14.38926
1168.60 14.30253
1168.70 14.09105
1168.80 13.83157
1168.90 13.52524
1169.00 12.97786
1169.10 12.40695
1169.20 11.89861
1169.30 11.72601
1169.40 11.75453
1169.50 11.94463
1169.60 12.25943
1169.70 12.77932
1169.80 13.28114
1169.90 13.73631
1170.00 14.01122
1170.10 14.24711
1170.20 14.45743
1170.30 14.54693
1170.40 14.60659
1170.50 14.64913
1170.60 14.66808
1170.70 14.66913
1170.80 14.65745
1170.90 14.64406
1171.00 14.62107
1171.10 14.59787
1171.20 14.58431
1171.30 14.61127
1171.40 14.63989
1171.50 14.66779
1171.60 14.66557
1171.70 14.65605
1171.80 14.63751
1171.90 14.59849
1172.00 14.55185
1172.10 14.51239
1172.20 14.4897
1172.30 14.4869
1172.40 14.49044
1172.50 14.4973
1172.60 14.51335
1172.70 14.53469
1172.80 14.56236
1172.90 14.58232
1173.00 14.60148
1173.10 14.6153
1173.20 14.64984
1173.30 14.68529
1173.40 14.70589
1173.50 14.69602
1173.60 14.65343
1173.70 14.61445
1173.80 14.56827
1173.90 14.51388
1174.00 14.46857
1174.10 14.42659
1174.20 14.46251
1174.30 14.49997
1174.40 14.54086
1174.50 14.60069
1174.60 14.66133
1174.70 14.70995
1174.80 14.73936
1174.90 14.74417
1175.00 14.74044
1175.10 14.72324
1175.20 14.67736
1175.30 14.63537
1175.40 14.59367
1175.50 14.61532
1175.60 14.64387
1175.70 14.68165
1175.80 14.68487
1175.90 14.67187
1176.00 14.64556
1176.10 14.61424
1176.20 14.57471
1176.30 14.52881
1176.40 14.48151
1176.50 14.43694
1176.60 14.36184
1176.70 14.24724
1176.80 13.88056
1176.90 13.45846
1177.00 12.98792
1177.10 12.33776
1177.20 11.63494
1177.30 10.98663
1177.40 10.59584
1177.50 10.41681
1177.60 10.42621
1177.70 10.66949
1177.80 11.26937
1177.90 11.90513
1178.00 12.53001
1178.10 12.91952
1178.20 13.26429
1178.30 13.56263
1178.40 13.64399
1178.50 13.6831
1178.60 13.70603
1178.70 13.80148
1178.80 13.93817
1178.90 14.07003
1179.00 14.19669
1179.10 14.31239
1179.20 14.41025
1179.30 14.48835
1179.40 14.42119
1179.50 14.34896
1179.60 14.2734
1179.70 14.20967
1179.80 14.14993
1179.90 14.09659
1180.00 14.14126
1180.10 14.23157
1180.20 14.32942
1180.30 14.40722
1180.40 14.45663
1180.50 14.4968
1180.60 14.5249
1180.70 14.50946
1180.80 14.48726
1180.90 14.46333
1181.00 14.43895
1181.10 14.4154
1181.20 14.39272
1181.30 14.40112
1181.40 14.42359
1181.50 14.4455
1181.60 14.43568
1181.70 14.39747
1181.80 14.36779
1181.90 14.34142
1182.00 14.32009
1182.10 14.30058
1182.20 14.28428
1182.30 14.30425
1182.40 14.31174
1182.50 14.30379
1182.60 14.19394
1182.70 14.03201
1182.80 13.85953
1182.90 13.7094
1183.00 13.58595
1183.10 13.49776
1183.20 13.47846
1183.30 13.62044
1183.40 13.76474
1183.50 13.90777
1183.60 13.97877
1183.70 14.03868
1183.80 14.09264
1183.90 14.14342
1184.00 14.20122
1184.10 14.28522
1184.20 14.36539
1184.30 14.4506
1184.40 14.52008
1184.50 14.55848
1184.60 14.52239
1184.70 14.46355
1184.80 14.39803
1184.90 14.30195
1185.00 14.21006
1185.10 14.12921
1185.20 14.1439
1185.30 14.1905
1185.40 14.25396
1185.50 14.30259
1185.60 14.34685
1185.70 14.38092
1185.80 14.40267
1185.90 14.39837
1186.00 14.39422
1186.10 14.3946
1186.20 14.42425
1186.30 14.45386
1186.40 14.48021
1186.50 14.45867
1186.60 14.41856
1186.70 14.36949
1186.80 14.33098
1186.90 14.29563
1187.00 14.26887
1187.10 14.25753
1187.20 14.27249
1187.30 14.29698
1187.40 14.3201
1187.50 14.30657
1187.60 14.28899
1187.70 14.26441
1187.80 14.23481
1187.90 14.18855
1188.00 14.11649
1188.10 13.84723
1188.20 13.48154
1188.30 13.0806
1188.40 12.71579
1188.50 12.40353
1188.60 12.16718
1188.70 12.04881
1188.80 12.36186
1188.90 12.71326
1189.00 13.09213
1189.10 13.39508
1189.20 13.67109
1189.30 13.89748
1189.40 14.0041
1189.50 14.0487
1189.60 14.09334
1189.70 14.16661
1189.80 14.26636
1189.90 14.36471
1190.00 14.44184
1190.10 14.4281
1190.20 14.40338
1190.30 14.37295
1190.40 14.33375
1190.50 14.29352
1190.60 14.25039
1190.70 14.22024
1190.80 14.19916
1190.90 14.20131
1191.00 14.21365
1191.10 14.24377
1191.20 14.2697
1191.30 14.2926
1191.40 14.30924
1191.50 14.32075
1191.60 14.32964
1191.70 14.33459
1191.80 14.33919
1191.90 14.34584
1192.00 14.36017
1192.10 14.37914
1192.20 14.39121
1192.30 14.38788
1192.40 14.36399
1192.50 14.33842
1192.60 14.31717
1192.70 14.30912
1192.80 14.31087
1192.90 14.31889
1193.00 14.34147
1193.10 14.3638
1193.20 14.38374
1193.30 14.36067
1193.40 14.32224
1193.50 14.2682
1193.60 14.20638
1193.70 14.13145
1193.80 14.05047
1193.90 13.98577
1194.00 13.96269
1194.10 13.95441
1194.20 13.95027
1194.30 13.93466
1194.40 13.92063
1194.50 13.90406
1194.60 13.88815
1194.70 13.86159
1194.80 13.81767
1194.90 13.73934
1195.00 13.634
1195.10 13.55627
1195.20 13.5232
1195.30 13.56952
1195.40 13.641
1195.50 13.71401
1195.60 13.7768
1195.70 13.82233
1195.80 13.84757
1195.90 13.85377
1196.00 13.84225
1196.10 13.826
1196.20 13.80081
1196.30 13.77325
1196.40 13.75706
1196.50 13.73978
1196.60 13.72491
1196.70 13.71477
1196.80 13.69975
1196.90 13.65424
1197.00 13.5793
1197.10 13.48629
1197.20 13.15643
1197.30 12.81308
1197.40 12.46181
1197.50 12.22282
1197.60 12.04402
1197.70 11.95414
1197.80 12.02896
1197.90 12.29256
1198.00 12.56633
1198.10 12.81549
1198.20 12.9988
1198.30 13.17262
1198.40 13.34422
1198.50 13.41879
1198.60 13.49243
1198.70 13.55448
1198.80 13.56156
1198.90 13.53748
1199.00 13.47715
1199.10 13.42895
1199.20 13.38461
1199.30 13.35562
1199.40 13.33328
1199.50 13.32921
1199.60 13.34063
1199.70 13.3581
1199.80 13.37541
1199.90 13.39197
1200.00 13.40321
