# Version 2.1 - nm, norm@500 to 1, cut digits
# Wavelength(nm)  Flambda(ergs/cm^s/s/nm)
300.00 0.009122696
300.10 0.01212949
300.20 0.01395895
300.30 0.01471328
300.40 0.01490863
300.50 0.01496451
300.60 0.01502112
300.70 0.01507886
300.80 0.0151399
300.90 0.01520868
301.00 0.01529013
301.10 0.01538643
301.20 0.01549535
301.30 0.01561184
301.40 0.01573131
301.50 0.01585136
301.60 0.0159714
301.70 0.01609143
301.80 0.01621147
301.90 0.0163315
302.00 0.01645154
302.10 0.01657157
302.20 0.0166916
302.30 0.01681164
302.40 0.01693167
302.50 0.0170517
302.60 0.01717172
302.70 0.01729219
302.80 0.01741491
302.90 0.01754338
303.00 0.01768143
303.10 0.01783076
303.20 0.01798968
303.30 0.01815433
303.40 0.01832125
303.50 0.01848861
303.60 0.01865597
303.70 0.01882332
303.80 0.01899067
303.90 0.01915802
304.00 0.01932536
304.10 0.01949271
304.20 0.01966006
304.30 0.01982741
304.40 0.01999477
304.50 0.02016214
304.60 0.02032953
304.70 0.02049555
304.80 0.02065467
304.90 0.02079622
305.00 0.02090846
305.10 0.0209862
305.20 0.02103463
305.30 0.0210655
305.40 0.02108946
305.50 0.02111205
305.60 0.02113467
305.70 0.02115729
305.80 0.02117992
305.90 0.02120256
306.00 0.02122519
306.10 0.02124782
306.20 0.02127046
306.30 0.02129309
306.40 0.02131573
306.50 0.02133836
306.60 0.02136099
306.70 0.02138363
306.80 0.02140628
306.90 0.02142897
307.00 0.02145172
307.10 0.02147455
307.20 0.02149744
307.30 0.02152037
307.40 0.02154332
307.50 0.02156627
307.60 0.02158921
307.70 0.02161216
307.80 0.02163511
307.90 0.02165806
308.00 0.02168101
308.10 0.02170395
308.20 0.0217269
308.30 0.02174984
308.40 0.02177277
308.50 0.02179567
308.60 0.02181853
308.70 0.02184479
308.80 0.02188833
308.90 0.02197586
309.00 0.02213671
309.10 0.02238394
309.20 0.0227045
309.30 0.02306904
309.40 0.02345085
309.50 0.02383608
309.60 0.02422126
309.70 0.02460641
309.80 0.02499156
309.90 0.02537669
310.00 0.02576182
310.10 0.02614696
310.20 0.02653209
310.30 0.02691723
310.40 0.02730239
310.50 0.02768757
310.60 0.0280728
310.70 0.02845459
310.80 0.02881903
310.90 0.02913924
311.00 0.02938574
311.10 0.02954542
311.20 0.02963137
311.30 0.02967312
311.40 0.02969749
311.50 0.02971844
311.60 0.02973943
311.70 0.02976045
311.80 0.02978148
311.90 0.02980252
312.00 0.02982356
312.10 0.0298446
312.20 0.02986564
312.30 0.02988667
312.40 0.02990769
312.50 0.02992867
312.60 0.02994959
312.70 0.02997475
312.80 0.03002136
312.90 0.03012257
313.00 0.03031484
313.10 0.03061433
313.20 0.03100487
313.30 0.03145002
313.40 0.03191662
313.50 0.03238745
313.60 0.03285822
313.70 0.03332896
313.80 0.03379969
313.90 0.0342704
314.00 0.03474112
314.10 0.03521184
314.20 0.03568255
314.30 0.03615326
314.40 0.03662396
314.50 0.03709463
314.60 0.03756527
314.70 0.03803885
314.80 0.03852737
314.90 0.03905389
315.00 0.0396438
315.10 0.04030834
315.20 0.04103627
315.30 0.0418022
315.40 0.04258307
315.50 0.04336688
315.60 0.04415066
315.70 0.04493441
315.80 0.04571815
315.90 0.04650188
316.00 0.04728562
316.10 0.04806935
316.20 0.04885309
316.30 0.04963684
316.40 0.05042064
316.50 0.05120452
316.60 0.05198855
316.70 0.05276174
316.80 0.05348006
316.90 0.05405864
317.00 0.05440427
317.10 0.05447551
317.20 0.0543138
317.30 0.05401235
317.40 0.05365603
317.50 0.05328887
317.60 0.05292185
317.70 0.05255492
317.80 0.05218804
317.90 0.05182117
318.00 0.05145431
318.10 0.05108744
318.20 0.05072057
318.30 0.05035369
318.40 0.04998678
318.50 0.0496198
318.60 0.04925271
318.70 0.04889391
318.80 0.04857713
318.90 0.0483673
319.00 0.04833581
319.10 0.04851434
319.20 0.04887121
319.30 0.04933504
319.40 0.04984088
319.50 0.05035501
319.60 0.05086903
319.70 0.05138298
319.80 0.0518969
319.90 0.05241081
320.00 0.05292472
320.10 0.05343863
320.20 0.05395253
320.30 0.05446645
320.40 0.05498037
320.50 0.05549432
320.60 0.05600831
320.70 0.05651923
320.80 0.05701461
320.90 0.05747044
321.00 0.05786031
321.10 0.0581725
321.20 0.05841873
321.30 0.0586254
321.40 0.05881654
321.50 0.05900461
321.60 0.05919272
321.70 0.05938086
321.80 0.059569
321.90 0.05975715
322.00 0.05994531
322.10 0.06013346
322.20 0.06032161
322.30 0.06050974
322.40 0.06069782
322.50 0.06088582
322.60 0.06107367
322.70 0.06127272
322.80 0.06152853
322.90 0.06192883
323.00 0.06257005
323.10 0.063495
323.20 0.06466087
323.30 0.06597123
323.40 0.06733835
323.50 0.06871667
323.60 0.07009485
323.70 0.07147293
323.80 0.07285097
323.90 0.07422899
324.00 0.07560701
324.10 0.07698503
324.20 0.07836305
324.30 0.07974107
324.40 0.0811191
324.50 0.08249714
324.60 0.08387521
324.70 0.08525145
324.80 0.08661848
324.90 0.08796204
325.00 0.08926646
325.10 0.09052479
325.20 0.09174399
325.30 0.09293971
325.40 0.09412622
325.50 0.0953109
325.60 0.09649561
325.70 0.09768034
325.80 0.09886507
325.90 0.1000498
326.00 0.1012345
326.10 0.1024193
326.20 0.103604
326.30 0.1047887
326.40 0.1059735
326.50 0.1071581
326.60 0.1083428
326.70 0.1095313
326.80 0.1107397
326.90 0.1119987
327.00 0.1133421
327.10 0.1147848
327.20 0.1163118
327.30 0.1178895
327.40 0.119487
327.50 0.1210884
327.60 0.1226898
327.70 0.1242911
327.80 0.1258925
327.90 0.1274938
328.00 0.1290951
328.10 0.1306964
328.20 0.1322978
328.30 0.1338991
328.40 0.1355006
328.50 0.1371022
328.60 0.1387042
328.70 0.1402831
328.80 0.1417454
328.90 0.142911
329.00 0.1435816
329.10 0.1436693
329.20 0.1432622
329.30 0.1425582
329.40 0.1417377
329.50 0.1408941
329.60 0.1400509
329.70 0.1392078
329.80 0.1383648
329.90 0.1375218
330.00 0.1366789
330.10 0.135836
330.20 0.134993
330.30 0.13415
330.40 0.133307
330.50 0.1324638
330.60 0.1316204
330.70 0.1307941
330.80 0.1300542
330.90 0.1295346
331.00 0.129382
331.10 0.1296619
331.20 0.1303088
331.30 0.131176
331.40 0.1321296
331.50 0.1331003
331.60 0.1340707
331.70 0.1350411
331.80 0.1360113
331.90 0.1369816
332.00 0.1379518
332.10 0.138922
332.20 0.1398923
332.30 0.1408625
332.40 0.1418328
332.50 0.1428032
332.60 0.1437737
332.70 0.1447334
332.80 0.1456384
332.90 0.1464039
333.00 0.1469371
333.10 0.1471964
333.20 0.1472233
333.30 0.1471108
333.40 0.1469436
333.50 0.1467655
333.60 0.1465876
333.70 0.1464098
333.80 0.146232
333.90 0.1460542
334.00 0.1458764
334.10 0.1456986
334.20 0.1455207
334.30 0.1453425
334.40 0.1451642
334.50 0.1449857
334.60 0.1449555
334.70 0.1454093
334.80 0.1464761
334.90 0.1475585
335.00 0.14752
335.10 0.14605
335.20 0.1449364
335.30 0.1475223
335.40 0.156132
335.50 0.1694482
335.60 0.1823699
335.70 0.1889805
335.80 0.1863642
335.90 0.1760507
336.00 0.1623829
336.10 0.1498314
336.20 0.1415136
336.30 0.1387347
336.40 0.1404345
336.50 0.1433175
336.60 0.1438275
336.70 0.1410978
336.80 0.138055
336.90 0.1391234
337.00 0.146436
337.10 0.157755
337.20 0.1677534
337.30 0.1716757
337.40 0.1686771
337.50 0.1623504
337.60 0.1579789
337.70 0.1586172
337.80 0.1632975
337.90 0.1688033
338.00 0.172676
338.10 0.1742393
338.20 0.1731369
338.30 0.1681996
338.40 0.1590283
338.50 0.1483343
338.60 0.1415184
338.70 0.1427896
338.80 0.1512367
338.90 0.1611188
339.00 0.166478
339.10 0.1660191
339.20 0.1639073
339.30 0.1656729
339.40 0.1731196
339.50 0.183156
339.60 0.1911398
339.70 0.1947789
339.80 0.1947173
339.90 0.1922354
340.00 0.1878431
340.10 0.1820665
340.20 0.1761218
340.30 0.1709321
340.40 0.165874
340.50 0.1594297
340.60 0.1512325
340.70 0.1429123
340.80 0.1368035
340.90 0.1342335
341.00 0.1351133
341.10 0.1386323
341.20 0.1438568
341.30 0.1496899
341.40 0.1548392
341.50 0.1583166
341.60 0.1600255
341.70 0.1608037
341.80 0.1617866
341.90 0.1635695
342.00 0.1656792
342.10 0.1666672
342.20 0.1649909
342.30 0.16031
342.40 0.1541855
342.50 0.1492888
342.60 0.1476061
342.70 0.1492001
342.80 0.1524684
342.90 0.1554089
343.00 0.1568514
343.10 0.1569829
343.20 0.1569123
343.30 0.1575923
343.40 0.1589895
343.50 0.160281
343.60 0.1607252
343.70 0.1601185
343.80 0.1586186
343.90 0.1565969
344.00 0.1547324
344.10 0.1538104
344.20 0.1540359
344.30 0.1546871
344.40 0.1547487
344.50 0.1538838
344.60 0.1527066
344.70 0.152244
344.80 0.1532811
344.90 0.1560953
345.00 0.1605399
345.10 0.1661554
345.20 0.1721932
345.30 0.1776162
345.40 0.1812658
345.50 0.1824195
345.60 0.181395
345.70 0.1794971
345.80 0.1781258
345.90 0.1777973
346.00 0.1779125
346.10 0.1772815
346.20 0.1749536
346.30 0.170965
346.40 0.1665799
346.50 0.1635544
346.60 0.1627403
346.70 0.1633452
346.80 0.1636683
346.90 0.1624859
347.00 0.1596811
347.10 0.1560101
347.20 0.152728
347.30 0.1512338
347.40 0.1524175
347.50 0.1559577
347.60 0.1604719
347.70 0.1645791
347.80 0.167824
347.90 0.1706624
348.00 0.1737436
348.10 0.1771841
348.20 0.1803348
348.30 0.1822099
348.40 0.1822863
348.50 0.1809616
348.60 0.1791445
348.70 0.1774255
348.80 0.1757995
348.90 0.1740756
349.00 0.1722629
349.10 0.1705224
349.20 0.1689986
349.30 0.167899
349.40 0.1675962
349.50 0.168328
349.60 0.1697314
349.70 0.1708982
349.80 0.1711779
349.90 0.1710926
350.00 0.1722739
350.10 0.1761779
350.20 0.1826901
350.30 0.189978
350.40 0.1957427
350.50 0.1986722
350.60 0.1988738
350.70 0.1972589
350.80 0.1947687
350.90 0.1919294
351.00 0.1886472
351.10 0.1842524
351.20 0.1780224
351.30 0.1701096
351.40 0.1620496
351.50 0.1560226
351.60 0.153308
351.70 0.1533821
351.80 0.1545264
351.90 0.1552595
352.00 0.1551653
352.10 0.1545442
352.20 0.1537455
352.30 0.1530717
352.40 0.1531728
352.50 0.1552404
352.60 0.1603533
352.70 0.168362
352.80 0.1774622
352.90 0.185202
353.00 0.1902878
353.10 0.1934111
353.20 0.196189
353.30 0.1995174
353.40 0.2031775
353.50 0.2067297
353.60 0.2102635
353.70 0.2141174
353.80 0.2182863
353.90 0.2223991
354.00 0.2259702
354.10 0.2283688
354.20 0.2288332
354.30 0.2270589
354.40 0.2238571
354.50 0.2208785
354.60 0.2193804
354.70 0.2192988
354.80 0.2195968
354.90 0.2193525
355.00 0.2183938
355.10 0.2170912
355.20 0.2158389
355.30 0.2148196
355.40 0.2141217
355.50 0.2137836
355.60 0.2135897
355.70 0.2129361
355.80 0.2111117
355.90 0.2078896
356.00 0.2037973
356.10 0.1996874
356.20 0.1960071
356.30 0.1924406
356.40 0.188255
356.50 0.1830962
356.60 0.1775692
356.70 0.1730209
356.80 0.1706018
356.90 0.1704151
357.00 0.1715264
357.10 0.1726861
357.20 0.1729828
357.30 0.1720285
357.40 0.1698442
357.50 0.1667373
357.60 0.1632116
357.70 0.1597914
357.80 0.1568078
357.90 0.1543244
358.00 0.1523217
358.10 0.1510187
358.20 0.1509582
358.30 0.1526511
358.40 0.1560636
358.50 0.1604327
358.60 0.1645616
358.70 0.1673324
358.80 0.1681717
358.90 0.1673277
359.00 0.1658885
359.10 0.1653736
359.20 0.1668977
359.30 0.1703927
359.40 0.1745197
359.50 0.1775061
359.60 0.1783483
359.70 0.1774345
359.80 0.1761052
359.90 0.1755205
360.00 0.1757387
360.10 0.1757188
360.20 0.1742083
360.30 0.1707496
360.40 0.1660635
360.50 0.1616895
360.60 0.1592711
360.70 0.1599024
360.80 0.1636341
360.90 0.1693589
361.00 0.1753557
361.10 0.1802692
361.20 0.1837521
361.30 0.186199
361.40 0.1879512
361.50 0.188935
361.60 0.1891318
361.70 0.1890888
361.80 0.1896213
361.90 0.190985
362.00 0.1925701
362.10 0.1935401
362.20 0.1936012
362.30 0.1930853
362.40 0.1925489
362.50 0.1924566
362.60 0.1929632
362.70 0.1936465
362.80 0.1935828
362.90 0.1920816
363.00 0.1894896
363.10 0.1870885
363.20 0.1860616
363.30 0.1866121
363.40 0.1880486
363.50 0.1895098
363.60 0.1905182
363.70 0.1910272
363.80 0.1911341
363.90 0.1907995
364.00 0.189777
364.10 0.1877847
364.20 0.1847905
364.30 0.1811706
364.40 0.1776307
364.50 0.1749757
364.60 0.1737986
364.70 0.1741494
364.80 0.1754633
364.90 0.176988
365.00 0.1784706
365.10 0.1804137
365.20 0.1834561
365.30 0.187423
365.40 0.1910941
365.50 0.193049
365.60 0.1928388
365.70 0.1913262
365.80 0.1898541
365.90 0.189156
366.00 0.1890807
366.10 0.189205
366.20 0.1894997
366.30 0.1902716
366.40 0.1916007
366.50 0.1930309
366.60 0.1938096
366.70 0.1933743
366.80 0.1916457
366.90 0.1889845
367.00 0.1860036
367.10 0.1833986
367.20 0.1818018
367.30 0.1816191
367.40 0.1828547
367.50 0.185075
367.60 0.1876208
367.70 0.1899497
367.80 0.1918618
367.90 0.1934632
368.00 0.1949421
368.10 0.1963431
368.20 0.1974877
368.30 0.1980614
368.40 0.1978178
368.50 0.1968104
368.60 0.1954885
368.70 0.1945112
368.80 0.1943449
368.90 0.1949785
369.00 0.1960534
369.10 0.1972858
369.20 0.1986612
369.30 0.2001663
369.40 0.2014485
369.50 0.201903
369.60 0.201197
369.70 0.1996775
369.80 0.1982509
369.90 0.1978689
370.00 0.1990344
370.10 0.2016048
370.20 0.2049529
370.30 0.2083052
370.40 0.2110079
370.50 0.2126372
370.60 0.2130462
370.70 0.2124821
370.80 0.2116003
370.90 0.2111729
371.00 0.2115872
371.10 0.2125246
371.20 0.2130816
371.30 0.2122364
371.40 0.2094199
371.50 0.2048931
371.60 0.1997091
371.70 0.1952201
371.80 0.1924601
371.90 0.1918094
372.00 0.1930266
372.10 0.195319
372.20 0.1972865
372.30 0.1971657
372.40 0.1936453
372.50 0.1868939
372.60 0.17887
372.70 0.172445
372.80 0.16994
372.90 0.1721092
373.00 0.1780834
373.10 0.1860018
373.20 0.1937837
373.30 0.1996921
373.40 0.2026809
373.50 0.2024697
373.60 0.1993509
373.70 0.1939114
373.80 0.1869074
373.90 0.179335
374.00 0.1724427
374.10 0.1675157
374.20 0.1655475
374.30 0.1670655
374.40 0.1721719
374.50 0.1805809
374.60 0.1915121
374.70 0.2035417
374.80 0.2146909
374.90 0.222929
375.00 0.2268701
375.10 0.2262194
375.20 0.2217246
375.30 0.214787
375.40 0.207031
375.50 0.199963
375.60 0.1946128
375.70 0.1912574
375.80 0.1894378
375.90 0.1883391
376.00 0.1873554
376.10 0.1865334
376.20 0.1866683
376.30 0.1889742
376.40 0.194492
376.50 0.2036411
376.60 0.2162092
376.70 0.2314895
376.80 0.248183
376.90 0.2641253
377.00 0.2764633
377.10 0.2826335
377.20 0.2815352
377.30 0.2739577
377.40 0.2619996
377.50 0.2480764
377.60 0.2342289
377.70 0.2219255
377.80 0.21201
377.90 0.2046569
378.00 0.1994774
378.10 0.1958551
378.20 0.1933061
378.30 0.1915698
378.40 0.1904653
378.50 0.1898431
378.60 0.1897268
378.70 0.1903908
378.80 0.1922429
378.90 0.19574
379.00 0.2015267
379.10 0.2105155
379.20 0.2235081
379.30 0.2404949
379.40 0.2602216
379.50 0.28037
379.60 0.2980931
379.70 0.3105824
379.80 0.3157039
379.90 0.3126628
380.00 0.3024112
380.10 0.2873703
380.20 0.2705072
380.30 0.2543183
380.40 0.240303
380.50 0.2290028
380.60 0.2202964
380.70 0.2136537
380.80 0.2083239
380.90 0.2036613
381.00 0.1994431
381.10 0.1958603
381.20 0.193134
381.30 0.1911532
381.40 0.1895832
381.50 0.188339
381.60 0.1877611
381.70 0.1881778
381.80 0.1892842
381.90 0.1900726
382.00 0.1895534
382.10 0.1880481
382.20 0.1873892
382.30 0.1917689
382.40 0.2018682
382.50 0.21399
382.60 0.226461
382.70 0.2441861
382.80 0.2765032
382.90 0.3267053
383.00 0.38632
383.10 0.4356442
383.20 0.458514
383.30 0.4584547
383.40 0.4464056
383.50 0.428006
383.60 0.4005362
383.70 0.3616585
383.80 0.315803
383.90 0.2761135
384.00 0.2599027
384.10 0.2744148
384.20 0.3045492
384.30 0.3219666
384.40 0.3103245
384.50 0.2767103
384.60 0.2368939
384.70 0.211078
384.80 0.2152954
384.90 0.2569034
385.00 0.3174263
385.10 0.3587591
385.20 0.3561446
385.30 0.3204015
385.40 0.2802729
385.50 0.2535909
385.60 0.242633
385.70 0.244349
385.80 0.2539648
385.90 0.262938
386.00 0.2627771
386.10 0.2517811
386.20 0.2320798
386.30 0.2032932
386.40 0.166738
386.50 0.1349585
386.60 0.1286594
386.70 0.1610519
386.80 0.2247592
386.90 0.2934161
387.00 0.3391587
387.10 0.3495397
387.20 0.3331505
387.30 0.3100083
387.40 0.2938659
387.50 0.2817411
387.60 0.2615832
387.70 0.2309824
387.80 0.2033902
387.90 0.1943742
388.00 0.205257
388.10 0.2235128
388.20 0.238527
388.30 0.2468864
388.40 0.2455879
388.50 0.2347618
388.60 0.2272209
388.70 0.2427907
388.80 0.2852716
388.90 0.3318962
389.00 0.3542949
389.10 0.3462477
389.20 0.3207034
389.30 0.2896132
389.40 0.2555916
389.50 0.218758
389.60 0.1840312
389.70 0.1540975
389.80 0.1400418
389.90 0.1465732
390.00 0.1713081
390.10 0.2045412
390.20 0.2284497
390.30 0.2405253
390.40 0.2495625
390.50 0.2589278
390.60 0.2711976
390.70 0.2862079
390.80 0.2990128
390.90 0.2998071
391.00 0.2817392
391.10 0.2493408
391.20 0.2186374
391.30 0.2142261
391.40 0.23919
391.50 0.2817928
391.60 0.3199439
391.70 0.3348614
391.80 0.3233598
391.90 0.2961161
392.00 0.2660608
392.10 0.2429738
392.20 0.2307228
392.30 0.2279713
392.40 0.2262089
392.50 0.2242494
392.60 0.2307289
392.70 0.2504742
392.80 0.2783376
392.90 0.30223
393.00 0.3271161
393.10 0.3770536
393.20 0.4710495
393.30 0.591668
393.40 0.6767275
393.50 0.6675492
393.60 0.5634457
393.70 0.4237344
393.80 0.3173301
393.90 0.2731827
394.00 0.2721191
394.10 0.2756085
394.20 0.2586853
394.30 0.225298
394.40 0.1914581
394.50 0.1764563
394.60 0.1858967
394.70 0.209297
394.80 0.2268908
394.90 0.2332762
395.00 0.2335863
395.10 0.2353481
395.20 0.2367357
395.30 0.2324406
395.40 0.2262489
395.50 0.2334842
395.60 0.2568907
395.70 0.2767154
395.80 0.2758539
395.90 0.2534824
396.00 0.2250011
396.10 0.2053348
396.20 0.199092
396.30 0.2084027
396.40 0.2373286
396.50 0.2946949
396.60 0.3856984
396.70 0.4997541
396.80 0.6058891
396.90 0.6637737
397.00 0.6462174
397.10 0.5598609
397.20 0.4470098
397.30 0.3606395
397.40 0.330871
397.50 0.3480194
397.60 0.3771226
397.70 0.3892353
397.80 0.3798297
397.90 0.3606995
398.00 0.34461
398.10 0.3376318
398.20 0.3428539
398.30 0.3622274
398.40 0.3927065
398.50 0.4235925
398.60 0.4409117
398.70 0.4361696
398.80 0.4119666
398.90 0.376016
399.00 0.3496429
399.10 0.3543681
399.20 0.3938636
399.30 0.4482851
399.40 0.4888716
399.50 0.4972012
399.60 0.471374
399.70 0.422264
399.80 0.3714811
399.90 0.3427976
400.00 0.3427042
400.10 0.3561948
400.20 0.3651461
400.30 0.3673617
400.40 0.3719018
400.50 0.3819366
400.60 0.3903283
400.70 0.3892061
400.80 0.3845668
400.90 0.3890715
401.00 0.401038
401.10 0.4059612
401.20 0.3925981
401.30 0.371151
401.40 0.3624566
401.50 0.3748177
401.60 0.395276
401.70 0.4069541
401.80 0.4030775
401.90 0.3939471
402.00 0.3889562
402.10 0.3866961
402.20 0.3845213
402.30 0.3875242
402.40 0.3998195
402.50 0.4133765
402.60 0.4124207
402.70 0.3883532
402.80 0.3482557
402.90 0.3083333
403.00 0.2826039
403.10 0.2737146
403.20 0.2714258
403.30 0.2643376
403.40 0.2544247
403.50 0.2564625
403.60 0.2809058
403.70 0.3225974
403.80 0.3660281
403.90 0.401229
404.00 0.4306745
404.10 0.4599346
404.20 0.4855058
404.30 0.4919425
404.40 0.4651573
404.50 0.4091311
404.60 0.3480839
404.70 0.3085364
404.80 0.3007549
404.90 0.3157984
405.00 0.3349542
405.10 0.3440093
405.20 0.3417438
405.30 0.3357682
405.40 0.3320674
405.50 0.3309992
405.60 0.3312944
405.70 0.3347648
405.80 0.3431894
405.90 0.3537039
406.00 0.3613103
406.10 0.3627965
406.20 0.3598406
406.30 0.3588635
406.40 0.3674047
406.50 0.3869975
406.60 0.4090294
406.70 0.4187101
406.80 0.4068884
406.90 0.3770219
407.00 0.3427535
407.10 0.3192431
407.20 0.3152912
407.30 0.3266656
407.40 0.339794
407.50 0.3423894
407.60 0.327798
407.70 0.3037451
407.80 0.2852957
407.90 0.2826716
408.00 0.2960416
408.10 0.3211874
408.20 0.3541746
408.30 0.3873011
408.40 0.4069717
408.50 0.404056
408.60 0.3864769
408.70 0.3733032
408.80 0.3719086
408.90 0.3694878
409.00 0.3536828
409.10 0.3342344
409.20 0.3346916
409.30 0.3635885
409.40 0.4032199
409.50 0.4276494
409.60 0.4247639
409.70 0.402624
409.80 0.3832352
409.90 0.3907931
410.00 0.4345832
410.10 0.4974719
410.20 0.5444111
410.30 0.5494162
410.40 0.5135864
410.50 0.4577109
410.60 0.4034641
410.70 0.3662353
410.80 0.3468754
410.90 0.3450164
411.00 0.3547172
411.10 0.365151
411.20 0.3682724
411.30 0.3635844
411.40 0.3560031
411.50 0.3509689
411.60 0.354301
411.70 0.3657812
411.80 0.3820872
411.90 0.4010043
412.00 0.415206
412.10 0.4142186
412.20 0.3933155
412.30 0.3632609
412.40 0.3440608
412.50 0.347219
412.60 0.3669585
412.70 0.3884147
412.80 0.4016899
412.90 0.4041791
413.00 0.3940107
413.10 0.3701179
413.20 0.3375937
413.30 0.3074687
413.40 0.2872609
413.50 0.2747623
413.60 0.2636278
413.70 0.2531352
413.80 0.2490675
413.90 0.2564269
414.00 0.2735736
414.10 0.2928517
414.20 0.3089864
414.30 0.3139792
414.40 0.3077296
414.50 0.2977457
414.60 0.2953577
414.70 0.306538
414.80 0.3287301
414.90 0.3500555
415.00 0.3632571
415.10 0.3711716
415.20 0.3756533
415.30 0.373874
415.40 0.3682206
415.50 0.3637951
415.60 0.3593775
415.70 0.3465514
415.80 0.3211323
415.90 0.2927471
416.00 0.278469
416.10 0.2861648
416.20 0.3111459
416.30 0.3444202
416.40 0.3797652
416.50 0.4113798
416.60 0.4314561
416.70 0.4268064
416.80 0.3991889
416.90 0.3661612
417.00 0.3462847
417.10 0.341017
417.20 0.3330106
417.30 0.3137088
417.40 0.2889977
417.50 0.2687073
417.60 0.25645
417.70 0.252322
417.80 0.2603799
417.90 0.2872387
418.00 0.3257328
418.10 0.3610619
418.20 0.3802013
418.30 0.3830183
418.40 0.3792751
418.50 0.3746128
418.60 0.3670414
418.70 0.3501344
418.80 0.3298763
418.90 0.3153971
419.00 0.3083593
419.10 0.304515
419.20 0.3038921
419.30 0.3119973
419.40 0.3301288
419.50 0.3496958
419.60 0.3587147
419.70 0.3534863
419.80 0.3416386
419.90 0.3329687
420.00 0.3281642
420.10 0.3204434
420.20 0.3075422
420.30 0.2983476
420.40 0.2998872
420.50 0.3059142
420.60 0.3040113
420.70 0.2885311
420.80 0.2673773
420.90 0.2504972
421.00 0.244585
421.10 0.2501163
421.20 0.2638163
421.30 0.2807433
421.40 0.2943754
421.50 0.2988727
421.60 0.2918806
421.70 0.277159
421.80 0.2610409
421.90 0.2459511
422.00 0.228928
422.10 0.2060647
422.20 0.1781796
422.30 0.1511292
422.40 0.1308754
422.50 0.1185282
422.60 0.1102356
422.70 0.1038121
422.80 0.09695527
422.90 0.09682833
423.00 0.1089422
423.10 0.1309559
423.20 0.1558791
423.30 0.1795502
423.40 0.2034491
423.50 0.2313281
423.60 0.2608783
423.70 0.2825621
423.80 0.2899066
423.90 0.2815173
424.00 0.2631738
424.10 0.244724
424.20 0.2330194
424.30 0.2289875
424.40 0.2321616
424.50 0.2415793
424.60 0.2529061
424.70 0.2573996
424.80 0.2514057
424.90 0.2418423
425.00 0.242809
425.10 0.2581017
425.20 0.2748253
425.30 0.2764975
425.40 0.2599534
425.50 0.2374482
425.60 0.2248052
425.70 0.2282873
425.80 0.2421004
425.90 0.256296
426.00 0.2651389
426.10 0.2694036
426.20 0.2717216
426.30 0.2741888
426.40 0.2787499
426.50 0.2851216
426.60 0.2873707
426.70 0.2779829
426.80 0.2599254
426.90 0.2497069
427.00 0.2603435
427.10 0.2816552
427.20 0.2950052
427.30 0.2896706
427.40 0.2707808
427.50 0.251334
427.60 0.242294
427.70 0.2492511
427.80 0.271981
427.90 0.3017674
428.00 0.3270529
428.10 0.3399395
428.20 0.3391158
428.30 0.3285039
428.40 0.3130157
428.50 0.2959171
428.60 0.2787223
428.70 0.2639804
428.80 0.2559633
428.90 0.257655
429.00 0.2672519
429.10 0.2806135
429.20 0.2914834
429.30 0.2970662
429.40 0.2986197
429.50 0.2995359
429.60 0.3038221
429.70 0.3120976
429.80 0.319159
429.90 0.3180487
430.00 0.307604
430.10 0.2951922
430.20 0.2915507
430.30 0.3033516
430.40 0.327689
430.50 0.3508112
430.60 0.3548872
430.70 0.3317942
430.80 0.2924746
430.90 0.2607221
431.00 0.2552005
431.10 0.2760096
431.20 0.3067813
431.30 0.327851
431.40 0.3298141
431.50 0.3176011
431.60 0.304676
431.70 0.3022909
431.80 0.3137062
431.90 0.3358062
432.00 0.3611511
432.10 0.3815018
432.20 0.3911619
432.30 0.3924674
432.40 0.3886929
432.50 0.3773276
432.60 0.353732
432.70 0.3223554
432.80 0.2995774
432.90 0.2993444
433.00 0.3189211
433.10 0.3435539
433.20 0.3631787
433.30 0.3779022
433.40 0.3907777
433.50 0.4038611
433.60 0.4204484
433.70 0.4519678
433.80 0.5163263
433.90 0.6124132
434.00 0.7136712
434.10 0.7758211
434.20 0.7689127
434.30 0.7015409
434.40 0.6115948
434.50 0.535722
434.60 0.4894917
434.70 0.4696814
434.80 0.4642855
434.90 0.4575845
435.00 0.4349387
435.10 0.3925989
435.20 0.3429718
435.30 0.3065735
435.40 0.2983002
435.50 0.3187135
435.60 0.3545802
435.70 0.3873098
435.80 0.4044974
435.90 0.4053849
436.00 0.3961662
436.10 0.3832723
436.20 0.3745453
436.30 0.3742219
436.40 0.3846161
436.50 0.3969195
436.60 0.398325
436.70 0.3898774
436.80 0.3848067
436.90 0.3924177
437.00 0.4075862
437.10 0.4176736
437.20 0.415918
437.30 0.4051404
437.40 0.3925527
437.50 0.3847097
437.60 0.3834346
437.70 0.3847517
437.80 0.3828413
437.90 0.3768024
438.00 0.3724838
438.10 0.3739026
438.20 0.3758664
438.30 0.370587
438.40 0.3613617
438.50 0.361044
438.60 0.3767336
438.70 0.4002629
438.80 0.4160792
438.90 0.4168026
439.00 0.4092467
439.10 0.4037405
439.20 0.4031774
439.30 0.4025187
439.40 0.3971125
439.50 0.3898187
439.60 0.3878972
439.70 0.3946819
439.80 0.4063165
439.90 0.4187507
440.00 0.4311864
440.10 0.4461978
440.20 0.4631515
440.30 0.4752467
440.40 0.4761872
440.50 0.4613373
440.60 0.4364315
440.70 0.4134146
440.80 0.4049577
440.90 0.4204542
441.00 0.4528864
441.10 0.4846585
441.20 0.4996846
441.30 0.496803
441.40 0.4896775
441.50 0.4922143
441.60 0.5065024
441.70 0.5248221
441.80 0.5371523
441.90 0.5359726
442.00 0.5191463
442.10 0.492577
442.20 0.4671309
442.30 0.4497314
442.40 0.4392557
442.50 0.4328784
442.60 0.4327292
442.70 0.4421681
442.80 0.4583492
442.90 0.4744162
443.00 0.4877793
443.10 0.501048
443.20 0.5140857
443.30 0.5200369
443.40 0.5144666
443.50 0.5048096
443.60 0.5040988
443.70 0.5174092
443.80 0.5417382
443.90 0.5670188
444.00 0.5890455
444.10 0.6077239
444.20 0.621329
444.30 0.6269227
444.40 0.6243006
444.50 0.6175445
444.60 0.6125434
444.70 0.6125239
444.80 0.6172982
444.90 0.6250151
445.00 0.6327959
445.10 0.6368803
445.20 0.6323211
445.30 0.6137338
445.40 0.5796328
445.50 0.5381329
445.60 0.5061175
445.70 0.4998292
445.80 0.5211332
445.90 0.5567567
446.00 0.5899254
446.10 0.6111876
446.20 0.6198286
446.30 0.6199649
446.40 0.6176632
446.50 0.6182135
446.60 0.6230708
446.70 0.6296305
446.80 0.6351435
446.90 0.6406028
447.00 0.6494518
447.10 0.6640574
447.20 0.6840824
447.30 0.7060175
447.40 0.7234782
447.50 0.7304943
447.60 0.7273865
447.70 0.7221683
447.80 0.7231922
447.90 0.7297873
448.00 0.7337021
448.10 0.7240829
448.20 0.7055702
448.30 0.6946899
448.40 0.7020133
448.50 0.7266847
448.60 0.7549266
448.70 0.7705254
448.80 0.7663151
448.90 0.7487852
449.00 0.7336508
449.10 0.7342241
449.20 0.7504709
449.30 0.7679641
449.40 0.7695381
449.50 0.7516261
449.60 0.7285528
449.70 0.7187013
449.80 0.7286579
449.90 0.7507565
450.00 0.7731377
450.10 0.7896929
450.20 0.8009457
450.30 0.80943
450.40 0.8154934
450.50 0.8153909
450.60 0.8045162
450.70 0.7835142
450.80 0.7594541
450.90 0.7406504
451.00 0.7303159
451.10 0.7258718
451.20 0.7237275
451.30 0.7223705
451.40 0.7207829
451.50 0.7163214
451.60 0.7068823
451.70 0.6964914
451.80 0.6961915
451.90 0.7144109
452.00 0.7461076
452.10 0.7761468
452.20 0.7945916
452.30 0.8047411
452.40 0.8139648
452.50 0.821313
452.60 0.8197532
452.70 0.8081435
452.80 0.7949327
452.90 0.7899089
453.00 0.7949693
453.10 0.8028612
453.20 0.8033478
453.30 0.7911487
453.40 0.7705209
453.50 0.7540321
453.60 0.7552056
453.70 0.779489
453.80 0.8203265
453.90 0.8628103
454.00 0.8940971
454.10 0.9107363
454.20 0.9150318
454.30 0.9059251
454.40 0.8782354
454.50 0.8323935
454.60 0.7809888
454.70 0.7423827
454.80 0.7279856
454.90 0.7371071
455.00 0.7602199
455.10 0.7849441
455.20 0.8019505
455.30 0.809155
455.40 0.8118495
455.50 0.8179632
455.60 0.8320982
455.70 0.8535614
455.80 0.8784686
455.90 0.9021497
456.00 0.9209271
456.10 0.933308
456.20 0.9403006
456.30 0.9448936
456.40 0.9509425
456.50 0.9624578
456.60 0.9820039
456.70 1.007574
456.80 1.031841
456.90 1.04673
457.00 1.050804
457.10 1.051468
457.20 1.057791
457.30 1.071483
457.40 1.084464
457.50 1.084464
457.60 1.064261
457.70 1.027565
457.80 0.9875868
457.90 0.9593571
458.00 0.9505278
458.10 0.9565303
458.20 0.9634988
458.30 0.9558017
458.40 0.9249396
458.50 0.8754624
458.60 0.8221827
458.70 0.7802675
458.80 0.757308
458.90 0.7538387
459.00 0.7674298
459.10 0.7933435
459.20 0.8227223
459.30 0.8465507
459.40 0.8638008
459.50 0.8812374
459.60 0.9036638
459.70 0.9264667
459.80 0.939746
459.90 0.9392993
460.00 0.9312782
460.10 0.9257731
460.20 0.9272459
460.30 0.9298631
460.40 0.9212369
460.50 0.8934837
460.60 0.8535616
460.70 0.8232995
460.80 0.8266361
460.90 0.8721661
461.00 0.9458258
461.10 1.02123
461.20 1.07767
461.30 1.110731
461.40 1.127958
461.50 1.136842
461.60 1.139309
461.70 1.135329
461.80 1.127551
461.90 1.121894
462.00 1.125336
462.10 1.141479
462.20 1.164551
462.30 1.176684
462.40 1.157167
462.50 1.099237
462.60 1.017241
462.70 0.9369154
462.80 0.8792163
462.90 0.8519096
463.00 0.8513016
463.10 0.8672053
463.20 0.8870578
463.30 0.900792
463.40 0.9044782
463.50 0.9000433
463.60 0.8906399
463.70 0.8774717
463.80 0.8630996
463.90 0.8545688
464.00 0.8592451
464.10 0.8774671
464.20 0.9019021
464.30 0.9238824
464.40 0.9387284
464.50 0.9456539
464.60 0.9471714
464.70 0.9484647
464.80 0.9532401
464.90 0.9595645
465.00 0.9618912
465.10 0.9586261
465.20 0.9554922
465.30 0.9585879
465.40 0.9662031
465.50 0.9711517
465.60 0.9708216
465.70 0.9738329
465.80 0.9940141
465.90 1.036293
466.00 1.08922
466.10 1.131675
466.20 1.148853
466.30 1.14402
466.40 1.133089
466.50 1.126556
466.60 1.119361
466.70 1.09805
466.80 1.055319
466.90 0.9953798
467.00 0.9275353
467.10 0.8604646
467.20 0.8037305
467.30 0.7691652
467.40 0.7650954
467.50 0.7880099
467.60 0.8207884
467.70 0.8427713
467.80 0.8440003
467.90 0.8303169
468.00 0.8158704
468.10 0.811311
468.20 0.8184357
468.30 0.8339556
468.40 0.8549832
468.50 0.8797801
468.60 0.9050669
468.70 0.9255109
468.80 0.9381435
468.90 0.9463653
469.00 0.956949
469.10 0.9722086
469.20 0.9864914
469.30 0.9918532
469.40 0.9871818
469.50 0.9797206
469.60 0.9780057
469.70 0.9849221
469.80 0.9978734
469.90 1.013197
470.00 1.027476
470.10 1.037202
470.20 1.041507
470.30 1.044136
470.40 1.048611
470.50 1.052063
470.60 1.047985
470.70 1.036019
470.80 1.02358
470.90 1.016753
471.00 1.014702
471.10 1.013067
471.20 1.008255
471.30 0.9965719
471.40 0.9736577
471.50 0.9401475
471.60 0.9070975
471.70 0.8906374
471.80 0.9000522
471.90 0.9308122
472.00 0.9679783
472.10 0.9967934
472.20 1.011345
472.30 1.015908
472.40 1.019404
472.50 1.026892
472.60 1.035598
472.70 1.039459
472.80 1.036759
472.90 1.032146
473.00 1.031415
473.10 1.036449
473.20 1.046146
473.30 1.059305
473.40 1.074125
473.50 1.085996
473.60 1.088242
473.70 1.077853
473.80 1.060294
473.90 1.046955
474.00 1.046501
474.10 1.057974
474.20 1.072681
474.30 1.083021
474.40 1.088788
474.50 1.095245
474.60 1.107085
474.70 1.124516
474.80 1.14373
474.90 1.160297
475.00 1.171732
475.10 1.177983
475.20 1.181679
475.30 1.188113
475.40 1.202214
475.50 1.222266
475.60 1.235681
475.70 1.224596
475.80 1.179431
475.90 1.105646
476.00 1.016462
476.10 0.9218718
476.20 0.8274003
476.30 0.7416129
476.40 0.678552
476.50 0.6451306
476.60 0.6359226
476.70 0.6386594
476.80 0.6414632
476.90 0.6406099
477.00 0.6392342
477.10 0.6420219
477.20 0.6523327
477.30 0.6716179
477.40 0.6995031
477.50 0.7325514
477.60 0.7624566
477.70 0.778008
477.80 0.7729901
477.90 0.752963
478.00 0.7315897
478.10 0.7198415
478.20 0.7203484
478.30 0.7308891
478.40 0.7496818
478.50 0.7754454
478.60 0.8047766
478.70 0.8318089
478.80 0.8505035
478.90 0.858406
479.00 0.8595693
479.10 0.8621116
479.20 0.8708618
479.30 0.8834455
479.40 0.8944932
479.50 0.9025944
479.60 0.9112578
479.70 0.9242264
479.80 0.9427001
479.90 0.965532
480.00 0.9890772
480.10 1.00709
480.20 1.012301
480.30 0.9992165
480.40 0.9661093
480.50 0.9159588
480.60 0.8567707
480.70 0.7995978
480.80 0.7536931
480.90 0.7229893
481.00 0.7070545
481.10 0.704171
481.20 0.7136182
481.30 0.7350207
481.40 0.7659755
481.50 0.8003958
481.60 0.8288938
481.70 0.8434256
481.80 0.8435504
481.90 0.8377274
482.00 0.8370023
482.10 0.8466142
482.20 0.8637142
482.30 0.8824822
482.40 0.8988103
482.50 0.9099789
482.60 0.9137932
482.70 0.9102568
482.80 0.9031221
482.90 0.8968182
483.00 0.8917242
483.10 0.8852688
483.20 0.8783221
483.30 0.8777382
483.40 0.8905044
483.50 0.9162816
483.60 0.9479574
483.70 0.9793112
483.80 1.008293
483.90 1.031798
484.00 1.040929
484.10 1.025868
484.20 0.9881096
484.30 0.9463801
484.40 0.9254767
484.50 0.9345828
484.60 0.9560098
484.70 0.9594135
484.80 0.929172
484.90 0.8761558
485.00 0.8240857
485.10 0.7905569
485.20 0.7811237
485.30 0.7930767
485.40 0.8174092
485.50 0.8396793
485.60 0.8492782
485.70 0.8534235
485.80 0.8818742
485.90 0.9703748
486.00 1.126466
486.10 1.304893
486.20 1.425132
486.30 1.427854
486.40 1.320856
486.50 1.168878
486.60 1.039166
486.70 0.9609193
486.80 0.9290823
486.90 0.9281895
487.00 0.9444927
487.10 0.9652123
487.20 0.9798986
487.30 0.9853308
487.40 0.9848144
487.50 0.9819434
487.60 0.9781481
487.70 0.9756093
487.80 0.9780047
487.90 0.9870876
488.00 0.9996879
488.10 1.00946
488.20 1.012497
488.30 1.010971
488.40 1.010966
488.50 1.016522
488.60 1.027012
488.70 1.039955
488.80 1.054117
488.90 1.067667
489.00 1.075039
489.10 1.070867
489.20 1.057644
489.30 1.045675
489.40 1.043572
489.50 1.050739
489.60 1.059734
489.70 1.064303
489.80 1.064006
489.90 1.062667
490.00 1.064331
490.10 1.070125
490.20 1.079296
490.30 1.093883
490.40 1.11966
490.50 1.159626
490.60 1.207685
490.70 1.251565
490.80 1.283149
490.90 1.303796
491.00 1.319753
491.10 1.335108
491.20 1.348797
491.30 1.356084
491.40 1.352819
491.50 1.339871
491.60 1.323716
491.70 1.311002
491.80 1.302413
491.90 1.294732
492.00 1.289067
492.10 1.292954
492.20 1.3125
492.30 1.344722
492.40 1.379992
492.50 1.412093
492.60 1.442667
492.70 1.474692
492.80 1.503906
492.90 1.519628
493.00 1.514541
493.10 1.492562
493.20 1.466191
493.30 1.447437
493.40 1.442066
493.50 1.449445
493.60 1.465668
493.70 1.486135
493.80 1.506098
493.90 1.521479
494.00 1.530971
494.10 1.537289
494.20 1.545948
494.30 1.561089
494.40 1.582649
494.50 1.608527
494.60 1.63829
494.70 1.67344
494.80 1.713556
494.90 1.752838
495.00 1.781198
495.10 1.786073
495.20 1.750819
495.30 1.65609
495.40 1.492399
495.50 1.276495
495.60 1.05186
495.70 0.8674787
495.80 0.7522623
495.90 0.7052577
496.00 0.7040086
496.10 0.7198154
496.20 0.7309348
496.30 0.7303778
496.40 0.7252188
496.50 0.7282813
496.60 0.7491053
496.70 0.7896763
496.80 0.8455047
496.90 0.9082096
497.00 0.9671628
497.10 1.012524
497.20 1.038998
497.30 1.047729
497.40 1.044959
497.50 1.038304
497.60 1.033217
497.70 1.031118
497.80 1.03025
497.90 1.027572
498.00 1.019594
498.10 1.00438
498.20 0.9863519
498.30 0.978725
498.40 0.9959572
498.50 1.039662
498.60 1.093807
498.70 1.13652
498.80 1.155899
498.90 1.155211
499.00 1.146358
499.10 1.138843
499.20 1.133531
499.30 1.126489
499.40 1.119422
499.50 1.123052
499.60 1.134047
499.70 1.110654
499.80 0.9921031
499.90 0.758369
500.00 1
500.10 0.8869526
500.20 0.8721694
500.30 0.9076946
500.40 0.8857371
500.50 0.8622325
500.60 0.8778787
500.70 0.8931726
500.80 0.863297
500.90 0.8579065
501.00 0.8962041
501.10 0.9945025
501.20 0.9571131
501.30 0.9261397
501.40 0.8867711
501.50 0.8274951
501.60 0.8469945
501.70 0.8415594
501.80 0.9206789
501.90 1.015865
502.00 1.074587
502.10 1.081124
502.20 1.037345
502.30 1.010826
502.40 1.050178
502.50 1.053125
502.60 1.046563
502.70 1.038933
502.80 1.092732
502.90 1.108351
503.00 1.116232
503.10 1.169002
503.20 1.175236
503.30 1.193054
503.40 1.174648
503.50 1.162454
503.60 1.170042
503.70 1.137005
503.80 1.17748
503.90 1.185753
504.00 1.148824
504.10 1.121347
504.20 1.152208
504.30 1.162766
504.40 1.182182
504.50 1.203448
504.60 1.328142
504.70 1.353211
504.80 1.323184
504.90 1.261998
505.00 1.171859
505.10 1.122507
505.20 1.164758
505.30 1.198534
505.40 1.204554
505.50 1.10803
505.60 1.150154
505.70 1.181652
505.80 1.220855
505.90 1.211018
506.00 1.203338
506.10 1.223228
506.20 1.21
506.30 1.243333
506.40 1.22683
506.50 1.171958
506.60 1.156237
506.70 1.183668
506.80 1.214008
506.90 1.1855
507.00 1.224744
507.10 1.279011
507.20 1.243645
507.30 1.227036
507.40 1.269956
507.50 1.361878
507.60 1.376773
507.70 1.300755
507.80 1.197194
507.90 1.272334
508.00 1.312336
508.10 1.304003
508.20 1.205885
508.30 1.176059
508.40 1.189478
508.50 1.202811
508.60 1.289943
508.70 1.406407
508.80 1.405673
508.90 1.310041
509.00 1.256112
509.10 1.250969
509.20 1.318135
509.30 1.366787
509.40 1.422205
509.50 1.345716
509.60 1.162696
509.70 1.180531
509.80 1.325507
509.90 1.434084
510.00 1.333365
510.10 1.204998
510.20 1.209549
510.30 1.163238
510.40 1.13969
510.50 1.188878
510.60 1.227303
510.70 1.208871
510.80 1.16449
510.90 1.165439
511.00 1.232402
511.10 1.228924
511.20 1.230437
511.30 1.267065
511.40 1.311568
511.50 1.352436
511.60 1.457989
511.70 1.459572
511.80 1.432453
511.90 1.478388
512.00 1.416666
512.10 1.350053
512.20 1.381983
512.30 1.412378
512.40 1.357215
512.50 1.327454
512.60 1.281753
512.70 1.255487
512.80 1.253805
512.90 1.217205
513.00 1.213897
513.10 1.277981
513.20 1.328601
513.30 1.387951
513.40 1.434764
513.50 1.379454
513.60 1.356076
513.70 1.463689
513.80 1.561594
513.90 1.569372
514.00 1.47663
514.10 1.358681
514.20 1.371049
514.30 1.420059
514.40 1.367069
514.50 1.308528
514.60 1.247753
514.70 1.227307
514.80 1.292011
514.90 1.346509
515.00 1.380173
515.10 1.326979
515.20 1.320351
515.30 1.255014
515.40 1.147356
515.50 1.147505
515.60 1.222373
515.70 1.330564
515.80 1.486893
515.90 1.59406
516.00 1.567368
516.10 1.608511
516.20 1.729861
516.30 1.817583
516.40 1.69516
516.50 1.690983
516.60 1.689241
516.70 1.387604
516.80 0.9116847
516.90 0.6621506
517.00 0.5964101
517.10 0.6057919
517.20 0.6021683
517.30 0.631125
517.40 0.6409743
517.50 0.678183
517.60 0.6965339
517.70 0.6863201
517.80 0.7412935
517.90 0.7923128
518.00 0.7432969
518.10 0.7223915
518.20 0.7072693
518.30 0.7465073
518.40 0.788934
518.50 0.8108771
518.60 0.9637091
518.70 1.091902
518.80 1.103241
518.90 1.129269
519.00 1.136036
519.10 1.122792
519.20 1.141492
519.30 1.114518
519.40 1.072888
519.50 1.128651
519.60 1.173091
519.70 1.205669
519.80 1.281876
519.90 1.287404
520.00 1.256475
520.10 1.145102
520.20 1.109678
520.30 1.150612
520.40 1.124406
520.50 0.9777363
520.60 0.8471829
520.70 0.799473
520.80 0.8571543
520.90 0.8788344
521.00 0.7971415
521.10 0.8079925
521.20 1.055694
521.30 1.336866
521.40 1.49334
521.50 1.512628
521.60 1.489519
521.70 1.527562
521.80 1.575541
521.90 1.610111
522.00 1.631928
522.10 1.622036
522.20 1.665142
522.30 1.677151
522.40 1.647103
522.50 1.559359
522.60 1.513872
522.70 1.498486
522.80 1.555774
522.90 1.600046
523.00 1.713144
523.10 1.779923
523.20 1.755752
523.30 1.707473
523.40 1.723112
523.50 1.675697
523.60 1.607117
523.70 1.652398
523.80 1.725903
523.90 1.722466
524.00 1.737206
524.10 1.640026
524.20 1.501204
524.30 1.437729
524.40 1.476315
524.50 1.53504
524.60 1.553214
524.70 1.508014
524.80 1.46032
524.90 1.473362
525.00 1.476519
525.10 1.471894
525.20 1.519688
525.30 1.612221
525.40 1.673157
525.50 1.692609
525.60 1.7188
525.70 1.735102
525.80 1.766986
525.90 1.790965
526.00 1.809311
526.10 1.679341
526.20 1.569367
526.30 1.509225
526.40 1.463069
526.50 1.407509
526.60 1.385303
526.70 1.376796
526.80 1.433722
526.90 1.390741
527.00 1.23055
527.10 1.192011
527.20 1.324402
527.30 1.524148
527.40 1.64517
527.50 1.689284
527.60 1.718389
527.70 1.684808
527.80 1.721444
527.90 1.800248
528.00 1.742653
528.10 1.657653
528.20 1.598547
528.30 1.621077
528.40 1.688395
528.50 1.734716
528.60 1.776074
528.70 1.865731
528.80 1.873841
528.90 1.841273
529.00 1.853777
529.10 1.884296
529.20 1.893926
529.30 1.840987
529.40 1.80871
529.50 1.852927
529.60 1.878398
529.70 1.83702
529.80 1.75762
529.90 1.697245
530.00 1.68439
530.10 1.719485
530.20 1.780594
530.30 1.879573
530.40 1.931571
530.50 1.987395
530.60 2.008103
530.70 1.998122
530.80 1.858208
530.90 1.776595
531.00 1.774556
531.10 1.782846
531.20 1.773203
531.30 1.777709
531.40 1.761413
531.50 1.767493
531.60 1.797391
531.70 1.825526
531.80 1.891748
531.90 1.873355
532.00 1.838049
532.10 1.830655
532.20 1.825046
532.30 1.886668
532.40 1.90103
532.50 1.831035
532.60 1.831988
532.70 1.845767
532.80 1.731116
532.90 1.508047
533.00 1.473654
533.10 1.645747
533.20 1.820162
533.30 1.881108
533.40 1.825669
533.50 1.767919
533.60 1.796767
533.70 1.805864
533.80 1.800357
533.90 1.779614
534.00 1.827263
534.10 1.838148
534.20 1.842888
534.30 1.888069
534.40 1.905538
534.50 1.907875
534.60 1.920069
534.70 1.847423
534.80 1.787967
534.90 1.840629
535.00 1.867626
535.10 1.982652
535.20 2.157772
535.30 2.232297
535.40 2.172581
535.50 2.180285
535.60 2.190317
535.70 2.178016
535.80 2.125317
535.90 2.028812
536.00 1.962494
536.10 1.944585
536.20 1.939731
536.30 1.946201
536.40 1.972903
536.50 1.957319
536.60 1.926631
536.70 1.959034
536.80 1.948158
536.90 2.014018
537.00 2.0272
537.10 1.883527
537.20 1.75015
537.30 1.769476
537.40 1.903739
537.50 2.036469
537.60 2.061273
537.70 2.048541
537.80 2.067617
537.90 2.119758
538.00 2.217094
538.10 2.274578
538.20 2.262383
538.30 2.216018
538.40 2.189504
538.50 2.18623
538.60 2.137039
538.70 2.187037
538.80 2.274552
538.90 2.349111
539.00 2.336226
539.10 2.312448
539.20 2.234991
539.30 2.146761
539.40 2.14556
539.50 2.144078
539.60 2.1339
539.70 2.069752
539.80 2.012454
539.90 2.044533
540.00 2.198849
540.10 2.349362
540.20 2.423583
540.30 2.445739
540.40 2.410963
540.50 2.347696
540.60 2.154371
540.70 2.046834
540.80 2.073448
540.90 2.167693
541.00 2.147328
541.10 2.017994
541.20 2.013635
541.30 2.067077
541.40 2.141069
541.50 2.272855
541.60 2.328687
541.70 2.311729
541.80 2.345423
541.90 2.459576
542.00 2.484469
542.10 2.366551
542.20 2.347493
542.30 2.394365
542.40 2.285459
542.50 2.259648
542.60 2.322332
542.70 2.35896
542.80 2.335558
542.90 2.305709
543.00 2.222548
543.10 2.140678
543.20 2.150928
543.30 2.196768
543.40 2.219933
543.50 2.190817
543.60 2.125432
543.70 2.221759
543.80 2.401772
543.90 2.447112
544.00 2.429206
544.10 2.465225
544.20 2.588293
544.30 2.660026
544.40 2.718829
544.50 2.67886
544.60 2.584072
544.70 2.323208
544.80 2.015465
544.90 1.696687
545.00 1.426908
545.10 1.245842
545.20 1.254908
545.30 1.271757
545.40 1.206135
545.50 1.277998
545.60 1.343408
545.70 1.320485
545.80 1.270995
545.90 1.341909
546.00 1.448508
546.10 1.488724
546.20 1.496168
546.30 1.545327
546.40 1.581163
546.50 1.595365
546.60 1.672102
546.70 1.723842
546.80 1.762281
546.90 1.754087
547.00 1.663918
547.10 1.609017
547.20 1.659651
547.30 1.668601
547.40 1.723634
547.50 1.729618
547.60 1.677832
547.70 1.621333
547.80 1.640601
547.90 1.651087
548.00 1.647511
548.10 1.684455
548.20 1.701108
548.30 1.700659
548.40 1.751718
548.50 1.812055
548.60 1.834256
548.70 1.857011
548.80 1.846083
548.90 1.829501
549.00 1.788677
549.10 1.809796
549.20 1.838153
549.30 1.875769
549.40 1.897233
549.50 1.928561
549.60 1.855449
549.70 1.678989
549.80 1.555123
549.90 1.503847
550.00 1.397187
550.10 1.371959
550.20 1.335455
550.30 1.332185
550.40 1.358955
550.50 1.310025
550.60 1.25643
550.70 1.258472
550.80 1.322375
550.90 1.342729
551.00 1.346953
551.10 1.328803
551.20 1.328379
551.30 1.345772
551.40 1.300452
551.50 1.28211
551.60 1.289808
551.70 1.339408
551.80 1.35017
551.90 1.338605
552.00 1.318697
552.10 1.32663
552.20 1.336268
552.30 1.361983
552.40 1.307753
552.50 1.236789
552.60 1.192244
552.70 1.210543
552.80 1.2729
552.90 1.268889
553.00 1.285764
553.10 1.325422
553.20 1.307596
553.30 1.26637
553.40 1.27221
553.50 1.224803
553.60 1.149317
553.70 1.137001
553.80 1.159635
553.90 1.126305
554.00 1.117106
554.10 1.183619
554.20 1.154954
554.30 1.070339
554.40 1.064253
554.50 1.141561
554.60 1.106996
554.70 1.085079
554.80 1.1507
554.90 1.240878
555.00 1.225197
555.10 1.185555
555.20 1.198645
555.30 1.23546
555.40 1.198078
555.50 1.194482
555.60 1.267567
555.70 1.388761
555.80 1.438976
555.90 1.424842
556.00 1.398244
556.10 1.41369
556.20 1.453857
556.30 1.490546
556.40 1.511855
556.50 1.559934
556.60 1.611398
556.70 1.642595
556.80 1.644363
556.90 1.585665
557.00 1.617884
557.10 1.700892
557.20 1.689305
557.30 1.689109
557.40 1.689011
557.50 1.689008
557.60 1.689008
557.70 1.689008
557.80 1.689008
557.90 1.689008
558.00 1.689008
558.10 1.689006
558.20 1.688889
558.30 1.688566
558.40 1.682887
558.50 1.71944
558.60 1.881315
558.70 1.982098
558.80 1.900554
558.90 1.751739
559.00 1.687115
559.10 1.748493
559.20 1.897562
559.30 1.932733
559.40 1.876439
559.50 1.786824
559.60 1.742597
559.70 1.781886
559.80 1.742884
559.90 1.568569
560.00 1.384286
560.10 1.370114
560.20 1.510324
560.30 1.638171
560.40 1.622449
560.50 1.515514
560.60 1.48848
560.70 1.489395
560.80 1.508888
560.90 1.537364
561.00 1.558905
561.10 1.586081
561.20 1.646607
561.30 1.672394
561.40 1.704444
561.50 1.654837
561.60 1.589738
561.70 1.548345
561.80 1.542914
561.90 1.54502
562.00 1.510873
562.10 1.512857
562.20 1.505854
562.30 1.525159
562.40 1.590038
562.50 1.670123
562.60 1.64016
562.70 1.597255
562.80 1.63532
562.90 1.600586
563.00 1.44783
563.10 1.371113
563.20 1.381107
563.30 1.423117
563.40 1.51283
563.50 1.647101
563.60 1.650533
563.70 1.596534
563.80 1.600213
563.90 1.596582
564.00 1.55797
564.10 1.542203
564.20 1.572523
564.30 1.601547
564.40 1.628164
564.50 1.622104
564.60 1.614622
564.70 1.616268
564.80 1.658791
564.90 1.676527
565.00 1.669631
565.10 1.754507
565.20 1.845119
565.30 1.847478
565.40 1.823299
565.50 1.820675
565.60 1.849071
565.70 1.955442
565.80 1.987356
565.90 1.911697
566.00 1.828391
566.10 1.835328
566.20 1.791787
566.30 1.766681
566.40 1.708291
566.50 1.663968
566.60 1.668435
566.70 1.695877
566.80 1.721347
566.90 1.69578
567.00 1.638311
567.10 1.555549
567.20 1.571419
567.30 1.608518
567.40 1.643534
567.50 1.677743
567.60 1.719538
567.70 1.705946
567.80 1.748369
567.90 1.808301
568.00 1.845
568.10 1.821723
568.20 1.806577
568.30 1.806802
568.40 1.821442
568.50 1.884995
568.60 1.957854
568.70 2.033772
568.80 1.959022
568.90 1.83549
569.00 1.775195
569.10 1.824709
569.20 1.901689
569.30 1.937013
569.40 1.960859
569.50 1.966367
569.60 1.908237
569.70 1.90964
569.80 1.915773
569.90 1.960356
570.00 2.005225
570.10 2.020937
570.20 2.062777
570.30 2.061868
570.40 1.972791
570.50 1.986698
570.60 2.087081
570.70 2.1721
570.80 2.176717
570.90 2.195467
571.00 2.249429
571.10 2.261918
571.20 2.189513
571.30 2.152921
571.40 2.112277
571.50 2.046573
571.60 2.022779
571.70 2.020603
571.80 1.983967
571.90 1.965027
572.00 1.985049
572.10 2.032597
572.20 2.02186
572.30 1.983552
572.40 2.064765
572.50 2.066335
572.60 2.05271
572.70 2.014073
572.80 2.035895
572.90 1.945712
573.00 1.966048
573.10 2.054355
573.20 2.132027
573.30 2.139107
573.40 2.208785
573.50 2.22155
573.60 2.178149
573.70 2.125119
573.80 2.091872
573.90 2.074366
574.00 2.025687
574.10 2.098981
574.20 2.172124
574.30 2.175971
574.40 2.119637
574.50 2.168876
574.60 2.235942
574.70 2.242966
574.80 2.272635
574.90 2.327961
575.00 2.386196
575.10 2.423138
575.20 2.440287
575.30 2.429937
575.40 2.433553
575.50 2.432159
575.60 2.442791
575.70 2.459103
575.80 2.426487
575.90 2.377932
576.00 2.247077
576.10 2.084127
576.20 1.944393
576.30 1.835559
576.40 1.841892
576.50 1.82527
576.60 1.771311
576.70 1.807323
576.80 1.914168
576.90 1.967117
577.00 1.966703
577.10 2.008991
577.20 2.015408
577.30 2.008098
577.40 2.031616
577.50 2.037638
577.60 1.977281
577.70 1.919389
577.80 1.999573
577.90 2.057375
578.00 2.101274
578.10 2.101339
578.20 2.125643
578.30 2.147266
578.40 2.17893
578.50 2.255727
578.60 2.272436
578.70 2.185612
578.80 2.116077
578.90 2.196987
579.00 2.207415
579.10 2.155724
579.20 2.111799
579.30 2.223099
579.40 2.302506
579.50 2.417495
579.60 2.495574
579.70 2.456935
579.80 2.43319
579.90 2.46664
580.00 2.524201
580.10 2.505241
580.20 2.455509
580.30 2.446014
580.40 2.495596
580.50 2.555635
580.60 2.514105
580.70 2.513478
580.80 2.578757
580.90 2.586737
581.00 2.56269
581.10 2.484135
581.20 2.277985
581.30 2.120766
581.40 2.058459
581.50 2.012304
581.60 1.953448
581.70 1.923443
581.80 1.872282
581.90 1.841748
582.00 1.864542
582.10 1.838809
582.20 1.832901
582.30 1.847718
582.40 1.942062
582.50 1.919066
582.60 1.890834
582.70 1.917555
582.80 1.981051
582.90 1.965135
583.00 1.965948
583.10 1.981405
583.20 1.998862
583.30 2.140092
583.40 2.210771
583.50 2.123422
583.60 2.04274
583.70 2.097458
583.80 2.041718
583.90 1.982819
584.00 2.009354
584.10 1.969609
584.20 1.978898
584.30 2.017315
584.40 2.038543
584.50 2.078587
584.60 2.071242
584.70 2.05482
584.80 1.970269
584.90 1.817926
585.00 1.648611
585.10 1.575369
585.20 1.556296
585.30 1.544299
585.40 1.55949
585.50 1.560481
585.60 1.542254
585.70 1.50589
585.80 1.456485
585.90 1.503873
586.00 1.557091
586.10 1.540394
586.20 1.559058
586.30 1.521306
586.40 1.434804
586.50 1.370138
586.60 1.343728
586.70 1.303624
586.80 1.413413
586.90 1.54044
587.00 1.543245
587.10 1.446678
587.20 1.394101
587.30 1.305866
587.40 1.239039
587.50 1.27616
587.60 1.297307
587.70 1.316624
587.80 1.296249
587.90 1.250071
588.00 1.218991
588.10 1.184436
588.20 1.127876
588.30 1.030977
588.40 0.9987515
588.50 1.054413
588.60 0.9974003
588.70 0.8243002
588.80 0.6919183
588.90 0.7068596
589.00 0.7764081
589.10 0.8050183
589.20 0.5820909
589.30 0.4892102
589.40 0.6702757
589.50 0.8102984
589.60 0.7382059
589.70 0.6146767
589.80 0.5844462
589.90 0.6078212
590.00 0.7255713
590.10 0.8563987
590.20 0.8894219
590.30 0.9196998
590.40 1.008985
590.50 1.064378
590.60 1.065753
590.70 1.081728
590.80 1.077885
590.90 1.011924
591.00 1.024032
591.10 1.115998
591.20 1.182278
591.30 1.153432
591.40 1.128915
591.50 1.111518
591.60 1.115845
591.70 1.174876
591.80 1.235578
591.90 1.22856
592.00 1.222315
592.10 1.213274
592.20 1.223791
592.30 1.220161
592.40 1.23024
592.50 1.20543
592.60 1.202938
592.70 1.186799
592.80 1.196054
592.90 1.260186
593.00 1.266028
593.10 1.268178
593.20 1.28132
593.30 1.318219
593.40 1.337059
593.50 1.321867
593.60 1.378164
593.70 1.444954
593.80 1.501676
593.90 1.507499
594.00 1.441562
594.10 1.416449
594.20 1.432864
594.30 1.510835
594.40 1.535927
594.50 1.567981
594.60 1.557331
594.70 1.543702
594.80 1.512822
594.90 1.473859
595.00 1.431568
595.10 1.390389
595.20 1.409492
595.30 1.398647
595.40 1.355976
595.50 1.388899
595.60 1.415044
595.70 1.401369
595.80 1.344247
595.90 1.345505
596.00 1.270925
596.10 1.269832
596.20 1.355734
596.30 1.354519
596.40 1.375339
596.50 1.377235
596.60 1.422624
596.70 1.406905
596.80 1.420215
596.90 1.436562
597.00 1.466164
597.10 1.478241
597.20 1.467212
597.30 1.402344
597.40 1.363133
597.50 1.391129
597.60 1.417841
597.70 1.411977
597.80 1.474081
597.90 1.543358
598.00 1.554044
598.10 1.473679
598.20 1.492163
598.30 1.570073
598.40 1.575024
598.50 1.581038
598.60 1.620504
598.70 1.631929
598.80 1.634726
598.90 1.604297
599.00 1.604674
599.10 1.621496
599.20 1.681308
599.30 1.75938
599.40 1.784185
599.50 1.778407
599.60 1.742834
599.70 1.755863
599.80 1.795996
599.90 1.806228
600.00 1.750949
600.10 1.683781
600.20 1.655282
600.30 1.621577
600.40 1.64709
600.50 1.663498
600.60 1.686289
600.70 1.656474
600.80 1.64391
600.90 1.63432
601.00 1.622651
601.10 1.645973
601.20 1.684385
601.30 1.7209
601.40 1.744174
601.50 1.749806
601.60 1.731828
601.70 1.758997
601.80 1.769555
601.90 1.757959
602.00 1.783686
602.10 1.808271
602.20 1.800476
602.30 1.771503
602.40 1.807074
602.50 1.888217
602.60 1.914308
602.70 1.87745
602.80 1.883108
602.90 1.891516
603.00 1.882668
603.10 1.861573
603.20 1.90706
603.30 1.969566
603.40 1.990797
603.50 1.93733
603.60 1.872741
603.70 1.804519
603.80 1.710649
603.90 1.626669
604.00 1.707507
604.10 1.835307
604.20 1.903154
604.30 1.965406
604.40 2.018497
604.50 2.0457
604.60 2.066724
604.70 2.122551
604.80 2.142126
604.90 2.089494
605.00 2.11137
605.10 2.177163
605.20 2.148268
605.30 2.058106
605.40 2.030313
605.50 2.058828
605.60 2.068756
605.70 2.087084
605.80 2.113771
605.90 2.113933
606.00 2.111426
606.10 2.152907
606.20 2.22406
606.30 2.191655
606.40 2.130994
606.50 2.087576
606.60 2.000773
606.70 1.941157
606.80 2.002988
606.90 2.125103
607.00 2.210119
607.10 2.244323
607.20 2.273321
607.30 2.2555
607.40 2.153993
607.50 2.091184
607.60 2.139517
607.70 2.221232
607.80 2.276466
607.90 2.24631
608.00 2.126542
608.10 2.045369
608.20 2.018144
608.30 2.046937
608.40 2.089146
608.50 2.101668
608.60 2.117893
608.70 2.155419
608.80 2.157569
608.90 2.129686
609.00 2.123938
609.10 2.153513
609.20 2.163954
609.30 2.181998
609.40 2.22617
609.50 2.272555
609.60 2.275835
609.70 2.284304
609.80 2.3139
609.90 2.332738
610.00 2.307565
610.10 2.254861
610.20 2.202328
610.30 2.142546
610.40 2.071218
610.50 2.046864
610.60 2.113712
610.70 2.183543
610.80 2.223703
610.90 2.24964
611.00 2.278869
611.10 2.264316
611.20 2.237883
611.30 2.224606
611.40 2.239774
611.50 2.275785
611.60 2.275243
611.70 2.231313
611.80 2.16324
611.90 2.152868
612.00 2.149444
612.10 2.110541
612.20 2.0376
612.30 1.972003
612.40 1.992121
612.50 2.066919
612.60 2.170889
612.70 2.236908
612.80 2.172447
612.90 2.157028
613.00 2.220798
613.10 2.272545
613.20 2.242484
613.30 2.169716
613.40 2.151255
613.50 2.137287
613.60 2.170552
613.70 2.171771
613.80 2.165276
613.90 2.163441
614.00 2.221637
614.10 2.273787
614.20 2.261444
614.30 2.238647
614.40 2.275208
614.50 2.328498
614.60 2.336786
614.70 2.341811
614.80 2.258701
614.90 2.105221
615.00 1.978414
615.10 1.864054
615.20 1.792184
615.30 1.816654
615.40 1.891625
615.50 1.916465
615.60 1.851181
615.70 1.826124
615.80 1.795586
615.90 1.646789
616.00 1.487128
616.10 1.36629
616.20 1.265761
616.30 1.190201
616.40 1.176729
616.50 1.20971
616.60 1.200341
616.70 1.167813
616.80 1.210772
616.90 1.265637
617.00 1.261901
617.10 1.24807
617.20 1.287285
617.30 1.324308
617.40 1.302701
617.50 1.265905
617.60 1.268002
617.70 1.245875
617.80 1.272301
617.90 1.319465
618.00 1.31454
618.10 1.279375
618.20 1.259723
618.30 1.284851
618.40 1.284892
618.50 1.26004
618.60 1.23792
618.70 1.175045
618.80 1.132007
618.90 1.115866
619.00 1.102335
619.10 1.088651
619.20 1.06405
619.30 1.037004
619.40 1.043679
619.50 1.074923
619.60 1.079101
619.70 1.062556
619.80 1.08439
619.90 1.126778
620.00 1.173931
620.10 1.19032
620.20 1.153376
620.30 1.132457
620.40 1.155699
620.50 1.194297
620.60 1.253965
620.70 1.236249
620.80 1.231063
620.90 1.245897
621.00 1.247891
621.10 1.248697
621.20 1.238547
621.30 1.217149
621.40 1.171908
621.50 1.111816
621.60 1.053678
621.70 1.018987
621.80 1.039778
621.90 1.047135
622.00 1.074483
622.10 1.118055
622.20 1.115873
622.30 1.066459
622.40 1.012374
622.50 0.9575683
622.60 0.9413469
622.70 0.985237
622.80 0.9776953
622.90 0.9972154
623.00 1.042784
623.10 1.020154
623.20 0.9940895
623.30 1.018617
623.40 1.042988
623.50 1.044222
623.60 1.042257
623.70 1.113699
623.80 1.105563
623.90 1.033687
624.00 1.018201
624.10 1.068714
624.20 1.108554
624.30 1.088388
624.40 1.130584
624.50 1.14333
624.60 1.128291
624.70 1.113653
624.80 1.095274
624.90 1.144156
625.00 1.161509
625.10 1.136338
625.20 1.148849
625.30 1.200277
625.40 1.240142
625.50 1.249842
625.60 1.24347
625.70 1.242724
625.80 1.262338
625.90 1.28861
626.00 1.313295
626.10 1.296443
626.20 1.287639
626.30 1.331309
626.40 1.393089
626.50 1.440642
626.60 1.474296
626.70 1.497379
626.80 1.424044
626.90 1.340842
627.00 1.343029
627.10 1.387797
627.20 1.434732
627.30 1.481273
627.40 1.519052
627.50 1.489896
627.60 1.399556
627.70 1.370622
627.80 1.399193
627.90 1.401483
628.00 1.397936
628.10 1.416205
628.20 1.451287
628.30 1.454517
628.40 1.495067
628.50 1.527859
628.60 1.562564
628.70 1.60619
628.80 1.636127
628.90 1.662595
629.00 1.691769
629.10 1.720552
629.20 1.711401
629.30 1.707902
629.40 1.72091
629.50 1.735081
629.60 1.710141
629.70 1.762315
629.80 1.834314
629.90 1.822616
630.00 1.859257
630.10 2.11913
630.20 2.285137
630.30 1.925814
630.40 1.742489
630.50 1.885747
630.60 2.030832
630.70 2.064931
630.80 2.080361
630.90 2.115748
631.00 2.105708
631.10 2.083269
631.20 2.145661
631.30 2.220486
631.40 2.278654
631.50 2.305355
631.60 2.322168
631.70 2.340562
631.80 2.353693
631.90 2.386918
632.00 2.393357
632.10 2.37324
632.20 2.356775
632.30 2.324853
632.40 2.264696
632.50 2.26399
632.60 2.320618
632.70 2.34553
632.80 2.391615
632.90 2.42698
633.00 2.425721
633.10 2.421497
633.20 2.42824
633.30 2.453367
633.40 2.488518
633.50 2.548906
633.60 2.603926
633.70 2.577576
633.80 2.548879
633.90 2.574773
634.00 2.646758
634.10 2.695812
634.20 2.742623
634.30 2.789404
634.40 2.80636
634.50 2.821405
634.60 2.806735
634.70 2.83212
634.80 2.891094
634.90 2.922191
635.00 2.917653
635.10 2.915474
635.20 2.874863
635.30 2.777366
635.40 2.700549
635.50 2.667019
635.60 2.662066
635.70 2.629652
635.80 2.545991
635.90 2.468942
636.00 2.448671
636.10 2.443667
636.20 2.460418
636.30 2.541157
636.40 2.664396
636.50 2.645057
636.60 2.468985
636.70 2.405594
636.80 2.48423
636.90 2.536744
637.00 2.53118
637.10 2.53414
637.20 2.565793
637.30 2.636027
637.40 2.676278
637.50 2.631019
637.60 2.60204
637.70 2.598678
637.80 2.589851
637.90 2.561298
638.00 2.480163
638.10 2.398324
638.20 2.320617
638.30 2.259837
638.40 2.262166
638.50 2.325481
638.60 2.335679
638.70 2.288793
638.80 2.263384
638.90 2.263276
639.00 2.275968
639.10 2.318796
639.20 2.39765
639.30 2.467302
639.40 2.509299
639.50 2.587686
639.60 2.670446
639.70 2.752646
639.80 2.798707
639.90 2.834432
640.00 2.87594
640.10 2.876662
640.20 2.897927
640.30 2.925868
640.40 2.974324
640.50 3.040126
640.60 3.098379
640.70 3.129755
640.80 3.139305
640.90 3.160032
641.00 3.170096
641.10 3.157168
641.20 3.148031
641.30 3.171416
641.40 3.167886
641.50 3.149885
641.60 3.109464
641.70 3.029643
641.80 2.994534
641.90 2.991339
642.00 2.974671
642.10 2.948572
642.20 2.891383
642.30 2.860708
642.40 2.885377
642.50 2.932283
642.60 2.972184
642.70 2.991757
642.80 2.995287
642.90 2.992823
643.00 3.001153
643.10 3.049606
643.20 3.081731
643.30 3.082327
643.40 3.097265
643.50 3.119723
643.60 3.152579
643.70 3.178077
643.80 3.13142
643.90 3.094111
644.00 3.062131
644.10 3.057582
644.20 3.123763
644.30 3.268144
644.40 3.427723
644.50 3.512405
644.60 3.541211
644.70 3.500928
644.80 3.403324
644.90 3.279591
645.00 3.173272
645.10 3.102823
645.20 3.138994
645.30 3.250415
645.40 3.378946
645.50 3.470015
645.60 3.45566
645.70 3.445956
645.80 3.469572
645.90 3.521559
646.00 3.541972
646.10 3.516028
646.20 3.447103
646.30 3.34743
646.40 3.310224
646.50 3.365565
646.60 3.474681
646.70 3.57967
646.80 3.677126
646.90 3.748277
647.00 3.766793
647.10 3.757089
647.20 3.747453
647.30 3.762946
647.40 3.834834
647.50 3.865538
647.60 3.884996
647.70 3.917407
647.80 3.918438
647.90 3.878414
648.00 3.748918
648.10 3.60822
648.20 3.523614
648.30 3.505565
648.40 3.461812
648.50 3.378915
648.60 3.326957
648.70 3.334351
648.80 3.381593
648.90 3.442926
649.00 3.513845
649.10 3.57046
649.20 3.593621
649.30 3.571224
649.40 3.53977
649.50 3.467872
649.60 3.401358
649.70 3.413199
649.80 3.5318
649.90 3.62214
650.00 3.666639
650.10 3.684844
650.20 3.714986
650.30 3.820632
650.40 3.953443
650.50 4.041897
650.60 4.029814
650.70 4.022462
650.80 4.079464
650.90 4.122888
651.00 4.150775
651.10 4.189161
651.20 4.200416
651.30 4.163574
651.40 4.062007
651.50 3.975254
651.60 3.947454
651.70 4.014694
651.80 4.098808
651.90 4.153699
652.00 4.204355
652.10 4.25382
652.20 4.302666
652.30 4.353507
652.40 4.409712
652.50 4.435892
652.60 4.452425
652.70 4.478573
652.80 4.519118
652.90 4.569138
653.00 4.592433
653.10 4.617364
653.20 4.642178
653.30 4.643438
653.40 4.675443
653.50 4.687928
653.60 4.71907
653.70 4.799231
653.80 4.880841
653.90 4.965692
654.00 5.053479
654.10 5.09148
654.20 5.078226
654.30 4.993427
654.40 4.841129
654.50 4.686177
654.60 4.584804
654.70 4.494824
654.80 4.414478
654.90 4.354948
655.00 4.281394
655.10 4.205911
655.20 4.128092
655.30 4.099809
655.40 4.112637
655.50 4.091645
655.60 4.063799
655.70 4.087409
655.80 4.203262
655.90 4.316212
656.00 4.399148
656.10 4.593789
656.20 5.042391
656.30 5.702656
656.40 6.245966
656.50 6.22344
656.60 5.54954
656.70 4.657357
656.80 4.049184
656.90 3.852606
657.00 3.829894
657.10 3.818266
657.20 3.716799
657.30 3.569105
657.40 3.499391
657.50 3.491254
657.60 3.570697
657.70 3.716428
657.80 3.766914
657.90 3.729103
658.00 3.608513
658.10 3.485584
658.20 3.479265
658.30 3.576694
658.40 3.672091
658.50 3.741489
658.60 3.82014
658.70 3.894228
658.80 3.935823
658.90 3.987535
659.00 4.043588
659.10 4.044714
659.20 3.994145
659.30 3.902819
659.40 3.762307
659.50 3.602972
659.60 3.527368
659.70 3.573382
659.80 3.659624
659.90 3.686668
660.00 3.669005
660.10 3.64109
660.20 3.625729
660.30 3.672887
660.40 3.756061
660.50 3.779109
660.60 3.703141
660.70 3.620482
660.80 3.586573
660.90 3.592009
661.00 3.603889
661.10 3.642565
661.20 3.711323
661.30 3.73328
661.40 3.728185
661.50 3.750656
661.60 3.757339
661.70 3.7121
661.80 3.620241
661.90 3.526247
662.00 3.451365
662.10 3.412053
662.20 3.404448
662.30 3.405415
662.40 3.407058
662.50 3.338513
662.60 3.204258
662.70 3.096532
662.80 3.047291
662.90 3.038262
663.00 3.06479
663.10 3.15328
663.20 3.27142
663.30 3.35975
663.40 3.386535
663.50 3.338454
663.60 3.222241
663.70 3.062506
663.80 2.922573
663.90 2.892252
664.00 2.946078
664.10 3.019744
664.20 3.090014
664.30 3.160122
664.40 3.217338
664.50 3.232724
664.60 3.21695
664.70 3.222378
664.80 3.222517
664.90 3.175364
665.00 3.055004
665.10 2.863527
665.20 2.673628
665.30 2.507788
665.40 2.420477
665.50 2.428728
665.60 2.493447
665.70 2.562747
665.80 2.54693
665.90 2.518049
666.00 2.533626
666.10 2.611833
666.20 2.69119
666.30 2.691884
666.40 2.701149
666.50 2.757217
666.60 2.807156
666.70 2.868735
666.80 2.909347
666.90 2.960681
667.00 3.020889
667.10 3.035709
667.20 3.025553
667.30 2.999216
667.40 2.974194
667.50 2.943155
667.60 2.920512
667.70 2.933997
667.80 2.964839
667.90 2.989208
668.00 2.915706
668.10 2.740821
668.20 2.516415
668.30 2.318519
668.40 2.241709
668.50 2.247232
668.60 2.303013
668.70 2.353768
668.80 2.366546
668.90 2.416664
669.00 2.44343
669.10 2.447262
669.20 2.446644
669.30 2.422797
669.40 2.39528
669.50 2.38602
669.60 2.435731
669.70 2.501255
669.80 2.541829
669.90 2.570231
670.00 2.589769
670.10 2.613133
670.20 2.620167
670.30 2.624279
670.40 2.646772
670.50 2.664574
670.60 2.692754
670.70 2.733194
670.80 2.715026
670.90 2.725738
671.00 2.766954
671.10 2.763678
671.20 2.765273
671.30 2.74905
671.40 2.67858
671.50 2.528018
671.60 2.352002
671.70 2.222627
671.80 2.119566
671.90 2.03119
672.00 2.001458
672.10 2.008035
672.20 2.021026
672.30 2.045778
672.40 2.092276
672.50 2.166507
672.60 2.201254
672.70 2.228689
672.80 2.279415
672.90 2.303413
673.00 2.289349
673.10 2.263666
673.20 2.280346
673.30 2.332683
673.40 2.368951
673.50 2.364197
673.60 2.358446
673.70 2.365485
673.80 2.378558
673.90 2.417473
674.00 2.468631
674.10 2.499873
674.20 2.496457
674.30 2.495826
674.40 2.522461
674.50 2.560001
674.60 2.58267
674.70 2.518786
674.80 2.396416
674.90 2.267681
675.00 2.166347
675.10 2.154534
675.20 2.174375
675.30 2.221623
675.40 2.273977
675.50 2.311597
675.60 2.33657
675.70 2.349422
675.80 2.366499
675.90 2.385933
676.00 2.377727
676.10 2.356262
676.20 2.376505
676.30 2.428344
676.40 2.475846
676.50 2.520108
676.60 2.568967
676.70 2.613546
676.80 2.650104
676.90 2.662218
677.00 2.642742
677.10 2.650246
677.20 2.657171
677.30 2.655898
677.40 2.685157
677.50 2.731714
677.60 2.783354
677.70 2.811913
677.80 2.802407
677.90 2.775524
678.00 2.751176
678.10 2.712943
678.20 2.618256
678.30 2.460188
678.40 2.302514
678.50 2.20467
678.60 2.175436
678.70 2.182765
678.80 2.20215
678.90 2.244736
679.00 2.285804
679.10 2.310752
679.20 2.339292
679.30 2.347423
679.40 2.352517
679.50 2.368131
679.60 2.390708
679.70 2.41244
679.80 2.403646
679.90 2.402756
680.00 2.415452
680.10 2.455513
680.20 2.499058
680.30 2.50729
680.40 2.508415
680.50 2.507129
680.60 2.503322
680.70 2.505874
680.80 2.496217
680.90 2.499357
681.00 2.521359
681.10 2.542965
681.20 2.580038
681.30 2.62101
681.40 2.650579
681.50 2.64766
681.60 2.585731
681.70 2.476394
681.80 2.389278
681.90 2.403944
682.00 2.468039
682.10 2.498608
682.20 2.50846
682.30 2.496586
682.40 2.480811
682.50 2.480956
682.60 2.50467
682.70 2.554252
682.80 2.618842
682.90 2.66907
683.00 2.652431
683.10 2.607062
683.20 2.58839
683.30 2.627865
683.40 2.687862
683.50 2.694916
683.60 2.677059
683.70 2.620314
683.80 2.598189
683.90 2.634924
684.00 2.646892
684.10 2.688091
684.20 2.739008
684.30 2.750096
684.40 2.752087
684.50 2.7388
684.60 2.745086
684.70 2.748014
684.80 2.711844
684.90 2.686634
685.00 2.678468
685.10 2.642228
685.20 2.541918
685.30 2.430412
685.40 2.405236
685.50 2.450328
685.60 2.478998
685.70 2.482471
685.80 2.48745
685.90 2.484832
686.00 2.47099
686.10 2.445923
686.20 2.454846
686.30 2.513929
686.40 2.600518
686.50 2.716125
686.60 2.782752
686.70 2.749164
686.80 2.670621
686.90 2.602204
687.00 2.578958
687.10 2.546478
687.20 2.555974
687.30 2.615594
687.40 2.691553
687.50 2.789313
687.60 2.832577
687.70 2.84686
687.80 2.899287
687.90 2.931259
688.00 2.929008
688.10 2.937276
688.20 2.914786
688.30 2.865102
688.40 2.808122
688.50 2.740323
688.60 2.690568
688.70 2.663245
688.80 2.684295
688.90 2.767297
689.00 2.843969
689.10 2.880401
689.20 2.875738
689.30 2.874992
689.40 2.893935
689.50 2.937115
689.60 2.970166
689.70 2.981065
689.80 3.003742
689.90 2.990071
690.00 2.926856
690.10 2.84218
690.20 2.73191
690.30 2.671003
690.40 2.70294
690.50 2.828611
690.60 2.999007
690.70 3.149659
690.80 3.248377
690.90 3.280333
691.00 3.277812
691.10 3.262001
691.20 3.242005
691.30 3.254892
691.40 3.294978
691.50 3.335538
691.60 3.357296
691.70 3.320139
691.80 3.19284
691.90 2.999324
692.00 2.822037
692.10 2.786846
692.20 2.943693
692.30 3.18735
692.40 3.413072
692.50 3.512252
692.60 3.506886
692.70 3.521938
692.80 3.52176
692.90 3.504727
693.00 3.540816
693.10 3.607021
693.20 3.689473
693.30 3.795111
693.40 3.871608
693.50 3.879633
693.60 3.839063
693.70 3.810146
693.80 3.814363
693.90 3.827883
694.00 3.856104
694.10 3.907583
694.20 3.999052
694.30 4.095404
694.40 4.191827
694.50 4.294641
694.60 4.333634
694.70 4.367787
694.80 4.48073
694.90 4.579927
695.00 4.601731
695.10 4.549936
695.20 4.471103
695.30 4.355325
695.40 4.243191
695.50 4.19762
695.60 4.190858
695.70 4.203139
695.80 4.194938
695.90 4.184021
696.00 4.190689
696.10 4.223381
696.20 4.238759
696.30 4.249379
696.40 4.296644
696.50 4.366399
696.60 4.437121
696.70 4.469789
696.80 4.487929
696.90 4.512796
697.00 4.501901
697.10 4.451257
697.20 4.401662
697.30 4.380449
697.40 4.403489
697.50 4.459106
697.60 4.544314
697.70 4.661455
697.80 4.750143
697.90 4.771213
698.00 4.77002
698.10 4.730101
698.20 4.710322
698.30 4.770943
698.40 4.821333
698.50 4.858657
698.60 4.881681
698.70 4.884159
698.80 4.881156
698.90 4.867874
699.00 4.824725
699.10 4.741739
699.20 4.669389
699.30 4.634652
699.40 4.648616
699.50 4.703808
699.60 4.752909
699.70 4.806943
699.80 4.858506
699.90 4.85941
700.00 4.816178
700.10 4.813277
700.20 4.877443
700.30 4.964489
700.40 5.003021
700.50 4.942719
700.60 4.843092
700.70 4.830861
700.80 4.938196
700.90 5.059802
701.00 5.097271
701.10 5.090293
701.20 5.107186
701.30 5.180017
701.40 5.323854
701.50 5.45621
701.60 5.490464
701.70 5.442243
701.80 5.383981
701.90 5.389331
702.00 5.470051
702.10 5.580938
702.20 5.642969
702.30 5.611407
702.40 5.491422
702.50 5.330974
702.60 5.219686
702.70 5.234922
702.80 5.42326
702.90 5.730392
703.00 6.006123
703.10 6.136585
703.20 6.135286
703.30 6.086544
703.40 6.052829
703.50 6.11692
703.60 6.299999
703.70 6.521942
703.80 6.667529
703.90 6.697609
704.00 6.678704
704.10 6.704315
704.20 6.788263
704.30 6.920077
704.40 7.037583
704.50 7.080991
704.60 7.076335
704.70 7.076263
704.80 7.126412
704.90 7.185919
705.00 7.178367
705.10 7.177783
705.20 7.170287
705.30 7.007074
705.40 6.52861
705.50 5.681691
705.60 4.703411
705.70 3.949391
705.80 3.629749
705.90 3.680575
706.00 3.789125
706.10 3.696445
706.20 3.508372
706.30 3.40132
706.40 3.443866
706.50 3.57199
706.60 3.697921
706.70 3.818569
706.80 3.938761
706.90 4.015834
707.00 4.034691
707.10 4.074309
707.20 4.166971
707.30 4.271801
707.40 4.330264
707.50 4.335027
707.60 4.324781
707.70 4.335481
707.80 4.342489
707.90 4.345385
708.00 4.398241
708.10 4.474732
708.20 4.522096
708.30 4.559825
708.40 4.590176
708.50 4.633036
708.60 4.645329
708.70 4.471214
708.80 4.061344
708.90 3.501395
709.00 2.976608
709.10 2.664317
709.20 2.618839
709.30 2.748596
709.40 2.883591
709.50 2.930688
709.60 2.892188
709.70 2.831461
709.80 2.848509
709.90 2.947422
710.00 3.059328
710.10 3.115311
710.20 3.094099
710.30 3.050407
710.40 3.049748
710.50 3.09092
710.60 3.180578
710.70 3.275886
710.80 3.357628
710.90 3.481307
711.00 3.633611
711.10 3.765156
711.20 3.847455
711.30 3.868464
711.40 3.857357
711.50 3.853864
711.60 3.841784
711.70 3.816557
711.80 3.810334
711.90 3.872666
712.00 3.986915
712.10 4.101017
712.20 4.189768
712.30 4.239353
712.40 4.181967
712.50 3.923167
712.60 3.443412
712.70 2.858554
712.80 2.397703
712.90 2.221292
713.00 2.268236
713.10 2.370344
713.20 2.409303
713.30 2.347935
713.40 2.278605
713.50 2.283627
713.60 2.352567
713.70 2.411607
713.80 2.432154
713.90 2.410599
714.00 2.387979
714.10 2.432007
714.20 2.528554
714.30 2.652705
714.40 2.745247
714.50 2.768328
714.60 2.747105
714.70 2.707378
714.80 2.697043
714.90 2.729151
715.00 2.768018
715.10 2.798206
715.20 2.855809
715.30 2.940535
715.40 3.033831
715.50 3.13602
715.60 3.229273
715.70 3.296198
715.80 3.288343
715.90 3.186067
716.00 3.035236
716.10 2.910117
716.20 2.869151
716.30 2.915842
716.40 2.984867
716.50 3.023615
716.60 3.024625
716.70 3.014278
716.80 3.008129
716.90 3.015633
717.00 3.067221
717.10 3.149316
717.20 3.235586
717.30 3.313965
717.40 3.353341
717.50 3.335701
717.60 3.306136
717.70 3.296267
717.80 3.308545
717.90 3.35062
718.00 3.416388
718.10 3.484081
718.20 3.5372
718.30 3.598156
718.40 3.638863
718.50 3.689126
718.60 3.787679
718.70 3.84345
718.80 3.855398
718.90 3.874938
719.00 3.905863
719.10 3.946871
719.20 3.964251
719.30 3.971862
719.40 3.980128
719.50 3.996961
719.60 3.995586
719.70 3.877409
719.80 3.67327
719.90 3.487019
720.00 3.381059
720.10 3.348515
720.20 3.351226
720.30 3.378546
720.40 3.409958
720.50 3.416524
720.60 3.415082
720.70 3.416697
720.80 3.438812
720.90 3.481253
721.00 3.508961
721.10 3.536512
721.20 3.575531
721.30 3.638109
721.40 3.703655
721.50 3.742819
721.60 3.780237
721.70 3.789642
721.80 3.819119
721.90 3.912967
722.00 3.975142
722.10 4.018348
722.20 4.084062
722.30 4.1372
722.40 4.178337
722.50 4.205587
722.60 4.264461
722.70 4.387777
722.80 4.480543
722.90 4.489901
723.00 4.435849
723.10 4.358287
723.20 4.294167
723.30 4.264142
723.40 4.271969
723.50 4.312197
723.60 4.393014
723.70 4.526817
723.80 4.639067
723.90 4.693671
724.00 4.719229
724.10 4.68738
724.20 4.630684
724.30 4.61972
724.40 4.680503
724.50 4.786696
724.60 4.88244
724.70 4.943839
724.80 4.954858
724.90 4.983503
725.00 5.099994
725.10 5.226696
725.20 5.256333
725.30 5.18696
725.40 5.119474
725.50 5.169593
725.60 5.293242
725.70 5.393606
725.80 5.415427
725.90 5.368831
726.00 5.343833
726.10 5.371233
726.20 5.451507
726.30 5.575968
726.40 5.696115
726.50 5.775163
726.60 5.800795
726.70 5.8029
726.80 5.833688
726.90 5.876007
727.00 5.853704
727.10 5.718439
727.20 5.497482
727.30 5.317788
727.40 5.334887
727.50 5.565248
727.60 5.886812
727.70 6.122777
727.80 6.057016
727.90 5.784063
728.00 5.647789
728.10 5.666865
728.20 5.721611
728.30 5.800127
728.40 5.903878
728.50 6.028166
728.60 6.118075
728.70 6.156592
728.80 6.206262
728.90 6.239749
729.00 6.281124
729.10 6.344569
729.20 6.385061
729.30 6.397768
729.40 6.379786
729.50 6.385163
729.60 6.457114
729.70 6.559875
729.80 6.664891
729.90 6.706459
730.00 6.64531
730.10 6.600488
730.20 6.644387
730.30 6.748982
730.40 6.848973
730.50 6.860038
730.60 6.848797
730.70 6.897291
730.80 6.992977
730.90 7.063536
731.00 7.066902
731.10 7.031253
731.20 7.005409
731.30 7.056772
731.40 7.18306
731.50 7.309912
731.60 7.386551
731.70 7.452377
731.80 7.481102
731.90 7.456753
732.00 7.420084
732.10 7.409791
732.20 7.456814
732.30 7.524795
732.40 7.572189
732.50 7.535483
732.60 7.377531
732.70 7.183069
732.80 7.137445
732.90 7.318927
733.00 7.548289
733.10 7.677029
733.20 7.731095
733.30 7.749523
733.40 7.776022
733.50 7.830302
733.60 7.912359
733.70 8.000057
733.80 8.057481
733.90 8.104014
734.00 8.207482
734.10 8.371025
734.20 8.451616
734.30 8.329309
734.40 8.076102
734.50 7.867033
734.60 7.790295
734.70 7.815638
734.80 7.903567
734.90 7.988428
735.00 8.05477
735.10 8.125641
735.20 8.18808
735.30 8.238457
735.40 8.258618
735.50 8.220327
735.60 8.132374
735.70 8.032705
735.80 7.966572
735.90 7.996994
736.00 8.125448
736.10 8.267374
736.20 8.336571
736.30 8.3326
736.40 8.369541
736.50 8.454317
736.60 8.493105
736.70 8.514396
736.80 8.556643
736.90 8.696697
737.00 8.893086
737.10 8.954191
737.20 8.879281
737.30 8.767427
737.40 8.731223
737.50 8.733621
737.60 8.71654
737.70 8.747503
737.80 8.813863
737.90 8.878062
738.00 8.917889
738.10 8.920712
738.20 8.896944
738.30 8.870858
738.40 8.863514
738.50 8.883415
738.60 8.938015
738.70 9.015043
738.80 9.090969
738.90 9.154335
739.00 9.198066
739.10 9.223782
739.20 9.197565
739.30 9.125296
739.40 9.037599
739.50 8.942792
739.60 8.894255
739.70 8.919658
739.80 8.984792
739.90 9.058397
740.00 9.077653
740.10 9.079062
740.20 9.133079
740.30 9.188932
740.40 9.228719
740.50 9.221968
740.60 9.135693
740.70 8.99966
740.80 8.917188
740.90 8.965635
741.00 9.063644
741.10 9.125458
741.20 9.164154
741.30 9.213674
741.40 9.269732
741.50 9.304389
741.60 9.298547
741.70 9.241693
741.80 9.134989
741.90 9.026193
742.00 9.009007
742.10 9.09864
742.20 9.1768
742.30 9.197086
742.40 9.183593
742.50 9.190129
742.60 9.251339
742.70 9.330621
742.80 9.40963
742.90 9.458634
743.00 9.493391
743.10 9.547635
743.20 9.574163
743.30 9.540867
743.40 9.459118
743.50 9.351949
743.60 9.245076
743.70 9.192942
743.80 9.264377
743.90 9.470378
744.00 9.708818
744.10 9.758871
744.20 9.575704
744.30 9.38525
744.40 9.326366
744.50 9.341553
744.60 9.353306
744.70 9.317939
744.80 9.245217
744.90 9.18283
745.00 9.154565
745.10 9.191042
745.20 9.314891
745.30 9.458651
745.40 9.51812
745.50 9.490845
745.60 9.422439
745.70 9.387939
745.80 9.446536
745.90 9.524934
746.00 9.54227
746.10 9.505282
746.20 9.463366
746.30 9.43984
746.40 9.433054
746.50 9.452407
746.60 9.510573
746.70 9.570445
746.80 9.594015
746.90 9.622894
747.00 9.688997
747.10 9.787201
747.20 9.84156
747.30 9.806047
747.40 9.705041
747.50 9.591103
747.60 9.555864
747.70 9.595699
747.80 9.691074
747.90 9.796733
748.00 9.804303
748.10 9.729203
748.20 9.662283
748.30 9.667917
748.40 9.788269
748.50 9.92149
748.60 9.91203
748.70 9.785187
748.80 9.623353
748.90 9.540174
749.00 9.583797
749.10 9.655633
749.20 9.70239
749.30 9.704117
749.40 9.651221
749.50 9.572207
749.60 9.519082
749.70 9.535691
749.80 9.658999
749.90 9.873427
750.00 10.06875
750.10 10.1729
750.20 10.19451
750.30 10.16103
750.40 10.14531
750.50 10.1513
750.60 10.09923
750.70 9.975324
750.80 9.876235
750.90 9.888552
751.00 10.03698
751.10 10.22071
751.20 10.28002
751.30 10.21709
751.40 10.12941
751.50 10.12965
751.60 10.23727
751.70 10.36619
751.80 10.42275
751.90 10.34727
752.00 10.19972
752.10 10.1016
752.20 10.0762
752.30 10.15457
752.40 10.34919
752.50 10.47015
752.60 10.3844
752.70 10.13427
752.80 9.827287
752.90 9.676926
753.00 9.766835
753.10 10.00479
753.20 10.24689
753.30 10.36055
753.40 10.33069
753.50 10.23674
753.60 10.19636
753.70 10.25916
753.80 10.37834
753.90 10.5404
754.00 10.72131
754.10 10.82382
754.20 10.8136
754.30 10.76181
754.40 10.72993
754.50 10.74353
754.60 10.78254
754.70 10.79172
754.80 10.76296
754.90 10.72612
755.00 10.7107
755.10 10.71624
755.20 10.73911
755.30 10.77122
755.40 10.76771
755.50 10.72167
755.60 10.67584
755.70 10.67572
755.80 10.724
755.90 10.75387
756.00 10.76616
756.10 10.80559
756.20 10.81616
756.30 10.77026
756.40 10.70082
756.50 10.60633
756.60 10.51252
756.70 10.43428
756.80 10.3266
756.90 10.22343
757.00 10.22309
757.10 10.36835
757.20 10.66002
757.30 10.99283
757.40 11.16087
757.50 11.15031
757.60 11.04123
757.70 10.88396
757.80 10.77164
757.90 10.70526
758.00 10.69701
758.10 10.82123
758.20 11.0556
758.30 11.2319
758.40 11.26934
758.50 11.24693
758.60 11.2287
758.70 11.15679
758.80 10.88229
758.90 10.30351
759.00 9.435253
759.10 8.544969
759.20 7.959487
759.30 7.799083
759.40 7.990653
759.50 8.250942
759.60 8.395922
759.70 8.449857
759.80 8.527857
759.90 8.694343
760.00 8.84996
760.10 8.87942
760.20 8.676955
760.30 8.404134
760.40 8.423185
760.50 8.637833
760.60 8.794562
760.70 8.826433
760.80 8.672328
760.90 8.51934
761.00 8.52035
761.10 8.583719
761.20 8.757043
761.30 9.064023
761.40 9.350084
761.50 9.485254
761.60 9.418598
761.70 9.313677
761.80 9.439646
761.90 9.714421
762.00 9.928427
762.10 9.963269
762.20 9.813635
762.30 9.647442
762.40 9.597873
762.50 9.656941
762.60 9.647833
762.70 9.378641
762.80 8.808286
762.90 8.106945
763.00 7.534663
763.10 7.194726
763.20 7.111178
763.30 7.253276
763.40 7.473872
763.50 7.587736
763.60 7.553695
763.70 7.501894
763.80 7.528923
763.90 7.629632
764.00 7.663929
764.10 7.532126
764.20 7.438012
764.30 7.556173
764.40 7.714551
764.50 7.723518
764.60 7.578433
764.70 7.484891
764.80 7.617717
764.90 7.768495
765.00 7.726188
765.10 7.57238
765.20 7.466438
765.30 7.522509
765.40 7.593661
765.50 7.471016
765.60 7.310352
765.70 7.331391
765.80 7.502898
765.90 7.635025
766.00 7.457311
766.10 6.993302
766.20 6.461391
766.30 5.87295
766.40 5.176717
766.50 4.351138
766.60 3.561045
766.70 3.17827
766.80 3.344332
766.90 3.92415
767.00 4.622704
767.10 5.131259
767.20 5.332073
767.30 5.292261
767.40 5.237757
767.50 5.299154
767.60 5.449448
767.70 5.603367
767.80 5.726065
767.90 5.861222
768.00 5.976015
768.10 6.045989
768.20 6.115583
768.30 6.169998
768.40 6.195004
768.50 6.220021
768.60 6.254237
768.70 6.299049
768.80 6.359154
768.90 6.410434
769.00 6.425202
769.10 6.423002
769.20 6.420554
769.30 6.418542
769.40 6.409333
769.50 6.334572
769.60 6.121755
769.70 5.724891
769.80 5.136658
769.90 4.444213
770.00 3.849814
770.10 3.59583
770.20 3.831267
770.30 4.458377
770.40 5.137432
770.50 5.608411
770.60 5.812231
770.70 5.826975
770.80 5.812104
770.90 5.869803
771.00 6.015945
771.10 6.211607
771.20 6.396842
771.30 6.545118
771.40 6.644106
771.50 6.604585
771.60 6.480107
771.70 6.489067
771.80 6.639737
771.90 6.776418
772.00 6.765544
772.10 6.663253
772.20 6.671844
772.30 6.770479
772.40 6.847196
772.50 6.930975
772.60 7.05772
772.70 7.192153
772.80 7.283328
772.90 7.324522
773.00 7.346055
773.10 7.38323
773.20 7.427348
773.30 7.460582
773.40 7.518021
773.50 7.59391
773.60 7.641737
773.70 7.673585
773.80 7.703574
773.90 7.742329
774.00 7.795108
774.10 7.839655
774.20 7.830161
774.30 7.718625
774.40 7.51134
774.50 7.273349
774.60 7.060572
774.70 6.900982
774.80 6.788706
774.90 6.697235
775.00 6.601079
775.10 6.449098
775.20 6.282864
775.30 6.205445
775.40 6.205593
775.50 6.267901
775.60 6.388682
775.70 6.484105
775.80 6.516588
775.90 6.519988
776.00 6.556874
776.10 6.662214
776.20 6.755281
776.30 6.740925
776.40 6.647247
776.50 6.56444
776.60 6.54472
776.70 6.61098
776.80 6.744473
776.90 6.898871
777.00 7.023711
777.10 7.085849
777.20 7.096713
777.30 7.115824
777.40 7.189304
777.50 7.259003
777.60 7.277179
777.70 7.269887
777.80 7.260422
777.90 7.265242
778.00 7.292375
778.10 7.289407
778.20 7.184303
778.30 7.011847
778.40 6.831203
778.50 6.686132
778.60 6.619911
778.70 6.610294
778.80 6.633968
778.90 6.686914
779.00 6.753991
779.10 6.827131
779.20 6.923655
779.30 7.07207
779.40 7.254447
779.50 7.406896
779.60 7.46359
779.70 7.339446
779.80 7.127461
779.90 7.009708
780.00 6.94462
780.10 6.884542
780.20 6.866513
780.30 6.967282
780.40 7.229758
780.50 7.528285
780.60 7.760318
780.70 7.949593
780.80 8.110867
780.90 8.199109
781.00 8.162588
781.10 8.023964
781.20 7.879866
781.30 7.844064
781.40 7.936612
781.50 8.104059
781.60 8.266134
781.70 8.339931
781.80 8.322974
781.90 8.277848
782.00 8.274855
782.10 8.277938
782.20 8.143267
782.30 7.854855
782.40 7.649657
782.50 7.630074
782.60 7.665843
782.70 7.696853
782.80 7.636709
782.90 7.421507
783.00 7.160369
783.10 6.973005
783.20 6.894075
783.30 6.949524
783.40 7.094472
783.50 7.230409
783.60 7.318428
783.70 7.36143
783.80 7.394278
783.90 7.461344
784.00 7.551964
784.10 7.613166
784.20 7.635978
784.30 7.644834
784.40 7.638215
784.50 7.631851
784.60 7.680051
784.70 7.800069
784.80 7.922739
784.90 7.95881
785.00 7.913898
785.10 7.878572
785.20 7.96398
785.30 8.161571
785.40 8.303594
785.50 8.247203
785.60 8.066055
785.70 7.945922
785.80 7.964277
785.90 8.090925
786.00 8.210656
786.10 8.2242
786.20 8.130346
786.30 7.982595
786.40 7.818881
786.50 7.725511
786.60 7.743526
786.70 7.842569
786.80 8.018889
786.90 8.176655
787.00 8.24955
787.10 8.192621
787.20 8.034294
787.30 7.958672
787.40 7.972115
787.50 7.999578
787.60 8.078555
787.70 8.237589
787.80 8.423974
787.90 8.548209
788.00 8.580717
788.10 8.576343
788.20 8.623698
788.30 8.690832
788.40 8.705846
788.50 8.686149
788.60 8.660808
788.70 8.653202
788.80 8.696653
788.90 8.800261
789.00 8.914782
789.10 8.989447
789.20 9.006756
789.30 8.953793
789.40 8.911814
789.50 8.939396
789.60 8.960498
789.70 8.949411
789.80 8.912117
789.90 8.836738
790.00 8.731785
790.10 8.622414
790.20 8.552753
790.30 8.564499
790.40 8.653169
790.50 8.771615
790.60 8.89169
790.70 8.907349
790.80 8.725828
790.90 8.439363
791.00 8.164065
791.10 8.004545
791.20 8.024827
791.30 8.193535
791.40 8.389489
791.50 8.483035
791.60 8.463386
791.70 8.360864
791.80 8.311969
791.90 8.347972
792.00 8.405619
792.10 8.490484
792.20 8.545226
792.30 8.580017
792.40 8.569144
792.50 8.510674
792.60 8.515708
792.70 8.553142
792.80 8.594294
792.90 8.654038
793.00 8.742213
793.10 8.882322
793.20 9.036155
793.30 9.176987
793.40 9.275357
793.50 9.274806
793.60 9.215854
793.70 9.184096
793.80 9.181715
793.90 9.179546
794.00 9.144881
794.10 9.052761
794.20 8.934989
794.30 8.860771
794.40 8.905971
794.50 9.023345
794.60 9.060995
794.70 8.924976
794.80 8.663755
794.90 8.492629
795.00 8.509258
795.10 8.652126
795.20 8.892404
795.30 9.134037
795.40 9.301887
795.50 9.41783
795.60 9.484838
795.70 9.517122
795.80 9.530153
795.90 9.507458
796.00 9.45777
796.10 9.373891
796.20 9.258187
796.30 9.216821
796.40 9.396541
796.50 9.730956
796.60 9.942047
796.70 9.906932
796.80 9.70004
796.90 9.552986
797.00 9.624554
797.10 9.757291
797.20 9.841624
797.30 9.866609
797.40 9.836478
797.50 9.830496
797.60 9.846327
797.70 9.860029
797.80 9.879062
797.90 9.867666
798.00 9.833742
798.10 9.80027
798.20 9.72959
798.30 9.642803
798.40 9.607287
798.50 9.630183
798.60 9.655639
798.70 9.629131
798.80 9.557989
798.90 9.48135
799.00 9.438766
799.10 9.507453
799.20 9.731961
799.30 10.05158
799.40 10.31271
799.50 10.27348
799.60 9.975994
799.70 9.735062
799.80 9.636772
799.90 9.615651
800.00 9.671694
800.10 9.761111
800.20 9.840135
800.30 9.929952
800.40 10.01269
800.50 10.0536
800.60 10.0548
800.70 10.04679
800.80 10.07818
800.90 10.14938
801.00 10.22554
801.10 10.26357
801.20 10.28271
801.30 10.35813
801.40 10.48574
801.50 10.57405
801.60 10.56473
801.70 10.50095
801.80 10.45521
801.90 10.47917
802.00 10.55342
802.10 10.58592
802.20 10.52598
802.30 10.44187
802.40 10.40379
802.50 10.45222
802.60 10.61036
802.70 10.72877
802.80 10.70779
802.90 10.66004
803.00 10.67355
803.10 10.76064
803.20 10.88737
803.30 10.97924
803.40 11.00086
803.50 11.00179
803.60 10.99838
803.70 10.9665
803.80 10.94248
803.90 10.94215
804.00 10.93243
804.10 10.91482
804.20 10.91127
804.30 10.94735
804.40 11.05801
804.50 11.18335
804.60 11.22246
804.70 11.16907
804.80 11.0575
804.90 10.96706
805.00 11.00229
805.10 11.18503
805.20 11.44526
805.30 11.67382
805.40 11.79841
805.50 11.81131
805.60 11.76356
805.70 11.72477
805.80 11.70037
805.90 11.66259
806.00 11.67256
806.10 11.80274
806.20 11.96009
806.30 12.0219
806.40 11.98836
806.50 11.88788
806.60 11.75765
806.70 11.68157
806.80 11.69119
806.90 11.68579
807.00 11.61984
807.10 11.5681
807.20 11.58054
807.30 11.68096
807.40 11.83634
807.50 11.95115
807.60 12.00175
807.70 12.0264
807.80 12.05814
807.90 12.10995
808.00 12.14833
808.10 12.16324
808.20 12.17474
808.30 12.1919
808.40 12.25286
808.50 12.34171
808.60 12.38162
808.70 12.3572
808.80 12.31104
808.90 12.29958
809.00 12.34043
809.10 12.39361
809.20 12.42847
809.30 12.45806
809.40 12.47886
809.50 12.472
809.60 12.45597
809.70 12.42975
809.80 12.39146
809.90 12.39181
810.00 12.41693
810.10 12.41551
810.20 12.40568
810.30 12.38812
810.40 12.37164
810.50 12.37441
810.60 12.36862
810.70 12.35932
810.80 12.40562
810.90 12.52532
811.00 12.64641
811.10 12.68994
811.20 12.66322
811.30 12.64616
811.40 12.67971
811.50 12.70726
811.60 12.64083
811.70 12.45802
811.80 12.25596
811.90 12.18706
812.00 12.3108
812.10 12.54887
812.20 12.78585
812.30 12.90936
812.40 12.89807
812.50 12.8639
812.60 12.87501
812.70 12.93717
812.80 13.01729
812.90 13.05862
813.00 13.07564
813.10 13.08122
813.20 13.05758
813.30 13.0281
813.40 13.00225
813.50 12.967
813.60 12.96098
813.70 13.02135
813.80 13.12619
813.90 13.24896
814.00 13.33845
814.10 13.33583
814.20 13.23228
814.30 13.07133
814.40 12.918
814.50 12.82283
814.60 12.8319
814.70 12.92334
814.80 12.98039
814.90 12.9387
815.00 12.83973
815.10 12.77873
815.20 12.82948
815.30 12.95726
815.40 13.05155
815.50 13.04689
815.60 12.97938
815.70 12.92631
815.80 12.91448
815.90 12.90843
816.00 12.86162
816.10 12.80415
816.20 12.76171
816.30 12.69875
816.40 12.67872
816.50 12.75368
816.60 12.87169
816.70 13.03451
816.80 13.18558
816.90 13.23217
817.00 13.19444
817.10 13.10973
817.20 13.03493
817.30 13.0233
817.40 13.03674
817.50 13.03258
817.60 13.00148
817.70 12.89779
817.80 12.70102
817.90 12.50031
818.00 12.33418
818.10 12.01143
818.20 11.32584
818.30 10.24182
818.40 9.00073
818.50 8.196292
818.60 8.246012
818.70 9.061954
818.80 10.19776
818.90 11.10516
819.00 11.55505
819.10 11.64636
819.20 11.47558
819.30 10.96808
819.40 10.00914
819.50 8.751774
819.60 7.697997
819.70 7.31641
819.80 7.725182
819.90 8.668695
820.00 9.671733
820.10 10.45759
820.20 11.05137
820.30 11.53556
820.40 11.9058
820.50 12.07863
820.60 12.02709
820.70 11.86475
820.80 11.75657
820.90 11.77133
821.00 11.89855
821.10 12.07789
821.20 12.23512
821.30 12.32611
821.40 12.32904
821.50 12.29198
821.60 12.28893
821.70 12.30584
821.80 12.31287
821.90 12.32853
822.00 12.34069
822.10 12.34383
822.20 12.37334
822.30 12.42309
822.40 12.47969
822.50 12.57664
822.60 12.69652
822.70 12.76821
822.80 12.78164
822.90 12.7697
823.00 12.79117
823.10 12.89747
823.20 13.00737
823.30 12.99833
823.40 12.86768
823.50 12.71007
823.60 12.6517
823.70 12.75613
823.80 12.92395
823.90 13.04506
824.00 13.17495
824.10 13.33194
824.20 13.40419
824.30 13.34109
824.40 13.18463
824.50 13.05144
824.60 13.06768
824.70 13.23467
824.80 13.49472
824.90 13.7402
825.00 13.83407
825.10 13.75934
825.20 13.56988
825.30 13.32622
825.40 13.11665
825.50 12.95545
825.60 12.787
825.70 12.59636
825.80 12.45214
825.90 12.44862
826.00 12.5938
826.10 12.86398
826.20 13.17214
826.30 13.34687
826.40 13.39238
826.50 13.42014
826.60 13.45308
826.70 13.53342
826.80 13.63809
826.90 13.63883
827.00 13.5202
827.10 13.33712
827.20 13.08998
827.30 12.79956
827.40 12.52877
827.50 12.35217
827.60 12.32413
827.70 12.40805
827.80 12.56513
827.90 12.75725
828.00 12.86227
828.10 12.86404
828.20 12.79629
828.30 12.64858
828.40 12.54304
828.50 12.54925
828.60 12.57468
828.70 12.60928
828.80 12.68217
828.90 12.66123
829.00 12.43625
829.10 12.15844
829.20 11.99112
829.30 11.93029
829.40 11.93572
829.50 12.00062
829.60 12.1247
829.70 12.26076
829.80 12.37775
829.90 12.51158
830.00 12.4524
830.10 12.26367
830.20 12.07494
830.30 11.89729
830.40 11.71964
830.50 11.68812
830.60 11.65661
830.70 11.6806
830.80 11.70459
830.90 11.91973
831.00 12.13487
831.10 12.21377
831.20 12.29267
831.30 12.23183
831.40 12.17099
831.50 12.1854
831.60 12.1998
831.70 12.28264
831.80 12.36548
831.90 12.37305
832.00 12.38061
832.10 12.42885
832.20 12.47709
832.30 12.50492
832.40 12.53276
832.50 12.51733
832.60 12.5019
832.70 12.22634
832.80 11.95077
832.90 11.82052
833.00 11.69027
833.10 11.9649
833.20 12.23953
833.30 12.36145
833.40 12.48337
833.50 12.26492
833.60 12.04647
833.70 12.01278
833.80 11.97909
833.90 12.10795
834.00 12.23681
834.10 12.35648
834.20 12.47616
834.30 12.62466
834.40 12.77315
834.50 12.81301
834.60 12.85287
834.70 12.53225
834.80 12.21163
834.90 12.00893
835.00 11.80623
835.10 12.00524
835.20 12.20424
835.30 12.25675
835.40 12.30925
835.50 12.27489
835.60 12.24054
835.70 12.24768
835.80 12.25483
835.90 12.33974
836.00 12.42466
836.10 12.43757
836.20 12.45049
836.30 12.3146
836.40 12.17872
836.50 12.05928
836.60 11.93985
836.70 12.04511
836.80 12.15038
836.90 12.36843
837.00 12.58648
837.10 12.68129
837.20 12.7761
837.30 12.61566
837.40 12.45522
837.50 12.21257
837.60 11.96993
837.70 11.80107
837.80 11.63221
837.90 11.67249
838.00 11.71277
838.10 11.77559
838.20 11.8384
838.30 11.77099
838.40 11.70358
838.50 11.55347
838.60 11.40336
838.70 11.24114
838.80 11.07892
838.90 10.99508
839.00 10.91125
839.10 11.14747
839.20 11.3837
839.30 11.64639
839.40 11.90908
839.50 11.90728
839.60 11.90549
839.70 11.95366
839.80 12.00183
839.90 12.13903
840.00 12.27622
840.10 12.2125
840.20 12.29485
840.30 12.37174
840.40 12.41668
840.50 12.44367
840.60 12.47413
840.70 12.51799
840.80 12.56913
840.90 12.61381
841.00 12.64707
841.10 12.55774
841.20 12.37367
841.30 12.21522
841.40 12.15361
841.50 12.16562
841.60 12.39361
841.70 12.58398
841.80 12.64898
841.90 12.60783
842.00 12.48956
842.10 12.29971
842.20 12.14624
842.30 12.06437
842.40 12.03317
842.50 11.95211
842.60 11.81209
842.70 11.6744
842.80 11.66096
842.90 11.66495
843.00 11.76376
843.10 11.83815
843.20 11.74548
843.30 11.47138
843.40 11.00961
843.50 10.37297
843.60 9.751937
843.70 9.435143
843.80 9.376379
843.90 9.703186
844.00 10.13358
844.10 10.46821
844.20 10.59909
844.30 10.59328
844.40 10.36502
844.50 10.18023
844.60 10.03675
844.70 9.966471
844.80 10.00988
844.90 10.12191
845.00 10.23785
845.10 10.10781
845.20 9.868507
845.30 9.595718
845.40 9.339124
845.50 9.122397
845.60 8.985676
845.70 8.932176
845.80 8.946862
845.90 8.975822
846.00 9.069811
846.10 9.180044
846.20 9.250088
846.30 9.234855
846.40 9.194886
846.50 9.154461
846.60 9.115533
846.70 8.994519
846.80 8.859013
846.90 8.772563
847.00 8.7411
847.10 8.752244
847.20 8.870362
847.30 8.983349
847.40 9.004432
847.50 8.985842
847.60 8.994633
847.70 9.040336
847.80 9.113333
847.90 9.229286
848.00 9.317612
848.10 9.353379
848.20 9.35253
848.30 9.384621
848.40 9.467236
848.50 9.568105
848.60 9.643292
848.70 9.720003
848.80 9.772114
848.90 9.827495
849.00 9.905029
849.10 9.987082
849.20 10.06898
849.30 10.12754
849.40 10.14818
849.50 10.12147
849.60 10.06003
849.70 10.06906
849.80 10.16382
849.90 10.25989
850.00 10.28422
850.10 10.32218
850.20 10.19902
850.30 10.07103
850.40 9.922843
850.50 9.702188
850.60 9.454572
850.70 9.283756
850.80 9.139639
850.90 9.102603
851.00 9.164145
851.10 9.27318
851.20 9.372223
851.30 9.409531
851.40 9.357898
851.50 9.276262
851.60 9.140204
851.70 8.993004
851.80 8.918416
851.90 8.887093
852.00 8.876664
852.10 8.908739
852.20 8.971327
852.30 9.0574
852.40 9.192557
852.50 9.329472
852.60 9.436456
852.70 9.541319
852.80 9.633445
852.90 9.70087
853.00 9.658865
853.10 9.625709
853.20 9.665149
853.30 9.726811
853.40 9.774928
853.50 9.815483
853.60 9.875975
853.70 9.98382
853.80 10.06936
853.90 10.05076
854.00 10.00718
854.10 10.08218
854.20 10.3016
854.30 10.49037
854.40 10.55384
854.50 10.5928
854.60 10.51332
854.70 10.42432
854.80 10.39657
854.90 10.41844
855.00 10.43985
855.10 10.49313
855.20 10.54424
855.30 10.61818
855.40 10.68513
855.50 10.69572
855.60 10.68156
855.70 10.68263
855.80 10.6635
855.90 10.57528
856.00 10.40908
856.10 10.25844
856.20 10.15571
856.30 10.10863
856.40 10.14431
856.50 10.29804
856.60 10.46874
856.70 10.68648
856.80 10.85026
856.90 10.83657
857.00 10.70193
857.10 10.58926
857.20 10.58607
857.30 10.59242
857.40 10.55614
857.50 10.54562
857.60 10.59581
857.70 10.68954
857.80 10.78417
857.90 10.82435
858.00 10.84728
858.10 10.84108
858.20 10.81919
858.30 10.76119
858.40 10.69233
858.50 10.69457
858.60 10.80116
858.70 10.90083
858.80 10.93251
858.90 10.96502
859.00 10.95532
859.10 10.91553
859.20 10.86648
859.30 10.81082
859.40 10.75951
859.50 10.79538
859.60 10.8724
859.70 10.9685
859.80 11.066
859.90 11.12047
860.00 11.11726
860.10 11.10734
860.20 11.1306
860.30 11.15322
860.40 11.19362
860.50 11.25915
860.60 11.35202
860.70 11.44491
860.80 11.50928
860.90 11.47733
861.00 11.4143
861.10 11.33324
861.20 11.24286
861.30 11.1531
861.40 11.07761
861.50 11.03323
861.60 11.02722
861.70 11.00756
861.80 10.99228
861.90 11.03041
862.00 11.11328
862.10 11.19974
862.20 11.26439
862.30 11.24751
862.40 11.19999
862.50 11.18489
862.60 11.17494
862.70 11.17705
862.80 11.16224
862.90 11.13469
863.00 11.10155
863.10 11.08016
863.20 11.04825
863.30 11.05606
863.40 11.15029
863.50 11.25786
863.60 11.34101
863.70 11.40202
863.80 11.44365
863.90 11.42985
864.00 11.39217
864.10 11.38241
864.20 11.41971
864.30 11.47255
864.40 11.49351
864.50 11.48087
864.60 11.46528
864.70 11.42526
864.80 11.3749
864.90 11.32704
865.00 11.30429
865.10 11.32264
865.20 11.37938
865.30 11.47919
865.40 11.58979
865.50 11.62112
865.60 11.61533
865.70 11.619
865.80 11.6313
865.90 11.62216
866.00 11.56509
866.10 11.48212
866.20 11.46073
866.30 11.49268
866.40 11.56924
866.50 11.68079
866.60 11.80107
866.70 11.85035
866.80 11.86769
866.90 11.86147
867.00 11.83641
867.10 11.81574
867.20 11.83123
867.30 11.86623
867.40 11.83803
867.50 11.79377
867.60 11.68918
867.70 11.62008
867.80 11.68456
867.90 11.81431
868.00 11.91929
868.10 11.95329
868.20 11.96169
868.30 11.88834
868.40 11.83554
868.50 11.81362
868.60 11.79257
868.70 11.7563
868.80 11.66623
868.90 11.51334
869.00 11.29365
869.10 11.10205
869.20 11.0054
869.30 10.93338
869.40 10.86623
869.50 10.83535
869.60 10.81831
869.70 10.80253
869.80 10.84545
869.90 10.93826
870.00 11.04475
870.10 11.1582
870.20 11.28497
870.30 11.40901
870.40 11.49806
870.50 11.57872
870.60 11.63148
870.70 11.65491
870.80 11.59979
870.90 11.48438
871.00 11.35419
871.10 11.26813
871.20 11.19514
871.30 11.13192
871.40 11.10084
871.50 11.09323
871.60 11.0634
871.70 11.00462
871.80 10.96289
871.90 10.94272
872.00 11.05979
872.10 11.20547
872.20 11.31105
872.30 11.39685
872.40 11.48382
872.50 11.55676
872.60 11.61179
872.70 11.73536
872.80 11.92981
872.90 12.09644
873.00 12.17162
873.10 12.15446
873.20 12.06745
873.30 11.94158
873.40 11.78566
873.50 11.67963
873.60 11.63193
873.70 11.62697
873.80 11.66261
873.90 11.7362
874.00 11.8044
874.10 11.91725
874.20 12.0758
874.30 12.26282
874.40 12.47883
874.50 12.62762
874.60 12.62997
874.70 12.57372
874.80 12.47373
874.90 12.3247
875.00 12.25242
875.10 12.29394
875.20 12.41551
875.30 12.54621
875.40 12.68025
875.50 12.71395
875.60 12.68738
875.70 12.64995
875.80 12.65994
875.90 12.73537
876.00 12.86182
876.10 12.99169
876.20 13.02361
876.30 12.97643
876.40 12.94711
876.50 12.90604
876.60 12.7227
876.70 12.45456
876.80 12.28786
876.90 12.38963
877.00 12.59619
877.10 12.82799
877.20 13.04252
877.30 13.22278
877.40 13.37138
877.50 13.4883
877.60 13.57265
877.70 13.61767
877.80 13.58424
877.90 13.42503
878.00 13.19836
878.10 13.03153
878.20 12.98214
878.30 13.02873
878.40 13.13945
878.50 13.26333
878.60 13.34965
878.70 13.39465
878.80 13.41974
878.90 13.45354
879.00 13.49818
879.10 13.56119
879.20 13.59568
879.30 13.62094
879.40 13.66359
879.50 13.72081
879.60 13.78601
879.70 13.84982
879.80 13.94604
879.90 14.00199
880.00 13.93342
880.10 13.60639
880.20 13.18041
880.30 12.80112
880.40 12.54773
880.50 12.4262
880.60 12.40244
880.70 12.41031
880.80 12.52412
880.90 12.66844
881.00 12.87859
881.10 13.18468
881.20 13.51318
881.30 13.78955
881.40 14.03583
881.50 14.20227
881.60 14.32327
881.70 14.38694
881.80 14.45209
881.90 14.50672
882.00 14.47873
882.10 14.36994
882.20 14.09298
882.30 13.75645
882.40 13.36485
882.50 13.01643
882.60 12.80682
882.70 12.76867
882.80 12.81922
882.90 13.12666
883.00 13.45433
883.10 13.76972
883.20 14.065
883.30 14.29641
883.40 14.42143
883.50 14.49015
883.60 14.52192
883.70 14.57234
883.80 14.53625
883.90 14.48003
884.00 14.44466
884.10 14.44937
884.20 14.49501
884.30 14.60492
884.40 14.61078
884.50 14.44783
884.60 14.23666
884.70 14.02995
884.80 13.86475
884.90 13.76479
885.00 13.76645
885.10 13.86601
885.20 14.10262
885.30 14.42596
885.40 14.74662
885.50 14.93098
885.60 14.96555
885.70 14.84699
885.80 14.5904
885.90 14.15809
886.00 13.67268
886.10 13.10892
886.20 12.56684
886.30 12.16891
886.40 11.98153
886.50 11.98008
886.60 12.21496
886.70 12.42276
886.80 12.51214
886.90 12.43004
887.00 12.18821
887.10 11.83588
887.20 11.4417
887.30 11.10957
887.40 10.96091
887.50 10.99943
887.60 11.15281
887.70 11.38315
887.80 11.65278
887.90 11.93171
888.00 12.19066
888.10 12.37192
888.20 12.42732
888.30 12.366
888.40 12.24907
888.50 12.16402
888.60 12.09564
888.70 12.05003
888.80 12.10163
888.90 12.2252
889.00 12.35702
889.10 12.49346
889.20 12.62424
889.30 12.69736
889.40 12.65339
889.50 12.56833
889.60 12.47535
889.70 12.3652
889.80 12.25246
889.90 12.20363
890.00 12.26145
890.10 12.38872
890.20 12.58846
890.30 12.9178
890.40 13.18677
890.50 13.33291
890.60 13.3686
890.70 13.37607
890.80 13.38145
890.90 13.36289
891.00 13.27966
891.10 13.18919
891.20 13.09735
891.30 13.06419
891.40 13.12468
891.50 13.23062
891.60 13.36029
891.70 13.44905
891.80 13.48747
891.90 13.46337
892.00 13.42409
892.10 13.41435
892.20 13.42463
892.30 13.40687
892.40 13.35091
892.50 13.28331
892.60 13.26092
892.70 13.26109
892.80 13.26802
892.90 13.2921
893.00 13.36212
893.10 13.46917
893.20 13.62839
893.30 13.82209
893.40 13.98368
893.50 14.09869
893.60 14.09106
893.70 13.93064
893.80 13.62308
893.90 13.23892
894.00 12.9021
894.10 12.72557
894.20 12.64302
894.30 12.61366
894.40 12.63712
894.50 12.73209
894.60 12.81387
894.70 12.8488
894.80 12.92819
894.90 13.00159
895.00 13.01726
895.10 13.0104
895.20 13.02245
895.30 13.00398
895.40 12.96496
895.50 12.99365
895.60 13.08094
895.70 13.17826
895.80 13.28465
895.90 13.39119
896.00 13.45113
896.10 13.4597
896.20 13.45495
896.30 13.39808
896.40 13.3373
896.50 13.28704
896.60 13.19727
896.70 13.09044
896.80 13.09009
896.90 13.16286
897.00 13.26265
897.10 13.39085
897.20 13.48656
897.30 13.52063
897.40 13.52979
897.50 13.56353
897.60 13.62933
897.70 13.75615
897.80 13.87781
897.90 13.93372
898.00 13.91237
898.10 13.83321
898.20 13.77997
898.30 13.77575
898.40 13.85803
898.50 14.06569
898.60 14.29867
898.70 14.47528
898.80 14.53753
898.90 14.44251
899.00 14.27765
899.10 14.13956
899.20 14.04064
899.30 14.06324
899.40 14.14444
899.50 14.19889
899.60 14.19813
899.70 14.18685
899.80 14.12266
899.90 14.03163
900.00 13.8565
900.10 13.72811
900.20 13.74102
900.30 13.85465
900.40 14.07908
900.50 14.45294
900.60 14.78963
900.70 14.93166
900.80 14.91761
900.90 14.73327
901.00 14.46133
901.10 14.2118
901.20 14.10717
901.30 14.11232
901.40 14.22478
901.50 14.29717
901.60 14.30862
901.70 14.22704
901.80 14.06341
901.90 13.87272
902.00 13.73212
902.10 13.70944
902.20 13.65623
902.30 13.62711
902.40 13.6182
902.50 13.57551
902.60 13.49111
902.70 13.42917
902.80 13.36212
902.90 13.30734
903.00 13.40391
903.10 13.56689
903.20 13.77179
903.30 14.02025
903.40 14.24836
903.50 14.39096
903.60 14.52052
903.70 14.57875
903.80 14.6245
903.90 14.71833
904.00 14.81887
904.10 14.8879
904.20 14.92397
904.30 14.89911
904.40 14.77805
904.50 14.71489
904.60 14.69646
904.70 14.70723
904.80 14.79561
904.90 14.97646
905.00 15.1212
905.10 15.0834
905.20 14.92892
905.30 14.75838
905.40 14.62481
905.50 14.52069
905.60 14.4343
905.70 14.36457
905.80 14.41592
905.90 14.48452
906.00 14.50868
906.10 14.53596
906.20 14.57083
906.30 14.56917
906.40 14.58272
906.50 14.59518
906.60 14.55297
906.70 14.49337
906.80 14.43344
906.90 14.38212
907.00 14.36613
907.10 14.36507
907.20 14.34594
907.30 14.38651
907.40 14.45344
907.50 14.48678
907.60 14.5522
907.70 14.66423
907.80 14.78916
907.90 14.9484
908.00 15.15142
908.10 15.29381
908.20 15.34009
908.30 15.27815
908.40 15.19243
908.50 15.11484
908.60 15.03258
908.70 14.95686
908.80 14.76207
908.90 14.53598
909.00 14.36671
909.10 14.29522
909.20 14.35932
909.30 14.54988
909.40 14.76125
909.50 15.02547
909.60 15.26018
909.70 15.36005
909.80 15.42065
909.90 15.44835
910.00 15.43132
910.10 15.43299
910.20 15.52594
910.30 15.57268
910.40 15.51126
910.50 15.38831
910.60 15.22733
910.70 15.07778
910.80 14.97355
910.90 14.92405
911.00 14.95211
911.10 15.14142
911.20 15.33346
911.30 15.52842
911.40 15.69437
911.50 15.79097
911.60 15.74395
911.70 15.63686
911.80 15.4934
911.90 15.40262
912.00 15.36709
912.10 15.37168
912.20 15.44244
912.30 15.59276
912.40 15.70666
912.50 15.69936
912.60 15.67625
912.70 15.61903
912.80 15.55572
912.90 15.54538
913.00 15.60255
913.10 15.66212
913.20 15.71893
913.30 15.80486
913.40 15.88291
913.50 15.93133
913.60 15.95025
913.70 15.92537
913.80 15.80068
913.90 15.50917
914.00 15.18556
914.10 15.04571
914.20 15.06817
914.30 15.14967
914.40 15.26116
914.50 15.43069
914.60 15.62664
914.70 15.75695
914.80 15.74966
914.90 15.65871
915.00 15.57031
915.10 15.53504
915.20 15.53886
915.30 15.58026
915.40 15.7145
915.50 15.79767
915.60 15.88465
915.70 16.07945
915.80 16.25201
915.90 16.29956
916.00 16.2496
916.10 16.14245
916.20 16.02856
916.30 15.90265
916.40 15.8029
916.50 15.78997
916.60 15.87325
916.70 15.99502
916.80 16.12152
916.90 16.18697
917.00 16.18444
917.10 16.1491
917.20 16.10853
917.30 16.05784
917.40 16.01671
917.50 15.96673
917.60 15.90566
917.70 15.85193
917.80 15.87742
917.90 15.91791
918.00 15.96183
918.10 16.02919
918.20 16.12173
918.30 16.22046
918.40 16.286
918.50 16.15397
918.60 16.00722
918.70 15.9521
918.80 16.00224
918.90 16.13889
919.00 16.3096
919.10 16.51442
919.20 16.69811
919.30 16.70173
919.40 16.58294
919.50 16.44298
919.60 16.32036
919.70 16.23661
919.80 16.28018
919.90 16.43443
920.00 16.54126
920.10 16.5778
920.20 16.57289
920.30 16.55192
920.40 16.5189
920.50 16.5001
920.60 16.45702
920.70 16.36128
920.80 16.17657
920.90 15.90514
921.00 15.59811
921.10 15.38007
921.20 15.35306
921.30 15.5363
921.40 15.76006
921.50 15.94768
921.60 16.09295
921.70 16.11481
921.80 16.05636
921.90 15.98846
922.00 15.96188
922.10 15.89181
922.20 15.8515
922.30 15.81414
922.40 15.73611
922.50 15.67951
922.60 15.65892
922.70 15.63771
922.80 15.63329
922.90 15.6077
923.00 15.52464
923.10 15.33586
923.20 15.11646
923.30 14.90408
923.40 14.75861
923.50 14.7353
923.60 14.83975
923.70 14.92667
923.80 15.0226
923.90 15.11559
924.00 15.16873
924.10 15.24254
924.20 15.37925
924.30 15.50909
924.40 15.62886
924.50 15.67271
924.60 15.58507
924.70 15.45357
924.80 15.35161
924.90 15.23457
925.00 15.089
925.10 15.00048
925.20 14.92702
925.30 14.87423
925.40 14.91901
925.50 15.04442
925.60 15.21305
925.70 15.34978
925.80 15.49165
925.90 15.63691
926.00 15.65888
926.10 15.60789
926.20 15.5525
926.30 15.49858
926.40 15.49124
926.50 15.54969
926.60 15.67378
926.70 15.84184
926.80 15.97574
926.90 16.0368
927.00 15.99168
927.10 15.87264
927.20 15.73575
927.30 15.66106
927.40 15.5834
927.50 15.44274
927.60 15.31071
927.70 15.17715
927.80 15.02706
927.90 14.8783
928.00 14.77062
928.10 14.72403
928.20 14.81983
928.30 14.96632
928.40 15.09285
928.50 15.1692
928.60 15.21458
928.70 15.23977
928.80 15.17908
928.90 15.00456
929.00 14.88249
929.10 14.746
929.20 14.60282
929.30 14.54488
929.40 14.58154
929.50 14.63567
929.60 14.64764
929.70 14.65066
929.80 14.67145
929.90 14.63428
930.00 14.58798
930.10 14.58154
930.20 14.56519
930.30 14.45477
930.40 14.36966
930.50 14.41964
930.60 14.45956
930.70 14.55581
930.80 14.72185
930.90 14.79414
931.00 14.81387
931.10 14.84798
931.20 14.95694
931.30 15.02853
931.40 15.09363
931.50 15.12963
931.60 15.11715
931.70 15.09601
931.80 14.98458
931.90 14.84743
932.00 14.74095
932.10 14.6781
932.20 14.65175
932.30 14.75841
932.40 14.86642
932.50 14.8989
932.60 14.81141
932.70 14.70051
932.80 14.64696
932.90 14.63161
933.00 14.62963
933.10 14.72643
933.20 14.80917
933.30 14.84565
933.40 14.76302
933.50 14.6886
933.60 14.62957
933.70 14.59795
933.80 14.58842
933.90 14.68157
934.00 14.79184
934.10 14.89093
934.20 15.04027
934.30 15.16228
934.40 15.16467
934.50 14.93862
934.60 14.73245
934.70 14.63599
934.80 14.60969
934.90 14.56271
935.00 14.68189
935.10 14.80484
935.20 14.89797
935.30 14.85202
935.40 14.83002
935.50 14.77973
935.60 14.69529
935.70 14.61799
935.80 14.56105
935.90 14.54221
936.00 14.53769
936.10 14.60474
936.20 14.67873
936.30 14.77361
936.40 14.90778
936.50 14.96532
936.60 14.94745
936.70 14.8842
936.80 14.80362
936.90 14.61323
937.00 14.40167
937.10 14.18936
937.20 13.98415
937.30 13.85858
937.40 13.89386
937.50 14.09227
937.60 14.31948
937.70 14.53877
937.80 14.74475
937.90 14.92926
938.00 14.88341
938.10 14.79511
938.20 14.72212
938.30 14.73285
938.40 14.7849
938.50 14.8608
938.60 14.93208
938.70 14.99945
938.80 14.93796
938.90 14.86605
939.00 14.80993
939.10 14.83902
939.20 14.87911
939.30 14.93473
939.40 15.00289
939.50 15.04558
939.60 15.01354
939.70 14.93187
939.80 14.83077
939.90 14.73847
940.00 14.7114
940.10 14.7034
940.20 14.67812
940.30 14.65822
940.40 14.7253
940.50 14.87059
940.60 15.01915
940.70 15.13875
940.80 15.2582
940.90 15.36767
941.00 15.38488
941.10 15.35602
941.20 15.30875
941.30 15.25058
941.40 15.14316
941.50 15.07721
941.60 15.03918
941.70 15.0191
941.80 14.92056
941.90 14.86843
942.00 14.86443
942.10 14.95679
942.20 15.02857
942.30 15.11964
942.40 15.2107
942.50 15.29538
942.60 15.3555
942.70 15.40034
942.80 15.41846
942.90 15.30508
943.00 15.22659
943.10 15.20134
943.20 15.21706
943.30 15.24408
943.40 15.38868
943.50 15.55824
943.60 15.7053
943.70 15.66827
943.80 15.59344
943.90 15.4737
944.00 15.27591
944.10 15.09945
944.20 14.92158
944.30 14.75819
944.40 14.61007
944.50 14.57361
944.60 14.57917
944.70 14.60265
944.80 14.62972
944.90 14.65978
945.00 14.71998
945.10 14.82919
945.20 14.9513
945.30 15.07852
945.40 15.18532
945.50 15.28437
945.60 15.26481
945.70 15.23222
945.80 15.19234
945.90 15.17222
946.00 15.16556
946.10 15.13989
946.20 15.11389
946.30 15.10966
946.40 15.15364
946.50 15.15009
946.60 15.13705
946.70 15.22771
946.80 15.35308
946.90 15.42726
947.00 15.43092
947.10 15.4365
947.20 15.48604
947.30 15.53639
947.40 15.57868
947.50 15.58555
947.60 15.60565
947.70 15.6412
947.80 15.70146
947.90 15.77925
948.00 15.86285
948.10 15.95062
948.20 16.01526
948.30 15.92465
948.40 15.82251
948.50 15.75372
948.60 15.83632
948.70 15.89032
948.80 15.91034
948.90 15.91376
949.00 15.95479
949.10 16.01511
949.20 16.05512
949.30 16.07388
949.40 16.05496
949.50 16.0053
949.60 15.92175
949.70 15.79192
949.80 15.74339
949.90 15.79738
950.00 15.9069
950.10 16.00862
950.20 15.92206
950.30 15.79326
950.40 15.67593
950.50 15.72755
950.60 15.77402
950.70 15.81924
950.80 15.85959
950.90 15.92885
951.00 15.96787
951.10 15.97984
951.20 15.98432
951.30 16.01405
951.40 16.01667
951.50 15.97895
951.60 15.87813
951.70 15.81299
951.80 15.76312
951.90 15.72862
952.00 15.70337
952.10 15.73949
952.20 15.8028
952.30 15.87021
952.40 15.90949
952.50 15.97403
952.60 16.07509
952.70 16.20092
952.80 16.27875
952.90 16.28245
953.00 16.26149
953.10 16.24384
953.20 16.24871
953.30 16.22455
953.40 16.19329
953.50 16.16493
953.60 16.13447
953.70 16.07602
953.80 16.02405
953.90 15.98415
954.00 15.97505
954.10 15.96811
954.20 15.97233
954.30 15.97737
954.40 15.97745
954.50 15.9358
954.60 15.85842
954.70 15.74483
954.80 15.7063
954.90 15.71512
955.00 15.7678
955.10 15.94632
955.20 16.11458
955.30 16.24312
955.40 16.31132
955.50 16.37417
955.60 16.36752
955.70 16.32871
955.80 16.29304
955.90 16.36119
956.00 16.41818
956.10 16.46801
956.20 16.52054
956.30 16.50649
956.40 16.48184
956.50 16.48411
956.60 16.52913
956.70 16.43136
956.80 16.30512
956.90 16.2081
957.00 16.31357
957.10 16.39241
957.20 16.41944
957.30 16.3482
957.40 16.2163
957.50 16.08919
957.60 15.98874
957.70 15.9066
957.80 15.96432
957.90 16.06375
958.00 16.14798
958.10 16.09773
958.20 16.06631
958.30 16.06484
958.40 16.08625
958.50 16.06809
958.60 16.13697
958.70 16.19335
958.80 16.21906
958.90 16.14445
959.00 16.06656
959.10 15.96548
959.20 15.83874
959.30 15.79229
959.40 15.77124
959.50 15.72408
959.60 15.63929
959.70 15.59484
959.80 15.50807
959.90 15.36747
960.00 15.10041
960.10 14.93685
960.20 14.96428
960.30 15.16496
960.40 15.45507
960.50 15.70722
960.60 15.88911
960.70 16.01459
960.80 16.03407
960.90 16.01277
961.00 16.00713
961.10 16.04307
961.20 16.05585
961.30 16.01756
961.40 15.96926
961.50 15.93152
961.60 15.95386
961.70 16.02335
961.80 16.12984
961.90 16.25463
962.00 16.36631
962.10 16.42735
962.20 16.43357
962.30 16.40288
962.40 16.39113
962.50 16.41318
962.60 16.45431
962.70 16.44433
962.80 16.39366
962.90 16.3445
963.00 16.31884
963.10 16.28507
963.20 16.29871
963.30 16.31033
963.40 16.31685
963.50 16.2849
963.60 16.17062
963.70 15.90534
963.80 15.42635
963.90 14.94196
964.00 14.61013
964.10 14.46282
964.20 14.50169
964.30 14.89768
964.40 15.27985
964.50 15.56086
964.60 15.57176
964.70 15.43143
964.80 15.2556
964.90 15.07739
965.00 14.94633
965.10 15.07106
965.20 15.27414
965.30 15.48853
965.40 15.64396
965.50 15.79984
965.60 15.94625
965.70 16.08165
965.80 16.20448
965.90 16.28708
966.00 16.34698
966.10 16.41507
966.20 16.46477
966.30 16.49515
966.40 16.49537
966.50 16.43343
966.60 16.33787
966.70 16.29633
966.80 16.32257
966.90 16.35285
967.00 16.30591
967.10 16.22822
967.20 16.14404
967.30 16.0572
967.40 15.88544
967.50 15.64149
967.60 15.33888
967.70 15.07728
967.80 15.01086
967.90 15.11897
968.00 15.35244
968.10 15.75613
968.20 16.08555
968.30 16.30254
968.40 16.36224
968.50 16.30945
968.60 16.19184
968.70 16.0188
968.80 15.82429
968.90 15.58409
969.00 15.41369
969.10 15.33519
969.20 15.50592
969.30 15.77248
969.40 16.04701
969.50 16.29138
969.60 16.47546
969.70 16.62992
969.80 16.74893
969.90 16.83189
970.00 16.77879
970.10 16.71351
970.20 16.60865
970.30 16.43881
970.40 16.18217
970.50 15.88585
970.60 15.5925
970.70 15.31554
970.80 15.25302
970.90 15.34883
971.00 15.58219
971.10 15.97049
971.20 16.33974
971.30 16.6219
971.40 16.81672
971.50 16.94578
971.60 16.94771
971.70 16.87605
971.80 16.76643
971.90 16.61871
972.00 16.4597
972.10 16.3571
972.20 16.36
972.30 16.42378
972.40 16.47564
972.50 16.50091
972.60 16.50721
972.70 16.28248
972.80 15.97457
972.90 15.65952
973.00 15.46225
973.10 15.38073
973.20 15.39878
973.30 15.48372
973.40 15.64716
973.50 15.79181
973.60 15.8942
973.70 15.95702
973.80 15.96273
973.90 15.96383
974.00 16.00334
974.10 16.08799
974.20 16.12051
974.30 16.02732
974.40 15.88396
974.50 15.7263
974.60 15.65556
974.70 15.67232
974.80 15.74122
974.90 15.81473
975.00 15.89076
975.10 16.00675
975.20 16.15882
975.30 16.29683
975.40 16.30008
975.50 16.29265
975.60 16.2886
975.70 16.32956
975.80 16.35469
975.90 16.37665
976.00 16.37838
976.10 16.36588
976.20 16.32916
976.30 16.30246
976.40 16.29255
976.50 16.35808
976.60 16.4407
976.70 16.48998
976.80 16.47949
976.90 16.36641
977.00 16.16848
977.10 15.9322
977.20 15.70155
977.30 15.68427
977.40 15.78578
977.50 15.94575
977.60 16.10287
977.70 16.22679
977.80 16.32083
977.90 16.37815
978.00 16.37186
978.10 16.21107
978.20 15.96575
978.30 15.65303
978.40 15.26281
978.50 14.95012
978.60 14.72
978.70 14.5491
978.80 14.47913
978.90 14.65202
979.00 14.94787
979.10 15.28528
979.20 15.58965
979.30 15.90055
979.40 16.18518
979.50 16.41321
979.60 16.52196
979.70 16.60782
979.80 16.70292
979.90 16.78418
980.00 16.7691
980.10 16.73867
980.20 16.71561
980.30 16.70115
980.40 16.66899
980.50 16.63517
980.60 16.60263
980.70 16.56814
980.80 16.52084
980.90 16.48995
981.00 16.48212
981.10 16.53435
981.20 16.57042
981.30 16.56703
981.40 16.50871
981.50 16.3954
981.60 16.30451
981.70 16.26477
981.80 16.26952
981.90 16.27719
982.00 16.29121
982.10 16.30228
982.20 16.32636
982.30 16.33571
982.40 16.35493
982.50 16.3836
982.60 16.42607
982.70 16.43964
982.80 16.42876
982.90 16.39872
983.00 16.37243
983.10 16.32944
983.20 16.28407
983.30 16.23816
983.40 16.21144
983.50 16.16894
983.60 16.11544
983.70 16.0572
983.80 16.05556
983.90 16.0995
984.00 16.17631
984.10 16.26445
984.20 16.34126
984.30 16.40402
984.40 16.44332
984.50 16.45224
984.60 16.42473
984.70 16.43185
984.80 16.45321
984.90 16.46844
985.00 16.43135
985.10 16.38411
985.20 16.34686
985.30 16.31048
985.40 16.31585
985.50 16.37253
985.60 16.46975
985.70 16.53283
985.80 16.54673
985.90 16.53977
986.00 16.53685
986.10 16.52507
986.20 16.50885
986.30 16.49647
986.40 16.49971
986.50 16.50262
986.60 16.48846
986.70 16.46137
986.80 16.4659
986.90 16.43071
987.00 16.39045
987.10 16.36554
987.20 16.40018
987.30 16.44611
987.40 16.50779
987.50 16.5729
987.60 16.63961
987.70 16.64196
987.80 16.59186
987.90 16.50068
988.00 16.38737
988.10 16.33199
988.20 16.34179
988.30 16.40283
988.40 16.50193
988.50 16.61526
988.60 16.72723
988.70 16.83469
988.80 16.87576
988.90 16.86016
989.00 16.80816
989.10 16.7405
989.20 16.66691
989.30 16.56567
989.40 16.41206
989.50 16.17483
989.60 15.81452
989.70 15.37294
989.80 14.91456
989.90 14.51204
990.00 14.24101
990.10 14.03469
990.20 13.8696
990.30 13.69528
990.40 13.43414
990.50 13.11415
990.60 12.76253
990.70 12.45883
990.80 12.26061
990.90 12.16375
991.00 12.14323
991.10 12.26783
991.20 12.37935
991.30 12.42865
991.40 12.37323
991.50 12.22369
991.60 12.09749
991.70 12.02912
991.80 12.04611
991.90 12.21726
992.00 12.43574
992.10 12.65362
992.20 12.82021
992.30 12.84089
992.40 12.77808
992.50 12.68361
992.60 12.62815
992.70 12.64405
992.80 12.73747
992.90 12.92007
993.00 13.2513
993.10 13.54932
993.20 13.75368
993.30 13.84863
993.40 13.78467
993.50 13.68026
993.60 13.62424
993.70 13.67275
993.80 13.90397
993.90 14.18643
994.00 14.46575
994.10 14.71262
994.20 14.8294
994.30 14.83002
994.40 14.75717
994.50 14.64049
994.60 14.59778
994.70 14.61008
994.80 14.66361
994.90 14.72747
995.00 14.82678
995.10 14.97044
995.20 15.15896
995.30 15.32321
995.40 15.39611
995.50 15.38863
995.60 15.30906
995.70 15.13069
995.80 14.94814
995.90 14.7926
996.00 14.66458
996.10 14.60406
996.20 14.6366
996.30 14.75633
996.40 14.96001
996.50 15.25039
996.60 15.50913
996.70 15.67341
996.80 15.69794
996.90 15.45942
997.00 15.10562
997.10 14.72338
997.20 14.3849
997.30 14.15462
997.40 14.05029
997.50 14.07602
997.60 14.25178
997.70 14.46669
997.80 14.66555
997.90 14.83197
998.00 14.97361
998.10 15.09648
998.20 15.15999
998.30 15.15071
998.40 15.0064
998.50 14.84301
998.60 14.69039
998.70 14.56253
998.80 14.51895
998.90 14.53123
999.00 14.54884
999.10 14.54914
999.20 14.58663
999.30 14.67737
999.40 14.78942
999.50 14.84685
999.60 14.85848
999.70 14.84369
999.80 14.82697
999.90 14.8384
1000.00 14.91015
1000.10 15.04581
1000.20 15.22054
1000.30 15.41863
1000.40 15.55199
1000.50 15.63843
1000.60 15.67969
1000.70 15.62023
1000.80 15.46908
1000.90 15.2555
1001.00 15.01406
1001.10 14.84727
1001.20 14.77797
1001.30 14.80591
1001.40 14.92706
1001.50 15.15474
1001.60 15.40665
1001.70 15.65253
1001.80 15.8635
1001.90 15.92156
1002.00 15.8803
1002.10 15.79301
1002.20 15.70493
1002.30 15.69634
1002.40 15.722
1002.50 15.75996
1002.60 15.79141
1002.70 15.82175
1002.80 15.78745
1002.90 15.70302
1003.00 15.57683
1003.10 15.50875
1003.20 15.46916
1003.30 15.43668
1003.40 15.35701
1003.50 15.2436
1003.60 15.12822
1003.70 15.02474
1003.80 15.04855
1003.90 15.16045
1004.00 15.31852
1004.10 15.47462
1004.20 15.66989
1004.30 15.83508
1004.40 15.95145
1004.50 16.01478
1004.60 16.06112
1004.70 16.04035
1004.80 15.96417
1004.90 15.82674
1005.00 15.58781
1005.10 15.29847
1005.20 14.98662
1005.30 14.7011
1005.40 14.42691
1005.50 14.23253
1005.60 14.1192
1005.70 14.13265
1005.80 14.23312
1005.90 14.36681
1006.00 14.50864
1006.10 14.62851
1006.20 14.74514
1006.30 14.82412
1006.40 14.86034
1006.50 14.91231
1006.60 15.0413
1006.70 15.21971
1006.80 15.41616
1006.90 15.59987
1007.00 15.76424
1007.10 15.85636
1007.20 15.84518
1007.30 15.74149
1007.40 15.71037
1007.50 15.74396
1007.60 15.83344
1007.70 15.97526
1007.80 16.09126
1007.90 16.14838
1008.00 16.13619
1008.10 16.10867
1008.20 16.09414
1008.30 16.09472
1008.40 16.15533
1008.50 16.23554
1008.60 16.28071
1008.70 16.24016
1008.80 16.09293
1008.90 15.93118
1009.00 15.76262
1009.10 15.58778
1009.20 15.5037
1009.30 15.50655
1009.40 15.56293
1009.50 15.63856
1009.60 15.78368
1009.70 15.94949
1009.80 16.13938
1009.90 16.34428
1010.00 16.56765
1010.10 16.78003
1010.20 16.9626
1010.30 17.06444
1010.40 17.04101
1010.50 16.96737
1010.60 16.86363
1010.70 16.72861
1010.80 16.54309
1010.90 16.34306
1011.00 16.13739
1011.10 15.96823
1011.20 15.79723
1011.30 15.65343
1011.40 15.54895
1011.50 15.50866
1011.60 15.46527
1011.70 15.41251
1011.80 15.35692
1011.90 15.34081
1012.00 15.42756
1012.10 15.61472
1012.20 15.89693
1012.30 16.18253
1012.40 16.38543
1012.50 16.50493
1012.60 16.5574
1012.70 16.58183
1012.80 16.57953
1012.90 16.57478
1013.00 16.52581
1013.10 16.4814
1013.20 16.43353
1013.30 16.36103
1013.40 16.18136
1013.50 15.91958
1013.60 15.61746
1013.70 15.31951
1013.80 15.06954
1013.90 14.98673
1014.00 15.00391
1014.10 15.10355
1014.20 15.28568
1014.30 15.48835
1014.40 15.6356
1014.50 15.69843
1014.60 15.63946
1014.70 15.52375
1014.80 15.42281
1014.90 15.38697
1015.00 15.5182
1015.10 15.70613
1015.20 15.88104
1015.30 16.04734
1015.40 16.11507
1015.50 16.0539
1015.60 15.86279
1015.70 15.60556
1015.80 15.3818
1015.90 15.26222
1016.00 15.21621
1016.10 15.26203
1016.20 15.38758
1016.30 15.50061
1016.40 15.58482
1016.50 15.63298
1016.60 15.71632
1016.70 15.81951
1016.80 15.90427
1016.90 15.8885
1017.00 15.75201
1017.10 15.58208
1017.20 15.42593
1017.30 15.42146
1017.40 15.57803
1017.50 15.85723
1017.60 16.18413
1017.70 16.39094
1017.80 16.38947
1017.90 16.26358
1018.00 16.03892
1018.10 15.811
1018.20 15.65286
1018.30 15.53282
1018.40 15.40445
1018.50 15.26194
1018.60 15.16879
1018.70 15.13896
1018.80 15.19899
1018.90 15.35104
1019.00 15.54684
1019.10 15.7511
1019.20 15.90845
1019.30 15.97727
1019.40 15.99504
1019.50 15.98978
1019.60 15.97924
1019.70 15.98542
1019.80 15.98774
1019.90 15.96966
1020.00 15.90329
1020.10 15.82976
1020.20 15.77742
1020.30 15.75267
1020.40 15.78723
1020.50 15.87779
1020.60 15.99418
1020.70 16.11987
1020.80 16.20371
1020.90 16.24853
1021.00 16.24849
1021.10 16.19884
1021.20 16.08268
1021.30 15.90893
1021.40 15.71325
1021.50 15.51782
1021.60 15.41181
1021.70 15.32728
1021.80 15.23422
1021.90 15.07568
1022.00 14.95612
1022.10 14.92114
1022.20 14.97459
1022.30 15.13681
1022.40 15.3596
1022.50 15.58742
1022.60 15.78955
1022.70 15.91126
1022.80 15.9675
1022.90 15.97363
1023.00 15.94148
1023.10 15.86878
1023.20 15.7856
1023.30 15.72322
1023.40 15.68552
1023.50 15.71235
1023.60 15.79925
1023.70 15.91123
1023.80 16.02883
1023.90 16.09923
1024.00 16.15897
1024.10 16.23197
1024.20 16.31197
1024.30 16.41202
1024.40 16.4337
1024.50 16.39186
1024.60 16.31078
1024.70 16.22641
1024.80 16.13212
1024.90 16.01844
1025.00 15.90873
1025.10 15.7863
1025.20 15.64351
1025.30 15.50182
1025.40 15.3992
1025.50 15.39961
1025.60 15.45468
1025.70 15.49678
1025.80 15.46525
1025.90 15.34288
1026.00 15.17142
1026.10 14.95024
1026.20 14.71991
1026.30 14.59736
1026.40 14.61091
1026.50 14.72937
1026.60 14.99069
1026.70 15.25849
1026.80 15.51448
1026.90 15.76565
1027.00 15.95772
1027.10 16.0426
1027.20 16.04121
1027.30 15.98576
1027.40 15.85365
1027.50 15.70186
1027.60 15.55335
1027.70 15.45301
1027.80 15.40343
1027.90 15.37372
1028.00 15.328
1028.10 15.24468
1028.20 15.10178
1028.30 14.95374
1028.40 14.82715
1028.50 14.80988
1028.60 14.90626
1028.70 15.09756
1028.80 15.36337
1028.90 15.63052
1029.00 15.76762
1029.10 15.80977
1029.20 15.82025
1029.30 15.77239
1029.40 15.71305
1029.50 15.68082
1029.60 15.68686
1029.70 15.68188
1029.80 15.63658
1029.90 15.56519
1030.00 15.48485
1030.10 15.41729
1030.20 15.41791
1030.30 15.4797
1030.40 15.59003
1030.50 15.70146
1030.60 15.83264
1030.70 15.94536
1030.80 16.00664
1030.90 15.95971
1031.00 15.91328
1031.10 15.90745
1031.20 15.95423
1031.30 16.00163
1031.40 16.04687
1031.50 16.08288
1031.60 16.07578
1031.70 15.97578
1031.80 15.83533
1031.90 15.70486
1032.00 15.63772
1032.10 15.60888
1032.20 15.56901
1032.30 15.50797
1032.40 15.43967
1032.50 15.39344
1032.60 15.40077
1032.70 15.44201
1032.80 15.62327
1032.90 15.8874
1033.00 16.16385
1033.10 16.42715
1033.20 16.59907
1033.30 16.6673
1033.40 16.6138
1033.50 16.44058
1033.60 16.13638
1033.70 15.81257
1033.80 15.51608
1033.90 15.28919
1034.00 15.11886
1034.10 14.98809
1034.20 14.85
1034.30 14.56756
1034.40 14.23901
1034.50 14.0065
1034.60 13.90749
1034.70 13.94506
1034.80 14.17271
1034.90 14.44401
1035.00 14.70005
1035.10 14.93456
1035.20 15.09623
1035.30 15.20911
1035.40 15.26654
1035.50 15.38574
1035.60 15.52436
1035.70 15.67427
1035.80 15.84062
1035.90 16.01412
1036.00 16.19537
1036.10 16.36193
1036.20 16.48554
1036.30 16.54589
1036.40 16.55311
1036.50 16.53221
1036.60 16.50207
1036.70 16.49875
1036.80 16.51777
1036.90 16.55183
1037.00 16.58213
1037.10 16.66316
1037.20 16.78122
1037.30 16.90175
1037.40 16.96644
1037.50 16.9237
1037.60 16.80288
1037.70 16.61229
1037.80 16.393
1037.90 16.13157
1038.00 15.86298
1038.10 15.60631
1038.20 15.46543
1038.30 15.44425
1038.40 15.52253
1038.50 15.69246
1038.60 15.91515
1038.70 16.08322
1038.80 16.16417
1038.90 16.17082
1039.00 16.10154
1039.10 16.02714
1039.20 15.95444
1039.30 15.88112
1039.40 15.74304
1039.50 15.58839
1039.60 15.42811
1039.70 15.27229
1039.80 15.19752
1039.90 15.23119
1040.00 15.34062
1040.10 15.50962
1040.20 15.76409
1040.30 16.02009
1040.40 16.24407
1040.50 16.41629
1040.60 16.54164
1040.70 16.62564
1040.80 16.6746
1040.90 16.67529
1041.00 16.60546
1041.10 16.46004
1041.20 16.25964
1041.30 16.05268
1041.40 15.91351
1041.50 15.83712
1041.60 15.84243
1041.70 16.02376
1041.80 16.26773
1041.90 16.50004
1042.00 16.67516
1042.10 16.7862
1042.20 16.74864
1042.30 16.60051
1042.40 16.39334
1042.50 16.15682
1042.60 15.91845
1042.70 15.6871
1042.80 15.4771
1042.90 15.33531
1043.00 15.32481
1043.10 15.45136
1043.20 15.68387
1043.30 16.02287
1043.40 16.34134
1043.50 16.60475
1043.60 16.74527
1043.70 16.81543
1043.80 16.83729
1043.90 16.8287
1044.00 16.77156
1044.10 16.74084
1044.20 16.73503
1044.30 16.74892
1044.40 16.77278
1044.50 16.7473
1044.60 16.69586
1044.70 16.63055
1044.80 16.63362
1044.90 16.70486
1045.00 16.80892
1045.10 16.92339
1045.20 17.06644
1045.30 17.25613
1045.40 17.44051
1045.50 17.58032
1045.60 17.63768
1045.70 17.61318
1045.80 17.54232
1045.90 17.44998
1046.00 17.30849
1046.10 17.12427
1046.20 16.93619
1046.30 16.78542
1046.40 16.63072
1046.50 16.4944
1046.60 16.35169
1046.70 16.21053
1046.80 16.05363
1046.90 15.89446
1047.00 15.74309
1047.10 15.63945
1047.20 15.60832
1047.30 15.63061
1047.40 15.7065
1047.50 15.87588
1047.60 16.01375
1047.70 16.09696
1047.80 16.12387
1047.90 16.11085
1048.00 16.08591
1048.10 16.09075
1048.20 16.14479
1048.30 16.23454
1048.40 16.35203
1048.50 16.45393
1048.60 16.52658
1048.70 16.52412
1048.80 16.52559
1048.90 16.53575
1049.00 16.55906
1049.10 16.58422
1049.20 16.62089
1049.30 16.64281
1049.40 16.62258
1049.50 16.49475
1049.60 16.28476
1049.70 16.03856
1049.80 15.80212
1049.90 15.73085
1050.00 15.80432
1050.10 15.98092
1050.20 16.22333
1050.30 16.41986
1050.40 16.52185
1050.50 16.55891
1050.60 16.54723
1050.70 16.50561
1050.80 16.46531
1050.90 16.42765
1051.00 16.3606
1051.10 16.23435
1051.20 16.07926
1051.30 15.92766
1051.40 15.79181
1051.50 15.69081
1051.60 15.6474
1051.70 15.66215
1051.80 15.71705
1051.90 15.74657
1052.00 15.74985
1052.10 15.73613
1052.20 15.74292
1052.30 15.79754
1052.40 15.90192
1052.50 16.04964
1052.60 16.26023
1052.70 16.4571
1052.80 16.62422
1052.90 16.74925
1053.00 16.77603
1053.10 16.71449
1053.20 16.61793
1053.30 16.53837
1053.40 16.52343
1053.50 16.55204
1053.60 16.57679
1053.70 16.57855
1053.80 16.52065
1053.90 16.47037
1054.00 16.44205
1054.10 16.45019
1054.20 16.47212
1054.30 16.51132
1054.40 16.53432
1054.50 16.51865
1054.60 16.40817
1054.70 16.27721
1054.80 16.16542
1054.90 16.11701
1055.00 16.14429
1055.10 16.24841
1055.20 16.40236
1055.30 16.4978
1055.40 16.49856
1055.50 16.44073
1055.60 16.35621
1055.70 16.20893
1055.80 16.03602
1055.90 15.86569
1056.00 15.70594
1056.10 15.64537
1056.20 15.63641
1056.30 15.65056
1056.40 15.63623
1056.50 15.65341
1056.60 15.71276
1056.70 15.79118
1056.80 15.85038
1056.90 15.86438
1057.00 15.86745
1057.10 15.8848
1057.20 15.93366
1057.30 16.01695
1057.40 16.10264
1057.50 16.1764
1057.60 16.24101
1057.70 16.29038
1057.80 16.31721
1057.90 16.33288
1058.00 16.37008
1058.10 16.42075
1058.20 16.43224
1058.30 16.3866
1058.40 16.26298
1058.50 16.08033
1058.60 15.88416
1058.70 15.6973
1058.80 15.62418
1058.90 15.62411
1059.00 15.68242
1059.10 15.78072
1059.20 15.87447
1059.30 15.94701
1059.40 16.03096
1059.50 16.13999
1059.60 16.22109
1059.70 16.26681
1059.80 16.27267
1059.90 16.25113
1060.00 16.17371
1060.10 16.09883
1060.20 16.04479
1060.30 16.01142
1060.40 15.99599
1060.50 15.96276
1060.60 15.9
1060.70 15.7803
1060.80 15.66035
1060.90 15.58319
1061.00 15.55668
1061.10 15.59613
1061.20 15.68558
1061.30 15.79466
1061.40 15.92341
1061.50 16.09525
1061.60 16.21386
1061.70 16.243
1061.80 16.19348
1061.90 16.09042
1062.00 16.00992
1062.10 15.94354
1062.20 15.90511
1062.30 15.89099
1062.40 15.92441
1062.50 16.00562
1062.60 16.12529
1062.70 16.2972
1062.80 16.46295
1062.90 16.6004
1063.00 16.69204
1063.10 16.69213
1063.20 16.63961
1063.30 16.57073
1063.40 16.52377
1063.50 16.52171
1063.60 16.52184
1063.70 16.53049
1063.80 16.56316
1063.90 16.60703
1064.00 16.65617
1064.10 16.70612
1064.20 16.76164
1064.30 16.76031
1064.40 16.75071
1064.50 16.74851
1064.60 16.76031
1064.70 16.74128
1064.80 16.71743
1064.90 16.69314
1065.00 16.66816
1065.10 16.63276
1065.20 16.57257
1065.30 16.48187
1065.40 16.33449
1065.50 16.20252
1065.60 16.11823
1065.70 16.08524
1065.80 16.09756
1065.90 16.11183
1066.00 16.08647
1066.10 15.99221
1066.20 15.81238
1066.30 15.62201
1066.40 15.46943
1066.50 15.38289
1066.60 15.42642
1066.70 15.51793
1066.80 15.60726
1066.90 15.6781
1067.00 15.69407
1067.10 15.68408
1067.20 15.70124
1067.30 15.78404
1067.40 15.93435
1067.50 16.08611
1067.60 16.21216
1067.70 16.292
1067.80 16.31495
1067.90 16.35119
1068.00 16.40751
1068.10 16.48183
1068.20 16.61977
1068.30 16.79692
1068.40 16.97466
1068.50 17.151
1068.60 17.28994
1068.70 17.36272
1068.80 17.3589
1068.90 17.31488
1069.00 17.24309
1069.10 17.17823
1069.20 17.13236
1069.30 17.10836
1069.40 17.03479
1069.50 16.90952
1069.60 16.74734
1069.70 16.60769
1069.80 16.52777
1069.90 16.5045
1070.00 16.5091
1070.10 16.51876
1070.20 16.48528
1070.30 16.4209
1070.40 16.35033
1070.50 16.35438
1070.60 16.40755
1070.70 16.48646
1070.80 16.56553
1070.90 16.61984
1071.00 16.60709
1071.10 16.57382
1071.20 16.55486
1071.30 16.61454
1071.40 16.67621
1071.50 16.72338
1071.60 16.74679
1071.70 16.7677
1071.80 16.75561
1071.90 16.73723
1072.00 16.72842
1072.10 16.73146
1072.20 16.70737
1072.30 16.64065
1072.40 16.51671
1072.50 16.34633
1072.60 16.20874
1072.70 16.11483
1072.80 16.05649
1072.90 16.07679
1073.00 16.17177
1073.10 16.31569
1073.20 16.40291
1073.30 16.37818
1073.40 16.29665
1073.50 16.21156
1073.60 16.1505
1073.70 16.17463
1073.80 16.27569
1073.90 16.45179
1074.00 16.62948
1074.10 16.71679
1074.20 16.75237
1074.30 16.75708
1074.40 16.79558
1074.50 16.78633
1074.60 16.72003
1074.70 16.59738
1074.80 16.49515
1074.90 16.43367
1075.00 16.37844
1075.10 16.32912
1075.20 16.34698
1075.30 16.3713
1075.40 16.38527
1075.50 16.37301
1075.60 16.40391
1075.70 16.4878
1075.80 16.60718
1075.90 16.74945
1076.00 16.85607
1076.10 16.89351
1076.20 16.88702
1076.30 16.86629
1076.40 16.85391
1076.50 16.85256
1076.60 16.85694
1076.70 16.87601
1076.80 16.87817
1076.90 16.88593
1077.00 16.88749
1077.10 16.87605
1077.20 16.8325
1077.30 16.74797
1077.40 16.62902
1077.50 16.48332
1077.60 16.38171
1077.70 16.32527
1077.80 16.31042
1077.90 16.34652
1078.00 16.42144
1078.10 16.49514
1078.20 16.54746
1078.30 16.55193
1078.40 16.56028
1078.50 16.5839
1078.60 16.6113
1078.70 16.62175
1078.80 16.58367
1078.90 16.51641
1079.00 16.43329
1079.10 16.35978
1079.20 16.29663
1079.30 16.23982
1079.40 16.19098
1079.50 16.17141
1079.60 16.21189
1079.70 16.29882
1079.80 16.40042
1079.90 16.48482
1080.00 16.52815
1080.10 16.5426
1080.20 16.54873
1080.30 16.61604
1080.40 16.68505
1080.50 16.74335
1080.60 16.76806
1080.70 16.81889
1080.80 16.85721
1080.90 16.87629
1081.00 16.8608
1081.10 16.84729
1081.20 16.83549
1081.30 16.82974
1081.40 16.85319
1081.50 16.89325
1081.60 16.93191
1081.70 16.95851
1081.80 16.96483
1081.90 16.98023
1082.00 16.96815
1082.10 16.92181
1082.20 16.79693
1082.30 16.66748
1082.40 16.56232
1082.50 16.48626
1082.60 16.45965
1082.70 16.52901
1082.80 16.65423
1082.90 16.80066
1083.00 16.99661
1083.10 17.19072
1083.20 17.31232
1083.30 17.26841
1083.40 17.17224
1083.50 16.97977
1083.60 16.72099
1083.70 16.46579
1083.80 16.39223
1083.90 16.38278
1084.00 16.43295
1084.10 16.5708
1084.20 16.67948
1084.30 16.71272
1084.40 16.67491
1084.50 16.59802
1084.60 16.55188
1084.70 16.50547
1084.80 16.47539
1084.90 16.4426
1085.00 16.48944
1085.10 16.57636
1085.20 16.67064
1085.30 16.70509
1085.40 16.68767
1085.50 16.66977
1085.60 16.67883
1085.70 16.71913
1085.80 16.79357
1085.90 16.87956
1086.00 16.97731
1086.10 17.05964
1086.20 17.11805
1086.30 17.14412
1086.40 17.14495
1086.50 17.13558
1086.60 17.08796
1086.70 17.0251
1086.80 16.96632
1086.90 16.97135
1087.00 17.00189
1087.10 17.04714
1087.20 17.09453
1087.30 17.07359
1087.40 16.9858
1087.50 16.86969
1087.60 16.7739
1087.70 16.74115
1087.80 16.74254
1087.90 16.75663
1088.00 16.77523
1088.10 16.80023
1088.20 16.79282
1088.30 16.77281
1088.40 16.75266
1088.50 16.76969
1088.60 16.80047
1088.70 16.8166
1088.80 16.79723
1088.90 16.80296
1089.00 16.8271
1089.10 16.86934
1089.20 16.87196
1089.30 16.85598
1089.40 16.8056
1089.50 16.72849
1089.60 16.68077
1089.70 16.70764
1089.80 16.78807
1089.90 16.89818
1090.00 16.99262
1090.10 17.03333
1090.20 17.04137
1090.30 17.03458
1090.40 17.02392
1090.50 16.99646
1090.60 16.94658
1090.70 16.86567
1090.80 16.77529
1090.90 16.67427
1091.00 16.58359
1091.10 16.52753
1091.20 16.52885
1091.30 16.56386
1091.40 16.63731
1091.50 16.76301
1091.60 16.92141
1091.70 17.06223
1091.80 17.12967
1091.90 17.10969
1092.00 17.05895
1092.10 17.05621
1092.20 17.09649
1092.30 17.14512
1092.40 17.11773
1092.50 17.07565
1092.60 17.03279
1092.70 17.02957
1092.80 17.03561
1092.90 17.04347
1093.00 17.04169
1093.10 17.01971
1093.20 16.99654
1093.30 16.97969
1093.40 16.97491
1093.50 17.0218
1093.60 17.06767
1093.70 17.11535
1093.80 17.1673
1093.90 17.26439
1094.00 17.37581
1094.10 17.49345
1094.20 17.5933
1094.30 17.54429
1094.40 17.384
1094.50 17.17724
1094.60 16.97349
1094.70 16.87336
1094.80 16.83598
1094.90 16.86506
1095.00 16.93555
1095.10 17.08483
1095.20 17.22838
1095.30 17.35133
1095.40 17.4222
1095.50 17.40207
1095.60 17.36823
1095.70 17.32205
1095.80 17.27231
1095.90 17.20441
1096.00 17.17624
1096.10 17.1822
1096.20 17.24087
1096.30 17.28517
1096.40 17.30877
1096.50 17.31218
1096.60 17.28026
1096.70 17.13927
1096.80 16.94886
1096.90 16.74778
1097.00 16.63886
1097.10 16.57473
1097.20 16.53175
1097.30 16.51757
1097.40 16.58931
1097.50 16.68139
1097.60 16.75947
1097.70 16.81881
1097.80 16.84883
1097.90 16.87672
1098.00 16.91443
1098.10 16.9604
1098.20 16.95212
1098.30 16.91242
1098.40 16.86271
1098.50 16.81321
1098.60 16.77619
1098.70 16.74537
1098.80 16.72272
1098.90 16.69754
1099.00 16.71108
1099.10 16.75891
1099.20 16.83607
1099.30 16.94015
1099.40 16.98239
1099.50 16.98455
1099.60 16.96771
1099.70 16.98744
1099.80 16.99338
1099.90 16.97066
1100.00 16.92231
1100.10 16.86697
1100.20 16.82132
1100.30 16.76393
1100.40 16.69483
1100.50 16.62259
1100.60 16.59803
1100.70 16.60606
1100.80 16.6278
1100.90 16.68167
1101.00 16.77693
1101.10 16.83982
1101.20 16.86527
1101.30 16.86841
1101.40 16.93581
1101.50 16.99473
1101.60 17.00464
1101.70 16.92074
1101.80 16.80978
1101.90 16.66516
1102.00 16.48398
1102.10 16.30338
1102.20 16.1543
1102.30 16.04861
1102.40 15.99997
1102.50 16.10625
1102.60 16.25533
1102.70 16.45209
1102.80 16.66054
1102.90 16.81812
1103.00 16.88813
1103.10 16.86298
1103.20 16.76457
1103.30 16.53929
1103.40 16.31521
1103.50 16.12153
1103.60 15.97687
1103.70 15.91836
1103.80 15.96452
1103.90 16.06693
1104.00 16.18641
1104.10 16.2591
1104.20 16.2703
1104.30 16.21816
1104.40 16.13863
1104.50 16.11505
1104.60 16.13573
1104.70 16.19707
1104.80 16.35007
1104.90 16.47286
1105.00 16.48221
1105.10 16.38571
1105.20 16.20741
1105.30 16.04025
1105.40 15.91907
1105.50 15.83666
1105.60 15.77973
1105.70 15.77935
1105.80 15.81417
1105.90 15.86329
1106.00 15.92488
1106.10 15.97654
1106.20 16.00028
1106.30 15.99981
1106.40 15.95683
1106.50 15.93177
1106.60 15.934
1106.70 15.96795
1106.80 15.92576
1106.90 15.85434
1107.00 15.77734
1107.10 15.7468
1107.20 15.79213
1107.30 15.89368
1107.40 15.99505
1107.50 16.05075
1107.60 16.04799
1107.70 16.07597
1107.80 16.13544
1107.90 16.21882
1108.00 16.21956
1108.10 16.2242
1108.20 16.25549
1108.30 16.34397
1108.40 16.4199
1108.50 16.45921
1108.60 16.46669
1108.70 16.46482
1108.80 16.4826
1108.90 16.48479
1109.00 16.48131
1109.10 16.47767
1109.20 16.48611
1109.30 16.49876
1109.40 16.50491
1109.50 16.52682
1109.60 16.55846
1109.70 16.58599
1109.80 16.60445
1109.90 16.622
1110.00 16.5874
1110.10 16.54183
1110.20 16.50045
1110.30 16.43195
1110.40 16.31847
1110.50 16.21738
1110.60 16.15575
1110.70 16.11401
1110.80 16.12938
1110.90 16.15661
1111.00 16.18099
1111.10 16.13887
1111.20 16.08779
1111.30 16.04344
1111.40 15.99825
1111.50 15.89442
1111.60 15.80649
1111.70 15.78031
1111.80 15.83297
1111.90 15.88556
1112.00 15.88512
1112.10 15.86009
1112.20 15.83815
1112.30 15.84428
1112.40 15.8785
1112.50 15.95595
1112.60 16.10623
1112.70 16.27313
1112.80 16.38557
1112.90 16.45015
1113.00 16.49557
1113.10 16.46799
1113.20 16.4035
1113.30 16.35955
1113.40 16.39811
1113.50 16.40768
1113.60 16.39246
1113.70 16.37468
1113.80 16.34759
1113.90 16.25981
1114.00 16.2158
1114.10 16.2238
1114.20 16.3131
1114.30 16.43965
1114.40 16.55748
1114.50 16.64667
1114.60 16.68752
1114.70 16.78664
1114.80 16.86715
1114.90 16.90486
1115.00 16.73073
1115.10 16.58959
1115.20 16.48582
1115.30 16.42519
1115.40 16.35637
1115.50 16.38613
1115.60 16.41774
1115.70 16.4052
1115.80 16.35426
1115.90 16.33544
1116.00 16.33911
1116.10 16.35345
1116.20 16.39723
1116.30 16.41661
1116.40 16.41324
1116.50 16.37122
1116.60 16.07662
1116.70 15.80106
1116.80 15.65927
1116.90 15.82133
1117.00 15.9382
1117.10 15.97554
1117.20 15.96509
1117.30 15.95114
1117.40 15.82702
1117.50 15.75553
1117.60 15.73743
1117.70 15.81771
1117.80 15.9065
1117.90 16.03785
1118.00 16.0861
1118.10 16.15509
1118.20 16.25209
1118.30 16.33284
1118.40 16.40165
1118.50 16.43155
1118.60 16.47332
1118.70 16.55928
1118.80 16.61242
1118.90 16.59436
1119.00 16.43302
1119.10 16.27314
1119.20 16.11558
1119.30 16.02005
1119.40 15.9328
1119.50 15.86447
1119.60 15.96101
1119.70 16.1025
1119.80 16.26022
1119.90 16.35554
1120.00 16.41312
1120.10 16.45802
1120.20 16.4707
1120.30 16.41032
1120.40 16.35714
1120.50 16.29531
1120.60 16.34463
1120.70 16.38046
1120.80 16.40387
1120.90 16.44145
1121.00 16.46647
1121.10 16.49525
1121.20 16.44206
1121.30 16.35366
1121.40 16.27635
1121.50 16.23763
1121.60 16.27451
1121.70 16.29255
1121.80 16.3063
1121.90 16.25953
1122.00 16.23395
1122.10 16.22355
1122.20 16.16305
1122.30 16.10305
1122.40 16.03666
1122.50 15.92774
1122.60 15.83456
1122.70 15.77121
1122.80 15.83219
1122.90 16.14899
1123.00 16.41311
1123.10 16.66659
1123.20 16.68377
1123.30 16.66138
1123.40 16.60782
1123.50 16.32873
1123.60 16.05028
1123.70 15.87866
1123.80 15.85879
1123.90 16.01366
1124.00 16.15467
1124.10 16.2902
1124.20 16.39946
1124.30 16.49414
1124.40 16.58173
1124.50 16.55002
1124.60 16.50914
1124.70 16.44443
1124.80 16.48637
1124.90 16.50826
1125.00 16.5009
1125.10 16.4939
1125.20 16.5359
1125.30 16.62802
1125.40 16.58181
1125.50 16.05469
1125.60 15.5514
1125.70 15.05717
1125.80 15.49952
1125.90 15.91286
1126.00 16.30354
1126.10 16.35852
1126.20 16.27127
1126.30 16.18941
1126.40 16.15243
1126.50 16.16766
1126.60 16.19596
1126.70 16.2422
1126.80 16.34124
1126.90 16.42919
1127.00 16.51215
1127.10 16.52774
1127.20 16.53759
1127.30 16.52527
1127.40 16.40912
1127.50 16.24425
1127.60 16.08251
1127.70 15.9752
1127.80 15.9291
1127.90 15.91327
1128.00 15.92955
1128.10 16.05068
1128.20 16.16706
1128.30 16.27752
1128.40 16.29699
1128.50 16.31998
1128.60 16.34458
1128.70 16.40173
1128.80 16.45828
1128.90 16.49431
1129.00 16.50155
1129.10 16.47677
1129.20 16.44606
1129.30 16.41044
1129.40 16.36887
1129.50 16.35801
1129.60 16.36781
1129.70 16.33083
1129.80 16.29281
1129.90 16.24789
1130.00 16.279
1130.10 16.30818
1130.20 16.24771
1130.30 16.19671
1130.40 16.14246
1130.50 16.10282
1130.60 16.06646
1130.70 16.02605
1130.80 16.02585
1130.90 16.05629
1131.00 16.10233
1131.10 16.16723
1131.20 16.24037
1131.30 16.27871
1131.40 16.30205
1131.50 16.30769
1131.60 16.33288
1131.70 16.38551
1131.80 16.4255
1131.90 16.46215
1132.00 16.50187
1132.10 16.52996
1132.20 16.55173
1132.30 16.48129
1132.40 16.40538
1132.50 16.33776
1132.60 16.31956
1132.70 16.31669
1132.80 16.31713
1132.90 16.35199
1133.00 16.43692
1133.10 16.50376
1133.20 16.52348
1133.30 16.37845
1133.40 16.2366
1133.50 16.09746
1133.60 16.06605
1133.70 16.03911
1133.80 16.01163
1133.90 16.02051
1134.00 16.04493
1134.10 16.06838
1134.20 16.08872
1134.30 16.13478
1134.40 16.19517
1134.50 16.24088
1134.60 16.23821
1134.70 16.27439
1134.80 16.32878
1134.90 16.0412
1135.00 15.69911
1135.10 15.3005
1135.20 15.46481
1135.30 15.83125
1135.40 16.17463
1135.50 16.36137
1135.60 16.28555
1135.70 16.21935
1135.80 16.12864
1135.90 15.96135
1136.00 15.85268
1136.10 15.75918
1136.20 15.7636
1136.30 15.75188
1136.40 15.69544
1136.50 15.72394
1136.60 15.77263
1136.70 15.81098
1136.80 15.80508
1136.90 15.73161
1137.00 15.66741
1137.10 15.60892
1137.20 15.59737
1137.30 15.56496
1137.40 15.5155
1137.50 15.2333
1137.60 14.90957
1137.70 14.51725
1137.80 14.14577
1137.90 13.72695
1138.00 13.20706
1138.10 12.65535
1138.20 12.05409
1138.30 11.6249
1138.40 11.26948
1138.50 11.37217
1138.60 11.66969
1138.70 12.13514
1138.80 12.86663
1138.90 13.60398
1139.00 14.22204
1139.10 14.61928
1139.20 14.81913
1139.30 14.89601
1139.40 14.95261
1139.50 14.95257
1139.60 14.90393
1139.70 14.8192
1139.80 14.51357
1139.90 14.15841
1140.00 13.74848
1140.10 13.21162
1140.20 12.59165
1140.30 11.88245
1140.40 11.18446
1140.50 10.49267
1140.60 10.04538
1140.70 9.800191
1140.80 9.959965
1140.90 10.40798
1141.00 10.9723
1141.10 11.93061
1141.20 12.83624
1141.30 13.68656
1141.40 14.13521
1141.50 14.51264
1141.60 14.81564
1141.70 15.10939
1141.80 15.34355
1141.90 15.5192
1142.00 15.59787
1142.10 15.53008
1142.20 15.43659
1142.30 15.34978
1142.40 15.36879
1142.50 15.39453
1142.60 15.43185
1142.70 15.5361
1142.80 15.654
1142.90 15.76443
1143.00 15.86487
1143.10 15.94044
1143.20 15.99923
1143.30 16.05768
1143.40 16.12218
1143.50 16.1885
1143.60 16.23949
1143.70 16.14819
1143.80 16.02918
1143.90 15.88127
1144.00 15.66556
1144.10 15.47111
1144.20 15.31917
1144.30 15.26598
1144.40 15.27233
1144.50 15.28116
1144.60 15.33947
1144.70 15.45835
1144.80 15.58444
1144.90 15.70462
1145.00 15.757
1145.10 15.80771
1145.20 15.84874
1145.30 15.88658
1145.40 15.91243
1145.50 15.93532
1145.60 15.92937
1145.70 15.9041
1145.80 15.88237
1145.90 15.89226
1146.00 15.95892
1146.10 16.04438
1146.20 16.13396
1146.30 16.1867
1146.40 16.23782
1146.50 16.28673
1146.60 16.24107
1146.70 16.18292
1146.80 16.08636
1146.90 16.06941
1147.00 16.07515
1147.10 16.06438
1147.20 15.97929
1147.30 15.79733
1147.40 15.66067
1147.50 15.57358
1147.60 15.83065
1147.70 16.09226
1147.80 16.35962
1147.90 16.39657
1148.00 16.3962
1148.10 16.38323
1148.20 16.39864
1148.30 16.41677
1148.40 16.38996
1148.50 16.29926
1148.60 16.13141
1148.70 16.02642
1148.80 15.96415
1148.90 15.9972
1149.00 16.02604
1149.10 16.04855
1149.20 16.22899
1149.30 16.38679
1149.40 16.51769
1149.50 16.44598
1149.60 16.31389
1149.70 16.21139
1149.80 16.09321
1149.90 15.9623
1150.00 15.81423
1150.10 15.731
1150.20 15.90304
1150.30 16.06968
1150.40 16.24238
1150.50 16.26373
1150.60 16.28816
1150.70 16.33039
1150.80 16.3398
1150.90 16.34032
1151.00 16.32403
1151.10 16.29874
1151.20 16.24964
1151.30 16.18952
1151.40 16.15462
1151.50 16.22492
1151.60 16.29332
1151.70 16.36711
1151.80 16.35224
1151.90 16.3416
1152.00 16.33295
1152.10 16.33506
1152.20 16.32439
1152.30 16.27191
1152.40 16.19638
1152.50 16.08156
1152.60 15.99623
1152.70 15.92992
1152.80 15.92294
1152.90 15.92583
1153.00 15.93421
1153.10 16.02877
1153.20 16.11931
1153.30 16.20797
1153.40 16.20469
1153.50 16.16696
1153.60 16.1539
1153.70 16.14272
1153.80 16.1492
1153.90 16.16537
1154.00 16.17641
1154.10 16.15832
1154.20 16.11878
1154.30 16.06007
1154.40 16.10273
1154.50 16.13023
1154.60 16.1281
1154.70 16.10995
1154.80 16.07803
1154.90 16.09352
1155.00 16.09384
1155.10 16.09232
1155.20 16.11495
1155.30 16.15603
1155.40 16.22904
1155.50 16.29828
1155.60 16.36206
1155.70 16.32102
1155.80 16.2787
1155.90 16.21679
1156.00 16.25627
1156.10 16.31652
1156.20 16.38112
1156.30 16.3841
1156.40 16.33463
1156.50 16.29203
1156.60 16.26514
1156.70 16.29697
1156.80 16.3026
1156.90 16.29318
1157.00 16.2573
1157.10 16.22754
1157.20 16.21969
1157.30 16.20804
1157.40 16.21138
1157.50 16.21743
1157.60 16.18874
1157.70 16.12508
1157.80 16.06574
1157.90 16.02953
1158.00 16.09142
1158.10 16.15479
1158.20 16.21842
1158.30 16.24788
1158.40 16.26591
1158.50 16.27717
1158.60 16.25437
1158.70 16.21129
1158.80 16.15303
1158.90 16.08617
1159.00 16.00969
1159.10 15.89788
1159.20 15.78733
1159.30 15.69585
1159.40 15.60272
1159.50 15.51438
1159.60 15.41689
1159.70 15.36503
1159.80 15.37491
1159.90 15.44174
1160.00 15.545
1160.10 15.65721
1160.20 15.75275
1160.30 15.83027
1160.40 15.86915
1160.50 15.85398
1160.60 15.71773
1160.70 15.49823
1160.80 15.24233
1160.90 14.99903
1161.00 14.78858
1161.10 14.66411
1161.20 14.7331
1161.30 14.91045
1161.40 15.16866
1161.50 15.43346
1161.60 15.70959
1161.70 15.90262
1161.80 16.06813
1161.90 16.16884
1162.00 16.22832
1162.10 16.27087
1162.20 16.164
1162.30 16.07362
1162.40 16.0051
1162.50 15.9932
1162.60 16.01251
1162.70 16.0458
1162.80 16.10876
1162.90 16.20298
1163.00 16.29399
1163.10 16.36312
1163.20 16.37759
1163.30 16.36444
1163.40 16.33538
1163.50 16.23009
1163.60 16.08667
1163.70 15.89562
1163.80 15.64027
1163.90 15.37004
1164.00 15.14906
1164.10 15.06194
1164.20 15.10134
1164.30 15.26344
1164.40 15.45056
1164.50 15.69241
1164.60 15.89572
1164.70 16.06611
1164.80 16.11709
1164.90 16.14093
1165.00 16.14272
1165.10 16.12392
1165.20 16.0822
1165.30 16.03126
1165.40 15.9923
1165.50 15.95895
1165.60 15.94831
1165.70 15.93807
1165.80 15.94891
1165.90 15.98867
1166.00 16.03698
1166.10 16.10909
1166.20 16.17812
1166.30 16.2459
1166.40 16.29812
1166.50 16.32928
1166.60 16.34667
1166.70 16.32436
1166.80 16.26968
1166.90 16.18286
1167.00 16.12752
1167.10 16.12104
1167.20 16.12253
1167.30 16.11982
1167.40 16.07841
1167.50 16.03877
1167.60 16.00408
1167.70 15.97734
1167.80 15.95419
1167.90 15.94186
1168.00 15.93508
1168.10 15.92933
1168.20 15.89176
1168.30 15.85294
1168.40 15.80411
1168.50 15.7038
1168.60 15.58133
1168.70 15.35815
1168.80 15.02931
1168.90 14.5908
1169.00 13.97457
1169.10 13.3469
1169.20 12.86332
1169.30 12.62132
1169.40 12.605
1169.50 12.95068
1169.60 13.37985
1169.70 13.96616
1169.80 14.51109
1169.90 15.01055
1170.00 15.358
1170.10 15.61976
1170.20 15.82316
1170.30 15.93758
1170.40 16.00647
1170.50 16.03691
1170.60 16.06623
1170.70 16.07828
1170.80 16.0617
1170.90 16.04907
1171.00 16.02767
1171.10 16.00594
1171.20 15.9932
1171.30 16.02017
1171.40 16.05062
1171.50 16.07921
1171.60 16.07678
1171.70 16.05853
1171.80 16.02073
1171.90 15.97335
1172.00 15.92432
1172.10 15.89143
1172.20 15.86695
1172.30 15.85742
1172.40 15.86187
1172.50 15.86986
1172.60 15.88289
1172.70 15.90763
1172.80 15.94567
1172.90 15.97886
1173.00 16.01021
1173.10 16.02987
1173.20 16.07486
1173.30 16.11344
1173.40 16.11855
1173.50 16.10018
1173.60 16.05392
1173.70 16.01611
1173.80 15.96625
1173.90 15.90471
1174.00 15.86298
1174.10 15.82946
1174.20 15.86219
1174.30 15.89837
1174.40 15.94175
1174.50 16.01231
1174.60 16.08109
1174.70 16.12225
1174.80 16.14965
1174.90 16.15228
1175.00 16.13624
1175.10 16.10911
1175.20 16.06198
1175.30 16.02367
1175.40 15.98705
1175.50 15.99842
1175.60 16.02478
1175.70 16.07179
1175.80 16.0824
1175.90 16.06735
1176.00 16.02186
1176.10 15.98264
1176.20 15.93742
1176.30 15.87852
1176.40 15.81778
1176.50 15.76408
1176.60 15.64231
1176.70 15.468
1176.80 15.08165
1176.90 14.57361
1177.00 13.9528
1177.10 13.20861
1177.20 12.41753
1177.30 11.74996
1177.40 11.27942
1177.50 11.0255
1177.60 11.19429
1177.70 11.54959
1177.80 12.1847
1177.90 12.89774
1178.00 13.61733
1178.10 14.11127
1178.20 14.50702
1178.30 14.79508
1178.40 14.91885
1178.50 14.9849
1178.60 15.01572
1178.70 15.1258
1178.80 15.27291
1178.90 15.40886
1179.00 15.54632
1179.10 15.67972
1179.20 15.77363
1179.30 15.8439
1179.40 15.78471
1179.50 15.71467
1179.60 15.63728
1179.70 15.56691
1179.80 15.50299
1179.90 15.45325
1180.00 15.49889
1180.10 15.59327
1180.20 15.70476
1180.30 15.79175
1180.40 15.8447
1180.50 15.87696
1180.60 15.89762
1180.70 15.88462
1180.80 15.85696
1180.90 15.82524
1181.00 15.79505
1181.10 15.76699
1181.20 15.74077
1181.30 15.7441
1181.40 15.76176
1181.50 15.77808
1181.60 15.76168
1181.70 15.7198
1181.80 15.69691
1181.90 15.6788
1182.00 15.65951
1182.10 15.64423
1182.20 15.63531
1182.30 15.66834
1182.40 15.67407
1182.50 15.64337
1182.60 15.53097
1182.70 15.36599
1182.80 15.17775
1182.90 15.00767
1183.00 14.8651
1183.10 14.80176
1183.20 14.80229
1183.30 14.94244
1183.40 15.08654
1183.50 15.22805
1183.60 15.30823
1183.70 15.36479
1183.80 15.40651
1183.90 15.44667
1184.00 15.50352
1184.10 15.61916
1184.20 15.71527
1184.30 15.81052
1184.40 15.87033
1184.50 15.90726
1184.60 15.88899
1184.70 15.82052
1184.80 15.73565
1184.90 15.63221
1185.00 15.53817
1185.10 15.46972
1185.20 15.47682
1185.30 15.52018
1185.40 15.60145
1185.50 15.65857
1185.60 15.71128
1185.70 15.74112
1185.80 15.7582
1185.90 15.75295
1186.00 15.74819
1186.10 15.75002
1186.20 15.78509
1186.30 15.81987
1186.40 15.84711
1186.50 15.82797
1186.60 15.78301
1186.70 15.71804
1186.80 15.67288
1186.90 15.63253
1187.00 15.61148
1187.10 15.60036
1187.20 15.61032
1187.30 15.64132
1187.40 15.6736
1187.50 15.66154
1187.60 15.64047
1187.70 15.60293
1187.80 15.58272
1187.90 15.52932
1188.00 15.41678
1188.10 15.13681
1188.20 14.75992
1188.30 14.30463
1188.40 13.88832
1188.50 13.52841
1188.60 13.3379
1188.70 13.26827
1188.80 13.56166
1188.90 13.93816
1189.00 14.37527
1189.10 14.73073
1189.20 15.03699
1189.30 15.23103
1189.40 15.3448
1189.50 15.40134
1189.60 15.45837
1189.70 15.53782
1189.80 15.63461
1189.90 15.72814
1190.00 15.80375
1190.10 15.7968
1190.20 15.76571
1190.30 15.72138
1190.40 15.68146
1190.50 15.63939
1190.60 15.59086
1190.70 15.54931
1190.80 15.5183
1190.90 15.53912
1191.00 15.56125
1191.10 15.60096
1191.20 15.63122
1191.30 15.65754
1191.40 15.67658
1191.50 15.68427
1191.60 15.68625
1191.70 15.68739
1191.80 15.68785
1191.90 15.69282
1192.00 15.70665
1192.10 15.72851
1192.20 15.73476
1192.30 15.73088
1192.40 15.706
1192.50 15.67762
1192.60 15.65072
1192.70 15.63353
1192.80 15.63793
1192.90 15.65408
1193.00 15.68121
1193.10 15.70768
1193.20 15.72828
1193.30 15.71145
1193.40 15.67526
1193.50 15.6044
1193.60 15.53868
1193.70 15.45929
1193.80 15.36665
1193.90 15.28746
1194.00 15.24719
1194.10 15.23969
1194.20 15.24246
1194.30 15.22249
1194.40 15.20581
1194.50 15.18264
1194.60 15.16569
1194.70 15.12625
1194.80 15.04736
1194.90 14.95022
1195.00 14.8325
1195.10 14.77708
1195.20 14.74972
1195.30 14.78884
1195.40 14.88331
1195.50 14.98422
1195.60 15.06972
1195.70 15.11712
1195.80 15.11776
1195.90 15.13299
1196.00 15.11606
1196.10 15.08866
1196.20 15.05259
1196.30 15.01599
1196.40 15.00476
1196.50 14.98674
1196.60 14.96711
1196.70 14.95782
1196.80 14.94707
1196.90 14.90843
1197.00 14.80486
1197.10 14.65721
1197.20 14.31452
1197.30 13.94301
1197.40 13.55473
1197.50 13.27079
1197.60 13.05697
1197.70 13.04383
1197.80 13.14714
1197.90 13.41545
1198.00 13.70515
1198.10 13.97486
1198.20 14.18178
1198.30 14.36871
1198.40 14.5489
1198.50 14.63689
1198.60 14.72251
1198.70 14.78143
1198.80 14.8122
1198.90 14.79838
1199.00 14.70386
1199.10 14.63377
1199.20 14.57037
1199.30 14.54153
1199.40 14.515
1199.50 14.49736
1199.60 14.51369
1199.70 14.54236
1199.80 14.56275
1199.90 14.58138
1200.00 14.58742
