# Version 2.1 - nm, norm@500 to 1, cut digits
# Wavelength(nm)  Flambda(ergs/cm^s/s/nm)
300.00 0.008967669
300.10 0.01192514
300.20 0.01372375
300.30 0.01446428
300.40 0.01465499
300.50 0.01470887
300.60 0.01476391
300.70 0.01482033
300.80 0.01488019
300.90 0.01494774
301.00 0.01502778
301.10 0.01512244
301.20 0.01522951
301.30 0.01534402
301.40 0.01546145
301.50 0.01557945
301.60 0.01569744
301.70 0.01581542
301.80 0.01593339
301.90 0.01605137
302.00 0.01616934
302.10 0.01628732
302.20 0.01640529
302.30 0.01652327
302.40 0.01664124
302.50 0.0167592
302.60 0.01687716
302.70 0.01699555
302.80 0.01711615
302.90 0.01724241
303.00 0.01737808
303.10 0.01752486
303.20 0.01768106
303.30 0.01784291
303.40 0.01800697
303.50 0.01817147
303.60 0.01833596
303.70 0.01850044
303.80 0.01866492
303.90 0.0188294
304.00 0.01899387
304.10 0.01915835
304.20 0.01932283
304.30 0.01948731
304.40 0.01965181
304.50 0.01981631
304.60 0.01998085
304.70 0.02014406
304.80 0.02030049
304.90 0.02043965
305.00 0.02054998
305.10 0.02062637
305.20 0.02067394
305.30 0.02070423
305.40 0.02072774
305.50 0.02074993
305.60 0.02077215
305.70 0.02079438
305.80 0.02081662
305.90 0.02083887
306.00 0.02086111
306.10 0.02088336
306.20 0.0209056
306.30 0.02092785
306.40 0.02095009
306.50 0.02097234
306.60 0.02099458
306.70 0.02101683
306.80 0.0210391
306.90 0.0210614
307.00 0.02108376
307.10 0.0211062
307.20 0.02112869
307.30 0.02115123
307.40 0.02117378
307.50 0.02119634
307.60 0.02121889
307.70 0.02124145
307.80 0.021264
307.90 0.02128655
308.00 0.02130911
308.10 0.02133166
308.20 0.02135422
308.30 0.02137676
308.40 0.02139928
308.50 0.02142176
308.60 0.02144418
308.70 0.02146991
308.80 0.02151259
308.90 0.02159853
309.00 0.02175659
309.10 0.02199961
309.20 0.02231476
309.30 0.02267315
309.40 0.0230485
309.50 0.02342717
309.60 0.02380577
309.70 0.02418433
309.80 0.02456287
309.90 0.0249414
310.00 0.02531993
310.10 0.02569846
310.20 0.02607699
310.30 0.02645552
310.40 0.02683408
310.50 0.02721268
310.60 0.02759135
310.70 0.02796669
310.80 0.02832498
310.90 0.02863979
311.00 0.0288821
311.10 0.029039
311.20 0.02912339
311.30 0.02916431
311.40 0.02918818
311.50 0.02920872
311.60 0.02922932
311.70 0.02924997
311.80 0.02927064
311.90 0.02929132
312.00 0.02931199
312.10 0.02933267
312.20 0.02935335
312.30 0.02937402
312.40 0.02939466
312.50 0.02941525
312.60 0.02943575
312.70 0.02946037
312.80 0.02950605
312.90 0.02960541
313.00 0.02979433
313.10 0.03008873
313.20 0.03047269
313.30 0.03091033
313.40 0.03136903
313.50 0.03183185
313.60 0.03229458
313.70 0.03275726
313.80 0.03321991
313.90 0.03368256
314.00 0.0341452
314.10 0.03460784
314.20 0.03507048
314.30 0.03553312
314.40 0.03599573
314.50 0.03645831
314.60 0.03692083
314.70 0.03738621
314.80 0.03786626
314.90 0.03838367
315.00 0.03896342
315.10 0.0396166
315.20 0.04033212
315.30 0.04108501
315.40 0.04185255
315.50 0.04262297
315.60 0.04339332
315.70 0.04416364
315.80 0.04493394
315.90 0.04570423
316.00 0.04647452
316.10 0.04724481
316.20 0.04801511
316.30 0.04878543
316.40 0.04955582
316.50 0.05032634
316.60 0.05109708
316.70 0.05185728
316.80 0.05256361
316.90 0.05313257
317.00 0.05347238
317.10 0.05354228
317.20 0.05338305
317.30 0.05308644
317.40 0.05273596
317.50 0.05237493
317.60 0.05201413
317.70 0.05165346
317.80 0.05129285
317.90 0.05093228
318.00 0.0505717
318.10 0.05021113
318.20 0.04985056
318.30 0.04948996
318.40 0.04912931
318.50 0.04876856
318.60 0.04840764
318.70 0.0480548
318.80 0.04774319
318.90 0.04753673
319.00 0.04750569
319.10 0.04768125
319.20 0.04803222
319.30 0.04848835
319.40 0.04898572
319.50 0.04949116
319.60 0.04999643
319.70 0.05050159
319.80 0.05100671
319.90 0.0515118
320.00 0.0520169
320.10 0.05252199
320.20 0.05302708
320.30 0.05353218
320.40 0.0540373
320.50 0.05454245
320.60 0.05504767
320.70 0.05554991
320.80 0.05603689
320.90 0.05648498
321.00 0.0568682
321.10 0.057175
321.20 0.05741692
321.30 0.05761996
321.40 0.05780774
321.50 0.05799254
321.60 0.0581774
321.70 0.05836229
321.80 0.05854721
321.90 0.05873213
322.00 0.05891706
322.10 0.05910198
322.20 0.0592869
322.30 0.05947179
322.40 0.05965662
322.50 0.0598413
322.60 0.06002576
322.70 0.06022112
322.80 0.06047219
322.90 0.06086532
323.00 0.06149541
323.10 0.06240462
323.20 0.0635508
323.30 0.06483904
323.40 0.06618298
323.50 0.06753783
323.60 0.06889245
323.70 0.07024693
323.80 0.07160135
323.90 0.07295573
324.00 0.07431011
324.10 0.07566449
324.20 0.07701888
324.30 0.07837326
324.40 0.07972766
324.50 0.08108208
324.60 0.08243653
324.70 0.08378922
324.80 0.08513286
324.90 0.08645342
325.00 0.08773548
325.10 0.08897221
325.20 0.09017044
325.30 0.0913456
325.40 0.09251171
325.50 0.09367605
325.60 0.09484042
325.70 0.09600482
325.80 0.09716923
325.90 0.09833364
326.00 0.09949805
326.10 0.1006625
326.20 0.1018269
326.30 0.1029913
326.40 0.1041557
326.50 0.10532
326.60 0.1064842
326.70 0.1076523
326.80 0.1088399
326.90 0.1100772
327.00 0.1113975
327.10 0.1128154
327.20 0.1143164
327.30 0.1158671
327.40 0.1174373
327.50 0.1190113
327.60 0.1205853
327.70 0.1221591
327.80 0.123733
327.90 0.1253069
328.00 0.1268807
328.10 0.1284546
328.20 0.1300284
328.30 0.1316024
328.40 0.1331764
328.50 0.1347508
328.60 0.1363256
328.70 0.137878
328.80 0.139316
328.90 0.1404621
329.00 0.1411215
329.10 0.1412075
329.20 0.1408067
329.30 0.1401141
329.40 0.1393071
329.50 0.1384776
329.60 0.1376487
329.70 0.13682
329.80 0.1359914
329.90 0.1351629
330.00 0.1343344
330.10 0.133506
330.20 0.1326775
330.30 0.1318489
330.40 0.1310203
330.50 0.1301914
330.60 0.1293623
330.70 0.1285497
330.80 0.127822
330.90 0.1273108
331.00 0.1271607
331.10 0.1274359
331.20 0.1280722
331.30 0.128925
331.40 0.1298627
331.50 0.130817
331.60 0.1317709
331.70 0.1327247
331.80 0.1336783
331.90 0.1346319
332.00 0.1355855
332.10 0.1365391
332.20 0.1374927
332.30 0.1384463
332.40 0.1394
332.50 0.1403538
332.60 0.1413079
332.70 0.1422514
332.80 0.1431411
332.90 0.1438939
333.00 0.1444179
333.10 0.1446727
333.20 0.1446989
333.30 0.144588
333.40 0.1444233
333.50 0.1442482
333.60 0.1440732
333.70 0.1438984
333.80 0.1437237
333.90 0.1435489
334.00 0.1433742
334.10 0.1431994
334.20 0.1430244
334.30 0.1428491
334.40 0.1426735
334.50 0.1424977
334.60 0.1424678
334.70 0.1429142
334.80 0.1439639
334.90 0.1450283
335.00 0.1449879
335.10 0.1435367
335.20 0.1424349
335.30 0.1449741
335.40 0.1534439
335.50 0.1665481
335.60 0.1792659
335.70 0.1857726
335.80 0.1831981
335.90 0.1730481
336.00 0.1595981
336.10 0.1472484
336.20 0.1390671
336.30 0.1363383
336.40 0.1380172
336.50 0.1408587
336.60 0.1413615
336.70 0.1386724
336.80 0.1356732
336.90 0.1367205
337.00 0.143915
337.10 0.155054
337.20 0.1648932
337.30 0.1687508
337.40 0.1657952
337.50 0.1595637
337.60 0.1552578
337.70 0.1558848
337.80 0.1604917
337.90 0.165912
338.00 0.1697251
338.10 0.1712658
338.20 0.1701831
338.30 0.1653256
338.40 0.1562999
338.50 0.1457745
338.60 0.1390662
338.70 0.1403185
338.80 0.1486339
338.90 0.1583603
339.00 0.163632
339.10 0.1631741
339.20 0.161088
339.30 0.1628192
339.40 0.170144
339.50 0.1800193
339.60 0.1878749
339.70 0.1914545
339.80 0.1913926
339.90 0.1889503
340.00 0.1846294
340.10 0.1789479
340.20 0.1731027
340.30 0.1680023
340.40 0.163032
340.50 0.1566968
340.60 0.148635
340.70 0.1404507
340.80 0.1344417
340.90 0.1319145
341.00 0.1327815
341.10 0.1362447
341.20 0.1413852
341.30 0.1471237
341.40 0.1521884
341.50 0.155607
341.60 0.157285
341.70 0.1580475
341.80 0.1590128
341.90 0.1607669
342.00 0.162844
342.10 0.163818
342.20 0.1621697
342.30 0.1575637
342.40 0.1515366
342.50 0.1467179
342.60 0.145063
342.70 0.1466332
342.80 0.149851
342.90 0.1527452
343.00 0.1541639
343.10 0.1542917
343.20 0.1542206
343.30 0.1548888
343.40 0.1562636
343.50 0.1575348
343.60 0.1579723
343.70 0.1573755
343.80 0.1558997
343.90 0.1539102
344.00 0.1520757
344.10 0.1511691
344.20 0.1513922
344.30 0.1520341
344.40 0.1520952
344.50 0.1512433
344.60 0.1500832
344.70 0.1496257
344.80 0.1506436
344.90 0.1534101
345.00 0.157781
345.10 0.1633043
345.20 0.1692432
345.30 0.1745775
345.40 0.1781665
345.50 0.1792993
345.60 0.1782888
345.70 0.1764197
345.80 0.1750702
345.90 0.1747482
346.00 0.174864
346.10 0.1742456
346.20 0.1719567
346.30 0.168033
346.40 0.1637189
346.50 0.1607432
346.60 0.1599449
346.70 0.1605434
346.80 0.1608644
346.90 0.1597028
347.00 0.1569436
347.10 0.1533311
347.20 0.1501006
347.30 0.1486294
347.40 0.1497936
347.50 0.1532765
347.60 0.1577174
347.70 0.1617567
347.80 0.1649465
347.90 0.167736
348.00 0.1707649
348.10 0.1741483
348.20 0.1772473
348.30 0.1790915
348.40 0.1791658
348.50 0.1778617
348.60 0.1760736
348.70 0.174383
348.80 0.1727844
348.90 0.1710895
349.00 0.1693071
349.10 0.1675955
349.20 0.1660968
349.30 0.1650153
349.40 0.1647177
349.50 0.1654381
349.60 0.1668191
349.70 0.1679662
349.80 0.168239
349.90 0.1681514
350.00 0.1693099
350.10 0.1731484
350.20 0.1795544
350.30 0.1867245
350.40 0.1923955
350.50 0.1952764
350.60 0.1954731
350.70 0.1938835
350.80 0.1914342
350.90 0.1886431
351.00 0.1854178
351.10 0.1810983
351.20 0.1749725
351.30 0.1671899
351.40 0.1592619
351.50 0.1533345
351.60 0.1506672
351.70 0.1507441
351.80 0.1518734
351.90 0.1525969
352.00 0.1525048
352.10 0.151893
352.20 0.1511053
352.30 0.1504394
352.40 0.1505351
352.50 0.1525654
352.60 0.1575926
352.70 0.1654698
352.80 0.1744208
352.90 0.1820322
353.00 0.1870308
353.10 0.1900977
353.20 0.192825
353.30 0.196095
353.40 0.199692
353.50 0.2031831
353.60 0.2066561
353.70 0.2104447
353.80 0.2145439
353.90 0.2185886
354.00 0.2221012
354.10 0.2244603
354.20 0.2249165
354.30 0.2231696
354.40 0.220018
354.50 0.2170869
354.60 0.2156137
354.70 0.2155352
354.80 0.2158302
354.90 0.2155913
355.00 0.2146488
355.10 0.2133676
355.20 0.2121361
355.30 0.2111339
355.40 0.2104483
355.50 0.2101174
355.60 0.2099289
355.70 0.2092884
355.80 0.2074957
355.90 0.2043278
356.00 0.2003038
356.10 0.1962632
356.20 0.1926461
356.30 0.1891414
356.40 0.185027
356.50 0.1799543
356.60 0.1745182
356.70 0.170045
356.80 0.167667
356.90 0.1674862
357.00 0.1685827
357.10 0.1697264
357.20 0.1700204
357.30 0.1690831
357.40 0.1669354
357.50 0.1638798
357.60 0.1604124
357.70 0.157049
357.80 0.1541151
357.90 0.151673
358.00 0.1497031
358.10 0.1484209
358.20 0.1483608
358.30 0.1500258
358.40 0.1533831
358.50 0.1576817
358.60 0.1617438
358.70 0.1644689
358.80 0.1652925
358.90 0.1644593
359.00 0.1630401
359.10 0.1625311
359.20 0.1640294
359.30 0.1674682
359.40 0.1715292
359.50 0.1744675
359.60 0.1752951
359.70 0.1743944
359.80 0.1730855
359.90 0.1725105
360.00 0.1727271
360.10 0.1727099
360.20 0.1712256
360.30 0.1678232
360.40 0.163212
360.50 0.1589071
360.60 0.1565264
360.70 0.1571467
360.80 0.160818
360.90 0.1664503
361.00 0.1723496
361.10 0.1771818
361.20 0.1806058
361.30 0.1830103
361.40 0.1847317
361.50 0.1856973
361.60 0.1858887
361.70 0.1858446
361.80 0.1863674
361.90 0.1877089
362.00 0.1892685
362.10 0.1902228
362.20 0.1902823
362.30 0.1897739
362.40 0.1892456
362.50 0.1891549
362.60 0.1896542
362.70 0.1903277
362.80 0.1902661
362.90 0.1887892
363.00 0.1862383
363.10 0.1838753
363.20 0.1828649
363.30 0.1834072
363.40 0.1848215
363.50 0.1862598
363.60 0.1872523
363.70 0.1877534
363.80 0.1878592
363.90 0.187531
364.00 0.1865264
364.10 0.1845676
364.20 0.1816227
364.30 0.178062
364.40 0.1745797
364.50 0.1719682
364.60 0.1708108
364.70 0.1711566
364.80 0.1724496
364.90 0.1739491
365.00 0.1754062
365.10 0.1773161
365.20 0.1803082
365.30 0.1842106
365.40 0.1878223
365.50 0.1897448
365.60 0.1895364
365.70 0.1880464
365.80 0.1865968
365.90 0.1859094
366.00 0.1858352
366.10 0.1859575
366.20 0.1862472
366.30 0.1870069
366.40 0.188315
366.50 0.189723
366.60 0.1904902
366.70 0.1900627
366.80 0.1883623
366.90 0.1857441
367.00 0.1828112
367.10 0.1802481
367.20 0.1786769
367.30 0.1784973
367.40 0.1797132
367.50 0.1818977
367.60 0.184402
367.70 0.1866923
367.80 0.1885722
367.90 0.1901462
368.00 0.1915999
368.10 0.1929776
368.20 0.1941033
368.30 0.1946674
368.40 0.1944273
368.50 0.1934355
368.60 0.1921342
368.70 0.191172
368.80 0.1910081
368.90 0.1916313
369.00 0.1926888
369.10 0.193901
369.20 0.195254
369.30 0.1967349
369.40 0.1979964
369.50 0.1984434
369.60 0.1977479
369.70 0.1962514
369.80 0.1948462
369.90 0.1944688
370.00 0.1956146
370.10 0.198143
370.20 0.2014368
370.30 0.2047346
370.40 0.207393
370.50 0.2089948
370.60 0.2093958
370.70 0.2088392
370.80 0.2079705
370.90 0.2075496
371.00 0.207958
371.10 0.2088823
371.20 0.2094326
371.30 0.2086033
371.40 0.2058338
371.50 0.2013807
371.60 0.1962806
371.70 0.1918645
371.80 0.1891502
371.90 0.188512
372.00 0.1897126
372.10 0.1919717
372.20 0.1939115
372.30 0.1937959
372.40 0.1903338
372.50 0.1836908
372.60 0.1757944
372.70 0.1694712
372.80 0.1670056
372.90 0.16914
373.00 0.1750187
373.10 0.1828102
373.20 0.1904672
373.30 0.1962802
373.40 0.1992205
373.50 0.1990126
373.60 0.1959445
373.70 0.1905935
373.80 0.1837037
373.90 0.1762544
374.00 0.1694739
374.10 0.1646261
374.20 0.1626886
374.30 0.1641801
374.40 0.1692013
374.50 0.1774714
374.60 0.1882231
374.70 0.2000558
374.80 0.2110227
374.90 0.2191257
375.00 0.2230011
375.10 0.2223588
375.20 0.2179352
375.30 0.2111091
375.40 0.2034791
375.50 0.1965272
375.60 0.1912665
375.70 0.187969
375.80 0.1861822
375.90 0.1851034
376.00 0.1841357
376.10 0.1833246
376.20 0.1834529
376.30 0.1857154
376.40 0.191137
376.50 0.2001308
376.60 0.2124884
376.70 0.2275152
376.80 0.243934
376.90 0.2596152
377.00 0.2717517
377.10 0.2778206
377.20 0.2767389
377.30 0.2692835
377.40 0.2575199
377.50 0.2438249
377.60 0.2302063
377.70 0.2181085
377.80 0.2083607
377.90 0.201134
378.00 0.1960453
378.10 0.1924873
378.20 0.1899839
378.30 0.1882787
378.40 0.1871935
378.50 0.1865816
378.60 0.1864658
378.70 0.1871159
378.80 0.1889331
378.90 0.1923667
379.00 0.198051
379.10 0.2068843
379.20 0.2196566
379.30 0.2363595
379.40 0.2557596
379.50 0.2755762
379.60 0.2930085
379.70 0.3052929
379.80 0.3103297
379.90 0.3073368
380.00 0.2972511
380.10 0.2824553
380.20 0.2658693
380.30 0.249949
380.40 0.2361691
380.50 0.2250615
380.60 0.2165057
380.70 0.2099794
380.80 0.2047436
380.90 0.2001626
381.00 0.1960173
381.10 0.1924962
381.20 0.1898169
381.30 0.1878706
381.40 0.1863276
381.50 0.1851046
381.60 0.1845308
381.70 0.1849221
381.80 0.1859742
381.90 0.18669
382.00 0.1860859
382.10 0.1847579
382.20 0.1851202
382.30 0.192635
382.40 0.2077399
382.50 0.2247967
382.60 0.239731
382.70 0.255549
382.80 0.2815218
382.90 0.3232501
383.00 0.3772343
383.10 0.4261472
383.20 0.45118
383.30 0.4542993
383.40 0.4455255
383.50 0.4305889
383.60 0.4069499
383.70 0.3716309
383.80 0.3278963
383.90 0.2885569
384.00 0.2722293
384.10 0.2875349
384.20 0.31834
384.30 0.3332064
384.40 0.3148701
384.50 0.2745045
384.60 0.2316726
384.70 0.2088718
384.80 0.217817
384.90 0.2615835
385.00 0.3213188
385.10 0.3618984
385.20 0.3609131
385.30 0.3282127
385.40 0.2901265
385.50 0.2638716
385.60 0.2531823
385.70 0.2558186
385.80 0.2653753
385.90 0.2714717
386.00 0.2663603
386.10 0.2512304
386.20 0.2305769
386.30 0.2039975
386.40 0.1710064
386.50 0.1420527
386.60 0.1363776
386.70 0.1667043
386.80 0.2261523
386.90 0.2900503
387.00 0.3326484
387.10 0.3428093
387.20 0.3291417
387.30 0.3109612
387.40 0.3011858
387.50 0.2954041
387.60 0.2791708
387.70 0.2480299
387.80 0.2157701
387.90 0.2001698
388.00 0.2045751
388.10 0.2176015
388.20 0.2294474
388.30 0.2374578
388.40 0.2386012
388.50 0.2324989
388.60 0.2319102
388.70 0.2564083
388.80 0.3080114
388.90 0.3609034
389.00 0.3845513
389.10 0.3727561
389.20 0.340389
389.30 0.3022225
389.40 0.2631521
389.50 0.2244705
389.60 0.1911278
389.70 0.162567
389.80 0.1511435
389.90 0.1605788
390.00 0.1880077
390.10 0.2242599
390.20 0.2477417
390.30 0.2561833
390.40 0.2613592
390.50 0.2663071
390.60 0.2743714
390.70 0.2863539
390.80 0.2982375
390.90 0.3002235
391.00 0.2843314
391.10 0.2538602
391.20 0.2241697
391.30 0.222069
391.40 0.2465928
391.50 0.2851901
391.60 0.3177789
391.70 0.3278106
391.80 0.3126374
391.90 0.2826628
392.00 0.2512668
392.10 0.2294441
392.20 0.2209019
392.30 0.2236205
392.40 0.2257381
392.50 0.2250131
392.60 0.2313259
392.70 0.2501637
392.80 0.2787805
392.90 0.3057075
393.00 0.3355435
393.10 0.3902282
393.20 0.4867952
393.30 0.6084893
393.40 0.691773
393.50 0.676304
393.60 0.5635882
393.70 0.4179094
393.80 0.3108067
393.90 0.2694194
394.00 0.2715387
394.10 0.2775194
394.20 0.2628997
394.30 0.232973
394.40 0.2009209
394.50 0.1853055
394.60 0.1924666
394.70 0.2136998
394.80 0.2291785
394.90 0.2349632
395.00 0.234799
395.10 0.2358447
395.20 0.2372941
395.30 0.2349248
395.40 0.2315672
395.50 0.2413448
395.60 0.2643736
395.70 0.2785599
395.80 0.2700989
395.90 0.2431812
396.00 0.2159247
396.10 0.2002633
396.20 0.1959173
396.30 0.2045529
396.40 0.2323697
396.50 0.2914606
396.60 0.3883304
396.70 0.511555
396.80 0.6285901
396.90 0.6959308
397.00 0.6827922
397.10 0.5943899
397.20 0.4747643
397.30 0.3798776
397.40 0.3423333
397.50 0.3531607
397.60 0.3777659
397.70 0.3882435
397.80 0.380323
397.90 0.3640301
398.00 0.349571
398.10 0.3421637
398.20 0.3459946
398.30 0.3637058
398.40 0.3912226
398.50 0.4170379
398.60 0.428892
398.70 0.4214381
398.80 0.3997766
398.90 0.3680124
399.00 0.344737
399.10 0.3509702
399.20 0.3919725
399.30 0.4489072
399.40 0.4917209
399.50 0.4999986
399.60 0.4721993
399.70 0.4210923
399.80 0.3691103
399.90 0.3397581
400.00 0.3389996
400.10 0.3522862
400.20 0.3617724
400.30 0.3639547
400.40 0.3662727
400.50 0.3726852
400.60 0.3791119
400.70 0.3792363
400.80 0.3790643
400.90 0.389379
401.00 0.4047641
401.10 0.409192
401.20 0.3921146
401.30 0.3670003
401.40 0.3559988
401.50 0.3666056
401.60 0.3852311
401.70 0.3961559
401.80 0.3916909
401.90 0.3822939
402.00 0.3781417
402.10 0.3787279
402.20 0.3808707
402.30 0.3867825
402.40 0.3979565
402.50 0.4075799
402.60 0.4042532
402.70 0.3820011
402.80 0.3456152
402.90 0.3068481
403.00 0.2782169
403.10 0.2652929
403.20 0.2616462
403.30 0.2568354
403.40 0.2507744
403.50 0.2556618
403.60 0.28084
403.70 0.3218023
403.80 0.3637846
403.90 0.397456
404.00 0.4259105
404.10 0.4548756
404.20 0.4815378
404.30 0.4907098
404.40 0.4668693
404.50 0.4115549
404.60 0.3479971
404.70 0.3041843
404.80 0.292191
404.90 0.3034338
405.00 0.3191468
405.10 0.3261332
405.20 0.3248457
405.30 0.3235076
405.40 0.3267521
405.50 0.3323875
405.60 0.3367885
405.70 0.3408343
405.80 0.3474389
405.90 0.3554569
406.00 0.3608566
406.10 0.3604481
406.20 0.3555467
406.30 0.3526991
406.40 0.3600713
406.50 0.3793223
406.60 0.4012923
406.70 0.4099724
406.80 0.3952018
406.90 0.3609445
407.00 0.3227743
407.10 0.2977123
407.20 0.2953286
407.30 0.3088814
407.40 0.3223672
407.50 0.3251872
407.60 0.3123645
407.70 0.2927288
407.80 0.2800369
407.90 0.2816311
408.00 0.295898
408.10 0.3192403
408.20 0.349561
408.30 0.3807086
408.40 0.3997615
408.50 0.3977433
408.60 0.382095
408.70 0.3705127
408.80 0.3692151
408.90 0.3658323
409.00 0.3496286
409.10 0.330866
409.20 0.3315591
409.30 0.3587102
409.40 0.3948689
409.50 0.4162159
409.60 0.412629
409.70 0.3924834
409.80 0.3765374
409.90 0.3875117
410.00 0.4343671
410.10 0.5003915
410.20 0.5497281
410.30 0.5538204
410.40 0.5120607
410.50 0.4472757
410.60 0.3859981
410.70 0.3482235
410.80 0.3314811
410.90 0.3321497
411.00 0.3424931
411.10 0.3523738
411.20 0.3553323
411.30 0.3516036
411.40 0.3456487
411.50 0.341593
411.60 0.3455294
411.70 0.3559784
411.80 0.3681685
411.90 0.3822662
412.00 0.3944914
412.10 0.3963114
412.20 0.3817925
412.30 0.3583696
412.40 0.3427431
412.50 0.3452986
412.60 0.361503
412.70 0.3788686
412.80 0.3893733
412.90 0.3908866
413.00 0.3811122
413.10 0.3585006
413.20 0.3277394
413.30 0.2992248
413.40 0.2796323
413.50 0.2664606
413.60 0.2541754
413.70 0.2432508
413.80 0.2400506
413.90 0.2493169
414.00 0.2686238
414.10 0.2892241
414.20 0.3062807
414.30 0.3098571
414.40 0.300326
414.50 0.2866345
414.60 0.2810859
414.70 0.2896021
414.80 0.3105864
414.90 0.3311271
415.00 0.3433594
415.10 0.3523081
415.20 0.3612299
415.30 0.3653997
415.40 0.3644735
415.50 0.3608482
415.60 0.3532548
415.70 0.3362573
415.80 0.3090243
415.90 0.2822796
416.00 0.2719842
416.10 0.2833569
416.20 0.3099234
416.30 0.3423944
416.40 0.3751876
416.50 0.4035294
416.60 0.4219842
416.70 0.4164092
416.80 0.3883134
416.90 0.354909
417.00 0.3348209
417.10 0.3298955
417.20 0.3214691
417.30 0.3020956
417.40 0.2784402
417.50 0.2597959
417.60 0.2483968
417.70 0.2435089
417.80 0.249519
417.90 0.2750261
418.00 0.312886
418.10 0.3496718
418.20 0.3721756
418.30 0.3781715
418.40 0.3757138
418.50 0.3711837
418.60 0.3659754
418.70 0.3526039
418.80 0.3351703
418.90 0.3211024
419.00 0.3125354
419.10 0.3068204
419.20 0.3043954
419.30 0.3097957
419.40 0.3239543
419.50 0.3395344
419.60 0.3463464
419.70 0.3413899
419.80 0.3313213
419.90 0.3244859
420.00 0.3205602
420.10 0.3125062
420.20 0.2982693
420.30 0.2874681
420.40 0.2868094
420.50 0.2895607
420.60 0.2844337
420.70 0.2671802
420.80 0.2466584
420.90 0.231022
421.00 0.2263784
421.10 0.2339452
421.20 0.2509881
421.30 0.2718114
421.40 0.2886474
421.50 0.2957443
421.60 0.2912031
421.70 0.2784192
421.80 0.2628412
421.90 0.2469099
422.00 0.2287234
422.10 0.2053591
422.20 0.1778615
422.30 0.1517871
422.40 0.1325143
422.50 0.1202767
422.60 0.1107971
422.70 0.1037626
422.80 0.09635198
422.90 0.09652164
423.00 0.109296
423.10 0.1309357
423.20 0.1535118
423.30 0.17343
423.40 0.1937307
423.50 0.2201855
423.60 0.2505053
423.70 0.2725785
423.80 0.2797306
423.90 0.2720212
424.00 0.256346
424.10 0.2418185
424.20 0.2334277
424.30 0.230736
424.40 0.2337609
424.50 0.2420897
424.60 0.2520688
424.70 0.2562096
424.80 0.2523457
424.90 0.2459541
425.00 0.248844
425.10 0.2634938
425.20 0.277606
425.30 0.2767344
425.40 0.2592417
425.50 0.2371359
425.60 0.2246087
425.70 0.226403
425.80 0.2365665
425.90 0.2463999
426.00 0.2519543
426.10 0.2551217
426.20 0.2582174
426.30 0.2620877
426.40 0.2679251
426.50 0.2757941
426.60 0.2801597
426.70 0.2728723
426.80 0.2557722
426.90 0.2456937
427.00 0.2567325
427.10 0.2774295
427.20 0.2897311
427.30 0.2834942
427.40 0.2640581
427.50 0.2444043
427.60 0.2357321
427.70 0.2437522
427.80 0.2679575
427.90 0.2981813
428.00 0.3225084
428.10 0.3337819
428.20 0.3313374
428.30 0.3197072
428.40 0.3045842
428.50 0.2897025
428.60 0.2754188
428.70 0.2623024
428.80 0.2535055
428.90 0.2524302
429.00 0.258534
429.10 0.2696348
429.20 0.2795356
429.30 0.2852499
429.40 0.2879943
429.50 0.2908083
429.60 0.2974275
429.70 0.3081945
429.80 0.3172215
429.90 0.316774
430.00 0.3057526
430.10 0.2926282
430.20 0.2892678
430.30 0.3021298
430.40 0.3268172
430.50 0.3486805
430.60 0.3507666
430.70 0.3265416
430.80 0.2873376
430.90 0.25558
431.00 0.2483545
431.10 0.2659421
431.20 0.2938318
431.30 0.3139732
431.40 0.316641
431.50 0.3049028
431.60 0.2913699
431.70 0.2879116
431.80 0.2987712
431.90 0.3213809
432.00 0.3478598
432.10 0.3695041
432.20 0.3797584
432.30 0.3815321
432.40 0.3791187
432.50 0.3704999
432.60 0.3501868
432.70 0.3210142
432.80 0.2982524
432.90 0.2959566
433.00 0.3126016
433.10 0.3349453
433.20 0.3543063
433.30 0.3702376
433.40 0.3835258
433.50 0.3955873
433.60 0.410731
433.70 0.4418946
433.80 0.5092055
433.90 0.6101478
434.00 0.7170937
434.10 0.7838487
434.20 0.7784905
434.30 0.7089033
434.40 0.6143257
434.50 0.5340561
434.60 0.4854985
434.70 0.4650284
434.80 0.4587426
434.90 0.449781
435.00 0.4244288
435.10 0.3806709
435.20 0.3316097
435.30 0.2971197
435.40 0.2907226
435.50 0.3116004
435.60 0.3461301
435.70 0.376384
435.80 0.3913311
435.90 0.391178
436.00 0.3820762
436.10 0.3697021
436.20 0.3618232
436.30 0.3609279
436.40 0.3707892
436.50 0.3843369
436.60 0.3879544
436.70 0.3811679
436.80 0.3761284
436.90 0.3826349
437.00 0.396723
437.10 0.4063153
437.20 0.4044251
437.30 0.393502
437.40 0.3806111
437.50 0.3722437
437.60 0.3702115
437.70 0.370784
437.80 0.3685549
437.90 0.3625866
438.00 0.3584151
438.10 0.3598797
438.20 0.3624712
438.30 0.3594359
438.40 0.3544556
438.50 0.3588281
438.60 0.3769918
438.70 0.3997085
438.80 0.4125834
438.90 0.4100337
439.00 0.4001033
439.10 0.3930289
439.20 0.3912105
439.30 0.3895723
439.40 0.3838935
439.50 0.3775572
439.60 0.377735
439.70 0.3866722
439.80 0.3992528
439.90 0.4117386
440.00 0.4234673
440.10 0.4372121
440.20 0.4525654
440.30 0.4631036
440.40 0.4641436
440.50 0.4503538
440.60 0.4273638
440.70 0.4063831
440.80 0.3984025
440.90 0.4127752
441.00 0.4420613
441.10 0.4707211
441.20 0.4848962
441.30 0.4836612
441.40 0.478883
441.50 0.4824887
441.60 0.4961222
441.70 0.5132022
441.80 0.5250868
441.90 0.5246899
442.00 0.5093306
442.10 0.4841989
442.20 0.4600881
442.30 0.4444403
442.40 0.4363705
442.50 0.4323033
442.60 0.4329592
442.70 0.4408625
442.80 0.4539147
442.90 0.4671713
443.00 0.4795403
443.10 0.4934683
443.20 0.5072779
443.30 0.5127576
443.40 0.5054689
443.50 0.4940664
443.60 0.4923968
443.70 0.5052789
443.80 0.5309321
443.90 0.5583236
444.00 0.5822501
444.10 0.601565
444.20 0.6145316
444.30 0.6193906
444.40 0.6168996
444.50 0.6105665
444.60 0.6051255
444.70 0.6039454
444.80 0.6081716
444.90 0.6168117
445.00 0.6264891
445.10 0.6324685
445.20 0.6295034
445.30 0.612353
445.40 0.5793387
445.50 0.5381829
445.60 0.5055624
445.70 0.498191
445.80 0.5180181
445.90 0.5517348
446.00 0.5828255
446.10 0.6025893
446.20 0.6110256
446.30 0.6121662
446.40 0.6110757
446.50 0.6118559
446.60 0.6155694
446.70 0.6203821
446.80 0.6248735
446.90 0.6308906
447.00 0.6416875
447.10 0.6585826
447.20 0.6800321
447.30 0.7018501
447.40 0.7176347
447.50 0.7216839
447.60 0.7147472
447.70 0.7056005
447.80 0.7037778
447.90 0.7098065
448.00 0.7166205
448.10 0.7109311
448.20 0.6959923
448.30 0.6879962
448.40 0.695947
448.50 0.7193091
448.60 0.745605
448.70 0.7602122
448.80 0.7569498
448.90 0.7419713
449.00 0.7294621
449.10 0.7311868
449.20 0.7467665
449.30 0.7627828
449.40 0.7634292
449.50 0.745743
449.60 0.7236938
449.70 0.7149017
449.80 0.725463
449.90 0.7477286
450.00 0.7699684
450.10 0.7858201
450.20 0.7954045
450.30 0.8015273
450.40 0.8056952
450.50 0.8052399
450.60 0.7955329
450.70 0.776436
450.80 0.7544368
450.90 0.7375612
451.00 0.7284716
451.10 0.7239767
451.20 0.7209144
451.30 0.719261
451.40 0.7189279
451.50 0.71654
451.60 0.7084868
451.70 0.6982064
451.80 0.6973577
451.90 0.7151214
452.00 0.746659
452.10 0.776645
452.20 0.7947743
452.30 0.8040005
452.40 0.8118753
452.50 0.8183244
452.60 0.817036
452.70 0.8063942
452.80 0.7935023
452.90 0.7873646
453.00 0.7903649
453.10 0.7963291
453.20 0.7958166
453.30 0.7838763
453.40 0.7646413
453.50 0.7498781
453.60 0.7518492
453.70 0.7752721
453.80 0.8142531
453.90 0.8553799
454.00 0.8866208
454.10 0.9041174
454.20 0.9094558
454.30 0.9015776
454.40 0.87576
454.50 0.8322707
454.60 0.782564
454.70 0.7438177
454.80 0.7271527
454.90 0.7325274
455.00 0.7515795
455.10 0.7732766
455.20 0.7895565
455.30 0.798749
455.40 0.8049845
455.50 0.8140421
455.60 0.8291157
455.70 0.8498535
455.80 0.8737297
455.90 0.8970232
456.00 0.916116
456.10 0.9292268
456.20 0.9371301
456.30 0.9426018
456.40 0.9492885
456.50 0.9612047
456.60 0.9811313
456.70 1.007159
456.80 1.031762
456.90 1.046767
457.00 1.051159
457.10 1.05293
457.20 1.061111
457.30 1.076489
457.40 1.089924
457.50 1.088925
457.60 1.06701
457.70 1.028884
457.80 0.9882871
457.90 0.9601089
458.00 0.9514445
458.10 0.9573198
458.20 0.9638482
458.30 0.9556074
458.40 0.9243274
458.50 0.8744783
458.60 0.8203775
458.70 0.7767011
458.80 0.75121
458.90 0.7454738
459.00 0.7581232
459.10 0.784335
459.20 0.8141567
459.30 0.8377765
459.40 0.8544642
459.50 0.871852
459.60 0.8949641
459.70 0.9184302
459.80 0.9315921
459.90 0.9304562
460.00 0.9221058
460.10 0.9172379
460.20 0.9200623
460.30 0.9240739
460.40 0.9165489
460.50 0.8897174
460.60 0.8506443
460.70 0.820949
460.80 0.8243264
460.90 0.8697179
461.00 0.9439826
461.10 1.021152
461.20 1.079566
461.30 1.113351
461.40 1.129851
461.50 1.137956
461.60 1.140841
461.70 1.138054
461.80 1.130952
461.90 1.124895
462.00 1.127197
462.10 1.141837
462.20 1.163329
462.30 1.17458
462.40 1.15551
462.50 1.098515
462.60 1.01608
462.70 0.9332122
462.80 0.8720994
462.90 0.8422342
463.00 0.8406798
463.10 0.8572165
463.20 0.8790631
463.30 0.8953799
463.40 0.9007918
463.50 0.8963343
463.60 0.8859209
463.70 0.8723593
463.80 0.8587041
463.90 0.8508328
464.00 0.8547993
464.10 0.8711119
464.20 0.8938131
464.30 0.915154
464.40 0.9299774
464.50 0.9364154
464.60 0.9367153
464.70 0.936999
464.80 0.9421556
464.90 0.950376
465.00 0.9549812
465.10 0.9530829
465.20 0.9500873
465.30 0.9528774
465.40 0.9607554
465.50 0.966855
465.60 0.9681631
465.70 0.9726659
465.80 0.9936654
465.90 1.035871
466.00 1.08792
466.10 1.129133
466.20 1.145534
466.30 1.141221
466.40 1.132495
466.50 1.129443
466.60 1.125664
466.70 1.106034
466.80 1.062269
466.90 0.9988812
467.00 0.9265954
467.10 0.8558167
467.20 0.7972854
467.30 0.7628437
467.40 0.7595381
467.50 0.7822849
467.60 0.8135189
467.70 0.8335005
467.80 0.833251
467.90 0.8185676
468.00 0.8031017
468.10 0.7977584
468.20 0.8052744
468.30 0.8227972
468.40 0.8467825
468.50 0.8745
468.60 0.902287
468.70 0.9248287
468.80 0.9389011
468.90 0.9473108
469.00 0.9564643
469.10 0.96904
469.20 0.9804845
469.30 0.9842502
469.40 0.9800338
469.50 0.9745944
469.60 0.9750339
469.70 0.9830669
469.80 0.9959077
469.90 1.010325
470.00 1.023576
470.10 1.032997
470.20 1.038196
470.30 1.042204
470.40 1.047019
470.50 1.048978
470.60 1.042305
470.70 1.02797
470.80 1.014203
470.90 1.007538
471.00 1.007414
471.10 1.008958
471.20 1.006983
471.30 0.9963608
471.40 0.9731026
471.50 0.9395798
471.60 0.907787
471.70 0.8929913
471.80 0.9030533
471.90 0.9331809
472.00 0.969452
472.10 0.9981942
472.20 1.013833
472.30 1.020267
472.40 1.025581
472.50 1.033942
472.60 1.042132
472.70 1.04451
472.80 1.040558
472.90 1.036037
473.00 1.036774
473.10 1.043342
473.20 1.052886
473.30 1.063553
473.40 1.074653
473.50 1.083562
473.60 1.0851
473.70 1.076497
473.80 1.062285
473.90 1.052227
474.00 1.053442
474.10 1.064465
474.20 1.077607
474.30 1.086961
474.40 1.0932
474.50 1.100979
474.60 1.113641
474.70 1.130665
474.80 1.148715
474.90 1.164389
475.00 1.175823
475.10 1.182794
475.20 1.187265
475.30 1.193829
475.40 1.207049
475.50 1.22537
475.60 1.236833
475.70 1.224217
475.80 1.177948
475.90 1.10274
476.00 1.011049
476.10 0.9130653
476.20 0.8157025
476.30 0.7291171
476.40 0.6682375
476.50 0.638011
476.60 0.6308273
476.70 0.6343609
476.80 0.6372148
476.90 0.6365489
477.00 0.6358784
477.10 0.6391841
477.20 0.648828
477.30 0.6661167
477.40 0.6917938
477.50 0.7240365
477.60 0.7553164
477.70 0.7737322
477.80 0.7715202
477.90 0.7532158
478.00 0.7328464
478.10 0.7224721
478.20 0.7250294
478.30 0.737142
478.40 0.7554065
478.50 0.778312
478.60 0.8042209
478.70 0.8293983
478.80 0.8483235
478.90 0.8572447
479.00 0.8587497
479.10 0.8608548
479.20 0.8692881
479.30 0.8821736
479.40 0.8938147
479.50 0.9023645
479.60 0.9114301
479.70 0.9252114
479.80 0.9450092
479.90 0.9691096
480.00 0.992931
480.10 1.009453
480.20 1.011427
480.30 0.9945409
480.40 0.9587498
480.50 0.9077568
480.60 0.8486423
480.70 0.7910968
480.80 0.7445193
480.90 0.7145272
481.00 0.7016724
481.10 0.7028883
481.20 0.7149359
481.30 0.7361779
481.40 0.7649718
481.50 0.7966318
481.60 0.822571
481.70 0.835139
481.80 0.8343428
481.90 0.8289153
482.00 0.8296719
482.10 0.8414549
482.20 0.8612215
482.30 0.882783
482.40 0.9011034
482.50 0.9126919
482.60 0.9157457
482.70 0.9114571
482.80 0.9041365
482.90 0.8976453
483.00 0.8919028
483.10 0.884938
483.20 0.8783636
483.30 0.878623
483.40 0.8915493
483.50 0.916515
483.60 0.9474457
483.70 0.9792296
483.80 1.009848
483.90 1.035329
484.00 1.045899
484.10 1.03141
484.20 0.9934732
484.30 0.950928
484.40 0.9285596
484.50 0.9357864
484.60 0.9556508
484.70 0.9585458
484.80 0.9287869
484.90 0.8763645
485.00 0.8240862
485.10 0.7891919
485.20 0.7776112
485.30 0.7876056
485.40 0.8111413
485.50 0.8338428
485.60 0.8441944
485.70 0.8491036
485.80 0.8801131
485.90 0.9757489
486.00 1.143982
486.10 1.335545
486.20 1.46352
486.30 1.464568
486.40 1.34789
486.50 1.183671
486.60 1.044454
486.70 0.9613929
486.80 0.9280097
486.90 0.9262975
487.00 0.9410728
487.10 0.9599356
487.20 0.9737932
487.30 0.9803757
487.40 0.9826692
487.50 0.9828282
487.60 0.980671
487.70 0.9775855
487.80 0.9777362
487.90 0.9841362
488.00 0.9946917
488.10 1.003523
488.20 1.006666
488.30 1.005906
488.40 1.006815
488.50 1.013166
488.60 1.024507
488.70 1.038524
488.80 1.053503
488.90 1.066893
489.00 1.07333
489.10 1.068668
489.20 1.056325
489.30 1.046132
489.40 1.045322
489.50 1.052443
489.60 1.06041
489.70 1.063862
489.80 1.062846
489.90 1.061177
490.00 1.062903
490.10 1.069447
490.20 1.080197
490.30 1.096555
490.40 1.123229
490.50 1.162858
490.60 1.210187
490.70 1.254074
490.80 1.286454
490.90 1.307652
491.00 1.323216
491.10 1.337649
491.20 1.350673
491.30 1.357749
491.40 1.354384
491.50 1.341371
491.60 1.325671
491.70 1.314469
491.80 1.308528
491.90 1.304086
492.00 1.301259
492.10 1.306496
492.20 1.325261
492.30 1.354907
492.40 1.387128
492.50 1.417006
492.60 1.446343
492.70 1.477408
492.80 1.505812
492.90 1.521866
493.00 1.519036
493.10 1.500627
493.20 1.477758
493.30 1.461602
493.40 1.457806
493.50 1.465651
493.60 1.481107
493.70 1.499886
493.80 1.517996
493.90 1.532062
494.00 1.541167
494.10 1.548254
494.20 1.558844
494.30 1.576556
494.40 1.600223
494.50 1.626584
494.60 1.654806
494.70 1.687267
494.80 1.725222
494.90 1.763991
495.00 1.793073
495.10 1.798495
495.20 1.762715
495.30 1.66658
495.40 1.500898
495.50 1.282003
495.60 1.053042
495.70 0.8638103
495.80 0.7447803
495.90 0.6958775
496.00 0.6941304
496.10 0.7097554
496.20 0.7204803
496.30 0.719657
496.40 0.7151445
496.50 0.7202086
496.60 0.7439375
496.70 0.787256
496.80 0.8448252
496.90 0.9081241
497.00 0.9667767
497.10 1.010966
497.20 1.035472
497.30 1.042341
497.40 1.03932
497.50 1.034787
497.60 1.033306
497.70 1.03459
497.80 1.035829
497.90 1.033781
498.00 1.024992
498.10 1.007752
498.20 0.9872293
498.30 0.9776804
498.40 0.9941254
498.50 1.037941
498.60 1.092572
498.70 1.135977
498.80 1.156599
498.90 1.158065
499.00 1.151841
499.10 1.146113
499.20 1.140817
499.30 1.13261
499.40 1.124637
499.50 1.128178
499.60 1.139102
499.70 1.114754
499.80 0.9944701
499.90 0.7590633
500.00 1
500.10 0.8916185
500.20 0.8680188
500.30 0.893825
500.40 0.8774952
500.50 0.8617996
500.60 0.8791126
500.70 0.8950361
500.80 0.864049
500.90 0.8512163
501.00 0.8926002
501.10 0.990784
501.20 0.9585493
501.30 0.9288862
501.40 0.8969774
501.50 0.8335392
501.60 0.8463964
501.70 0.8469869
501.80 0.9201868
501.90 1.017852
502.00 1.077934
502.10 1.077159
502.20 1.039318
502.30 1.012914
502.40 1.041747
502.50 1.041897
502.60 1.047106
502.70 1.044921
502.80 1.102602
502.90 1.115242
503.00 1.121933
503.10 1.1696
503.20 1.177769
503.30 1.196405
503.40 1.180608
503.50 1.160387
503.60 1.168067
503.70 1.140516
503.80 1.184062
503.90 1.184823
504.00 1.14917
504.10 1.121185
504.20 1.155862
504.30 1.169485
504.40 1.189366
504.50 1.210893
504.60 1.337982
504.70 1.364514
504.80 1.325052
504.90 1.267795
505.00 1.183409
505.10 1.130143
505.20 1.166531
505.30 1.201113
505.40 1.211399
505.50 1.118141
505.60 1.156649
505.70 1.187268
505.80 1.220967
505.90 1.218712
506.00 1.21878
506.10 1.230383
506.20 1.209381
506.30 1.247224
506.40 1.244954
506.50 1.188478
506.60 1.160855
506.70 1.186243
506.80 1.231363
506.90 1.204085
507.00 1.242448
507.10 1.292818
507.20 1.249442
507.30 1.232948
507.40 1.280279
507.50 1.368546
507.60 1.387923
507.70 1.31429
507.80 1.218202
507.90 1.297434
508.00 1.327451
508.10 1.307567
508.20 1.217042
508.30 1.1922
508.40 1.188351
508.50 1.194818
508.60 1.300985
508.70 1.41678
508.80 1.421688
508.90 1.327734
509.00 1.261783
509.10 1.259146
509.20 1.343102
509.30 1.386463
509.40 1.423505
509.50 1.343214
509.60 1.173957
509.70 1.201256
509.80 1.330937
509.90 1.435409
510.00 1.332702
510.10 1.214053
510.20 1.220206
510.30 1.171747
510.40 1.149142
510.50 1.202461
510.60 1.232552
510.70 1.213169
510.80 1.18264
510.90 1.186615
511.00 1.244719
511.10 1.243382
511.20 1.241459
511.30 1.276651
511.40 1.322172
511.50 1.36657
511.60 1.47144
511.70 1.476161
511.80 1.448043
511.90 1.483853
512.00 1.421321
512.10 1.357585
512.20 1.382201
512.30 1.416143
512.40 1.367228
512.50 1.334597
512.60 1.285669
512.70 1.265315
512.80 1.263819
512.90 1.224342
513.00 1.224404
513.10 1.290688
513.20 1.339625
513.30 1.407098
513.40 1.458382
513.50 1.396951
513.60 1.372515
513.70 1.469124
513.80 1.563966
513.90 1.580958
514.00 1.495279
514.10 1.364851
514.20 1.376825
514.30 1.424762
514.40 1.374312
514.50 1.326727
514.60 1.267555
514.70 1.238093
514.80 1.293643
514.90 1.352917
515.00 1.382469
515.10 1.333707
515.20 1.331188
515.30 1.271779
515.40 1.16433
515.50 1.159829
515.60 1.222885
515.70 1.346497
515.80 1.508015
515.90 1.607462
516.00 1.585214
516.10 1.624345
516.20 1.74392
516.30 1.83249
516.40 1.715925
516.50 1.713137
516.60 1.702171
516.70 1.39488
516.80 0.9187877
516.90 0.6635559
517.00 0.5928125
517.10 0.6053148
517.20 0.5946439
517.30 0.6209328
517.40 0.635483
517.50 0.6698095
517.60 0.6979798
517.70 0.6914013
517.80 0.7375689
517.90 0.7901822
518.00 0.739976
518.10 0.7123999
518.20 0.7035845
518.30 0.7417293
518.40 0.7810591
518.50 0.8077813
518.60 0.9640543
518.70 1.097926
518.80 1.110993
518.90 1.130699
519.00 1.13598
519.10 1.123877
519.20 1.142715
519.30 1.116257
519.40 1.079628
519.50 1.135176
519.60 1.176694
519.70 1.207143
519.80 1.284261
519.90 1.29569
520.00 1.256313
520.10 1.138686
520.20 1.102001
520.30 1.155299
520.40 1.135377
520.50 0.9858181
520.60 0.8469636
520.70 0.8026391
520.80 0.8589307
520.90 0.8817084
521.00 0.8025118
521.10 0.8155207
521.20 1.065284
521.30 1.352453
521.40 1.513815
521.50 1.52628
521.60 1.499794
521.70 1.537742
521.80 1.580012
521.90 1.611041
522.00 1.641425
522.10 1.628005
522.20 1.66811
522.30 1.682342
522.40 1.651024
522.50 1.579692
522.60 1.536526
522.70 1.517004
522.80 1.567054
522.90 1.604201
523.00 1.720978
523.10 1.793363
523.20 1.774013
523.30 1.722266
523.40 1.730199
523.50 1.672389
523.60 1.6249
523.70 1.674444
523.80 1.73968
523.90 1.739059
524.00 1.756058
524.10 1.648123
524.20 1.505352
524.30 1.442442
524.40 1.475795
524.50 1.541099
524.60 1.56083
524.70 1.512406
524.80 1.464796
524.90 1.492225
525.00 1.502857
525.10 1.484886
525.20 1.519829
525.30 1.617605
525.40 1.691705
525.50 1.707491
525.60 1.717855
525.70 1.735582
525.80 1.787467
525.90 1.812706
526.00 1.815151
526.10 1.679467
526.20 1.576135
526.30 1.519749
526.40 1.474493
526.50 1.423116
526.60 1.400521
526.70 1.388836
526.80 1.451737
526.90 1.4065
527.00 1.246183
527.10 1.203013
527.20 1.337361
527.30 1.535174
527.40 1.656096
527.50 1.701598
527.60 1.732421
527.70 1.69832
527.80 1.733322
527.90 1.803111
528.00 1.756031
528.10 1.67228
528.20 1.608702
528.30 1.637071
528.40 1.70951
528.50 1.744442
528.60 1.782616
528.70 1.872343
528.80 1.894009
528.90 1.85526
529.00 1.864049
529.10 1.893029
529.20 1.893481
529.30 1.849818
529.40 1.826611
529.50 1.869547
529.60 1.894756
529.70 1.859333
529.80 1.78023
529.90 1.713048
530.00 1.691019
530.10 1.734164
530.20 1.803212
530.30 1.90259
530.40 1.953062
530.50 2.006022
530.60 2.024938
530.70 2.025716
530.80 1.881081
530.90 1.787903
531.00 1.789254
531.10 1.793346
531.20 1.77797
531.30 1.782144
531.40 1.77152
531.50 1.779768
531.60 1.816269
531.70 1.845661
531.80 1.900884
531.90 1.880376
532.00 1.84474
532.10 1.84336
532.20 1.840863
532.30 1.900315
532.40 1.907233
532.50 1.842073
532.60 1.849212
532.70 1.85744
532.80 1.740767
532.90 1.525165
533.00 1.487076
533.10 1.655024
533.20 1.826845
533.30 1.895389
533.40 1.844693
533.50 1.783972
533.60 1.804003
533.70 1.808268
533.80 1.813715
533.90 1.801488
534.00 1.848577
534.10 1.856022
534.20 1.858391
534.30 1.892371
534.40 1.910981
534.50 1.918685
534.60 1.938094
534.70 1.862197
534.80 1.806007
534.90 1.854622
535.00 1.88233
535.10 2.000085
535.20 2.18027
535.30 2.259557
535.40 2.202726
535.50 2.209087
535.60 2.214755
535.70 2.203531
535.80 2.146689
535.90 2.045547
536.00 1.972602
536.10 1.962456
536.20 1.959364
536.30 1.964783
536.40 1.987983
536.50 1.977638
536.60 1.93941
536.70 1.966363
536.80 1.965095
536.90 2.031854
537.00 2.037255
537.10 1.895898
537.20 1.773109
537.30 1.799282
537.40 1.921779
537.50 2.046735
537.60 2.078477
537.70 2.07622
537.80 2.101157
537.90 2.148355
538.00 2.239209
538.10 2.292477
538.20 2.281361
538.30 2.236853
538.40 2.216789
538.50 2.209989
538.60 2.163939
538.70 2.21025
538.80 2.297375
538.90 2.36723
539.00 2.359083
539.10 2.33375
539.20 2.257827
539.30 2.16605
539.40 2.166956
539.50 2.161332
539.60 2.149846
539.70 2.090067
539.80 2.040528
539.90 2.075181
540.00 2.230138
540.10 2.38132
540.20 2.455396
540.30 2.478579
540.40 2.442951
540.50 2.368305
540.60 2.171279
540.70 2.069554
540.80 2.096991
540.90 2.187378
541.00 2.166916
541.10 2.037369
541.20 2.033548
541.30 2.090589
541.40 2.163184
541.50 2.288268
541.60 2.351406
541.70 2.338964
541.80 2.363705
541.90 2.47631
542.00 2.5069
542.10 2.395644
542.20 2.371021
542.30 2.413143
542.40 2.315198
542.50 2.294582
542.60 2.349302
542.70 2.382296
542.80 2.366417
542.90 2.336666
543.00 2.247805
543.10 2.163808
543.20 2.17179
543.30 2.206186
543.40 2.232623
543.50 2.215651
543.60 2.15523
543.70 2.250581
543.80 2.423732
543.90 2.47068
544.00 2.457367
544.10 2.500008
544.20 2.62925
544.30 2.697895
544.40 2.749348
544.50 2.71199
544.60 2.61873
544.70 2.3516
544.80 2.035512
544.90 1.708724
545.00 1.431298
545.10 1.248619
545.20 1.249695
545.30 1.263253
545.40 1.210761
545.50 1.283057
545.60 1.337089
545.70 1.311186
545.80 1.272892
545.90 1.338365
546.00 1.433967
546.10 1.477267
546.20 1.486635
546.30 1.547826
546.40 1.581715
546.50 1.588892
546.60 1.666602
546.70 1.729819
546.80 1.77435
546.90 1.761834
547.00 1.667166
547.10 1.61375
547.20 1.664053
547.30 1.670221
547.40 1.713046
547.50 1.72024
547.60 1.683417
547.70 1.629309
547.80 1.650373
547.90 1.657489
548.00 1.651747
548.10 1.682896
548.20 1.701573
548.30 1.704789
548.40 1.764135
548.50 1.824973
548.60 1.843856
548.70 1.861259
548.80 1.852752
548.90 1.832995
549.00 1.791883
549.10 1.810012
549.20 1.843266
549.30 1.886522
549.40 1.907857
549.50 1.933391
549.60 1.862546
549.70 1.684722
549.80 1.557663
549.90 1.501985
550.00 1.395229
550.10 1.367475
550.20 1.330989
550.30 1.324922
550.40 1.351401
550.50 1.308432
550.60 1.25394
550.70 1.252923
550.80 1.313109
550.90 1.331529
551.00 1.338806
551.10 1.322222
551.20 1.319538
551.30 1.339432
551.40 1.288559
551.50 1.271639
551.60 1.283618
551.70 1.327613
551.80 1.321248
551.90 1.313033
552.00 1.302479
552.10 1.304836
552.20 1.309901
552.30 1.337975
552.40 1.292552
552.50 1.222393
552.60 1.179945
552.70 1.192948
552.80 1.255715
552.90 1.251992
553.00 1.26368
553.10 1.299252
553.20 1.278796
553.30 1.237458
553.40 1.246549
553.50 1.210077
553.60 1.128949
553.70 1.109404
553.80 1.133171
553.90 1.108064
554.00 1.09847
554.10 1.152053
554.20 1.132606
554.30 1.053252
554.40 1.047018
554.50 1.121814
554.60 1.084145
554.70 1.058243
554.80 1.118323
554.90 1.204098
555.00 1.196742
555.10 1.165816
555.20 1.174312
555.30 1.217754
555.40 1.188559
555.50 1.18005
555.60 1.247781
555.70 1.368309
555.80 1.426377
555.90 1.413934
556.00 1.391927
556.10 1.407042
556.20 1.442604
556.30 1.47667
556.40 1.50185
556.50 1.552951
556.60 1.60973
556.70 1.633293
556.80 1.629102
556.90 1.573798
557.00 1.615941
557.10 1.700776
557.20 1.689273
557.30 1.688749
557.40 1.68868
557.50 1.68868
557.60 1.68868
557.70 1.68868
557.80 1.68868
557.90 1.68868
558.00 1.68868
558.10 1.688678
558.20 1.688569
558.30 1.688154
558.40 1.682027
558.50 1.724389
558.60 1.891398
558.70 1.986239
558.80 1.908972
558.90 1.768275
559.00 1.702163
559.10 1.764438
559.20 1.904236
559.30 1.933019
559.40 1.875711
559.50 1.797202
559.60 1.756501
559.70 1.785962
559.80 1.743659
559.90 1.573358
560.00 1.396389
560.10 1.384655
560.20 1.518254
560.30 1.642899
560.40 1.630424
560.50 1.525467
560.60 1.493482
560.70 1.491317
560.80 1.51306
560.90 1.5438
561.00 1.564012
561.10 1.586558
561.20 1.645461
561.30 1.672104
561.40 1.706712
561.50 1.65954
561.60 1.590665
561.70 1.550367
561.80 1.549151
561.90 1.547965
562.00 1.50518
562.10 1.511961
562.20 1.512663
562.30 1.528548
562.40 1.58899
562.50 1.664898
562.60 1.635003
562.70 1.600778
562.80 1.6463
562.90 1.614735
563.00 1.463753
563.10 1.371358
563.20 1.373639
563.30 1.417069
563.40 1.51584
563.50 1.646889
563.60 1.646394
563.70 1.596493
563.80 1.600382
563.90 1.599517
564.00 1.567385
564.10 1.547793
564.20 1.565805
564.30 1.592465
564.40 1.622444
564.50 1.613615
564.60 1.606556
564.70 1.614799
564.80 1.662449
564.90 1.684708
565.00 1.68666
565.10 1.762427
565.20 1.84598
565.30 1.85547
565.40 1.834344
565.50 1.826947
565.60 1.851906
565.70 1.950749
565.80 1.981158
565.90 1.920351
566.00 1.856118
566.10 1.855537
566.20 1.799014
566.30 1.772205
566.40 1.717869
566.50 1.673677
566.60 1.674622
566.70 1.703255
566.80 1.72631
566.90 1.692273
567.00 1.632333
567.10 1.560098
567.20 1.57847
567.30 1.612237
567.40 1.637957
567.50 1.671122
567.60 1.715483
567.70 1.710045
567.80 1.748961
567.90 1.802448
568.00 1.845301
568.10 1.832602
568.20 1.817014
568.30 1.812838
568.40 1.829004
568.50 1.898557
568.60 1.965375
568.70 2.029374
568.80 1.956134
568.90 1.845763
569.00 1.794401
569.10 1.833713
569.20 1.90653
569.30 1.941133
569.40 1.963223
569.50 1.961279
569.60 1.905265
569.70 1.90727
569.80 1.921936
569.90 1.967558
570.00 2.009561
570.10 2.026121
570.20 2.070898
570.30 2.062417
570.40 1.97403
570.50 2.005243
570.60 2.110602
570.70 2.181439
570.80 2.181508
570.90 2.202772
571.00 2.249935
571.10 2.266584
571.20 2.208825
571.30 2.175434
571.40 2.128457
571.50 2.06067
571.60 2.041713
571.70 2.033422
571.80 1.995006
571.90 1.974059
572.00 1.987811
572.10 2.025382
572.20 2.025639
572.30 2.00169
572.40 2.079989
572.50 2.075476
572.60 2.069009
572.70 2.035791
572.80 2.050118
572.90 1.959627
573.00 1.980196
573.10 2.066003
573.20 2.149723
573.30 2.16285
573.40 2.227402
573.50 2.231476
573.60 2.189365
573.70 2.136872
573.80 2.107155
573.90 2.0883
574.00 2.033818
574.10 2.105169
574.20 2.192769
574.30 2.195529
574.40 2.134406
574.50 2.187697
574.60 2.257426
574.70 2.257443
574.80 2.285917
574.90 2.334445
575.00 2.385779
575.10 2.432876
575.20 2.45707
575.30 2.441751
575.40 2.442128
575.50 2.446172
575.60 2.458849
575.70 2.474261
575.80 2.45122
575.90 2.400745
576.00 2.257654
576.10 2.086466
576.20 1.948976
576.30 1.841227
576.40 1.842451
576.50 1.826065
576.60 1.778091
576.70 1.8164
576.80 1.917146
576.90 1.972425
577.00 1.978816
577.10 2.017164
577.20 2.015459
577.30 1.999552
577.40 2.030417
577.50 2.038899
577.60 1.990256
577.70 1.934916
577.80 2.012883
577.90 2.069928
578.00 2.114314
578.10 2.119294
578.20 2.142172
578.30 2.151814
578.40 2.17566
578.50 2.257921
578.60 2.28671
578.70 2.20537
578.80 2.131556
578.90 2.205264
579.00 2.221443
579.10 2.174636
579.20 2.139296
579.30 2.250605
579.40 2.334149
579.50 2.436928
579.60 2.514145
579.70 2.481073
579.80 2.454836
579.90 2.483136
580.00 2.545381
580.10 2.533178
580.20 2.485826
580.30 2.474082
580.40 2.52405
580.50 2.580935
580.60 2.539284
580.70 2.53392
580.80 2.598692
580.90 2.608391
581.00 2.577138
581.10 2.494815
581.20 2.28726
581.30 2.129514
581.40 2.069939
581.50 2.016088
581.60 1.958285
581.70 1.932989
581.80 1.886706
581.90 1.847053
582.00 1.862312
582.10 1.850342
582.20 1.847679
582.30 1.851001
582.40 1.939369
582.50 1.917727
582.60 1.896075
582.70 1.929643
582.80 1.989079
582.90 1.964117
583.00 1.968607
583.10 1.997227
583.20 2.018569
583.30 2.143958
583.40 2.219755
583.50 2.147327
583.60 2.065083
583.70 2.103693
583.80 2.039319
583.90 1.98168
584.00 2.007588
584.10 1.976203
584.20 1.982407
584.30 2.019366
584.40 2.049519
584.50 2.09455
584.60 2.082819
584.70 2.05723
584.80 1.973129
584.90 1.824553
585.00 1.652564
585.10 1.571648
585.20 1.549118
585.30 1.536502
585.40 1.554242
585.50 1.558108
585.60 1.540916
585.70 1.503838
585.80 1.456136
585.90 1.500595
586.00 1.550819
586.10 1.526581
586.20 1.553509
586.30 1.519161
586.40 1.427704
586.50 1.361565
586.60 1.344259
586.70 1.31302
586.80 1.413859
586.90 1.539143
587.00 1.540106
587.10 1.437452
587.20 1.375287
587.30 1.291281
587.40 1.230214
587.50 1.268804
587.60 1.289327
587.70 1.304806
587.80 1.284424
587.90 1.235538
588.00 1.203261
588.10 1.170277
588.20 1.126165
588.30 1.038687
588.40 1.002254
588.50 1.045124
588.60 0.9827796
588.70 0.8188417
588.80 0.7028274
588.90 0.721719
589.00 0.7897604
589.10 0.7996238
589.20 0.5793358
589.30 0.5022552
589.40 0.6779291
589.50 0.8104963
589.60 0.7258876
589.70 0.5971027
589.80 0.5754064
589.90 0.594983
590.00 0.719387
590.10 0.8562458
590.20 0.905711
590.30 0.9215299
590.40 0.9915823
590.50 1.041593
590.60 1.049586
590.70 1.076269
590.80 1.064387
590.90 0.9965723
591.00 1.015697
591.10 1.11149
591.20 1.168138
591.30 1.135643
591.40 1.115063
591.50 1.102067
591.60 1.109478
591.70 1.164695
591.80 1.223218
591.90 1.225938
592.00 1.220179
592.10 1.206249
592.20 1.21544
592.30 1.217853
592.40 1.224035
592.50 1.191379
592.60 1.195374
592.70 1.178663
592.80 1.1811
592.90 1.239619
593.00 1.247552
593.10 1.25464
593.20 1.265242
593.30 1.303655
593.40 1.329031
593.50 1.312066
593.60 1.366279
593.70 1.437741
593.80 1.498739
593.90 1.500318
594.00 1.433119
594.10 1.41544
594.20 1.43184
594.30 1.503277
594.40 1.528394
594.50 1.560743
594.60 1.552945
594.70 1.542197
594.80 1.516805
594.90 1.473882
595.00 1.432991
595.10 1.395234
595.20 1.403267
595.30 1.381857
595.40 1.348666
595.50 1.383657
595.60 1.406513
595.70 1.397709
595.80 1.340356
595.90 1.332633
596.00 1.262515
596.10 1.26607
596.20 1.344136
596.30 1.343016
596.40 1.360799
596.50 1.367357
596.60 1.41459
596.70 1.403516
596.80 1.421552
596.90 1.434563
597.00 1.456325
597.10 1.467801
597.20 1.456393
597.30 1.394311
597.40 1.355958
597.50 1.380179
597.60 1.407225
597.70 1.406633
597.80 1.465746
597.90 1.528822
598.00 1.5424
598.10 1.475479
598.20 1.488174
598.30 1.564433
598.40 1.574641
598.50 1.57391
598.60 1.609168
598.70 1.617489
598.80 1.625817
598.90 1.597497
599.00 1.600998
599.10 1.620494
599.20 1.676894
599.30 1.752366
599.40 1.775405
599.50 1.7635
599.60 1.738984
599.70 1.755742
599.80 1.789658
599.90 1.796836
600.00 1.747823
600.10 1.685926
600.20 1.652337
600.30 1.615641
600.40 1.643165
600.50 1.660848
600.60 1.675709
600.70 1.649618
600.80 1.646069
600.90 1.637076
601.00 1.62149
601.10 1.646026
601.20 1.683974
601.30 1.718817
601.40 1.738584
601.50 1.744506
601.60 1.732837
601.70 1.758568
601.80 1.77024
601.90 1.761104
602.00 1.784774
602.10 1.801855
602.20 1.792832
602.30 1.768675
602.40 1.80812
602.50 1.885551
602.60 1.905497
602.70 1.870396
602.80 1.879429
602.90 1.888816
603.00 1.884238
603.10 1.865421
603.20 1.908885
603.30 1.964635
603.40 1.991674
603.50 1.945186
603.60 1.877596
603.70 1.806043
603.80 1.715124
603.90 1.634562
604.00 1.715293
604.10 1.840905
604.20 1.906566
604.30 1.971006
604.40 2.019743
604.50 2.043429
604.60 2.059437
604.70 2.122189
604.80 2.156941
604.90 2.105267
605.00 2.108518
605.10 2.173732
605.20 2.155213
605.30 2.06446
605.40 2.026033
605.50 2.054456
605.60 2.069392
605.70 2.095946
605.80 2.124752
605.90 2.12342
606.00 2.121035
606.10 2.158405
606.20 2.220115
606.30 2.18759
606.40 2.129475
606.50 2.081667
606.60 1.990941
606.70 1.940845
606.80 2.009156
606.90 2.133274
607.00 2.21737
607.10 2.251387
607.20 2.281645
607.30 2.256149
607.40 2.160329
607.50 2.102611
607.60 2.147786
607.70 2.223194
607.80 2.275036
607.90 2.245575
608.00 2.126061
608.10 2.044424
608.20 2.01757
608.30 2.045434
608.40 2.089471
608.50 2.098162
608.60 2.112045
608.70 2.153227
608.80 2.16172
608.90 2.135394
609.00 2.124521
609.10 2.15202
609.20 2.166132
609.30 2.193795
609.40 2.233612
609.50 2.27315
609.60 2.277237
609.70 2.286133
609.80 2.318255
609.90 2.336241
610.00 2.309003
610.10 2.259564
610.20 2.21098
610.30 2.152823
610.40 2.075394
610.50 2.052728
610.60 2.116243
610.70 2.185796
610.80 2.228646
610.90 2.257317
611.00 2.28193
611.10 2.262623
611.20 2.233889
611.30 2.224856
611.40 2.242846
611.50 2.276189
611.60 2.272239
611.70 2.224302
611.80 2.153427
611.90 2.14654
612.00 2.14973
612.10 2.115185
612.20 2.042339
612.30 1.978067
612.40 1.998924
612.50 2.074729
612.60 2.173459
612.70 2.236173
612.80 2.169098
612.90 2.149086
613.00 2.225118
613.10 2.281694
613.20 2.239933
613.30 2.166192
613.40 2.150727
613.50 2.136387
613.60 2.163852
613.70 2.165132
613.80 2.160134
613.90 2.154151
614.00 2.214377
614.10 2.270911
614.20 2.260043
614.30 2.230536
614.40 2.261971
614.50 2.315323
614.60 2.324937
614.70 2.331508
614.80 2.256217
614.90 2.102352
615.00 1.971045
615.10 1.849561
615.20 1.776723
615.30 1.804032
615.40 1.880397
615.50 1.900781
615.60 1.829324
615.70 1.804521
615.80 1.781003
615.90 1.640143
616.00 1.479724
616.10 1.353384
616.20 1.249986
616.30 1.174967
616.40 1.161221
616.50 1.195394
616.60 1.191264
616.70 1.160978
616.80 1.198721
616.90 1.249841
617.00 1.252004
617.10 1.235506
617.20 1.272601
617.30 1.314567
617.40 1.292771
617.50 1.25342
617.60 1.255183
617.70 1.2322
617.80 1.2535
617.90 1.29825
618.00 1.295629
618.10 1.261349
618.20 1.239071
618.30 1.265829
618.40 1.271099
618.50 1.242292
618.60 1.219566
618.70 1.162489
618.80 1.127365
618.90 1.112793
619.00 1.093125
619.10 1.075465
619.20 1.050536
619.30 1.032164
619.40 1.042536
619.50 1.067677
619.60 1.06818
619.70 1.053375
619.80 1.06736
619.90 1.107972
620.00 1.160636
620.10 1.179923
620.20 1.141486
620.30 1.122412
620.40 1.149373
620.50 1.183795
620.60 1.235689
620.70 1.222467
620.80 1.220336
620.90 1.23582
621.00 1.234632
621.10 1.236033
621.20 1.22853
621.30 1.198958
621.40 1.154621
621.50 1.105244
621.60 1.052609
621.70 1.014943
621.80 1.02831
621.90 1.037418
622.00 1.066445
622.10 1.106143
622.20 1.104065
622.30 1.053493
622.40 1.002421
622.50 0.9481001
622.60 0.9350467
622.70 0.9773457
622.80 0.968228
622.90 0.9874899
623.00 1.030773
623.10 1.009232
623.20 0.983055
623.30 1.001648
623.40 1.029129
623.50 1.037663
623.60 1.03695
623.70 1.105735
623.80 1.095033
623.90 1.013801
624.00 0.9969683
624.10 1.055858
624.20 1.097772
624.30 1.07317
624.40 1.109817
624.50 1.127149
624.60 1.118294
624.70 1.108047
624.80 1.088866
624.90 1.133163
625.00 1.150764
625.10 1.128825
625.20 1.142854
625.30 1.192468
625.40 1.2311
625.50 1.236115
625.60 1.227086
625.70 1.228874
625.80 1.248884
625.90 1.283318
626.00 1.31235
626.10 1.297832
626.20 1.287187
626.30 1.321325
626.40 1.382915
626.50 1.432022
626.60 1.463347
626.70 1.481652
626.80 1.40662
626.90 1.327818
627.00 1.331773
627.10 1.378246
627.20 1.427919
627.30 1.47651
627.40 1.5174
627.50 1.487794
627.60 1.397791
627.70 1.371763
627.80 1.397392
627.90 1.391527
628.00 1.387891
628.10 1.411231
628.20 1.448007
628.30 1.453191
628.40 1.493072
628.50 1.525389
628.60 1.558482
628.70 1.603895
628.80 1.637686
628.90 1.658334
629.00 1.682109
629.10 1.711886
629.20 1.706424
629.30 1.706501
629.40 1.716359
629.50 1.730842
629.60 1.7138
629.70 1.765655
629.80 1.831072
629.90 1.833588
630.00 1.87991
630.10 2.126482
630.20 2.24361
630.30 1.874567
630.40 1.738395
630.50 1.899369
630.60 2.048879
630.70 2.080558
630.80 2.088847
630.90 2.118976
631.00 2.109355
631.10 2.093281
631.20 2.156273
631.30 2.230128
631.40 2.289156
631.50 2.315419
631.60 2.332989
631.70 2.354037
631.80 2.367842
631.90 2.402099
632.00 2.411427
632.10 2.393735
632.20 2.368697
632.30 2.326947
632.40 2.270352
632.50 2.273735
632.60 2.333245
632.70 2.35649
632.80 2.400482
632.90 2.435516
633.00 2.437703
633.10 2.436086
633.20 2.437347
633.30 2.463477
633.40 2.499105
633.50 2.561822
633.60 2.617313
633.70 2.594267
633.80 2.567465
633.90 2.590009
634.00 2.657503
634.10 2.713934
634.20 2.773592
634.30 2.821147
634.40 2.82685
634.50 2.836158
634.60 2.827527
634.70 2.858298
634.80 2.919849
634.90 2.94885
635.00 2.944928
635.10 2.941786
635.20 2.895442
635.30 2.794276
635.40 2.719123
635.50 2.687197
635.60 2.676655
635.70 2.645093
635.80 2.564552
635.90 2.484495
636.00 2.460612
636.10 2.46247
636.20 2.487748
636.30 2.56964
636.40 2.681459
636.50 2.6528
636.60 2.483137
636.70 2.419745
636.80 2.503931
636.90 2.560209
637.00 2.55564
637.10 2.560518
637.20 2.596125
637.30 2.662537
637.40 2.691674
637.50 2.643805
637.60 2.621326
637.70 2.623573
637.80 2.614426
637.90 2.585278
638.00 2.503367
638.10 2.41758
638.20 2.333207
638.30 2.273691
638.40 2.280671
638.50 2.347224
638.60 2.360907
638.70 2.314068
638.80 2.282543
638.90 2.281227
639.00 2.299036
639.10 2.345533
639.20 2.422104
639.30 2.488121
639.40 2.53415
639.50 2.615251
639.60 2.697096
639.70 2.778594
639.80 2.827093
639.90 2.866027
640.00 2.906234
640.10 2.904758
640.20 2.92654
640.30 2.957243
640.40 3.008704
640.50 3.076527
640.60 3.136139
640.70 3.166604
640.80 3.177088
640.90 3.19795
641.00 3.206024
641.10 3.194812
641.20 3.185591
641.30 3.205194
641.40 3.200319
641.50 3.181344
641.60 3.139653
641.70 3.064049
641.80 3.030806
641.90 3.024067
642.00 3.004495
642.10 2.979773
642.20 2.921276
642.30 2.885746
642.40 2.9057
642.50 2.950963
642.60 2.99421
642.70 3.016896
642.80 3.024417
642.90 3.024126
643.00 3.029561
643.10 3.076832
643.20 3.113191
643.30 3.115743
643.40 3.127691
643.50 3.146433
643.60 3.180432
643.70 3.208205
643.80 3.163622
643.90 3.127086
644.00 3.095361
644.10 3.095006
644.20 3.167673
644.30 3.312548
644.40 3.465006
644.50 3.543374
644.60 3.57098
644.70 3.531128
644.80 3.435907
644.90 3.317758
645.00 3.215106
645.10 3.139906
645.20 3.172717
645.30 3.290982
645.40 3.421501
645.50 3.510246
645.60 3.492822
645.70 3.483726
645.80 3.505881
645.90 3.555734
646.00 3.57901
646.10 3.558452
646.20 3.493051
646.30 3.396392
646.40 3.356292
646.50 3.409135
646.60 3.51921
646.70 3.625716
646.80 3.725252
646.90 3.79658
647.00 3.815861
647.10 3.807477
647.20 3.799405
647.30 3.822694
647.40 3.895809
647.50 3.919219
647.60 3.930177
647.70 3.9604
647.80 3.962113
647.90 3.922308
648.00 3.791139
648.10 3.647239
648.20 3.558159
648.30 3.538569
648.40 3.496218
648.50 3.412379
648.60 3.357771
648.70 3.367708
648.80 3.417886
648.90 3.479567
649.00 3.548527
649.10 3.609902
649.20 3.63881
649.30 3.613807
649.40 3.580042
649.50 3.511279
649.60 3.455115
649.70 3.471858
649.80 3.584092
649.90 3.673076
650.00 3.723004
650.10 3.742099
650.20 3.769966
650.30 3.874547
650.40 4.008027
650.50 4.097254
650.60 4.086619
650.70 4.086217
650.80 4.147844
650.90 4.185323
651.00 4.208663
651.10 4.248417
651.20 4.259535
651.30 4.224619
651.40 4.123518
651.50 4.037635
651.60 4.011443
651.70 4.077547
651.80 4.160696
651.90 4.215259
652.00 4.267298
652.10 4.318154
652.20 4.376332
652.30 4.436379
652.40 4.490333
652.50 4.507722
652.60 4.518994
652.70 4.549135
652.80 4.592612
652.90 4.644928
653.00 4.673706
653.10 4.703771
653.20 4.733978
653.30 4.736325
653.40 4.759746
653.50 4.768905
653.60 4.80764
653.70 4.892786
653.80 4.973622
653.90 5.061236
654.00 5.153804
654.10 5.189872
654.20 5.172543
654.30 5.087508
654.40 4.938064
654.50 4.780948
654.60 4.671966
654.70 4.580517
654.80 4.504026
654.90 4.439962
655.00 4.352021
655.10 4.266081
655.20 4.188342
655.30 4.158858
655.40 4.171264
655.50 4.153641
655.60 4.133355
655.70 4.159244
655.80 4.271413
655.90 4.388947
656.00 4.477942
656.10 4.677814
656.20 5.15882
656.30 5.861381
656.40 6.42239
656.50 6.386547
656.60 5.678821
656.70 4.752694
656.80 4.115903
656.90 3.903814
657.00 3.877614
657.10 3.863861
657.20 3.762822
657.30 3.615207
657.40 3.552875
657.50 3.549394
657.60 3.626921
657.70 3.768146
657.80 3.817322
657.90 3.780139
658.00 3.653913
658.10 3.526423
658.20 3.519535
658.30 3.622651
658.40 3.723709
658.50 3.792822
658.60 3.868776
658.70 3.94568
658.80 3.994379
658.90 4.048047
659.00 4.101931
659.10 4.100003
659.20 4.049868
659.30 3.959415
659.40 3.819046
659.50 3.659388
659.60 3.578133
659.70 3.615463
659.80 3.699475
659.90 3.729394
660.00 3.718101
660.10 3.689979
660.20 3.668813
660.30 3.712513
660.40 3.79476
660.50 3.821172
660.60 3.746927
660.70 3.665847
660.80 3.636841
660.90 3.644341
661.00 3.654003
661.10 3.68632
661.20 3.753045
661.30 3.781714
661.40 3.785107
661.50 3.807687
661.60 3.804457
661.70 3.756487
661.80 3.666894
661.90 3.568534
662.00 3.492137
662.10 3.454712
662.20 3.443699
662.30 3.44057
662.40 3.44066
662.50 3.370986
662.60 3.231757
662.70 3.119737
662.80 3.070565
662.90 3.06503
663.00 3.095052
663.10 3.18702
663.20 3.303618
663.30 3.393044
663.40 3.426974
663.50 3.380327
663.60 3.258766
663.70 3.087428
663.80 2.942645
663.90 2.915212
664.00 2.970111
664.10 3.044866
664.20 3.115902
664.30 3.189286
664.40 3.249153
664.50 3.266985
664.60 3.252542
664.70 3.258868
664.80 3.260165
664.90 3.209315
665.00 3.083484
665.10 2.885455
665.20 2.69001
665.30 2.520824
665.40 2.432035
665.50 2.447179
665.60 2.516836
665.70 2.580663
665.80 2.561187
665.90 2.535415
666.00 2.556147
666.10 2.631233
666.20 2.706201
666.30 2.710734
666.40 2.726341
666.50 2.782211
666.60 2.831277
666.70 2.892415
666.80 2.932972
666.90 2.985131
667.00 3.04602
667.10 3.061013
667.20 3.053658
667.30 3.028921
667.40 3.002315
667.50 2.968153
667.60 2.945145
667.70 2.960204
667.80 2.992151
667.90 3.01535
668.00 2.942918
668.10 2.767261
668.20 2.537303
668.30 2.333837
668.40 2.252451
668.50 2.257044
668.60 2.313494
668.70 2.366622
668.80 2.381085
668.90 2.430461
669.00 2.457884
669.10 2.461815
669.20 2.458038
669.30 2.432631
669.40 2.406406
669.50 2.400607
669.60 2.452399
669.70 2.518377
669.80 2.557796
669.90 2.585968
670.00 2.610293
670.10 2.636044
670.20 2.644862
670.30 2.65394
670.40 2.67708
670.50 2.693378
670.60 2.720253
670.70 2.760431
670.80 2.745648
670.90 2.751583
671.00 2.788611
671.10 2.78954
671.20 2.792588
671.30 2.777275
671.40 2.706874
671.50 2.552728
671.60 2.372153
671.70 2.236242
671.80 2.131957
671.90 2.045086
672.00 2.011917
672.10 2.017155
672.20 2.034317
672.30 2.061686
672.40 2.107077
672.50 2.179145
672.60 2.216108
672.70 2.247865
672.80 2.302432
672.90 2.329006
673.00 2.311621
673.10 2.283802
673.20 2.30155
673.30 2.354722
673.40 2.393657
673.50 2.388361
673.60 2.378795
673.70 2.382947
673.80 2.397141
673.90 2.441702
674.00 2.49512
674.10 2.52415
674.20 2.521537
674.30 2.521397
674.40 2.548916
674.50 2.591105
674.60 2.618252
674.70 2.553147
674.80 2.425146
674.90 2.29155
675.00 2.190636
675.10 2.181702
675.20 2.199755
675.30 2.242922
675.40 2.293078
675.50 2.334838
675.60 2.360921
675.70 2.370874
675.80 2.390956
675.90 2.412255
676.00 2.402965
676.10 2.383381
676.20 2.407594
676.30 2.461723
676.40 2.5081
676.50 2.551852
676.60 2.601454
676.70 2.647104
676.80 2.685786
676.90 2.699776
677.00 2.681081
677.10 2.685519
677.20 2.692507
677.30 2.694194
677.40 2.72655
677.50 2.772378
677.60 2.818892
677.70 2.847336
677.80 2.841235
677.90 2.815976
678.00 2.791992
678.10 2.750983
678.20 2.648504
678.30 2.483174
678.40 2.323318
678.50 2.225545
678.60 2.194513
678.70 2.201445
678.80 2.226666
678.90 2.276902
679.00 2.318648
679.10 2.340084
679.20 2.365641
679.30 2.373514
679.40 2.37947
679.50 2.395617
679.60 2.420917
679.70 2.445262
679.80 2.44052
679.90 2.440528
680.00 2.447031
680.10 2.482046
680.20 2.528273
680.30 2.541361
680.40 2.546483
680.50 2.548226
680.60 2.543464
680.70 2.542068
680.80 2.528802
680.90 2.531326
681.00 2.557604
681.10 2.58013
681.20 2.616857
681.30 2.659434
681.40 2.688965
681.50 2.685601
681.60 2.622094
681.70 2.512743
681.80 2.426727
681.90 2.442518
682.00 2.504813
682.10 2.533463
682.20 2.542852
682.30 2.533401
682.40 2.517296
682.50 2.516153
682.60 2.541272
682.70 2.595294
682.80 2.663965
682.90 2.714055
683.00 2.697699
683.10 2.653812
683.20 2.639414
683.30 2.674166
683.40 2.72585
683.50 2.731728
683.60 2.716924
683.70 2.665533
683.80 2.640149
683.90 2.670819
684.00 2.682762
684.10 2.729959
684.20 2.786061
684.30 2.799856
684.40 2.802252
684.50 2.787801
684.60 2.788716
684.70 2.787177
684.80 2.75602
684.90 2.730107
685.00 2.716253
685.10 2.675099
685.20 2.574433
685.30 2.466407
685.40 2.43992
685.50 2.482511
685.60 2.514648
685.70 2.52343
685.80 2.529341
685.90 2.523494
686.00 2.50686
686.10 2.485058
686.20 2.496679
686.30 2.554412
686.40 2.64197
686.50 2.760268
686.60 2.824614
686.70 2.784207
686.80 2.695759
686.90 2.632938
687.00 2.621714
687.10 2.589775
687.20 2.596704
687.30 2.657579
687.40 2.739261
687.50 2.841672
687.60 2.88786
687.70 2.903242
687.80 2.951221
687.90 2.980103
688.00 2.976207
688.10 2.983668
688.20 2.961538
688.30 2.910331
688.40 2.853395
688.50 2.78422
688.60 2.734647
688.70 2.707051
688.80 2.728428
688.90 2.81286
689.00 2.889534
689.10 2.924249
689.20 2.921436
689.30 2.925068
689.40 2.944243
689.50 2.984986
689.60 3.017871
689.70 3.030885
689.80 3.052867
689.90 3.04054
690.00 2.978907
690.10 2.887988
690.20 2.771013
690.30 2.716669
690.40 2.759843
690.50 2.887109
690.60 3.053974
690.70 3.202508
690.80 3.305105
690.90 3.344612
691.00 3.343871
691.10 3.321241
691.20 3.295555
691.30 3.314412
691.40 3.365486
691.50 3.405091
691.60 3.421212
691.70 3.382799
691.80 3.249541
691.90 3.047559
692.00 2.865065
692.10 2.827242
692.20 2.982231
692.30 3.230637
692.40 3.464583
692.50 3.569255
692.60 3.563705
692.70 3.5776
692.80 3.577623
692.90 3.563853
693.00 3.602879
693.10 3.673965
693.20 3.76255
693.30 3.864398
693.40 3.939227
693.50 3.949107
693.60 3.908863
693.70 3.882697
693.80 3.891872
693.90 3.906141
694.00 3.930164
694.10 3.978213
694.20 4.067385
694.30 4.168664
694.40 4.276895
694.50 4.385757
694.60 4.42971
694.70 4.470687
694.80 4.58134
694.90 4.67505
695.00 4.6954
695.10 4.648345
695.20 4.575026
695.30 4.457323
695.40 4.337198
695.50 4.283684
695.60 4.276978
695.70 4.294517
695.80 4.290344
695.90 4.277913
696.00 4.277037
696.10 4.304838
696.20 4.322563
696.30 4.339343
696.40 4.390302
696.50 4.460705
696.60 4.532231
696.70 4.565043
696.80 4.582259
696.90 4.607394
697.00 4.59965
697.10 4.552619
697.20 4.501041
697.30 4.477238
697.40 4.500563
697.50 4.556056
697.60 4.640794
697.70 4.760997
697.80 4.858101
697.90 4.885346
698.00 4.884393
698.10 4.842606
698.20 4.822432
698.30 4.88246
698.40 4.934042
698.50 4.973528
698.60 4.995778
698.70 4.999522
698.80 4.998785
698.90 4.983184
699.00 4.934347
699.10 4.846859
699.20 4.772109
699.30 4.739083
699.40 4.759314
699.50 4.818978
699.60 4.870047
699.70 4.923815
699.80 4.975456
699.90 4.97535
700.00 4.929481
700.10 4.924772
700.20 4.989269
700.30 5.081472
700.40 5.11896
700.50 5.051407
700.60 4.950138
700.70 4.94133
700.80 5.053352
700.90 5.182246
701.00 5.225061
701.10 5.219429
701.20 5.236424
701.30 5.312756
701.40 5.45777
701.50 5.586837
701.60 5.622543
701.70 5.578091
701.80 5.520834
701.90 5.526641
702.00 5.609004
702.10 5.723936
702.20 5.788442
702.30 5.754006
702.40 5.627284
702.50 5.459092
702.60 5.348191
702.70 5.37101
702.80 5.568521
702.90 5.884097
703.00 6.163612
703.10 6.298861
703.20 6.303001
703.30 6.253055
703.40 6.216573
703.50 6.284699
703.60 6.474994
703.70 6.704244
703.80 6.850352
703.90 6.87845
704.00 6.863393
704.10 6.894805
704.20 6.984831
704.30 7.119903
704.40 7.234659
704.50 7.277402
704.60 7.277776
704.70 7.28251
704.80 7.332698
704.90 7.388137
705.00 7.380075
705.10 7.377441
705.20 7.368118
705.30 7.200525
705.40 6.702789
705.50 5.825201
705.60 4.806877
705.70 4.016411
705.80 3.681033
705.90 3.728393
706.00 3.83808
706.10 3.745818
706.20 3.553746
706.30 3.440845
706.40 3.480269
706.50 3.614035
706.60 3.750283
706.70 3.874827
706.80 3.993498
706.90 4.069603
707.00 4.092132
707.10 4.135501
707.20 4.230496
707.30 4.339531
707.40 4.402162
707.50 4.407318
707.60 4.394159
707.70 4.402226
707.80 4.412492
707.90 4.420566
708.00 4.47019
708.10 4.542274
708.20 4.596883
708.30 4.641784
708.40 4.674423
708.50 4.715858
708.60 4.722534
708.70 4.544985
708.80 4.127431
708.90 3.55355
709.00 3.01655
709.10 2.69814
709.20 2.652386
709.30 2.780599
709.40 2.909832
709.50 2.951541
709.60 2.911715
709.70 2.854673
709.80 2.877187
709.90 2.979788
710.00 3.092798
710.10 3.14863
710.20 3.127896
710.30 3.083128
710.40 3.081296
710.50 3.124591
710.60 3.216929
710.70 3.314861
710.80 3.400331
710.90 3.526237
711.00 3.680797
711.10 3.816976
711.20 3.902847
711.30 3.925121
711.40 3.91317
711.50 3.90794
711.60 3.895191
711.70 3.869954
711.80 3.865098
711.90 3.932013
712.00 4.052745
712.10 4.170027
712.20 4.260092
712.30 4.310322
712.40 4.250007
712.50 3.98222
712.60 3.489694
712.70 2.892784
712.80 2.42156
712.90 2.24073
713.00 2.287712
713.10 2.390864
713.20 2.428355
713.30 2.365674
713.40 2.298003
713.50 2.306559
713.60 2.378487
713.70 2.435789
713.80 2.450513
713.90 2.427436
714.00 2.407171
714.10 2.453416
714.20 2.553919
714.30 2.681226
714.40 2.776003
714.50 2.800483
714.60 2.780605
714.70 2.744735
714.80 2.739264
714.90 2.773657
715.00 2.811282
715.10 2.839354
715.20 2.89441
715.30 2.974663
715.40 3.06695
715.50 3.173891
715.60 3.271644
715.70 3.342606
715.80 3.333237
715.90 3.224138
716.00 3.069401
716.10 2.944702
716.20 2.905912
716.30 2.949141
716.40 3.011775
716.50 3.050861
716.60 3.057793
716.70 3.051727
716.80 3.047109
716.90 3.055293
717.00 3.107041
717.10 3.191723
717.20 3.279232
717.30 3.356952
717.40 3.395263
717.50 3.377405
717.60 3.349674
717.70 3.340302
717.80 3.354681
717.90 3.398267
718.00 3.466815
718.10 3.539279
718.20 3.592802
718.30 3.653265
718.40 3.695059
718.50 3.748425
718.60 3.849223
718.70 3.905184
718.80 3.91615
718.90 3.937332
719.00 3.972458
719.10 4.015042
719.20 4.033124
719.30 4.040433
719.40 4.047011
719.50 4.060806
719.60 4.058494
719.70 3.941854
719.80 3.737266
719.90 3.54613
720.00 3.432062
720.10 3.396517
720.20 3.404246
720.30 3.434509
720.40 3.464176
720.50 3.468969
720.60 3.466553
720.70 3.469412
720.80 3.492231
720.90 3.536684
721.00 3.567252
721.10 3.595733
721.20 3.636081
721.30 3.702374
721.40 3.770615
721.50 3.809685
721.60 3.845995
721.70 3.857129
721.80 3.891013
721.90 3.982858
722.00 4.041618
722.10 4.083792
722.20 4.148594
722.30 4.204917
722.40 4.250546
722.50 4.282996
722.60 4.346963
722.70 4.469586
722.80 4.561863
722.90 4.575475
723.00 4.525347
723.10 4.444328
723.20 4.373246
723.30 4.340988
723.40 4.352594
723.50 4.398467
723.60 4.482255
723.70 4.616089
723.80 4.726254
723.90 4.775553
724.00 4.797486
724.10 4.774474
724.20 4.727457
724.30 4.711083
724.40 4.767534
724.50 4.874924
724.60 4.980912
724.70 5.061219
724.80 5.07574
724.90 5.095622
725.00 5.209852
725.10 5.336987
725.20 5.37058
725.30 5.306574
725.40 5.239507
725.50 5.291101
725.60 5.417972
725.70 5.518846
725.80 5.540771
725.90 5.493476
726.00 5.469283
726.10 5.500639
726.20 5.584309
726.30 5.709129
726.40 5.831521
726.50 5.9201
726.60 5.95281
726.70 5.950158
726.80 5.974797
726.90 6.019533
727.00 5.99811
727.10 5.853429
727.20 5.620239
727.30 5.439352
727.40 5.46204
727.50 5.695322
727.60 6.016937
727.70 6.251584
727.80 6.193197
727.90 5.932303
728.00 5.790433
728.10 5.801866
728.20 5.865196
728.30 5.945005
728.40 6.041293
728.50 6.169527
728.60 6.275882
728.70 6.324486
728.80 6.367484
728.90 6.394989
729.00 6.439644
729.10 6.506572
729.20 6.546855
729.30 6.559215
729.40 6.54457
729.50 6.556527
729.60 6.634919
729.70 6.743619
729.80 6.849132
729.90 6.885261
730.00 6.824159
730.10 6.787587
730.20 6.838313
730.30 6.943324
730.40 7.046096
730.50 7.062282
730.60 7.047668
730.70 7.093248
730.80 7.194905
730.90 7.276643
731.00 7.285963
731.10 7.244612
731.20 7.216122
731.30 7.271001
731.40 7.397811
731.50 7.521804
731.60 7.608996
731.70 7.687582
731.80 7.711797
731.90 7.676073
732.00 7.635094
732.10 7.631449
732.20 7.689374
732.30 7.763894
732.40 7.809446
732.50 7.773144
732.60 7.615841
732.70 7.416696
732.80 7.372731
732.90 7.561285
733.00 7.798002
733.10 7.93549
733.20 7.988181
733.30 7.996172
733.40 8.017353
733.50 8.0723
733.60 8.160677
733.70 8.258771
733.80 8.324599
733.90 8.373597
734.00 8.471578
734.10 8.636184
734.20 8.731045
734.30 8.607499
734.40 8.33442
734.50 8.115046
734.60 8.034069
734.70 8.054848
734.80 8.150671
734.90 8.246648
735.00 8.320149
735.10 8.393376
735.20 8.456282
735.30 8.513792
735.40 8.540348
735.50 8.499328
735.60 8.403317
735.70 8.29626
735.80 8.232634
735.90 8.270753
736.00 8.399821
736.10 8.538198
736.20 8.60604
736.30 8.606796
736.40 8.651033
736.50 8.740286
736.60 8.782782
736.70 8.803166
736.80 8.849288
736.90 8.994331
737.00 9.195047
737.10 9.26849
737.20 9.195793
737.30 9.074414
737.40 9.028302
737.50 9.026287
737.60 9.007095
737.70 9.038349
737.80 9.108695
737.90 9.178897
738.00 9.222133
738.10 9.221787
738.20 9.196531
738.30 9.175958
738.40 9.175418
738.50 9.196601
738.60 9.248251
738.70 9.325065
738.80 9.403949
738.90 9.472013
739.00 9.519399
739.10 9.548341
739.20 9.526623
739.30 9.451854
739.40 9.352737
739.50 9.246154
739.60 9.189832
739.70 9.216257
739.80 9.292164
739.90 9.371531
740.00 9.388397
740.10 9.389724
740.20 9.44882
740.30 9.514832
740.40 9.555697
740.50 9.53309
740.60 9.430834
740.70 9.292197
740.80 9.214969
740.90 9.267804
741.00 9.369847
741.10 9.439494
741.20 9.483249
741.30 9.53093
741.40 9.58703
741.50 9.626797
741.60 9.626589
741.70 9.566286
741.80 9.447019
741.90 9.330431
742.00 9.311188
742.10 9.401958
742.20 9.484174
742.30 9.505749
742.40 9.494979
742.50 9.510078
742.60 9.574989
742.70 9.65298
742.80 9.727969
742.90 9.775509
743.00 9.821614
743.10 9.885222
743.20 9.909358
743.30 9.873367
743.40 9.789427
743.50 9.675374
743.60 9.55699
743.70 9.493786
743.80 9.567959
743.90 9.784641
744.00 10.03156
744.10 10.08821
744.20 9.900567
744.30 9.697531
744.40 9.633961
744.50 9.653413
744.60 9.670262
744.70 9.637747
744.80 9.559591
744.90 9.491142
745.00 9.467574
745.10 9.51239
745.20 9.64387
745.30 9.78959
745.40 9.846647
745.50 9.818514
745.60 9.747988
745.70 9.711083
745.80 9.764503
745.90 9.837349
746.00 9.855982
746.10 9.822131
746.20 9.784155
746.30 9.768738
746.40 9.766312
746.50 9.784892
746.60 9.843703
746.70 9.904925
746.80 9.92952
746.90 9.955888
747.00 10.0181
747.10 10.12256
747.20 10.18471
747.30 10.1476
747.40 10.03666
747.50 9.914593
747.60 9.884217
747.70 9.933436
747.80 10.03252
747.90 10.13882
748.00 10.14543
748.10 10.06449
748.20 9.99143
748.30 9.995172
748.40 10.11974
748.50 10.26332
748.60 10.25851
748.70 10.1252
748.80 9.957895
748.90 9.875749
749.00 9.918228
749.10 9.990191
749.20 10.04272
749.30 10.04853
749.40 9.995001
749.50 9.90842
749.60 9.844744
749.70 9.859782
749.80 9.993026
749.90 10.22214
750.00 10.43081
750.10 10.53897
750.20 10.55571
750.30 10.52023
750.40 10.50616
750.50 10.51115
750.60 10.4552
750.70 10.3281
750.80 10.22775
750.90 10.24303
751.00 10.40162
751.10 10.59838
751.20 10.66425
751.30 10.59795
751.40 10.50256
751.50 10.49798
751.60 10.60572
751.70 10.73482
751.80 10.79258
751.90 10.71906
752.00 10.56829
752.10 10.46221
752.20 10.42807
752.30 10.506
752.40 10.70938
752.50 10.84026
752.60 10.75975
752.70 10.50181
752.80 10.17833
752.90 10.02044
753.00 10.11312
753.10 10.35884
753.20 10.61427
753.30 10.73968
753.40 10.71271
753.50 10.61426
753.60 10.56304
753.70 10.61934
753.80 10.749
753.90 10.93027
754.00 11.12549
754.10 11.23264
754.20 11.22078
754.30 11.16421
754.40 11.13094
754.50 11.1469
754.60 11.18624
754.70 11.19514
754.80 11.16491
754.90 11.12425
755.00 11.10678
755.10 11.11481
755.20 11.14445
755.30 11.18253
755.40 11.17924
755.50 11.1284
755.60 11.08119
755.70 11.08126
755.80 11.12739
755.90 11.16206
756.00 11.18034
756.10 11.21789
756.20 11.22421
756.30 11.17489
756.40 11.1046
756.50 11.01039
756.60 10.91229
756.70 10.82439
756.80 10.70775
756.90 10.59843
757.00 10.5941
757.10 10.74768
757.20 11.0626
757.30 11.41579
757.40 11.59472
757.50 11.58007
757.60 11.46032
757.70 11.30114
757.80 11.18216
757.90 11.1035
758.00 11.09686
758.10 11.23626
758.20 11.48836
758.30 11.67556
758.40 11.71394
758.50 11.68964
758.60 11.66713
758.70 11.58609
758.80 11.28844
758.90 10.6633
759.00 9.73966
759.10 8.801337
759.20 8.184037
759.30 8.014265
759.40 8.218207
759.50 8.49704
759.60 8.647355
759.70 8.695157
759.80 8.7686
759.90 8.947475
760.00 9.13392
760.10 9.170481
760.20 8.941084
760.30 8.650876
760.40 8.675898
760.50 8.902228
760.60 9.059237
760.70 9.084988
760.80 8.936117
760.90 8.790283
761.00 8.789509
761.10 8.846061
761.20 9.022164
761.30 9.343114
761.40 9.644837
761.50 9.796355
761.60 9.734415
761.70 9.629109
761.80 9.759568
761.90 10.03919
762.00 10.26023
762.10 10.29431
762.20 10.13409
762.30 9.965435
762.40 9.923038
762.50 9.986696
762.60 9.970727
762.70 9.678736
762.80 9.081754
762.90 8.357076
763.00 7.761679
763.10 7.401235
763.20 7.301109
763.30 7.435943
763.40 7.661253
763.50 7.77979
763.60 7.748823
763.70 7.700975
763.80 7.729322
763.90 7.832766
764.00 7.869191
764.10 7.733651
764.20 7.639518
764.30 7.7623
764.40 7.923565
764.50 7.936365
764.60 7.789577
764.70 7.689809
764.80 7.826814
764.90 7.986368
765.00 7.94148
765.10 7.778206
765.20 7.664532
765.30 7.718257
765.40 7.790901
765.50 7.661635
765.60 7.490523
765.70 7.50539
765.80 7.674655
765.90 7.808816
766.00 7.622807
766.10 7.133067
766.20 6.569481
766.30 5.950037
766.40 5.226637
766.50 4.380246
766.60 3.573191
766.70 3.182448
766.80 3.357223
766.90 3.954111
767.00 4.670661
767.10 5.193958
767.20 5.404731
767.30 5.373766
767.40 5.32752
767.50 5.395685
767.60 5.550568
767.70 5.711271
767.80 5.842975
767.90 5.982022
768.00 6.097004
768.10 6.166915
768.20 6.238938
768.30 6.301276
768.40 6.333851
768.50 6.361592
768.60 6.39468
768.70 6.437602
768.80 6.497214
768.90 6.550211
769.00 6.572043
769.10 6.574766
769.20 6.568574
769.30 6.562601
769.40 6.548444
769.50 6.46067
769.60 6.232614
769.70 5.819523
769.80 5.208894
769.90 4.490235
770.00 3.874507
770.10 3.613092
770.20 3.859929
770.30 4.510689
770.40 5.214865
770.50 5.705607
770.60 5.918405
770.70 5.93649
770.80 5.925366
770.90 5.990196
771.00 6.146437
771.10 6.350783
771.20 6.545181
771.30 6.700736
771.40 6.797689
771.50 6.754945
771.60 6.63075
771.70 6.638651
771.80 6.792083
771.90 6.924372
772.00 6.910855
772.10 6.822966
772.20 6.83996
772.30 6.938063
772.40 7.0167
772.50 7.108196
772.60 7.244942
772.70 7.385799
772.80 7.483854
772.90 7.532265
773.00 7.554804
773.10 7.589241
773.20 7.633125
773.30 7.670519
773.40 7.733699
773.50 7.811378
773.60 7.856375
773.70 7.886566
773.80 7.921489
773.90 7.966617
774.00 8.02358
774.10 8.070638
774.20 8.061597
774.30 7.94632
774.40 7.724148
774.50 7.465261
774.60 7.240725
774.70 7.07994
774.80 6.966345
774.90 6.867521
775.00 6.749255
775.10 6.578394
775.20 6.420551
775.30 6.355528
775.40 6.359684
775.50 6.424601
775.60 6.548432
775.70 6.647177
775.80 6.684035
775.90 6.692002
776.00 6.726891
776.10 6.835173
776.20 6.937861
776.30 6.925721
776.40 6.826456
776.50 6.733442
776.60 6.70953
776.70 6.784983
776.80 6.929582
776.90 7.090054
777.00 7.217433
777.10 7.27747
777.20 7.286501
777.30 7.30852
777.40 7.384435
777.50 7.457336
777.60 7.480019
777.70 7.473833
777.80 7.462749
777.90 7.467786
778.00 7.496447
778.10 7.493274
778.20 7.387507
778.30 7.210782
778.40 7.018345
778.50 6.859356
778.60 6.786397
778.70 6.777126
778.80 6.802627
778.90 6.859519
779.00 6.932869
779.10 7.016051
779.20 7.124562
779.30 7.274169
779.40 7.453006
779.50 7.609019
779.60 7.667301
779.70 7.548211
779.80 7.342438
779.90 7.214748
780.00 7.133779
780.10 7.061963
780.20 7.040669
780.30 7.154637
780.40 7.437546
780.50 7.754758
780.60 7.999439
780.70 8.193777
780.80 8.357991
780.90 8.444103
781.00 8.401978
781.10 8.263312
781.20 8.121329
781.30 8.087052
781.40 8.185934
781.50 8.362905
781.60 8.533316
781.70 8.611024
781.80 8.59307
781.90 8.545916
782.00 8.534966
782.10 8.522445
782.20 8.370577
782.30 8.071682
782.40 7.869654
782.50 7.853867
782.60 7.888693
782.70 7.921096
782.80 7.860759
782.90 7.638567
783.00 7.363685
783.10 7.164321
783.20 7.083217
783.30 7.146305
783.40 7.300372
783.50 7.443367
783.60 7.54115
783.70 7.592038
783.80 7.626464
783.90 7.690493
784.00 7.777005
784.10 7.840976
784.20 7.86826
784.30 7.874215
784.40 7.867568
784.50 7.869645
784.60 7.924541
784.70 8.044491
784.80 8.163343
784.90 8.198816
785.00 8.151775
785.10 8.109885
785.20 8.189958
785.30 8.382601
785.40 8.5324
785.50 8.494946
785.60 8.323031
785.70 8.202242
785.80 8.218645
785.90 8.343766
786.00 8.459858
786.10 8.471852
786.20 8.380311
786.30 8.227645
786.40 8.055619
786.50 7.956371
786.60 7.974674
786.70 8.081199
786.80 8.256425
786.90 8.407635
787.00 8.486035
787.10 8.442143
787.20 8.288888
787.30 8.205213
787.40 8.208828
787.50 8.236798
787.60 8.326429
787.70 8.495442
787.80 8.685563
787.90 8.819551
788.00 8.863561
788.10 8.860428
788.20 8.902603
788.30 8.967965
788.40 8.993689
788.50 8.983072
788.60 8.952895
788.70 8.937841
788.80 8.979347
788.90 9.088659
789.00 9.214187
789.10 9.292969
789.20 9.30378
789.30 9.247422
789.40 9.208866
789.50 9.238324
789.60 9.262244
789.70 9.250097
789.80 9.202998
789.90 9.119009
790.00 9.007557
790.10 8.89425
790.20 8.825622
790.30 8.840693
790.40 8.937609
790.50 9.065782
790.60 9.188196
790.70 9.19873
790.80 9.00825
790.90 8.710263
791.00 8.425949
791.10 8.260678
791.20 8.26509
791.30 8.416715
791.40 8.61597
791.50 8.723907
791.60 8.721181
791.70 8.632338
791.80 8.576151
791.90 8.596574
792.00 8.649059
792.10 8.738576
792.20 8.803266
792.30 8.844641
792.40 8.83572
792.50 8.777539
792.60 8.781696
792.70 8.821511
792.80 8.865855
792.90 8.926863
793.00 9.016379
793.10 9.161757
793.20 9.330672
793.30 9.490041
793.40 9.593425
793.50 9.587105
793.60 9.527027
793.70 9.497828
793.80 9.49571
793.90 9.488874
794.00 9.445207
794.10 9.344022
794.20 9.21942
794.30 9.142771
794.40 9.190679
794.50 9.312626
794.60 9.351445
794.70 9.209203
794.80 8.936933
794.90 8.751193
795.00 8.760563
795.10 8.920435
795.20 9.18434
795.30 9.440707
795.40 9.621975
795.50 9.744201
795.60 9.810387
795.70 9.843591
795.80 9.856091
795.90 9.830261
796.00 9.778531
796.10 9.691146
796.20 9.571459
796.30 9.525309
796.40 9.692796
796.50 10.02325
796.60 10.25055
796.70 10.22804
796.80 10.02395
796.90 9.881323
797.00 9.958116
797.10 10.10036
797.20 10.19193
797.30 10.21777
797.40 10.18986
797.50 10.18407
797.60 10.19288
797.70 10.19472
797.80 10.20216
797.90 10.18736
798.00 10.16008
798.10 10.13289
798.20 10.06207
798.30 9.969907
798.40 9.92688
798.50 9.947003
798.60 9.975899
798.70 9.948931
798.80 9.86806
798.90 9.785363
799.00 9.747647
799.10 9.825628
799.20 10.0646
799.30 10.39277
799.40 10.64252
799.50 10.59179
799.60 10.29087
799.70 10.05038
799.80 9.963709
799.90 9.952351
800.00 10.00631
800.10 10.09858
800.20 10.18712
800.30 10.27928
800.40 10.36017
800.50 10.40053
800.60 10.40247
800.70 10.3974
800.80 10.43324
800.90 10.50986
801.00 10.58917
801.10 10.62811
801.20 10.65108
801.30 10.7288
801.40 10.85557
801.50 10.94781
801.60 10.94482
801.70 10.88749
801.80 10.84893
801.90 10.87177
802.00 10.94199
802.10 10.97915
802.20 10.92405
802.30 10.83715
802.40 10.79449
802.50 10.84513
802.60 11.0129
802.70 11.13998
802.80 11.11682
802.90 11.05911
803.00 11.07234
803.10 11.1707
803.20 11.30636
803.30 11.40219
803.40 11.42311
803.50 11.41839
803.60 11.41127
803.70 11.3806
803.80 11.35872
803.90 11.3604
804.00 11.35193
804.10 11.33657
804.20 11.33865
804.30 11.37725
804.40 11.48759
804.50 11.61605
804.60 11.65878
804.70 11.60753
804.80 11.49368
804.90 11.3941
805.00 11.42646
805.10 11.62226
805.20 11.90095
805.30 12.14387
805.40 12.27631
805.50 12.28973
805.60 12.23956
805.70 12.19685
805.80 12.16765
805.90 12.13334
806.00 12.15443
806.10 12.28971
806.20 12.44709
806.30 12.50741
806.40 12.46642
806.50 12.35934
806.60 12.2291
806.70 12.15785
806.80 12.17376
806.90 12.17049
807.00 12.10382
807.10 12.04995
807.20 12.06067
807.30 12.16471
807.40 12.32516
807.50 12.44491
807.60 12.50237
807.70 12.52905
807.80 12.55977
807.90 12.6155
808.00 12.66012
808.10 12.68201
808.20 12.69938
808.30 12.71744
808.40 12.7777
808.50 12.86946
808.60 12.916
808.70 12.897
808.80 12.85059
808.90 12.83244
809.00 12.86492
809.10 12.91729
809.20 12.95986
809.30 12.9965
809.40 13.02082
809.50 13.01508
809.60 12.99442
809.70 12.96162
809.80 12.91802
809.90 12.91306
810.00 12.93806
810.10 12.94253
810.20 12.94045
810.30 12.93184
810.40 12.91847
810.50 12.91253
810.60 12.89868
810.70 12.89352
810.80 12.95108
810.90 13.08294
811.00 13.21118
811.10 13.25184
811.20 13.21933
811.30 13.20097
811.40 13.23757
811.50 13.2679
811.60 13.19655
811.70 13.00551
811.80 12.80041
811.90 12.73685
812.00 12.87558
812.10 13.12811
812.20 13.36862
812.30 13.49166
812.40 13.48209
812.50 13.44964
812.60 13.46238
812.70 13.52402
812.80 13.60512
812.90 13.65403
813.00 13.67651
813.10 13.67984
813.20 13.65245
813.30 13.62329
813.40 13.60158
813.50 13.57325
813.60 13.57255
813.70 13.6308
813.80 13.735
813.90 13.86668
814.00 13.96603
814.10 13.96337
814.20 13.84777
814.30 13.67113
814.40 13.50592
814.50 13.40485
814.60 13.41878
814.70 13.51976
814.80 13.57773
814.90 13.53414
815.00 13.43446
815.10 13.36965
815.20 13.42156
815.30 13.5536
815.40 13.64867
815.50 13.64171
815.60 13.56957
815.70 13.51611
815.80 13.50993
815.90 13.50795
816.00 13.45728
816.10 13.3897
816.20 13.3403
816.30 13.28063
816.40 13.26941
816.50 13.35373
816.60 13.48399
816.70 13.65072
816.80 13.79405
816.90 13.84038
817.00 13.80881
817.10 13.7264
817.20 13.65346
817.30 13.64155
817.40 13.65096
817.50 13.6398
817.60 13.59953
817.70 13.48908
817.80 13.28528
817.90 13.0725
818.00 12.88766
818.10 12.53229
818.20 11.79691
818.30 10.65292
818.40 9.353849
818.50 8.514158
818.60 8.570147
818.70 9.429258
818.80 10.62038
818.90 11.57245
819.00 12.04687
819.10 12.14546
819.20 11.96509
819.30 11.42318
819.40 10.40785
819.50 9.088914
819.60 7.988215
819.70 7.591271
819.80 8.01962
819.90 9.003699
820.00 10.05338
820.10 10.88434
820.20 11.51487
820.30 12.02646
820.40 12.41742
820.50 12.59998
820.60 12.5447
820.70 12.37028
820.80 12.24855
820.90 12.26012
821.00 12.40017
821.10 12.59515
821.20 12.76117
821.30 12.85648
821.40 12.85988
821.50 12.8185
821.60 12.80932
821.70 12.82447
821.80 12.83704
821.90 12.86302
822.00 12.88495
822.10 12.89174
822.20 12.92319
822.30 12.97878
822.40 13.04162
822.50 13.14508
822.60 13.27269
822.70 13.35087
822.80 13.36663
822.90 13.35095
823.00 13.36965
823.10 13.48504
823.20 13.61174
823.30 13.61184
823.40 13.4755
823.50 13.30114
823.60 13.22854
823.70 13.33104
823.80 13.50857
823.90 13.64807
824.00 13.79283
824.10 13.95572
824.20 14.03188
824.30 13.96811
824.40 13.8017
824.50 13.65888
824.60 13.67526
824.70 13.85144
824.80 14.12933
824.90 14.39011
825.00 14.48117
825.10 14.39126
825.20 14.18465
825.30 13.9236
825.40 13.70129
825.50 13.53524
825.60 13.36313
825.70 13.16495
825.80 13.01538
825.90 13.01375
826.00 13.16656
826.10 13.44905
826.20 13.77183
826.30 13.95955
826.40 14.01265
826.50 14.0419
826.60 14.07418
826.70 14.15599
826.80 14.26549
826.90 14.271
827.00 14.15049
827.10 13.95461
827.20 13.68724
827.30 13.37747
827.40 13.093
827.50 12.91116
827.60 12.88594
827.70 12.97423
827.80 13.13794
827.90 13.34376
828.00 13.46345
828.10 13.46803
828.20 13.38238
828.30 13.2104
828.40 13.09579
828.50 13.10426
828.60 13.13532
828.70 13.16557
828.80 13.2194
828.90 13.18921
829.00 12.96436
829.10 12.68402
829.20 12.52016
829.30 12.46114
829.40 12.46393
829.50 12.52666
829.60 12.64218
829.70 12.77796
829.80 12.90801
829.90 13.04227
830.00 12.93773
830.10 12.75078
830.20 12.56384
830.30 12.37437
830.40 12.1849
830.50 12.15491
830.60 12.12492
830.70 12.16159
830.80 12.19825
830.90 12.41873
831.00 12.63921
831.10 12.7192
831.20 12.79919
831.30 12.73431
831.40 12.66944
831.50 12.68461
831.60 12.69978
831.70 12.80526
831.80 12.91073
831.90 12.92161
832.00 12.9325
832.10 12.98704
832.20 13.04158
832.30 13.07509
832.40 13.10859
832.50 13.09603
832.60 13.08347
832.70 12.78785
832.80 12.49223
832.90 12.34879
833.00 12.20535
833.10 12.5116
833.20 12.81784
833.30 12.9273
833.40 13.03676
833.50 12.80315
833.60 12.56955
833.70 12.53056
833.80 12.49157
833.90 12.62651
834.00 12.76145
834.10 12.89004
834.20 13.01863
834.30 13.16175
834.40 13.30488
834.50 13.3352
834.60 13.36553
834.70 13.03867
834.80 12.71181
834.90 12.51408
835.00 12.31635
835.10 12.5276
835.20 12.73886
835.30 12.78982
835.40 12.84077
835.50 12.80605
835.60 12.77132
835.70 12.78436
835.80 12.79741
835.90 12.88609
836.00 12.97476
836.10 12.99415
836.20 13.01354
836.30 12.87174
836.40 12.72995
836.50 12.60804
836.60 12.48613
836.70 12.60297
836.80 12.71981
836.90 12.95228
837.00 13.18475
837.10 13.28416
837.20 13.38357
837.30 13.1927
837.40 13.00182
837.50 12.74363
837.60 12.48544
837.70 12.3193
837.80 12.15317
837.90 12.20333
838.00 12.25349
838.10 12.31994
838.20 12.38638
838.30 12.31428
838.40 12.24218
838.50 12.08882
838.60 11.93546
838.70 11.75052
838.80 11.56558
838.90 11.47612
839.00 11.38666
839.10 11.63657
839.20 11.88648
839.30 12.15838
839.40 12.43028
839.50 12.43672
839.60 12.44315
839.70 12.49367
839.80 12.54419
839.90 12.68462
840.00 12.82505
840.10 12.81001
840.20 12.90543
840.30 12.96874
840.40 13.00077
840.50 13.02302
840.60 13.04867
840.70 13.08685
840.80 13.13603
840.90 13.18472
841.00 13.21436
841.10 13.12689
841.20 12.9542
841.30 12.80038
841.40 12.73571
841.50 12.79725
841.60 13.04256
841.70 13.21129
841.80 13.25712
841.90 13.1868
842.00 13.01592
842.10 12.81627
842.20 12.67729
842.30 12.58015
842.40 12.55915
842.50 12.50399
842.60 12.38337
842.70 12.2398
842.80 12.22939
842.90 12.25587
843.00 12.34667
843.10 12.39327
843.20 12.2963
843.30 11.97479
843.40 11.41787
843.50 10.75404
843.60 10.11782
843.70 9.725313
843.80 9.760066
843.90 10.14189
844.00 10.5512
844.10 10.87303
844.20 11.00217
844.30 10.90069
844.40 10.62726
844.50 10.42269
844.60 10.24416
844.70 10.16977
844.80 10.23334
844.90 10.32529
845.00 10.42546
845.10 10.32656
845.20 10.04655
845.30 9.748004
845.40 9.490349
845.50 9.259732
845.60 9.097226
845.70 9.067994
845.80 9.093125
845.90 9.14255
846.00 9.250618
846.10 9.369388
846.20 9.449256
846.30 9.427557
846.40 9.36511
846.50 9.324688
846.60 9.283128
846.70 9.1676
846.80 9.047174
846.90 8.965933
847.00 8.924037
847.10 8.941883
847.20 9.067194
847.30 9.186721
847.40 9.213219
847.50 9.189071
847.60 9.19157
847.70 9.2363
847.80 9.321821
847.90 9.458665
848.00 9.54999
848.10 9.590732
848.20 9.579571
848.30 9.595638
848.40 9.669593
848.50 9.776562
848.60 9.856195
848.70 9.938229
848.80 10.00437
848.90 10.07783
849.00 10.17066
849.10 10.25997
849.20 10.35439
849.30 10.4216
849.40 10.42232
849.50 10.39121
849.60 10.30549
849.70 10.27657
849.80 10.34597
849.90 10.4336
850.00 10.44558
850.10 10.48903
850.20 10.38901
850.30 10.28636
850.40 10.17457
850.50 9.95849
850.60 9.678865
850.70 9.483768
850.80 9.333786
850.90 9.268499
851.00 9.361859
851.10 9.495448
851.20 9.592895
851.30 9.62607
851.40 9.588435
851.50 9.499517
851.60 9.364646
851.70 9.213461
851.80 9.130172
851.90 9.095813
852.00 9.077946
852.10 9.094578
852.20 9.160056
852.30 9.248923
852.40 9.416003
852.50 9.576641
852.60 9.686214
852.70 9.792981
852.80 9.8808
852.90 9.935221
853.00 9.900618
853.10 9.880003
853.20 9.922417
853.30 9.984252
853.40 10.033
853.50 10.07945
853.60 10.15207
853.70 10.27147
853.80 10.35292
853.90 10.33295
854.00 10.28755
854.10 10.35645
854.20 10.57429
854.30 10.76072
854.40 10.83085
854.50 10.87646
854.60 10.80553
854.70 10.73545
854.80 10.73036
854.90 10.77142
855.00 10.80081
855.10 10.85335
855.20 10.90095
855.30 10.97187
855.40 11.02855
855.50 11.03214
855.60 11.02728
855.70 11.04719
855.80 11.03941
855.90 10.91825
856.00 10.73663
856.10 10.58715
856.20 10.47926
856.30 10.43712
856.40 10.49745
856.50 10.65685
856.60 10.84484
856.70 11.07504
856.80 11.21424
856.90 11.19626
857.00 11.06202
857.10 10.93716
857.20 10.92742
857.30 10.93318
857.40 10.89021
857.50 10.89085
857.60 10.94185
857.70 11.03857
857.80 11.14574
857.90 11.18386
858.00 11.19347
858.10 11.19946
858.20 11.17897
858.30 11.11992
858.40 11.05322
858.50 11.06029
858.60 11.16728
858.70 11.26638
858.80 11.29641
858.90 11.32715
859.00 11.32568
859.10 11.28688
859.20 11.23562
859.30 11.17899
859.40 11.12352
859.50 11.14213
859.60 11.22827
859.70 11.33032
859.80 11.42947
859.90 11.49098
860.00 11.49784
860.10 11.48974
860.20 11.50562
860.30 11.52085
860.40 11.55648
860.50 11.62907
860.60 11.73675
860.70 11.83762
860.80 11.90682
860.90 11.88607
861.00 11.81508
861.10 11.74094
861.20 11.65413
861.30 11.56252
861.40 11.49007
861.50 11.4568
861.60 11.44231
861.70 11.40585
861.80 11.37948
861.90 11.43882
862.00 11.54003
862.10 11.62642
862.20 11.69252
862.30 11.67303
862.40 11.60417
862.50 11.58456
862.60 11.57269
862.70 11.56556
862.80 11.52505
862.90 11.47634
863.00 11.4429
863.10 11.42689
863.20 11.40158
863.30 11.44039
863.40 11.54859
863.50 11.64511
863.60 11.72109
863.70 11.79505
863.80 11.83839
863.90 11.82246
864.00 11.76983
864.10 11.74111
864.20 11.77949
864.30 11.84927
864.40 11.8789
864.50 11.8549
864.60 11.8445
864.70 11.79339
864.80 11.7331
864.90 11.68136
865.00 11.65098
865.10 11.66145
865.20 11.73113
865.30 11.8463
865.40 11.97827
865.50 12.03413
865.60 12.04293
865.70 12.05772
865.80 12.07546
865.90 12.06136
866.00 12.00487
866.10 11.89989
866.20 11.85717
866.30 11.89812
866.40 11.97904
866.50 12.0888
866.60 12.23168
866.70 12.29264
866.80 12.30041
866.90 12.30195
867.00 12.27136
867.10 12.24053
867.20 12.26314
867.30 12.32013
867.40 12.29057
867.50 12.23212
867.60 12.12445
867.70 12.07951
867.80 12.15183
867.90 12.27037
868.00 12.37429
868.10 12.41908
868.20 12.41805
868.30 12.35221
868.40 12.322
868.50 12.30398
868.60 12.26834
868.70 12.23248
868.80 12.15663
868.90 11.97724
869.00 11.73953
869.10 11.55211
869.20 11.45442
869.30 11.37145
869.40 11.28896
869.50 11.25137
869.60 11.23504
869.70 11.19884
869.80 11.25733
869.90 11.36354
870.00 11.48145
870.10 11.60078
870.20 11.72927
870.30 11.85629
870.40 11.9482
870.50 12.02552
870.60 12.07689
870.70 12.0858
870.80 12.02092
870.90 11.91099
871.00 11.77139
871.10 11.68449
871.20 11.61925
871.30 11.54593
871.40 11.52242
871.50 11.53208
871.60 11.50215
871.70 11.42741
871.80 11.38582
871.90 11.37925
872.00 11.48729
872.10 11.63087
872.20 11.74218
872.30 11.84421
872.40 11.95096
872.50 12.04409
872.60 12.10919
872.70 12.2193
872.80 12.44058
872.90 12.64133
873.00 12.70843
873.10 12.66097
873.20 12.5742
873.30 12.42276
873.40 12.24484
873.50 12.14943
873.60 12.1021
873.70 12.10183
873.80 12.14992
873.90 12.23103
874.00 12.30299
874.10 12.3989
874.20 12.56871
874.30 12.76945
874.40 13.01021
874.50 13.18931
874.60 13.1976
874.70 13.11607
874.80 13.02877
874.90 12.8616
875.00 12.76291
875.10 12.83317
875.20 12.98973
875.30 13.1139
875.40 13.25671
875.50 13.30952
875.60 13.26185
875.70 13.22008
875.80 13.26021
875.90 13.35197
876.00 13.47646
876.10 13.62112
876.20 13.66553
876.30 13.58031
876.40 13.53534
876.50 13.47001
876.60 13.26751
876.70 13.00035
876.80 12.8407
876.90 12.93797
877.00 13.20702
877.10 13.47207
877.20 13.70623
877.30 13.9166
877.40 14.09408
877.50 14.22202
877.60 14.2998
877.70 14.3128
877.80 14.2953
877.90 14.07405
878.00 13.78998
878.10 13.62481
878.20 13.59442
878.30 13.61982
878.40 13.74965
878.50 13.89357
878.60 13.97541
878.70 14.02141
878.80 14.04762
878.90 14.08218
879.00 14.12681
879.10 14.20206
879.20 14.2437
879.30 14.26962
879.40 14.32615
879.50 14.40581
879.60 14.48195
879.70 14.53817
879.80 14.64828
879.90 14.71505
880.00 14.57882
880.10 14.24056
880.20 13.78522
880.30 13.35592
880.40 13.08409
880.50 12.99872
880.60 12.96878
880.70 12.99063
880.80 13.11204
880.90 13.27695
881.00 13.50509
881.10 13.85352
881.20 14.23563
881.30 14.52534
881.40 14.76408
881.50 14.94528
881.60 15.05526
881.70 15.12015
881.80 15.21446
881.90 15.29849
882.00 15.26664
882.10 15.10148
882.20 14.82273
882.30 14.44634
882.40 14.01676
882.50 13.67564
882.60 13.48687
882.70 13.4459
882.80 13.54404
882.90 13.85201
883.00 14.19265
883.10 14.52055
883.20 14.81762
883.30 15.05882
883.40 15.19534
883.50 15.2442
883.60 15.27577
883.70 15.33616
883.80 15.3155
883.90 15.27844
884.00 15.25462
884.10 15.27132
884.20 15.3434
884.30 15.46422
884.40 15.41644
884.50 15.22903
884.60 14.98814
884.70 14.74969
884.80 14.57415
884.90 14.48415
885.00 14.49177
885.10 14.66202
885.20 14.91171
885.30 15.28612
885.40 15.67043
885.50 15.84515
885.60 15.82774
885.70 15.70088
885.80 15.34923
885.90 14.87317
886.00 14.31404
886.10 13.67522
886.20 13.10063
886.30 12.68598
886.40 12.45992
886.50 12.53667
886.60 12.78807
886.70 12.99373
886.80 13.11281
886.90 12.99652
887.00 12.68626
887.10 12.30463
887.20 11.85432
887.30 11.46336
887.40 11.37026
887.50 11.41655
887.60 11.5971
887.70 11.86906
887.80 12.16321
887.90 12.47497
888.00 12.76731
888.10 12.93116
888.20 12.99804
888.30 12.90141
888.40 12.74279
888.50 12.65957
888.60 12.59412
888.70 12.53057
888.80 12.62752
888.90 12.77431
889.00 12.92485
889.10 13.07692
889.20 13.21319
889.30 13.28121
889.40 13.24351
889.50 13.13718
889.60 13.04274
889.70 12.92365
889.80 12.78649
889.90 12.74382
890.00 12.83688
890.10 12.96196
890.20 13.20371
890.30 13.57917
890.40 13.85585
890.50 14.01359
890.60 14.03288
890.70 14.01678
890.80 14.01452
890.90 13.97515
891.00 13.89382
891.10 13.80075
891.20 13.69797
891.30 13.68699
891.40 13.77839
891.50 13.87916
891.60 14.02149
891.70 14.1327
891.80 14.16404
891.90 14.14032
892.00 14.10262
892.10 14.09377
892.20 14.0982
892.30 14.06746
892.40 14.0197
892.50 13.95418
892.60 13.92067
892.70 13.91616
892.80 13.91599
892.90 13.93917
893.00 14.02887
893.10 14.15156
893.20 14.35749
893.30 14.58663
893.40 14.76137
893.50 14.89785
893.60 14.86008
893.70 14.63059
893.80 14.30034
893.90 13.84823
894.00 13.44094
894.10 13.29094
894.20 13.21171
894.30 13.17921
894.40 13.21589
894.50 13.33373
894.60 13.4283
894.70 13.46027
894.80 13.56466
894.90 13.65607
895.00 13.65397
895.10 13.62212
895.20 13.62905
895.30 13.592
895.40 13.55585
895.50 13.62735
895.60 13.72759
895.70 13.82908
895.80 13.94708
895.90 14.06452
896.00 14.1144
896.10 14.12795
896.20 14.12069
896.30 14.06589
896.40 14.01045
896.50 13.96893
896.60 13.86287
896.70 13.71725
896.80 13.69559
896.90 13.7934
897.00 13.9034
897.10 14.05475
897.20 14.18367
897.30 14.23432
897.40 14.24022
897.50 14.27315
897.60 14.35842
897.70 14.48969
897.80 14.611
897.90 14.68785
898.00 14.67103
898.10 14.5626
898.20 14.49669
898.30 14.50821
898.40 14.56845
898.50 14.83047
898.60 15.11205
898.70 15.29343
898.80 15.35751
898.90 15.26745
899.00 15.06654
899.10 14.91088
899.20 14.81882
899.30 14.82785
899.40 14.90628
899.50 14.96708
899.60 14.96692
899.70 14.95282
899.80 14.89179
899.90 14.78785
900.00 14.61111
900.10 14.52161
900.20 14.55369
900.30 14.66219
900.40 14.92457
900.50 15.33287
900.60 15.67724
900.70 15.8572
900.80 15.7991
900.90 15.59086
901.00 15.32359
901.10 15.05538
901.20 14.92675
901.30 14.97596
901.40 15.11193
901.50 15.18338
901.60 15.19992
901.70 15.08643
901.80 14.87091
901.90 14.66927
902.00 14.54499
902.10 14.53023
902.20 14.46636
902.30 14.41739
902.40 14.39349
902.50 14.34326
902.60 14.26265
902.70 14.21787
902.80 14.16209
902.90 14.1264
903.00 14.20974
903.10 14.37147
903.20 14.58857
903.30 14.85965
903.40 15.10386
903.50 15.25259
903.60 15.38137
903.70 15.45674
903.80 15.5199
903.90 15.62489
904.00 15.71365
904.10 15.76721
904.20 15.81478
904.30 15.76452
904.40 15.62141
904.50 15.57778
904.60 15.5728
904.70 15.59506
904.80 15.71009
904.90 15.9054
905.00 16.04207
905.10 16.02994
905.20 15.83127
905.30 15.62239
905.40 15.4798
905.50 15.37446
905.60 15.27988
905.70 15.20662
905.80 15.24088
905.90 15.30326
906.00 15.32544
906.10 15.36292
906.20 15.41073
906.30 15.39931
906.40 15.41146
906.50 15.43203
906.60 15.36705
906.70 15.29031
906.80 15.2155
906.90 15.15208
907.00 15.14206
907.10 15.1521
907.20 15.1269
907.30 15.20056
907.40 15.30225
907.50 15.34727
907.60 15.41509
907.70 15.53709
907.80 15.67073
907.90 15.82559
908.00 16.04714
908.10 16.22016
908.20 16.24179
908.30 16.1709
908.40 16.10531
908.50 16.03833
908.60 15.93729
908.70 15.84708
908.80 15.65282
908.90 15.4088
909.00 15.20857
909.10 15.14721
909.20 15.24073
909.30 15.44106
909.40 15.67175
909.50 15.95182
909.60 16.18382
909.70 16.29285
909.80 16.36524
909.90 16.40556
910.00 16.39839
910.10 16.41084
910.20 16.51768
910.30 16.54946
910.40 16.48052
910.50 16.32698
910.60 16.13194
910.70 15.97136
910.80 15.87221
910.90 15.82179
911.00 15.89667
911.10 16.10656
911.20 16.30916
911.30 16.51275
911.40 16.66808
911.50 16.75646
911.60 16.72485
911.70 16.59658
911.80 16.4363
911.90 16.36108
912.00 16.3394
912.10 16.36493
912.20 16.45988
912.30 16.6154
912.40 16.71557
912.50 16.71028
912.60 16.67978
912.70 16.6117
912.80 16.54019
912.90 16.52505
913.00 16.58095
913.10 16.64263
913.20 16.70809
913.30 16.81988
913.40 16.92363
913.50 16.98124
913.60 17.00564
913.70 16.97241
913.80 16.80812
913.90 16.49977
914.00 16.13858
914.10 15.94742
914.20 16.0013
914.30 16.11316
914.40 16.24712
914.50 16.461
914.60 16.67474
914.70 16.77983
914.80 16.78432
914.90 16.66058
915.00 16.53785
915.10 16.49855
915.20 16.50632
915.30 16.54195
915.40 16.72698
915.50 16.8442
915.60 16.96786
915.70 17.18793
915.80 17.34095
915.90 17.365
916.00 17.33646
916.10 17.21569
916.20 17.08636
916.30 16.93827
916.40 16.80772
916.50 16.80962
916.60 16.91791
916.70 17.03574
916.80 17.17104
916.90 17.26337
917.00 17.24578
917.10 17.20067
917.20 17.15247
917.30 17.09521
917.40 17.05799
917.50 17.00892
917.60 16.94927
917.70 16.90088
917.80 16.911
917.90 16.94152
918.00 16.97842
918.10 17.05154
918.20 17.15732
918.30 17.26039
918.40 17.31093
918.50 17.19648
918.60 17.05879
918.70 16.9959
918.80 17.07012
918.90 17.24293
919.00 17.40669
919.10 17.62794
919.20 17.87196
919.30 17.82594
919.40 17.68693
919.50 17.5468
919.60 17.41009
919.70 17.30731
919.80 17.39377
919.90 17.56408
920.00 17.65681
920.10 17.70674
920.20 17.70466
920.30 17.6704
920.40 17.61131
920.50 17.5823
920.60 17.54769
920.70 17.42675
920.80 17.2402
920.90 16.92267
921.00 16.55614
921.10 16.3371
921.20 16.35327
921.30 16.53083
921.40 16.77534
921.50 16.97517
921.60 17.10702
921.70 17.12992
921.80 17.06806
921.90 16.99356
922.00 16.98757
922.10 16.90863
922.20 16.8423
922.30 16.78227
922.40 16.68921
922.50 16.64058
922.60 16.63171
922.70 16.60086
922.80 16.5977
922.90 16.56519
923.00 16.44108
923.10 16.2422
923.20 16.01284
923.30 15.78017
923.40 15.64195
923.50 15.6702
923.60 15.78481
923.70 15.87306
923.80 15.96779
923.90 16.05669
924.00 16.11072
924.10 16.21849
924.20 16.40633
924.30 16.52809
924.40 16.63381
924.50 16.71083
924.60 16.57604
924.70 16.3985
924.80 16.28361
924.90 16.1532
925.00 15.99007
925.10 15.91655
925.20 15.84688
925.30 15.81218
925.40 15.86227
925.50 16.01552
925.60 16.22636
925.70 16.37171
925.80 16.52747
925.90 16.69844
926.00 16.67093
926.10 16.5962
926.20 16.5309
926.30 16.46572
926.40 16.47117
926.50 16.56299
926.60 16.68678
926.70 16.87895
926.80 17.03988
926.90 17.08841
927.00 17.03369
927.10 16.90943
927.20 16.74483
927.30 16.64551
927.40 16.54098
927.50 16.38784
927.60 16.25062
927.70 16.11169
927.80 15.94811
927.90 15.78281
928.00 15.6715
928.10 15.65399
928.20 15.74129
928.30 15.91328
928.40 16.07108
928.50 16.15363
928.60 16.19348
928.70 16.21417
928.80 16.10784
928.90 15.90719
929.00 15.78948
929.10 15.65717
929.20 15.51752
929.30 15.45342
929.40 15.47739
929.50 15.53698
929.60 15.55433
929.70 15.55558
929.80 15.58579
929.90 15.522
930.00 15.44129
930.10 15.42285
930.20 15.41032
930.30 15.30135
930.40 15.23136
930.50 15.2864
930.60 15.32168
930.70 15.41711
930.80 15.60418
930.90 15.70321
931.00 15.74893
931.10 15.82003
931.20 15.93308
931.30 15.9838
931.40 16.02942
931.50 16.05158
931.60 15.99343
931.70 15.9851
931.80 15.89661
931.90 15.77068
932.00 15.64339
932.10 15.57351
932.20 15.55289
932.30 15.64885
932.40 15.74634
932.50 15.77909
932.60 15.71521
932.70 15.6146
932.80 15.5638
932.90 15.55137
933.00 15.5594
933.10 15.64147
933.20 15.69448
933.30 15.70277
933.40 15.62688
933.50 15.5652
933.60 15.5092
933.70 15.47733
933.80 15.48257
933.90 15.58787
934.00 15.70221
934.10 15.79591
934.20 15.936
934.30 16.0314
934.40 16.0222
934.50 15.81174
934.60 15.63758
934.70 15.5616
934.80 15.5497
934.90 15.50174
935.00 15.60814
935.10 15.71044
935.20 15.78595
935.30 15.72573
935.40 15.70464
935.50 15.65581
935.60 15.57097
935.70 15.49646
935.80 15.4439
935.90 15.44822
936.00 15.47295
936.10 15.5415
936.20 15.62161
936.30 15.72644
936.40 15.87567
936.50 15.90086
936.60 15.85991
936.70 15.78064
936.80 15.67345
936.90 15.46419
937.00 15.2295
937.10 14.9965
937.20 14.79107
937.30 14.71641
937.40 14.78371
937.50 14.97597
937.60 15.21205
937.70 15.44537
937.80 15.66015
937.90 15.84413
938.00 15.81599
938.10 15.72026
938.20 15.63224
938.30 15.63989
938.40 15.71399
938.50 15.80066
938.60 15.86369
938.70 15.91888
938.80 15.86196
938.90 15.80171
939.00 15.75503
939.10 15.77802
939.20 15.81784
939.30 15.87551
939.40 15.94517
939.50 15.97339
939.60 15.94591
939.70 15.8615
939.80 15.74502
939.90 15.6323
940.00 15.624
940.10 15.64117
940.20 15.61875
940.30 15.60597
940.40 15.67718
940.50 15.83406
940.60 15.99595
940.70 16.11664
940.80 16.2381
940.90 16.35574
941.00 16.39243
941.10 16.35566
941.20 16.30698
941.30 16.26207
941.40 16.13754
941.50 16.05462
941.60 16.00735
941.70 15.98823
941.80 15.87379
941.90 15.83568
942.00 15.85224
942.10 15.96461
942.20 16.04176
942.30 16.13653
942.40 16.22272
942.50 16.29882
942.60 16.35126
942.70 16.38174
942.80 16.38694
942.90 16.28493
943.00 16.23983
943.10 16.23623
943.20 16.24211
943.30 16.26428
943.40 16.40624
943.50 16.5617
943.60 16.68191
943.70 16.64638
943.80 16.54931
943.90 16.4031
944.00 16.19024
944.10 16.01284
944.20 15.83019
944.30 15.66785
944.40 15.53118
944.50 15.50402
944.60 15.53158
944.70 15.58089
944.80 15.60917
944.90 15.64449
945.00 15.7064
945.10 15.81679
945.20 15.94742
945.30 16.08366
945.40 16.18706
945.50 16.27804
945.60 16.26376
945.70 16.22793
945.80 16.18151
945.90 16.16828
946.00 16.1762
946.10 16.15931
946.20 16.14616
946.30 16.17075
946.40 16.22183
946.50 16.18948
946.60 16.13387
946.70 16.20851
946.80 16.33907
946.90 16.4241
947.00 16.44245
947.10 16.46464
947.20 16.52771
947.30 16.58078
947.40 16.61996
947.50 16.62527
947.60 16.65172
947.70 16.69375
947.80 16.75342
947.90 16.84168
948.00 16.9326
948.10 17.02472
948.20 17.07938
948.30 17.00272
948.40 16.92522
948.50 16.87877
948.60 16.95032
948.70 16.97503
948.80 16.97115
948.90 16.97427
949.00 17.03913
949.10 17.11351
949.20 17.14749
949.30 17.14651
949.40 17.13346
949.50 17.07159
949.60 16.97279
949.70 16.83914
949.80 16.83675
949.90 16.91315
950.00 17.0194
950.10 17.11194
950.20 17.03575
950.30 16.90996
950.40 16.78467
950.50 16.83858
950.60 16.884
950.70 16.92482
950.80 16.95579
950.90 17.0343
951.00 17.07881
951.10 17.08533
951.20 17.07885
951.30 17.10542
951.40 17.08828
951.50 17.02883
951.60 16.91603
951.70 16.86062
951.80 16.81951
951.90 16.79632
952.00 16.78904
952.10 16.83128
952.20 16.91047
952.30 16.99719
952.40 17.04352
952.50 17.1306
952.60 17.25305
952.70 17.38878
952.80 17.44504
952.90 17.44525
953.00 17.4276
953.10 17.41621
953.20 17.42884
953.30 17.39412
953.40 17.34633
953.50 17.30121
953.60 17.25303
953.70 17.1799
953.80 17.12831
953.90 17.09679
954.00 17.07701
954.10 17.05855
954.20 17.06053
954.30 17.07336
954.40 17.0766
954.50 17.04677
954.60 16.99638
954.70 16.88947
954.80 16.84027
954.90 16.84908
955.00 16.92399
955.10 17.09853
955.20 17.25643
955.30 17.37936
955.40 17.45952
955.50 17.53091
955.60 17.53726
955.70 17.51781
955.80 17.50342
955.90 17.58244
956.00 17.63858
956.10 17.68441
956.20 17.73829
956.30 17.68476
956.40 17.62377
956.50 17.61508
956.60 17.67642
956.70 17.58826
956.80 17.47596
956.90 17.4007
957.00 17.52713
957.10 17.60982
957.20 17.63943
957.30 17.5654
957.40 17.39381
957.50 17.23552
957.60 17.12235
957.70 17.04021
957.80 17.07843
957.90 17.17857
958.00 17.27732
958.10 17.23307
958.20 17.21865
958.30 17.23633
958.40 17.27592
958.50 17.25154
958.60 17.30782
958.70 17.33148
958.80 17.31493
958.90 17.22201
959.00 17.12456
959.10 17.00443
959.20 16.86529
959.30 16.85542
959.40 16.85944
959.50 16.80916
959.60 16.69548
959.70 16.6545
959.80 16.54537
959.90 16.37784
960.00 16.09579
960.10 15.98433
960.20 16.02737
960.30 16.22261
960.40 16.56479
960.50 16.85766
960.60 17.03993
960.70 17.14369
960.80 17.17844
960.90 17.14725
961.00 17.12995
961.10 17.16398
961.20 17.15942
961.30 17.11202
961.40 17.06476
961.50 17.03542
961.60 17.05816
961.70 17.15703
961.80 17.29898
961.90 17.43007
962.00 17.5397
962.10 17.60812
962.20 17.61738
962.30 17.56548
962.40 17.54521
962.50 17.57984
962.60 17.64916
962.70 17.65484
962.80 17.59455
962.90 17.53303
963.00 17.50417
963.10 17.46166
963.20 17.46746
963.30 17.46176
963.40 17.44889
963.50 17.41044
963.60 17.23585
963.70 16.91139
963.80 16.44298
963.90 15.97014
964.00 15.60795
964.10 15.45916
964.20 15.62426
964.30 16.04161
964.40 16.40448
964.50 16.6646
964.60 16.74716
964.70 16.58379
964.80 16.38472
964.90 16.20747
965.00 16.11155
965.10 16.2314
965.20 16.42232
965.30 16.63482
965.40 16.78725
965.50 16.93979
965.60 17.08675
965.70 17.23548
965.80 17.36405
965.90 17.45509
966.00 17.52429
966.10 17.60455
966.20 17.66586
966.30 17.69723
966.40 17.69763
966.50 17.65324
966.60 17.55528
966.70 17.50979
966.80 17.54159
966.90 17.57952
967.00 17.53377
967.10 17.44795
967.20 17.35374
967.30 17.28017
967.40 17.06766
967.50 16.78335
967.60 16.4755
967.70 16.23959
967.80 16.14616
967.90 16.25558
968.00 16.57579
968.10 17.01121
968.20 17.32375
968.30 17.51286
968.40 17.60523
968.50 17.51592
968.60 17.37155
968.70 17.1764
968.80 16.94402
968.90 16.68148
969.00 16.53773
969.10 16.50715
969.20 16.65702
969.30 16.96206
969.40 17.28174
969.50 17.55331
969.60 17.7262
969.70 17.88909
969.80 18.0084
969.90 18.07087
970.00 18.01558
970.10 17.93922
970.20 17.82312
970.30 17.65682
970.40 17.34823
970.50 17.02561
970.60 16.7401
970.70 16.48666
970.80 16.38864
970.90 16.52775
971.00 16.85134
971.10 17.24827
971.20 17.61141
971.30 17.90172
971.40 18.12282
971.50 18.23515
971.60 18.24761
971.70 18.17182
971.80 18.03717
971.90 17.8881
972.00 17.72141
972.10 17.60395
972.20 17.58448
972.30 17.66473
972.40 17.72289
972.50 17.73652
972.60 17.71535
972.70 17.51027
972.80 17.18064
972.90 16.81828
973.00 16.58708
973.10 16.54815
973.20 16.57695
973.30 16.63231
973.40 16.81308
973.50 16.9782
973.60 17.07814
973.70 17.12017
973.80 17.14068
973.90 17.15401
974.00 17.20099
974.10 17.28145
974.20 17.27398
974.30 17.17077
974.40 17.031
974.50 16.87255
974.60 16.77453
974.70 16.81763
974.80 16.92468
974.90 16.98615
975.00 17.05048
975.10 17.16175
975.20 17.31855
975.30 17.45119
975.40 17.46307
975.50 17.46993
975.60 17.47733
975.70 17.5368
975.80 17.57222
975.90 17.59873
976.00 17.58848
976.10 17.55449
976.20 17.51371
976.30 17.49839
976.40 17.50636
976.50 17.56592
976.60 17.6515
976.70 17.70971
976.80 17.72202
976.90 17.56687
977.00 17.35292
977.10 17.12024
977.20 16.90086
977.30 16.84767
977.40 16.97386
977.50 17.18605
977.60 17.35347
977.70 17.465
977.80 17.55641
977.90 17.61513
978.00 17.56942
978.10 17.40778
978.20 17.13852
978.30 16.76822
978.40 16.36548
978.50 16.09008
978.60 15.88892
978.70 15.69577
978.80 15.66793
978.90 15.84909
979.00 16.15345
979.10 16.52734
979.20 16.8446
979.30 17.17103
979.40 17.47474
979.50 17.73954
979.60 17.81165
979.70 17.87803
979.80 17.98002
979.90 18.05943
980.00 18.04005
980.10 18.00435
980.20 17.9802
980.30 17.96901
980.40 17.92924
980.50 17.88652
980.60 17.8456
980.70 17.80156
980.80 17.74596
980.90 17.71917
981.00 17.72673
981.10 17.77893
981.20 17.80438
981.30 17.7907
981.40 17.73275
981.50 17.58694
981.60 17.46781
981.70 17.42514
981.80 17.45714
981.90 17.46592
982.00 17.48224
982.10 17.49427
982.20 17.53283
982.30 17.54872
982.40 17.57155
982.50 17.60198
982.60 17.65461
982.70 17.67619
982.80 17.6615
982.90 17.61736
983.00 17.59324
983.10 17.54232
983.20 17.48639
983.30 17.42902
983.40 17.40279
983.50 17.36431
983.60 17.31346
983.70 17.25627
983.80 17.25099
983.90 17.31834
984.00 17.42441
984.10 17.51852
984.20 17.59403
984.30 17.66072
984.40 17.6993
984.50 17.68874
984.60 17.64503
984.70 17.65864
984.80 17.69599
984.90 17.72766
985.00 17.67621
985.10 17.61635
985.20 17.57959
985.30 17.54399
985.40 17.53412
985.50 17.59556
985.60 17.72438
985.70 17.81087
985.80 17.81802
985.90 17.79959
986.00 17.80163
986.10 17.78971
986.20 17.77253
986.30 17.76248
986.40 17.77735
986.50 17.78209
986.60 17.75889
986.70 17.71666
986.80 17.7273
986.90 17.67482
987.00 17.61514
987.10 17.58116
987.20 17.64468
987.30 17.69029
987.40 17.75449
987.50 17.82576
987.60 17.91415
987.70 17.8991
987.80 17.83473
987.90 17.74715
988.00 17.62473
988.10 17.55039
988.20 17.5652
988.30 17.6621
988.40 17.77002
988.50 17.8998
988.60 18.03001
988.70 18.15906
988.80 18.18216
988.90 18.1608
989.00 18.107
989.10 18.02703
989.20 17.9448
989.30 17.81821
989.40 17.63067
989.50 17.3884
989.60 16.94738
989.70 16.43769
989.80 15.95529
989.90 15.56484
990.00 15.25535
990.10 15.0216
990.20 14.85617
990.30 14.68345
990.40 14.37041
990.50 13.99317
990.60 13.60858
990.70 13.30233
990.80 13.07768
990.90 12.9793
991.00 13.00583
991.10 13.13167
991.20 13.2362
991.30 13.2833
991.40 13.25826
991.50 13.08173
991.60 12.92489
991.70 12.84947
991.80 12.91554
991.90 13.08416
992.00 13.31189
992.10 13.55219
992.20 13.76648
992.30 13.74573
992.40 13.64688
992.50 13.55569
992.60 13.52967
992.70 13.53415
992.80 13.64094
992.90 13.88109
993.00 14.23729
993.10 14.53875
993.20 14.75233
993.30 14.88866
993.40 14.76875
993.50 14.61909
993.60 14.56406
993.70 14.68138
993.80 14.92029
993.90 15.23654
994.00 15.5592
994.10 15.85822
994.20 15.94709
994.30 15.94278
994.40 15.88824
994.50 15.76294
994.60 15.69946
994.70 15.71606
994.80 15.79382
994.90 15.855
995.00 15.97316
995.10 16.13686
995.20 16.34285
995.30 16.50877
995.40 16.59472
995.50 16.57167
995.60 16.43884
995.70 16.25936
995.80 16.0745
995.90 15.91288
996.00 15.75878
996.10 15.71388
996.20 15.73948
996.30 15.8642
996.40 16.12523
996.50 16.44216
996.60 16.70365
996.70 16.86348
996.80 16.94401
996.90 16.60079
997.00 16.16211
997.10 15.74843
997.20 15.40814
997.30 15.13409
997.40 15.04331
997.50 15.1363
997.60 15.31224
997.70 15.55046
997.80 15.77621
997.90 15.96551
998.00 16.11428
998.10 16.25007
998.20 16.29648
998.30 16.2299
998.40 16.09255
998.50 15.92516
998.60 15.76149
998.70 15.61128
998.80 15.59718
998.90 15.62108
999.00 15.62515
999.10 15.6017
999.20 15.62033
999.30 15.7232
999.40 15.866
999.50 15.9395
999.60 15.93734
999.70 15.91667
999.80 15.91404
999.90 15.9594
1000.00 16.0308
1000.10 16.19017
1000.20 16.40974
1000.30 16.64387
1000.40 16.77366
1000.50 16.85799
1000.60 16.91481
1000.70 16.80788
1000.80 16.63791
1000.90 16.40471
1001.00 16.12805
1001.10 15.92403
1001.20 15.87774
1001.30 15.94032
1001.40 16.03909
1001.50 16.30831
1001.60 16.59442
1001.70 16.85608
1001.80 17.05937
1001.90 17.15425
1002.00 17.1053
1002.10 16.986
1002.20 16.8858
1002.30 16.91516
1002.40 16.96718
1002.50 17.00561
1002.60 17.03185
1002.70 17.06783
1002.80 17.00423
1002.90 16.86612
1003.00 16.7192
1003.10 16.665
1003.20 16.64165
1003.30 16.60803
1003.40 16.49773
1003.50 16.3626
1003.60 16.23707
1003.70 16.13245
1003.80 16.13695
1003.90 16.28359
1004.00 16.48857
1004.10 16.64915
1004.20 16.87097
1004.30 17.06619
1004.40 17.19814
1004.50 17.244
1004.60 17.30851
1004.70 17.27001
1004.80 17.15638
1004.90 17.01143
1005.00 16.70412
1005.10 16.35324
1005.20 16.00312
1005.30 15.69633
1005.40 15.38577
1005.50 15.19761
1005.60 15.12747
1005.70 15.13484
1005.80 15.28149
1005.90 15.4639
1006.00 15.63249
1006.10 15.76557
1006.20 15.90989
1006.30 16.00111
1006.40 16.02355
1006.50 16.06158
1006.60 16.2239
1006.70 16.44807
1006.80 16.65922
1006.90 16.848
1007.00 17.03179
1007.10 17.11795
1007.20 17.03604
1007.30 16.89598
1007.40 16.88246
1007.50 16.95641
1007.60 17.0436
1007.70 17.21337
1007.80 17.36294
1007.90 17.44053
1008.00 17.4058
1008.10 17.37049
1008.20 17.36179
1008.30 17.37347
1008.40 17.44209
1008.50 17.54249
1008.60 17.61278
1008.70 17.5851
1008.80 17.38418
1008.90 17.19404
1009.00 17.00804
1009.10 16.81346
1009.20 16.69146
1009.30 16.70926
1009.40 16.79226
1009.50 16.85633
1009.60 17.03114
1009.70 17.22213
1009.80 17.44014
1009.90 17.68236
1010.00 17.93928
1010.10 18.17671
1010.20 18.38087
1010.30 18.51506
1010.40 18.44766
1010.50 18.34151
1010.60 18.22925
1010.70 18.06689
1010.80 17.86248
1010.90 17.64394
1011.00 17.41443
1011.10 17.22701
1011.20 17.03786
1011.30 16.87092
1011.40 16.73457
1011.50 16.70073
1011.60 16.66118
1011.70 16.60677
1011.80 16.54833
1011.90 16.52276
1012.00 16.66306
1012.10 16.91417
1012.20 17.19813
1012.30 17.48563
1012.40 17.71204
1012.50 17.85222
1012.60 17.88282
1012.70 17.92187
1012.80 17.92571
1012.90 17.92856
1013.00 17.87168
1013.10 17.82127
1013.20 17.77302
1013.30 17.69227
1013.40 17.43615
1013.50 17.13635
1013.60 16.79552
1013.70 16.45727
1013.80 16.14879
1013.90 16.10906
1014.00 16.16928
1014.10 16.26873
1014.20 16.50077
1014.30 16.74201
1014.40 16.88865
1014.50 16.91087
1014.60 16.86702
1014.70 16.73293
1014.80 16.60035
1014.90 16.5374
1015.00 16.74478
1015.10 16.96882
1015.20 17.14111
1015.30 17.2972
1015.40 17.40703
1015.50 17.31029
1015.60 17.04895
1015.70 16.78479
1015.80 16.57615
1015.90 16.4519
1016.00 16.39111
1016.10 16.47833
1016.20 16.61373
1016.30 16.72072
1016.40 16.79394
1016.50 16.85563
1016.60 16.97416
1016.70 17.11265
1016.80 17.21042
1016.90 17.14409
1017.00 16.99321
1017.10 16.81664
1017.20 16.6504
1017.30 16.60573
1017.40 16.81969
1017.50 17.17716
1017.60 17.52999
1017.70 17.68522
1017.80 17.6889
1017.90 17.57188
1018.00 17.29703
1018.10 17.02885
1018.20 16.87101
1018.30 16.76508
1018.40 16.62571
1018.50 16.46409
1018.60 16.34495
1018.70 16.30254
1018.80 16.40636
1018.90 16.56037
1019.00 16.7732
1019.10 17.01068
1019.20 17.21595
1019.30 17.27842
1019.40 17.29026
1019.50 17.29707
1019.60 17.29628
1019.70 17.30284
1019.80 17.298
1019.90 17.26441
1020.00 17.19749
1020.10 17.11976
1020.20 17.05803
1020.30 17.013
1020.40 17.06339
1020.50 17.16025
1020.60 17.27997
1020.70 17.41466
1020.80 17.51707
1020.90 17.55618
1021.00 17.5405
1021.10 17.48938
1021.20 17.33255
1021.30 17.13219
1021.40 16.92835
1021.50 16.725
1021.60 16.59123
1021.70 16.48339
1021.80 16.37245
1021.90 16.19882
1022.00 16.08755
1022.10 16.05317
1022.20 16.10197
1022.30 16.3287
1022.40 16.57665
1022.50 16.81315
1022.60 17.016
1022.70 17.18044
1022.80 17.24
1022.90 17.24131
1023.00 17.21442
1023.10 17.12188
1023.20 17.02787
1023.30 16.974
1023.40 16.962
1023.50 16.97049
1023.60 17.07443
1023.70 17.2141
1023.80 17.35397
1023.90 17.41917
1024.00 17.4826
1024.10 17.57598
1024.20 17.67953
1024.30 17.79233
1024.40 17.77731
1024.50 17.6792
1024.60 17.59805
1024.70 17.51331
1024.80 17.4111
1024.90 17.27587
1025.00 17.14581
1025.10 17.01483
1025.20 16.85651
1025.30 16.69223
1025.40 16.55824
1025.50 16.59043
1025.60 16.67818
1025.70 16.71319
1025.80 16.62613
1025.90 16.49572
1026.00 16.31222
1026.10 16.04962
1026.20 15.77579
1026.30 15.67502
1026.40 15.71658
1026.50 15.8119
1026.60 16.13866
1026.70 16.45068
1026.80 16.73272
1026.90 17.00506
1027.00 17.25574
1027.10 17.33468
1027.20 17.30427
1027.30 17.26062
1027.40 17.09492
1027.50 16.90962
1027.60 16.73775
1027.70 16.64412
1027.80 16.57845
1027.90 16.53768
1028.00 16.48261
1028.10 16.41177
1028.20 16.24539
1028.30 16.06823
1028.40 15.92357
1028.50 15.95698
1028.60 16.05231
1028.70 16.2686
1028.80 16.60326
1028.90 16.92051
1029.00 17.02872
1029.10 17.03435
1029.20 17.06423
1029.30 17.00084
1029.40 16.92277
1029.50 16.88945
1029.60 16.91974
1029.70 16.9212
1029.80 16.8585
1029.90 16.76419
1030.00 16.68154
1030.10 16.61934
1030.20 16.61706
1030.30 16.6796
1030.40 16.8215
1030.50 16.93229
1030.60 17.07059
1030.70 17.19508
1030.80 17.29725
1030.90 17.22498
1031.00 17.1545
1031.10 17.15036
1031.20 17.23301
1031.30 17.28998
1031.40 17.33603
1031.50 17.36972
1031.60 17.38208
1031.70 17.24547
1031.80 17.0639
1031.90 16.91736
1032.00 16.87433
1032.10 16.84465
1032.20 16.78537
1032.30 16.69464
1032.40 16.61945
1032.50 16.581
1032.60 16.59788
1032.70 16.62406
1032.80 16.87573
1032.90 17.18831
1033.00 17.49026
1033.10 17.77033
1033.20 17.98922
1033.30 18.04129
1033.40 17.95105
1033.50 17.79718
1033.60 17.43366
1033.70 17.05561
1033.80 16.73288
1033.90 16.52266
1034.00 16.32924
1034.10 16.19033
1034.20 16.05927
1034.30 15.79315
1034.40 15.45397
1034.50 15.19463
1034.60 15.07341
1034.70 15.17985
1034.80 15.42015
1034.90 15.6858
1035.00 15.93179
1035.10 16.19715
1035.20 16.34681
1035.30 16.43911
1035.40 16.47895
1035.50 16.6168
1035.60 16.77128
1035.70 16.93825
1035.80 17.13186
1035.90 17.32625
1036.00 17.53248
1036.10 17.72301
1036.20 17.86279
1036.30 17.89978
1036.40 17.89817
1036.50 17.88288
1036.60 17.85288
1036.70 17.84461
1036.80 17.87007
1036.90 17.91684
1037.00 17.94642
1037.10 18.05768
1037.20 18.20424
1037.30 18.33825
1037.40 18.38074
1037.50 18.34735
1037.60 18.19957
1037.70 17.95256
1037.80 17.71758
1037.90 17.41588
1038.00 17.10099
1038.10 16.8035
1038.20 16.69461
1038.30 16.6541
1038.40 16.74145
1038.50 16.96956
1038.60 17.22139
1038.70 17.38424
1038.80 17.45876
1038.90 17.49125
1039.00 17.40206
1039.10 17.31384
1039.20 17.23221
1039.30 17.14884
1039.40 17.00744
1039.50 16.83918
1039.60 16.6608
1039.70 16.49339
1039.80 16.45839
1039.90 16.51187
1040.00 16.62872
1040.10 16.84431
1040.20 17.12091
1040.30 17.39046
1040.40 17.61967
1040.50 17.81663
1040.60 17.93846
1040.70 18.02193
1040.80 18.07835
1040.90 18.05609
1041.00 17.98208
1041.10 17.80316
1041.20 17.53736
1041.30 17.29429
1041.40 17.1618
1041.50 17.08838
1041.60 17.08114
1041.70 17.35808
1041.80 17.66343
1041.90 17.9185
1042.00 18.08879
1042.10 18.24371
1042.20 18.16147
1042.30 17.95308
1042.40 17.72665
1042.50 17.45239
1042.60 17.18241
1042.70 16.92736
1042.80 16.7085
1042.90 16.52461
1043.00 16.55132
1043.10 16.73929
1043.20 16.95725
1043.30 17.34477
1043.40 17.72759
1043.50 18.04056
1043.60 18.15385
1043.70 18.24151
1043.80 18.26262
1043.90 18.24099
1044.00 18.17018
1044.10 18.14148
1044.20 18.13782
1044.30 18.15052
1044.40 18.17839
1044.50 18.16848
1044.60 18.12723
1044.70 18.05702
1044.80 18.03313
1044.90 18.11976
1045.00 18.25049
1045.10 18.38232
1045.20 18.55912
1045.30 18.78456
1045.40 18.99029
1045.50 19.12251
1045.60 19.19091
1045.70 19.12816
1045.80 19.01016
1045.90 18.90227
1046.00 18.71574
1046.10 18.491
1046.20 18.2738
1046.30 18.11791
1046.40 17.94118
1046.50 17.79271
1046.60 17.63805
1046.70 17.49529
1046.80 17.32673
1046.90 17.15399
1047.00 16.99413
1047.10 16.91317
1047.20 16.87642
1047.30 16.91634
1047.40 17.02429
1047.50 17.20861
1047.60 17.34217
1047.70 17.4233
1047.80 17.44998
1047.90 17.41229
1048.00 17.36905
1048.10 17.37717
1048.20 17.45935
1048.30 17.54908
1048.40 17.68181
1048.50 17.80396
1048.60 17.90105
1048.70 17.87702
1048.80 17.86497
1048.90 17.86969
1049.00 17.89719
1049.10 17.92595
1049.20 17.97209
1049.30 18.00629
1049.40 18.00443
1049.50 17.82759
1049.60 17.59092
1049.70 17.3453
1049.80 17.11947
1049.90 17.00125
1050.00 17.09703
1050.10 17.32639
1050.20 17.57876
1050.30 17.75555
1050.40 17.86007
1050.50 17.9142
1050.60 17.88952
1050.70 17.84199
1050.80 17.79949
1050.90 17.76327
1051.00 17.692
1051.10 17.52514
1051.20 17.33507
1051.30 17.17333
1051.40 17.03779
1051.50 16.9175
1051.60 16.87881
1051.70 16.92872
1051.80 16.98918
1051.90 17.00906
1052.00 17.003
1052.10 16.99375
1052.20 17.01821
1052.30 17.07988
1052.40 17.20379
1052.50 17.39801
1052.60 17.6232
1052.70 17.82596
1052.80 17.99698
1052.90 18.13958
1053.00 18.12414
1053.10 18.03985
1053.20 17.94758
1053.30 17.88337
1053.40 17.85456
1053.50 17.88684
1053.60 17.92104
1053.70 17.93613
1053.80 17.85523
1053.90 17.78673
1054.00 17.75382
1054.10 17.78083
1054.20 17.79611
1054.30 17.83391
1054.40 17.8557
1054.50 17.85739
1054.60 17.70789
1054.70 17.53669
1054.80 17.40735
1054.90 17.38123
1055.00 17.39482
1055.10 17.51006
1055.20 17.71018
1055.30 17.84734
1055.40 17.83196
1055.50 17.74958
1055.60 17.66731
1055.70 17.48443
1055.80 17.28322
1055.90 17.09564
1056.00 16.92544
1056.10 16.83483
1056.20 16.82724
1056.30 16.8582
1056.40 16.84349
1056.50 16.87912
1056.60 16.9496
1056.70 17.02896
1056.80 17.07682
1056.90 17.09919
1057.00 17.10961
1057.10 17.13271
1057.20 17.18114
1057.30 17.28472
1057.40 17.38822
1057.50 17.47055
1057.60 17.53786
1057.70 17.60211
1057.80 17.6328
1057.90 17.64294
1058.00 17.67807
1058.10 17.73468
1058.20 17.75775
1058.30 17.71919
1058.40 17.55221
1058.50 17.35715
1058.60 17.15764
1058.70 16.96629
1058.80 16.85472
1058.90 16.86074
1059.00 16.93379
1059.10 17.02852
1059.20 17.1155
1059.30 17.18406
1059.40 17.27729
1059.50 17.41065
1059.60 17.50656
1059.70 17.54557
1059.80 17.5395
1059.90 17.53501
1060.00 17.44069
1060.10 17.34568
1060.20 17.28081
1060.30 17.2495
1060.40 17.23369
1060.50 17.18961
1060.60 17.1158
1060.70 16.99376
1060.80 16.87256
1060.90 16.78551
1061.00 16.75597
1061.10 16.83341
1061.20 16.93385
1061.30 17.05925
1061.40 17.21059
1061.50 17.4085
1061.60 17.51974
1061.70 17.54923
1061.80 17.51527
1061.90 17.39526
1062.00 17.29399
1062.10 17.21189
1062.20 17.17378
1062.30 17.15527
1062.40 17.21209
1062.50 17.31417
1062.60 17.43152
1062.70 17.63377
1062.80 17.82802
1062.90 17.97728
1063.00 18.04994
1063.10 18.06878
1063.20 18.00412
1063.30 17.91236
1063.40 17.85364
1063.50 17.86733
1063.60 17.86994
1063.70 17.88018
1063.80 17.9293
1063.90 17.97609
1064.00 18.03117
1064.10 18.0901
1064.20 18.16327
1064.30 18.145
1064.40 18.1208
1064.50 18.11339
1064.60 18.12898
1064.70 18.11528
1064.80 18.09601
1064.90 18.07333
1065.00 18.04268
1065.10 17.99453
1065.20 17.92811
1065.30 17.83482
1065.40 17.6512
1065.50 17.48912
1065.60 17.40207
1065.70 17.39221
1065.80 17.40013
1065.90 17.41014
1066.00 17.38405
1066.10 17.29206
1066.20 17.06185
1066.30 16.84062
1066.40 16.68668
1066.50 16.62836
1066.60 16.6494
1066.70 16.74654
1066.80 16.84999
1066.90 16.93744
1067.00 16.93627
1067.10 16.91446
1067.20 16.94526
1067.30 17.08281
1067.40 17.25313
1067.50 17.42469
1067.60 17.56968
1067.70 17.67916
1067.80 17.69794
1067.90 17.72946
1068.00 17.78718
1068.10 17.87478
1068.20 18.02148
1068.30 18.22448
1068.40 18.42739
1068.50 18.62171
1068.60 18.75585
1068.70 18.8309
1068.80 18.83245
1068.90 18.76932
1069.00 18.68602
1069.10 18.61988
1069.20 18.58013
1069.30 18.55418
1069.40 18.44767
1069.50 18.29295
1069.60 18.11474
1069.70 17.97371
1069.80 17.87461
1069.90 17.85158
1070.00 17.87227
1070.10 17.89052
1070.20 17.8397
1070.30 17.75255
1070.40 17.67435
1070.50 17.71722
1070.60 17.7885
1070.70 17.87865
1070.80 17.96768
1070.90 18.04416
1071.00 18.01488
1071.10 17.95353
1071.20 17.91651
1071.30 18.00649
1071.40 18.08915
1071.50 18.14137
1071.60 18.15371
1071.70 18.19254
1071.80 18.18308
1071.90 18.1609
1072.00 18.14749
1072.10 18.15295
1072.20 18.13553
1072.30 18.06363
1072.40 17.89745
1072.50 17.70857
1072.60 17.57785
1072.70 17.50254
1072.80 17.42297
1072.90 17.46978
1073.00 17.58936
1073.10 17.73774
1073.20 17.79243
1073.30 17.76663
1073.40 17.67629
1073.50 17.57701
1073.60 17.48855
1073.70 17.53633
1073.80 17.66668
1073.90 17.85303
1074.00 18.04172
1074.10 18.14967
1074.20 18.20197
1074.30 18.20314
1074.40 18.25711
1074.50 18.23531
1074.60 18.14692
1074.70 18.00608
1074.80 17.89724
1074.90 17.82445
1075.00 17.75005
1075.10 17.68564
1075.20 17.70087
1075.30 17.72659
1075.40 17.74589
1075.50 17.74525
1075.60 17.81457
1075.70 17.91804
1075.80 18.04451
1075.90 18.20716
1076.00 18.35068
1076.10 18.38852
1076.20 18.36003
1076.30 18.32948
1076.40 18.31278
1076.50 18.30589
1076.60 18.30038
1076.70 18.31881
1076.80 18.32267
1076.90 18.33771
1077.00 18.34359
1077.10 18.33868
1077.20 18.28247
1077.30 18.18548
1077.40 18.05865
1077.50 17.88797
1077.60 17.76877
1077.70 17.71709
1077.80 17.727
1077.90 17.74519
1078.00 17.82502
1078.10 17.91222
1078.20 17.97945
1078.30 17.96922
1078.40 17.96935
1078.50 17.99515
1078.60 18.02698
1078.70 18.0494
1078.80 17.99522
1078.90 17.9052
1079.00 17.81511
1079.10 17.74016
1079.20 17.67039
1079.30 17.60341
1079.40 17.54934
1079.50 17.50598
1079.60 17.55462
1079.70 17.67146
1079.80 17.79389
1079.90 17.88844
1080.00 17.94323
1080.10 17.96922
1080.20 17.98118
1080.30 18.05427
1080.40 18.12576
1080.50 18.18287
1080.60 18.19789
1080.70 18.25461
1080.80 18.3075
1080.90 18.34565
1081.00 18.32871
1081.10 18.31644
1081.20 18.30712
1081.30 18.30437
1081.40 18.3285
1081.50 18.3798
1081.60 18.43184
1081.70 18.46725
1081.80 18.469
1081.90 18.48775
1082.00 18.46451
1082.10 18.38585
1082.20 18.2534
1082.30 18.11405
1082.40 17.99576
1082.50 17.89772
1082.60 17.87973
1082.70 17.94271
1082.80 18.0637
1082.90 18.2194
1083.00 18.41293
1083.10 18.60359
1083.20 18.72604
1083.30 18.69616
1083.40 18.5802
1083.50 18.37872
1083.60 18.11785
1083.70 17.86379
1083.80 17.77575
1083.90 17.77678
1084.00 17.85867
1084.10 18.01541
1084.20 18.12484
1084.30 18.16226
1084.40 18.13478
1084.50 18.04259
1084.60 17.99257
1084.70 17.94167
1084.80 17.91249
1084.90 17.85572
1085.00 17.92611
1085.10 18.03749
1085.20 18.13765
1085.30 18.13985
1085.40 18.11945
1085.50 18.11441
1085.60 18.14867
1085.70 18.1826
1085.80 18.27022
1085.90 18.37239
1086.00 18.48727
1086.10 18.5767
1086.20 18.64715
1086.30 18.67457
1086.40 18.66022
1086.50 18.65765
1086.60 18.59456
1086.70 18.50852
1086.80 18.43225
1086.90 18.4592
1087.00 18.4963
1087.10 18.53588
1087.20 18.5783
1087.30 18.57899
1087.40 18.47286
1087.50 18.32452
1087.60 18.21943
1087.70 18.2174
1087.80 18.23097
1087.90 18.23821
1088.00 18.25164
1088.10 18.28882
1088.20 18.27664
1088.30 18.24565
1088.40 18.22029
1088.50 18.2548
1088.60 18.29948
1088.70 18.30948
1088.80 18.26155
1088.90 18.25883
1089.00 18.28722
1089.10 18.34713
1089.20 18.36248
1089.30 18.34682
1089.40 18.29188
1089.50 18.21072
1089.60 18.17831
1089.70 18.20035
1089.80 18.29116
1089.90 18.43079
1090.00 18.5479
1090.10 18.57868
1090.20 18.57218
1090.30 18.56585
1090.40 18.5536
1090.50 18.53157
1090.60 18.48077
1090.70 18.37878
1090.80 18.27397
1090.90 18.15305
1091.00 18.04447
1091.10 17.97887
1091.20 18.00628
1091.30 18.04906
1091.40 18.12693
1091.50 18.2891
1091.60 18.46612
1091.70 18.60988
1091.80 18.66897
1091.90 18.66564
1092.00 18.61222
1092.10 18.6053
1092.20 18.64739
1092.30 18.70356
1092.40 18.67697
1092.50 18.63126
1092.60 18.58117
1092.70 18.57903
1092.80 18.5916
1092.90 18.60653
1093.00 18.60615
1093.10 18.57358
1093.20 18.54102
1093.30 18.51884
1093.40 18.51218
1093.50 18.55382
1093.60 18.59323
1093.70 18.63242
1093.80 18.67408
1093.90 18.79118
1094.00 18.89933
1094.10 19.00887
1094.20 19.10197
1094.30 19.08675
1094.40 18.89309
1094.50 18.63772
1094.60 18.40692
1094.70 18.3445
1094.80 18.32073
1094.90 18.37559
1095.00 18.49759
1095.10 18.67258
1095.20 18.83895
1095.30 18.98798
1095.40 19.08939
1095.50 19.04299
1095.60 18.99199
1095.70 18.93404
1095.80 18.87108
1095.90 18.79111
1096.00 18.77531
1096.10 18.80343
1096.20 18.86996
1096.30 18.91334
1096.40 18.93629
1096.50 18.9357
1096.60 18.87751
1096.70 18.73487
1096.80 18.52299
1096.90 18.28082
1097.00 18.13567
1097.10 18.06382
1097.20 18.01185
1097.30 17.99061
1097.40 18.10812
1097.50 18.22564
1097.60 18.31304
1097.70 18.37363
1097.80 18.41477
1097.90 18.45177
1098.00 18.4947
1098.10 18.5372
1098.20 18.49254
1098.30 18.44229
1098.40 18.3948
1098.50 18.34428
1098.60 18.29406
1098.70 18.25444
1098.80 18.22585
1098.90 18.19054
1099.00 18.2186
1099.10 18.27388
1099.20 18.36375
1099.30 18.49649
1099.40 18.56081
1099.50 18.56011
1099.60 18.52697
1099.70 18.54953
1099.80 18.5505
1099.90 18.5231
1100.00 18.46664
1100.10 18.39909
1100.20 18.34514
1100.30 18.2722
1100.40 18.18296
1100.50 18.09822
1100.60 18.09052
1100.70 18.1087
1100.80 18.13132
1100.90 18.20505
1101.00 18.32135
1101.10 18.38349
1101.20 18.39074
1101.30 18.37953
1101.40 18.47072
1101.50 18.56439
1101.60 18.59708
1101.70 18.47821
1101.80 18.35576
1101.90 18.18911
1102.00 17.96221
1102.10 17.7266
1102.20 17.54153
1102.30 17.40395
1102.40 17.32359
1102.50 17.49484
1102.60 17.67013
1102.70 17.89252
1102.80 18.13922
1102.90 18.35577
1103.00 18.43095
1103.10 18.39118
1103.20 18.29455
1103.30 17.99426
1103.40 17.71155
1103.50 17.4846
1103.60 17.33951
1103.70 17.23812
1103.80 17.30382
1103.90 17.45243
1104.00 17.60879
1104.10 17.68791
1104.20 17.70733
1104.30 17.65301
1104.40 17.55615
1104.50 17.52045
1104.60 17.55163
1104.70 17.63433
1104.80 17.80707
1104.90 17.93005
1105.00 17.94092
1105.10 17.83061
1105.20 17.58701
1105.30 17.38343
1105.40 17.25585
1105.50 17.18414
1105.60 17.11226
1105.70 17.13155
1105.80 17.1808
1105.90 17.22678
1106.00 17.29118
1106.10 17.36121
1106.20 17.39251
1106.30 17.38749
1106.40 17.34492
1106.50 17.33132
1106.60 17.34827
1106.70 17.3948
1106.80 17.3173
1106.90 17.22472
1107.00 17.138
1107.10 17.11847
1107.20 17.14868
1107.30 17.2689
1107.40 17.39785
1107.50 17.46393
1107.60 17.43301
1107.70 17.44881
1107.80 17.51451
1107.90 17.62038
1108.00 17.6393
1108.10 17.66493
1108.20 17.71406
1108.30 17.80714
1108.40 17.87914
1108.50 17.91946
1108.60 17.92712
1108.70 17.91832
1108.80 17.9474
1108.90 17.95298
1109.00 17.95105
1109.10 17.95681
1109.20 17.98257
1109.30 18.00047
1109.40 17.99835
1109.50 18.02211
1109.60 18.0586
1109.70 18.08771
1109.80 18.10404
1109.90 18.1325
1110.00 18.07732
1110.10 18.01434
1110.20 17.96779
1110.30 17.87748
1110.40 17.74537
1110.50 17.64111
1110.60 17.59543
1110.70 17.52652
1110.80 17.54815
1110.90 17.59284
1111.00 17.63748
1111.10 17.57337
1111.20 17.50797
1111.30 17.45667
1111.40 17.40941
1111.50 17.29219
1111.60 17.20041
1111.70 17.17003
1111.80 17.21043
1111.90 17.24931
1112.00 17.25142
1112.10 17.23536
1112.20 17.22478
1112.30 17.23513
1112.40 17.29085
1112.50 17.39125
1112.60 17.54534
1112.70 17.72499
1112.80 17.85222
1112.90 17.92669
1113.00 17.96985
1113.10 17.96526
1113.20 17.90999
1113.30 17.86451
1113.40 17.89727
1113.50 17.88258
1113.60 17.85643
1113.70 17.845
1113.80 17.81967
1113.90 17.70924
1114.00 17.66958
1114.10 17.6959
1114.20 17.77731
1114.30 17.91926
1114.40 18.05452
1114.50 18.15074
1114.60 18.16721
1114.70 18.27187
1114.80 18.34659
1114.90 18.37007
1115.00 18.22127
1115.10 18.12589
1115.20 18.05297
1115.30 17.98853
1115.40 17.90807
1115.50 17.93141
1115.60 17.94481
1115.70 17.89061
1115.80 17.79908
1115.90 17.75994
1116.00 17.75566
1116.10 17.76723
1116.20 17.82532
1116.30 17.8574
1116.40 17.85836
1116.50 17.79901
1116.60 17.51389
1116.70 17.25873
1116.80 17.13221
1116.90 17.29065
1117.00 17.37548
1117.10 17.39204
1117.20 17.37472
1117.30 17.35269
1117.40 17.22246
1117.50 17.17726
1117.60 17.17915
1117.70 17.24731
1117.80 17.3291
1117.90 17.44807
1118.00 17.48653
1118.10 17.5583
1118.20 17.67577
1118.30 17.78883
1118.40 17.88556
1118.50 17.91913
1118.60 17.95225
1118.70 18.04117
1118.80 18.07464
1118.90 18.04039
1119.00 17.88545
1119.10 17.73356
1119.20 17.58251
1119.30 17.48893
1119.40 17.40912
1119.50 17.3605
1119.60 17.44647
1119.70 17.57196
1119.80 17.72277
1119.90 17.81863
1120.00 17.88418
1120.10 17.93005
1120.20 17.95207
1120.30 17.92032
1120.40 17.9003
1120.50 17.85679
1120.60 17.8886
1120.70 17.89843
1120.80 17.8845
1120.90 17.90894
1121.00 17.91823
1121.10 17.93441
1121.20 17.87616
1121.30 17.79838
1121.40 17.73905
1121.50 17.7123
1121.60 17.7375
1121.70 17.73233
1121.80 17.71926
1121.90 17.6598
1122.00 17.63423
1122.10 17.63443
1122.20 17.59034
1122.30 17.55525
1122.40 17.5101
1122.50 17.40596
1122.60 17.33295
1122.70 17.30925
1122.80 17.40124
1122.90 17.70693
1123.00 17.92717
1123.10 18.12648
1123.20 18.12784
1123.30 18.06706
1123.40 17.95423
1123.50 17.65554
1123.60 17.39999
1123.70 17.32259
1123.80 17.34945
1123.90 17.5138
1124.00 17.65291
1124.10 17.78749
1124.20 17.89748
1124.30 17.98487
1124.40 18.06151
1124.50 18.0406
1124.60 18.00491
1124.70 17.93082
1124.80 17.97049
1124.90 17.96605
1125.00 17.9113
1125.10 17.87035
1125.20 17.92023
1125.30 18.05244
1125.40 18.03724
1125.50 17.53516
1125.60 17.07199
1125.70 16.628
1125.80 17.04702
1125.90 17.41844
1126.00 17.75101
1126.10 17.79948
1126.20 17.73003
1126.30 17.67024
1126.40 17.64496
1126.50 17.6654
1126.60 17.7061
1126.70 17.7633
1126.80 17.85884
1126.90 17.93679
1127.00 18.00614
1127.10 18.02398
1127.20 18.03239
1127.30 18.00475
1127.40 17.88135
1127.50 17.71027
1127.60 17.54422
1127.70 17.43587
1127.80 17.39575
1127.90 17.40509
1128.00 17.4453
1128.10 17.56818
1128.20 17.683
1128.30 17.78818
1128.40 17.80215
1128.50 17.82219
1128.60 17.84604
1128.70 17.91212
1128.80 17.97353
1128.90 18.00122
1129.00 18.00409
1129.10 17.97734
1129.20 17.93982
1129.30 17.89224
1129.40 17.83408
1129.50 17.82519
1129.60 17.85139
1129.70 17.83898
1129.80 17.82902
1129.90 17.80943
1130.00 17.87187
1130.10 17.91581
1130.20 17.81323
1130.30 17.72864
1130.40 17.64533
1130.50 17.58569
1130.60 17.53113
1130.70 17.46848
1130.80 17.47046
1130.90 17.52291
1131.00 17.57609
1131.10 17.65599
1131.20 17.74896
1131.30 17.80365
1131.40 17.84188
1131.50 17.85231
1131.60 17.88152
1131.70 17.93533
1131.80 17.9684
1131.90 17.99646
1132.00 18.03289
1132.10 18.05087
1132.20 18.05838
1132.30 17.98445
1132.40 17.90922
1132.50 17.84754
1132.60 17.83392
1132.70 17.83173
1132.80 17.83444
1132.90 17.8661
1133.00 17.93918
1133.10 17.98319
1133.20 17.98109
1133.30 17.83414
1133.40 17.69246
1133.50 17.55609
1133.60 17.52661
1133.70 17.49714
1133.80 17.46666
1133.90 17.47481
1134.00 17.49949
1134.10 17.52166
1134.20 17.53404
1134.30 17.58005
1134.40 17.64879
1134.50 17.69877
1134.60 17.68971
1134.70 17.74339
1134.80 17.83494
1134.90 17.57405
1135.00 17.24701
1135.10 16.8244
1135.20 16.96822
1135.30 17.29475
1135.40 17.58307
1135.50 17.73568
1135.60 17.6434
1135.70 17.56689
1135.80 17.46773
1135.90 17.31247
1136.00 17.25044
1136.10 17.21842
1136.20 17.24252
1136.30 17.22935
1136.40 17.13996
1136.50 17.15254
1136.60 17.17759
1136.70 17.18633
1136.80 17.16051
1136.90 17.08096
1137.00 17.01646
1137.10 16.95645
1137.20 16.92663
1137.30 16.86319
1137.40 16.77136
1137.50 16.48578
1137.60 16.15349
1137.70 15.70813
1137.80 15.30088
1137.90 14.82492
1138.00 14.18086
1138.10 13.51321
1138.20 12.81482
1138.30 12.39928
1138.40 12.07579
1138.50 12.12656
1138.60 12.48568
1138.70 13.12923
1138.80 13.96129
1138.90 14.77541
1139.00 15.38914
1139.10 15.82909
1139.20 16.07802
1139.30 16.12693
1139.40 16.16984
1139.50 16.16727
1139.60 16.08605
1139.70 15.96493
1139.80 15.66737
1139.90 15.29082
1140.00 14.81969
1140.10 14.25994
1140.20 13.5825
1140.30 12.75499
1140.40 11.94898
1140.50 11.15637
1140.60 10.7686
1140.70 10.5242
1140.80 10.63569
1140.90 11.21111
1141.00 11.9499
1141.10 12.99612
1141.20 13.95728
1141.30 14.81723
1141.40 15.34095
1141.50 15.7856
1141.60 16.10817
1141.70 16.44508
1141.80 16.70954
1141.90 16.8778
1142.00 16.96029
1142.10 16.91549
1142.20 16.82985
1142.30 16.7481
1142.40 16.77831
1142.50 16.81897
1142.60 16.87959
1142.70 16.99042
1142.80 17.1163
1142.90 17.23014
1143.00 17.3396
1143.10 17.41802
1143.20 17.46886
1143.30 17.51938
1143.40 17.58048
1143.50 17.64426
1143.60 17.69383
1143.70 17.60988
1143.80 17.48198
1143.90 17.30532
1144.00 17.06947
1144.10 16.87214
1144.20 16.74636
1144.30 16.70775
1144.40 16.71688
1144.50 16.72973
1144.60 16.79266
1144.70 16.90999
1144.80 17.03844
1144.90 17.16123
1145.00 17.21601
1145.10 17.26838
1145.20 17.30638
1145.30 17.34924
1145.40 17.37446
1145.50 17.39417
1145.60 17.3916
1145.70 17.3742
1145.80 17.36258
1145.90 17.37143
1146.00 17.42528
1146.10 17.50897
1146.20 17.60238
1146.30 17.67099
1146.40 17.73711
1146.50 17.80102
1146.60 17.77374
1146.70 17.73277
1146.80 17.63003
1146.90 17.6054
1147.00 17.58573
1147.10 17.53787
1147.20 17.42602
1147.30 17.24271
1147.40 17.13305
1147.50 17.07835
1147.60 17.33177
1147.70 17.59206
1147.80 17.86024
1147.90 17.91287
1148.00 17.9231
1148.10 17.91299
1148.20 17.92778
1148.30 17.9388
1148.40 17.87686
1148.50 17.75459
1148.60 17.57196
1148.70 17.49098
1148.80 17.46173
1148.90 17.5086
1149.00 17.54779
1149.10 17.57533
1149.20 17.76516
1149.30 17.91028
1149.40 18.01067
1149.50 17.9252
1149.60 17.8015
1149.70 17.7277
1149.80 17.63604
1149.90 17.53215
1150.00 17.39976
1150.10 17.3243
1150.20 17.47699
1150.30 17.62156
1150.40 17.77527
1150.50 17.78227
1150.60 17.80421
1150.70 17.85517
1150.80 17.87035
1150.90 17.87813
1151.00 17.85887
1151.10 17.83889
1151.20 17.80173
1151.30 17.7471
1151.40 17.71434
1151.50 17.77579
1151.60 17.83431
1151.70 17.90092
1151.80 17.88705
1151.90 17.88646
1152.00 17.88987
1152.10 17.89574
1152.20 17.87549
1152.30 17.78604
1152.40 17.68887
1152.50 17.57468
1152.60 17.50946
1152.70 17.46272
1152.80 17.45101
1152.90 17.45428
1153.00 17.46439
1153.10 17.55104
1153.20 17.62503
1153.30 17.69578
1153.40 17.68722
1153.50 17.65247
1153.60 17.65803
1153.70 17.65853
1153.80 17.67399
1153.90 17.70464
1154.00 17.73234
1154.10 17.73414
1154.20 17.70146
1154.30 17.63766
1154.40 17.68381
1154.50 17.70081
1154.60 17.66989
1154.70 17.62854
1154.80 17.5721
1154.90 17.59256
1155.00 17.5888
1155.10 17.58063
1155.20 17.61078
1155.30 17.66567
1155.40 17.75503
1155.50 17.83828
1155.60 17.91301
1155.70 17.88712
1155.80 17.85888
1155.90 17.79978
1156.00 17.83815
1156.10 17.88301
1156.20 17.93426
1156.30 17.93174
1156.40 17.89011
1156.50 17.8597
1156.60 17.84285
1156.70 17.87365
1156.80 17.86238
1156.90 17.82579
1157.00 17.77979
1157.10 17.74392
1157.20 17.74448
1157.30 17.72569
1157.40 17.72413
1157.50 17.72663
1157.60 17.70161
1157.70 17.64906
1157.80 17.60398
1157.90 17.57885
1158.00 17.63911
1158.10 17.70138
1158.20 17.76356
1158.30 17.79303
1158.40 17.8047
1158.50 17.80494
1158.60 17.78534
1158.70 17.74851
1158.80 17.68706
1158.90 17.61977
1159.00 17.54521
1159.10 17.41353
1159.20 17.27948
1159.30 17.16256
1159.40 17.04359
1159.50 16.93262
1159.60 16.80769
1159.70 16.755
1159.80 16.80454
1159.90 16.88052
1160.00 16.99713
1160.10 17.12747
1160.20 17.24437
1160.30 17.3462
1160.40 17.38544
1160.50 17.37604
1160.60 17.26485
1160.70 17.02038
1160.80 16.71446
1160.90 16.43591
1161.00 16.21065
1161.10 16.12798
1161.20 16.18331
1161.30 16.36591
1161.40 16.68019
1161.50 16.98762
1161.60 17.29482
1161.70 17.46713
1161.80 17.62098
1161.90 17.73842
1162.00 17.7905
1162.10 17.81462
1162.20 17.69603
1162.30 17.60377
1162.40 17.54773
1162.50 17.53018
1162.60 17.54858
1162.70 17.58954
1162.80 17.65808
1162.90 17.75667
1163.00 17.84981
1163.10 17.92307
1163.20 17.94528
1163.30 17.92335
1163.40 17.88198
1163.50 17.78754
1163.60 17.63282
1163.70 17.39972
1163.80 17.12462
1163.90 16.84128
1164.00 16.63953
1164.10 16.53033
1164.20 16.5394
1164.30 16.74659
1164.40 16.9736
1164.50 17.23637
1164.60 17.43655
1164.70 17.59301
1164.80 17.66192
1164.90 17.68793
1165.00 17.6775
1165.10 17.66094
1165.20 17.61543
1165.30 17.5541
1165.40 17.50718
1165.50 17.46654
1165.60 17.46329
1165.70 17.45399
1165.80 17.45901
1165.90 17.51011
1166.00 17.5736
1166.10 17.64794
1166.20 17.71705
1166.30 17.78261
1166.40 17.84558
1166.50 17.8784
1166.60 17.88917
1166.70 17.8725
1166.80 17.82842
1166.90 17.73218
1167.00 17.66589
1167.10 17.64804
1167.20 17.64323
1167.30 17.6346
1167.40 17.58394
1167.50 17.53611
1167.60 17.49567
1167.70 17.46129
1167.80 17.43195
1167.90 17.42054
1168.00 17.41649
1168.10 17.41312
1168.20 17.35819
1168.30 17.30863
1168.40 17.25535
1168.50 17.11912
1168.60 16.95543
1168.70 16.71946
1168.80 16.31481
1168.90 15.72651
1169.00 15.03264
1169.10 14.34288
1169.20 13.89171
1169.30 13.57613
1169.40 13.5057
1169.50 14.02295
1169.60 14.58179
1169.70 15.24228
1169.80 15.83392
1169.90 16.37915
1170.00 16.80674
1170.10 17.09793
1170.20 17.29307
1170.30 17.43566
1170.40 17.51672
1170.50 17.53523
1170.60 17.57651
1170.70 17.60168
1170.80 17.58025
1170.90 17.56849
1171.00 17.5491
1171.10 17.52948
1171.20 17.51799
1171.30 17.54427
1171.40 17.57567
1171.50 17.60378
1171.60 17.60079
1171.70 17.57314
1171.80 17.51442
1171.90 17.45811
1172.00 17.40653
1172.10 17.38124
1172.20 17.35531
1172.30 17.33865
1172.40 17.34437
1172.50 17.35389
1172.60 17.36391
1172.70 17.39276
1172.80 17.44218
1172.90 17.48994
1173.00 17.53454
1173.10 17.56046
1173.20 17.61591
1173.30 17.65736
1173.40 17.64417
1173.50 17.61537
1173.60 17.56463
1173.70 17.52808
1173.80 17.47526
1173.90 17.40736
1174.00 17.37079
1174.10 17.34843
1174.20 17.37808
1174.30 17.41324
1174.40 17.45956
1174.50 17.54104
1174.60 17.61783
1174.70 17.64895
1174.80 17.67218
1174.90 17.67119
1175.00 17.64051
1175.10 17.60141
1175.20 17.55216
1175.30 17.51733
1175.40 17.48653
1175.50 17.48601
1175.60 17.50911
1175.70 17.5657
1175.80 17.585
1175.90 17.569
1176.00 17.50285
1176.10 17.45453
1176.20 17.40275
1176.30 17.32949
1176.40 17.25431
1176.50 17.19054
1176.60 17.01662
1176.70 16.77341
1176.80 16.3668
1176.90 15.76659
1177.00 14.97831
1177.10 14.12976
1177.20 13.24268
1177.30 12.5579
1177.40 12.00096
1177.50 11.65955
1177.60 12.00478
1177.70 12.48755
1177.80 13.1604
1177.90 13.95559
1178.00 14.77593
1178.10 15.38727
1178.20 15.84207
1178.30 16.11765
1178.40 16.28943
1178.50 16.38807
1178.60 16.43066
1178.70 16.55773
1178.80 16.71623
1178.90 16.85629
1179.00 17.00471
1179.10 17.1566
1179.20 17.24505
1179.30 17.30489
1179.40 17.25575
1179.50 17.18977
1179.60 17.11197
1179.70 17.03587
1179.80 16.96876
1179.90 16.9245
1180.00 16.97017
1180.10 17.06651
1180.20 17.19088
1180.30 17.28708
1180.40 17.34418
1180.50 17.36769
1180.60 17.37973
1180.70 17.36958
1180.80 17.33654
1180.90 17.29666
1181.00 17.26039
1181.10 17.22765
1181.20 17.19777
1181.30 17.19497
1181.40 17.20632
1181.50 17.21546
1181.60 17.1917
1181.70 17.14628
1181.80 17.13147
1181.90 17.1235
1182.00 17.10776
1182.10 17.09844
1182.20 17.09841
1182.30 17.14522
1182.40 17.14873
1182.50 17.09097
1182.60 16.97503
1182.70 16.80771
1182.80 16.60299
1182.90 16.41131
1183.00 16.24707
1183.10 16.21166
1183.20 16.23643
1183.30 16.37381
1183.40 16.51603
1183.50 16.65428
1183.60 16.7443
1183.70 16.79787
1183.80 16.8256
1183.90 16.85331
1184.00 16.90762
1184.10 17.05756
1184.20 17.17202
1184.30 17.27935
1184.40 17.32879
1184.50 17.36371
1184.60 17.36554
1184.70 17.28731
1184.80 17.1807
1184.90 17.06881
1185.00 16.97232
1185.10 16.91838
1185.20 16.91672
1185.30 16.95515
1185.40 17.05534
1185.50 17.12227
1185.60 17.18492
1185.70 17.21027
1185.80 17.22208
1185.90 17.21617
1186.00 17.21131
1186.10 17.21527
1186.20 17.25579
1186.30 17.29538
1186.40 17.32248
1186.50 17.30608
1186.60 17.25677
1186.70 17.17501
1186.80 17.12231
1186.90 17.07603
1187.00 17.0612
1187.10 17.05053
1187.20 17.05478
1187.30 17.09266
1187.40 17.13521
1187.50 17.12644
1187.60 17.10299
1187.70 17.05188
1187.80 17.04137
1187.90 16.98011
1188.00 16.82126
1188.10 16.53097
1188.20 16.14614
1188.30 15.63473
1188.40 15.16321
1188.50 14.75054
1188.60 14.6121
1188.70 14.602
1188.80 14.87183
1188.90 15.27192
1189.00 15.76946
1189.10 16.18147
1189.20 16.52066
1189.30 16.67633
1189.40 16.79556
1189.50 16.86424
1189.60 16.93422
1189.70 17.01958
1189.80 17.11207
1189.90 17.19919
1190.00 17.27208
1190.10 17.27358
1190.20 17.23665
1190.30 17.17761
1190.40 17.13691
1190.50 17.09289
1190.60 17.03843
1190.70 16.98434
1190.80 16.94206
1190.90 16.98372
1191.00 17.01732
1191.10 17.06778
1191.20 17.10272
1191.30 17.13264
1191.40 17.15439
1191.50 17.15811
1191.60 17.15273
1191.70 17.14982
1191.80 17.14605
1191.90 17.14949
1192.00 17.1628
1192.10 17.1874
1192.20 17.18647
1192.30 17.18118
1192.40 17.15503
1192.50 17.12359
1192.60 17.09064
1192.70 17.06342
1192.80 17.07071
1192.90 17.09603
1193.00 17.1282
1193.10 17.15911
1193.20 17.17986
1193.30 17.17011
1193.40 17.13707
1193.50 17.04806
1193.60 16.97781
1193.70 16.89369
1193.80 16.78852
1193.90 16.69347
1194.00 16.63336
1194.10 16.62583
1194.20 16.63627
1194.30 16.61255
1194.40 16.59358
1194.50 16.56309
1194.60 16.54456
1194.70 16.49132
1194.80 16.37333
1194.90 16.25449
1195.00 16.12254
1195.10 16.0923
1195.20 16.07278
1195.30 16.10411
1195.40 16.22356
1195.50 16.35605
1195.60 16.46803
1195.70 16.5189
1195.80 16.4923
1195.90 16.51563
1196.00 16.4921
1196.10 16.45177
1196.20 16.40329
1196.30 16.3563
1196.40 16.3504
1196.50 16.33185
1196.60 16.30747
1196.70 16.29946
1196.80 16.29361
1196.90 16.26341
1197.00 16.129
1197.10 15.91864
1197.20 15.56325
1197.30 15.16354
1197.40 14.73768
1197.50 14.40493
1197.60 14.1506
1197.70 14.22397
1197.80 14.3611
1197.90 14.63317
1198.00 14.93791
1198.10 15.22766
1198.20 15.45966
1198.30 15.66085
1198.40 15.84909
1198.50 15.95283
1198.60 16.05203
1198.70 16.107
1198.80 16.16309
1198.90 16.16152
1199.00 16.02942
1199.10 15.9341
1199.20 15.84829
1199.30 15.81887
1199.40 15.78809
1199.50 15.75592
1199.60 15.77773
1199.70 15.81887
1199.80 15.84332
1199.90 15.86462
1200.00 15.86473
