# Version 2.1 - nm, norm@500 to 1, cut digits
# Wavelength(nm)  Flambda(ergs/cm^s/s/nm)
300.00 0.008669125
300.10 0.01153098
300.20 0.01327009
300.30 0.0139844
300.40 0.01416664
300.50 0.01421707
300.60 0.01426927
300.70 0.01432329
300.80 0.01438091
300.90 0.01444613
301.00 0.01452347
301.10 0.01461497
301.20 0.01471847
301.30 0.01482917
301.40 0.01494268
301.50 0.01505673
301.60 0.01517077
301.70 0.01528479
301.80 0.01539881
301.90 0.01551283
302.00 0.01562685
302.10 0.01574086
302.20 0.01585488
302.30 0.0159689
302.40 0.01608291
302.50 0.01619691
302.60 0.0163109
302.70 0.0164253
302.80 0.01654183
302.90 0.01666383
303.00 0.01679495
303.10 0.01693681
303.20 0.01708779
303.30 0.01724423
303.40 0.0174028
303.50 0.01756179
303.60 0.01772077
303.70 0.01787973
303.80 0.01803869
303.90 0.01819766
304.00 0.01835662
304.10 0.01851558
304.20 0.01867454
304.30 0.0188335
304.40 0.01899248
304.50 0.01915149
304.60 0.01931054
304.70 0.01946832
304.80 0.01961958
304.90 0.01975412
305.00 0.01986078
305.10 0.01993458
305.20 0.01998049
305.30 0.0200097
305.40 0.02003237
305.50 0.02005378
305.60 0.02007524
305.70 0.02009672
305.80 0.02011821
305.90 0.02013971
306.00 0.02016121
306.10 0.0201827
306.20 0.0202042
306.30 0.0202257
306.40 0.0202472
306.50 0.0202687
306.60 0.0202902
306.70 0.0203117
306.80 0.02033322
306.90 0.02035477
307.00 0.02037638
307.10 0.02039807
307.20 0.02041981
307.30 0.02044159
307.40 0.02046339
307.50 0.02048518
307.60 0.02050698
307.70 0.02052878
307.80 0.02055058
307.90 0.02057237
308.00 0.02059417
308.10 0.02061597
308.20 0.02063776
308.30 0.02065955
308.40 0.0206813
308.50 0.02070298
308.60 0.02072456
308.70 0.02074929
308.80 0.02079038
308.90 0.02087327
309.00 0.02102597
309.10 0.0212609
309.20 0.02156563
309.30 0.02191217
309.40 0.02227506
309.50 0.02264111
309.60 0.02300705
309.70 0.02337292
309.80 0.02373877
309.90 0.0241046
310.00 0.02447042
310.10 0.02483625
310.20 0.02520208
310.30 0.02556793
310.40 0.0259338
310.50 0.02629974
310.60 0.02666579
310.70 0.02702867
310.80 0.02737511
310.90 0.02767951
311.00 0.02791375
311.10 0.02806533
311.20 0.02814673
311.30 0.02818611
311.40 0.02820905
311.50 0.02822881
311.60 0.02824868
311.70 0.02826862
311.80 0.02828859
311.90 0.02830857
312.00 0.02832855
312.10 0.02834854
312.20 0.02836852
312.30 0.02838849
312.40 0.02840841
312.50 0.02842826
312.60 0.02844797
312.70 0.0284716
312.80 0.02851553
312.90 0.02861138
313.00 0.02879388
313.10 0.02907848
313.20 0.02944974
313.30 0.02987291
313.40 0.03031639
313.50 0.03076378
313.60 0.03121104
313.70 0.03165822
313.80 0.03210536
313.90 0.03255248
314.00 0.0329996
314.10 0.03344672
314.20 0.03389384
314.30 0.03434095
314.40 0.03478802
314.50 0.03523505
314.60 0.03568197
314.70 0.03613163
314.80 0.03659542
314.90 0.03709535
315.00 0.0376556
315.10 0.03828691
315.20 0.03897855
315.30 0.03970633
315.40 0.04044824
315.50 0.04119288
315.60 0.04193742
315.70 0.04268191
315.80 0.04342637
315.90 0.04417082
316.00 0.04491526
316.10 0.04565971
316.20 0.04640416
316.30 0.04714866
316.40 0.04789326
316.50 0.04863806
316.60 0.04938321
316.70 0.05011833
316.80 0.0508015
316.90 0.05135184
317.00 0.05168045
317.10 0.05174782
317.20 0.05159345
317.30 0.05130625
317.40 0.0509671
317.50 0.05061792
317.60 0.05026909
317.70 0.04992047
317.80 0.04957194
317.90 0.04922346
318.00 0.04887498
318.10 0.04852651
318.20 0.04817803
318.30 0.04782951
318.40 0.04748092
318.50 0.04713218
318.60 0.04678316
318.70 0.04644183
318.80 0.04614026
318.90 0.04594037
319.00 0.04591022
319.10 0.04608004
319.20 0.0464196
319.30 0.04686084
319.40 0.04734184
319.50 0.04783053
319.60 0.04831895
319.70 0.04880721
319.80 0.04929539
319.90 0.04978354
320.00 0.05027169
320.10 0.05075983
320.20 0.05124798
320.30 0.05173614
320.40 0.05222433
320.50 0.05271257
320.60 0.05320092
320.70 0.05368642
320.80 0.05415722
320.90 0.05459041
321.00 0.05496082
321.10 0.05525727
321.20 0.05549095
321.30 0.05568702
321.40 0.05586838
321.50 0.0560469
321.60 0.05622552
321.70 0.0564042
321.80 0.0565829
321.90 0.05676162
322.00 0.05694034
322.10 0.05711906
322.20 0.05729778
322.30 0.05747644
322.40 0.05765501
322.50 0.05783336
322.60 0.05801135
322.70 0.05819972
322.80 0.05844181
322.90 0.05882126
323.00 0.05943001
323.10 0.06030892
323.20 0.06141713
323.30 0.0626627
323.40 0.063962
323.50 0.06527166
323.60 0.06658097
323.70 0.06789007
323.80 0.06919906
323.90 0.07050801
324.00 0.07181695
324.10 0.07312589
324.20 0.07443483
324.30 0.07574378
324.40 0.07705275
324.50 0.07836175
324.60 0.0796708
324.70 0.08097818
324.80 0.08227682
324.90 0.08355316
325.00 0.08479224
325.10 0.08598744
325.20 0.0871454
325.30 0.08828104
325.40 0.08940795
325.50 0.09053318
325.60 0.09165846
325.70 0.09278379
325.80 0.09390912
325.90 0.09503447
326.00 0.09615981
326.10 0.09728516
326.20 0.0984105
326.30 0.09953583
326.40 0.1006611
326.50 0.1017863
326.60 0.1029114
326.70 0.1040402
326.80 0.1051877
326.90 0.1063833
327.00 0.1076592
327.10 0.1090297
327.20 0.1104805
327.30 0.1119793
327.40 0.113497
327.50 0.1150183
327.60 0.1165395
327.70 0.1180606
327.80 0.1195817
327.90 0.1211027
328.00 0.1226238
328.10 0.1241448
328.20 0.1256659
328.30 0.127187
328.40 0.1287084
328.50 0.1302302
328.60 0.1317528
328.70 0.133254
328.80 0.1346449
328.90 0.1357536
329.00 0.1363912
329.10 0.1364739
329.20 0.1360856
329.30 0.1354151
329.40 0.1346342
329.50 0.133832
329.60 0.1330306
329.70 0.1322296
329.80 0.1314288
329.90 0.1306281
330.00 0.1298274
330.10 0.1290267
330.20 0.128226
330.30 0.1274253
330.40 0.1266243
330.50 0.1258231
330.60 0.1250213
330.70 0.1242353
330.80 0.1235312
330.90 0.1230364
331.00 0.122891
331.10 0.1231573
331.20 0.123773
331.30 0.124598
331.40 0.1255049
331.50 0.1264276
331.60 0.1273498
331.70 0.1282716
331.80 0.1291933
331.90 0.1301149
332.00 0.1310365
332.10 0.1319581
332.20 0.1328797
332.30 0.1338014
332.40 0.1347231
332.50 0.135645
332.60 0.1365673
332.70 0.1374796
332.80 0.1383401
332.90 0.139068
333.00 0.1395747
333.10 0.1398208
333.20 0.1398456
333.30 0.1397379
333.40 0.1395783
333.50 0.1394087
333.60 0.1392395
333.70 0.1390705
333.80 0.1389016
333.90 0.1387327
334.00 0.1385639
334.10 0.1383949
334.20 0.1382256
334.30 0.1380558
334.40 0.1378856
334.50 0.137715
334.60 0.1376858
334.70 0.138118
334.80 0.1391344
334.90 0.1401639
335.00 0.1401209
335.10 0.138708
335.20 0.1376314
335.30 0.1400819
335.40 0.1482799
335.50 0.1609708
335.60 0.1732901
335.70 0.1795937
335.80 0.1771005
335.90 0.1672698
336.00 0.1542443
336.10 0.1422873
336.20 0.1343707
336.30 0.1317372
336.40 0.1333731
336.50 0.1361321
336.60 0.1366206
336.70 0.1340117
336.80 0.1310994
336.90 0.1321071
337.00 0.1390719
337.10 0.1498598
337.20 0.1593885
337.30 0.1631209
337.40 0.160251
337.50 0.1542072
337.60 0.1500308
337.70 0.1506361
337.80 0.1550995
337.90 0.1603521
338.00 0.1640484
338.10 0.165544
338.20 0.1644989
338.30 0.1597967
338.40 0.1510551
338.50 0.1408591
338.60 0.1343609
338.70 0.1355758
338.80 0.1436334
338.90 0.1530555
339.00 0.1581573
339.10 0.1577037
339.20 0.1556708
339.30 0.1573374
339.40 0.164426
339.50 0.1739876
339.60 0.1815936
339.70 0.1850577
339.80 0.1849957
339.90 0.1826304
340.00 0.1784484
340.10 0.172951
340.20 0.1672981
340.30 0.1623691
340.40 0.1575673
340.50 0.1514424
340.60 0.1436427
340.70 0.1357221
340.80 0.1299067
340.90 0.1274624
341.00 0.1283039
341.10 0.1316581
341.20 0.1366352
341.30 0.14219
341.40 0.1470907
341.50 0.1503961
341.60 0.1520152
341.70 0.1527484
341.80 0.1536799
341.90 0.155378
342.00 0.1573913
342.10 0.1583373
342.20 0.1567431
342.30 0.1522831
342.40 0.1464458
342.50 0.1417793
342.60 0.1401781
342.70 0.1417014
342.80 0.14482
342.90 0.1476237
343.00 0.1489964
343.10 0.1491176
343.20 0.149046
343.30 0.1496916
343.40 0.1510228
343.50 0.1522543
343.60 0.1526786
343.70 0.1521011
343.80 0.150672
343.90 0.1487456
344.00 0.1469693
344.10 0.1460926
344.20 0.1463105
344.30 0.1469339
344.40 0.1469936
344.50 0.1461676
344.60 0.1450414
344.70 0.1445947
344.80 0.1455763
344.90 0.1482509
345.00 0.1524792
345.10 0.1578236
345.20 0.1635709
345.30 0.1687328
345.40 0.1722047
345.50 0.1732978
345.60 0.1723155
345.70 0.1705031
345.80 0.1691961
345.90 0.1688865
346.00 0.1690024
346.10 0.1684075
346.20 0.166194
346.30 0.1623963
346.40 0.1582201
346.50 0.1553411
346.60 0.1545723
346.70 0.1551572
346.80 0.1554729
346.90 0.1543513
347.00 0.1516806
347.10 0.148182
347.20 0.1450524
347.30 0.1436264
347.40 0.1447526
347.50 0.1481244
347.60 0.1524229
347.70 0.1563306
347.80 0.1594143
347.90 0.1621099
348.00 0.1650381
348.10 0.168311
348.20 0.1713099
348.30 0.1730941
348.40 0.1731647
348.50 0.1719009
348.60 0.1701695
348.70 0.1685337
348.80 0.1669878
348.90 0.165349
349.00 0.1636251
349.10 0.1619695
349.20 0.1605195
349.30 0.159473
349.40 0.1591855
349.50 0.1598835
349.60 0.1612207
349.70 0.1623299
349.80 0.1625902
349.90 0.1624995
350.00 0.163615
350.10 0.1673271
350.20 0.1735272
350.30 0.180468
350.40 0.1859571
350.50 0.1887439
350.60 0.1889318
350.70 0.1873916
350.80 0.1850216
350.90 0.1823236
351.00 0.1792073
351.10 0.1750326
351.20 0.1691081
351.30 0.1615778
351.40 0.1539058
351.50 0.1481712
351.60 0.1455944
351.70 0.1456754
351.80 0.1467743
351.90 0.147478
352.00 0.1473897
352.10 0.1467962
352.20 0.1460307
352.30 0.1453813
352.40 0.145468
352.50 0.1474273
352.60 0.1522891
352.70 0.1599113
352.80 0.1685731
352.90 0.1759362
353.00 0.180767
353.10 0.1837264
353.20 0.1863576
353.30 0.1895158
353.40 0.1929916
353.50 0.1963651
353.60 0.1997216
353.70 0.2033843
353.80 0.2073489
353.90 0.2112619
354.00 0.2146607
354.10 0.2169436
354.20 0.217384
354.30 0.2156909
354.40 0.2126376
354.50 0.2097989
354.60 0.2083738
354.70 0.2083006
354.80 0.2085893
354.90 0.2083602
355.00 0.207449
355.10 0.2062094
355.20 0.2050178
355.30 0.2040488
355.40 0.2033869
355.50 0.2030692
355.60 0.2028904
355.70 0.2022742
355.80 0.2005425
355.90 0.1974789
356.00 0.1935869
356.10 0.18968
356.20 0.1861844
356.30 0.1827982
356.40 0.1788211
356.50 0.1739146
356.60 0.1686548
356.70 0.1643269
356.80 0.1620282
356.90 0.1618577
357.00 0.1629241
357.10 0.1640357
357.20 0.1643239
357.30 0.163419
357.40 0.1613419
357.50 0.1583857
357.60 0.155031
357.70 0.1517773
357.80 0.1489396
357.90 0.1465774
358.00 0.1446713
358.10 0.1434296
358.20 0.1433704
358.30 0.1449814
358.40 0.1482313
358.50 0.1523929
358.60 0.156325
358.70 0.1589616
358.80 0.1597557
358.90 0.1589443
359.00 0.1575654
359.10 0.1570686
359.20 0.1585173
359.30 0.1618468
359.40 0.1657793
359.50 0.1686239
359.60 0.1694235
359.70 0.1685489
359.80 0.16728
359.90 0.1667239
360.00 0.1669365
360.10 0.1669237
360.20 0.1654896
360.30 0.1621966
360.40 0.1577313
360.50 0.1535614
360.60 0.1512544
360.70 0.1518537
360.80 0.1554076
360.90 0.1608601
361.00 0.1665699
361.10 0.1712449
361.20 0.1745553
361.30 0.1768785
361.40 0.1785409
361.50 0.179472
361.60 0.1796538
361.70 0.1796081
361.80 0.1801126
361.90 0.181411
362.00 0.1829211
362.10 0.1838447
362.20 0.1839013
362.30 0.1834079
362.40 0.1828956
362.50 0.1828079
362.60 0.1832925
362.70 0.1839467
362.80 0.1838886
362.90 0.182459
363.00 0.1799885
363.10 0.1776997
363.20 0.1767215
363.30 0.1772475
363.40 0.1786182
363.50 0.1800118
363.60 0.1809733
363.70 0.1814589
363.80 0.1815622
363.90 0.1812462
364.00 0.1802757
364.10 0.1783815
364.20 0.1755323
364.30 0.1720863
364.40 0.168716
364.50 0.1661886
364.60 0.1650693
364.70 0.1654053
364.80 0.1666575
364.90 0.1681081
365.00 0.1695163
365.10 0.1713624
365.20 0.174257
365.30 0.1780341
365.40 0.1815303
365.50 0.1833903
365.60 0.183186
365.70 0.1817405
365.80 0.1803351
365.90 0.1796689
366.00 0.1795969
366.10 0.1797151
366.20 0.1799955
366.30 0.180731
366.40 0.1819983
366.50 0.1833629
366.60 0.1841071
366.70 0.1836944
366.80 0.1820488
366.90 0.1795143
367.00 0.1766747
367.10 0.1741931
367.20 0.172672
367.30 0.1724983
367.40 0.1736757
367.50 0.1757906
367.60 0.1782143
367.70 0.18043
367.80 0.1822476
367.90 0.183769
368.00 0.1851744
368.10 0.1865068
368.20 0.1875959
368.30 0.1881416
368.40 0.1879085
368.50 0.1869472
368.60 0.1856862
368.70 0.1847537
368.80 0.1845944
368.90 0.1851977
369.00 0.1862212
369.10 0.1873944
369.20 0.1887039
369.30 0.1901375
369.40 0.191359
369.50 0.1917913
369.60 0.1911166
369.70 0.1896655
369.80 0.1883023
369.90 0.1879347
370.00 0.1890425
370.10 0.1914895
370.20 0.1946777
370.30 0.1978696
370.40 0.200442
370.50 0.2019909
370.60 0.2023769
370.70 0.2018354
370.80 0.2009924
370.90 0.2005844
371.00 0.2009812
371.10 0.2018791
371.20 0.2024157
371.30 0.2016164
371.40 0.1989376
371.50 0.1946277
371.60 0.1896908
371.70 0.1854163
371.80 0.1827903
371.90 0.1821757
372.00 0.1833428
372.10 0.1855359
372.20 0.1874202
372.30 0.1873134
372.40 0.1839641
372.50 0.1775321
372.60 0.1698846
372.70 0.1637599
372.80 0.1613714
372.90 0.163438
373.00 0.1691306
373.10 0.1766752
373.20 0.1840888
373.30 0.1897165
373.40 0.1925625
373.50 0.1923609
373.60 0.1893912
373.70 0.1842123
373.80 0.177544
373.90 0.1703339
374.00 0.1637704
374.10 0.159077
374.20 0.1571996
374.30 0.1586403
374.40 0.1634969
374.50 0.171498
374.60 0.1819018
374.70 0.1933526
374.80 0.2039659
374.90 0.2118068
375.00 0.2155551
375.10 0.2149303
375.20 0.2106455
375.30 0.2040365
375.40 0.196651
375.50 0.1899242
375.60 0.1848364
375.70 0.1816501
375.80 0.1799258
375.90 0.1788849
376.00 0.1779482
376.10 0.1771594
376.20 0.1772764
376.30 0.1794569
376.40 0.184694
376.50 0.1933886
376.60 0.2053398
376.70 0.2198763
376.80 0.2357627
376.90 0.2509377
377.00 0.2626832
377.10 0.2685558
377.20 0.2675067
377.30 0.2602889
377.40 0.2489029
377.50 0.2356504
377.60 0.222475
377.70 0.2107742
377.80 0.2013498
377.90 0.1943662
378.00 0.1894511
378.10 0.1860161
378.20 0.1835996
378.30 0.1819535
378.40 0.1809056
378.50 0.1803136
378.60 0.1801991
378.70 0.1808236
378.80 0.1825748
378.90 0.1858875
379.00 0.1913759
379.10 0.199911
379.20 0.2122589
379.30 0.2284132
379.40 0.2471811
379.50 0.2663551
379.60 0.2832235
379.70 0.2951108
379.80 0.2999837
379.90 0.2970848
380.00 0.2873215
380.10 0.2730016
380.20 0.2569526
380.30 0.2415519
380.40 0.2282264
380.50 0.2174893
380.60 0.2092226
380.70 0.2029194
380.80 0.1978633
380.90 0.1934385
381.00 0.1894333
381.10 0.1860305
381.20 0.1834415
381.30 0.1815613
381.40 0.1800703
381.50 0.1788882
381.60 0.1783243
381.70 0.1786731
381.80 0.1796334
381.90 0.1802309
382.00 0.179497
382.10 0.1786484
382.20 0.1814066
382.30 0.1955886
382.40 0.2214379
382.50 0.2499765
382.60 0.2722299
382.70 0.2861796
382.80 0.2991152
382.90 0.3204839
383.00 0.3574199
383.10 0.3997652
383.20 0.426059
383.30 0.4350238
383.40 0.4337143
383.50 0.4271851
383.60 0.4128861
383.70 0.3860674
383.80 0.3469722
383.90 0.3073389
384.00 0.288616
384.10 0.3028792
384.20 0.3330006
384.30 0.3427864
384.40 0.3142239
384.50 0.2659071
384.60 0.2227033
384.70 0.2078896
384.80 0.2236372
384.90 0.2662619
385.00 0.3195285
385.10 0.3568205
385.20 0.3606406
385.30 0.3369929
385.40 0.3050925
385.50 0.2800527
385.60 0.269278
385.70 0.2733402
385.80 0.2832133
385.90 0.2848352
386.00 0.2714949
386.10 0.2496899
386.20 0.2286502
386.30 0.2085138
386.40 0.1855469
386.50 0.1652728
386.60 0.1627827
386.70 0.1892273
386.80 0.2389836
386.90 0.2910803
387.00 0.3238183
387.10 0.3287653
387.20 0.3157757
387.30 0.3047037
387.40 0.3078392
387.50 0.3170553
387.60 0.3111279
387.70 0.2801919
387.80 0.2387931
387.90 0.2096853
388.00 0.2004671
388.10 0.2023403
388.20 0.2080947
388.30 0.2176275
388.40 0.2277802
388.50 0.2356281
388.60 0.2519229
388.70 0.2946393
388.80 0.3623628
388.90 0.4242791
389.00 0.4468924
389.10 0.4250013
389.20 0.3776643
389.30 0.3252407
389.40 0.2771153
389.50 0.2367512
389.60 0.2085107
389.70 0.1856285
389.80 0.1815005
389.90 0.1979878
390.00 0.2314447
390.10 0.2730901
390.20 0.2948529
390.30 0.2950873
390.40 0.2915737
390.50 0.2878354
390.60 0.2877949
390.70 0.2925328
390.80 0.2997866
390.90 0.3017388
391.00 0.2902437
391.10 0.2664254
391.20 0.2427875
391.30 0.2472906
391.40 0.2711189
391.50 0.3004628
391.60 0.3198525
391.70 0.3180039
391.80 0.29385
391.90 0.2572482
392.00 0.2222566
392.10 0.2020203
392.20 0.2001649
392.30 0.2133313
392.40 0.2235439
392.50 0.225871
392.60 0.2317616
392.70 0.2486893
392.80 0.2792765
392.90 0.313344
393.00 0.3534569
393.10 0.4168515
393.20 0.5175936
393.30 0.640885
393.40 0.7210817
393.50 0.6943402
393.60 0.5655285
393.70 0.4080698
393.80 0.2988971
393.90 0.2622305
394.00 0.2702532
394.10 0.2812827
394.20 0.2720871
394.30 0.2501922
394.40 0.2235205
394.50 0.208275
394.60 0.2114936
394.70 0.227958
394.80 0.2390592
394.90 0.2437473
395.00 0.2431707
395.10 0.2434842
395.20 0.2458094
395.30 0.2480645
395.40 0.2510816
395.50 0.2655202
395.60 0.2860025
395.70 0.2872295
395.80 0.262875
395.90 0.227661
396.00 0.2045296
396.10 0.1982585
396.20 0.1978129
396.30 0.2033364
396.40 0.2260587
396.50 0.2853838
396.60 0.391252
396.70 0.5317875
396.80 0.6723023
396.90 0.7628144
397.00 0.7637392
397.10 0.675473
397.20 0.5442995
397.30 0.4317313
397.40 0.3753537
397.50 0.3687245
397.60 0.3801493
397.70 0.3854414
397.80 0.3806506
397.90 0.3709101
398.00 0.3601362
398.10 0.3515181
398.20 0.3516324
398.30 0.3650532
398.40 0.3862656
398.50 0.4023752
398.60 0.4043789
398.70 0.3931085
398.80 0.378123
398.90 0.3563526
399.00 0.3393369
399.10 0.3460556
399.20 0.3859081
399.30 0.444185
399.40 0.4895672
399.50 0.4976216
399.60 0.4670529
399.70 0.4143825
399.80 0.3633214
399.90 0.335362
400.00 0.3343659
400.10 0.3471882
400.20 0.3577991
400.30 0.3604686
400.40 0.3586004
400.50 0.356951
400.60 0.3578467
400.70 0.3594996
400.80 0.3683357
400.90 0.3907543
401.00 0.4140489
401.10 0.4193304
401.20 0.3970982
401.30 0.3656601
401.40 0.3489132
401.50 0.3534729
401.60 0.3659256
401.70 0.3734408
401.80 0.3671369
401.90 0.3573212
402.00 0.3550598
402.10 0.3610883
402.20 0.3707569
402.30 0.3805826
402.40 0.3878142
402.50 0.3895458
402.60 0.3837679
402.70 0.3690166
402.80 0.3439437
402.90 0.3099574
403.00 0.2757806
403.10 0.2529797
403.20 0.243949
403.30 0.2417177
403.40 0.2427092
403.50 0.2533811
403.60 0.2800828
403.70 0.3194848
403.80 0.3590157
403.90 0.3908302
404.00 0.4181299
404.10 0.4455441
404.20 0.4713593
404.30 0.4825465
404.40 0.4630547
404.50 0.4105149
404.60 0.3450645
404.70 0.2956956
404.80 0.2769462
404.90 0.2810439
405.00 0.2899996
405.10 0.2934496
405.20 0.2952729
405.30 0.3043968
405.40 0.3222189
405.50 0.3412141
405.60 0.3529986
405.70 0.3565631
405.80 0.3573777
405.90 0.3587049
406.00 0.3594138
406.10 0.3564817
406.20 0.3496212
406.30 0.344466
406.40 0.3496458
406.50 0.3670143
406.60 0.3869741
406.70 0.3924269
406.80 0.3724479
406.90 0.3319677
407.00 0.2888707
407.10 0.2621375
407.20 0.2621406
407.30 0.2783557
407.40 0.2914457
407.50 0.2940915
407.60 0.2844981
407.70 0.2732705
407.80 0.271535
407.90 0.2813008
408.00 0.2974494
408.10 0.3168056
408.20 0.340048
408.30 0.3645525
408.40 0.3805789
408.50 0.3807779
408.60 0.3707451
408.70 0.3632267
408.80 0.3612698
408.90 0.3547827
409.00 0.3378406
409.10 0.3213134
409.20 0.3222726
409.30 0.3437625
409.40 0.3701663
409.50 0.3840202
409.60 0.3801747
409.70 0.3669124
409.80 0.3607622
409.90 0.3799279
410.00 0.4324051
410.10 0.5033547
410.20 0.5566494
410.30 0.5588853
410.40 0.5053365
410.50 0.4225425
410.60 0.3473625
410.70 0.3090635
410.80 0.2992047
410.90 0.3064416
411.00 0.3183083
411.10 0.3258463
411.20 0.3264933
411.30 0.3231571
411.40 0.3203511
411.50 0.3194875
411.60 0.3252641
411.70 0.3326411
411.80 0.3345881
411.90 0.3369363
412.00 0.344219
412.10 0.3526029
412.20 0.3535402
412.30 0.3463915
412.40 0.3396251
412.50 0.340887
412.60 0.348971
412.70 0.357182
412.80 0.3614533
412.90 0.3603397
413.00 0.3509945
413.10 0.3316916
413.20 0.3065649
413.30 0.2839688
413.40 0.2680127
413.50 0.2555383
413.60 0.2430524
413.70 0.2334132
413.80 0.2334772
413.90 0.2467734
414.00 0.2691436
414.10 0.2901505
414.20 0.306025
414.30 0.3045906
414.40 0.2877112
414.50 0.2666253
414.60 0.2544562
414.70 0.2565189
414.80 0.2731736
414.90 0.290852
415.00 0.3011956
415.10 0.3126054
415.20 0.330529
415.30 0.3471089
415.40 0.3567209
415.50 0.3560731
415.60 0.3434582
415.70 0.3194483
415.80 0.2901568
415.90 0.2682124
416.00 0.2663343
416.10 0.2839265
416.20 0.3112853
416.30 0.3395352
416.40 0.3652253
416.50 0.3859234
416.60 0.4005529
416.70 0.3941168
416.80 0.3674268
416.90 0.3354708
417.00 0.3151748
417.10 0.309028
417.20 0.2983924
417.30 0.2794823
417.40 0.2602994
417.50 0.2480278
417.60 0.2412307
417.70 0.2367731
417.80 0.2388555
417.90 0.2592745
418.00 0.2924451
418.10 0.3292412
418.20 0.3570112
418.30 0.3690282
418.40 0.3690407
418.50 0.3646975
418.60 0.3642798
418.70 0.3591467
418.80 0.3487161
418.90 0.3358384
419.00 0.3234504
419.10 0.312901
419.20 0.305978
419.30 0.3050711
419.40 0.310223
419.50 0.3171613
419.60 0.3199884
419.70 0.3169095
419.80 0.3115837
419.90 0.3086723
420.00 0.3064179
420.10 0.2984578
420.20 0.2832506
420.30 0.2702839
420.40 0.2647255
420.50 0.259998
420.60 0.2486366
420.70 0.2296082
420.80 0.2124952
420.90 0.2013486
421.00 0.2007946
421.10 0.2130904
421.20 0.2359857
421.30 0.2623584
421.40 0.2830499
421.50 0.2935074
421.60 0.292939
421.70 0.2834045
421.80 0.2680858
421.90 0.2497156
422.00 0.2292462
422.10 0.2060522
422.20 0.1808792
422.30 0.157349
422.40 0.1391236
422.50 0.1255122
422.60 0.1126842
422.70 0.1042041
422.80 0.09673581
422.90 0.09893867
423.00 0.1140353
423.10 0.135149
423.20 0.1525648
423.30 0.164092
423.40 0.1761561
423.50 0.1984998
423.60 0.2291616
423.70 0.2517766
423.80 0.2592645
423.90 0.2543834
424.00 0.2459701
424.10 0.2411817
424.20 0.2406921
424.30 0.2409502
424.40 0.2426818
424.50 0.24698
424.60 0.25239
424.70 0.2546987
424.80 0.2545983
424.90 0.254345
425.00 0.2605049
425.10 0.2729053
425.20 0.2812692
425.30 0.2759021
425.40 0.2580496
425.50 0.2384579
425.60 0.2273581
425.70 0.2261943
425.80 0.2288279
425.90 0.2295334
426.00 0.2285711
426.10 0.2302076
426.20 0.2355766
426.30 0.2423333
426.40 0.2500435
426.50 0.2601785
426.60 0.2690735
426.70 0.2678163
426.80 0.2551879
426.90 0.2466063
427.00 0.2570012
427.10 0.2741148
427.20 0.2828153
427.30 0.2746079
427.40 0.2541753
427.50 0.2333515
427.60 0.2239322
427.70 0.2328036
427.80 0.259316
427.90 0.2905373
428.00 0.3135498
428.10 0.3223338
428.20 0.3174632
428.30 0.3047645
428.40 0.2916078
428.50 0.2825263
428.60 0.2750957
428.70 0.2652536
428.80 0.2535496
428.90 0.2445785
429.00 0.2414184
429.10 0.2467668
429.20 0.2554233
429.30 0.2635567
429.40 0.2708469
429.50 0.278583
429.60 0.2899094
429.70 0.3051885
429.80 0.3176783
429.90 0.3182131
430.00 0.3055787
430.10 0.2901429
430.20 0.2860344
430.30 0.2996766
430.40 0.3241599
430.50 0.3433344
430.60 0.3421991
430.70 0.3175528
430.80 0.2813064
430.90 0.2522467
431.00 0.2430315
431.10 0.2535468
431.20 0.2734425
431.30 0.2893821
431.40 0.2924197
431.50 0.282235
431.60 0.2688672
431.70 0.2644255
431.80 0.2746762
431.90 0.2980156
432.00 0.3258247
432.10 0.3487573
432.20 0.3590805
432.30 0.3605401
432.40 0.3591075
432.50 0.3542804
432.60 0.3402121
432.70 0.3172399
432.80 0.2974609
432.90 0.2934198
433.00 0.3052541
433.10 0.3232399
433.20 0.3418358
433.30 0.3594891
433.40 0.3727337
433.50 0.3821171
433.60 0.3944795
433.70 0.4257764
433.80 0.4993889
433.90 0.6100255
434.00 0.7278733
434.10 0.8031529
434.20 0.8000529
434.30 0.7248483
434.40 0.6196393
434.50 0.5297903
434.60 0.4769804
434.70 0.456441
434.80 0.4495456
434.90 0.4368014
435.00 0.4069031
435.10 0.3617897
435.20 0.3154057
435.30 0.285153
435.40 0.2812382
435.50 0.3007472
435.60 0.3305082
435.70 0.3547387
435.80 0.365148
435.90 0.3635222
436.00 0.3557356
436.10 0.3457732
436.20 0.3402718
436.30 0.3381467
436.40 0.3459007
436.50 0.3608839
436.60 0.369292
436.70 0.3673027
436.80 0.3633781
436.90 0.3672683
437.00 0.3778323
437.10 0.385351
437.20 0.3829356
437.30 0.3718665
437.40 0.3584222
437.50 0.3491089
437.60 0.3463285
437.70 0.3470519
437.80 0.3459003
437.90 0.3405959
438.00 0.3354925
438.10 0.3350589
438.20 0.3378688
438.30 0.340022
438.40 0.3448886
438.50 0.3590783
438.60 0.3812317
438.70 0.4005695
438.80 0.4059331
438.90 0.3960141
439.00 0.3814528
439.10 0.3722863
439.20 0.3698043
439.30 0.3686124
439.40 0.3650643
439.50 0.3631203
439.60 0.3691713
439.70 0.3828499
439.80 0.3964325
439.90 0.4067422
440.00 0.4140097
440.10 0.4221637
440.20 0.4318874
440.30 0.4379827
440.40 0.438786
440.50 0.4279914
440.60 0.4105169
440.70 0.3952506
440.80 0.3892477
440.90 0.4011524
441.00 0.4234848
441.10 0.4454731
441.20 0.4579308
441.30 0.4600918
441.40 0.459753
441.50 0.4648717
441.60 0.4767126
441.70 0.4913321
441.80 0.5027783
441.90 0.5047725
442.00 0.4937498
442.10 0.4734063
442.20 0.4536037
442.30 0.4419021
442.40 0.4377884
442.50 0.4368715
442.60 0.4377881
442.70 0.4418478
442.80 0.4486713
442.90 0.4569803
443.00 0.4680352
443.10 0.4833218
443.20 0.498108
443.30 0.502084
443.40 0.4912272
443.50 0.4764828
443.60 0.4732457
443.70 0.4860771
443.80 0.5149089
443.90 0.5465499
444.00 0.5733242
444.10 0.591966
444.20 0.6013436
444.30 0.6029514
444.40 0.6001605
444.50 0.5955247
444.60 0.5909547
444.70 0.5891257
444.80 0.5930208
444.90 0.6032425
445.00 0.6160558
445.10 0.6253681
445.20 0.6253109
445.30 0.6107555
445.40 0.5799222
445.50 0.5401274
445.60 0.5073443
445.70 0.498116
445.80 0.513976
445.90 0.5420004
446.00 0.5671619
446.10 0.5830244
446.20 0.5912464
446.30 0.5953026
446.40 0.5974656
446.50 0.5989418
446.60 0.6003198
446.70 0.6020774
446.80 0.605718
446.90 0.6142196
447.00 0.6297223
447.10 0.6512093
447.20 0.6748839
447.30 0.6954191
447.40 0.7066125
447.50 0.7036601
447.60 0.6884787
447.70 0.6714019
447.80 0.6641998
447.90 0.669749
448.00 0.6830587
448.10 0.6866753
448.20 0.6806661
448.30 0.6794241
448.40 0.6886162
448.50 0.7083089
448.60 0.7293774
448.70 0.7414932
448.80 0.740982
448.90 0.7326643
449.00 0.7261748
449.10 0.7290374
449.20 0.7403997
449.30 0.7504284
449.40 0.7478547
449.50 0.7315205
449.60 0.713596
449.70 0.7085195
449.80 0.7206105
449.90 0.7427405
450.00 0.7643513
450.10 0.7788279
450.20 0.7849272
450.30 0.7852866
450.40 0.7836911
450.50 0.7805803
450.60 0.7724791
450.70 0.7579956
450.80 0.7417112
450.90 0.7301011
451.00 0.724384
451.10 0.7204076
451.20 0.716086
451.30 0.7143446
451.40 0.7170347
451.50 0.719713
451.60 0.7161185
451.70 0.7081602
451.80 0.7075637
451.90 0.7240385
452.00 0.7534624
452.10 0.7814748
452.20 0.7980188
452.30 0.8051417
452.40 0.8099787
452.50 0.8139396
452.60 0.8125588
452.70 0.8037619
452.80 0.7920584
452.90 0.7845018
453.00 0.783846
453.10 0.7857639
453.20 0.7827143
453.30 0.7709608
453.40 0.7545378
453.50 0.7432798
453.60 0.7466977
453.70 0.76831
453.80 0.8039794
453.90 0.8434347
454.00 0.8759071
454.10 0.8960566
454.20 0.9036881
454.30 0.8981921
454.40 0.8766385
454.50 0.8393474
454.60 0.794929
454.70 0.7571436
454.80 0.7358657
454.90 0.7323747
455.00 0.7411869
455.10 0.7546902
455.20 0.7678698
455.30 0.7800707
455.40 0.7931091
455.50 0.8083592
455.60 0.8259773
455.70 0.8461038
455.80 0.8689117
455.90 0.8925849
456.00 0.9133582
456.10 0.9285254
456.20 0.9384519
456.30 0.9459106
456.40 0.9543053
456.50 0.9672247
456.60 0.9872996
456.70 1.012738
456.80 1.036154
456.90 1.049936
457.00 1.054401
457.10 1.058635
457.20 1.070975
457.30 1.089614
457.40 1.103108
457.50 1.099272
457.60 1.07425
457.70 1.035122
457.80 0.99579
457.90 0.9693609
458.00 0.9610199
458.10 0.9654301
458.20 0.9697427
458.30 0.9596817
458.40 0.9273931
458.50 0.8767628
458.60 0.8209411
458.70 0.773866
458.80 0.7438823
458.90 0.7343328
459.00 0.7452092
459.10 0.7709934
459.20 0.7998573
459.30 0.8212939
459.40 0.8357733
459.50 0.8525698
459.60 0.8769094
459.70 0.9021522
459.80 0.9164985
459.90 0.9159915
460.00 0.9084064
460.10 0.9048392
460.20 0.9094971
460.30 0.9159136
460.40 0.9115402
460.50 0.8882682
460.60 0.8519822
460.70 0.8230197
460.80 0.8249225
460.90 0.868263
461.00 0.9423252
461.10 1.021928
461.20 1.083363
461.30 1.11799
461.40 1.133046
461.50 1.14035
461.60 1.145391
461.70 1.146534
461.80 1.142214
461.90 1.136306
462.00 1.136365
462.10 1.146891
462.20 1.163396
462.30 1.171406
462.40 1.153069
462.50 1.099012
462.60 1.016961
462.70 0.9293644
462.80 0.8605886
462.90 0.8242008
463.00 0.8196642
463.10 0.8371685
463.20 0.8633929
463.30 0.88556
463.40 0.8951316
463.50 0.8913323
463.60 0.8796199
463.70 0.865941
463.80 0.854179
463.90 0.8477368
464.00 0.8501061
464.10 0.862417
464.20 0.8817324
464.30 0.9021518
464.40 0.9172903
464.50 0.9227663
464.60 0.9200319
464.70 0.9169737
464.80 0.9209982
464.90 0.9310724
465.00 0.939078
465.10 0.9402372
465.20 0.9393616
465.30 0.9441878
465.40 0.955069
465.50 0.9651608
465.60 0.9705352
465.70 0.9779288
465.80 0.9995349
465.90 1.039761
466.00 1.088064
466.10 1.12571
466.20 1.141144
466.30 1.139754
466.40 1.137142
466.50 1.141147
466.60 1.142421
466.70 1.123384
466.80 1.074973
466.90 1.003225
467.00 0.9222891
467.10 0.8459512
467.20 0.7861735
467.30 0.7531265
467.40 0.7504302
467.50 0.7706465
467.60 0.7972468
467.70 0.813945
467.80 0.8138221
467.90 0.8011711
468.00 0.7867829
468.10 0.7809896
468.20 0.7885488
468.30 0.8082201
468.40 0.8358115
468.50 0.8672497
468.60 0.8989237
468.70 0.9261342
468.80 0.9447126
468.90 0.9548738
469.00 0.9611483
469.10 0.9671764
469.20 0.9718887
469.30 0.9725252
469.40 0.9702455
469.50 0.9699655
469.60 0.9752805
469.70 0.9855583
469.80 0.9979985
469.90 1.010697
470.00 1.022704
470.10 1.033128
470.20 1.041882
470.30 1.049488
470.40 1.054408
470.50 1.052032
470.60 1.039134
470.70 1.019676
470.80 1.003111
470.90 0.9966171
471.00 1.000395
471.10 1.008623
471.20 1.012468
471.30 1.003526
471.40 0.9788108
471.50 0.9448022
471.60 0.9155042
471.70 0.9039401
471.80 0.9145813
471.90 0.9421389
472.00 0.9752926
472.10 1.003113
472.20 1.020887
472.30 1.031596
472.40 1.04141
472.50 1.052562
472.60 1.060839
472.70 1.061128
472.80 1.054855
472.90 1.04988
473.00 1.052641
473.10 1.061898
473.20 1.071453
473.30 1.077461
473.40 1.080758
473.50 1.082854
473.60 1.082386
473.70 1.077662
473.80 1.071189
473.90 1.068813
474.00 1.073937
474.10 1.083944
474.20 1.093569
474.30 1.100847
474.40 1.108299
474.50 1.118845
474.60 1.132556
474.70 1.147465
474.80 1.161793
474.90 1.174904
475.00 1.18643
475.10 1.19547
475.20 1.201972
475.30 1.208594
475.40 1.219094
475.50 1.232581
475.60 1.238902
475.70 1.222618
475.80 1.174295
475.90 1.096794
476.00 1.000596
476.10 0.8963936
476.20 0.7943625
476.30 0.7077418
476.40 0.651987
476.50 0.6275159
476.60 0.6228085
476.70 0.6263597
476.80 0.6288686
476.90 0.6294261
477.00 0.6314836
477.10 0.6366408
477.20 0.6449043
477.30 0.6577132
477.40 0.6786201
477.50 0.7091174
477.60 0.743047
477.70 0.76728
477.80 0.7713722
477.90 0.7577438
478.00 0.7404407
478.10 0.7331247
478.20 0.7395027
478.30 0.7544707
478.40 0.7717035
478.50 0.7890182
478.60 0.8078857
478.70 0.8287346
478.80 0.8475122
478.90 0.8584638
479.00 0.8613545
479.10 0.863499
479.20 0.8719369
479.30 0.885767
479.40 0.8988448
479.50 0.908473
479.60 0.9183082
479.70 0.9333934
479.80 0.955198
479.90 0.9808081
480.00 1.003882
480.10 1.016233
480.20 1.010958
480.30 0.9859818
480.40 0.9442597
480.50 0.890875
480.60 0.8314225
480.70 0.7732174
480.80 0.7259149
480.90 0.6981948
481.00 0.6923341
481.10 0.7024845
481.20 0.7202056
481.30 0.7410995
481.40 0.7651081
481.50 0.790876
481.60 0.8119932
481.70 0.821641
481.80 0.8201891
481.90 0.8163176
482.00 0.8201651
482.10 0.8359977
482.20 0.8607391
482.30 0.8876105
482.40 0.9095991
482.50 0.9215425
482.60 0.9225668
482.70 0.9166547
482.80 0.9094926
482.90 0.9035073
483.00 0.8969779
483.10 0.8886639
483.20 0.8820342
483.30 0.8835883
483.40 0.8972346
483.50 0.9212516
483.60 0.9508721
483.70 0.9829551
483.80 1.015819
483.90 1.044067
484.00 1.056371
484.10 1.042253
484.20 1.003772
484.30 0.9596167
484.40 0.9337445
484.50 0.9357279
484.60 0.9508933
484.70 0.9523877
484.80 0.9248495
484.90 0.875765
485.00 0.8250452
485.10 0.7886827
485.20 0.7733796
485.30 0.7795565
485.40 0.8014674
485.50 0.8254143
485.60 0.8383938
485.70 0.8463174
485.80 0.8833807
485.90 0.9930886
486.00 1.184647
486.10 1.401718
486.20 1.545149
486.30 1.543211
486.40 1.407124
486.50 1.217572
486.60 1.058023
486.70 0.9641056
486.80 0.9266905
486.90 0.9225766
487.00 0.9337407
487.10 0.9488912
487.20 0.9619288
487.30 0.9722247
487.40 0.9813554
487.50 0.9879136
487.60 0.9884803
487.70 0.9835018
487.80 0.9788317
487.90 0.9801923
488.00 0.9873194
488.10 0.9949555
488.20 0.9990137
488.30 1.000538
488.40 1.003816
488.50 1.011741
488.60 1.024182
488.70 1.039478
488.80 1.055403
488.90 1.068393
489.00 1.073823
489.10 1.06985
489.20 1.060947
489.30 1.055111
489.40 1.056698
489.50 1.063282
489.60 1.0692
489.70 1.070836
489.80 1.068604
489.90 1.065824
490.00 1.066677
490.10 1.073899
490.20 1.087882
490.30 1.108663
490.40 1.137783
490.50 1.176064
490.60 1.220006
490.70 1.26208
490.80 1.295562
490.90 1.318598
491.00 1.334173
491.10 1.346719
491.20 1.357666
491.30 1.363617
491.40 1.359913
491.50 1.347118
491.60 1.332754
491.70 1.324841
491.80 1.324489
491.90 1.327265
492.00 1.331377
492.10 1.340649
492.20 1.358688
492.30 1.38336
492.40 1.409273
492.50 1.434434
492.60 1.461083
492.70 1.490034
492.80 1.516632
492.90 1.533282
493.00 1.535236
493.10 1.524651
493.20 1.509581
493.30 1.498969
493.40 1.497863
493.50 1.505585
493.60 1.518374
493.70 1.532864
493.80 1.546587
493.90 1.557572
494.00 1.565805
494.10 1.574705
494.20 1.589644
494.30 1.613056
494.40 1.641563
494.50 1.669512
494.60 1.694985
494.70 1.721842
494.80 1.754752
494.90 1.791736
495.00 1.821985
495.10 1.828776
495.20 1.792256
495.30 1.693007
495.40 1.522226
495.50 1.295859
495.60 1.057056
495.70 0.8575328
495.80 0.7306467
495.90 0.6777048
496.00 0.6746457
496.10 0.6898453
496.20 0.7003798
496.30 0.700349
496.40 0.6987792
496.50 0.7091999
496.60 0.7393423
496.70 0.7879641
496.80 0.8482349
496.90 0.9115189
497.00 0.9681169
497.10 1.008686
497.20 1.028746
497.30 1.032412
497.40 1.030064
497.50 1.030874
497.60 1.037095
497.70 1.044938
497.80 1.049629
497.90 1.047813
498.00 1.036649
498.10 1.015492
498.20 0.9912228
498.30 0.979647
498.40 0.9958881
498.50 1.040088
498.60 1.09467
498.70 1.138014
498.80 1.160289
498.90 1.166518
499.00 1.167163
499.10 1.167106
499.20 1.163858
499.30 1.155065
499.40 1.146559
499.50 1.150175
499.60 1.15962
499.70 1.130633
499.80 1.003782
499.90 0.7626366
500.00 1
500.10 0.9025319
500.20 0.8645825
500.30 0.8687496
500.40 0.8657635
500.50 0.8678734
500.60 0.8868645
500.70 0.9050172
500.80 0.8736499
500.90 0.8426677
501.00 0.8917181
501.10 0.9818102
501.20 0.9614631
501.30 0.9378695
501.40 0.9185765
501.50 0.8469761
501.60 0.8489736
501.70 0.8674285
501.80 0.9273401
501.90 1.023725
502.00 1.080956
502.10 1.067106
502.20 1.048009
502.30 1.023486
502.40 1.026517
502.50 1.020069
502.60 1.05258
502.70 1.062353
502.80 1.120896
502.90 1.125227
503.00 1.129657
503.10 1.164638
503.20 1.180205
503.30 1.199929
503.40 1.192111
503.50 1.16387
503.60 1.171947
503.70 1.150688
503.80 1.197027
503.90 1.186939
504.00 1.154434
504.10 1.128835
504.20 1.167498
504.30 1.189448
504.40 1.21045
504.50 1.232821
504.60 1.357745
504.70 1.388912
504.80 1.335564
504.90 1.287464
505.00 1.212139
505.10 1.148353
505.20 1.171867
505.30 1.208121
505.40 1.227107
505.50 1.150115
505.60 1.174744
505.70 1.197028
505.80 1.219171
505.90 1.236443
506.00 1.256501
506.10 1.251252
506.20 1.216135
506.30 1.259782
506.40 1.287702
506.50 1.228842
506.60 1.177826
506.70 1.195562
506.80 1.266152
506.90 1.248312
507.00 1.281792
507.10 1.322062
507.20 1.267883
507.30 1.247394
507.40 1.300941
507.50 1.385324
507.60 1.416587
507.70 1.346282
507.80 1.270041
507.90 1.359776
508.00 1.364282
508.10 1.313283
508.20 1.240956
508.30 1.230728
508.40 1.19119
508.50 1.185684
508.60 1.329847
508.70 1.4402
508.80 1.451911
508.90 1.362456
509.00 1.274661
509.10 1.285483
509.20 1.396539
509.30 1.426001
509.40 1.42685
509.50 1.34319
509.60 1.20509
509.70 1.24986
509.80 1.346196
509.90 1.437488
510.00 1.334972
510.10 1.23889
510.20 1.24389
510.30 1.196586
510.40 1.179492
510.50 1.235398
510.60 1.244013
510.70 1.225829
510.80 1.225035
510.90 1.234393
511.00 1.274541
511.10 1.278741
511.20 1.269115
511.30 1.298279
511.40 1.346883
511.50 1.396608
511.60 1.497422
511.70 1.517435
511.80 1.488623
511.90 1.491463
512.00 1.432312
512.10 1.379315
512.20 1.386941
512.30 1.422001
512.40 1.387339
512.50 1.34857
512.60 1.296536
512.70 1.28683
512.80 1.284584
512.90 1.241646
513.00 1.249809
513.10 1.313636
513.20 1.36238
513.30 1.451062
513.40 1.508535
513.50 1.432545
513.60 1.411928
513.70 1.487556
513.80 1.574859
513.90 1.60378
514.00 1.531936
514.10 1.387415
514.20 1.40077
514.30 1.442636
514.40 1.399025
514.50 1.369784
514.60 1.31168
514.70 1.266305
514.80 1.307588
514.90 1.376472
515.00 1.394409
515.10 1.352045
515.20 1.357706
515.30 1.307784
515.40 1.20055
515.50 1.186014
515.60 1.226084
515.70 1.380159
515.80 1.556281
515.90 1.641273
516.00 1.631389
516.10 1.666581
516.20 1.781569
516.30 1.862596
516.40 1.762254
516.50 1.765167
516.60 1.730275
516.70 1.411125
516.80 0.9393652
516.90 0.6684002
517.00 0.5873113
517.10 0.6056851
517.20 0.5818857
517.30 0.5996135
517.40 0.6207771
517.50 0.6513378
517.60 0.7014811
517.70 0.7043858
517.80 0.7274325
517.90 0.7803728
518.00 0.7312364
518.10 0.6929223
518.20 0.6973611
518.30 0.7314116
518.40 0.7614819
518.50 0.8031225
518.60 0.9664256
518.70 1.108035
518.80 1.123364
518.90 1.132251
519.00 1.13807
519.10 1.130172
519.20 1.144883
519.30 1.119877
519.40 1.095349
519.50 1.147215
519.60 1.183773
519.70 1.215158
519.80 1.296381
519.90 1.318385
520.00 1.258269
520.10 1.137259
520.20 1.101133
520.30 1.166765
520.40 1.153335
520.50 1.003748
520.60 0.8541135
520.70 0.8145261
520.80 0.8635573
520.90 0.8842365
521.00 0.8175524
521.10 0.8380569
521.20 1.085148
521.30 1.382307
521.40 1.559593
521.50 1.562448
521.60 1.526532
521.70 1.556471
521.80 1.58996
521.90 1.613856
522.00 1.657442
522.10 1.640992
522.20 1.682087
522.30 1.70072
522.40 1.664191
522.50 1.628742
522.60 1.590993
522.70 1.558581
522.80 1.593146
522.90 1.623149
523.00 1.744475
523.10 1.831956
523.20 1.823314
523.30 1.760773
523.40 1.743718
523.50 1.667881
523.60 1.674582
523.70 1.732819
523.80 1.77491
523.90 1.781005
524.00 1.804849
524.10 1.674403
524.20 1.516927
524.30 1.453216
524.40 1.477443
524.50 1.55677
524.60 1.580199
524.70 1.527153
524.80 1.478431
524.90 1.532779
525.00 1.558921
525.10 1.51418
525.20 1.523917
525.30 1.6269
525.40 1.729054
525.50 1.742818
525.60 1.720891
525.70 1.742866
525.80 1.829681
525.90 1.856041
526.00 1.827222
526.10 1.683991
526.20 1.59394
526.30 1.543414
526.40 1.502617
526.50 1.458364
526.60 1.434188
526.70 1.415772
526.80 1.48958
526.90 1.44332
527.00 1.281393
527.10 1.226912
527.20 1.368898
527.30 1.564212
527.40 1.687574
527.50 1.735534
527.60 1.76544
527.70 1.735521
527.80 1.763723
527.90 1.809478
528.00 1.786536
528.10 1.708714
528.20 1.639336
528.30 1.675702
528.40 1.752778
528.50 1.767514
528.60 1.804529
528.70 1.893896
528.80 1.944883
528.90 1.896157
529.00 1.890811
529.10 1.911631
529.20 1.895377
529.30 1.873829
529.40 1.871242
529.50 1.914863
529.60 1.938143
529.70 1.909041
529.80 1.829233
529.90 1.751805
530.00 1.711559
530.10 1.7706
530.20 1.852127
530.30 1.95262
530.40 2.006261
530.50 2.052804
530.60 2.064168
530.70 2.080818
530.80 1.930052
530.90 1.818178
531.00 1.823566
531.10 1.817579
531.20 1.796313
531.30 1.802282
531.40 1.802057
531.50 1.81251
531.60 1.8633
531.70 1.895008
531.80 1.922647
531.90 1.899296
532.00 1.866388
532.10 1.876259
532.20 1.878612
532.30 1.932615
532.40 1.92625
532.50 1.87192
532.60 1.890119
532.70 1.887552
532.80 1.763995
532.90 1.5654
533.00 1.522654
533.10 1.683186
533.20 1.849805
533.30 1.927408
533.40 1.886471
533.50 1.827917
533.60 1.831153
533.70 1.822558
533.80 1.847359
533.90 1.856151
534.00 1.896949
534.10 1.895729
534.20 1.894278
534.30 1.905043
534.40 1.927687
534.50 1.950107
534.60 1.980425
534.70 1.896543
534.80 1.847799
534.90 1.891375
535.00 1.926694
535.10 2.043271
535.20 2.227676
535.30 2.318177
535.40 2.270273
535.50 2.272764
535.60 2.268093
535.70 2.257798
535.80 2.19707
535.90 2.086501
536.00 1.995278
536.10 1.99763
536.20 2.001586
536.30 2.009564
536.40 2.027429
536.50 2.026576
536.60 1.974047
536.70 1.991046
536.80 2.009755
536.90 2.073948
537.00 2.064671
537.10 1.930716
537.20 1.826578
537.30 1.864487
537.40 1.967243
537.50 2.077306
537.60 2.126888
537.70 2.145851
537.80 2.178517
537.90 2.215167
538.00 2.293553
538.10 2.340108
538.20 2.32962
538.30 2.289075
538.40 2.281065
538.50 2.266584
538.60 2.227917
538.70 2.268923
538.80 2.351205
538.90 2.4061
539.00 2.408408
539.10 2.381825
539.20 2.312817
539.30 2.21693
539.40 2.217651
539.50 2.203462
539.60 2.189977
539.70 2.137157
539.80 2.09866
539.90 2.141374
540.00 2.299487
540.10 2.453955
540.20 2.526437
540.30 2.550544
540.40 2.512299
540.50 2.411514
540.60 2.212276
540.70 2.120805
540.80 2.152288
540.90 2.235195
541.00 2.212654
541.10 2.084749
541.20 2.085507
541.30 2.148942
541.40 2.216916
541.50 2.325721
541.60 2.407926
541.70 2.407085
541.80 2.409446
541.90 2.511463
542.00 2.551968
542.10 2.463613
542.20 2.431466
542.30 2.459737
542.40 2.387564
542.50 2.379694
542.60 2.414996
542.70 2.43658
542.80 2.444425
542.90 2.417165
543.00 2.309419
543.10 2.21708
543.20 2.219541
543.30 2.232254
543.40 2.263842
543.50 2.269393
543.60 2.229731
543.70 2.330082
543.80 2.485295
543.90 2.528495
544.00 2.526076
544.10 2.584818
544.20 2.723689
544.30 2.785227
544.40 2.822247
544.50 2.789518
544.60 2.692499
544.70 2.410907
544.80 2.075453
544.90 1.734397
545.00 1.448259
545.10 1.268464
545.20 1.244352
545.30 1.246702
545.40 1.226191
545.50 1.296749
545.60 1.325569
545.70 1.294078
545.80 1.283649
545.90 1.339985
546.00 1.408191
546.10 1.454049
546.20 1.468336
546.30 1.554125
546.40 1.586914
546.50 1.586881
546.60 1.654232
546.70 1.741572
546.80 1.80579
546.90 1.78586
547.00 1.680516
547.10 1.627277
547.20 1.673341
547.30 1.676221
547.40 1.695674
547.50 1.703816
547.60 1.699216
547.70 1.651161
547.80 1.671766
547.90 1.672165
548.00 1.666534
548.10 1.686468
548.20 1.711782
548.30 1.725116
548.40 1.795719
548.50 1.854883
548.60 1.869159
548.70 1.876241
548.80 1.867971
548.90 1.838627
549.00 1.801992
549.10 1.817199
549.20 1.862086
549.30 1.915586
549.40 1.933697
549.50 1.942501
549.60 1.879326
549.70 1.706865
549.80 1.569263
549.90 1.497639
550.00 1.392236
550.10 1.358395
550.20 1.321512
550.30 1.312775
550.40 1.340324
550.50 1.311861
550.60 1.25644
550.70 1.250567
550.80 1.299508
550.90 1.312273
551.00 1.326854
551.10 1.314356
551.20 1.302009
551.30 1.320659
551.40 1.26297
551.50 1.248383
551.60 1.26675
551.70 1.300024
551.80 1.263541
551.90 1.262797
552.00 1.266992
552.10 1.258068
552.20 1.256151
552.30 1.287054
552.40 1.263579
552.50 1.198996
552.60 1.160791
552.70 1.160677
552.80 1.223193
552.90 1.22064
553.00 1.221887
553.10 1.249368
553.20 1.225463
553.30 1.184277
553.40 1.194228
553.50 1.178987
553.60 1.091012
553.70 1.054795
553.80 1.07674
553.90 1.071983
554.00 1.062462
554.10 1.087126
554.20 1.084507
554.30 1.018805
554.40 1.016711
554.50 1.085069
554.60 1.045358
554.70 1.011619
554.80 1.059892
554.90 1.133763
555.00 1.142505
555.10 1.130421
555.20 1.130045
555.30 1.183298
555.40 1.172372
555.50 1.157308
555.60 1.211298
555.70 1.325766
555.80 1.400456
555.90 1.39474
556.00 1.382744
556.10 1.397274
556.20 1.425305
556.30 1.455519
556.40 1.485893
556.50 1.541127
556.60 1.604696
556.70 1.610373
556.80 1.59636
556.90 1.552498
557.00 1.614274
557.10 1.70247
557.20 1.693597
557.30 1.692366
557.40 1.692324
557.50 1.692325
557.60 1.692325
557.70 1.692325
557.80 1.692325
557.90 1.692325
558.00 1.692325
558.10 1.692322
558.20 1.692241
558.30 1.691607
558.40 1.684426
558.50 1.739303
558.60 1.914324
558.70 1.994213
558.80 1.932521
558.90 1.814408
559.00 1.743067
559.10 1.803755
559.20 1.919115
559.30 1.936871
559.40 1.8838
559.50 1.830951
559.60 1.795338
559.70 1.803833
559.80 1.747811
559.90 1.57786
560.00 1.420083
560.10 1.421305
560.20 1.536528
560.30 1.64948
560.40 1.648311
560.50 1.552257
560.60 1.509502
560.70 1.505707
560.80 1.532947
560.90 1.566753
561.00 1.581952
561.10 1.593577
561.20 1.647511
561.30 1.679996
561.40 1.722281
561.50 1.681317
561.60 1.603821
561.70 1.559049
561.80 1.563286
561.90 1.559014
562.00 1.505464
562.10 1.513256
562.20 1.525565
562.30 1.537537
562.40 1.587095
562.50 1.65213
562.60 1.630828
562.70 1.620735
562.80 1.677563
562.90 1.649325
563.00 1.501153
563.10 1.375081
563.20 1.363335
563.30 1.413897
563.40 1.532044
563.50 1.654356
563.60 1.646065
563.70 1.604699
563.80 1.606905
563.90 1.607516
564.00 1.589719
564.10 1.56802
564.20 1.563223
564.30 1.578704
564.40 1.609353
564.50 1.601666
564.60 1.600467
564.70 1.619919
564.80 1.673159
564.90 1.708585
565.00 1.7315
565.10 1.783669
565.20 1.846223
565.30 1.87239
565.40 1.865509
565.50 1.849643
565.60 1.865268
565.70 1.939687
565.80 1.966796
565.90 1.939907
566.00 1.920502
566.10 1.909562
566.20 1.82909
566.30 1.791281
566.40 1.739701
566.50 1.695454
566.60 1.691108
566.70 1.724673
566.80 1.740198
566.90 1.684092
567.00 1.624642
567.10 1.579833
567.20 1.601767
567.30 1.626687
567.40 1.635247
567.50 1.66696
567.60 1.713629
567.70 1.72568
567.80 1.758585
567.90 1.798933
568.00 1.850458
568.10 1.856347
568.20 1.840927
568.30 1.830908
568.40 1.850699
568.50 1.931527
568.60 1.98446
568.70 2.021934
568.80 1.954619
568.90 1.871565
569.00 1.835076
569.10 1.855211
569.20 1.922721
569.30 1.954941
569.40 1.97232
569.50 1.953322
569.60 1.90778
569.70 1.911087
569.80 1.944633
569.90 1.99128
570.00 2.022038
570.10 2.040871
570.20 2.092251
570.30 2.069849
570.40 1.985429
570.50 2.052557
570.60 2.162993
570.70 2.20252
570.80 2.194395
570.90 2.225796
571.00 2.256414
571.10 2.278229
571.20 2.252838
571.30 2.227247
571.40 2.167077
571.50 2.096632
571.60 2.087474
571.70 2.069777
571.80 2.028656
571.90 2.001773
572.00 2.001764
572.10 2.017138
572.20 2.03682
572.30 2.044581
572.40 2.112893
572.50 2.098784
572.60 2.106731
572.70 2.084952
572.80 2.082958
572.90 2.002633
573.00 2.026135
573.10 2.103164
573.20 2.194835
573.30 2.220041
573.40 2.266816
573.50 2.254918
573.60 2.220924
573.70 2.168274
573.80 2.143971
573.90 2.12367
574.00 2.066266
574.10 2.131112
574.20 2.237142
574.30 2.236397
574.40 2.173558
574.50 2.23475
574.60 2.307824
574.70 2.30048
574.80 2.327343
574.90 2.361067
575.00 2.394086
575.10 2.458771
575.20 2.494927
575.30 2.472761
575.40 2.468974
575.50 2.48348
575.60 2.499185
575.70 2.513891
575.80 2.513506
575.90 2.456676
576.00 2.285401
576.10 2.098732
576.20 1.969608
576.30 1.86651
576.40 1.847519
576.50 1.828218
576.60 1.798562
576.70 1.838457
576.80 1.922867
576.90 1.984028
577.00 2.008751
577.10 2.03803
577.20 2.021229
577.30 1.992686
577.40 2.039196
577.50 2.053168
577.60 2.029443
577.70 1.979088
577.80 2.045139
577.90 2.096794
578.00 2.137967
578.10 2.157064
578.20 2.179473
578.30 2.167662
578.40 2.179375
578.50 2.274729
578.60 2.323477
578.70 2.251965
578.80 2.176697
578.90 2.233845
579.00 2.258798
579.10 2.221356
579.20 2.206994
579.30 2.315522
579.40 2.406529
579.50 2.483766
579.60 2.557416
579.70 2.537463
579.80 2.508428
579.90 2.527462
580.00 2.595331
580.10 2.597143
580.20 2.559585
580.30 2.54285
580.40 2.591294
580.50 2.641169
580.60 2.601899
580.70 2.589627
580.80 2.649838
580.90 2.658649
581.00 2.607433
581.10 2.510392
581.20 2.302206
581.30 2.146541
581.40 2.090036
581.50 2.020901
581.60 1.968897
581.70 1.953253
581.80 1.919391
581.90 1.862746
582.00 1.861285
582.10 1.878168
582.20 1.883882
582.30 1.862962
582.40 1.932292
582.50 1.916938
582.60 1.911952
582.70 1.96286
582.80 2.011235
582.90 1.968945
583.00 1.984485
583.10 2.039499
583.20 2.067189
583.30 2.153005
583.40 2.233815
583.50 2.196953
583.60 2.121063
583.70 2.125296
583.80 2.049462
583.90 1.997237
584.00 2.012548
584.10 1.994066
584.20 1.992546
584.30 2.027098
584.40 2.075191
584.50 2.12574
584.60 2.107175
584.70 2.065807
584.80 1.982093
584.90 1.838072
585.00 1.662481
585.10 1.564577
585.20 1.532858
585.30 1.520397
585.40 1.54441
585.50 1.554941
585.60 1.542456
585.70 1.507443
585.80 1.465772
585.90 1.498734
586.00 1.538048
586.10 1.503755
586.20 1.546023
586.30 1.51308
586.40 1.411129
586.50 1.348058
586.60 1.354254
586.70 1.34369
586.80 1.417665
586.90 1.530589
587.00 1.530132
587.10 1.424253
587.20 1.344115
587.30 1.270643
587.40 1.217602
587.50 1.249507
587.60 1.269408
587.70 1.280084
587.80 1.261154
587.90 1.205193
588.00 1.171229
588.10 1.143161
588.20 1.124842
588.30 1.059896
588.40 1.014789
588.50 1.025182
588.60 0.9529538
588.70 0.818948
588.80 0.7372963
588.90 0.7543611
589.00 0.8093262
589.10 0.7789886
589.20 0.5864349
589.30 0.5504301
589.40 0.7013023
589.50 0.7948038
589.60 0.6902579
589.70 0.5632429
589.80 0.5599847
589.90 0.5735384
590.00 0.7103865
590.10 0.8565659
590.20 0.9352311
590.30 0.9256967
590.40 0.9567029
590.50 0.9939815
590.60 1.014974
590.70 1.062014
590.80 1.037801
590.90 0.9724721
591.00 1.00486
591.10 1.103539
591.20 1.138782
591.30 1.100032
591.40 1.086717
591.50 1.087138
591.60 1.100622
591.70 1.147683
591.80 1.20283
591.90 1.225884
592.00 1.220435
592.10 1.201118
592.20 1.207672
592.30 1.215324
592.40 1.209188
592.50 1.164407
592.60 1.182555
592.70 1.164761
592.80 1.153575
592.90 1.199065
593.00 1.214653
593.10 1.23086
593.20 1.235611
593.30 1.27616
593.40 1.316103
593.50 1.300925
593.60 1.348661
593.70 1.425651
593.80 1.490899
593.90 1.487995
594.00 1.424641
594.10 1.421083
594.20 1.434288
594.30 1.486009
594.40 1.51516
594.50 1.552254
594.60 1.548929
594.70 1.542789
594.80 1.528547
594.90 1.478484
595.00 1.437033
595.10 1.40399
595.20 1.386199
595.30 1.346081
595.40 1.340333
595.50 1.381595
595.60 1.39517
595.70 1.388878
595.80 1.330331
595.90 1.304112
596.00 1.248814
596.10 1.262846
596.20 1.323629
596.30 1.328542
596.40 1.337233
596.50 1.34719
596.60 1.398346
596.70 1.402882
596.80 1.432354
596.90 1.43919
597.00 1.444308
597.10 1.453696
597.20 1.440521
597.30 1.386009
597.40 1.347714
597.50 1.361113
597.60 1.389397
597.70 1.402641
597.80 1.452639
597.90 1.498543
598.00 1.519002
598.10 1.48766
598.20 1.491874
598.30 1.5586
598.40 1.573315
598.50 1.56059
598.60 1.586919
598.70 1.587482
598.80 1.604371
598.90 1.586351
599.00 1.598668
599.10 1.62023
599.20 1.668348
599.30 1.735803
599.40 1.759488
599.50 1.741461
599.60 1.742884
599.70 1.764556
599.80 1.782464
599.90 1.779727
600.00 1.740278
600.10 1.690834
600.20 1.649553
600.30 1.609541
600.40 1.639392
600.50 1.659806
600.60 1.658458
600.70 1.641024
600.80 1.653712
600.90 1.643711
601.00 1.623176
601.10 1.653047
601.20 1.690244
601.30 1.718737
601.40 1.730007
601.50 1.734703
601.60 1.73498
601.70 1.760142
601.80 1.776437
601.90 1.775255
602.00 1.792704
602.10 1.793025
602.20 1.783545
602.30 1.772836
602.40 1.816879
602.50 1.879049
602.60 1.886762
602.70 1.861848
602.80 1.879675
602.90 1.892186
603.00 1.896181
603.10 1.882494
603.20 1.918985
603.30 1.95646
603.40 1.994537
603.50 1.967215
603.60 1.897119
603.70 1.816007
603.80 1.727951
603.90 1.661602
604.00 1.74245
604.10 1.859195
604.20 1.920688
604.30 1.990563
604.40 2.024402
604.50 2.035981
604.60 2.045314
604.70 2.12163
604.80 2.186204
604.90 2.143448
605.00 2.113263
605.10 2.173445
605.20 2.174756
605.30 2.088015
605.40 2.026463
605.50 2.051256
605.60 2.080966
605.70 2.12202
605.80 2.149842
605.90 2.148433
606.00 2.149834
606.10 2.175106
606.20 2.211876
606.30 2.181737
606.40 2.130265
606.50 2.072472
606.60 1.978095
606.70 1.948076
606.80 2.029148
606.90 2.158416
607.00 2.240186
607.10 2.27115
607.20 2.299464
607.30 2.260035
607.40 2.178676
607.50 2.132844
607.60 2.171049
607.70 2.233625
607.80 2.278693
607.90 2.250344
608.00 2.133412
608.10 2.047838
608.20 2.018835
608.30 2.045195
608.40 2.0907
608.50 2.094234
608.60 2.106569
608.70 2.155452
608.80 2.176065
608.90 2.157091
609.00 2.138183
609.10 2.156922
609.20 2.177076
609.30 2.225568
609.40 2.257617
609.50 2.281576
609.60 2.289124
609.70 2.29857
609.80 2.333256
609.90 2.34669
610.00 2.316812
610.10 2.276533
610.20 2.233397
610.30 2.174763
610.40 2.086335
610.50 2.07053
610.60 2.12587
610.70 2.193838
610.80 2.243915
610.90 2.280755
611.00 2.29349
611.10 2.262426
611.20 2.228513
611.30 2.229507
611.40 2.253915
611.50 2.280486
611.60 2.269742
611.70 2.211724
611.80 2.133639
611.90 2.133376
612.00 2.150824
612.10 2.127469
612.20 2.056076
612.30 1.990772
612.40 2.00886
612.50 2.087512
612.60 2.178935
612.70 2.236375
612.80 2.169713
612.90 2.143251
613.00 2.241316
613.10 2.304852
613.20 2.241623
613.30 2.16836
613.40 2.154164
613.50 2.136301
613.60 2.15121
613.70 2.157888
613.80 2.156555
613.90 2.142191
614.00 2.204051
614.10 2.265534
614.20 2.256905
614.30 2.216208
614.40 2.238528
614.50 2.293898
614.60 2.309545
614.70 2.315829
614.80 2.252415
614.90 2.100576
615.00 1.96057
615.10 1.822528
615.20 1.7493
615.30 1.785912
615.40 1.8648
615.50 1.871827
615.60 1.791282
615.70 1.764897
615.80 1.749449
615.90 1.62626
616.00 1.466638
616.10 1.329609
616.20 1.21849
616.30 1.143237
616.40 1.128959
616.50 1.167122
616.60 1.176191
616.70 1.152488
616.80 1.176178
616.90 1.217886
617.00 1.235385
617.10 1.217645
617.20 1.247248
617.30 1.293819
617.40 1.275147
617.50 1.231884
617.60 1.229878
617.70 1.203954
617.80 1.215494
617.90 1.257347
618.00 1.263774
618.10 1.233095
618.20 1.20637
618.30 1.236393
618.40 1.247882
618.50 1.208528
618.60 1.184043
618.70 1.140401
618.80 1.1166
618.90 1.10185
619.00 1.074114
619.10 1.051669
619.20 1.028808
619.30 1.029101
619.40 1.045864
619.50 1.054841
619.60 1.047864
619.70 1.039808
619.80 1.03738
619.90 1.072917
620.00 1.133682
620.10 1.158742
620.20 1.120087
620.30 1.106526
620.40 1.139356
620.50 1.165673
620.60 1.198518
620.70 1.194205
620.80 1.198633
620.90 1.217016
621.00 1.210122
621.10 1.21048
621.20 1.206531
621.30 1.159935
621.40 1.119514
621.50 1.094738
621.60 1.053741
621.70 1.009531
621.80 1.00503
621.90 1.018371
622.00 1.052269
622.10 1.082176
622.20 1.081653
622.30 1.031164
622.40 0.9826718
622.50 0.9294333
622.60 0.9240762
622.70 0.9636983
622.80 0.9532215
622.90 0.9692106
623.00 1.003806
623.10 0.9871175
623.20 0.9643203
623.30 0.9700511
623.40 1.0027
623.50 1.024646
623.60 1.026941
623.70 1.087196
623.80 1.073982
623.90 0.9797881
624.00 0.9609549
624.10 1.030875
624.20 1.073061
624.30 1.043891
624.40 1.068849
624.50 1.091024
624.60 1.094281
624.70 1.09631
624.80 1.078287
624.90 1.112978
625.00 1.132676
625.10 1.120691
625.20 1.134637
625.30 1.176385
625.40 1.212084
625.50 1.20633
625.60 1.193954
625.70 1.202863
625.80 1.223095
625.90 1.272301
626.00 1.309051
626.10 1.300143
626.20 1.287903
626.30 1.305127
626.40 1.366328
626.50 1.415585
626.60 1.440073
626.70 1.446027
626.80 1.372023
626.90 1.307025
627.00 1.313945
627.10 1.361868
627.20 1.412714
627.30 1.463059
627.40 1.510675
627.50 1.485809
627.60 1.401862
627.70 1.377215
627.80 1.389434
627.90 1.367998
628.00 1.366045
628.10 1.402186
628.20 1.443754
628.30 1.454441
628.40 1.492952
628.50 1.526198
628.60 1.557427
628.70 1.604003
628.80 1.642621
628.90 1.651954
629.00 1.666696
629.10 1.697385
629.20 1.696736
629.30 1.703959
629.40 1.709084
629.50 1.722655
629.60 1.721097
629.70 1.770995
629.80 1.822428
629.90 1.853148
630.00 1.914609
630.10 2.1252
630.20 2.151342
630.30 1.788523
630.40 1.744994
630.50 1.931202
630.60 2.083897
630.70 2.109289
630.80 2.106786
630.90 2.129352
631.00 2.12482
631.10 2.122284
631.20 2.182938
631.30 2.254573
631.40 2.31393
631.50 2.338326
631.60 2.357408
631.70 2.383021
631.80 2.399043
631.90 2.435455
632.00 2.450449
632.10 2.435956
632.20 2.394283
632.30 2.336335
632.40 2.288759
632.50 2.299253
632.60 2.361844
632.70 2.383963
632.80 2.425419
632.90 2.460538
633.00 2.469437
633.10 2.471071
633.20 2.461757
633.30 2.491982
633.40 2.529668
633.50 2.595336
633.60 2.649717
633.70 2.635803
633.80 2.616044
633.90 2.633301
634.00 2.689213
634.10 2.758618
634.20 2.842466
634.30 2.891715
634.40 2.878015
634.50 2.877198
634.60 2.881812
634.70 2.919539
634.80 2.981868
634.90 3.010761
635.00 3.011102
635.10 3.004464
635.20 2.945384
635.30 2.837845
635.40 2.765151
635.50 2.734348
635.60 2.712611
635.70 2.682138
635.80 2.610049
635.90 2.524411
636.00 2.492614
636.10 2.507185
636.20 2.547097
636.30 2.625741
636.40 2.709562
636.50 2.67282
636.60 2.533832
636.70 2.466713
636.80 2.547347
636.90 2.608685
637.00 2.611058
637.10 2.624737
637.20 2.666497
637.30 2.720686
637.40 2.726077
637.50 2.676304
637.60 2.666406
637.70 2.679003
637.80 2.669635
637.90 2.639731
638.00 2.559039
638.10 2.461489
638.20 2.359134
638.30 2.301465
638.40 2.318665
638.50 2.391194
638.60 2.414101
638.70 2.371845
638.80 2.327593
638.90 2.321325
639.00 2.347658
639.10 2.403431
639.20 2.477422
639.30 2.536686
639.40 2.591973
639.50 2.677706
639.60 2.7587
639.70 2.84159
639.80 2.896554
639.90 2.939445
640.00 2.972628
640.10 2.966896
640.20 2.989447
640.30 3.026252
640.40 3.085914
640.50 3.157288
640.60 3.218279
640.70 3.247847
640.80 3.262232
640.90 3.282904
641.00 3.286274
641.10 3.281418
641.20 3.274956
641.30 3.28272
641.40 3.271285
641.50 3.248246
641.60 3.204712
641.70 3.142067
641.80 3.11306
641.90 3.097133
642.00 3.069888
642.10 3.046358
642.20 2.989187
642.30 2.945338
642.40 2.95355
642.50 2.995373
642.60 3.045047
642.70 3.073543
642.80 3.08787
642.90 3.094053
643.00 3.097315
643.10 3.141404
643.20 3.186743
643.30 3.193324
643.40 3.197909
643.50 3.210123
643.60 3.246887
643.70 3.276749
643.80 3.236472
643.90 3.200072
644.00 3.167896
644.10 3.177203
644.20 3.26759
644.30 3.414776
644.40 3.548855
644.50 3.612982
644.60 3.638948
644.70 3.600345
644.80 3.507009
644.90 3.398521
645.00 3.303853
645.10 3.222966
645.20 3.251012
645.30 3.382401
645.40 3.516246
645.50 3.596416
645.60 3.575758
645.70 3.569744
645.80 3.588055
645.90 3.629992
646.00 3.656712
646.10 3.647461
646.20 3.588822
646.30 3.499882
646.40 3.455403
646.50 3.503403
646.60 3.617322
646.70 3.729484
646.80 3.834359
646.90 3.907437
647.00 3.927506
647.10 3.921972
647.20 3.91718
647.30 3.955096
647.40 4.025313
647.50 4.035203
647.60 4.034283
647.70 4.061587
647.80 4.062209
647.90 4.018339
648.00 3.884727
648.10 3.73464
648.20 3.636552
648.30 3.612111
648.40 3.575488
648.50 3.492211
648.60 3.4299
648.70 3.443457
648.80 3.50024
648.90 3.564648
649.00 3.633767
649.10 3.707631
649.20 3.7454
649.30 3.709123
649.40 3.666026
649.50 3.607167
649.60 3.575474
649.70 3.604703
649.80 3.703094
649.90 3.789197
650.00 3.84836
650.10 3.86745
650.20 3.89369
650.30 3.997531
650.40 4.130903
650.50 4.220632
650.60 4.217558
650.70 4.234105
650.80 4.301907
650.90 4.324194
651.00 4.340077
651.10 4.386595
651.20 4.397672
651.30 4.363365
651.40 4.263725
651.50 4.181791
651.60 4.15892
651.70 4.218483
651.80 4.299898
651.90 4.356653
652.00 4.413842
652.10 4.468897
652.20 4.546091
652.30 4.624235
652.40 4.672189
652.50 4.671282
652.60 4.671203
652.70 4.709116
652.80 4.760501
652.90 4.81985
653.00 4.8606
653.10 4.898379
653.20 4.936808
653.30 4.943635
653.40 4.953182
653.50 4.962225
653.60 5.018502
653.70 5.11047
653.80 5.186571
653.90 5.276317
654.00 5.376738
654.10 5.412094
654.20 5.388987
654.30 5.304649
654.40 5.161822
654.50 4.997936
654.60 4.866966
654.70 4.770716
654.80 4.705758
654.90 4.634701
655.00 4.518234
655.10 4.409413
655.20 4.328285
655.30 4.291624
655.40 4.299485
655.50 4.293574
655.60 4.293574
655.70 4.325472
655.80 4.425851
655.90 4.549357
656.00 4.653949
656.10 4.865642
656.20 5.411536
656.30 6.199189
656.40 6.794913
656.50 6.727361
656.60 5.946956
656.70 4.950569
656.80 4.259917
656.90 4.019376
657.00 3.98509
657.10 3.966601
657.20 3.868734
657.30 3.724465
657.40 3.676074
657.50 3.682161
657.60 3.757318
657.70 3.888134
657.80 3.936492
657.90 3.899794
658.00 3.759867
658.10 3.623431
658.20 3.616267
658.30 3.728517
658.40 3.841356
658.50 3.911503
658.60 3.981491
658.70 4.063762
658.80 4.129391
658.90 4.190046
659.00 4.238989
659.10 4.228121
659.20 4.178064
659.30 4.08999
659.40 3.950103
659.50 3.790074
659.60 3.696332
659.70 3.712631
659.80 3.789995
659.90 3.826065
660.00 3.828239
660.10 3.799962
660.20 3.7685
660.30 3.805581
660.40 3.881572
660.50 3.913138
660.60 3.846872
660.70 3.771781
660.80 3.752221
660.90 3.764672
661.00 3.770712
661.10 3.789394
661.20 3.849418
661.30 3.893381
661.40 3.918204
661.50 3.937924
661.60 3.913476
661.70 3.860441
661.80 3.775787
661.90 3.668288
662.00 3.587817
662.10 3.553957
662.20 3.534955
662.30 3.521566
662.40 3.51484
662.50 3.444548
662.60 3.299021
662.70 3.176616
662.80 3.124233
662.90 3.126802
663.00 3.168314
663.10 3.270858
663.20 3.385686
663.30 3.475858
663.40 3.52234
663.50 3.476902
663.60 3.340862
663.70 3.145401
663.80 2.992862
663.90 2.97198
664.00 3.029554
664.10 3.106418
664.20 3.178657
664.30 3.257237
664.40 3.322648
664.50 3.347236
664.60 3.336679
664.70 3.342877
664.80 3.345332
664.90 3.288429
665.00 3.151181
665.10 2.938948
665.20 2.730854
665.30 2.555867
665.40 2.465027
665.50 2.492638
665.60 2.571657
665.70 2.62465
665.80 2.602021
665.90 2.584525
666.00 2.612156
666.10 2.674668
666.20 2.737279
666.30 2.754945
666.40 2.787969
666.50 2.842647
666.60 2.890144
666.70 2.950121
666.80 2.991628
666.90 3.044219
667.00 3.103136
667.10 3.118802
667.20 3.118473
667.30 3.098916
667.40 3.070763
667.50 3.032759
667.60 3.008892
667.70 3.02274
667.80 3.05414
667.90 3.072323
668.00 3.001182
668.10 2.824644
668.20 2.583871
668.30 2.369954
668.40 2.278163
668.50 2.281731
668.60 2.341222
668.70 2.400786
668.80 2.420898
668.90 2.467319
669.00 2.494931
669.10 2.499766
669.20 2.490242
669.30 2.461288
669.40 2.437445
669.50 2.437713
669.60 2.490676
669.70 2.555814
669.80 2.595398
669.90 2.626311
670.00 2.658581
670.10 2.685949
670.20 2.698582
670.30 2.71977
670.40 2.747146
670.50 2.761315
670.60 2.784701
670.70 2.822417
670.80 2.817183
670.90 2.816845
671.00 2.845209
671.10 2.853089
671.20 2.854088
671.30 2.837701
671.40 2.767706
671.50 2.609686
671.60 2.422585
671.70 2.271057
671.80 2.162528
671.90 2.078709
672.00 2.038731
672.10 2.041576
672.20 2.067926
672.30 2.099654
672.40 2.140882
672.50 2.206688
672.60 2.250162
672.70 2.293422
672.80 2.354029
672.90 2.38464
673.00 2.363105
673.10 2.334791
673.20 2.35481
673.30 2.404802
673.40 2.443662
673.50 2.439084
673.60 2.424164
673.70 2.423572
673.80 2.442251
673.90 2.498697
674.00 2.555798
674.10 2.579564
674.20 2.579755
674.30 2.582714
674.40 2.61257
674.50 2.662394
674.60 2.696158
674.70 2.629496
674.80 2.490389
674.90 2.345386
675.00 2.245204
675.10 2.240235
675.20 2.255498
675.30 2.291871
675.40 2.337531
675.50 2.38688
675.60 2.415172
675.70 2.420424
675.80 2.447394
675.90 2.471842
676.00 2.459504
676.10 2.445063
676.20 2.478097
676.30 2.536663
676.40 2.581449
676.50 2.625235
676.60 2.677554
676.70 2.726022
676.80 2.766448
676.90 2.782278
677.00 2.765845
677.10 2.764235
677.20 2.771939
677.30 2.779964
677.40 2.817923
677.50 2.860622
677.60 2.896576
677.70 2.927154
677.80 2.929132
677.90 2.90732
678.00 2.883225
678.10 2.834184
678.20 2.715704
678.30 2.536947
678.40 2.372841
678.50 2.273757
678.60 2.237475
678.70 2.245189
678.80 2.282278
678.90 2.344273
679.00 2.385511
679.10 2.401766
679.20 2.424309
679.30 2.432476
679.40 2.437163
679.50 2.453115
679.60 2.486607
679.70 2.518503
679.80 2.523208
679.90 2.523787
680.00 2.519219
680.10 2.544808
680.20 2.596821
680.30 2.622016
680.40 2.635723
680.50 2.641147
680.60 2.629621
680.70 2.617275
680.80 2.600076
680.90 2.605826
681.00 2.640384
681.10 2.663807
681.20 2.698974
681.30 2.745309
681.40 2.77558
681.50 2.770504
681.60 2.70301
681.70 2.594174
681.80 2.51226
681.90 2.52903
682.00 2.5845
682.10 2.609101
682.20 2.619809
682.30 2.617276
682.40 2.600571
682.50 2.596483
682.60 2.625168
682.70 2.686742
682.80 2.759016
682.90 2.808373
683.00 2.800359
683.10 2.766962
683.20 2.760959
683.30 2.778198
683.40 2.806699
683.50 2.812532
683.60 2.807737
683.70 2.768969
683.80 2.735425
683.90 2.749426
684.00 2.762294
684.10 2.822573
684.20 2.886593
684.30 2.906612
684.40 2.911616
684.50 2.898125
684.60 2.888594
684.70 2.874164
684.80 2.851492
684.90 2.824943
685.00 2.799549
685.10 2.748135
685.20 2.647328
685.30 2.548258
685.40 2.519156
685.50 2.555549
685.60 2.595278
685.70 2.615081
685.80 2.623342
685.90 2.612647
686.00 2.590911
686.10 2.576483
686.20 2.592443
686.30 2.642604
686.40 2.728383
686.50 2.849463
686.60 2.909795
686.70 2.859804
686.80 2.754783
686.90 2.703072
687.00 2.711937
687.10 2.681801
687.20 2.68693
687.30 2.752532
687.40 2.84472
687.50 2.952288
687.60 3.007684
687.70 3.030068
687.80 3.066697
687.90 3.088615
688.00 3.081779
688.10 3.084533
688.20 3.062065
688.30 3.009278
688.40 2.95455
688.50 2.883994
688.60 2.83345
688.70 2.804706
688.80 2.828141
688.90 2.917346
689.00 2.995273
689.10 3.025246
689.20 3.024083
689.30 3.034977
689.40 3.055434
689.50 3.093739
689.60 3.128349
689.70 3.145353
689.80 3.16175
689.90 3.150828
690.00 3.096623
690.10 2.99455
690.20 2.861333
690.30 2.817183
690.40 2.883467
690.50 3.014752
690.60 3.173507
690.70 3.317833
690.80 3.428878
690.90 3.48641
691.00 3.492056
691.10 3.456608
691.20 3.420361
691.30 3.44958
691.40 3.523365
691.50 3.563403
691.60 3.566264
691.70 3.522278
691.80 3.376054
691.90 3.156388
692.00 2.963366
692.10 2.919866
692.20 3.068671
692.30 3.326518
692.40 3.575929
692.50 3.695032
692.60 3.694681
692.70 3.703563
692.80 3.703605
692.90 3.697591
693.00 3.741553
693.10 3.8224
693.20 3.923847
693.30 4.016961
693.40 4.085028
693.50 4.098917
693.60 4.063315
693.70 4.044988
693.80 4.064609
693.90 4.080375
694.00 4.096934
694.10 4.137035
694.20 4.218675
694.30 4.33073
694.40 4.464551
694.50 4.586536
694.60 4.642942
694.70 4.699302
694.80 4.803454
694.90 4.884933
695.00 4.902819
695.10 4.867634
695.20 4.806581
695.30 4.685017
695.40 4.549602
695.50 4.478667
695.60 4.470194
695.70 4.497339
695.80 4.50289
695.90 4.488469
696.00 4.472368
696.10 4.486864
696.20 4.507232
696.30 4.538327
696.40 4.598711
696.50 4.672325
696.60 4.744775
696.70 4.777534
696.80 4.792314
696.90 4.817628
697.00 4.817858
697.10 4.779028
697.20 4.724022
697.30 4.693287
697.40 4.716236
697.50 4.771275
697.60 4.855957
697.70 4.981971
697.80 5.093878
697.90 5.134232
698.00 5.136111
698.10 5.094114
698.20 5.073608
698.30 5.130569
698.40 5.185875
698.50 5.230756
698.60 5.252631
698.70 5.259267
698.80 5.261235
698.90 5.238444
699.00 5.177283
699.10 5.082472
699.20 5.00353
699.30 4.973452
699.40 5.005653
699.50 5.07314
699.60 5.128533
699.70 5.182266
699.80 5.232891
699.90 5.230434
700.00 5.180373
700.10 5.174522
700.20 5.241307
700.30 5.34303
700.40 5.376545
700.50 5.294957
700.60 5.192795
700.70 5.191457
700.80 5.311369
700.90 5.453686
701.00 5.509057
701.10 5.506446
701.20 5.522998
701.30 5.609201
701.40 5.758494
701.50 5.87929
701.60 5.915529
701.70 5.875893
701.80 5.819578
701.90 5.827039
702.00 5.914312
702.10 6.040214
702.20 6.112657
702.30 6.07235
702.40 5.927883
702.50 5.739564
702.60 5.627968
702.70 5.668188
702.80 5.887356
702.90 6.223951
703.00 6.516059
703.10 6.664202
703.20 6.678196
703.30 6.623726
703.40 6.582655
703.50 6.661332
703.60 6.868009
703.70 7.112789
703.80 7.258689
703.90 7.280552
704.00 7.272708
704.10 7.317798
704.20 7.425016
704.30 7.569335
704.40 7.676493
704.50 7.716967
704.60 7.73006
704.70 7.746465
704.80 7.794412
704.90 7.837939
705.00 7.829495
705.10 7.82399
705.20 7.808821
705.30 7.630327
705.40 7.089706
705.50 6.142878
705.60 5.034417
705.70 4.164981
705.80 3.797908
705.90 3.836884
706.00 3.945897
706.10 3.854903
706.20 3.656587
706.30 3.532803
706.40 3.568539
706.50 3.715789
706.60 3.872562
706.70 4.003067
706.80 4.114663
706.90 4.188264
707.00 4.221589
707.10 4.274968
707.20 4.37642
707.30 4.493913
707.40 4.564953
707.50 4.571894
707.60 4.551727
707.70 4.553147
707.80 4.570194
707.90 4.590398
708.00 4.634609
708.10 4.697294
708.20 4.766044
708.30 4.824558
708.40 4.862892
708.50 4.901186
708.60 4.894853
708.70 4.711166
708.80 4.276612
708.90 3.670443
709.00 3.105985
709.10 2.776544
709.20 2.734568
709.30 2.860322
709.40 2.974823
709.50 2.999978
709.60 2.954595
709.70 2.907545
709.80 2.94443
709.90 3.055651
710.00 3.168639
710.10 3.222931
710.20 3.206499
710.30 3.163224
710.40 3.157871
710.50 3.202509
710.60 3.297308
710.70 3.401113
710.80 3.499129
710.90 3.633263
711.00 3.792435
711.10 3.936246
711.20 4.027943
711.30 4.053095
711.40 4.040187
711.50 4.029486
711.60 4.011317
711.70 3.983804
711.80 3.985126
711.90 4.066199
712.00 4.20312
712.10 4.328321
712.20 4.4216
712.30 4.472138
712.40 4.404069
712.50 4.116546
712.60 3.595342
712.70 2.970726
712.80 2.475275
712.90 2.282716
713.00 2.330417
713.10 2.436747
713.20 2.47086
713.30 2.405282
713.40 2.341229
713.50 2.357429
713.60 2.435081
713.70 2.490167
713.80 2.49499
713.90 2.47049
714.00 2.456124
714.10 2.504211
714.20 2.610744
714.30 2.744466
714.40 2.843566
714.50 2.872299
714.60 2.856889
714.70 2.830533
714.80 2.835728
714.90 2.872525
715.00 2.906295
715.10 2.932217
715.20 2.982513
715.30 3.053379
715.40 3.142454
715.50 3.257074
715.60 3.364757
715.70 3.445351
715.80 3.433283
715.90 3.309789
716.00 3.147414
716.10 3.024136
716.20 2.989497
716.30 3.024128
716.40 3.072836
716.50 3.111591
716.60 3.129993
716.70 3.134653
716.80 3.136395
716.90 3.147397
717.00 3.198591
717.10 3.287292
717.20 3.377221
717.30 3.454287
717.40 3.490784
717.50 3.472906
717.60 3.448712
717.70 3.439332
717.80 3.457448
717.90 3.505501
718.00 3.581091
718.10 3.663315
718.20 3.717121
718.30 3.774728
718.40 3.821834
718.50 3.886457
718.60 3.990841
718.70 4.046469
718.80 4.055628
718.90 4.078868
719.00 4.122853
719.10 4.169789
719.20 4.189634
719.30 4.194037
719.40 4.196252
719.50 4.206551
719.60 4.202331
719.70 4.086366
719.80 3.877606
719.90 3.676136
720.00 3.548338
720.10 3.507462
720.20 3.524339
720.30 3.557724
720.40 3.580661
720.50 3.581996
720.60 3.579529
720.70 3.586639
720.80 3.612986
720.90 3.662831
721.00 3.699678
721.10 3.729775
721.20 3.772447
721.30 3.846628
721.40 3.922294
721.50 3.962067
721.60 3.993584
721.70 4.009724
721.80 4.056579
721.90 4.143896
722.00 4.194152
722.10 4.231758
722.20 4.291174
722.30 4.352567
722.40 4.408355
722.50 4.456895
722.60 4.535043
722.70 4.653513
722.80 4.742295
722.90 4.764432
723.00 4.72218
723.10 4.632578
723.20 4.545948
723.30 4.509573
723.40 4.531762
723.50 4.595213
723.60 4.689729
723.70 4.820528
723.80 4.921321
723.90 4.959265
724.00 4.974033
724.10 4.970538
724.20 4.946081
724.30 4.919337
724.40 4.970825
724.50 5.082044
724.60 5.201985
724.70 5.315296
724.80 5.33918
724.90 5.348746
725.00 5.461816
725.10 5.586575
725.20 5.624156
725.30 5.571406
725.40 5.508139
725.50 5.563366
725.60 5.695301
725.70 5.794789
725.80 5.818594
725.90 5.775275
726.00 5.75392
726.10 5.793053
726.20 5.883255
726.30 6.008227
726.40 6.136225
726.50 6.243648
726.60 6.288919
726.70 6.276531
726.80 6.289582
726.90 6.338792
727.00 6.317397
727.10 6.151633
727.20 5.894097
727.30 5.714726
727.40 5.751798
727.50 5.989667
727.60 6.306805
727.70 6.53266
727.80 6.486224
727.90 6.252782
728.00 6.103341
728.10 6.105223
728.20 6.190053
728.30 6.269587
728.40 6.349201
728.50 6.484257
728.60 6.622966
728.70 6.69669
728.80 6.727144
728.90 6.740891
729.00 6.793076
729.10 6.866607
729.20 6.906633
729.30 6.91957
729.40 6.91258
729.50 6.937284
729.60 7.027163
729.70 7.149386
729.80 7.256837
729.90 7.281157
730.00 7.22201
730.10 7.202633
730.20 7.269598
730.30 7.379142
730.40 7.485508
730.50 7.511655
730.60 7.490435
730.70 7.528676
730.80 7.642257
730.90 7.746737
731.00 7.769754
731.10 7.719982
731.20 7.688253
731.30 7.75061
731.40 7.877258
731.50 7.993956
731.60 8.104712
731.70 8.208747
731.80 8.222515
731.90 8.165989
732.00 8.118254
732.10 8.132369
732.20 8.211614
732.30 8.29447
732.40 8.334745
732.50 8.297407
732.60 8.141772
732.70 7.934961
732.80 7.889429
732.90 8.088648
733.00 8.344643
733.10 8.50534
733.20 8.558433
733.30 8.543422
733.40 8.551317
733.50 8.609259
733.60 8.711173
733.70 8.832204
733.80 8.918823
733.90 8.97472
734.00 9.060281
734.10 9.219669
734.20 9.339654
734.30 9.221146
734.40 8.914668
734.50 8.671509
734.60 8.576513
734.70 8.587317
734.80 8.699056
734.90 8.819604
735.00 8.912145
735.10 8.992784
735.20 9.056094
735.30 9.125181
735.40 9.162534
735.50 9.115319
735.60 9.00118
735.70 8.875563
735.80 8.817357
735.90 8.876366
736.00 9.011803
736.10 9.144469
736.20 9.206492
736.30 9.213164
736.40 9.271585
736.50 9.370998
736.60 9.42502
736.70 9.448715
736.80 9.503164
736.90 9.652541
737.00 9.856649
737.10 9.955241
737.20 9.89128
737.30 9.754754
737.40 9.686876
737.50 9.673253
737.60 9.650139
737.70 9.679941
737.80 9.757071
737.90 9.84244
738.00 9.897349
738.10 9.893869
738.20 9.865678
738.30 9.853245
738.40 9.863957
738.50 9.891113
738.60 9.940022
738.70 10.01439
738.80 10.09762
738.90 10.17542
739.00 10.23183
739.10 10.26698
739.20 10.25193
739.30 10.16901
739.40 10.04422
739.50 9.914991
739.60 9.844889
739.70 9.876643
739.80 9.977264
739.90 10.06667
740.00 10.07756
740.10 10.07645
740.20 10.14166
740.30 10.23211
740.40 10.2803
740.50 10.2225
740.60 10.08371
740.70 9.93827
740.80 9.87425
740.90 9.939008
741.00 10.05055
741.10 10.14021
741.20 10.197
741.30 10.2396
741.40 10.29363
741.50 10.34289
741.60 10.35572
741.70 10.29023
741.80 10.14432
741.90 10.00772
742.00 9.979619
742.10 10.06862
742.20 10.16084
742.30 10.19169
742.40 10.19006
742.50 10.22265
742.60 10.29415
742.70 10.36806
742.80 10.43503
742.90 10.48178
743.00 10.55151
743.10 10.63308
743.20 10.65163
743.30 10.61029
743.40 10.52149
743.50 10.39174
743.60 10.24731
743.70 10.16017
743.80 10.24195
743.90 10.48187
744.00 10.74315
744.10 10.81296
744.20 10.62127
744.30 10.39381
744.40 10.31872
744.50 10.34622
744.60 10.37253
744.70 10.34711
744.80 10.26052
744.90 10.17957
745.00 10.16445
745.10 10.22623
745.20 10.37314
745.30 10.52204
745.40 10.57441
745.50 10.54321
745.60 10.46677
745.70 10.42528
745.80 10.46812
745.90 10.53055
746.00 10.55341
746.10 10.52579
746.20 10.49417
746.30 10.49549
746.40 10.50368
746.50 10.52198
746.60 10.58199
746.70 10.645
746.80 10.67216
746.90 10.69435
747.00 10.74944
747.10 10.86917
747.20 10.9519
747.30 10.91123
747.40 10.77363
747.50 10.63003
747.60 10.60473
747.70 10.67509
747.80 10.7877
747.90 10.8948
748.00 10.89932
748.10 10.80788
748.20 10.7224
748.30 10.72333
748.40 10.8557
748.50 11.01764
748.60 11.02427
748.70 10.88218
748.80 10.70602
748.90 10.62434
749.00 10.66277
749.10 10.73538
749.20 10.79903
749.30 10.81303
749.40 10.7578
749.50 10.65559
749.60 10.57071
749.70 10.58199
749.80 10.73637
749.90 10.99774
750.00 11.23594
750.10 11.35279
750.20 11.3577
750.30 11.31674
750.40 11.30588
750.50 11.31056
750.60 11.24857
750.70 11.11297
750.80 11.00636
750.90 11.02899
751.00 11.21291
751.10 11.43941
751.20 11.51899
751.30 11.44301
751.40 11.32913
751.50 11.31393
751.60 11.42209
751.70 11.55176
751.80 11.61223
751.90 11.54463
752.00 11.39011
752.10 11.26698
752.20 11.21614
752.30 11.29618
752.40 11.51434
752.50 11.65994
752.60 11.58402
752.70 11.30684
752.80 10.95528
752.90 10.78806
753.00 10.88642
753.10 11.14541
753.20 11.42725
753.30 11.58164
753.40 11.56843
753.50 11.46157
753.60 11.38186
753.70 11.42058
753.80 11.57253
753.90 11.79588
754.00 12.02123
754.10 12.13903
754.20 12.12828
754.30 12.06265
754.40 12.02432
754.50 12.04546
754.60 12.08611
754.70 12.09419
754.80 12.05771
754.90 12.00549
755.00 11.98526
755.10 12.00402
755.20 12.04977
755.30 12.0966
755.40 12.09095
755.50 12.03075
755.60 11.9814
755.70 11.98143
755.80 12.02241
755.90 12.0692
756.00 12.10528
756.10 12.14176
756.20 12.13706
756.30 12.07764
756.40 12.00403
756.50 11.91147
756.60 11.80353
756.70 11.69006
756.80 11.55318
756.90 11.43405
757.00 11.42426
757.10 11.59832
757.20 11.96011
757.30 12.3512
757.40 12.55356
757.50 12.53214
757.60 12.39108
757.70 12.23154
757.80 12.09951
757.90 11.99296
758.00 11.98776
758.10 12.15792
758.20 12.44671
758.30 12.66005
758.40 12.70598
758.50 12.67875
758.60 12.64438
758.70 12.54175
758.80 12.19178
758.90 11.4628
759.00 10.41581
759.10 9.369027
759.20 8.680673
759.30 8.491869
759.40 8.723775
759.50 9.045088
759.60 9.210932
759.70 9.247012
759.80 9.306429
759.90 9.505984
760.00 9.756617
760.10 9.810334
760.20 9.529277
760.30 9.203783
760.40 9.233839
760.50 9.479943
760.60 9.636701
760.70 9.650328
760.80 9.521159
760.90 9.398665
761.00 9.393232
761.10 9.431702
761.20 9.610537
761.30 9.964143
761.40 10.30608
761.50 10.49154
761.60 10.4375
761.70 10.32922
761.80 10.46573
761.90 10.75793
762.00 10.99753
762.10 11.03281
762.20 10.85495
762.30 10.68165
762.40 10.64962
762.50 10.71921
762.60 10.68492
762.70 10.3417
762.80 9.689824
762.90 8.914247
763.00 8.263858
763.10 7.855668
763.20 7.71999
763.30 7.840638
763.40 8.076536
763.50 8.207102
763.60 8.182635
763.70 8.141401
763.80 8.17107
763.90 8.278609
764.00 8.31999
764.10 8.17865
764.20 8.086195
764.30 8.220781
764.40 8.389053
764.50 8.409727
764.60 8.259632
764.70 8.145151
764.80 8.291113
764.90 8.472171
765.00 8.421045
765.10 8.233871
765.20 8.100554
765.30 8.145566
765.40 8.220832
765.50 8.080903
765.60 7.886782
765.70 7.883564
765.80 8.043503
765.90 8.177627
766.00 7.973016
766.10 7.427474
766.20 6.790938
766.30 6.103571
766.40 5.325412
766.50 4.438613
766.60 3.599693
766.70 3.19389
766.80 3.387532
766.90 4.020858
767.00 4.773985
767.10 5.325357
767.20 5.556505
767.30 5.54685
767.40 5.519678
767.50 5.602435
767.60 5.768815
767.70 5.946893
767.80 6.098791
767.90 6.244795
768.00 6.359801
768.10 6.431882
768.20 6.511044
768.30 6.591047
768.40 6.640551
768.50 6.673004
768.60 6.70083
768.70 6.737926
768.80 6.796487
768.90 6.853985
769.00 6.891128
769.10 6.904106
769.20 6.890437
769.30 6.875891
769.40 6.84948
769.50 6.732438
769.60 6.471881
769.70 6.02332
769.80 5.363257
769.90 4.585925
770.00 3.922375
770.10 3.649066
770.20 3.925164
770.30 4.626784
770.40 5.382799
770.50 5.913764
770.60 6.145262
770.70 6.171622
770.80 6.171174
770.90 6.25402
771.00 6.433151
771.10 6.656136
771.20 6.870799
771.30 7.041883
771.40 7.133325
771.50 7.085712
771.60 6.96595
771.70 6.970584
771.80 7.12386
771.90 7.243193
772.00 7.225899
772.10 7.174755
772.20 7.216155
772.30 7.317545
772.40 7.401931
772.50 7.504478
772.60 7.654596
772.70 7.808
772.80 7.924368
772.90 7.991756
773.00 8.020501
773.10 8.049826
773.20 8.090302
773.30 8.135244
773.40 8.209882
773.50 8.291593
773.60 8.333134
773.70 8.36107
773.80 8.405516
773.90 8.464226
774.00 8.532855
774.10 8.585629
774.20 8.573944
774.30 8.447671
774.40 8.192927
774.50 7.890374
774.60 7.642613
774.70 7.481529
774.80 7.366977
774.90 7.250859
775.00 7.083057
775.10 6.870225
775.20 6.725285
775.30 6.685526
775.40 6.704286
775.50 6.779414
775.60 6.91051
775.70 7.015586
775.80 7.056301
775.90 7.068801
776.00 7.101977
776.10 7.214921
776.20 7.332379
776.30 7.325611
776.40 7.21763
776.50 7.107047
776.60 7.07767
776.70 7.172271
776.80 7.341065
776.90 7.516633
777.00 7.648376
777.10 7.70069
777.20 7.705169
777.30 7.734756
777.40 7.815197
777.50 7.894176
777.60 7.928847
777.70 7.928204
777.80 7.916041
777.90 7.921152
778.00 7.950532
778.10 7.945625
778.20 7.83842
778.30 7.651983
778.40 7.433904
778.50 7.243017
778.60 7.151786
778.70 7.142693
778.80 7.174455
778.90 7.243205
779.00 7.33136
779.10 7.434225
779.20 7.568564
779.30 7.722859
779.40 7.892594
779.50 8.050635
779.60 8.109163
779.70 8.00786
779.80 7.825901
779.90 7.677786
780.00 7.559293
780.10 7.459738
780.20 7.429575
780.30 7.572669
780.40 7.900308
780.50 8.257887
780.60 8.531636
780.70 8.736428
780.80 8.90127
780.90 8.979816
781.00 8.927672
781.10 8.79295
781.20 8.662712
781.30 8.635596
781.40 8.745289
781.50 8.937273
781.60 9.120959
781.70 9.206952
781.80 9.1914
781.90 9.143445
782.00 9.111974
782.10 9.059479
782.20 8.871128
782.30 8.557698
782.40 8.364124
782.50 8.351683
782.60 8.384849
782.70 8.419219
782.80 8.355011
782.90 8.117352
783.00 7.810784
783.10 7.584971
783.20 7.504381
783.30 7.587005
783.40 7.760346
783.50 7.916722
783.60 8.033483
783.70 8.102642
783.80 8.142425
783.90 8.19913
784.00 8.273677
784.10 8.339262
784.20 8.373579
784.30 8.373896
784.40 8.370742
784.50 8.397166
784.60 8.47234
784.70 8.592043
784.80 8.697841
784.90 8.728895
785.00 8.680093
785.10 8.630546
785.20 8.694239
785.30 8.859168
785.40 9.016824
785.50 9.027626
785.60 8.891478
785.70 8.783222
785.80 8.794274
785.90 8.905124
786.00 9.008738
786.10 9.016538
786.20 8.929128
786.30 8.765772
786.40 8.579625
786.50 8.473211
786.60 8.494477
786.70 8.617178
786.80 8.785096
786.90 8.916441
787.00 9.003202
787.10 8.988412
787.20 8.853311
787.30 8.753844
787.40 8.732258
787.50 8.760313
787.60 8.873164
787.70 9.063236
787.80 9.259021
787.90 9.409782
788.00 9.479539
788.10 9.485255
788.20 9.520968
788.30 9.585039
788.40 9.633796
788.50 9.643068
788.60 9.604901
788.70 9.574545
788.80 9.610026
788.90 9.728004
789.00 9.875576
789.10 9.963709
789.20 9.960203
789.30 9.898548
789.40 9.869412
789.50 9.901904
789.60 9.930925
789.70 9.915979
789.80 9.84771
789.90 9.745383
790.00 9.61934
790.10 9.495396
790.20 9.426809
790.30 9.448422
790.40 9.564891
790.50 9.716899
790.60 9.842922
790.70 9.838647
790.80 9.628848
790.90 9.308569
791.00 9.007839
791.10 8.833037
791.20 8.80432
791.30 8.913871
791.40 9.11224
791.50 9.251493
791.60 9.293653
791.70 9.244525
791.80 9.175433
791.90 9.157533
792.00 9.191133
792.10 9.283467
792.20 9.36827
792.30 9.424614
792.40 9.424232
792.50 9.373093
792.60 9.375312
792.70 9.417821
792.80 9.467502
792.90 9.531206
793.00 9.624595
793.10 9.782255
793.20 9.985593
793.30 10.18476
793.40 10.29827
793.50 10.28174
793.60 10.22128
793.70 10.19692
793.80 10.19341
793.90 10.1738
794.00 10.10789
794.10 9.985463
794.20 9.845154
794.30 9.763762
794.40 9.81858
794.50 9.951648
794.60 9.993335
794.70 9.836761
794.80 9.541682
794.90 9.324329
795.00 9.317108
795.10 9.515472
795.20 9.830993
795.30 10.12024
795.40 10.33296
795.50 10.46792
795.60 10.53206
795.70 10.57032
795.80 10.58383
795.90 10.55221
796.00 10.49491
796.10 10.39579
796.20 10.2657
796.30 10.21129
796.40 10.3513
796.50 10.66707
796.60 10.92145
796.70 10.92292
796.80 10.73704
796.90 10.62014
797.00 10.71178
797.10 10.87165
797.20 10.97375
797.30 10.99662
797.40 10.97338
797.50 10.96902
797.60 10.96219
797.70 10.93681
797.80 10.91772
797.90 10.89607
798.00 10.88503
798.10 10.87343
798.20 10.80338
798.30 10.69932
798.40 10.6395
798.50 10.65269
798.60 10.68628
798.70 10.65568
798.80 10.55297
798.90 10.45687
799.00 10.43176
799.10 10.5333
799.20 10.80087
799.30 11.13749
799.40 11.35399
799.50 11.28279
799.60 10.98759
799.70 10.75564
799.80 10.69377
799.90 10.70065
800.00 10.74808
800.10 10.84564
800.20 10.95399
800.30 11.05086
800.40 11.12861
800.50 11.16979
800.60 11.17594
800.70 11.17914
800.80 11.22287
800.90 11.30695
801.00 11.39121
801.10 11.43456
801.20 11.46806
801.30 11.54915
801.40 11.67026
801.50 11.76901
801.60 11.78285
801.70 11.74441
801.80 11.72245
801.90 11.74258
802.00 11.80529
802.10 11.84998
802.20 11.80087
802.30 11.70762
802.40 11.65699
802.50 11.71266
802.60 11.8981
802.70 12.04189
802.80 12.01851
802.90 11.94791
803.00 11.96481
803.10 12.08356
803.20 12.23194
803.30 12.33208
803.40 12.35167
803.50 12.33822
803.60 12.32571
803.70 12.29713
803.80 12.27738
803.90 12.28284
804.00 12.27966
804.10 12.27133
804.20 12.2854
804.30 12.32822
804.40 12.43491
804.50 12.568
804.60 12.61999
804.70 12.57332
804.80 12.45443
804.90 12.33801
805.00 12.36654
805.10 12.59191
805.20 12.90983
805.30 13.18025
805.40 13.32652
805.50 13.34185
805.60 13.29063
805.70 13.24277
805.80 13.20464
805.90 13.17844
806.00 13.22155
806.10 13.36277
806.20 13.5175
806.30 13.57732
806.40 13.52311
806.50 13.40116
806.60 13.27087
806.70 13.21115
806.80 13.23975
806.90 13.24187
807.00 13.17558
807.10 13.11834
807.20 13.12641
807.30 13.23476
807.40 13.4018
807.50 13.53269
807.60 13.60591
807.70 13.63749
807.80 13.66596
807.90 13.72665
808.00 13.78228
808.10 13.81972
808.20 13.85004
808.30 13.87171
808.40 13.93215
808.50 14.02893
808.60 14.08863
808.70 14.0831
808.80 14.03913
808.90 14.00773
809.00 14.02162
809.10 14.07155
809.20 14.13067
809.30 14.18324
809.40 14.21546
809.50 14.21023
809.60 14.17594
809.70 14.12785
809.80 14.07592
809.90 14.06143
810.00 14.08526
810.10 14.10248
810.20 14.11793
810.30 14.12905
810.40 14.12157
810.50 14.09689
810.60 14.06682
810.70 14.06947
810.80 14.14935
810.90 14.30595
811.00 14.44876
811.10 14.4847
811.20 14.44211
811.30 14.42143
811.40 14.46449
811.50 14.50151
811.60 14.42008
811.70 14.2106
811.80 13.9963
811.90 13.94204
812.00 14.11333
812.10 14.39826
812.20 14.64743
812.30 14.76994
812.40 14.765
812.50 14.7379
812.60 14.75551
812.70 14.8174
812.80 14.90113
812.90 14.9639
813.00 14.99472
813.10 14.9926
813.20 14.95752
813.30 14.92862
813.40 14.91748
813.50 14.90741
813.60 14.9186
813.70 14.96987
813.80 15.07074
813.90 15.21924
814.00 15.33744
814.10 15.33561
814.20 15.19726
814.30 14.98904
814.40 14.80097
814.50 14.69028
814.60 14.71335
814.70 14.83073
814.80 14.88991
814.90 14.84304
815.00 14.74394
815.10 14.67692
815.20 14.73456
815.30 14.87162
815.40 14.96222
815.50 14.94731
815.60 14.86603
815.70 14.81444
815.80 14.82093
815.90 14.82487
816.00 14.7644
816.10 14.67372
816.20 14.6062
816.30 14.55393
816.40 14.56349
816.50 14.66756
816.60 14.82384
816.70 15.00009
816.80 15.1301
816.90 15.178
817.00 15.15723
817.10 15.07662
817.20 15.00608
817.30 14.99255
817.40 14.99541
817.50 14.9731
817.60 14.91169
817.70 14.78244
817.80 14.56206
817.90 14.32176
818.00 14.09641
818.10 13.67268
818.20 12.82816
818.30 11.54995
818.40 10.12282
818.50 9.208266
818.60 9.280659
818.70 10.23469
818.80 11.54557
818.90 12.59157
819.00 13.11673
819.10 13.23165
819.20 13.0303
819.30 12.41346
819.40 11.27816
819.50 9.826431
819.60 8.622158
819.70 8.190108
819.80 8.658296
819.90 9.7308
820.00 10.88649
820.10 11.81843
820.20 12.52982
820.30 13.10081
820.40 13.53402
820.50 13.73716
820.60 13.67816
820.70 13.482
820.80 13.33293
820.90 13.33731
821.00 13.5036
821.10 13.73278
821.20 13.91956
821.30 14.02473
821.40 14.02962
821.50 13.97994
821.60 13.95813
821.70 13.96991
821.80 13.99379
821.90 14.03858
822.00 14.07756
822.10 14.09082
822.20 14.1269
822.30 14.19616
822.40 14.27461
822.50 14.39369
822.60 14.53731
822.70 14.62758
822.80 14.64778
822.90 14.62652
823.00 14.64261
823.10 14.77787
823.20 14.93818
823.30 14.95552
823.40 14.80571
823.50 14.59582
823.60 14.49239
823.70 14.58638
823.80 14.78322
823.90 14.96846
824.00 15.15144
824.10 15.32678
824.20 15.40538
824.30 15.33566
824.40 15.14985
824.50 14.99033
824.60 15.00969
824.70 15.20697
824.80 15.52075
824.90 15.81059
825.00 15.89576
825.10 15.77457
825.20 15.53176
825.30 15.23506
825.40 14.98543
825.50 14.80719
825.60 14.62678
825.70 14.41301
825.80 14.25151
825.90 14.25382
826.00 14.42621
826.10 14.73731
826.20 15.08855
826.30 15.30169
826.40 15.37121
826.50 15.40458
826.60 15.4379
826.70 15.52151
826.80 15.63498
826.90 15.64962
827.00 15.52963
827.10 15.30917
827.20 14.99832
827.30 14.64553
827.40 14.32988
827.50 14.13546
827.60 14.1168
827.70 14.21627
827.80 14.393
827.90 14.62507
828.00 14.77508
828.10 14.78439
828.20 14.66085
828.30 14.44249
828.40 14.31071
828.50 14.32093
828.60 14.36687
828.70 14.39298
828.80 14.39862
828.90 14.33565
829.00 14.10662
829.10 13.82203
829.20 13.67206
829.30 13.62953
829.40 13.63563
829.50 13.69267
829.60 13.78156
829.70 13.91002
829.80 14.06869
829.90 14.20785
830.00 13.99875
830.10 13.8178
830.20 13.63685
830.30 13.42551
830.40 13.21416
830.50 13.18176
830.60 13.14936
830.70 13.2156
830.80 13.28185
830.90 13.51433
831.00 13.74682
831.10 13.83103
831.20 13.91524
831.30 13.842
831.40 13.76876
831.50 13.78538
831.60 13.80199
831.70 13.95156
831.80 14.10113
831.90 14.12319
832.00 14.14526
832.10 14.20842
832.20 14.27157
832.30 14.31753
832.40 14.36348
832.50 14.3572
832.60 14.35092
832.70 14.01397
832.80 13.67702
832.90 13.51032
833.00 13.34362
833.10 13.71497
833.20 14.08632
833.30 14.1701
833.40 14.25388
833.50 13.98763
833.60 13.72138
833.70 13.66671
833.80 13.61204
833.90 13.76255
834.00 13.91305
834.10 14.06244
834.20 14.21183
834.30 14.34068
834.40 14.46953
834.50 14.474
834.60 14.47847
834.70 14.14384
834.80 13.8092
834.90 13.62951
835.00 13.44982
835.10 13.68149
835.20 13.91315
835.30 13.95665
835.40 14.00016
835.50 13.96632
835.60 13.93247
835.70 13.96434
835.80 13.99621
835.90 14.089
836.00 14.18179
836.10 14.21511
836.20 14.24843
836.30 14.09524
836.40 13.94205
836.50 13.8141
836.60 13.68615
836.70 13.82828
836.80 13.97042
836.90 14.23477
837.00 14.49912
837.10 14.60389
837.20 14.70865
837.30 14.45487
837.40 14.2011
837.50 13.907
837.60 13.6129
837.70 13.45322
837.80 13.29354
837.90 13.36294
838.00 13.43233
838.10 13.50905
838.20 13.58577
838.30 13.5001
838.40 13.41443
838.50 13.25764
838.60 13.10085
838.70 12.8691
838.80 12.63736
838.90 12.53082
839.00 12.42428
839.10 12.70447
839.20 12.98465
839.30 13.27716
839.40 13.56966
839.50 13.59169
839.60 13.61372
839.70 13.66414
839.80 13.71455
839.90 13.86064
840.00 14.00674
840.10 14.09658
840.20 14.21983
840.30 14.25946
840.40 14.26979
840.50 14.28625
840.60 14.30573
840.70 14.33513
840.80 14.38175
840.90 14.43877
841.00 14.45678
841.10 14.37624
841.20 14.22986
841.30 14.08155
841.40 14.00596
841.50 14.17035
841.60 14.44366
841.70 14.57144
841.80 14.59085
841.90 14.46246
842.00 14.17748
842.10 13.94764
842.20 13.83073
842.30 13.69829
842.40 13.70174
842.50 13.70452
842.60 13.62404
842.70 13.46724
842.80 13.45139
842.90 13.5219
843.00 13.59542
843.10 13.5904
843.20 13.49627
843.30 13.07565
843.40 12.31938
843.50 11.59166
843.60 10.91671
843.70 10.35329
843.80 10.59017
843.90 11.08088
844.00 11.45588
844.10 11.76383
844.20 11.89377
844.30 11.58365
844.40 11.20911
844.50 10.94615
844.60 10.68014
844.70 10.59958
844.80 10.70697
844.90 10.7669
845.00 10.8372
845.10 10.8106
845.20 10.44292
845.30 10.08423
845.40 9.810419
845.50 9.541042
845.60 9.325952
845.70 9.349263
845.80 9.397397
845.90 9.494777
846.00 9.634126
846.10 9.77017
846.20 9.872469
846.30 9.847176
846.40 9.744976
846.50 9.702791
846.60 9.643572
846.70 9.5318
846.80 9.444193
846.90 9.377996
847.00 9.320008
847.10 9.350122
847.20 9.478566
847.30 9.605856
847.40 9.647092
847.50 9.620956
847.60 9.617126
847.70 9.665614
847.80 9.780675
847.90 9.955955
848.00 10.0477
848.10 10.09698
848.20 10.06599
848.30 10.0483
848.40 10.10286
848.50 10.22082
848.60 10.31107
848.70 10.40624
848.80 10.50287
848.90 10.60927
849.00 10.72733
849.10 10.83247
849.20 10.95717
849.30 11.0458
849.40 11.00264
849.50 10.95826
849.60 10.81414
849.70 10.69461
849.80 10.69566
849.90 10.75203
850.00 10.73712
850.10 10.80412
850.20 10.77146
850.30 10.73304
850.40 10.7061
850.50 10.50657
850.60 10.16683
850.70 9.920535
850.80 9.756053
850.90 9.628002
851.00 9.789255
851.10 9.975884
851.20 10.07405
851.30 10.10387
851.40 10.09644
851.50 9.988694
851.60 9.854495
851.70 9.694918
851.80 9.588371
851.90 9.542578
852.00 9.507701
852.10 9.493619
852.20 9.56494
852.30 9.657804
852.40 9.887893
852.50 10.09733
852.60 10.21686
852.70 10.33051
852.80 10.41207
852.90 10.44095
853.00 10.42598
853.10 10.435
853.20 10.48417
853.30 10.54718
853.40 10.59987
853.50 10.66001
853.60 10.75425
853.70 10.88937
853.80 10.95383
853.90 10.93127
854.00 10.88294
854.10 10.92863
854.20 11.11789
854.30 11.2786
854.40 11.35047
854.50 11.41619
854.60 11.37885
854.70 11.36911
854.80 11.42725
854.90 11.51705
855.00 11.5691
855.10 11.62641
855.20 11.67102
855.30 11.73785
855.40 11.77426
855.50 11.76733
855.60 11.78379
855.70 11.84097
855.80 11.85462
855.90 11.66538
856.00 11.45274
856.10 11.30115
856.20 11.1769
856.30 11.14776
856.40 11.2606
856.50 11.43122
856.60 11.65647
856.70 11.91148
856.80 11.99671
856.90 11.97379
857.00 11.84526
857.10 11.69711
857.20 11.66563
857.30 11.66298
857.40 11.60494
857.50 11.63116
857.60 11.68506
857.70 11.78891
857.80 11.92211
857.90 11.96303
858.00 11.95042
858.10 11.98057
858.20 11.95836
858.30 11.89675
858.40 11.83957
858.50 11.85743
858.60 11.95946
858.70 12.05494
858.80 12.08566
858.90 12.11753
859.00 12.13815
859.10 12.10271
859.20 12.04634
859.30 11.98727
859.40 11.92424
859.50 11.90628
859.60 12.01183
859.70 12.12634
859.80 12.22644
859.90 12.30071
860.00 12.32947
860.10 12.32827
860.20 12.33241
860.30 12.33811
860.40 12.36713
860.50 12.44856
860.60 12.57566
860.70 12.68715
860.80 12.7662
860.90 12.77316
861.00 12.69053
861.10 12.63207
861.20 12.54619
861.30 12.44453
861.40 12.37576
861.50 12.36363
861.60 12.33201
861.70 12.26265
861.80 12.21306
861.90 12.31036
862.00 12.44196
862.10 12.52758
862.20 12.59732
862.30 12.57878
862.40 12.47254
862.50 12.44152
862.60 12.41961
862.70 12.38857
862.80 12.30157
862.90 12.21796
863.00 12.18598
863.10 12.17919
863.20 12.16617
863.30 12.26709
863.40 12.40058
863.50 12.47566
863.60 12.53771
863.70 12.63227
863.80 12.67428
863.90 12.65523
864.00 12.57646
864.10 12.51269
864.20 12.5582
864.30 12.66563
864.40 12.71608
864.50 12.67218
864.60 12.66992
864.70 12.5898
864.80 12.50335
864.90 12.4455
865.00 12.40366
865.10 12.40249
865.20 12.49937
865.30 12.6427
865.40 12.81582
865.50 12.92532
865.60 12.96899
865.70 13.01034
865.80 13.03797
865.90 13.00905
866.00 12.94965
866.10 12.78802
866.20 12.68421
866.30 12.72795
866.40 12.80503
866.50 12.91111
866.60 13.11038
866.70 13.21146
866.80 13.21673
866.90 13.24838
867.00 13.21046
867.10 13.16042
867.20 13.19382
867.30 13.28793
867.40 13.25991
867.50 13.17562
867.60 13.06682
867.70 13.07758
867.80 13.16657
867.90 13.26405
868.00 13.36815
868.10 13.43414
868.20 13.40561
868.30 13.34965
868.40 13.36409
868.50 13.35578
868.60 13.29608
868.70 13.26211
868.80 13.20836
868.90 12.96686
869.00 12.68851
869.10 12.51084
869.20 12.40547
869.30 12.29385
869.40 12.17465
869.50 12.11643
869.60 12.09789
869.70 12.02472
869.80 12.11895
869.90 12.25291
870.00 12.39504
870.10 12.52842
870.20 12.66166
870.30 12.79488
870.40 12.89535
870.50 12.96715
870.60 13.01864
870.70 13.00143
870.80 12.92427
870.90 12.82608
871.00 12.66445
871.10 12.56729
871.20 12.51009
871.30 12.41325
871.40 12.40823
871.50 12.45396
871.60 12.42733
871.70 12.32636
871.80 12.2863
871.90 12.30803
872.00 12.39289
872.10 12.53009
872.20 12.65309
872.30 12.78739
872.40 12.93284
872.50 13.06569
872.60 13.15208
872.70 13.23666
872.80 13.51598
872.90 13.79121
873.00 13.84787
873.10 13.74658
873.20 13.65913
873.30 13.45174
873.40 13.22676
873.50 13.1537
873.60 13.10656
873.70 13.11488
873.80 13.18372
873.90 13.27499
874.00 13.35461
874.10 13.41908
874.20 13.61641
874.30 13.84637
874.40 14.13324
874.50 14.37454
874.60 14.40469
874.70 14.27815
874.80 14.21332
874.90 14.00285
875.00 13.83965
875.10 13.95928
875.20 14.1777
875.30 14.29544
875.40 14.46316
875.50 14.56399
875.60 14.47623
875.70 14.4241
875.80 14.52361
875.90 14.6484
876.00 14.77293
876.10 14.94996
876.20 15.02603
876.30 14.8679
876.40 14.78685
876.50 14.65839
876.60 14.41205
876.70 14.15461
876.80 14.01572
876.90 14.09932
877.00 14.49399
877.10 14.8322
877.20 15.11624
877.30 15.39714
877.40 15.63594
877.50 15.79122
877.60 15.8625
877.70 15.81286
877.80 15.82187
877.90 15.46416
878.00 15.0572
878.10 14.88866
878.20 14.88679
878.30 14.87266
878.40 15.04578
878.50 15.23272
878.60 15.3044
878.70 15.35308
878.80 15.38414
878.90 15.42207
879.00 15.46966
879.10 15.57051
879.20 15.63133
879.30 15.66263
879.40 15.74561
879.50 15.86107
879.60 15.9517
879.70 15.99616
879.80 16.13451
879.90 16.22184
880.00 15.94324
880.10 15.58297
880.20 15.06329
880.30 14.52583
880.40 14.217
880.50 14.20427
880.60 14.16679
880.70 14.22096
880.80 14.35437
880.90 14.56214
881.00 14.8252
881.10 15.25388
881.20 15.74352
881.30 16.07306
881.40 16.30723
881.50 16.53008
881.60 16.6243
881.70 16.69757
881.80 16.84678
881.90 16.986
882.00 16.94861
882.10 16.66669
882.20 16.38072
882.30 15.91189
882.40 15.39743
882.50 15.06915
882.60 14.91737
882.70 14.87128
882.80 15.07418
882.90 15.38195
883.00 15.74962
883.10 16.10557
883.20 16.40911
883.30 16.67347
883.40 16.83606
883.50 16.84643
883.60 16.87714
883.70 16.95391
883.80 16.96675
883.90 16.97356
884.00 16.97961
884.10 17.02588
884.20 17.15235
884.30 17.28943
884.40 17.12553
884.50 16.88761
884.60 16.58298
884.70 16.27505
884.80 16.07304
884.90 15.99419
885.00 16.00585
885.10 16.32014
885.20 16.60268
885.30 17.09109
885.40 17.61432
885.50 17.77793
885.60 17.66186
885.70 17.51241
885.80 16.96068
885.90 16.38878
886.00 15.66159
886.10 14.85724
886.20 14.2131
886.30 13.7602
886.40 13.46339
886.50 13.71128
886.60 14.00623
886.70 14.21573
886.80 14.4035
886.90 14.21315
887.00 13.75988
887.10 13.30818
887.20 12.7383
887.30 12.22048
887.40 12.2318
887.50 12.28455
887.60 12.52547
887.70 12.88653
887.80 13.23823
887.90 13.62377
888.00 13.9891
888.10 14.11787
888.20 14.21033
888.30 14.04193
888.40 13.79868
888.50 13.70601
888.60 13.63387
888.70 13.53224
888.80 13.72594
888.90 13.9253
889.00 14.12198
889.10 14.31441
889.20 14.4618
889.30 14.5173
889.40 14.49354
889.50 14.34225
889.60 14.23757
889.70 14.09251
889.80 13.90335
889.90 13.87694
890.00 14.04136
890.10 14.17373
890.20 14.51011
890.30 14.97546
890.40 15.26185
890.50 15.44659
890.60 15.44211
890.70 15.38569
890.80 15.367
890.90 15.28238
891.00 15.20091
891.10 15.09719
891.20 14.96983
891.30 15.0021
891.40 15.14997
891.50 15.24344
891.60 15.41087
891.70 15.56695
891.80 15.58812
891.90 15.57274
892.00 15.54087
892.10 15.53203
892.20 15.52159
892.30 15.46446
892.40 15.43003
892.50 15.36695
892.60 15.30903
892.70 15.29412
892.80 15.27954
892.90 15.30572
893.00 15.43815
893.10 15.59624
893.20 15.89836
893.30 16.20107
893.40 16.40623
893.50 16.5908
893.60 16.49241
893.70 16.12467
893.80 15.74324
893.90 15.15211
894.00 14.5974
894.10 14.49419
894.20 14.41564
894.30 14.38148
894.40 14.44856
894.50 14.60562
894.60 14.71844
894.70 14.74607
894.80 14.90187
894.90 15.03369
895.00 15.00475
895.10 14.93034
895.20 14.92412
895.30 14.84942
895.40 14.81579
895.50 14.96712
895.60 15.09043
895.70 15.20686
895.80 15.35495
895.90 15.49312
896.00 15.52067
896.10 15.54239
896.20 15.53061
896.30 15.48368
896.40 15.44016
896.50 15.41518
896.60 15.27927
896.70 15.06
896.80 14.99082
896.90 15.13853
897.00 15.27069
897.10 15.46719
897.20 15.6616
897.30 15.74699
897.40 15.74958
897.50 15.78371
897.60 15.90997
897.70 16.05096
897.80 16.17417
897.90 16.29503
898.00 16.2831
898.10 16.11563
898.20 16.02221
898.30 16.06375
898.40 16.08176
898.50 16.45742
898.60 16.84031
898.70 17.03033
898.80 17.09782
898.90 17.02204
899.00 16.75624
899.10 16.56578
899.20 16.48714
899.30 16.46362
899.40 16.53104
899.50 16.60182
899.60 16.60156
899.70 16.57364
899.80 16.51323
899.90 16.379
900.00 16.19946
900.10 16.19
900.20 16.25988
900.30 16.37642
900.40 16.73386
900.50 17.21327
900.60 17.56796
900.70 17.82804
900.80 17.68176
900.90 17.42899
901.00 17.17093
901.10 16.86744
901.20 16.69077
901.30 16.82814
901.40 17.0067
901.50 17.07793
901.60 17.11006
901.70 16.93346
901.80 16.61366
901.90 16.38716
902.00 16.29381
902.10 16.28458
902.20 16.18801
902.30 16.08816
902.40 16.02769
902.50 15.96081
902.60 15.8896
902.70 15.87996
902.80 15.85012
902.90 15.85704
903.00 15.91345
903.10 16.0791
903.20 16.32556
903.30 16.63725
903.40 16.90777
903.50 17.0736
903.60 17.20851
903.70 17.3274
903.80 17.42861
903.90 17.55434
904.00 17.61891
904.10 17.64034
904.20 17.70136
904.30 17.59118
904.40 17.40303
904.50 17.40287
904.60 17.43016
904.70 17.48742
904.80 17.66218
904.90 17.88349
905.00 17.99891
905.10 18.04003
905.20 17.75467
905.30 17.46893
905.40 17.30404
905.50 17.19176
905.60 17.0787
905.70 16.9976
905.80 16.98968
905.90 17.03122
906.00 17.04441
906.10 17.09841
906.20 17.1692
906.30 17.14551
906.40 17.1577
906.50 17.19386
906.60 17.08972
906.70 16.98505
906.80 16.88176
906.90 16.79278
907.00 16.78832
907.10 16.81359
907.20 16.77866
907.30 16.92378
907.40 17.09841
907.50 17.16958
907.60 17.24198
907.70 17.38227
907.80 17.53668
907.90 17.68761
908.00 17.94285
908.10 18.17574
908.20 18.14893
908.30 18.06388
908.40 18.03436
908.50 17.9846
908.60 17.84919
908.70 17.72792
908.80 17.53957
908.90 17.26654
909.00 17.00965
909.10 16.9764
909.20 17.13185
909.30 17.34959
909.40 17.61529
909.50 17.91903
909.60 18.13603
909.70 18.26297
909.80 18.36314
909.90 18.4357
910.00 18.45803
910.10 18.49711
910.20 18.62595
910.30 18.62092
910.40 18.53769
910.50 18.3259
910.60 18.06774
910.70 17.88757
910.80 17.79792
910.90 17.74583
911.00 17.91507
911.10 18.15945
911.20 18.37807
911.30 18.594
911.40 18.72685
911.50 18.79893
911.60 18.80084
911.70 18.63493
911.80 18.44771
911.90 18.40811
912.00 18.41574
912.10 18.48403
912.20 18.62511
912.30 18.78382
912.40 18.84986
912.50 18.84826
912.60 18.80186
912.70 18.71568
912.80 18.63602
912.90 18.61546
913.00 18.66806
913.10 18.73588
913.20 18.81927
913.30 18.98019
913.40 19.13351
913.50 19.21081
913.60 19.24959
913.70 19.19668
913.80 18.95074
913.90 18.61363
914.00 18.17891
914.10 17.87334
914.20 17.98168
914.30 18.14953
914.40 18.33452
914.50 18.64379
914.60 18.89885
914.70 18.95267
914.80 18.9818
914.90 18.79148
915.00 18.59624
915.10 18.54234
915.20 18.55388
915.30 18.5808
915.40 18.86799
915.50 19.06325
915.60 19.27348
915.70 19.55057
915.80 19.66656
915.90 19.64817
916.00 19.65679
916.10 19.50403
916.20 19.34011
916.30 19.14691
916.40 18.95399
916.50 18.98363
916.60 19.13661
916.70 19.24918
916.80 19.40512
916.90 19.55236
917.00 19.50143
917.10 19.43501
917.20 19.37449
917.30 19.30874
917.40 19.27893
917.50 19.23154
917.60 19.17526
917.70 19.13558
917.80 19.11124
917.90 19.12294
918.00 19.14795
918.10 19.23092
918.20 19.35776
918.30 19.4635
918.40 19.47884
918.50 19.40328
918.60 19.28767
918.70 19.20954
918.80 19.33449
918.90 19.58352
919.00 19.74626
919.10 20.00458
919.20 20.36345
919.30 20.21127
919.40 20.02705
919.50 19.88107
919.60 19.71457
919.70 19.58487
919.80 19.76508
919.90 19.97165
920.00 20.03616
920.10 20.11136
920.20 20.11196
920.30 20.05173
920.40 19.94759
920.50 19.90103
920.60 19.88041
920.70 19.70152
920.80 19.50535
920.90 19.09126
921.00 18.60481
921.10 18.38294
921.20 18.47831
921.30 18.63623
921.40 18.92026
921.50 19.14832
921.60 19.2582
921.70 19.29388
921.80 19.23919
921.90 19.16322
922.00 19.19289
922.10 19.0874
922.20 18.96217
922.30 18.85486
922.40 18.73172
922.50 18.69583
922.60 18.70529
922.70 18.65757
922.80 18.65802
922.90 18.61627
923.00 18.41711
923.10 18.20619
923.20 17.95773
923.30 17.68312
923.40 17.55705
923.50 17.681
923.60 17.80796
923.70 17.89508
923.80 17.98383
923.90 18.06191
924.00 18.11734
924.10 18.2922
924.20 18.58229
924.30 18.70393
924.40 18.79648
924.50 18.94878
924.60 18.71464
924.70 18.43545
924.80 18.27967
924.90 18.11451
925.00 17.916
925.10 17.86867
925.20 17.8043
925.30 17.80986
925.40 17.87024
925.50 18.07872
925.60 18.37372
925.70 18.5485
925.80 18.74362
925.90 18.97308
926.00 18.85393
926.10 18.73791
926.20 18.65244
926.30 18.56425
926.40 18.5915
926.50 18.74433
926.60 18.86582
926.70 19.09989
926.80 19.31027
926.90 19.33414
927.00 19.26609
927.10 19.13423
927.20 18.91594
927.30 18.76254
927.40 18.59969
927.50 18.4188
927.60 18.26564
927.70 18.11064
927.80 17.92032
927.90 17.72512
928.00 17.60613
928.10 17.6432
928.20 17.70749
928.30 17.93474
928.40 18.16171
928.50 18.26064
928.60 18.28935
928.70 18.29539
928.80 18.09672
928.90 17.84814
929.00 17.73882
929.10 17.61589
929.20 17.48833
929.30 17.41348
929.40 17.41198
929.50 17.48507
929.60 17.51877
929.70 17.51748
929.80 17.56261
929.90 17.43847
930.00 17.27887
930.10 17.22109
930.20 17.21297
930.30 17.11886
930.40 17.08492
930.50 17.15027
930.60 17.18078
930.70 17.27316
930.80 17.48799
930.90 17.63297
931.00 17.7321
931.10 17.88097
931.20 18.00853
931.30 18.02863
931.40 18.04335
931.50 18.04694
931.60 17.9016
931.70 17.90669
931.80 17.85628
931.90 17.74967
932.00 17.58371
932.10 17.5047
932.20 17.50201
932.30 17.57542
932.40 17.64976
932.50 17.68471
932.60 17.6732
932.70 17.59681
932.80 17.55259
932.90 17.54602
933.00 17.57393
933.10 17.62422
933.20 17.61615
933.30 17.56742
933.40 17.50566
933.50 17.47127
933.60 17.42484
933.70 17.39633
933.80 17.43674
933.90 17.56291
934.00 17.68003
934.10 17.75866
934.20 17.87299
934.30 17.90605
934.40 17.86857
934.50 17.69884
934.60 17.6075
934.70 17.58508
934.80 17.60373
934.90 17.55073
935.00 17.61668
935.10 17.66482
935.20 17.69367
935.30 17.60544
935.40 17.58735
935.50 17.54586
935.60 17.46862
935.70 17.40677
935.80 17.36767
935.90 17.41807
936.00 17.50255
936.10 17.57649
936.20 17.67297
936.30 17.79981
936.40 17.97475
936.50 17.92923
936.60 17.84016
936.70 17.72615
936.80 17.56199
936.90 17.31911
937.00 17.04617
937.10 16.77902
937.20 16.57409
937.30 16.60682
937.40 16.7377
937.50 16.91444
937.60 17.16281
937.70 17.41794
937.80 17.64174
937.90 17.81458
938.00 17.8277
938.10 17.72249
938.20 17.6075
938.30 17.60179
938.40 17.71421
938.50 17.8176
938.60 17.86379
938.70 17.89213
938.80 17.84899
938.90 17.81695
939.00 17.79503
939.10 17.80825
939.20 17.84998
939.30 17.91203
939.40 17.98226
939.50 17.97771
939.60 17.95693
939.70 17.86553
939.80 17.71549
939.90 17.5597
940.00 17.58531
940.10 17.65114
940.20 17.64066
940.30 17.65049
940.40 17.73138
940.50 17.90369
940.60 18.08384
940.70 18.20437
940.80 18.33023
940.90 18.46542
941.00 18.54759
941.10 18.50214
941.20 18.45635
941.30 18.43758
941.40 18.27645
941.50 18.15331
941.60 18.08066
941.70 18.05646
941.80 17.91503
941.90 17.9137
942.00 17.98093
942.10 18.13402
942.20 18.21756
942.30 18.31362
942.40 18.38578
942.50 18.44085
942.60 18.47606
942.70 18.4779
942.80 18.45801
942.90 18.38468
943.00 18.41032
943.10 18.45433
943.20 18.45043
943.30 18.47167
943.40 18.60553
943.50 18.72574
943.60 18.78416
943.70 18.75249
943.80 18.60931
943.90 18.40859
944.00 18.16819
944.10 17.9946
944.20 17.80954
944.30 17.65556
944.40 17.54939
944.50 17.53891
944.60 17.60339
944.70 17.69505
944.80 17.72295
944.90 17.76992
945.00 17.83651
945.10 17.94676
945.20 18.09164
945.30 18.24244
945.40 18.33906
945.50 18.41305
945.60 18.41558
945.70 18.37612
945.80 18.31857
945.90 18.31557
946.00 18.35032
946.10 18.35179
946.20 18.36716
946.30 18.45513
946.40 18.52792
946.50 18.44921
946.60 18.31563
946.70 18.3486
946.80 18.48065
946.90 18.58318
947.00 18.63216
947.10 18.6895
947.20 18.77852
947.30 18.83615
947.40 18.86658
947.50 18.86905
947.60 18.90749
947.70 18.96139
947.80 19.01859
947.90 19.12906
948.00 19.23623
948.10 19.33581
948.20 19.36766
948.30 19.32358
948.40 19.29982
948.50 19.30222
948.60 19.35131
948.70 19.31815
948.80 19.26697
948.90 19.26715
949.00 19.37949
949.10 19.48291
949.20 19.50714
949.30 19.46603
949.40 19.46039
949.50 19.37019
949.60 19.23845
949.70 19.09622
949.80 19.18736
949.90 19.30744
950.00 19.40678
950.10 19.47905
950.20 19.43342
950.30 19.32353
950.40 19.19039
950.50 19.23863
950.60 19.2734
950.70 19.29766
950.80 19.30556
950.90 19.39984
951.00 19.45656
951.10 19.45646
951.20 19.43113
951.30 19.44997
951.40 19.3908
951.50 19.2867
951.60 19.15198
951.70 19.11958
951.80 19.09843
951.90 19.09981
952.00 19.13193
952.10 19.18757
952.20 19.29715
952.30 19.42159
952.40 19.48712
952.50 19.62425
952.60 19.79244
952.70 19.94873
952.80 19.95867
952.90 19.95012
953.00 19.93987
953.10 19.94391
953.20 19.97249
953.30 19.91441
953.40 19.82992
953.50 19.74748
953.60 19.66186
953.70 19.55901
953.80 19.50427
953.90 19.48566
954.00 19.4432
954.10 19.40752
954.20 19.41155
954.30 19.44369
954.40 19.45367
954.50 19.44798
954.60 19.44854
954.70 19.35146
954.80 19.27561
954.90 19.28304
955.00 19.40486
955.10 19.56967
955.20 19.70578
955.30 19.81765
955.40 19.9224
955.50 20.01036
955.60 20.04719
955.70 20.07228
955.80 20.10582
955.90 20.20533
956.00 20.26002
956.10 20.29796
956.20 20.35292
956.30 20.21899
956.40 20.08192
956.50 20.04159
956.60 20.1283
956.70 20.06712
956.80 19.99613
956.90 19.97782
957.00 20.14137
957.10 20.22453
957.20 20.25378
957.30 20.17791
957.40 19.92994
957.50 19.70924
957.60 19.56699
957.70 19.48416
957.80 19.47539
957.90 19.57062
958.00 19.69582
958.10 19.67565
958.20 19.70495
958.30 19.76754
958.40 19.84484
958.50 19.80742
958.60 19.83171
958.70 19.78373
958.80 19.67508
958.90 19.54049
959.00 19.40171
959.10 19.24377
959.20 19.08265
959.30 19.14851
959.40 19.2064
959.50 19.15533
959.60 18.9842
959.70 18.93782
959.80 18.77136
959.90 18.53623
960.00 18.21867
960.10 18.2141
960.20 18.28747
960.30 18.47
960.40 18.92006
960.50 19.30533
960.60 19.50126
960.70 19.57041
960.80 19.64396
960.90 19.59999
961.00 19.56262
961.10 19.58851
961.20 19.54273
961.30 19.47254
961.40 19.42399
961.50 19.41003
961.60 19.42889
961.70 19.58341
961.80 19.79449
961.90 19.9428
962.00 20.0488
962.10 20.13477
962.20 20.15487
962.30 20.06307
962.40 20.02275
962.50 20.08092
962.60 20.20743
962.70 20.2534
962.80 20.1796
962.90 20.09721
963.00 20.06058
963.10 19.99802
963.20 19.98088
963.30 19.93535
963.40 19.87824
963.50 19.82125
963.60 19.51197
963.70 19.0524
963.80 18.5886
963.90 18.13005
964.00 17.6974
964.10 17.53851
964.20 17.97121
964.30 18.44428
964.40 18.78282
964.50 19.01404
964.60 19.25182
964.70 19.04772
964.80 18.80251
964.90 18.62526
965.00 18.60661
965.10 18.71271
965.20 18.87496
965.30 19.08136
965.40 19.23121
965.50 19.38026
965.60 19.53008
965.70 19.70438
965.80 19.84118
965.90 19.94902
966.00 20.03919
966.10 20.14423
966.20 20.23093
966.30 20.2681
966.40 20.27381
966.50 20.2703
966.60 20.17416
966.70 20.12223
966.80 20.15787
966.90 20.20289
967.00 20.16015
967.10 20.06247
967.20 19.9513
967.30 19.90114
967.40 19.59783
967.50 19.22005
967.60 18.88635
967.70 18.69807
967.80 18.54552
967.90 18.6551
968.00 19.16108
968.10 19.67227
968.20 19.95734
968.30 20.09453
968.40 20.25366
968.50 20.09265
968.60 19.89679
968.70 19.66055
968.80 19.3519
968.90 19.04353
969.00 18.94961
969.10 19.01525
969.20 19.12004
969.30 19.50219
969.40 19.91694
969.50 20.2528
969.60 20.40885
969.70 20.5909
969.80 20.71085
969.90 20.72935
970.00 20.67404
970.10 20.57548
970.20 20.43619
970.30 20.27809
970.40 19.86165
970.50 19.47735
970.60 19.19324
970.70 18.98159
970.80 18.80466
970.90 19.02753
971.00 19.53846
971.10 19.96803
971.20 20.32561
971.30 20.63937
971.40 20.91886
971.50 20.99827
971.60 21.03563
971.70 20.95685
971.80 20.77423
971.90 20.62148
972.00 20.43959
972.10 20.28922
972.20 20.21511
972.30 20.32318
972.40 20.39351
972.50 20.3857
972.60 20.30465
972.70 20.14167
972.80 19.76838
972.90 19.30447
973.00 18.98404
973.10 19.02299
973.20 19.07333
973.30 19.07985
973.40 19.30483
973.50 19.52134
973.60 19.62567
973.70 19.63036
973.80 19.68004
973.90 19.7176
974.00 19.77711
974.10 19.84407
974.20 19.74519
974.30 19.61219
974.40 19.47053
974.50 19.30671
974.60 19.14986
974.70 19.24193
974.80 19.42735
974.90 19.48027
975.00 19.53484
975.10 19.64406
975.20 19.80995
975.30 19.92921
975.40 19.96383
975.50 20.00242
975.60 20.03449
975.70 20.12668
975.80 20.18191
975.90 20.21916
976.00 20.19224
976.10 20.12104
976.20 20.07503
976.30 20.08339
976.40 20.12942
976.50 20.17905
976.60 20.26831
976.70 20.34282
976.80 20.40012
976.90 20.15437
977.00 19.90108
977.10 19.66987
977.20 19.47458
977.30 19.34506
977.40 19.51471
977.50 19.83237
977.60 20.0333
977.70 20.12701
977.80 20.21713
977.90 20.28005
978.00 20.1533
978.10 19.99069
978.20 19.66984
978.30 19.17313
978.40 18.72866
978.50 18.51825
978.60 18.37023
978.70 18.13921
978.80 18.20729
978.90 18.40539
979.00 18.72444
979.10 19.17384
979.20 19.52909
979.30 19.89549
979.40 20.24535
979.50 20.59193
979.60 20.59647
979.70 20.62438
979.80 20.73092
979.90 20.79628
980.00 20.76747
980.10 20.72455
980.20 20.70158
980.30 20.69831
980.40 20.64386
980.50 20.58333
980.60 20.52544
980.70 20.46257
980.80 20.39138
980.90 20.37323
981.00 20.41311
981.10 20.46554
981.20 20.4671
981.30 20.43057
981.40 20.37298
981.50 20.16426
981.60 19.98722
981.70 19.93282
981.80 20.01847
981.90 20.03591
982.00 20.05996
982.10 20.07508
982.20 20.13884
982.30 20.16719
982.40 20.19667
982.50 20.23069
982.60 20.30415
982.70 20.34552
982.80 20.32669
982.90 20.25613
983.00 20.23329
983.10 20.1643
983.20 20.08465
983.30 20.0024
983.40 19.97484
983.50 19.94285
983.60 19.89729
983.70 19.84447
983.80 19.83034
983.90 19.94131
984.00 20.10309
984.10 20.21173
984.20 20.28657
984.30 20.36247
984.40 20.40133
984.50 20.35274
984.60 20.27994
984.70 20.30613
984.80 20.37557
984.90 20.44064
985.00 20.36248
985.10 20.27828
985.20 20.23893
985.30 20.20179
985.40 20.15882
985.50 20.22771
985.60 20.42045
985.70 20.55989
985.80 20.55885
985.90 20.52047
986.00 20.53034
986.10 20.51623
986.20 20.49598
986.30 20.4905
986.40 20.52902
986.50 20.54055
986.60 20.50088
986.70 20.42945
986.80 20.44463
986.90 20.35249
987.00 20.24913
987.10 20.19333
987.20 20.31533
987.30 20.36846
987.40 20.44413
987.50 20.53259
987.60 20.66475
987.70 20.61462
987.80 20.52096
987.90 20.4383
988.00 20.2985
988.10 20.18445
988.20 20.20509
988.30 20.37292
988.40 20.50179
988.50 20.66444
988.60 20.8304
988.70 21.00141
988.80 20.98826
988.90 20.95689
989.00 20.90138
989.10 20.79755
989.20 20.69819
989.30 20.5189
989.40 20.26152
989.50 20.00678
989.60 19.39743
989.70 18.7428
989.80 18.19745
989.90 17.82262
990.00 17.43014
990.10 17.13862
990.20 16.97216
990.30 16.80259
990.40 16.38224
990.50 15.88499
990.60 15.42643
990.70 15.1129
990.80 14.83042
990.90 14.7217
991.00 14.8408
991.10 14.96731
991.20 15.05552
991.30 15.09734
991.40 15.13269
991.50 14.90173
991.60 14.68021
991.70 14.58549
991.80 14.7525
991.90 14.91986
992.00 15.16839
992.10 15.45652
992.20 15.76687
992.30 15.66114
992.40 15.48589
992.50 15.39171
992.60 15.42095
992.70 15.40436
992.80 15.54373
992.90 15.90889
993.00 16.32044
993.10 16.6291
993.20 16.86268
993.30 17.08258
993.40 16.84845
993.50 16.60582
993.60 16.55151
993.70 16.81508
993.80 17.07872
993.90 17.46666
994.00 17.88185
994.10 18.29151
994.20 18.32795
994.30 18.31737
994.40 18.29973
994.50 18.1567
994.60 18.04774
994.70 18.06979
994.80 18.19622
994.90 18.25875
995.00 18.42155
995.10 18.63014
995.20 18.87133
995.30 19.03803
995.40 19.15239
995.50 19.10113
995.60 18.85994
995.70 18.67086
995.80 18.47846
995.90 18.30249
996.00 18.09725
996.10 18.08631
996.20 18.09906
996.30 18.23484
996.40 18.61563
996.50 18.99156
996.60 19.26025
996.70 19.41341
996.80 19.60414
996.90 19.04538
997.00 18.42682
997.10 17.93247
997.20 17.57819
997.30 17.20853
997.40 17.13935
997.50 17.36661
997.60 17.54759
997.70 17.83432
997.80 18.11851
997.90 18.36136
998.00 18.53018
998.10 18.69752
998.20 18.71481
998.30 18.53231
998.40 18.40185
998.50 18.22089
998.60 18.02965
998.70 17.83014
998.80 17.87216
998.90 17.91722
999.00 17.89674
999.10 17.82824
999.20 17.80687
999.30 17.9318
999.40 18.13639
999.50 18.25137
999.60 18.22366
999.70 18.19024
999.80 18.21277
999.90 18.33018
1000.00 18.40953
1000.10 18.62237
1000.20 18.9382
1000.30 19.25133
1000.40 19.37869
1000.50 19.46213
1000.60 19.54922
1000.70 19.34144
1000.80 19.12754
1000.90 18.85067
1001.00 18.50067
1001.10 18.21309
1001.20 18.20912
1001.30 18.33992
1001.40 18.4002
1001.50 18.75659
1001.60 19.1154
1001.70 19.41324
1001.80 19.6017
1001.90 19.77196
1002.00 19.70993
1002.10 19.52491
1002.20 19.3933
1002.30 19.49811
1002.40 19.60662
1002.50 19.65416
1002.60 19.67318
1002.70 19.72042
1002.80 19.60159
1002.90 19.35803
1003.00 19.16625
1003.10 19.13488
1003.20 19.13929
1003.30 19.10129
1003.40 18.92564
1003.50 18.74306
1003.60 18.5936
1003.70 18.48571
1003.80 18.44418
1003.90 18.65543
1004.00 18.95459
1004.10 19.13647
1004.20 19.42053
1004.30 19.68601
1004.40 19.8603
1004.50 19.87865
1004.60 19.97846
1004.70 19.90073
1004.80 19.70434
1004.90 19.53374
1005.00 19.07992
1005.10 18.596
1005.20 18.15748
1005.30 17.79954
1005.40 17.41103
1005.50 17.23139
1005.60 17.24781
1005.70 17.24527
1005.80 17.48496
1005.90 17.7676
1006.00 17.99702
1006.10 18.16219
1006.20 18.36385
1006.30 18.48092
1006.40 18.47577
1006.50 18.48453
1006.60 18.71514
1006.70 19.03513
1006.80 19.28693
1006.90 19.49067
1007.00 19.71551
1007.10 19.79235
1007.20 19.56666
1007.30 19.35003
1007.40 19.36773
1007.50 19.52261
1007.60 19.61216
1007.70 19.8411
1007.80 20.06246
1007.90 20.18947
1008.00 20.1153
1008.10 20.06703
1008.20 20.07073
1008.30 20.10596
1008.40 20.18728
1008.50 20.32618
1008.60 20.44843
1008.70 20.45568
1008.80 20.15009
1008.90 19.89957
1009.00 19.67312
1009.10 19.43626
1009.20 19.23246
1009.30 19.27573
1009.40 19.41059
1009.50 19.459
1009.60 19.69858
1009.70 19.94472
1009.80 20.22238
1009.90 20.54267
1010.00 20.86956
1010.10 21.15877
1010.20 21.4082
1010.30 21.6136
1010.40 21.46337
1010.50 21.29396
1010.60 21.16067
1010.70 20.94018
1010.80 20.69672
1010.90 20.43803
1011.00 20.15658
1011.10 19.9235
1011.20 19.69326
1011.30 19.47546
1011.40 19.27142
1011.50 19.24597
1011.60 19.21059
1011.70 19.15166
1011.80 19.08708
1011.90 19.04041
1012.00 19.2889
1012.10 19.67123
1012.20 19.97058
1012.30 20.26647
1012.40 20.54589
1012.50 20.73269
1012.60 20.72039
1012.70 20.78162
1012.80 20.79667
1012.90 20.8146
1013.00 20.75014
1013.10 20.69233
1013.20 20.64641
1013.30 20.54783
1013.40 20.12916
1013.50 19.73968
1013.60 19.31287
1013.70 18.88731
1013.80 18.45577
1013.90 18.49747
1014.00 18.64281
1014.10 18.74778
1014.20 19.08586
1014.30 19.41199
1014.40 19.56606
1014.50 19.50981
1014.60 19.49431
1014.70 19.32367
1014.80 19.12541
1014.90 18.99863
1015.00 19.3568
1015.10 19.6585
1015.20 19.83953
1015.30 19.98322
1015.40 20.17948
1015.50 20.01375
1015.60 19.61207
1015.70 19.32264
1015.80 19.13983
1015.90 18.99996
1016.00 18.90589
1016.10 19.07449
1016.20 19.22987
1016.30 19.32712
1016.40 19.3816
1016.50 19.47008
1016.60 19.66097
1016.70 19.87312
1016.80 20.00402
1016.90 19.8348
1017.00 19.65368
1017.10 19.46442
1017.20 19.28107
1017.30 19.15369
1017.40 19.48118
1017.50 19.9971
1017.60 20.41386
1017.70 20.46276
1017.80 20.47514
1017.90 20.37428
1018.00 19.99876
1018.10 19.64723
1018.20 19.48147
1018.30 19.39591
1018.40 19.23444
1018.50 19.0355
1018.60 18.86259
1018.70 18.79076
1018.80 18.98322
1018.90 19.14591
1019.00 19.39637
1019.10 19.70556
1019.20 20.01215
1019.30 20.06417
1019.40 20.06376
1019.50 20.09162
1019.60 20.11046
1019.70 20.11904
1019.80 20.09998
1019.90 20.03374
1020.00 19.96429
1020.10 19.87891
1020.20 19.79923
1020.30 19.715
1020.40 19.79925
1020.50 19.9087
1020.60 20.03492
1020.70 20.188
1020.80 20.32907
1020.90 20.35636
1021.00 20.30664
1021.10 20.25042
1021.20 20.01227
1021.30 19.75858
1021.40 19.53537
1021.50 19.31361
1021.60 19.11905
1021.70 18.95785
1021.80 18.80546
1021.90 18.60115
1022.00 18.50615
1022.10 18.46963
1022.20 18.50314
1022.30 18.86152
1022.40 19.16861
1022.50 19.43112
1022.60 19.64041
1022.70 19.89101
1022.80 19.95763
1022.90 19.94914
1023.00 19.93197
1023.10 19.79735
1023.20 19.67757
1023.30 19.63663
1023.40 19.67691
1023.50 19.65607
1023.60 19.79905
1023.70 19.99882
1023.80 20.18897
1023.90 20.25154
1024.00 20.32905
1024.10 20.46422
1024.20 20.61415
1024.30 20.75276
1024.40 20.66595
1024.50 20.45383
1024.60 20.35906
1024.70 20.26547
1024.80 20.14348
1024.90 19.96656
1025.00 19.7951
1025.10 19.64389
1025.20 19.45228
1025.30 19.23986
1025.40 19.03904
1025.50 19.13355
1025.60 19.28878
1025.70 19.3208
1025.80 19.12398
1025.90 18.97272
1026.00 18.75745
1026.10 18.40445
1026.20 18.03747
1026.30 17.97467
1026.40 18.06598
1026.50 18.11338
1026.60 18.57599
1026.70 18.9878
1026.80 19.33679
1026.90 19.66119
1027.00 20.03365
1027.10 20.10566
1027.20 20.01648
1027.30 19.98932
1027.40 19.75224
1027.50 19.49565
1027.60 19.27384
1027.70 19.19435
1027.80 19.099
1027.90 19.03464
1028.00 18.95966
1028.10 18.90995
1028.20 18.69295
1028.30 18.45172
1028.40 18.26417
1028.50 18.40093
1028.60 18.50079
1028.70 18.77131
1028.80 19.25005
1028.90 19.67903
1029.00 19.73905
1029.10 19.67572
1029.20 19.7358
1029.30 19.63587
1029.40 19.51618
1029.50 19.47475
1029.60 19.55154
1029.70 19.57002
1029.80 19.47932
1029.90 19.344
1030.00 19.25665
1030.10 19.20365
1030.20 19.19068
1030.30 19.24749
1030.40 19.44984
1030.50 19.56561
1030.60 19.72361
1030.70 19.87951
1030.80 20.06797
1030.90 19.9463
1031.00 19.82454
1031.10 19.81469
1031.20 19.96652
1031.30 20.04774
1031.40 20.09963
1031.50 20.12904
1031.60 20.17856
1031.70 19.96662
1031.80 19.69935
1031.90 19.51183
1032.00 19.51405
1032.10 19.48365
1032.20 19.38821
1032.30 19.2387
1032.40 19.14467
1032.50 19.12214
1032.60 19.15819
1032.70 19.15807
1032.80 19.55661
1032.90 19.97142
1033.00 20.33251
1033.10 20.65201
1033.20 20.97061
1033.30 20.99372
1033.40 20.8291
1033.50 20.70839
1033.60 20.22397
1033.70 19.73114
1033.80 19.34484
1033.90 19.1607
1034.00 18.91978
1034.10 18.76075
1034.20 18.63824
1034.30 18.40982
1034.40 18.05508
1034.50 17.7418
1034.60 17.56778
1034.70 17.81944
1034.80 18.09479
1034.90 18.35597
1035.00 18.58484
1035.10 18.90546
1035.20 19.03014
1035.30 19.07929
1035.40 19.08616
1035.50 19.26167
1035.60 19.44683
1035.70 19.648
1035.80 19.89766
1035.90 20.13642
1036.00 20.39271
1036.10 20.63278
1036.20 20.8126
1036.30 20.80782
1036.40 20.79136
1036.50 20.78756
1036.60 20.75808
1036.70 20.7392
1036.80 20.7778
1036.90 20.85124
1037.00 20.88473
1037.10 21.06187
1037.20 21.27002
1037.30 21.43476
1037.40 21.4316
1037.50 21.41631
1037.60 21.21386
1037.70 20.84892
1037.80 20.5688
1037.90 20.17554
1038.00 19.75751
1038.10 19.3695
1038.20 19.32405
1038.30 19.24852
1038.40 19.35695
1038.50 19.70711
1038.60 20.0262
1038.70 20.18135
1038.80 20.24492
1038.90 20.32882
1039.00 20.20059
1039.10 20.0839
1039.20 19.98185
1039.30 19.87518
1039.40 19.72783
1039.50 19.53219
1039.60 19.31383
1039.70 19.11722
1039.80 19.16099
1039.90 19.25405
1040.00 19.38753
1040.10 19.70487
1040.20 20.03424
1040.30 20.33505
1040.40 20.57629
1040.50 20.82362
1040.60 20.94089
1040.70 21.02506
1040.80 21.09729
1040.90 21.02612
1041.00 20.94178
1041.10 20.69739
1041.20 20.29718
1041.30 19.97078
1041.40 19.84682
1041.50 19.77715
1041.60 19.74521
1041.70 20.21999
1041.80 20.65906
1041.90 20.97014
1042.00 21.13432
1042.10 21.37272
1042.20 21.20109
1042.30 20.87126
1042.40 20.59941
1042.50 20.24069
1042.60 19.89659
1042.70 19.58441
1042.80 19.34226
1042.90 19.07188
1043.00 19.17149
1043.10 19.48616
1043.20 19.69031
1043.30 20.18474
1043.40 20.70641
1043.50 21.12784
1043.60 21.18801
1043.70 21.30559
1043.80 21.32386
1043.90 21.27447
1044.00 21.17924
1044.10 21.1562
1044.20 21.15781
1044.30 21.16846
1044.40 21.20372
1044.50 21.22521
1044.60 21.20411
1044.70 21.12321
1044.80 21.04448
1044.90 21.16552
1045.00 21.35769
1045.10 21.534
1045.20 21.7855
1045.30 22.08469
1045.40 22.33284
1045.50 22.44455
1045.60 22.53189
1045.70 22.38967
1045.80 22.17199
1045.90 22.02079
1046.00 21.73358
1046.10 21.4195
1046.20 21.13929
1046.30 20.97343
1046.40 20.75814
1046.50 20.58566
1046.60 20.40721
1046.70 20.25839
1046.80 20.06129
1046.90 19.85605
1047.00 19.67633
1047.10 19.64423
1047.20 19.6014
1047.30 19.67857
1047.40 19.85235
1047.50 20.06449
1047.60 20.1863
1047.70 20.26201
1047.80 20.29031
1047.90 20.20419
1048.00 20.12454
1048.10 20.1403
1048.20 20.283
1048.30 20.38145
1048.40 20.54743
1048.50 20.71319
1048.60 20.86379
1048.70 20.79934
1048.80 20.76001
1048.90 20.75317
1049.00 20.79164
1049.10 20.8305
1049.20 20.89522
1049.30 20.95269
1049.40 20.98847
1049.50 20.70801
1049.60 20.40872
1049.70 20.15422
1049.80 19.94656
1049.90 19.73293
1050.00 19.8702
1050.10 20.20744
1050.20 20.48797
1050.30 20.62867
1050.40 20.74069
1050.50 20.82961
1050.60 20.7775
1050.70 20.71724
1050.80 20.67005
1050.90 20.63617
1051.00 20.56021
1051.10 20.31307
1051.20 20.05019
1051.30 19.85898
1051.40 19.71853
1051.50 19.55647
1051.60 19.52258
1051.70 19.64106
1051.80 19.71554
1051.90 19.71948
1052.00 19.69764
1052.10 19.69792
1052.20 19.76089
1052.30 19.83875
1052.40 20.00142
1052.50 20.29053
1052.60 20.54998
1052.70 20.76804
1052.80 20.94965
1052.90 21.13022
1053.00 21.03128
1053.10 20.90179
1053.20 20.81604
1053.30 20.78359
1053.40 20.7303
1053.50 20.76881
1053.60 20.82268
1053.70 20.86623
1053.80 20.7402
1053.90 20.63207
1054.00 20.58449
1054.10 20.64846
1054.20 20.65557
1054.30 20.69089
1054.40 20.70983
1054.50 20.74417
1054.60 20.51812
1054.70 20.26451
1054.80 20.09253
1054.90 20.10893
1055.00 20.09642
1055.10 20.23198
1055.20 20.52536
1055.30 20.75356
1055.40 20.71132
1055.50 20.58018
1055.60 20.49775
1055.70 20.23918
1055.80 19.97707
1055.90 19.74936
1056.00 19.55446
1056.10 19.39636
1056.20 19.38506
1056.30 19.44756
1056.40 19.43739
1056.50 19.51525
1056.60 19.61229
1056.70 19.6972
1056.80 19.72419
1056.90 19.76368
1057.00 19.79029
1057.10 19.82589
1057.20 19.87331
1057.30 20.01749
1057.40 20.158
1057.50 20.26182
1057.60 20.33836
1057.70 20.43419
1057.80 20.47458
1057.90 20.47421
1058.00 20.50283
1058.10 20.56935
1058.20 20.61624
1058.30 20.59596
1058.40 20.33877
1058.50 20.11084
1058.60 19.89661
1058.70 19.6932
1058.80 19.5011
1058.90 19.51753
1059.00 19.62078
1059.10 19.71052
1059.20 19.78525
1059.30 19.84792
1059.40 19.96022
1059.50 20.14343
1059.60 20.27524
1059.70 20.30714
1059.80 20.28179
1059.90 20.31044
1060.00 20.18088
1060.10 20.04298
1060.20 19.95168
1060.30 19.92019
1060.40 19.89846
1060.50 19.82869
1060.60 19.72879
1060.70 19.60084
1060.80 19.4798
1060.90 19.37506
1061.00 19.3399
1061.10 19.49641
1061.20 19.62522
1061.30 19.78986
1061.40 19.99263
1061.50 20.24405
1061.60 20.33719
1061.70 20.36457
1061.80 20.36022
1061.90 20.20402
1062.00 20.05779
1062.10 19.9445
1062.20 19.91036
1062.30 19.88554
1062.40 19.98843
1062.50 20.13162
1062.60 20.24664
1062.70 20.51474
1062.80 20.77275
1062.90 20.95214
1063.00 20.98694
1063.10 21.04108
1063.20 20.95287
1063.30 20.81379
1063.40 20.72489
1063.50 20.76455
1063.60 20.77043
1063.70 20.78517
1063.80 20.87056
1063.90 20.92925
1064.00 21.00153
1064.10 21.08327
1064.20 21.19368
1064.30 21.14296
1064.40 21.08898
1064.50 21.06825
1064.60 21.08908
1064.70 21.08631
1064.80 21.07629
1064.90 21.05628
1065.00 21.01585
1065.10 20.94079
1065.20 20.85932
1065.30 20.75851
1065.40 20.50085
1065.50 20.27393
1065.60 20.17387
1065.70 20.20515
1065.80 20.20277
1065.90 20.20098
1066.00 20.17083
1066.10 20.08624
1066.20 19.75322
1066.30 19.46373
1066.40 19.30098
1066.50 19.29962
1066.60 19.2788
1066.70 19.38673
1066.80 19.51993
1066.90 19.64309
1067.00 19.60928
1067.10 19.56563
1067.20 19.62489
1067.30 19.87715
1067.40 20.09643
1067.50 20.31229
1067.60 20.49844
1067.70 20.67174
1067.80 20.6878
1067.90 20.71315
1068.00 20.77484
1068.10 20.89166
1068.20 21.05433
1068.30 21.29971
1068.40 21.54476
1068.50 21.76895
1068.60 21.8884
1068.70 21.96368
1068.80 21.97659
1068.90 21.87549
1069.00 21.76977
1069.10 21.70179
1069.20 21.67721
1069.30 21.65056
1069.40 21.47745
1069.50 21.26214
1069.60 21.05103
1069.70 20.91131
1069.80 20.77739
1069.90 20.75301
1070.00 20.80507
1070.10 20.84133
1070.20 20.75604
1070.30 20.62307
1070.40 20.52564
1070.50 20.6463
1070.60 20.75578
1070.70 20.86883
1070.80 20.97512
1070.90 21.09201
1071.00 21.03276
1071.10 20.91703
1071.20 20.84154
1071.30 20.99383
1071.40 21.12548
1071.50 21.19789
1071.60 21.19338
1071.70 21.26535
1071.80 21.2622
1071.90 21.23256
1072.00 21.20948
1072.10 21.21805
1072.20 21.21407
1072.30 21.13437
1072.40 20.88138
1072.50 20.65005
1072.60 20.52658
1072.70 20.48439
1072.80 20.36608
1072.90 20.46756
1073.00 20.63839
1073.10 20.79662
1073.20 20.78117
1073.30 20.74873
1073.40 20.64286
1073.50 20.51768
1073.60 20.37834
1073.70 20.47519
1073.80 20.66723
1073.90 20.8756
1074.00 21.08841
1074.10 21.24484
1074.20 21.33826
1074.30 21.33533
1074.40 21.4148
1074.50 21.3656
1074.60 21.23245
1074.70 21.05869
1074.80 20.93712
1074.90 20.83982
1075.00 20.72827
1075.10 20.63657
1075.20 20.63988
1075.30 20.66235
1075.40 20.6879
1075.50 20.70674
1075.60 20.8529
1075.70 20.99754
1075.80 21.1413
1075.90 21.34551
1076.00 21.5623
1076.10 21.60398
1076.20 21.53136
1076.30 21.47895
1076.40 21.45353
1076.50 21.43599
1076.60 21.41239
1076.70 21.43232
1076.80 21.44325
1076.90 21.47304
1077.00 21.48684
1077.10 21.49484
1077.20 21.41411
1077.30 21.29332
1077.40 21.15283
1077.50 20.93271
1077.60 20.7723
1077.70 20.72198
1077.80 20.77828
1077.90 20.76502
1078.00 20.85702
1078.10 20.97453
1078.20 21.07645
1078.30 21.0399
1078.40 21.02402
1078.50 21.05027
1078.60 21.08608
1078.70 21.12709
1078.80 21.04017
1078.90 20.90354
1079.00 20.7955
1079.10 20.71293
1079.20 20.62571
1079.30 20.53512
1079.40 20.46744
1079.50 20.37592
1079.60 20.43958
1079.70 20.61897
1079.80 20.78698
1079.90 20.90393
1080.00 20.98558
1080.10 21.04057
1080.20 21.06945
1080.30 21.15352
1080.40 21.22778
1080.50 21.28011
1080.60 21.2788
1080.70 21.35
1080.80 21.43493
1080.90 21.51367
1081.00 21.4966
1081.10 21.48869
1081.20 21.4853
1081.30 21.4877
1081.40 21.51031
1081.50 21.58317
1081.60 21.66413
1081.70 21.72171
1081.80 21.7154
1081.90 21.73842
1082.00 21.6921
1082.10 21.54571
1082.20 21.39534
1082.30 21.23521
1082.40 21.08885
1082.50 20.94481
1082.60 20.94482
1082.70 20.9913
1082.80 21.09706
1082.90 21.26567
1083.00 21.44751
1083.10 21.62504
1083.20 21.74818
1083.30 21.75678
1083.40 21.60378
1083.50 21.38969
1083.60 21.13491
1083.70 20.89546
1083.80 20.7787
1083.90 20.8009
1084.00 20.94883
1084.10 21.14148
1084.20 21.24816
1084.30 21.29297
1084.40 21.28832
1084.50 21.16286
1084.60 21.09606
1084.70 21.03065
1084.80 21.00083
1084.90 20.90082
1085.00 21.02123
1085.10 21.1853
1085.20 21.30274
1085.30 21.23731
1085.40 21.20432
1085.50 21.22168
1085.60 21.30909
1085.70 21.33904
1085.80 21.45748
1085.90 21.59637
1086.00 21.74854
1086.10 21.85242
1086.20 21.94794
1086.30 21.98122
1086.40 21.93707
1086.50 21.94324
1086.60 21.84758
1086.70 21.71285
1086.80 21.59732
1086.90 21.66546
1087.00 21.71751
1087.10 21.74946
1087.20 21.78434
1087.30 21.82951
1087.40 21.68955
1087.50 21.47463
1087.60 21.3406
1087.70 21.39616
1087.80 21.43571
1087.90 21.43447
1088.00 21.4396
1088.10 21.49759
1088.20 21.47617
1088.30 21.42257
1088.40 21.38456
1088.50 21.45298
1088.60 21.52693
1088.70 21.53162
1088.80 21.4301
1088.90 21.40598
1089.00 21.43785
1089.10 21.52981
1089.20 21.57233
1089.30 21.55441
1089.40 21.48749
1089.50 21.39767
1089.60 21.40132
1089.70 21.41812
1089.80 21.53086
1089.90 21.73226
1090.00 21.90088
1090.10 21.91723
1090.20 21.88444
1090.30 21.87899
1090.40 21.86533
1090.50 21.85538
1090.60 21.80269
1090.70 21.6545
1090.80 21.51564
1090.90 21.3535
1091.00 21.20763
1091.10 21.11598
1091.20 21.19168
1091.30 21.25066
1091.40 21.33946
1091.50 21.57909
1091.60 21.79984
1091.70 21.95237
1091.80 21.99769
1091.90 22.03164
1092.00 21.97504
1092.10 21.95502
1092.20 21.99147
1092.30 22.05551
1092.40 22.03222
1092.50 21.98225
1092.60 21.92091
1092.70 21.91819
1092.80 21.94075
1092.90 21.96669
1093.00 21.96795
1093.10 21.9138
1093.20 21.86186
1093.30 21.82766
1093.40 21.81517
1093.50 21.84048
1093.60 21.85858
1093.70 21.87159
1093.80 21.88358
1093.90 22.04181
1094.00 22.15013
1094.10 22.24951
1094.20 22.33158
1094.30 22.38859
1094.40 22.1322
1094.50 21.77908
1094.60 21.4874
1094.70 21.50144
1094.80 21.50756
1094.90 21.61329
1095.00 21.84088
1095.10 22.06978
1095.20 22.28655
1095.30 22.49427
1095.40 22.6668
1095.50 22.57115
1095.60 22.48381
1095.70 22.40021
1095.80 22.31072
1095.90 22.20797
1096.00 22.21498
1096.10 22.28698
1096.20 22.36801
1096.30 22.40779
1096.40 22.42841
1096.50 22.42029
1096.60 22.30776
1096.70 22.16291
1096.80 21.90913
1096.90 21.58194
1097.00 21.35173
1097.10 21.25744
1097.20 21.18381
1097.30 21.14443
1097.40 21.35297
1097.50 21.52491
1097.60 21.63763
1097.70 21.70745
1097.80 21.77752
1097.90 21.83641
1098.00 21.89202
1098.10 21.93145
1098.20 21.81803
1098.30 21.74611
1098.40 21.69837
1098.50 21.63812
1098.60 21.55604
1098.70 21.49639
1098.80 21.45495
1098.90 21.39977
1099.00 21.45904
1099.10 21.53111
1099.20 21.64774
1099.30 21.84006
1099.40 21.95822
1099.50 21.95821
1099.60 21.8945
1099.70 21.91611
1099.80 21.90222
1099.90 21.86303
1100.00 21.79092
1100.10 21.7004
1100.20 21.62934
1100.30 21.52459
1100.40 21.39355
1100.50 21.28044
1100.60 21.30569
1100.70 21.34614
1100.80 21.37463
1100.90 21.49133
1101.00 21.64883
1101.10 21.70946
1101.20 21.681
1101.30 21.64276
1101.40 21.78206
1101.50 21.9468
1101.60 22.03123
1101.70 21.84425
1101.80 21.69643
1101.90 21.48121
1102.00 21.15599
1102.10 20.80606
1102.20 20.54467
1102.30 20.33753
1102.40 20.18275
1102.50 20.48494
1102.60 20.72116
1102.70 21.00047
1102.80 21.32821
1102.90 21.6661
1103.00 21.75189
1103.10 21.67876
1103.20 21.58373
1103.30 21.13108
1103.40 20.72367
1103.50 20.42136
1103.60 20.27418
1103.70 20.09013
1103.80 20.19578
1103.90 20.4419
1104.00 20.67814
1104.10 20.76812
1104.20 20.80422
1104.30 20.75337
1104.40 20.63269
1104.50 20.57723
1104.60 20.62964
1104.70 20.75492
1104.80 20.95911
1104.90 21.06989
1105.00 21.07763
1105.10 20.94479
1105.20 20.57222
1105.30 20.28779
1105.40 20.13746
1105.50 20.08257
1105.60 19.98099
1105.70 20.04223
1105.80 20.12546
1105.90 20.17359
1106.00 20.24677
1106.10 20.35314
1106.20 20.40058
1106.30 20.38626
1106.40 20.34676
1106.50 20.35868
1106.60 20.40715
1106.70 20.47858
1106.80 20.32432
1106.90 20.18131
1107.00 20.06996
1107.10 20.07032
1107.20 20.06852
1107.30 20.22208
1107.40 20.40941
1107.50 20.50843
1107.60 20.42467
1107.70 20.4111
1107.80 20.48078
1107.90 20.6277
1108.00 20.68795
1108.10 20.76233
1108.20 20.855
1108.30 20.9636
1108.40 21.02989
1108.50 21.0755
1108.60 21.08873
1108.70 21.06863
1108.80 21.11567
1108.90 21.12564
1109.00 21.12374
1109.10 21.14305
1109.20 21.19994
1109.30 21.22935
1109.40 21.21659
1109.50 21.25072
1109.60 21.302
1109.70 21.33735
1109.80 21.34986
1109.90 21.397
1110.00 21.29762
1110.10 21.19334
1110.20 21.12521
1110.30 20.97843
1110.40 20.79948
1110.50 20.68197
1110.60 20.66536
1110.70 20.54947
1110.80 20.58651
1110.90 20.66981
1111.00 20.75812
1111.10 20.64912
1111.20 20.55205
1111.30 20.48254
1111.40 20.43079
1111.50 20.29518
1111.60 20.20455
1111.70 20.17163
1111.80 20.1884
1111.90 20.19712
1112.00 20.20137
1112.10 20.20161
1112.20 20.21336
1112.30 20.23124
1112.40 20.33022
1112.50 20.4797
1112.60 20.64324
1112.70 20.84704
1112.80 21.00661
1112.90 21.10768
1113.00 21.15163
1113.10 21.19776
1113.20 21.16874
1113.30 21.12496
1113.40 21.14452
1113.50 21.07737
1113.60 21.02098
1113.70 21.00913
1113.80 20.97542
1113.90 20.82039
1114.00 20.78898
1114.10 20.85412
1114.20 20.92175
1114.30 21.0994
1114.40 21.27823
1114.50 21.40083
1114.60 21.37599
1114.70 21.48481
1114.80 21.54153
1114.90 21.52911
1115.00 21.43183
1115.10 21.4283
1115.20 21.42374
1115.30 21.36401
1115.40 21.26598
1115.50 21.27087
1115.60 21.24118
1115.70 21.09804
1115.80 20.92301
1115.90 20.84557
1116.00 20.82744
1116.10 20.8331
1116.20 20.91753
1116.30 20.97541
1116.40 20.98534
1116.50 20.89226
1116.60 20.64283
1116.70 20.44266
1116.80 20.35213
1116.90 20.48627
1117.00 20.49061
1117.10 20.4512
1117.20 20.41076
1117.30 20.36438
1117.40 20.2233
1117.50 20.2306
1117.60 20.27142
1117.70 20.31419
1117.80 20.38358
1117.90 20.47829
1118.00 20.50459
1118.10 20.58809
1118.20 20.75199
1118.30 20.93338
1118.40 21.09016
1118.50 21.13632
1118.60 21.15912
1118.70 21.25339
1118.80 21.23744
1118.90 21.16393
1119.00 21.0218
1119.10 20.88679
1119.20 20.75146
1119.30 20.6601
1119.40 20.59561
1119.50 20.5888
1119.60 20.6494
1119.70 20.73704
1119.80 20.86806
1119.90 20.96243
1120.00 21.04285
1120.10 21.08987
1120.20 21.13063
1120.30 21.15755
1120.40 21.20593
1120.50 21.20793
1120.60 21.21339
1120.70 21.17824
1120.80 21.0907
1120.90 21.08192
1121.00 21.05488
1121.10 21.04149
1121.20 20.97434
1121.30 20.91809
1121.40 20.8963
1121.50 20.89389
1121.60 20.89513
1121.70 20.84292
1121.80 20.7734
1121.90 20.68766
1122.00 20.66103
1122.10 20.68541
1122.20 20.68015
1122.30 20.69846
1122.40 20.70045
1122.50 20.619
1122.60 20.59386
1122.70 20.65884
1122.80 20.81514
1122.90 21.08887
1123.00 21.21076
1123.10 21.28372
1123.20 21.24643
1123.30 21.10693
1123.40 20.86985
1123.50 20.53569
1123.60 20.32253
1123.70 20.44295
1123.80 20.57356
1123.90 20.76114
1124.00 20.8965
1124.10 21.02567
1124.20 21.1356
1124.30 21.20801
1124.40 21.26259
1124.50 21.26798
1124.60 21.24663
1124.70 21.15644
1124.80 21.18255
1124.90 21.12354
1125.00 20.96675
1125.10 20.8455
1125.20 20.88285
1125.30 21.07002
1125.40 21.11183
1125.50 20.70037
1125.60 20.35989
1125.70 20.06393
1125.80 20.4187
1125.90 20.691
1126.00 20.88809
1126.10 20.92051
1126.20 20.89092
1126.30 20.88089
1126.40 20.88342
1126.50 20.91565
1126.60 20.98204
1126.70 21.06116
1126.80 21.1489
1126.90 21.2067
1127.00 21.24759
1127.10 21.27043
1127.20 21.27503
1127.30 21.21425
1127.40 21.08107
1127.50 20.9064
1127.60 20.74064
1127.70 20.63327
1127.80 20.60067
1127.90 20.658
1128.00 20.74408
1128.10 20.86498
1128.20 20.97082
1128.30 21.05955
1128.40 21.06497
1128.50 21.0816
1128.60 21.10798
1128.70 21.19048
1128.80 21.26119
1128.90 21.26994
1129.00 21.26313
1129.10 21.23369
1129.20 21.18203
1129.30 21.10951
1129.40 21.01897
1129.50 21.01474
1129.60 21.07765
1129.70 21.12028
1129.80 21.17139
1129.90 21.20877
1130.00 21.33185
1130.10 21.40784
1130.20 21.21638
1130.30 21.05607
1130.40 20.90513
1130.50 20.79713
1130.60 20.69908
1130.70 20.58634
1130.80 20.58782
1130.90 20.68291
1131.00 20.75171
1131.10 20.85967
1131.20 20.99054
1131.30 21.08028
1131.40 21.15244
1131.50 21.17655
1131.60 21.21668
1131.70 21.27393
1131.80 21.29324
1131.90 21.3029
1132.00 21.32974
1132.10 21.32524
1132.20 21.3014
1132.30 21.22306
1132.40 21.15198
1132.50 21.10566
1132.60 21.10056
1132.70 21.09864
1132.80 21.10449
1132.90 21.12653
1133.00 21.17056
1133.10 21.1629
1133.20 21.11268
1133.30 20.9669
1133.40 20.83131
1133.50 20.70748
1133.60 20.67928
1133.70 20.64267
1133.80 20.60389
1133.90 20.60434
1134.00 20.62167
1134.10 20.63217
1134.20 20.62099
1134.30 20.65475
1134.40 20.72687
1134.50 20.77533
1134.60 20.75082
1134.70 20.83896
1134.80 21.01547
1134.90 20.85272
1135.00 20.60315
1135.10 20.17159
1135.20 20.26038
1135.30 20.47997
1135.40 20.62859
1135.50 20.69119
1135.60 20.56333
1135.70 20.46541
1135.80 20.35155
1135.90 20.22383
1136.00 20.25326
1136.10 20.34981
1136.20 20.42157
1136.30 20.41607
1136.40 20.26408
1136.50 20.23499
1136.60 20.20349
1136.70 20.1436
1136.80 20.06992
1136.90 19.97251
1137.00 19.9022
1137.10 19.83508
1137.20 19.76505
1137.30 19.63513
1137.40 19.45215
1137.50 19.16385
1137.60 18.81804
1137.70 18.26356
1137.80 17.77462
1137.90 17.18457
1138.00 16.28078
1138.10 15.36296
1138.20 14.4514
1138.30 14.05947
1138.40 13.81742
1138.50 13.76339
1138.60 14.23621
1138.70 15.25174
1138.80 16.298
1138.90 17.27385
1139.00 17.87118
1139.10 18.39354
1139.20 18.75436
1139.30 18.75234
1139.40 18.76488
1139.50 18.75625
1139.60 18.60742
1139.70 18.40859
1139.80 18.13002
1139.90 17.71217
1140.00 17.10967
1140.10 16.49613
1140.20 15.70516
1140.30 14.63025
1140.40 13.59165
1140.50 12.57797
1140.60 12.31558
1140.70 12.09376
1140.80 12.10596
1140.90 12.94016
1141.00 14.05101
1141.10 15.2842
1141.20 16.36376
1141.30 17.23295
1141.40 17.91533
1141.50 18.50601
1141.60 18.87277
1141.70 19.29466
1141.80 19.62742
1141.90 19.78322
1142.00 19.87798
1142.10 19.89197
1142.20 19.83449
1142.30 19.77244
1142.40 19.82322
1142.50 19.89283
1142.60 20.00136
1142.70 20.12516
1142.80 20.2646
1142.90 20.38252
1143.00 20.50661
1143.10 20.59136
1143.20 20.62536
1143.30 20.65812
1143.40 20.70867
1143.50 20.76287
1143.60 20.80602
1143.70 20.74376
1143.80 20.60525
1143.90 20.37414
1144.00 20.10487
1144.10 19.90564
1144.20 19.84187
1144.30 19.83722
1144.40 19.85458
1144.50 19.87792
1144.60 19.94767
1144.70 20.05561
1144.80 20.18257
1144.90 20.30511
1145.00 20.36548
1145.10 20.42132
1145.20 20.45435
1145.30 20.50639
1145.40 20.53164
1145.50 20.5453
1145.60 20.55042
1145.70 20.5502
1145.80 20.56055
1145.90 20.56941
1146.00 20.59783
1146.10 20.67768
1146.20 20.77781
1146.30 20.87723
1146.40 20.97302
1146.50 21.06812
1146.60 21.0865
1146.70 21.08736
1146.80 20.97792
1146.90 20.93679
1147.00 20.86787
1147.10 20.74466
1147.20 20.58042
1147.30 20.39736
1147.40 20.34644
1147.50 20.36247
1147.60 20.59312
1147.70 20.83453
1147.80 21.08678
1147.90 21.1701
1148.00 21.20455
1148.10 21.20255
1148.20 21.21685
1148.30 21.21613
1148.40 21.08342
1148.50 20.9003
1148.60 20.6928
1148.70 20.66675
1148.80 20.71342
1148.90 20.79443
1149.00 20.85867
1149.10 20.8985
1149.20 21.09372
1149.30 21.20578
1149.40 21.23434
1149.50 21.12405
1149.60 21.01951
1149.70 21.00971
1149.80 20.98087
1149.90 20.94175
1150.00 20.84923
1150.10 20.7904
1150.20 20.88972
1150.30 20.97805
1150.40 21.08127
1150.50 21.0596
1150.60 21.07464
1150.70 21.14247
1150.80 21.17249
1150.90 21.19842
1151.00 21.17604
1151.10 21.16818
1151.20 21.15671
1151.30 21.11527
1151.40 21.08676
1151.50 21.12393
1151.60 21.15758
1151.70 21.20426
1151.80 21.19267
1151.90 21.2102
1152.00 21.2368
1152.10 21.25068
1152.20 21.21644
1152.30 21.05382
1152.40 20.91101
1152.50 20.79328
1152.60 20.76592
1152.70 20.7604
1152.80 20.74265
1152.90 20.74773
1153.00 20.76026
1153.10 20.82483
1153.20 20.86195
1153.30 20.89277
1153.40 20.8744
1153.50 20.84736
1153.60 20.89385
1153.70 20.92333
1153.80 20.96146
1153.90 21.02469
1154.00 21.08983
1154.10 21.1373
1154.20 21.12359
1154.30 21.05354
1154.40 21.09898
1154.50 21.09014
1154.60 20.99505
1154.70 20.90061
1154.80 20.79009
1154.90 20.81855
1155.00 20.80878
1155.10 20.79032
1155.20 20.83813
1155.30 20.92195
1155.40 21.04166
1155.50 21.15046
1155.60 21.24494
1155.70 21.25561
1155.80 21.2599
1155.90 21.21065
1156.00 21.24294
1156.10 21.25512
1156.20 21.27725
1156.30 21.26447
1156.40 21.24046
1156.50 21.2361
1156.60 21.2405
1156.70 21.2681
1156.80 21.22226
1156.90 21.12791
1157.00 21.05591
1157.10 21.0037
1157.20 21.01942
1157.30 20.98954
1157.40 20.97939
1157.50 20.97567
1157.60 20.95986
1157.70 20.93259
1157.80 20.91973
1157.90 20.92018
1158.00 20.97518
1158.10 21.0325
1158.20 21.08848
1158.30 21.11738
1158.40 21.11757
1158.50 21.09601
1158.60 21.0821
1158.70 21.05811
1158.80 20.98959
1158.90 20.92071
1159.00 20.84955
1159.10 20.67568
1159.20 20.48979
1159.30 20.31595
1159.40 20.1416
1159.50 19.98252
1159.60 19.80205
1159.70 19.74453
1159.80 19.87665
1159.90 19.97794
1160.00 20.12363
1160.10 20.29232
1160.20 20.45433
1160.30 20.60812
1160.40 20.64895
1160.50 20.65141
1160.60 20.5964
1160.70 20.30778
1160.80 19.90162
1160.90 19.54711
1161.00 19.29082
1161.10 19.2997
1161.20 19.33402
1161.30 19.52095
1161.40 19.94711
1161.50 20.34331
1161.60 20.71835
1161.70 20.84991
1161.80 20.973
1161.90 21.11454
1162.00 21.14471
1162.10 21.12334
1162.20 20.98451
1162.30 20.89079
1162.40 20.86442
1162.50 20.8403
1162.60 20.8579
1162.70 20.91592
1162.80 20.99525
1162.90 21.09971
1163.00 21.19353
1163.10 21.27229
1163.20 21.31124
1163.30 21.27344
1163.40 21.20624
1163.50 21.13282
1163.60 20.95759
1163.70 20.63806
1163.80 20.32065
1163.90 20.00979
1164.00 19.85037
1164.10 19.7011
1164.20 19.6441
1164.30 19.94124
1164.40 20.25212
1164.50 20.56108
1164.60 20.75591
1164.70 20.88092
1164.80 20.98416
1164.90 21.01486
1165.00 20.97809
1165.10 20.9619
1165.20 20.90815
1165.30 20.82381
1165.40 20.75648
1165.50 20.69604
1165.60 20.70455
1165.70 20.69753
1165.80 20.69127
1165.90 20.76376
1166.00 20.85924
1166.10 20.94106
1166.20 21.01304
1166.30 21.0749
1166.40 21.15783
1166.50 21.19645
1166.60 21.19589
1166.70 21.1927
1166.80 21.17359
1166.90 21.06028
1167.00 20.96993
1167.10 20.92285
1167.20 20.8995
1167.30 20.87486
1167.40 20.80597
1167.50 20.74223
1167.60 20.69039
1167.70 20.64057
1167.80 20.59887
1167.90 20.59048
1168.00 20.59223
1168.10 20.59394
1168.20 20.50276
1168.30 20.42708
1168.40 20.35947
1168.50 20.14459
1168.60 19.88787
1168.70 19.61706
1168.80 19.05234
1168.90 18.14199
1169.00 17.26609
1169.10 16.43483
1169.20 16.04637
1169.30 15.59063
1169.40 15.39244
1169.50 16.25453
1169.60 17.09446
1169.70 17.92615
1169.80 18.62554
1169.90 19.26974
1170.00 19.86939
1170.10 20.23343
1170.20 20.42055
1170.30 20.626
1170.40 20.74343
1170.50 20.7474
1170.60 20.81524
1170.70 20.87052
1170.80 20.84161
1170.90 20.83151
1171.00 20.81657
1171.10 20.80273
1171.20 20.79522
1171.30 20.81851
1171.40 20.84862
1171.50 20.87223
1171.60 20.86744
1171.70 20.82282
1171.80 20.72363
1171.90 20.64841
1172.00 20.58908
1172.10 20.57751
1172.20 20.54912
1172.30 20.51883
1172.40 20.5278
1172.50 20.54163
1172.60 20.54764
1172.70 20.58712
1172.80 20.66129
1172.90 20.73974
1173.00 20.81139
1173.10 20.84997
1173.20 20.92307
1173.30 20.96962
1173.40 20.91666
1173.50 20.86342
1173.60 20.80104
1173.70 20.76549
1173.80 20.70902
1173.90 20.6327
1174.00 20.6093
1174.10 20.61397
1174.20 20.64003
1174.30 20.67572
1174.40 20.73036
1174.50 20.83132
1174.60 20.92166
1174.70 20.92737
1174.80 20.93609
1174.90 20.92384
1175.00 20.85987
1175.10 20.792
1175.20 20.73275
1175.30 20.69994
1175.40 20.67792
1175.50 20.65128
1175.60 20.66444
1175.70 20.73819
1175.80 20.77644
1175.90 20.76393
1176.00 20.65886
1176.10 20.59054
1176.20 20.52372
1176.30 20.42017
1176.40 20.31455
1176.50 20.22727
1176.60 19.94163
1176.70 19.5455
1176.80 19.08909
1176.90 18.29965
1177.00 17.15799
1177.10 16.07557
1177.20 14.97803
1177.30 14.25079
1177.40 13.51547
1177.50 12.97372
1177.60 13.67063
1177.70 14.42478
1177.80 15.18889
1177.90 16.15593
1178.00 17.18547
1178.10 18.05535
1178.20 18.65216
1178.30 18.91425
1178.40 19.19134
1178.50 19.37121
1178.60 19.45239
1178.70 19.62026
1178.80 19.80638
1178.90 19.95874
1179.00 20.13048
1179.10 20.31908
1179.20 20.39546
1179.30 20.43114
1179.40 20.40492
1179.50 20.35122
1179.60 20.27644
1179.70 20.19352
1179.80 20.12435
1179.90 20.09613
1180.00 20.13974
1180.10 20.23291
1180.20 20.37716
1180.30 20.49024
1180.40 20.5586
1180.50 20.56651
1180.60 20.56112
1180.70 20.55638
1180.80 20.51449
1180.90 20.45968
1181.00 20.4119
1181.10 20.37005
1181.20 20.33308
1181.30 20.31617
1181.40 20.31184
1181.50 20.3033
1181.60 20.26455
1181.70 20.21302
1181.80 20.21565
1181.90 20.23084
1182.00 20.22702
1182.10 20.23433
1182.20 20.25566
1182.30 20.32842
1182.40 20.32718
1182.50 20.20998
1182.60 20.08214
1182.70 19.91013
1182.80 19.67136
1182.90 19.43492
1183.00 19.22299
1183.10 19.24361
1183.20 19.32204
1183.30 19.45378
1183.40 19.58966
1183.50 19.71857
1183.60 19.82742
1183.70 19.87777
1183.80 19.87717
1183.90 19.87898
1184.00 19.92303
1184.10 20.14054
1184.20 20.29731
1184.30 20.43621
1184.40 20.46887
1184.50 20.49967
1184.60 20.54049
1184.70 20.4434
1184.80 20.29025
1184.90 20.15643
1185.00 20.05141
1185.10 20.02577
1185.20 20.00564
1185.30 20.03024
1185.40 20.16707
1185.50 20.25744
1185.60 20.34418
1185.70 20.36266
1185.80 20.36495
1185.90 20.35949
1186.00 20.35728
1186.10 20.36801
1186.20 20.41795
1186.30 20.4641
1186.40 20.48704
1186.50 20.47566
1186.60 20.42084
1186.70 20.30744
1186.80 20.23712
1186.90 20.17548
1187.00 20.17141
1187.10 20.16173
1187.20 20.15446
1187.30 20.20538
1187.40 20.26995
1187.50 20.27527
1187.60 20.25297
1187.70 20.17843
1187.80 20.18293
1187.90 20.10443
1188.00 19.8456
1188.10 19.53196
1188.20 19.13699
1188.30 18.51537
1188.40 17.9282
1188.50 17.39874
1188.60 17.36242
1188.70 17.48469
1188.80 17.71062
1188.90 18.15235
1189.00 18.76804
1189.10 19.299
1189.20 19.71216
1189.30 19.7901
1189.40 19.91362
1189.50 20.00325
1189.60 20.09681
1189.70 20.19196
1189.80 20.27502
1189.90 20.34873
1190.00 20.41553
1190.10 20.43772
1190.20 20.39374
1190.30 20.30772
1190.40 20.26363
1190.50 20.214
1190.60 20.14562
1190.70 20.06556
1190.80 19.9985
1190.90 20.08283
1191.00 20.14303
1191.10 20.21723
1191.20 20.26204
1191.30 20.29929
1191.40 20.32751
1191.50 20.32525
1191.60 20.3068
1191.70 20.2966
1191.80 20.28593
1191.90 20.28808
1192.00 20.301
1192.10 20.3295
1192.20 20.31134
1192.30 20.29946
1192.40 20.26891
1192.50 20.23027
1192.60 20.18496
1192.70 20.13763
1192.80 20.15057
1192.90 20.19519
1193.00 20.23851
1193.10 20.2786
1193.20 20.29879
1193.30 20.3037
1193.40 20.27914
1193.50 20.15406
1193.60 20.07071
1193.70 19.97438
1193.80 19.84202
1193.90 19.7126
1194.00 19.60772
1194.10 19.5954
1194.20 19.61979
1194.30 19.59247
1194.40 19.57025
1194.50 19.52491
1194.60 19.50073
1194.70 19.42143
1194.80 19.22334
1194.90 19.05554
1195.00 18.88934
1195.10 18.90853
1195.20 18.90947
1195.30 18.92814
1195.40 19.09884
1195.50 19.29962
1195.60 19.4725
1195.70 19.53734
1195.80 19.45827
1195.90 19.4885
1196.00 19.44868
1196.10 19.37882
1196.20 19.30258
1196.30 19.23138
1196.40 19.23414
1196.50 19.21486
1196.60 19.1826
1196.70 19.17844
1196.80 19.18338
1196.90 19.17263
1197.00 18.97702
1197.10 18.63226
1197.20 18.24641
1197.30 17.79141
1197.40 17.29168
1197.50 16.85641
1197.60 16.50691
1197.70 16.75488
1197.80 16.96827
1197.90 17.24968
1198.00 17.58238
1198.10 17.91016
1198.20 18.19458
1198.30 18.42851
1198.40 18.6343
1198.50 18.77731
1198.60 18.9082
1198.70 18.957
1198.80 19.05967
1198.90 19.08628
1199.00 18.87789
1199.10 18.72516
1199.20 18.58624
1199.30 18.55033
1199.40 18.51024
1199.50 18.45026
1199.60 18.48254
1199.70 18.5495
1199.80 18.58602
1199.90 18.6152
1200.00 18.6042
