# Version 2.1 - nm, norm@500 to 1, cut digits
# Wavelength(nm)  Flambda(ergs/cm^s/s/nm)
300.00 0.00852849
300.10 0.01134457
300.20 0.01305556
300.30 0.01375792
300.40 0.01393671
300.50 0.01398594
300.60 0.01403706
300.70 0.01409008
300.80 0.01414671
300.90 0.01421085
301.00 0.01428693
301.10 0.01437694
301.20 0.01447876
301.30 0.01458766
301.40 0.01469933
301.50 0.01481153
301.60 0.01492371
301.70 0.01503588
301.80 0.01514805
301.90 0.01526021
302.00 0.01537237
302.10 0.01548453
302.20 0.01559669
302.30 0.01570884
302.40 0.015821
302.50 0.01593314
302.60 0.01604527
302.70 0.0161578
302.80 0.01627244
302.90 0.01639244
303.00 0.01652142
303.10 0.01666098
303.20 0.0168095
303.30 0.0169634
303.40 0.0171194
303.50 0.0172758
303.60 0.01743218
303.70 0.01758856
303.80 0.01774494
303.90 0.01790131
304.00 0.01805768
304.10 0.01821405
304.20 0.01837042
304.30 0.0185268
304.40 0.01868319
304.50 0.01883961
304.60 0.01899608
304.70 0.01915131
304.80 0.01930011
304.90 0.01943248
305.00 0.01953741
305.10 0.01961
305.20 0.01965516
305.30 0.01968387
305.40 0.01970616
305.50 0.01972721
305.60 0.01974832
305.70 0.01976944
305.80 0.01979059
305.90 0.01981173
306.00 0.01983288
306.10 0.01985403
306.20 0.01987518
306.30 0.01989633
306.40 0.01991748
306.50 0.01993863
306.60 0.01995978
306.70 0.01998093
306.80 0.02000209
306.90 0.02002329
307.00 0.02004455
307.10 0.02006589
307.20 0.02008728
307.30 0.0201087
307.40 0.02013014
307.50 0.02015158
307.60 0.02017303
307.70 0.02019447
307.80 0.02021591
307.90 0.02023736
308.00 0.0202588
308.10 0.02028024
308.20 0.02030168
308.30 0.02032311
308.40 0.0203445
308.50 0.02036582
308.60 0.02038702
308.70 0.02041132
308.80 0.0204517
308.90 0.02053322
309.00 0.02068341
309.10 0.02091453
309.20 0.02121433
309.30 0.02155526
309.40 0.02191228
309.50 0.02227238
309.60 0.02263237
309.70 0.0229923
309.80 0.02335218
309.90 0.02371206
310.00 0.02407193
310.10 0.0244318
310.20 0.02479167
310.30 0.02515156
310.40 0.02551148
310.50 0.02587147
310.60 0.02623158
310.70 0.02658858
310.80 0.02692941
310.90 0.0272289
311.00 0.02745933
311.10 0.02760843
311.20 0.02768847
311.30 0.02772717
311.40 0.0277497
311.50 0.02776912
311.60 0.02778866
311.70 0.02780827
311.80 0.02782791
311.90 0.02784757
312.00 0.02786723
312.10 0.02788689
312.20 0.02790654
312.30 0.02792618
312.40 0.02794578
312.50 0.02796529
312.60 0.02798465
312.70 0.02800786
312.80 0.02805103
312.90 0.02814527
313.00 0.02832478
313.10 0.02860477
313.20 0.02897002
313.30 0.02938635
313.40 0.02982264
313.50 0.03026278
313.60 0.03070276
313.70 0.03114267
313.80 0.03158253
313.90 0.03202237
314.00 0.03246221
314.10 0.03290205
314.20 0.03334188
314.30 0.03378171
314.40 0.0342215
314.50 0.03466123
314.60 0.03510087
314.70 0.03554317
314.80 0.03599938
314.90 0.03649113
315.00 0.03704225
315.10 0.03766329
315.20 0.0383437
315.30 0.03905966
315.40 0.03978951
315.50 0.04052204
315.60 0.04125447
315.70 0.04198684
315.80 0.04271917
315.90 0.0434515
316.00 0.04418382
316.10 0.04491615
316.20 0.04564848
316.30 0.04638086
316.40 0.04711334
316.50 0.04784605
316.60 0.04857912
316.70 0.04930237
316.80 0.04997454
316.90 0.05051603
317.00 0.05083933
317.10 0.05090555
317.20 0.05075359
317.30 0.05047094
317.40 0.05013722
317.50 0.04979367
317.60 0.04945048
317.70 0.04910752
317.80 0.04876467
317.90 0.04842186
318.00 0.04807906
318.10 0.04773626
318.20 0.04739345
318.30 0.04705061
318.40 0.04670769
318.50 0.04636459
318.60 0.04602122
318.70 0.04568537
318.80 0.04538861
318.90 0.0451919
319.00 0.0451622
319.10 0.04532929
319.20 0.04566341
319.30 0.04609755
319.40 0.0465708
319.50 0.04705157
319.60 0.04753206
319.70 0.04801238
319.80 0.04849262
319.90 0.04897282
320.00 0.04945302
320.10 0.04993321
320.20 0.05041341
320.30 0.05089362
320.40 0.05137386
320.50 0.05185417
320.60 0.05233458
320.70 0.0528122
320.80 0.05327537
320.90 0.05370153
321.00 0.05406593
321.10 0.05435754
321.20 0.05458738
321.30 0.05478022
321.40 0.0549586
321.50 0.0551342
321.60 0.0553099
321.70 0.05548566
321.80 0.05566146
321.90 0.05583727
322.00 0.05601308
322.10 0.05618889
322.20 0.05636469
322.30 0.05654044
322.40 0.05671608
322.50 0.0568915
322.60 0.05706653
322.70 0.05725172
322.80 0.05748974
322.90 0.0578629
323.00 0.0584617
323.10 0.05932633
323.20 0.06041661
323.30 0.06164203
323.40 0.06292027
323.50 0.06420867
323.60 0.06549669
323.70 0.06678448
323.80 0.06807216
323.90 0.0693598
324.00 0.07064742
324.10 0.07193504
324.20 0.07322267
324.30 0.0745103
324.40 0.07579795
324.50 0.07708564
324.60 0.07837339
324.70 0.07965949
324.80 0.08093701
324.90 0.08219258
325.00 0.08341149
325.10 0.08458722
325.20 0.0857263
325.30 0.08684342
325.40 0.08795197
325.50 0.08905886
325.60 0.09016582
325.70 0.09127281
325.80 0.09237982
325.90 0.09348684
326.00 0.09459386
326.10 0.09570088
326.20 0.0968079
326.30 0.0979149
326.40 0.09902186
326.50 0.1001287
326.60 0.1012355
326.70 0.1023458
326.80 0.1034746
326.90 0.1046507
327.00 0.1059058
327.10 0.107254
327.20 0.1086812
327.30 0.1101557
327.40 0.1116487
327.50 0.1131452
327.60 0.1146417
327.70 0.116138
327.80 0.1176343
327.90 0.1191306
328.00 0.1206269
328.10 0.1221231
328.20 0.1236194
328.30 0.1251158
328.40 0.1266125
328.50 0.1281095
328.60 0.1296074
328.70 0.1310844
328.80 0.1324529
328.90 0.1335438
329.00 0.1341712
329.10 0.1342524
329.20 0.1338702
329.30 0.1332103
329.40 0.132442
329.50 0.1316527
329.60 0.1308643
329.70 0.1300763
329.80 0.1292885
329.90 0.1285008
330.00 0.1277132
330.10 0.1269255
330.20 0.1261379
330.30 0.1253501
330.40 0.1245622
330.50 0.123774
330.60 0.1229852
330.70 0.1222118
330.80 0.121519
330.90 0.121032
331.00 0.120889
331.10 0.121151
331.20 0.1217568
331.30 0.1225686
331.40 0.1234609
331.50 0.1243687
331.60 0.1252759
331.70 0.1261827
331.80 0.1270894
331.90 0.127996
332.00 0.1289026
332.10 0.1298092
332.20 0.1307158
332.30 0.1316224
332.40 0.1325292
332.50 0.1334361
332.60 0.1343435
332.70 0.135241
332.80 0.1360876
332.90 0.1368038
333.00 0.1373022
333.10 0.1375442
333.20 0.1375685
333.30 0.1374624
333.40 0.1373054
333.50 0.1371385
333.60 0.136972
333.70 0.1368058
333.80 0.1366396
333.90 0.1364735
334.00 0.1363074
334.10 0.1361412
334.20 0.1359746
334.30 0.1358075
334.40 0.1356399
334.50 0.135472
334.60 0.1354431
334.70 0.1358685
334.80 0.1368687
334.90 0.1378817
335.00 0.1378384
335.10 0.1364462
335.20 0.1353844
335.30 0.1377941
335.40 0.1458615
335.50 0.1583518
335.60 0.170477
335.70 0.1766816
335.80 0.1742278
335.90 0.1645522
336.00 0.1517326
336.10 0.1399654
336.20 0.1321754
336.30 0.1295857
336.40 0.131198
336.50 0.1339151
336.60 0.1343961
336.70 0.1318275
336.80 0.1289594
336.90 0.1299497
337.00 0.1368038
337.10 0.1474212
337.20 0.1567993
337.30 0.1604718
337.40 0.1576456
337.50 0.1516953
337.60 0.1475834
337.70 0.1481787
337.80 0.152572
337.90 0.1577423
338.00 0.161381
338.10 0.1628538
338.20 0.161826
338.30 0.1571986
338.40 0.1485949
338.50 0.1385595
338.60 0.1321637
338.70 0.1333599
338.80 0.1412912
338.90 0.1505649
339.00 0.1555852
339.10 0.1551365
339.20 0.1531328
339.30 0.1547708
339.40 0.1617461
339.50 0.1711561
339.60 0.1786414
339.70 0.1820502
339.80 0.1819888
339.90 0.1796609
340.00 0.1755455
340.10 0.1701362
340.20 0.1645744
340.30 0.1597258
340.40 0.1550025
340.50 0.1489768
340.60 0.1413022
340.70 0.133508
340.80 0.1277855
340.90 0.1253806
341.00 0.1262092
341.10 0.1295104
341.20 0.1344086
341.30 0.139875
341.40 0.1446973
341.50 0.1479492
341.60 0.1495413
341.70 0.1502617
341.80 0.1511777
341.90 0.1528488
342.00 0.1548307
342.10 0.1557624
342.20 0.1541939
342.30 0.1498045
342.40 0.1440594
342.50 0.1394667
342.60 0.1378911
342.70 0.139391
342.80 0.1424609
342.90 0.1452205
343.00 0.1465712
343.10 0.1466898
343.20 0.1466187
343.30 0.1472537
343.40 0.1485638
343.50 0.149776
343.60 0.1501937
343.70 0.1496254
343.80 0.148219
343.90 0.146323
344.00 0.144575
344.10 0.1437124
344.20 0.1439273
344.30 0.1445412
344.40 0.1446002
344.50 0.1437869
344.60 0.1426779
344.70 0.1422375
344.80 0.1432025
344.90 0.1458338
345.00 0.1499942
345.10 0.1552531
345.20 0.1609085
345.30 0.165988
345.40 0.1694041
345.50 0.1704789
345.60 0.1695113
345.70 0.167727
345.80 0.1664407
345.90 0.1661365
346.00 0.1662514
346.10 0.1656668
346.20 0.1634891
346.30 0.1597519
346.40 0.1556421
346.50 0.1528093
346.60 0.1520537
346.70 0.1526305
346.80 0.1529423
346.90 0.1518392
347.00 0.1492111
347.10 0.1457678
347.20 0.1426874
347.30 0.1412836
347.40 0.1423918
347.50 0.14571
347.60 0.14994
347.70 0.1537851
347.80 0.1568186
347.90 0.1594703
348.00 0.1623511
348.10 0.1655714
348.20 0.1685223
348.30 0.1702779
348.40 0.170347
348.50 0.169103
348.60 0.1673991
348.70 0.1657895
348.80 0.1642686
348.90 0.1626562
349.00 0.1609602
349.10 0.1593312
349.20 0.1579044
349.30 0.1568747
349.40 0.1565918
349.50 0.1572789
349.60 0.1585949
349.70 0.1596861
349.80 0.1599414
349.90 0.1598508
350.00 0.1609473
350.10 0.1645994
350.20 0.1707006
350.30 0.1775311
350.40 0.1829327
350.50 0.1856747
350.60 0.185859
350.70 0.184343
350.80 0.1820109
350.90 0.1793567
351.00 0.1762914
351.10 0.1721846
351.20 0.1663556
351.30 0.1589459
351.40 0.1513965
351.50 0.1457539
351.60 0.1432193
351.70 0.1433005
351.80 0.1443832
351.90 0.1450765
352.00 0.1449898
352.10 0.1444055
352.20 0.1436515
352.30 0.1430114
352.40 0.1430952
352.50 0.1450219
352.60 0.1498053
352.70 0.1573055
352.80 0.1658289
352.90 0.1730737
353.00 0.1778259
353.10 0.1807359
353.20 0.1833233
353.30 0.1864295
353.40 0.1898486
353.50 0.1931671
353.60 0.1964689
353.70 0.2000723
353.80 0.203973
353.90 0.2078232
354.00 0.2111676
354.10 0.213414
354.20 0.2138471
354.30 0.2121804
354.40 0.2091751
354.50 0.2063813
354.60 0.2049791
354.70 0.2049077
354.80 0.2051925
354.90 0.2049676
355.00 0.2040712
355.10 0.2028514
355.20 0.2016789
355.30 0.2007255
355.40 0.2000746
355.50 0.1997626
355.60 0.1995874
355.70 0.1989819
355.80 0.1972786
355.90 0.1942645
356.00 0.1904352
356.10 0.1865914
356.20 0.1831528
356.30 0.179822
356.40 0.1759095
356.50 0.1710819
356.60 0.1659064
356.70 0.1616479
356.80 0.1593865
356.90 0.1592197
357.00 0.1602704
357.10 0.1613653
357.20 0.1616497
357.30 0.1607598
357.40 0.1587161
357.50 0.1558073
357.60 0.1525065
357.70 0.1493051
357.80 0.146513
357.90 0.1441888
358.00 0.1423132
358.10 0.1410912
358.20 0.1410327
358.30 0.1426179
358.40 0.1458161
358.50 0.1499115
358.60 0.1537811
358.70 0.1563754
358.80 0.1571562
358.90 0.1563566
359.00 0.1549984
359.10 0.1545085
359.20 0.1559338
359.30 0.1592105
359.40 0.1630807
359.50 0.1658802
359.60 0.1666667
359.70 0.1658054
359.80 0.1645562
359.90 0.1640092
360.00 0.164219
360.10 0.1642073
360.20 0.1627967
360.30 0.1595562
360.40 0.1551615
360.50 0.1510574
360.60 0.1487866
360.70 0.149376
360.80 0.1528734
360.90 0.1582392
361.00 0.163858
361.10 0.168458
361.20 0.1717148
361.30 0.174
361.40 0.175635
361.50 0.1765505
361.60 0.1767286
361.70 0.176683
361.80 0.1771791
361.90 0.1784567
362.00 0.1799428
362.10 0.1808517
362.20 0.1809072
362.30 0.1804213
362.40 0.179917
362.50 0.1798307
362.60 0.180308
362.70 0.1809522
362.80 0.1808954
362.90 0.1794886
363.00 0.1770571
363.10 0.1748043
363.20 0.1738417
363.30 0.1743596
363.40 0.1757088
363.50 0.1770805
363.60 0.1780269
363.70 0.1785049
363.80 0.1786069
363.90 0.1782962
364.00 0.1773417
364.10 0.175478
364.20 0.1726745
364.30 0.1692835
364.40 0.165967
364.50 0.16348
364.60 0.1623787
364.70 0.1627097
364.80 0.1639421
364.90 0.1653694
365.00 0.1667546
365.10 0.1685707
365.20 0.1714188
365.30 0.1751358
365.40 0.1785763
365.50 0.1804065
365.60 0.1802048
365.70 0.1787817
365.80 0.1773981
365.90 0.1767422
366.00 0.1766714
366.10 0.1767877
366.20 0.1770635
366.30 0.1777874
366.40 0.1790348
366.50 0.180378
366.60 0.1811108
366.70 0.180705
366.80 0.1790856
366.90 0.1765914
367.00 0.1737969
367.10 0.1713547
367.20 0.1698577
367.30 0.1696868
367.40 0.1708456
367.50 0.1729268
367.60 0.1753119
367.70 0.177492
367.80 0.1792802
367.90 0.1807769
368.00 0.1821595
368.10 0.1834704
368.20 0.1845421
368.30 0.1850789
368.40 0.1848494
368.50 0.1839032
368.60 0.1826619
368.70 0.181744
368.80 0.1815871
368.90 0.1821808
369.00 0.183188
369.10 0.1843424
369.20 0.185631
369.30 0.1870419
369.40 0.188244
369.50 0.1886694
369.60 0.188005
369.70 0.1865764
369.80 0.1852343
369.90 0.184872
370.00 0.1859618
370.10 0.1883697
370.20 0.1915072
370.30 0.1946482
370.40 0.1971795
370.50 0.1987034
370.60 0.1990827
370.70 0.1985492
370.80 0.1977192
370.90 0.1973176
371.00 0.1977083
371.10 0.1985926
371.20 0.1991217
371.30 0.1983359
371.40 0.1957002
371.50 0.191459
371.60 0.1866006
371.70 0.1823942
371.80 0.1798103
371.90 0.1792063
372.00 0.1803559
372.10 0.1825156
372.20 0.1843714
372.30 0.1842676
372.40 0.180972
372.50 0.174642
372.60 0.1671154
372.70 0.1610873
372.80 0.1587363
372.90 0.1607701
373.00 0.1663726
373.10 0.1737977
373.20 0.1810937
373.30 0.186632
373.40 0.1894327
373.50 0.1892342
373.60 0.1863118
373.70 0.1812155
373.80 0.1746536
373.90 0.1675584
374.00 0.1610994
374.10 0.1564804
374.20 0.1546325
374.30 0.1560496
374.40 0.160828
374.50 0.1687008
374.60 0.178938
374.70 0.1902059
374.80 0.2006497
374.90 0.2083652
375.00 0.2120532
375.10 0.2114375
375.20 0.2072203
375.30 0.2007162
375.40 0.1934483
375.50 0.1868291
375.60 0.1818233
375.70 0.178689
375.80 0.1769934
375.90 0.1759699
376.00 0.1750481
376.10 0.174271
376.20 0.1743845
376.30 0.1765281
376.40 0.1816793
376.50 0.1902329
376.60 0.2019914
376.70 0.2162944
376.80 0.2319263
376.90 0.2468589
377.00 0.2584168
377.10 0.2641955
377.20 0.2631626
377.30 0.2560594
377.40 0.2448549
377.50 0.2318143
377.60 0.2188503
377.70 0.207338
377.80 0.1980662
377.90 0.1911964
378.00 0.1863621
378.10 0.1829837
378.20 0.1806073
378.30 0.1789885
378.40 0.1779579
378.50 0.1773753
378.60 0.1772622
378.70 0.1778756
378.80 0.179597
378.90 0.1828545
379.00 0.1882524
379.10 0.196648
379.20 0.2087957
379.30 0.2246898
379.40 0.2431563
379.50 0.2620232
379.60 0.2786219
379.70 0.2903191
379.80 0.2951138
379.90 0.2922606
380.00 0.2826526
380.10 0.2685612
380.20 0.252769
380.30 0.2376157
380.40 0.2245054
380.50 0.2139426
380.60 0.205811
380.70 0.1996114
380.80 0.1946386
380.90 0.1902864
381.00 0.1863466
381.10 0.1829993
381.20 0.1804526
381.30 0.1786031
381.40 0.1771366
381.50 0.1759736
381.60 0.1754168
381.70 0.1757531
381.80 0.1766847
381.90 0.1772505
382.00 0.1764938
382.10 0.1759575
382.20 0.1800428
382.30 0.1973851
382.40 0.2282318
382.50 0.262495
382.60 0.2891834
382.70 0.30361
382.80 0.3111964
382.90 0.3224469
383.00 0.3491416
383.10 0.3855722
383.20 0.4110165
383.30 0.4228379
383.40 0.4260832
383.50 0.4246912
383.60 0.4155034
383.70 0.3926534
383.80 0.3550798
383.90 0.314328
384.00 0.2933224
384.10 0.3057871
384.20 0.3345146
384.30 0.3419619
384.40 0.3103081
384.50 0.260768
384.60 0.2194647
384.70 0.2081398
384.80 0.2247935
384.90 0.2639219
385.00 0.3120986
385.10 0.3475064
385.20 0.3546589
385.30 0.3367145
385.40 0.3085755
385.50 0.2841673
385.60 0.2730896
385.70 0.2777597
385.80 0.2881776
385.90 0.2885861
386.00 0.2725932
386.10 0.2488523
386.20 0.2285444
386.30 0.2121736
386.40 0.1947921
386.50 0.1795854
386.60 0.1793217
386.70 0.204108
386.80 0.2489308
386.90 0.294611
387.00 0.321217
387.10 0.3216247
387.20 0.3068399
387.30 0.2977898
387.40 0.3068125
387.50 0.3236574
387.60 0.323302
387.70 0.2930625
387.80 0.2478264
387.90 0.2125801
388.00 0.1968094
388.10 0.1932549
388.20 0.1966333
388.30 0.208396
388.40 0.2248603
388.50 0.2409422
388.60 0.2658223
388.70 0.3167541
388.80 0.3910567
388.90 0.4558748
389.00 0.4765696
389.10 0.4487657
389.20 0.3939008
389.30 0.3351083
389.40 0.2836671
389.50 0.2435358
389.60 0.2181535
389.70 0.1985767
389.80 0.1979954
389.90 0.2179812
390.00 0.2546761
390.10 0.2985892
390.20 0.3194321
390.30 0.3158467
390.40 0.3081658
390.50 0.3009608
390.60 0.2977481
390.70 0.2986899
390.80 0.3022003
390.90 0.302453
391.00 0.2924922
391.10 0.2728661
391.20 0.2541661
391.30 0.2626018
391.40 0.2861627
391.50 0.3106493
391.60 0.323016
391.70 0.3148603
391.80 0.2861302
391.90 0.2464027
392.00 0.2098991
392.10 0.1904363
392.20 0.1915035
392.30 0.2088835
392.40 0.2225267
392.50 0.2262482
392.60 0.2316427
392.70 0.2474742
392.80 0.2790042
392.90 0.3168561
393.00 0.3621165
393.10 0.4298711
393.20 0.5334404
393.30 0.658571
393.40 0.7383719
393.50 0.707151
393.60 0.5709836
393.70 0.4073451
393.80 0.2959098
393.90 0.260031
394.00 0.2696488
394.10 0.2823796
394.20 0.2757417
394.30 0.2577789
394.40 0.2344558
394.50 0.2204107
394.60 0.2225335
394.70 0.2369841
394.80 0.2464541
394.90 0.250863
395.00 0.2503629
395.10 0.2505491
395.20 0.253387
395.30 0.2578527
395.40 0.2639942
395.50 0.280163
395.60 0.2983766
395.70 0.2930441
395.80 0.2615932
395.90 0.2234012
396.00 0.2028463
396.10 0.201016
396.20 0.2021182
396.30 0.2055194
396.40 0.2250507
396.50 0.2835511
396.60 0.3929363
396.70 0.541928
396.80 0.6951677
396.90 0.7991024
397.00 0.8087937
397.10 0.72141
397.20 0.5841757
397.30 0.4617378
397.40 0.3944223
397.50 0.3774301
397.60 0.3810644
397.70 0.3832541
397.80 0.3799742
397.90 0.3735494
398.00 0.3645345
398.10 0.3549951
398.20 0.3526641
398.30 0.3634072
398.40 0.3816048
398.50 0.3939426
398.60 0.39261
398.70 0.3808587
398.80 0.3696265
398.90 0.3530101
399.00 0.3388069
399.10 0.344681
399.20 0.3822741
399.30 0.439547
399.40 0.4851187
399.50 0.4928232
399.60 0.4614208
399.70 0.4092454
399.80 0.3603864
399.90 0.3344448
400.00 0.3336623
400.10 0.3458368
400.20 0.3566302
400.30 0.3597367
400.40 0.3563757
400.50 0.3510591
400.60 0.3488799
400.70 0.3508552
400.80 0.3637993
400.90 0.3916998
401.00 0.418739
401.10 0.4249354
401.20 0.4013441
401.30 0.367583
401.40 0.3478441
401.50 0.3485801
401.60 0.3570307
401.70 0.3618347
401.80 0.3542671
401.90 0.3444188
402.00 0.3433031
402.10 0.3518159
402.20 0.3644151
402.30 0.3751194
402.40 0.3797916
402.50 0.3779955
402.60 0.3722206
402.70 0.3626604
402.80 0.3444916
402.90 0.3138442
403.00 0.2773815
403.10 0.2493709
403.20 0.2366701
403.30 0.2346213
403.40 0.2384798
403.50 0.2519107
403.60 0.2794757
403.70 0.3181118
403.80 0.3565736
403.90 0.3879721
404.00 0.4151619
404.10 0.441656
404.20 0.4659614
404.30 0.4766429
404.40 0.4584763
404.50 0.4078246
404.60 0.3429214
404.70 0.2923211
404.80 0.2711813
404.90 0.2721697
405.00 0.2780313
405.10 0.2800322
405.20 0.2836838
405.30 0.2980238
405.40 0.3226667
405.50 0.347475
405.60 0.361988
405.70 0.3645638
405.80 0.3619965
405.90 0.3597617
406.00 0.3581879
406.10 0.3543315
406.20 0.3470012
406.30 0.3411381
406.40 0.3453124
406.50 0.361413
406.60 0.3798091
406.70 0.3833611
406.80 0.3613144
406.90 0.3191328
407.00 0.2752509
407.10 0.248779
407.20 0.2497669
407.30 0.2663929
407.40 0.2786255
407.50 0.2806062
407.60 0.2722148
407.70 0.2646963
407.80 0.2678378
407.90 0.2813486
408.00 0.2985673
408.10 0.3161546
408.20 0.3356008
408.30 0.3559691
408.40 0.3697129
408.50 0.3708305
408.60 0.3638118
408.70 0.3583449
408.80 0.3557569
408.90 0.3475821
409.00 0.330599
409.10 0.3155598
409.20 0.3164252
409.30 0.3341745
409.40 0.3547829
409.50 0.3646384
409.60 0.3611983
409.70 0.3523309
409.80 0.351953
409.90 0.3756572
410.00 0.4309388
410.10 0.5041999
410.20 0.5595416
410.30 0.5612065
410.40 0.5022123
410.50 0.410832
410.60 0.3291371
410.70 0.2904017
410.80 0.2840765
410.90 0.294685
411.00 0.3071741
411.10 0.3131218
411.20 0.3119888
411.30 0.3082491
411.40 0.3067607
411.50 0.307736
411.60 0.3141712
411.70 0.3191169
411.80 0.3152052
411.90 0.311197
412.00 0.315798
412.10 0.3275723
412.20 0.3367262
412.30 0.3383715
412.40 0.3365471
412.50 0.3373962
412.60 0.3415229
412.70 0.3452817
412.80 0.3465081
412.90 0.3439975
413.00 0.334812
413.10 0.3174777
413.20 0.2959575
413.30 0.2773014
413.40 0.2640222
413.50 0.2526004
413.60 0.240676
413.70 0.2322691
413.80 0.2342676
413.90 0.2494239
414.00 0.2727685
414.10 0.2933096
414.20 0.307434
414.30 0.302818
414.40 0.2822371
414.50 0.2577974
414.60 0.2426268
414.70 0.2415635
414.80 0.2554857
414.90 0.271215
415.00 0.2807081
415.10 0.2933247
415.20 0.3151684
415.30 0.3374441
415.40 0.3522
415.50 0.3534925
415.60 0.3393222
415.70 0.3129636
415.80 0.2836601
415.90 0.2646648
416.00 0.2666893
416.10 0.2863723
416.20 0.3127885
416.30 0.3377382
416.40 0.3591775
416.50 0.3759423
416.60 0.3885255
416.70 0.3822565
416.80 0.3574557
416.90 0.3272894
417.00 0.3069889
417.10 0.2992462
417.20 0.2869944
417.30 0.2685834
417.40 0.2523422
417.50 0.2441366
417.60 0.2407385
417.70 0.2376941
417.80 0.2385401
417.90 0.2557555
418.00 0.2853528
418.10 0.3208641
418.20 0.3502715
418.30 0.3646412
418.40 0.3653957
418.50 0.3607257
418.60 0.3619215
418.70 0.3606273
418.80 0.353796
418.90 0.3416705
419.00 0.3273719
419.10 0.3142641
419.20 0.3049259
419.30 0.3007725
419.40 0.301498
419.50 0.3045003
419.60 0.3060387
419.70 0.3046341
419.80 0.3020848
419.90 0.3011058
420.00 0.2996476
420.10 0.292209
420.20 0.2774814
420.30 0.2640266
420.40 0.2559664
420.50 0.2474644
420.60 0.2334625
420.70 0.2144951
420.80 0.1997641
420.90 0.191403
421.00 0.1932455
421.10 0.2077538
421.20 0.2325771
421.30 0.2600404
421.40 0.2810353
421.50 0.2921228
421.60 0.2931145
421.70 0.2850579
421.80 0.2697205
421.90 0.2500341
422.00 0.2286403
422.10 0.2061876
422.20 0.182979
422.30 0.161138
422.40 0.1432639
422.50 0.1285811
422.60 0.1139778
422.70 0.1045781
422.80 0.09742815
422.90 0.1010895
423.00 0.1175447
423.10 0.1383445
423.20 0.1530512
423.30 0.1602649
423.40 0.168069
423.50 0.1877954
423.60 0.2177131
423.70 0.2402575
423.80 0.2482099
423.90 0.2454096
424.00 0.241331
424.10 0.2419262
424.20 0.2456431
424.30 0.2474345
424.40 0.2481965
424.50 0.2499029
424.60 0.2524693
424.70 0.253474
424.80 0.2547282
424.90 0.257053
425.00 0.2644243
425.10 0.2754021
425.20 0.2809222
425.30 0.2737402
425.40 0.2563874
425.50 0.2387189
425.60 0.2288043
425.70 0.2264242
425.80 0.2254553
425.90 0.2218418
426.00 0.2180835
426.10 0.2195144
426.20 0.2263864
426.30 0.2345512
426.40 0.2427542
426.50 0.2533997
426.60 0.2642125
426.70 0.2663662
426.80 0.2570959
426.90 0.2500924
427.00 0.2597237
427.10 0.2743073
427.20 0.2807341
427.30 0.2715069
427.40 0.2506314
427.50 0.2289815
427.60 0.2186079
427.70 0.2272236
427.80 0.2542123
427.90 0.2856669
428.00 0.3082461
428.10 0.3163113
428.20 0.3109631
428.30 0.2985596
428.40 0.2871144
428.50 0.281277
428.60 0.2771766
428.70 0.2685703
428.80 0.2549155
428.90 0.2415989
429.00 0.2336954
429.10 0.2361266
429.20 0.2444639
429.30 0.2543941
429.40 0.264405
429.50 0.2746435
429.60 0.2879448
429.70 0.3048959
429.80 0.3186482
429.90 0.3194863
430.00 0.3059604
430.10 0.2890652
430.20 0.283993
430.30 0.2974311
430.40 0.3215403
430.50 0.3395051
430.60 0.3372313
430.70 0.3131639
430.80 0.2794723
430.90 0.2528901
431.00 0.2434682
431.10 0.2505977
431.20 0.2660554
431.30 0.2792705
431.40 0.2821773
431.50 0.2729949
431.60 0.2601604
431.70 0.255516
431.80 0.2654582
431.90 0.2888161
432.00 0.3167229
432.10 0.3395977
432.20 0.3494792
432.30 0.35029
432.40 0.348597
432.50 0.3448848
432.60 0.3337653
432.70 0.3146644
432.80 0.2976523
432.90 0.2937907
433.00 0.3038078
433.10 0.3200023
433.20 0.3383269
433.30 0.3565642
433.40 0.3694799
433.50 0.3773879
433.60 0.3885373
433.70 0.4203756
433.80 0.4971444
433.90 0.6126459
434.00 0.7358515
434.10 0.8150654
434.20 0.812472
434.30 0.7336068
434.40 0.6222285
434.50 0.5270293
434.60 0.471975
434.70 0.4516361
434.80 0.4448619
434.90 0.4308261
435.00 0.3994935
435.10 0.3546693
435.20 0.3103348
435.30 0.2822466
435.40 0.2789038
435.50 0.2967372
435.60 0.3232371
435.70 0.3439657
435.80 0.3520435
435.90 0.3500449
436.00 0.3436714
436.10 0.3358116
436.20 0.3316702
436.30 0.3287215
436.40 0.3347496
436.50 0.3497029
436.60 0.360515
436.70 0.3615131
436.80 0.3585668
436.90 0.3608769
437.00 0.36894
437.10 0.3748566
437.20 0.3721703
437.30 0.3614425
437.40 0.3482164
437.50 0.3388616
437.60 0.3362199
437.70 0.3377199
437.80 0.3377172
437.90 0.3328233
438.00 0.3266533
438.10 0.3244894
438.20 0.3271028
438.30 0.3321581
438.40 0.3422219
438.50 0.3610469
438.60 0.3845818
438.70 0.401642
438.80 0.402825
438.90 0.3890097
439.00 0.3721267
439.10 0.3623004
439.20 0.360366
439.30 0.3605832
439.40 0.3592595
439.50 0.3603017
439.60 0.3695363
439.70 0.3853764
439.80 0.39897
439.90 0.4072271
440.00 0.4111215
440.10 0.4155303
440.20 0.4218786
440.30 0.425585
440.40 0.4259528
440.50 0.4166877
440.60 0.4023055
440.70 0.3903259
440.80 0.3857711
440.90 0.3963617
441.00 0.4150526
441.10 0.433569
441.20 0.4450395
441.30 0.4487654
441.40 0.4505355
441.50 0.4564168
441.60 0.4675786
441.70 0.4813333
441.80 0.4929102
441.90 0.4963841
442.00 0.4878559
442.10 0.4702959
442.20 0.4528683
442.30 0.4429197
442.40 0.4401645
442.50 0.4401378
442.60 0.4407481
442.70 0.4428317
442.80 0.4468358
442.90 0.4531255
443.00 0.463854
443.10 0.47986
443.20 0.4950205
443.30 0.498283
443.40 0.4859482
443.50 0.4698565
443.60 0.4660564
443.70 0.4791952
443.80 0.5094407
443.90 0.5427548
444.00 0.5702614
444.10 0.5877359
444.20 0.5944799
444.30 0.5937693
444.40 0.5905229
444.50 0.5870915
444.60 0.5839039
444.70 0.5827527
444.80 0.5869632
444.90 0.5977698
445.00 0.6115666
445.10 0.6219171
445.20 0.6227063
445.30 0.6089131
445.40 0.579011
445.50 0.5403825
445.60 0.5084876
445.70 0.4990307
445.80 0.5129209
445.90 0.5376056
446.00 0.5592687
446.10 0.5728903
446.20 0.5809177
446.30 0.5863412
446.40 0.5898913
446.50 0.5914189
446.60 0.5916105
446.70 0.5923653
446.80 0.5964754
446.90 0.6069421
447.00 0.6249572
447.10 0.6484374
447.20 0.672819
447.30 0.692419
447.40 0.7011568
447.50 0.6947216
447.60 0.6756977
447.70 0.6551785
447.80 0.645895
447.90 0.6517118
448.00 0.6682031
448.10 0.6765909
448.20 0.6752888
448.30 0.6772381
448.40 0.6867705
448.50 0.704233
448.60 0.7222755
448.70 0.7329285
448.80 0.7338965
448.90 0.7291824
449.00 0.7257795
449.10 0.7288028
449.20 0.7372171
449.30 0.7434009
449.40 0.7388607
449.50 0.7235035
449.60 0.7082561
449.70 0.7054689
449.80 0.7183556
449.90 0.7402269
450.00 0.7614252
450.10 0.7753296
450.20 0.7798442
450.30 0.7771773
450.40 0.7720527
450.50 0.7667366
450.60 0.7589306
450.70 0.7469371
450.80 0.7341294
450.90 0.7257171
451.00 0.7220084
451.10 0.7185317
451.20 0.7138234
451.30 0.7121522
451.40 0.7163132
451.50 0.7216198
451.60 0.720829
451.70 0.7149919
451.80 0.7152911
451.90 0.7311953
452.00 0.759014
452.10 0.7853717
452.20 0.8007087
452.30 0.806568
452.40 0.8096225
452.50 0.8119274
452.60 0.8100812
452.70 0.8020251
452.80 0.79115
452.90 0.783476
453.00 0.7816216
453.10 0.7818262
453.20 0.7773729
453.30 0.7652619
453.40 0.7497022
453.50 0.7397956
453.60 0.7439243
453.70 0.7651687
453.80 0.8001497
453.90 0.8398121
454.00 0.8736517
454.10 0.8953816
454.20 0.903962
454.30 0.8992828
454.40 0.8796435
454.50 0.8455726
454.60 0.8042069
454.70 0.7673828
454.80 0.7441294
454.90 0.7362372
455.00 0.7396386
455.10 0.748504
455.20 0.7593718
455.30 0.7721307
455.40 0.7876835
455.50 0.8055995
455.60 0.8247187
455.70 0.8452374
455.80 0.8682955
455.90 0.892775
456.00 0.9147616
456.10 0.9311184
456.20 0.9421411
456.30 0.9507686
456.40 0.9603112
456.50 0.9739361
456.60 0.9939378
456.70 1.018544
456.80 1.040683
456.90 1.053344
457.00 1.057649
457.10 1.063094
457.20 1.077423
457.30 1.09738
457.40 1.110431
457.50 1.10486
457.60 1.078511
457.70 1.039787
457.80 1.002294
457.90 0.9776012
458.00 0.9695662
458.10 0.9728287
458.20 0.9754733
458.30 0.9640608
458.40 0.9309271
458.50 0.8795916
458.60 0.8227145
458.70 0.7740552
458.80 0.742257
458.90 0.7312062
459.00 0.7411426
459.10 0.7661479
459.20 0.7938551
459.30 0.8137975
459.40 0.8270127
459.50 0.8432995
459.60 0.8679511
459.70 0.8940767
459.80 0.9096273
459.90 0.910422
460.00 0.9039138
460.10 0.9009721
460.20 0.9060492
460.30 0.9133513
460.40 0.9108143
460.50 0.8899295
460.60 0.8554224
460.70 0.8266887
460.80 0.8273859
460.90 0.8692136
461.00 0.9426899
461.10 1.022868
461.20 1.085113
461.30 1.1198
461.40 1.134388
461.50 1.142023
461.60 1.148986
461.70 1.152807
461.80 1.150417
461.90 1.144914
462.00 1.143862
462.10 1.151951
462.20 1.165284
462.30 1.170944
462.40 1.152468
462.50 1.099767
462.60 1.018154
462.70 0.9285444
462.80 0.8561105
462.90 0.8163972
463.00 0.8102111
463.10 0.8280539
463.20 0.8563135
463.30 0.8812457
463.40 0.8928581
463.50 0.8895603
463.60 0.8774766
463.70 0.8639545
463.80 0.8532551
463.90 0.847639
464.00 0.8494274
464.10 0.8600873
464.20 0.8781131
464.30 0.8984154
464.40 0.9139179
464.50 0.9189548
464.60 0.9145278
464.70 0.9092956
464.80 0.9118916
464.90 0.9219024
465.00 0.9309466
465.10 0.9336777
465.20 0.9346008
465.30 0.9414895
465.40 0.9547536
465.50 0.9673157
465.60 0.9748081
465.70 0.9834345
465.80 1.004893
465.90 1.043515
466.00 1.089376
466.10 1.125043
466.20 1.140368
466.30 1.141155
466.40 1.142033
466.50 1.149186
466.60 1.151814
466.70 1.131615
466.80 1.079729
466.90 1.003368
467.00 0.9185322
467.10 0.840473
467.20 0.7811326
467.30 0.7491795
467.40 0.7463747
467.50 0.7645971
467.60 0.7885651
467.70 0.8041743
467.80 0.8054689
467.90 0.7954766
468.00 0.7828863
468.10 0.7772995
468.20 0.7845021
468.30 0.8043773
468.40 0.8327253
468.50 0.865024
468.60 0.8979094
468.70 0.9272107
468.80 0.9482897
468.90 0.9597496
469.00 0.9648378
469.10 0.9676627
469.20 0.9691578
469.30 0.968576
469.40 0.9676073
469.50 0.9700327
469.60 0.9777732
469.70 0.9892656
469.80 1.001798
469.90 1.014076
470.00 1.026035
470.10 1.037655
470.20 1.048792
470.30 1.058391
470.40 1.063068
470.50 1.058076
470.60 1.041882
470.70 1.020001
470.80 1.002225
470.90 0.995813
471.00 1.001302
471.10 1.012461
471.20 1.018697
471.30 1.010055
471.40 0.9841728
471.50 0.9496068
471.60 0.9212488
471.70 0.9109037
471.80 0.921405
471.90 0.9473491
472.00 0.9787867
472.10 1.006115
472.20 1.024946
472.30 1.03775
472.40 1.049791
472.50 1.062462
472.60 1.071105
472.70 1.07072
472.80 1.063402
472.90 1.057924
473.00 1.061288
473.10 1.071808
473.20 1.081815
473.30 1.086217
473.40 1.086194
473.50 1.085127
473.60 1.083626
473.70 1.080648
473.80 1.077744
473.90 1.078868
474.00 1.085691
474.10 1.095146
474.20 1.103231
474.30 1.109879
474.40 1.118322
474.50 1.130372
474.60 1.144366
474.70 1.157738
474.80 1.169757
474.90 1.181376
475.00 1.193009
475.10 1.203276
475.20 1.210883
475.30 1.217361
475.40 1.226092
475.50 1.236701
475.60 1.240162
475.70 1.222081
475.80 1.173063
475.90 1.094824
476.00 0.9966815
476.10 0.889656
476.20 0.7857796
476.30 0.6997686
476.40 0.6466626
476.50 0.6245807
476.60 0.6203675
476.70 0.6230844
476.80 0.6249529
476.90 0.6261718
477.00 0.6298836
477.10 0.6361785
477.20 0.6437817
477.30 0.6543431
477.40 0.6729604
477.50 0.702705
477.60 0.7379585
477.70 0.7650648
477.80 0.7725132
477.90 0.7617077
478.00 0.7463257
478.10 0.7404223
478.20 0.7481316
478.30 0.7639774
478.40 0.7806369
478.50 0.7955618
478.60 0.8113058
478.70 0.8300077
478.80 0.8484896
478.90 0.8604772
479.00 0.8645688
479.10 0.8674467
479.20 0.8763578
479.30 0.8907407
479.40 0.904388
479.50 0.914355
479.60 0.9243582
479.70 0.9398121
479.80 0.962216
479.90 0.9880637
480.00 1.010293
480.10 1.020401
480.20 1.011755
480.30 0.983112
480.40 0.9384938
480.50 0.8835316
480.60 0.8233698
480.70 0.7644983
480.80 0.7167319
480.90 0.6900302
481.00 0.6873868
481.10 0.7017184
481.20 0.7221917
481.30 0.7430213
481.40 0.7648256
481.50 0.787955
481.60 0.8072424
481.70 0.8162499
481.80 0.8152241
481.90 0.8125167
482.00 0.8178912
482.10 0.8355009
482.20 0.8624235
482.30 0.8916516
482.40 0.9152031
482.50 0.9270966
482.60 0.9269282
482.70 0.9201153
482.80 0.9131319
482.90 0.907725
483.00 0.9011642
483.10 0.8922824
483.20 0.8854834
483.30 0.8876717
483.40 0.9020581
483.50 0.926112
483.60 0.9551907
483.70 0.9869305
483.80 1.020071
483.90 1.048846
484.00 1.061305
484.10 1.046841
484.20 1.007728
484.30 0.9624998
484.40 0.9345725
484.50 0.9336044
484.60 0.9462851
484.70 0.9473419
484.80 0.9215035
484.90 0.8747263
485.00 0.8252989
485.10 0.7886476
485.20 0.7719619
485.30 0.7766951
485.40 0.7981617
485.50 0.8231197
485.60 0.8380285
485.70 0.8482301
485.80 0.888821
485.90 1.005463
486.00 1.208174
486.10 1.437629
486.20 1.588863
486.30 1.585729
486.40 1.440022
486.50 1.237448
486.60 1.067017
486.70 0.9667971
486.80 0.926545
486.90 0.920687
487.00 0.9299975
487.10 0.9438041
487.20 0.9572871
487.30 0.9701957
487.40 0.9829919
487.50 0.9923944
487.60 0.9936429
487.70 0.9871485
487.80 0.979902
487.90 0.978984
488.00 0.9848456
488.10 0.9923215
488.20 0.9971548
488.30 1.000014
488.40 1.004567
488.50 1.013269
488.60 1.026135
488.70 1.041854
488.80 1.058076
488.90 1.070967
489.00 1.076425
489.10 1.073579
489.20 1.066952
489.30 1.063288
489.40 1.065675
489.50 1.071714
489.60 1.076759
489.70 1.077898
489.80 1.075347
489.90 1.071944
490.00 1.071963
490.10 1.079026
490.20 1.094318
490.30 1.117336
490.40 1.147838
490.50 1.185323
490.60 1.226994
490.70 1.267451
490.80 1.301151
490.90 1.325317
491.00 1.341342
491.10 1.353213
491.20 1.363131
491.30 1.368489
491.40 1.364723
491.50 1.352228
491.60 1.338606
491.70 1.332201
491.80 1.334445
491.90 1.340851
492.00 1.34882
492.10 1.36075
492.20 1.379065
492.30 1.401685
492.40 1.424636
492.50 1.447499
492.60 1.472921
492.70 1.501063
492.80 1.526978
492.90 1.54388
493.00 1.547893
493.10 1.540835
493.20 1.529389
493.30 1.521303
493.40 1.521202
493.50 1.52849
493.60 1.539688
493.70 1.55188
493.80 1.563246
493.90 1.572531
494.00 1.580284
494.10 1.590198
494.20 1.607472
494.30 1.63388
494.40 1.665014
494.50 1.6941
494.60 1.718625
494.70 1.743019
494.80 1.773524
494.90 1.809558
495.00 1.840355
495.10 1.847919
495.20 1.811045
495.30 1.70981
495.40 1.535499
495.50 1.304228
495.60 1.059667
495.70 0.8546786
495.80 0.7238494
495.90 0.6689063
496.00 0.6652155
496.10 0.680383
496.20 0.6912542
496.30 0.6922042
496.40 0.6926002
496.50 0.7059006
496.60 0.7391465
496.70 0.7901774
496.80 0.8515466
496.90 0.914499
497.00 0.9695987
497.10 1.007944
497.20 1.025819
497.30 1.028504
497.40 1.027339
497.50 1.031355
497.60 1.041388
497.70 1.051982
497.80 1.057596
497.90 1.055082
498.00 1.042265
498.10 1.019334
498.20 0.993978
498.30 0.9823349
498.40 0.9990487
498.50 1.043396
498.60 1.097426
498.70 1.140111
498.80 1.162867
498.90 1.171615
499.00 1.176268
499.10 1.179887
499.20 1.178635
499.30 1.170528
499.40 1.162513
499.50 1.166376
499.60 1.174557
499.70 1.142146
499.80 1.010755
499.90 0.7657347
500.00 1
500.10 0.9070271
500.20 0.864712
500.30 0.8594132
500.40 0.8623829
500.50 0.8724686
500.60 0.8916425
500.70 0.9104714
500.80 0.8803187
500.90 0.8412207
501.00 0.8949037
501.10 0.9771584
501.20 0.9627845
501.30 0.9434782
501.40 0.9292074
501.50 0.8541737
501.60 0.852428
501.70 0.8811278
501.80 0.9339652
501.90 1.027098
502.00 1.080676
502.10 1.06289
502.20 1.054647
502.30 1.031211
502.40 1.021337
502.50 1.011621
502.60 1.056864
502.70 1.072419
502.80 1.128827
502.90 1.128204
503.00 1.131272
503.10 1.15907
503.20 1.180541
503.30 1.200337
503.40 1.196678
503.50 1.169344
503.60 1.178249
503.70 1.15692
503.80 1.202925
503.90 1.190333
504.00 1.15953
504.10 1.137195
504.20 1.177078
504.30 1.202719
504.40 1.224566
504.50 1.247972
504.60 1.368731
504.70 1.403092
504.80 1.346141
504.90 1.300615
505.00 1.227574
505.10 1.158699
505.20 1.176389
505.30 1.213128
505.40 1.236661
505.50 1.171494
505.60 1.186033
505.70 1.20166
505.80 1.219031
505.90 1.246669
506.00 1.276868
506.10 1.264244
506.20 1.224954
506.30 1.269156
506.40 1.310502
506.50 1.251615
506.60 1.190797
506.70 1.203805
506.80 1.283651
506.90 1.273153
507.00 1.30236
507.10 1.335945
507.20 1.280396
507.30 1.256639
507.40 1.311113
507.50 1.395556
507.60 1.433266
507.70 1.363297
507.80 1.298599
507.90 1.393824
508.00 1.385197
508.10 1.316829
508.20 1.253642
508.30 1.251863
508.40 1.196851
508.50 1.187679
508.60 1.347851
508.70 1.452534
508.80 1.465393
508.90 1.379386
509.00 1.28254
509.10 1.302233
509.20 1.423747
509.30 1.445876
509.40 1.430284
509.50 1.346653
509.60 1.223698
509.70 1.274522
509.80 1.355946
509.90 1.43982
510.00 1.340078
510.10 1.255677
510.20 1.25785
510.30 1.213444
510.40 1.200476
510.50 1.254385
510.60 1.251136
510.70 1.235464
510.80 1.248337
510.90 1.259715
511.00 1.291646
511.10 1.298642
511.20 1.28508
511.30 1.31031
511.40 1.361125
511.50 1.41277
511.60 1.510418
511.70 1.540582
511.80 1.512823
511.90 1.495648
512.00 1.439495
512.10 1.393041
512.20 1.392304
512.30 1.425903
512.40 1.398387
512.50 1.355983
512.60 1.304345
512.70 1.299031
512.80 1.295526
512.90 1.252807
513.00 1.264758
513.10 1.323682
513.20 1.374746
513.30 1.476057
513.40 1.534399
513.50 1.450944
513.60 1.434223
513.70 1.501204
513.80 1.585369
513.90 1.616705
514.00 1.550215
514.10 1.40468
514.20 1.419015
514.30 1.455736
514.40 1.416139
514.50 1.393499
514.60 1.335344
514.70 1.28372
514.80 1.320643
514.90 1.394101
515.00 1.405463
515.10 1.364916
515.20 1.374042
515.30 1.327031
515.40 1.219362
515.50 1.20055
515.60 1.231032
515.70 1.397561
515.80 1.58206
515.90 1.661698
516.00 1.659088
516.10 1.693022
516.20 1.805653
516.30 1.879068
516.40 1.787989
516.50 1.795243
516.60 1.747033
516.70 1.42076
516.80 0.9522719
516.90 0.6723868
517.00 0.5863797
517.10 0.6071095
517.20 0.577478
517.30 0.5896861
517.40 0.612217
517.50 0.6417552
517.60 0.702069
517.70 0.7100671
517.80 0.7206688
517.90 0.772523
518.00 0.7254466
518.10 0.6841541
518.20 0.6951603
518.30 0.7271573
518.40 0.751712
518.50 0.8020666
518.60 0.9678384
518.70 1.11124
518.80 1.126809
518.90 1.132233
519.00 1.140068
519.10 1.135081
519.20 1.146478
519.30 1.122263
519.40 1.1033
519.50 1.152541
519.60 1.187083
519.70 1.221692
519.80 1.306512
519.90 1.332955
520.00 1.261559
520.10 1.142631
520.20 1.107979
520.30 1.172974
520.40 1.159391
520.50 1.013159
520.60 0.8616619
520.70 0.8219985
520.80 0.8651856
520.90 0.8835519
521.00 0.8263632
521.10 0.8515599
521.20 1.094787
521.30 1.395748
521.40 1.582702
521.50 1.583876
521.60 1.54339
521.70 1.566337
521.80 1.596444
521.90 1.617417
522.00 1.665246
522.10 1.649538
522.20 1.694395
522.30 1.715401
522.40 1.675748
522.50 1.655898
522.60 1.620114
522.70 1.580074
522.80 1.608045
522.90 1.638359
523.00 1.760757
523.10 1.857053
523.20 1.853038
523.30 1.783305
523.40 1.751547
523.50 1.669713
523.60 1.70531
523.70 1.767503
523.80 1.795975
523.90 1.805257
524.00 1.83301
524.10 1.692319
524.20 1.524048
524.30 1.458661
524.40 1.479831
524.50 1.56685
524.60 1.592418
524.70 1.537334
524.80 1.487563
524.90 1.55292
525.00 1.586625
525.10 1.530757
525.20 1.529522
525.30 1.63221
525.40 1.746423
525.50 1.762621
525.60 1.727813
525.70 1.752297
525.80 1.85099
525.90 1.876859
526.00 1.834168
526.10 1.689444
526.20 1.604648
526.30 1.556451
526.40 1.519554
526.50 1.477309
526.60 1.451231
526.70 1.430196
526.80 1.508849
526.90 1.464166
527.00 1.300093
527.10 1.239201
527.20 1.38656
527.30 1.582388
527.40 1.708397
527.50 1.757534
527.60 1.784321
527.70 1.758177
527.80 1.781358
527.90 1.814129
528.00 1.803634
528.10 1.730304
528.20 1.660052
528.30 1.697438
528.40 1.774082
528.50 1.78178
528.60 1.821445
528.70 1.909875
528.80 1.974275
528.90 1.922245
529.00 1.90838
529.10 1.923769
529.20 1.900911
529.30 1.890622
529.40 1.897697
529.50 1.94277
529.60 1.964921
529.70 1.936124
529.80 1.85396
529.90 1.773525
530.00 1.726666
530.10 1.792443
530.20 1.87732
530.30 1.979066
530.40 2.037536
530.50 2.080519
530.60 2.086549
530.70 2.107638
530.80 1.956
530.90 1.83748
531.00 1.843395
531.10 1.832538
531.20 1.810703
531.30 1.817529
531.40 1.822864
531.50 1.83377
531.60 1.890589
531.70 1.923283
531.80 1.936231
531.90 1.912583
532.00 1.88229
532.10 1.895905
532.20 1.900101
532.30 1.951081
532.40 1.939774
532.50 1.891141
532.60 1.913551
532.70 1.905946
532.80 1.778613
532.90 1.588438
533.00 1.545041
533.10 1.703454
533.20 1.867191
533.30 1.944596
533.40 1.908442
533.50 1.854693
533.60 1.851083
533.70 1.836272
533.80 1.868472
533.90 1.887883
534.00 1.923196
534.10 1.917567
534.20 1.914983
534.30 1.915552
534.40 1.941265
534.50 1.971763
534.60 2.004558
534.70 1.916538
534.80 1.871798
534.90 1.914657
535.00 1.956859
535.10 2.06927
535.20 2.252719
535.30 2.349184
535.40 2.307635
535.50 2.308359
535.60 2.298185
535.70 2.287171
535.80 2.22628
535.90 2.111212
536.00 2.009385
536.10 2.014968
536.20 2.023391
536.30 2.035664
536.40 2.051848
536.50 2.053832
536.60 1.996011
536.70 2.0098
536.80 2.037982
536.90 2.098415
537.00 2.082595
537.10 1.954124
537.20 1.856475
537.30 1.897735
537.40 1.993836
537.50 2.099452
537.60 2.159318
537.70 2.186435
537.80 2.220027
537.90 2.251508
538.00 2.324972
538.10 2.370571
538.20 2.360316
538.30 2.321017
538.40 2.317519
538.50 2.299548
538.60 2.265001
538.70 2.30494
538.80 2.382363
538.90 2.428427
539.00 2.436072
539.10 2.409031
539.20 2.345062
539.30 2.249461
539.40 2.247506
539.50 2.229553
539.60 2.215017
539.70 2.163659
539.80 2.127529
539.90 2.176352
540.00 2.338061
540.10 2.494668
540.20 2.565268
540.30 2.58942
540.40 2.550131
540.50 2.43691
540.60 2.238842
540.70 2.149841
540.80 2.183873
540.90 2.265297
541.00 2.24076
541.10 2.113808
541.20 2.117219
541.30 2.182937
541.40 2.248416
541.50 2.348851
541.60 2.442035
541.70 2.448411
541.80 2.438237
541.90 2.531244
542.00 2.576356
542.10 2.503385
542.20 2.469261
542.30 2.488936
542.40 2.429631
542.50 2.42817
542.60 2.452692
542.70 2.468314
542.80 2.491682
542.90 2.46663
543.00 2.34643
543.10 2.247976
543.20 2.247036
543.30 2.251528
543.40 2.285588
543.50 2.300132
543.60 2.274032
543.70 2.380416
543.80 2.525946
543.90 2.563252
544.00 2.566571
544.10 2.634969
544.20 2.776718
544.30 2.835438
544.40 2.866193
544.50 2.834988
544.60 2.732976
544.70 2.443091
544.80 2.096251
544.90 1.747909
545.00 1.459673
545.10 1.284032
545.20 1.24471
545.30 1.239714
545.40 1.236033
545.50 1.30463
545.60 1.321483
545.70 1.288605
545.80 1.292617
545.90 1.344386
546.00 1.397602
546.10 1.44292
546.20 1.459989
546.30 1.556455
546.40 1.590265
546.50 1.591133
546.60 1.649914
546.70 1.748394
546.80 1.824224
546.90 1.801354
547.00 1.690448
547.10 1.636304
547.20 1.678196
547.30 1.681403
547.40 1.691662
547.50 1.699151
547.60 1.708367
547.70 1.664013
547.80 1.68298
547.90 1.68018
548.00 1.675656
548.10 1.691322
548.20 1.721785
548.30 1.741647
548.40 1.814246
548.50 1.871441
548.60 1.885126
548.70 1.887536
548.80 1.876654
548.90 1.841478
549.00 1.809034
549.10 1.824911
549.20 1.87577
549.30 1.93302
549.40 1.947933
549.50 1.946828
549.60 1.887534
549.70 1.721101
549.80 1.577722
549.90 1.495655
550.00 1.391418
550.10 1.353852
550.20 1.316162
550.30 1.306504
550.40 1.335261
550.50 1.31579
550.60 1.260551
550.70 1.252473
550.80 1.294586
550.90 1.303991
551.00 1.322027
551.10 1.311741
551.20 1.29357
551.30 1.308846
551.40 1.249534
551.50 1.235287
551.60 1.255127
551.70 1.283081
551.80 1.235278
551.90 1.239067
552.00 1.248081
552.10 1.233827
552.20 1.229651
552.30 1.260623
552.40 1.248784
552.50 1.188246
552.60 1.151565
552.70 1.145149
552.80 1.20776
552.90 1.205645
553.00 1.202023
553.10 1.225484
553.20 1.201244
553.30 1.160562
553.40 1.167627
553.50 1.161003
553.60 1.072724
553.70 1.02855
553.80 1.048309
553.90 1.054471
554.00 1.044368
554.10 1.054283
554.20 1.059415
554.30 1.001311
554.40 1.002256
554.50 1.066799
554.60 1.02918
554.70 0.9920212
554.80 1.034489
554.90 1.10116
555.00 1.116398
555.10 1.113651
555.20 1.110871
555.30 1.16655
555.40 1.163631
555.50 1.147069
555.60 1.194135
555.70 1.3043
555.80 1.386085
555.90 1.385541
556.00 1.378749
556.10 1.392939
556.20 1.418638
556.30 1.447882
556.40 1.479242
556.50 1.535294
556.60 1.600672
556.70 1.598537
556.80 1.581279
556.90 1.544362
557.00 1.614814
557.10 1.704555
557.20 1.697978
557.30 1.696381
557.40 1.696337
557.50 1.696339
557.60 1.696339
557.70 1.696339
557.80 1.696339
557.90 1.696339
558.00 1.696339
558.10 1.696335
558.20 1.696269
558.30 1.695523
558.40 1.687831
558.50 1.749025
558.60 1.926645
558.70 1.99872
558.80 1.947714
558.90 1.842699
559.00 1.768754
559.10 1.827476
559.20 1.928366
559.30 1.941136
559.40 1.893105
559.50 1.853319
559.60 1.818352
559.70 1.817038
559.80 1.752424
559.90 1.578831
560.00 1.4308
560.10 1.441537
560.20 1.546409
560.30 1.65141
560.40 1.65727
560.50 1.568053
560.60 1.519981
560.70 1.518219
560.80 1.548748
560.90 1.583122
561.00 1.593937
561.10 1.599819
561.20 1.65131
561.30 1.688167
561.40 1.734706
561.50 1.697045
561.60 1.615853
561.70 1.565512
561.80 1.570167
561.90 1.566478
562.00 1.511307
562.10 1.515759
562.20 1.531645
562.30 1.543419
562.40 1.58701
562.50 1.645705
562.60 1.63205
562.70 1.636379
562.80 1.697193
562.90 1.668285
563.00 1.519951
563.10 1.378718
563.20 1.361447
563.30 1.417018
563.40 1.54424
563.50 1.661552
563.60 1.649519
563.70 1.612174
563.80 1.612788
563.90 1.611977
564.00 1.601094
564.10 1.581432
564.20 1.56732
564.30 1.574959
564.40 1.602973
564.50 1.599262
564.60 1.603458
564.70 1.627362
564.80 1.680392
564.90 1.723147
565.00 1.757227
565.10 1.796858
565.20 1.846655
565.30 1.880648
565.40 1.88377
565.50 1.865076
565.60 1.876243
565.70 1.935782
565.80 1.960704
565.90 1.951143
566.00 1.955092
566.10 1.941473
566.20 1.850996
566.30 1.805111
566.40 1.751473
566.50 1.706802
566.60 1.700909
566.70 1.7378
566.80 1.748437
566.90 1.680028
567.00 1.622954
567.10 1.593295
567.20 1.615915
567.30 1.635776
567.40 1.638304
567.50 1.669842
567.60 1.716227
567.70 1.735977
567.80 1.76725
567.90 1.801959
568.00 1.855182
568.10 1.868363
568.20 1.85373
568.30 1.842324
568.40 1.863554
568.50 1.949667
568.60 1.997336
568.70 2.021223
568.80 1.956689
568.90 1.885078
569.00 1.854127
569.10 1.866975
569.20 1.932746
569.30 1.963404
569.40 1.97843
569.50 1.951936
569.60 1.914359
569.70 1.918759
569.80 1.961828
569.90 2.008059
570.00 2.030747
570.10 2.05112
570.20 2.106561
570.30 2.07936
570.40 1.997548
570.50 2.080378
570.60 2.190438
570.70 2.215307
570.80 2.203893
570.90 2.241786
571.00 2.264295
571.10 2.287317
571.20 2.277802
571.30 2.25561
571.40 2.189667
571.50 2.118716
571.60 2.114046
571.70 2.092732
571.80 2.04912
571.90 2.018244
572.00 2.012026
572.10 2.017039
572.20 2.045138
572.30 2.069101
572.40 2.130239
572.50 2.111768
572.60 2.126446
572.70 2.1106
572.80 2.101023
572.90 2.030132
573.00 2.05599
573.10 2.127441
573.20 2.221185
573.30 2.252342
573.40 2.287639
573.50 2.268916
573.60 2.240684
573.70 2.187245
573.80 2.164379
573.90 2.143414
574.00 2.089503
574.10 2.150521
574.20 2.25959
574.30 2.255994
574.40 2.195592
574.50 2.259834
574.60 2.334647
574.70 2.328103
574.80 2.353684
574.90 2.380783
575.00 2.405316
575.10 2.476356
575.20 2.515225
575.30 2.491349
575.40 2.488145
575.50 2.507617
575.60 2.523866
575.70 2.538646
575.80 2.549373
575.90 2.48828
576.00 2.30263
576.10 2.110083
576.20 1.986272
576.30 1.885849
576.40 1.852308
576.50 1.829505
576.60 1.81079
576.70 1.849459
576.80 1.924523
576.90 1.990377
577.00 2.026706
577.10 2.050433
577.20 2.027069
577.30 1.995891
577.40 2.050108
577.50 2.065752
577.60 2.052896
577.70 2.005321
577.80 2.063521
577.90 2.111644
578.00 2.148673
578.10 2.175321
578.20 2.199289
578.30 2.180177
578.40 2.188835
578.50 2.290582
578.60 2.345698
578.70 2.277324
578.80 2.204409
578.90 2.253347
579.00 2.280806
579.10 2.247661
579.20 2.244437
579.30 2.350575
579.40 2.444816
579.50 2.510172
579.60 2.580845
579.70 2.567327
579.80 2.538344
579.90 2.554944
580.00 2.623499
580.10 2.631133
580.20 2.600566
580.30 2.58217
580.40 2.628887
580.50 2.674416
580.60 2.638007
580.70 2.624336
580.80 2.680369
580.90 2.686373
581.00 2.624495
581.10 2.51663
581.20 2.307931
581.30 2.155195
581.40 2.099516
581.50 2.023302
581.60 1.974569
581.70 1.962993
581.80 1.935441
581.90 1.871978
582.00 1.863874
582.10 1.89388
582.20 1.902969
582.30 1.87072
582.40 1.928495
582.50 1.918743
582.60 1.923389
582.70 1.982739
582.80 2.024025
582.90 1.975673
583.00 1.99736
583.10 2.063429
583.20 2.09349
583.30 2.158453
583.40 2.238277
583.50 2.220437
583.60 2.153921
583.70 2.142051
583.80 2.062654
583.90 2.013786
584.00 2.019494
584.10 2.004427
584.20 1.998348
584.30 2.032427
584.40 2.088601
584.50 2.139802
584.60 2.120069
584.70 2.073329
584.80 1.988437
584.90 1.843076
585.00 1.666119
585.10 1.559811
585.20 1.523675
585.30 1.512254
585.40 1.539412
585.50 1.553184
585.60 1.543879
585.70 1.511371
585.80 1.473997
585.90 1.499959
586.00 1.532205
586.10 1.49626
586.20 1.545232
586.30 1.510468
586.40 1.402649
586.50 1.342895
586.60 1.362146
586.70 1.363321
586.80 1.420873
586.90 1.523206
587.00 1.523571
587.10 1.42103
587.20 1.33309
587.30 1.265107
587.40 1.214256
587.50 1.238879
587.60 1.259067
587.70 1.269392
587.80 1.25132
587.90 1.19105
588.00 1.156018
588.10 1.131096
588.20 1.124692
588.30 1.071152
588.40 1.022461
588.50 1.015487
588.60 0.9395258
588.70 0.823838
588.80 0.7576873
588.90 0.7681238
589.00 0.8119268
589.10 0.7652715
589.20 0.5959483
589.30 0.5797554
589.40 0.7122661
589.50 0.7795263
589.60 0.6697675
589.70 0.5497839
589.80 0.5554005
589.90 0.565545
590.00 0.7070783
590.10 0.8567808
590.20 0.9466639
590.30 0.9275061
590.40 0.9413603
590.50 0.9719685
590.60 0.9978836
590.70 1.052169
590.80 1.024106
590.90 0.9630317
591.00 1.001585
591.10 1.099161
591.20 1.124034
591.30 1.083858
591.40 1.073294
591.50 1.081404
591.60 1.097517
591.70 1.141333
591.80 1.195474
591.90 1.22693
592.00 1.220995
592.10 1.201843
592.20 1.207879
592.30 1.214016
592.40 1.200177
592.50 1.152787
592.60 1.177497
592.70 1.158764
592.80 1.141885
592.90 1.181228
593.00 1.201171
593.10 1.22035
593.20 1.222246
593.30 1.263733
593.40 1.311431
593.50 1.299972
593.60 1.343493
593.70 1.419638
593.80 1.484371
593.90 1.482225
594.00 1.424221
594.10 1.426868
594.20 1.437826
594.30 1.477355
594.40 1.509599
594.50 1.550904
594.60 1.549496
594.70 1.544164
594.80 1.534414
594.90 1.482058
595.00 1.438583
595.10 1.406878
595.20 1.376736
595.30 1.330361
595.40 1.340116
595.50 1.384068
595.60 1.391672
595.70 1.382338
595.80 1.322904
595.90 1.288866
596.00 1.24361
596.10 1.263043
596.20 1.315629
596.30 1.325685
596.40 1.328929
596.50 1.337455
596.60 1.390278
596.70 1.404547
596.80 1.439945
596.90 1.444424
597.00 1.441473
597.10 1.449982
597.20 1.436359
597.30 1.38642
597.40 1.347193
597.50 1.353706
597.60 1.382702
597.70 1.403468
597.80 1.448441
597.90 1.484035
598.00 1.507399
598.10 1.494958
598.20 1.49736
598.30 1.557824
598.40 1.572454
598.50 1.554841
598.60 1.577074
598.70 1.574099
598.80 1.593284
598.90 1.581795
599.00 1.599107
599.10 1.620417
599.20 1.663707
599.30 1.726674
599.40 1.752963
599.50 1.735371
599.60 1.750435
599.70 1.773283
599.80 1.78228
599.90 1.772402
600.00 1.735735
600.10 1.692702
600.20 1.64902
600.30 1.608958
600.40 1.639173
600.50 1.661083
600.60 1.652069
600.70 1.638895
600.80 1.657335
600.90 1.645803
601.00 1.6251
601.10 1.65936
601.20 1.696237
601.30 1.720408
601.40 1.726931
601.50 1.730363
601.60 1.736
601.70 1.761928
601.80 1.780839
601.90 1.784426
602.00 1.798987
602.10 1.792152
602.20 1.783103
602.30 1.779688
602.40 1.823636
602.50 1.875361
602.60 1.87771
602.70 1.860602
602.80 1.883654
602.90 1.897631
603.00 1.904849
603.10 1.894237
603.20 1.926699
603.30 1.954098
603.40 1.996279
603.50 1.979314
603.60 1.909974
603.70 1.823266
603.80 1.735841
603.90 1.679667
604.00 1.760503
604.10 1.871295
604.20 1.930811
604.30 2.003423
604.40 2.027523
604.50 2.031581
604.60 2.03982
604.70 2.121607
604.80 2.1986
604.90 2.163118
605.00 2.120554
605.10 2.177087
605.20 2.18647
605.30 2.104145
605.40 2.031927
605.50 2.053384
605.60 2.091423
605.70 2.137991
605.80 2.163306
605.90 2.163527
606.00 2.16897
606.10 2.187039
606.20 2.209524
606.30 2.181353
606.40 2.133379
606.50 2.070366
606.60 1.976059
606.70 1.955312
606.80 2.041376
606.90 2.173437
607.00 2.254612
607.10 2.283488
607.20 2.309001
607.30 2.264304
607.40 2.190742
607.50 2.150899
607.60 2.185602
607.70 2.242556
607.80 2.284672
607.90 2.256564
608.00 2.141668
608.10 2.052433
608.20 2.020931
608.30 2.046252
608.40 2.091158
608.50 2.094012
608.60 2.107671
608.70 2.160051
608.80 2.185453
608.90 2.171866
609.00 2.151246
609.10 2.163783
609.20 2.185466
609.30 2.243827
609.40 2.27358
609.50 2.289603
609.60 2.299208
609.70 2.309002
609.80 2.343449
609.90 2.353802
610.00 2.324277
610.10 2.289071
610.20 2.246601
610.30 2.185878
610.40 2.094053
610.50 2.082609
610.60 2.133222
610.70 2.200247
610.80 2.255039
610.90 2.29614
611.00 2.301586
611.10 2.264009
611.20 2.227448
611.30 2.233663
611.40 2.261813
611.50 2.284621
611.60 2.270744
611.70 2.207032
611.80 2.124764
611.90 2.126858
612.00 2.151104
612.10 2.134425
612.20 2.064747
612.30 1.998008
612.40 2.013244
612.50 2.09284
612.60 2.18205
612.70 2.237877
612.80 2.174119
612.90 2.145783
613.00 2.251822
613.10 2.317
613.20 2.245812
613.30 2.173441
613.40 2.156916
613.50 2.136505
613.60 2.14618
613.70 2.157751
613.80 2.158527
613.90 2.14057
614.00 2.201907
614.10 2.263439
614.20 2.255005
614.30 2.209986
614.40 2.22848
614.50 2.28541
614.60 2.305193
614.70 2.309657
614.80 2.248892
614.90 2.09921
615.00 1.955854
615.10 1.810398
615.20 1.738121
615.30 1.780049
615.40 1.859562
615.50 1.858958
615.60 1.77643
615.70 1.747564
615.80 1.732533
615.90 1.618977
616.00 1.461053
616.10 1.318611
616.20 1.203151
616.30 1.127803
616.40 1.113491
616.50 1.153893
616.60 1.17032
616.70 1.150798
616.80 1.16638
616.90 1.203148
617.00 1.228681
617.10 1.212097
617.20 1.236331
617.30 1.282369
617.40 1.266796
617.50 1.221809
617.60 1.216573
617.70 1.189895
617.80 1.197719
617.90 1.238206
618.00 1.250776
618.10 1.223227
618.20 1.195603
618.30 1.22654
618.40 1.237818
618.50 1.192469
618.60 1.167218
618.70 1.130496
618.80 1.110013
618.90 1.094102
619.00 1.064434
619.10 1.040868
619.20 1.020378
619.30 1.0294
619.40 1.0486
619.50 1.048929
619.60 1.038803
619.70 1.034856
619.80 1.024651
619.90 1.05739
620.00 1.120522
620.10 1.147935
620.20 1.110409
620.30 1.100637
620.40 1.135109
620.50 1.15777
620.60 1.18119
620.70 1.181161
620.80 1.188128
620.90 1.20774
621.00 1.198705
621.10 1.197475
621.20 1.194378
621.30 1.140462
621.40 1.102437
621.50 1.089711
621.60 1.054473
621.70 1.007658
621.80 0.9945304
621.90 1.009964
622.00 1.045945
622.10 1.070818
622.20 1.071464
622.30 1.021945
622.40 0.9732226
622.50 0.9210337
622.60 0.9198707
622.70 0.9581709
622.80 0.9472525
622.90 0.9602328
623.00 0.9897396
623.10 0.9765732
623.20 0.9569753
623.30 0.9568685
623.40 0.9907111
623.50 1.017442
623.60 1.022101
623.70 1.077525
623.80 1.064442
623.90 0.967601
624.00 0.9475243
624.10 1.018827
624.20 1.059757
624.30 1.031533
624.40 1.050624
624.50 1.072266
624.60 1.080739
624.70 1.0901
624.80 1.074226
624.90 1.104534
625.00 1.125549
625.10 1.119505
625.20 1.131933
625.30 1.168346
625.40 1.20242
625.50 1.19079
625.60 1.177823
625.70 1.190913
625.80 1.211249
625.90 1.265869
626.00 1.305516
626.10 1.299521
626.20 1.28734
626.30 1.298484
626.40 1.359998
626.50 1.407846
626.60 1.428111
626.70 1.427814
626.80 1.357018
626.90 1.300265
627.00 1.307828
627.10 1.3552
627.20 1.404572
627.30 1.454266
627.40 1.505004
627.50 1.485344
627.60 1.406522
627.70 1.380489
627.80 1.383189
627.90 1.355068
628.00 1.354817
628.10 1.398375
628.20 1.44312
628.30 1.456541
628.40 1.494004
628.50 1.528967
628.60 1.560077
628.70 1.605988
628.80 1.645163
628.90 1.650493
629.00 1.662288
629.10 1.691902
629.20 1.691492
629.30 1.701887
629.40 1.706338
629.50 1.719505
629.60 1.724798
629.70 1.772262
629.80 1.817135
629.90 1.860091
630.00 1.925754
630.10 2.116387
630.20 2.10636
630.30 1.760485
630.40 1.756204
630.50 1.947299
630.60 2.098771
630.70 2.121517
630.80 2.116725
630.90 2.137013
631.00 2.136358
631.10 2.139852
631.20 2.197881
631.30 2.268647
631.40 2.328079
631.50 2.351921
631.60 2.371677
631.70 2.398989
631.80 2.416968
631.90 2.454455
632.00 2.471451
632.10 2.457447
632.20 2.408444
632.30 2.344461
632.40 2.301549
632.50 2.314761
632.60 2.377922
632.70 2.400863
632.80 2.441817
632.90 2.477096
633.00 2.488868
633.10 2.49199
633.20 2.478869
633.30 2.511782
633.40 2.550328
633.50 2.61634
633.60 2.669384
633.70 2.660839
633.80 2.646052
633.90 2.661635
634.00 2.711074
634.10 2.785466
634.20 2.879671
634.30 2.930123
634.40 2.90952
634.50 2.904722
634.60 2.915721
634.70 2.954945
634.80 3.015574
634.90 3.046505
635.00 3.050188
635.10 3.04089
635.20 2.975374
635.30 2.865484
635.40 2.792959
635.50 2.76087
635.60 2.73385
635.70 2.703571
635.80 2.636416
635.90 2.54935
636.00 2.514137
636.10 2.532984
636.20 2.576956
636.30 2.651426
636.40 2.721927
636.50 2.687563
636.60 2.570482
636.70 2.499812
636.80 2.57124
636.90 2.633467
637.00 2.641993
637.10 2.661849
637.20 2.705109
637.30 2.751933
637.40 2.746894
637.50 2.697928
637.60 2.693006
637.70 2.709597
637.80 2.700307
637.90 2.670531
638.00 2.591275
638.10 2.486456
638.20 2.37462
638.30 2.317711
638.40 2.339285
638.50 2.413873
638.60 2.441926
638.70 2.403705
638.80 2.35355
638.90 2.34395
639.00 2.37349
639.10 2.434207
639.20 2.507856
639.30 2.564559
639.40 2.62431
639.50 2.712168
639.60 2.794057
639.70 2.879181
639.80 2.937725
639.90 2.980885
640.00 3.00887
640.10 3.001154
640.20 3.024165
640.30 3.064656
640.40 3.128664
640.50 3.201065
640.60 3.262151
640.70 3.291971
640.80 3.309163
640.90 3.329534
641.00 3.330444
641.10 3.329406
641.20 3.325397
641.30 3.326074
641.40 3.310299
641.50 3.284684
641.60 3.240496
641.70 3.185184
641.80 3.158031
641.90 3.136722
642.00 3.104923
642.10 3.081341
642.20 3.026344
642.30 2.978916
642.40 2.980334
642.50 3.020848
642.60 3.073971
642.70 3.105071
642.80 3.121793
642.90 3.131407
643.00 3.135567
643.10 3.178534
643.20 3.228182
643.30 3.236593
643.40 3.237277
643.50 3.24703
643.60 3.285485
643.70 3.315262
643.80 3.276945
643.90 3.239867
644.00 3.207407
644.10 3.222226
644.20 3.322593
644.30 3.470902
644.40 3.595186
644.50 3.652665
644.60 3.677925
644.70 3.639623
644.80 3.545641
644.90 3.440964
645.00 3.350402
645.10 3.26876
645.20 3.295439
645.30 3.43202
645.40 3.566926
645.50 3.64159
645.60 3.621281
645.70 3.617615
645.80 3.633626
645.90 3.670521
646.00 3.697763
646.10 3.693638
646.20 3.638344
646.30 3.554223
646.40 3.508513
646.50 3.554396
646.60 3.671058
646.70 3.787478
646.80 3.894962
646.90 3.96851
647.00 3.988752
647.10 3.985598
647.20 3.98279
647.30 4.026199
647.40 4.09239
647.50 4.096952
647.60 4.093701
647.70 4.120473
647.80 4.119492
647.90 4.071509
648.00 3.936621
648.10 3.783138
648.20 3.680855
648.30 3.653701
648.40 3.62087
648.50 3.539066
648.60 3.472121
648.70 3.485979
648.80 3.545883
648.90 3.61297
649.00 3.684379
649.10 3.76546
649.20 3.806111
649.30 3.762178
649.40 3.713091
649.50 3.660522
649.60 3.641686
649.70 3.677849
649.80 3.769978
649.90 3.855208
650.00 3.917519
650.10 3.937103
650.20 3.96439
650.30 4.067749
650.40 4.199754
650.50 4.289145
650.60 4.292189
650.70 4.318085
650.80 4.387419
650.90 4.401713
651.00 4.41516
651.10 4.466702
651.20 4.478153
651.30 4.442229
651.40 4.343008
651.50 4.263404
651.60 4.242143
651.70 4.297243
651.80 4.378788
651.90 4.438342
652.00 4.499015
652.10 4.557008
652.20 4.643093
652.30 4.729296
652.40 4.774322
652.50 4.765492
652.60 4.75986
652.70 4.800724
652.80 4.856941
652.90 4.921141
653.00 4.967774
653.10 5.007377
653.20 5.048464
653.30 5.059073
653.40 5.064413
653.50 5.076912
653.60 5.141871
653.70 5.235163
653.80 5.308473
653.90 5.398456
654.00 5.501992
654.10 5.538775
654.20 5.51415
654.30 5.429753
654.40 5.289334
654.50 5.120733
654.60 4.976704
654.70 4.877201
654.80 4.818369
654.90 4.744572
655.00 4.615382
655.10 4.494728
655.20 4.409411
655.30 4.367209
655.40 4.371943
655.50 4.373847
655.60 4.384788
655.70 4.420223
655.80 4.513998
655.90 4.638687
656.00 4.751842
656.10 4.971969
656.20 5.552459
656.30 6.385524
656.40 7.002097
656.50 6.917541
656.60 6.095649
656.70 5.057455
656.80 4.338082
656.90 4.084109
657.00 4.045874
657.10 4.025225
657.20 3.929044
657.30 3.787016
657.40 3.744285
657.50 3.755356
657.60 3.830822
657.70 3.956625
657.80 4.004965
657.90 3.967259
658.00 3.819883
658.10 3.679492
658.20 3.672133
658.30 3.787002
658.40 3.905832
658.50 3.978129
658.60 4.046137
658.70 4.131312
658.80 4.206053
658.90 4.271653
659.00 4.31796
659.10 4.301617
659.20 4.251347
659.30 4.164036
659.40 4.023702
659.50 3.863041
659.60 3.76285
659.70 3.767956
659.80 3.840894
659.90 3.880183
660.00 3.889156
660.10 3.860951
660.20 3.825045
660.30 3.85909
660.40 3.930813
660.50 3.964315
660.60 3.903667
660.70 3.832489
660.80 3.81686
660.90 3.831959
661.00 3.836657
661.10 3.848958
661.20 3.905199
661.30 3.957259
661.40 3.99376
661.50 4.010726
661.60 3.976515
661.70 3.921133
661.80 3.838255
661.90 3.726006
662.00 3.642712
662.10 3.610135
662.20 3.587038
662.30 3.56803
662.40 3.556361
662.50 3.486321
662.60 3.339578
662.70 3.211426
662.80 3.155151
662.90 3.161639
663.00 3.211181
663.10 3.320764
663.20 3.435834
663.30 3.526014
663.40 3.576954
663.50 3.530485
663.60 3.385842
663.70 3.178961
663.80 3.023096
663.90 3.00482
664.00 3.063866
664.10 3.141863
664.20 3.215043
664.30 3.295855
664.40 3.364354
664.50 3.392937
664.60 3.384899
664.70 3.390519
664.80 3.392705
664.90 3.332768
665.00 3.189324
665.10 2.969735
665.20 2.754899
665.30 2.577412
665.40 2.486048
665.50 2.518534
665.60 2.601474
665.70 2.649819
665.80 2.627763
665.90 2.615065
666.00 2.64422
666.10 2.698901
666.20 2.754741
666.30 2.780438
666.40 2.823337
666.50 2.877224
666.60 2.924367
666.70 2.984209
666.80 3.027257
666.90 3.079341
667.00 3.135395
667.10 3.151443
667.20 3.155042
667.30 3.139193
667.40 3.11096
667.50 3.071916
667.60 3.047538
667.70 3.05937
667.80 3.089545
667.90 3.103933
668.00 3.032602
668.10 2.855432
668.20 2.609198
668.30 2.390299
668.40 2.293408
668.50 2.297214
668.60 2.35868
668.70 2.421769
668.80 2.445725
668.90 2.490476
669.00 2.517664
669.10 2.523298
669.20 2.511385
669.30 2.480492
669.40 2.458025
669.50 2.461045
669.60 2.513002
669.70 2.577022
669.80 2.618007
669.90 2.651458
670.00 2.686342
670.10 2.713024
670.20 2.727392
670.30 2.754972
670.40 2.785922
670.50 2.799995
670.60 2.821599
670.70 2.857425
670.80 2.858001
670.90 2.85679
671.00 2.880934
671.10 2.890777
671.20 2.888497
671.30 2.870328
671.40 2.800711
671.50 2.64226
671.60 2.452799
671.70 2.292846
671.80 2.181272
671.90 2.098239
672.00 2.054774
672.10 2.056456
672.20 2.087528
672.30 2.121435
672.40 2.16039
672.50 2.222327
672.60 2.269572
672.70 2.319313
672.80 2.381475
672.90 2.413262
673.00 2.391544
673.10 2.365173
673.20 2.385963
673.30 2.431817
673.40 2.468168
673.50 2.46497
673.60 2.44899
673.70 2.447415
673.80 2.469433
673.90 2.531225
674.00 2.58955
674.10 2.61072
674.20 2.612909
674.30 2.618481
674.40 2.649981
674.50 2.702344
674.60 2.737712
674.70 2.670562
674.80 2.526255
674.90 2.375122
675.00 2.274848
675.10 2.270478
675.20 2.284942
675.30 2.319099
675.40 2.362768
675.50 2.415038
675.60 2.444597
675.70 2.448534
675.80 2.479062
675.90 2.50492
676.00 2.490999
676.10 2.479244
676.20 2.516181
676.30 2.576819
676.40 2.621922
676.50 2.666168
676.60 2.720185
676.70 2.77066
676.80 2.811005
676.90 2.826998
677.00 2.812151
677.10 2.807898
677.20 2.81599
677.30 2.82706
677.40 2.867172
677.50 2.907842
677.60 2.939571
677.70 2.972227
677.80 2.978503
677.90 2.958299
678.00 2.933626
678.10 2.879639
678.20 2.753123
678.30 2.568768
678.40 2.402432
678.50 2.301431
678.60 2.261683
678.70 2.27009
678.80 2.312574
678.90 2.378329
679.00 2.41888
679.10 2.433845
679.20 2.456073
679.30 2.464939
679.40 2.468241
679.50 2.483834
679.60 2.522228
679.70 2.558594
679.80 2.568195
679.90 2.568494
680.00 2.559623
680.10 2.581452
680.20 2.636547
680.30 2.66855
680.40 2.686519
680.50 2.692403
680.60 2.675486
680.70 2.656464
680.80 2.638819
680.90 2.648766
681.00 2.687246
681.10 2.710619
681.20 2.744976
681.30 2.793259
681.40 2.824212
681.50 2.817867
681.60 2.748053
681.70 2.63943
681.80 2.560164
681.90 2.576773
682.00 2.627718
682.10 2.650838
682.20 2.663213
682.30 2.66422
682.40 2.647022
682.50 2.641613
682.60 2.672486
682.70 2.736814
682.80 2.808425
682.90 2.857458
683.00 2.8579
683.10 2.833153
683.20 2.830161
683.30 2.835296
683.40 2.85032
683.50 2.857682
683.60 2.85913
683.70 2.826732
683.80 2.788495
683.90 2.79253
684.00 2.806454
684.10 2.873552
684.20 2.940089
684.30 2.962953
684.40 2.970221
684.50 2.959127
684.60 2.945213
684.70 2.923102
684.80 2.903251
684.90 2.876925
685.00 2.846536
685.10 2.790081
685.20 2.68884
685.30 2.59426
685.40 2.564017
685.50 2.597034
685.60 2.640409
685.70 2.665348
685.80 2.674924
685.90 2.663145
686.00 2.63949
686.10 2.628298
686.20 2.645169
686.30 2.689589
686.40 2.772949
686.50 2.894156
686.60 2.95331
686.70 2.90173
686.80 2.791386
686.90 2.743515
687.00 2.759081
687.10 2.731105
687.20 2.737546
687.30 2.805931
687.40 2.902091
687.50 3.010596
687.60 3.071674
687.70 3.099165
687.80 3.13
687.90 3.148656
688.00 3.141149
688.10 3.140384
688.20 3.116872
688.30 3.064121
688.40 3.011342
688.50 2.940708
688.60 2.888477
688.70 2.858108
688.80 2.883289
688.90 2.976384
689.00 3.056185
689.10 3.083798
689.20 3.081546
689.30 3.093849
689.40 3.115401
689.50 3.154533
689.60 3.191623
689.70 3.210498
689.80 3.222336
689.90 3.21138
690.00 3.162137
690.10 3.055361
690.20 2.91364
690.30 2.872581
690.40 2.949414
690.50 3.083273
690.60 3.238437
690.70 3.381173
690.80 3.496293
690.90 3.563619
691.00 3.573998
691.10 3.533307
691.20 3.492547
691.30 3.525403
691.40 3.60988
691.50 3.651346
691.60 3.647473
691.70 3.599458
691.80 3.446382
691.90 3.218022
692.00 3.019694
692.10 2.973313
692.20 3.11853
692.30 3.380535
692.40 3.636721
692.50 3.76504
692.60 3.770953
692.70 3.776677
692.80 3.775699
692.90 3.772905
693.00 3.81874
693.10 3.904476
693.20 4.012443
693.30 4.101688
693.40 4.16563
693.50 4.181291
693.60 4.149021
693.70 4.135089
693.80 4.159912
693.90 4.176718
694.00 4.190457
694.10 4.226548
694.20 4.303957
694.30 4.422114
694.40 4.568954
694.50 4.697537
694.60 4.761082
694.70 4.825434
694.80 4.926107
694.90 5.00232
695.00 5.019823
695.10 4.990934
695.20 4.934682
695.30 4.810335
695.40 4.667648
695.50 4.587686
695.60 4.577751
695.70 4.608773
695.80 4.619814
695.90 4.605377
696.00 4.582634
696.10 4.589718
696.20 4.610332
696.30 4.648936
696.40 4.714663
696.50 4.79081
696.60 4.863956
696.70 4.89716
696.80 4.910931
696.90 4.936046
697.00 4.940195
697.10 4.904999
697.20 4.848392
697.30 4.813582
697.40 4.83581
697.50 4.891155
697.60 4.977169
697.70 5.106256
697.80 5.224165
697.90 5.271068
698.00 5.275571
698.10 5.235106
698.20 5.214406
698.30 5.268861
698.40 5.326807
698.50 5.375398
698.60 5.397693
698.70 5.40509
698.80 5.407271
698.90 5.380259
699.00 5.313561
699.10 5.215888
699.20 5.134529
699.30 5.105561
699.40 5.142753
699.50 5.212897
699.60 5.270622
699.70 5.324988
699.80 5.375041
699.90 5.371785
700.00 5.320423
700.10 5.314886
700.20 5.383243
700.30 5.489062
700.40 5.520609
700.50 5.433209
700.60 5.331095
700.70 5.333061
700.80 5.456292
700.90 5.60513
701.00 5.667517
701.10 5.666279
701.20 5.682169
701.30 5.774329
701.40 5.927523
701.50 6.044607
701.60 6.079671
701.70 6.040496
701.80 5.98414
701.90 5.992905
702.00 6.083215
702.10 6.21559
702.20 6.293797
702.30 6.251187
702.40 6.095882
702.50 5.895155
702.60 5.781938
702.70 5.831652
702.80 6.063012
702.90 6.412065
703.00 6.713929
703.10 6.870168
703.20 6.887691
703.30 6.829752
703.40 6.787011
703.50 6.872487
703.60 7.089067
703.70 7.342389
703.80 7.487853
703.90 7.505392
704.00 7.499889
704.10 7.552273
704.20 7.670553
704.30 7.821202
704.40 7.924641
704.50 7.963841
704.60 7.983605
704.70 8.006306
704.80 8.052653
704.90 8.089472
705.00 8.080866
705.10 8.073708
705.20 8.054617
705.30 7.870077
705.40 7.305969
705.50 6.319433
705.60 5.159573
705.70 4.246802
705.80 3.862973
705.90 3.89718
706.00 4.004357
706.10 3.913659
706.20 3.712777
706.30 3.584375
706.40 3.620016
706.50 3.774791
706.60 3.941119
706.70 4.07368
706.80 4.180329
706.90 4.253043
707.00 4.293631
707.10 4.353117
707.20 4.458312
707.30 4.579644
707.40 4.655053
707.50 4.663768
707.60 4.63992
707.70 4.637588
707.80 4.658052
707.90 4.684953
708.00 4.727601
708.10 4.786404
708.20 4.861463
708.30 4.925555
708.40 4.966978
708.50 5.004207
708.60 4.991587
708.70 4.804768
708.80 4.359986
708.90 3.734736
709.00 3.154258
709.10 2.819138
709.20 2.780528
709.30 2.905656
709.40 3.012437
709.50 3.027685
709.60 2.978462
709.70 2.937189
709.80 2.982156
709.90 3.097829
710.00 3.209912
710.10 3.263271
710.20 3.250406
710.30 3.209407
710.40 3.201915
710.50 3.245798
710.60 3.340682
710.70 3.448032
710.80 3.554855
710.90 3.695237
711.00 3.856938
711.10 4.003708
711.20 4.097975
711.30 4.125193
711.40 4.112319
711.50 4.097677
711.60 4.075022
711.70 4.045755
711.80 4.0514
711.90 4.141096
712.00 4.287027
712.10 4.417131
712.20 4.512806
712.30 4.563165
712.40 4.490588
712.50 4.192986
712.60 3.655805
712.70 3.014605
712.80 2.504682
712.90 2.30439
713.00 2.352652
713.10 2.461405
713.20 2.49392
713.30 2.426733
713.40 2.364298
713.50 2.384021
713.60 2.464144
713.70 2.519236
713.80 2.521232
713.90 2.496989
714.00 2.485488
714.10 2.533334
714.20 2.641887
714.30 2.778804
714.40 2.880241
714.50 2.911566
714.60 2.898672
714.70 2.877338
714.80 2.887807
714.90 2.925431
715.00 2.957584
715.10 2.983231
715.20 3.031141
715.30 3.097451
715.40 3.184717
715.50 3.302588
715.60 3.415651
715.70 3.50119
715.80 3.487775
715.90 3.357257
716.00 3.190971
716.10 3.067862
716.20 3.034911
716.30 3.065532
716.40 3.108002
716.50 3.146047
716.60 3.168958
716.70 3.17931
716.80 3.185524
716.90 3.198635
717.00 3.249446
717.10 3.339478
717.20 3.431083
717.30 3.50885
717.40 3.544959
717.50 3.527461
717.60 3.504618
717.70 3.494694
717.80 3.514172
717.90 3.564697
718.00 3.644016
718.10 3.730836
718.20 3.78511
718.30 3.841015
718.40 3.892075
718.50 3.964069
718.60 4.070087
718.70 4.125975
718.80 4.134899
718.90 4.158841
719.00 4.206967
719.10 4.255841
719.20 4.276187
719.30 4.278492
719.40 4.278784
719.50 4.288678
719.60 4.283047
719.70 4.165782
719.80 3.952887
719.90 3.745262
720.00 3.612089
720.10 3.569769
720.20 3.590691
720.30 3.62427
720.40 3.642468
720.50 3.642137
720.60 3.640791
720.70 3.650285
720.80 3.679058
720.90 3.732674
721.00 3.773397
721.10 3.804359
721.20 3.847735
721.30 3.925677
721.40 4.005781
721.50 4.046465
721.60 4.074881
721.70 4.094344
721.80 4.149294
721.90 4.234537
722.00 4.280378
722.10 4.314883
722.20 4.370454
722.30 4.433881
722.40 4.495211
722.50 4.554104
722.60 4.640575
722.70 4.756075
722.80 4.84268
722.90 4.868922
723.00 4.830173
723.10 4.735605
723.20 4.640142
723.30 4.601155
723.40 4.629709
723.50 4.704875
723.60 4.807381
723.70 4.936088
723.80 5.030664
723.90 5.063452
724.00 5.074981
724.10 5.080667
724.20 5.067956
724.30 5.037063
724.40 5.088053
724.50 5.202263
724.60 5.326862
724.70 5.453064
724.80 5.481688
724.90 5.490757
725.00 5.60575
725.10 5.728281
725.20 5.765655
725.30 5.717762
725.40 5.65775
725.50 5.715441
725.60 5.849655
725.70 5.948149
725.80 5.973433
725.90 5.9337
726.00 5.914033
726.10 5.956787
726.20 6.050257
726.30 6.175795
726.40 6.307677
726.50 6.423668
726.60 6.473716
726.70 6.457025
726.80 6.465444
726.90 6.516941
727.00 6.494892
727.10 6.317697
727.20 6.047692
727.30 5.869843
727.40 5.91557
727.50 6.156304
727.60 6.46951
727.70 6.688291
727.80 6.646251
727.90 6.427239
728.00 6.275189
728.10 6.273662
728.20 6.370416
728.30 6.450468
728.40 6.522999
728.50 6.66071
728.60 6.813476
728.70 6.901256
728.80 6.927385
728.90 6.934373
729.00 6.990767
729.10 7.067691
729.20 7.107861
729.30 7.121425
729.40 7.118209
729.50 7.148897
729.60 7.243964
729.70 7.373288
729.80 7.482163
729.90 7.501378
730.00 7.444148
730.10 7.432296
730.20 7.508057
730.30 7.622528
730.40 7.730388
730.50 7.760834
730.60 7.737165
730.70 7.771955
730.80 7.890584
730.90 8.005508
731.00 8.036155
731.10 7.984498
731.20 7.952169
731.30 8.017995
731.40 8.144913
731.50 8.258855
731.60 8.381213
731.70 8.49613
731.80 8.505322
731.90 8.441396
732.00 8.390905
732.10 8.413652
732.20 8.502734
732.30 8.588884
732.40 8.626834
732.50 8.587936
732.60 8.432671
732.70 8.222803
732.80 8.173847
732.90 8.376178
733.00 8.644313
733.10 8.819922
733.20 8.875024
733.30 8.848036
733.40 8.848726
733.50 8.909601
733.60 9.01902
733.70 9.151835
733.80 9.249927
733.90 9.31069
734.00 9.391404
734.10 9.54506
734.20 9.673494
734.30 9.56064
734.40 9.240952
734.50 8.982781
734.60 8.877747
734.70 8.884739
734.80 9.005482
734.90 9.139277
735.00 9.24299
735.10 9.328678
735.20 9.392292
735.30 9.46528
735.40 9.506535
735.50 9.45624
735.60 9.332752
735.70 9.1968
735.80 9.140619
735.90 9.211638
736.00 9.353511
736.10 9.485323
736.20 9.544094
736.30 9.551685
736.40 9.61572
736.50 9.720538
736.60 9.78237
736.70 9.810728
736.80 9.869547
736.90 10.01798
737.00 10.22133
737.10 10.33219
737.20 10.27457
737.30 10.13271
737.40 10.05342
737.50 10.03297
737.60 10.00844
737.70 10.03659
737.80 10.11623
737.90 10.21022
738.00 10.27332
738.10 10.27095
738.20 10.24189
738.30 10.23128
738.40 10.24535
738.50 10.27659
738.60 10.32641
738.70 10.3997
738.80 10.48436
738.90 10.56663
739.00 10.62821
739.10 10.66656
739.20 10.65343
739.30 10.56452
739.40 10.42573
739.50 10.28593
739.60 10.2106
739.70 10.24668
739.80 10.36012
739.90 10.45409
740.00 10.46237
740.10 10.45951
740.20 10.52626
740.30 10.62948
740.40 10.68307
740.50 10.6081
740.60 10.44982
740.70 10.2988
740.80 10.24089
740.90 10.31312
741.00 10.43133
741.10 10.5334
741.20 10.59823
741.30 10.63815
741.40 10.69027
741.50 10.74349
741.60 10.76273
741.70 10.69498
741.80 10.5356
741.90 10.38699
742.00 10.3523
742.10 10.43898
742.20 10.53687
742.30 10.57559
742.40 10.58071
742.50 10.62175
742.60 10.69607
742.70 10.76768
742.80 10.83116
742.90 10.8789
743.00 10.95951
743.10 11.04841
743.20 11.06439
743.30 11.02068
743.40 10.92893
743.50 10.79091
743.60 10.63285
743.70 10.53393
743.80 10.62051
743.90 10.8723
744.00 11.13989
744.10 11.21644
744.20 11.02526
744.30 10.78615
744.40 10.70343
744.50 10.73365
744.60 10.76412
744.70 10.74276
744.80 10.65353
744.90 10.56682
745.00 10.55484
745.10 10.6246
745.20 10.77884
745.30 10.92894
745.40 10.97956
745.50 10.94628
745.60 10.86595
745.70 10.82226
745.80 10.86039
745.90 10.91873
746.00 10.94451
746.10 10.92008
746.20 10.89115
746.30 10.90028
746.40 10.91411
746.50 10.93321
746.60 10.99396
746.70 11.05728
746.80 11.08528
746.90 11.10573
747.00 11.15904
747.10 11.28846
747.20 11.3834
747.30 11.33986
747.40 11.18525
747.50 11.02863
747.60 11.00355
747.70 11.08558
747.80 11.20847
747.90 11.31589
748.00 11.31875
748.10 11.22275
748.20 11.13122
748.30 11.13184
748.40 11.26883
748.50 11.43829
748.60 11.45088
748.70 11.30632
748.80 11.12633
748.90 11.04401
749.00 11.08031
749.10 11.1542
749.20 11.22327
749.30 11.2408
749.40 11.18366
749.50 11.07287
749.60 10.97773
749.70 10.9875
749.80 11.15291
749.90 11.43131
750.00 11.68546
750.10 11.80766
750.20 11.80702
750.30 11.763
750.40 11.75324
750.50 11.75836
750.60 11.69425
750.70 11.55298
750.80 11.44078
750.90 11.46741
751.00 11.66659
751.10 11.91004
751.20 11.99679
751.30 11.91421
751.40 11.78915
751.50 11.76825
751.60 11.8775
751.70 12.00871
751.80 12.07083
751.90 12.00606
752.00 11.84989
752.10 11.71749
752.20 11.65993
752.30 11.74354
752.40 11.96765
752.50 12.11779
752.60 12.04017
752.70 11.75035
752.80 11.38698
752.90 11.21795
753.00 11.32026
753.10 11.58653
753.20 11.88191
753.30 12.05321
753.40 12.04985
753.50 11.93805
753.60 11.84149
753.70 11.87043
753.80 12.03429
753.90 12.27985
754.00 12.5206
754.10 12.64472
754.20 12.63668
754.30 12.56688
754.40 12.52525
754.50 12.54899
754.60 12.59064
754.70 12.59834
754.80 12.55698
754.90 12.49719
755.00 12.47656
755.10 12.50352
755.20 12.55819
755.30 12.60727
755.40 12.59856
755.50 12.53369
755.60 12.48362
755.70 12.48389
755.80 12.52298
755.90 12.57698
756.00 12.6239
756.10 12.66132
756.20 12.65074
756.30 12.58478
756.40 12.508
756.50 12.41586
756.60 12.30192
756.70 12.17302
756.80 12.02483
756.90 11.90153
757.00 11.89099
757.10 12.07751
757.20 12.46204
757.30 12.87043
757.40 13.08567
757.50 13.06309
757.60 12.91212
757.70 12.75228
757.80 12.61347
757.90 12.49298
758.00 12.4882
758.10 12.67325
758.20 12.98029
758.30 13.20882
758.40 13.262
758.50 13.2342
758.60 13.19257
758.70 13.07694
758.80 12.69702
758.90 11.91113
759.00 10.79558
759.10 9.686554
759.20 8.957401
759.30 8.757927
759.40 9.005211
759.50 9.35058
759.60 9.527421
759.70 9.558999
759.80 9.609912
759.90 9.817092
760.00 10.09814
760.10 10.16237
760.20 9.860131
760.30 9.51781
760.40 9.546007
760.50 9.798775
760.60 9.955665
760.70 9.965394
760.80 9.849532
760.90 9.740634
761.00 9.731635
761.10 9.760688
761.20 9.942024
761.30 10.31573
761.40 10.68195
761.50 10.88335
761.60 10.8317
761.70 10.72112
761.80 10.85998
761.90 11.16092
762.00 11.41203
762.10 11.44882
762.20 11.26388
762.30 11.08752
762.40 11.05708
762.50 11.12746
762.60 11.08221
762.70 10.71111
762.80 10.02918
762.90 9.222744
763.00 8.539285
763.10 8.10439
763.20 7.95041
763.30 8.065068
763.40 8.308123
763.50 8.447305
763.60 8.426629
763.70 8.387144
763.80 8.416123
763.90 8.525489
764.00 8.569723
764.10 8.425748
764.20 8.334738
764.30 8.476485
764.40 8.648694
764.50 8.672373
764.60 8.52037
764.70 8.398822
764.80 8.549789
764.90 8.741679
765.00 8.685952
765.10 8.485114
765.20 8.340752
765.30 8.379874
765.40 8.455594
765.50 8.310552
765.60 8.103866
765.70 8.088756
765.80 8.240934
765.90 8.371768
766.00 8.155468
766.10 7.579598
766.20 6.902346
766.30 6.178318
766.40 5.37256
766.50 4.46609
766.60 3.612962
766.70 3.20111
766.80 3.40473
766.90 4.057099
767.00 4.828535
767.10 5.392743
767.20 5.633962
767.30 5.636383
767.40 5.619955
767.50 5.711038
767.60 5.884887
767.70 6.073692
767.80 6.236859
767.90 6.386272
768.00 6.501576
768.10 6.576715
768.20 6.661465
768.30 6.75098
768.40 6.809055
768.50 6.843195
768.60 6.867249
768.70 6.901144
768.80 6.959684
768.90 7.02006
769.00 7.064478
769.10 7.081624
769.20 7.064256
769.30 7.044952
769.40 7.010663
769.50 6.877367
769.60 6.599144
769.70 6.130775
769.80 5.443559
769.90 4.634515
770.00 3.945849
770.10 3.668273
770.20 3.961359
770.30 4.689337
770.40 5.47146
770.50 6.02299
770.60 6.265222
770.70 6.297434
770.80 6.30422
770.90 6.397562
771.00 6.589083
771.10 6.822518
771.20 7.048669
771.30 7.22842
771.40 7.317551
771.50 7.268952
771.60 7.153306
771.70 7.155217
771.80 7.304999
771.90 7.417836
772.00 7.400925
772.10 7.370219
772.20 7.426337
772.30 7.531599
772.40 7.619966
772.50 7.726114
772.60 7.880032
772.70 8.039648
772.80 8.167241
772.90 8.246338
773.00 8.280634
773.10 8.308366
773.20 8.34605
773.30 8.393814
773.40 8.473529
773.50 8.557682
773.60 8.599316
773.70 8.627111
773.80 8.675783
773.90 8.741442
774.00 8.817884
774.10 8.874449
774.20 8.859657
774.30 8.725187
774.40 8.45259
774.50 8.127922
774.60 7.868172
774.70 7.706617
774.80 7.591934
774.90 7.46644
775.00 7.273366
775.10 7.038899
775.20 6.896468
775.30 6.86743
775.40 6.896183
775.50 6.978549
775.60 7.113608
775.70 7.221995
775.80 7.262649
775.90 7.274776
776.00 7.307866
776.10 7.422809
776.20 7.5456
776.30 7.541717
776.40 7.43072
776.50 7.3133
776.60 7.282817
776.70 7.3874
776.80 7.56937
776.90 7.753876
777.00 7.887768
777.10 7.935605
777.20 7.938063
777.30 7.972101
777.40 8.054711
777.50 8.136505
777.60 8.178041
777.70 8.181401
777.80 8.169947
777.90 8.175421
778.00 8.203988
778.10 8.197012
778.20 8.088257
778.30 7.895749
778.40 7.664064
778.50 7.455937
778.60 7.353442
778.70 7.344259
778.80 7.380896
778.90 7.45758
779.00 7.553993
779.10 7.666149
779.20 7.81359
779.30 7.971853
779.40 8.136604
779.50 8.292699
779.60 8.350442
779.70 8.261098
779.80 8.094774
779.90 7.936853
780.00 7.798413
780.10 7.683633
780.20 7.647886
780.30 7.805846
780.40 8.157135
780.50 8.536851
780.60 8.827671
780.70 9.038333
780.80 9.201453
780.90 9.275794
781.00 9.21989
781.10 9.088153
781.20 8.966125
781.30 8.944303
781.40 9.058517
781.50 9.255917
781.60 9.444657
781.70 9.535249
781.80 9.523369
781.90 9.476625
782.00 9.433308
782.10 9.357327
782.20 9.149625
782.30 8.831619
782.40 8.642616
782.50 8.629458
782.60 8.661421
782.70 8.695642
782.80 8.627538
782.90 8.381645
783.00 8.05768
783.10 7.817115
783.20 7.738133
783.30 7.831917
783.40 8.015549
783.50 8.179245
783.60 8.305543
783.70 8.384391
783.80 8.427327
783.90 8.479611
784.00 8.54708
784.10 8.612133
784.20 8.648776
784.30 8.646778
784.40 8.647479
784.50 8.689083
784.60 8.777619
784.70 8.898212
784.80 8.996422
784.90 9.024024
785.00 8.975131
785.10 8.924545
785.20 8.97828
785.30 9.12325
785.40 9.281361
785.50 9.317693
785.60 9.204288
785.70 9.107177
785.80 9.11583
785.90 9.216988
786.00 9.313603
786.10 9.318499
786.20 9.230782
786.30 9.060644
786.40 8.869514
786.50 8.762559
786.60 8.786591
786.70 8.917523
786.80 9.080086
786.90 9.19982
787.00 9.289008
787.10 9.288038
787.20 9.164566
787.30 9.05814
787.40 9.022922
787.50 9.050919
787.60 9.175579
787.70 9.377059
787.80 9.57607
787.90 9.733262
788.00 9.815213
788.10 9.82754
788.20 9.86293
788.30 9.92903
788.40 9.989612
788.50 10.00882
788.60 9.96788
788.70 9.93008
788.80 9.962093
788.90 10.08343
789.00 10.24162
789.10 10.33508
789.20 10.32474
789.30 10.26113
789.40 10.23704
789.50 10.27065
789.60 10.30185
789.70 10.28522
789.80 10.20615
789.90 10.09375
790.00 9.959217
790.10 9.828635
790.20 9.759072
790.30 9.784217
790.40 9.911602
790.50 10.07688
790.60 10.20463
790.70 10.19127
790.80 9.970531
790.90 9.63863
791.00 9.329407
791.10 9.150275
791.20 9.106528
791.30 9.194132
791.40 9.389017
791.50 9.544034
791.60 9.611515
791.70 9.586039
791.80 9.512396
791.90 9.473928
792.00 9.494775
792.10 9.585338
792.20 9.679137
792.30 9.743348
792.40 9.750413
792.50 9.706715
792.60 9.707971
792.70 9.750136
792.80 9.801451
792.90 9.866947
793.00 9.96379
793.10 10.12846
793.20 10.34928
793.30 10.56809
793.40 10.68726
793.50 10.66828
793.60 10.60965
793.70 10.58705
793.80 10.58107
793.90 10.55311
794.00 10.47413
794.10 10.33942
794.20 10.18996
794.30 10.10607
794.40 10.16514
794.50 10.30514
794.60 10.3495
794.70 10.18542
794.80 9.877409
794.90 9.642476
795.00 9.626301
795.10 9.845124
795.20 10.1885
795.30 10.4969
795.40 10.72764
795.50 10.86957
795.60 10.93316
795.70 10.97494
795.80 10.98979
795.90 10.95645
796.00 10.89612
796.10 10.7885
796.20 10.6513
796.30 10.593
796.40 10.71968
796.50 11.02699
796.60 11.2923
796.70 11.30482
796.80 11.13302
796.90 11.03517
797.00 11.13599
797.10 11.30398
797.20 11.40961
797.30 11.42963
797.40 11.4089
797.50 11.40515
797.60 11.38956
797.70 11.34963
797.80 11.31708
797.90 11.29289
798.00 11.29066
798.10 11.28687
798.20 11.21674
798.30 11.10591
798.40 11.0373
798.50 11.04668
798.60 11.08148
798.70 11.04822
798.80 10.93464
798.90 10.8314
799.00 10.8124
799.10 10.92655
799.20 11.20732
799.30 11.54479
799.40 11.74335
799.50 11.66527
799.60 11.37791
799.70 11.15187
799.80 11.1004
799.90 11.11515
800.00 11.16041
800.10 11.2615
800.20 11.37966
800.30 11.47919
800.40 11.55605
800.50 11.59821
800.60 11.60727
800.70 11.61563
800.80 11.66318
800.90 11.74943
801.00 11.83536
801.10 11.88214
801.20 11.92223
801.30 12.00506
801.40 12.12265
801.50 12.22431
801.60 12.24789
801.70 12.22064
801.80 12.20712
801.90 12.2259
802.00 12.2856
802.10 12.33295
802.20 12.28468
802.30 12.18758
802.40 12.13361
802.50 12.19216
802.60 12.38477
802.70 12.53585
802.80 12.51577
802.90 12.44433
803.00 12.4652
803.10 12.59198
803.20 12.74393
803.30 12.84501
803.40 12.86468
803.50 12.84854
803.60 12.83433
803.70 12.80633
803.80 12.78612
803.90 12.79266
804.00 12.79322
804.10 12.78991
804.20 12.81039
804.30 12.85564
804.40 12.96007
804.50 13.09466
804.60 13.15188
804.70 13.10716
804.80 12.98519
804.90 12.86233
805.00 12.89093
805.10 13.13138
805.20 13.4688
805.30 13.75265
805.40 13.90544
805.50 13.92286
805.60 13.87334
805.70 13.82416
805.80 13.78223
805.90 13.76036
806.00 13.81335
806.10 13.9555
806.20 14.1082
806.30 14.16944
806.40 14.11004
806.50 13.9798
806.60 13.84904
806.70 13.79525
806.80 13.82904
806.90 13.83374
807.00 13.7683
807.10 13.70948
807.20 13.71659
807.30 13.82629
807.40 13.99572
807.50 14.13322
807.60 14.21527
807.70 14.24931
807.80 14.27644
807.90 14.33865
808.00 14.3992
808.10 14.44422
808.20 14.48057
808.30 14.50502
808.40 14.56699
808.50 14.6663
808.60 14.73256
808.70 14.7348
808.80 14.69329
808.90 14.65581
809.00 14.66031
809.10 14.70876
809.20 14.77672
809.30 14.8382
809.40 14.87418
809.50 14.86765
809.60 14.82479
809.70 14.76871
809.80 14.71438
809.90 14.69665
810.00 14.71962
810.10 14.74279
810.20 14.7668
810.30 14.78705
810.40 14.78159
810.50 14.7476
810.60 14.70999
810.70 14.71627
810.80 14.80698
810.90 14.9762
811.00 15.12689
811.10 15.16164
811.20 15.11533
811.30 15.09391
811.40 15.14008
811.50 15.18065
811.60 15.09401
811.70 14.87392
811.80 14.65287
811.90 14.60181
812.00 14.78939
812.10 15.09178
812.20 15.34721
812.30 15.47078
812.40 15.46875
812.50 15.445
812.60 15.46587
812.70 15.52895
812.80 15.61449
812.90 15.68306
813.00 15.71631
813.10 15.71088
813.20 15.67231
813.30 15.6436
813.40 15.63803
813.50 15.63821
813.60 15.65578
813.70 15.70345
813.80 15.80276
813.90 15.95859
814.00 16.08432
814.10 16.08306
814.20 15.93519
814.30 15.71253
814.40 15.51416
814.50 15.39974
814.60 15.42617
814.70 15.54906
814.80 15.60856
814.90 15.56108
815.00 15.46336
815.10 15.39814
815.20 15.46041
815.30 15.59793
815.40 15.68303
815.50 15.66269
815.60 15.57738
815.70 15.52763
815.80 15.54012
815.90 15.54536
816.00 15.47935
816.10 15.37672
816.20 15.29845
816.30 15.2492
816.40 15.26959
816.50 15.38394
816.60 15.55421
816.70 15.73732
816.80 15.86326
816.90 15.91228
817.00 15.89426
817.10 15.81209
817.20 15.74173
817.30 15.72691
817.40 15.72772
817.50 15.70224
817.60 15.62957
817.70 15.48743
817.80 15.25639
817.90 15.0007
818.00 14.75415
818.10 14.29534
818.20 13.39155
818.30 12.03849
818.40 10.54096
818.50 9.586626
818.60 9.668616
818.70 10.67434
818.80 12.05034
818.90 13.14638
819.00 13.69845
819.10 13.82251
819.20 13.60925
819.30 12.95161
819.40 11.75266
819.50 10.22954
819.60 8.968659
819.70 8.516939
819.80 9.005251
819.90 10.12575
820.00 11.34109
820.10 12.32853
820.20 13.08363
820.30 13.68674
820.40 14.14152
820.50 14.35596
820.60 14.29766
820.70 14.09243
820.80 13.93071
820.90 13.93167
821.00 14.111
821.10 14.35847
821.20 14.5573
821.30 14.66803
821.40 14.67372
821.50 14.62034
821.60 14.59298
821.70 14.60362
821.80 14.63261
821.90 14.6847
822.00 14.7302
822.10 14.74675
822.20 14.78632
822.30 14.86296
822.40 14.94976
822.50 15.07762
822.60 15.22943
822.70 15.32523
822.80 15.34777
822.90 15.32498
823.00 15.34166
823.10 15.48764
823.20 15.66332
823.30 15.68745
823.40 15.52973
823.50 15.30176
823.60 15.18346
823.70 15.27291
823.80 15.47978
823.90 15.69077
824.00 15.89541
824.10 16.07692
824.20 16.15434
824.30 16.07982
824.40 15.88519
824.50 15.71909
824.60 15.74132
824.70 15.95007
824.80 16.28086
824.90 16.58373
825.00 16.66681
825.10 16.53071
825.20 16.2687
825.30 15.95369
825.40 15.68985
825.50 15.50417
825.60 15.31859
825.70 15.09613
825.80 14.92733
825.90 14.93134
826.00 15.11652
826.10 15.44534
826.20 15.81091
826.30 16.03565
826.40 16.11304
826.50 16.14887
826.60 16.18466
826.70 16.2694
826.80 16.38135
826.90 16.39835
827.00 16.27923
827.10 16.04722
827.20 15.71426
827.30 15.33824
827.40 15.00547
827.50 14.80473
827.60 14.79066
827.70 14.89705
827.80 15.07955
827.90 15.32259
828.00 15.48638
828.10 15.49732
828.20 15.3561
828.30 15.11815
828.40 14.97855
828.50 14.98843
828.60 15.04378
828.70 15.07003
828.80 15.04814
828.90 14.96173
829.00 14.72554
829.10 14.4373
829.20 14.29696
829.30 14.26892
829.40 14.282
829.50 14.33709
829.60 14.41014
829.70 14.53225
829.80 14.70447
829.90 14.8472
830.00 14.58326
830.10 14.40598
830.20 14.2287
830.30 14.00756
830.40 13.78642
830.50 13.74895
830.60 13.71147
830.70 13.79412
830.80 13.87677
830.90 14.11696
831.00 14.35714
831.10 14.44497
831.20 14.5328
831.30 14.45502
831.40 14.37724
831.50 14.39511
831.60 14.41298
831.70 14.58161
831.80 14.75025
831.90 14.78098
832.00 14.81171
832.10 14.87606
832.20 14.94041
832.30 14.99279
832.40 15.04516
832.50 15.04172
832.60 15.03829
832.70 14.68091
832.80 14.32353
832.90 14.14781
833.00 13.9721
833.10 14.37436
833.20 14.77663
833.30 14.85065
833.40 14.92467
833.50 14.64055
833.60 14.35644
833.70 14.29106
833.80 14.22568
833.90 14.38617
834.00 14.54666
834.10 14.70805
834.20 14.86943
834.30 14.99001
834.40 15.11058
834.50 15.09832
834.60 15.08605
834.70 14.74979
834.80 14.41353
834.90 14.2456
835.00 14.07768
835.10 14.31693
835.20 14.55617
835.30 14.59491
835.40 14.63365
835.50 14.60089
835.60 14.56813
835.70 14.61281
835.80 14.65749
835.90 14.75044
836.00 14.84339
836.10 14.8836
836.20 14.92381
836.30 14.7652
836.40 14.6066
836.50 14.47512
836.60 14.34365
836.70 14.4989
836.80 14.65415
836.90 14.93519
837.00 15.21623
837.10 15.32113
837.20 15.42602
837.30 15.14293
837.40 14.85984
837.50 14.54444
837.60 14.22905
837.70 14.07166
837.80 13.91427
837.90 13.99243
838.00 14.07059
838.10 14.15455
838.20 14.2385
838.30 14.14379
838.40 14.04907
838.50 13.89147
838.60 13.73386
838.70 13.4799
838.80 13.22594
838.90 13.10661
839.00 12.98729
839.10 13.28404
839.20 13.58079
839.30 13.88526
839.40 14.18973
839.50 14.21809
839.60 14.24645
839.70 14.29428
839.80 14.34211
839.90 14.49305
840.00 14.64398
840.10 14.77982
840.20 14.91592
840.30 14.9488
840.40 14.95378
840.50 14.97087
840.60 14.99072
840.70 15.01891
840.80 15.06624
840.90 15.12757
841.00 15.13811
841.10 15.06266
841.20 14.92839
841.30 14.77907
841.40 14.69624
841.50 14.90544
841.60 15.18685
841.70 15.30116
841.80 15.3194
841.90 15.16565
842.00 14.82533
842.10 14.57256
842.20 14.45731
842.30 14.30518
842.40 14.3226
842.50 14.35459
842.60 14.29114
842.70 14.12751
842.80 14.10177
842.90 14.18799
843.00 14.25291
843.10 14.22999
843.20 14.14501
843.30 13.67651
843.40 12.82816
843.50 12.06116
843.60 11.35724
843.70 10.70535
843.80 11.03611
843.90 11.5717
844.00 11.94136
844.10 12.25514
844.20 12.38735
844.30 11.97702
844.40 11.5489
844.50 11.24359
844.60 10.92431
844.70 10.84128
844.80 10.96898
844.90 11.02246
845.00 11.08478
845.10 11.096
845.20 10.68532
845.30 10.29346
845.40 9.999956
845.50 9.703086
845.60 9.464269
845.70 9.511564
845.80 9.570841
845.90 9.693946
846.00 9.849698
846.10 9.993903
846.20 10.10768
846.30 10.08713
846.40 9.972489
846.50 9.927902
846.60 9.851475
846.70 9.734456
846.80 9.661682
846.90 9.605191
847.00 9.54478
847.10 9.578889
847.20 9.701374
847.30 9.828833
847.40 9.878975
847.50 9.858679
847.60 9.857129
847.70 9.912184
847.80 10.04384
847.90 10.23363
848.00 10.32214
848.10 10.37423
848.20 10.33539
848.30 10.30249
848.40 10.34829
848.50 10.47096
848.60 10.56787
848.70 10.67156
848.80 10.78346
848.90 10.90154
849.00 11.0268
849.10 11.14068
849.20 11.2825
849.30 11.38316
849.40 11.31967
849.50 11.26695
849.60 11.09188
849.70 10.92552
849.80 10.88747
849.90 10.92143
850.00 10.89516
850.10 10.98047
850.20 10.98974
850.30 10.98588
850.40 11.00041
850.50 10.80958
850.60 10.4458
850.70 10.17467
850.80 9.999537
850.90 9.839441
851.00 10.03312
851.10 10.24612
851.20 10.34894
851.30 10.38221
851.40 10.38834
851.50 10.2691
851.60 10.13284
851.70 9.967508
851.80 9.845729
851.90 9.79038
852.00 9.745748
852.10 9.718843
852.20 9.792698
852.30 9.886409
852.40 10.14386
852.50 10.37651
852.60 10.50544
852.70 10.62574
852.80 10.70759
852.90 10.72724
853.00 10.72386
853.10 10.74865
853.20 10.80196
853.30 10.86686
853.40 10.92363
853.50 10.99124
853.60 11.09359
853.70 11.2311
853.80 11.28391
853.90 11.26132
854.00 11.21435
854.10 11.24656
854.20 11.41008
854.30 11.54808
854.40 11.61486
854.50 11.69142
854.60 11.67706
854.70 11.70636
854.80 11.80167
854.90 11.91745
855.00 11.98365
855.10 12.04742
855.20 12.09399
855.30 12.16088
855.40 12.18946
855.50 12.18083
855.60 12.20783
855.70 12.28014
855.80 12.30119
855.90 12.08156
856.00 11.85458
856.10 11.69678
856.20 11.5592
856.30 11.53726
856.40 11.67459
856.50 11.85172
856.60 12.09649
856.70 12.36416
856.80 12.42511
856.90 12.40316
857.00 12.27912
857.10 12.12062
857.20 12.07309
857.30 12.06136
857.40 11.99539
857.50 12.03474
857.60 12.09131
857.70 12.20009
857.80 12.34581
857.90 12.39353
858.00 12.37568
858.10 12.4157
858.20 12.38891
858.30 12.3251
858.40 12.27496
858.50 12.29748
858.60 12.39363
858.70 12.48645
858.80 12.52065
858.90 12.55725
859.00 12.59156
859.10 12.55827
859.20 12.49918
859.30 12.43846
859.40 12.37208
859.50 12.33772
859.60 12.45313
859.70 12.57422
859.80 12.67394
859.90 12.75315
860.00 12.79231
860.10 12.7962
860.20 12.7981
860.30 12.80443
860.40 12.83364
860.50 12.91522
860.60 13.04302
860.70 13.15571
860.80 13.24048
860.90 13.26327
861.00 13.17877
861.10 13.12753
861.20 13.0359
861.30 12.9238
861.40 12.85365
861.50 12.8484
861.60 12.80924
861.70 12.72646
861.80 12.66596
861.90 12.77569
862.00 12.91543
862.10 13.00111
862.20 13.07419
862.30 13.06097
862.40 12.94284
862.50 12.90498
862.60 12.87345
862.70 12.82782
862.80 12.72505
862.90 12.63232
863.00 12.60182
863.10 12.59731
863.20 12.58821
863.30 12.71524
863.40 12.85838
863.50 12.92648
863.60 12.9842
863.70 13.08386
863.80 13.1223
863.90 13.10299
864.00 13.01548
864.10 12.93861
864.20 12.99127
864.30 13.1181
864.40 13.18015
864.50 13.13044
864.60 13.1297
864.70 13.03173
864.80 12.92892
864.90 12.86957
865.00 12.82594
865.10 12.82381
865.20 12.93337
865.30 13.08716
865.40 13.27769
865.50 13.41377
865.60 13.47662
865.70 13.53286
865.80 13.56443
865.90 13.52732
866.00 13.46431
866.10 13.27217
866.20 13.13221
866.30 13.16738
866.40 13.23394
866.50 13.33965
866.60 13.56829
866.70 13.69673
866.80 13.71211
866.90 13.76505
867.00 13.72539
867.10 13.66776
867.20 13.70285
867.30 13.80711
867.40 13.78235
867.50 13.68992
867.60 13.58437
867.70 13.62352
867.80 13.72109
867.90 13.81252
868.00 13.91916
868.10 13.9932
868.20 13.94697
868.30 13.89002
868.40 13.92207
868.50 13.91929
868.60 13.85388
868.70 13.82179
868.80 13.7712
868.90 13.4967
869.00 13.19669
869.10 13.02145
869.20 12.90681
869.30 12.77639
869.40 12.63518
869.50 12.56133
869.60 12.53805
869.70 12.45159
869.80 12.5643
869.90 12.71096
870.00 12.86519
870.10 13.00758
870.20 13.14527
870.30 13.28241
870.40 13.38948
870.50 13.46088
870.60 13.51548
870.70 13.49008
870.80 13.41286
870.90 13.31844
871.00 13.14394
871.10 13.03497
871.20 12.97447
871.30 12.86467
871.40 12.86965
871.50 12.9311
871.60 12.90787
871.70 12.79988
871.80 12.76091
871.90 12.79486
872.00 12.86743
872.10 13.00194
872.20 13.13106
872.30 13.27955
872.40 13.44147
872.50 13.59108
872.60 13.68753
872.70 13.76392
872.80 14.07348
872.90 14.38674
873.00 14.4444
873.10 14.32651
873.20 14.23686
873.30 14.0015
873.40 13.75322
873.50 13.6892
873.60 13.64087
873.70 13.65193
873.80 13.72628
873.90 13.81877
874.00 13.90204
874.10 13.95655
874.20 14.17138
874.30 14.41731
874.40 14.72343
874.50 14.99365
874.60 15.0404
874.70 14.89931
874.80 14.84045
874.90 14.60439
875.00 14.4041
875.10 14.5385
875.20 14.77756
875.30 14.89978
875.40 15.08533
875.50 15.214
875.60 15.11118
875.70 15.05321
875.80 15.17701
875.90 15.31682
876.00 15.4463
876.10 15.64031
876.20 15.73469
876.30 15.54828
876.40 15.4481
876.50 15.28154
876.60 15.01094
876.70 14.76088
876.80 14.63352
876.90 14.70943
877.00 15.15912
877.10 15.53567
877.20 15.85205
877.30 16.17345
877.40 16.44271
877.50 16.61512
877.60 16.68989
877.70 16.61563
877.80 16.63085
877.90 16.20421
878.00 15.73657
878.10 15.55909
878.20 15.56013
878.30 15.53233
878.40 15.72845
878.50 15.93679
878.60 16.00415
878.70 16.055
878.80 16.09049
878.90 16.13187
879.00 16.18381
879.10 16.29691
879.20 16.36991
879.30 16.40729
879.40 16.50107
879.50 16.62478
879.60 16.71594
879.70 16.75903
879.80 16.91131
879.90 17.00745
880.00 16.66376
880.10 16.29105
880.20 15.73472
880.30 15.14088
880.40 14.81403
880.50 14.83127
880.60 14.79555
880.70 14.86749
880.80 15.00541
880.90 15.23332
881.00 15.5111
881.10 15.97239
881.20 16.50995
881.30 16.86893
881.40 17.11268
881.50 17.36414
881.60 17.45832
881.70 17.54107
881.80 17.71149
881.90 17.87185
882.00 17.83359
882.10 17.49935
882.20 17.20433
882.30 16.68336
882.40 16.12247
882.50 15.79452
882.60 15.65143
882.70 15.60374
882.80 15.85672
882.90 16.16631
883.00 16.54973
883.10 16.9228
883.20 17.23449
883.30 17.5144
883.40 17.6916
883.50 17.68817
883.60 17.71871
883.70 17.80042
883.80 17.82922
883.90 17.85828
884.00 17.88175
884.10 17.94498
884.20 18.09553
884.30 18.2361
884.40 18.01655
884.50 17.75375
884.60 17.41576
884.70 17.07088
884.80 16.85097
884.90 16.76902
885.00 16.77706
885.10 17.15458
885.20 17.45903
885.30 18.00893
885.40 18.60373
885.50 18.7715
885.60 18.61975
885.70 18.45445
885.80 17.80875
885.90 17.18511
886.00 16.36589
886.10 15.47429
886.20 14.79165
886.30 14.3132
886.40 13.9903
886.50 14.31997
886.60 14.64349
886.70 14.8636
886.80 15.08871
886.90 14.86165
887.00 14.34206
887.10 13.84835
887.20 13.21831
887.30 12.63674
887.40 12.6841
887.50 12.73202
887.60 13.00487
887.70 13.41056
887.80 13.79652
887.90 14.22242
888.00 14.62596
888.10 14.74258
888.20 14.849
888.30 14.64886
888.40 14.36759
888.50 14.25909
888.60 14.17366
888.70 14.05447
888.80 14.29369
888.90 14.52101
889.00 14.74533
889.10 14.96365
889.20 15.1173
889.30 15.16667
889.40 15.14892
889.50 14.97642
889.60 14.86092
889.70 14.69691
889.80 14.48139
889.90 14.46399
890.00 14.6593
890.10 14.80596
890.20 15.19296
890.30 15.69828
890.40 15.9877
890.50 16.18874
890.60 16.18191
890.70 16.11412
890.80 16.08743
890.90 15.98123
891.00 15.89561
891.10 15.78189
891.20 15.64076
891.30 15.68962
891.40 15.85722
891.50 15.95152
891.60 16.13104
891.70 16.30695
891.80 16.32755
891.90 16.32134
892.00 16.29346
892.10 16.28321
892.20 16.26425
892.30 16.19564
892.40 16.16348
892.50 16.09872
892.60 16.02824
892.70 16.00813
892.80 15.98761
892.90 16.0194
893.00 16.17295
893.10 16.35045
893.20 16.69713
893.30 17.0355
893.40 17.25895
893.50 17.46933
893.60 17.34514
893.70 16.91843
893.80 16.5073
893.90 15.85053
894.00 15.22446
894.10 15.13334
894.20 15.04889
894.30 15.0172
894.40 15.09962
894.50 15.26824
894.60 15.38452
894.70 15.41273
894.80 15.59229
894.90 15.74529
895.00 15.71233
895.10 15.62641
895.20 15.61282
895.30 15.52162
895.40 15.4857
895.50 15.66617
895.60 15.79829
895.70 15.9278
895.80 16.09517
895.90 16.24211
896.00 16.25956
896.10 16.28342
896.20 16.27015
896.30 16.22891
896.40 16.19067
896.50 16.1712
896.60 16.02374
896.70 15.77529
896.80 15.68227
896.90 15.85131
897.00 15.99504
897.10 16.21097
897.20 16.43322
897.30 16.53478
897.40 16.53884
897.50 16.57628
897.60 16.72174
897.70 16.86868
897.80 16.99633
897.90 17.13818
898.00 17.12446
898.10 16.93088
898.20 16.8237
898.30 16.87599
898.40 16.87843
898.50 17.30831
898.60 17.74003
898.70 17.93552
898.80 18.00582
898.90 17.93854
899.00 17.64946
899.10 17.443
899.20 17.36809
899.30 17.32658
899.40 17.38587
899.50 17.459
899.60 17.45718
899.70 17.41774
899.80 17.35295
899.90 17.2021
900.00 17.01993
900.10 17.0439
900.20 17.12881
900.30 17.26504
900.40 17.67936
900.50 18.19425
900.60 18.55399
900.70 18.85295
900.80 18.66975
900.90 18.39906
901.00 18.14133
901.10 17.82148
901.20 17.62365
901.30 17.79749
901.40 17.99174
901.50 18.06517
901.60 18.10818
901.70 17.90443
901.80 17.53875
901.90 17.29703
902.00 17.21367
902.10 17.19861
902.20 17.07884
902.30 16.9488
902.40 16.86809
902.50 16.79242
902.60 16.72544
902.70 16.73002
902.80 16.71252
902.90 16.7397
903.00 16.78571
903.10 16.96007
903.20 17.22453
903.30 17.5518
903.40 17.83176
903.50 18.01052
903.60 18.15573
903.70 18.30068
903.80 18.42088
903.90 18.5557
904.00 18.61142
904.10 18.61966
904.20 18.6792
904.30 18.53636
904.40 18.3268
904.50 18.34697
904.60 18.39096
904.70 18.47214
904.80 18.67831
904.90 18.91068
905.00 19.01506
905.10 19.07935
905.20 18.75711
905.30 18.43712
905.40 18.25783
905.50 18.13735
905.60 18.01361
905.70 17.9278
905.80 17.89679
905.90 17.92377
906.00 17.92911
906.10 17.98687
906.20 18.06473
906.30 18.04114
906.40 18.05609
906.50 18.09877
906.60 17.98298
906.70 17.87109
906.80 17.7561
906.90 17.65445
907.00 17.64683
907.10 17.67386
907.20 17.63773
907.30 17.81741
907.40 18.02543
907.50 18.10976
907.60 18.18489
907.70 18.33304
907.80 18.49962
907.90 18.65418
908.00 18.9237
908.10 19.18259
908.20 19.13708
908.30 19.04862
908.40 19.02985
908.50 18.98352
908.60 18.83587
908.70 18.69948
908.80 18.51515
908.90 18.23274
909.00 17.95439
909.10 17.9384
909.20 18.12251
909.30 18.34825
909.40 18.62794
909.50 18.93822
909.60 19.14409
909.70 19.27897
909.80 19.39471
909.90 19.487
910.00 19.52946
910.10 19.58375
910.20 19.71841
910.30 19.69338
910.40 19.60427
910.50 19.36907
910.60 19.08651
910.70 18.89816
910.80 18.81034
910.90 18.75693
911.00 18.96621
911.10 19.22204
911.20 19.44573
911.30 19.66535
911.40 19.79001
911.50 19.85707
911.60 19.87457
911.70 19.69577
911.80 19.50126
911.90 19.47925
912.00 19.49975
912.10 19.58637
912.20 19.74505
912.30 19.90063
912.40 19.94883
912.50 19.94874
912.60 19.89456
912.70 19.80263
912.80 19.72516
912.90 19.70576
913.00 19.75742
913.10 19.83041
913.20 19.92281
913.30 20.10335
913.40 20.27697
913.50 20.36446
913.60 20.41277
913.70 20.34904
913.80 20.06501
913.90 19.71512
914.00 19.24606
914.10 18.8812
914.20 19.006
914.30 19.19467
914.40 19.40776
914.50 19.76414
914.60 20.04324
914.70 20.07698
914.80 20.11742
914.90 19.89711
915.00 19.66728
915.10 19.60159
915.20 19.61125
915.30 19.63752
915.40 19.96945
915.50 20.20626
915.60 20.4647
915.70 20.77395
915.80 20.87875
915.90 20.84684
916.00 20.86514
916.10 20.69358
916.20 20.51058
916.30 20.29629
916.40 20.07547
916.50 20.11505
916.60 20.28328
916.70 20.39745
916.80 20.56666
916.90 20.73894
917.00 20.67131
917.10 20.59396
917.20 20.53016
917.30 20.46415
917.40 20.43666
917.50 20.38926
917.60 20.33406
917.70 20.29562
917.80 20.25449
917.90 20.25993
918.00 20.28187
918.10 20.36823
918.20 20.50113
918.30 20.60483
918.40 20.60215
918.50 20.5438
918.60 20.43813
918.70 20.35256
918.80 20.50129
918.90 20.78736
919.00 20.96289
919.10 21.24298
919.20 21.64736
919.30 21.44518
919.40 21.23681
919.50 21.08206
919.60 20.90003
919.70 20.76728
919.80 20.99365
919.90 21.22092
920.00 21.27529
920.10 21.36055
920.20 21.35965
920.30 21.28841
920.40 21.17054
920.50 21.11908
920.60 21.10149
920.70 20.89142
920.80 20.6842
920.90 20.22255
921.00 19.68086
921.10 19.45404
921.20 19.57539
921.30 19.72056
921.40 20.02223
921.50 20.26733
921.60 20.37383
921.70 20.42381
921.80 20.38259
921.90 20.31482
922.00 20.35452
922.10 20.23003
922.20 20.07442
922.30 19.9455
922.40 19.80874
922.50 19.77499
922.60 19.78808
922.70 19.73544
922.80 19.73833
922.90 19.69625
923.00 19.47034
923.10 19.25822
923.20 18.99924
923.30 18.70351
923.40 18.57924
923.50 18.73684
923.60 18.86439
923.70 18.9491
923.80 19.03353
923.90 19.10618
924.00 19.16255
924.10 19.36572
924.20 19.70003
924.30 19.83627
924.40 19.93665
924.50 20.12748
924.60 19.84609
924.70 19.51542
924.80 19.32947
924.90 19.14164
925.00 18.92616
925.10 18.88567
925.20 18.82103
925.30 18.84639
925.40 18.91164
925.50 19.14492
925.60 19.47708
925.70 19.67589
925.80 19.8981
925.90 20.15897
926.00 20.00716
926.10 19.87786
926.20 19.78215
926.30 19.68178
926.40 19.71365
926.50 19.88777
926.60 20.00854
926.70 20.25795
926.80 20.48807
926.90 20.50373
927.00 20.43509
927.10 20.30129
927.20 20.0606
927.30 19.88019
927.40 19.689
927.50 19.49302
927.60 19.32749
927.70 19.16021
927.80 18.95735
927.90 18.75014
928.00 18.62608
928.10 18.68232
928.20 18.73351
928.30 18.98904
928.40 19.25134
928.50 19.36084
928.60 19.38612
928.70 19.3823
928.80 19.1438
928.90 18.87641
929.00 18.76886
929.10 18.64902
929.20 18.52875
929.30 18.44991
929.40 18.43845
929.50 18.51939
929.60 18.56408
929.70 18.56237
929.80 18.61072
929.90 18.45513
930.00 18.25434
930.10 18.16808
930.20 18.15847
930.30 18.07856
930.40 18.06301
930.50 18.13357
930.60 18.16638
930.70 18.25763
930.80 18.47513
930.90 18.63462
931.00 18.75782
931.10 18.94201
931.20 19.08161
931.30 19.09842
931.40 19.10783
931.50 19.11171
931.60 18.93391
931.70 18.93542
931.80 18.89376
931.90 18.78984
932.00 18.60783
932.10 18.52802
932.20 18.53792
932.30 18.60283
932.40 18.66795
932.50 18.70623
932.60 18.71988
932.70 18.65451
932.80 18.61235
932.90 18.60737
933.00 18.64331
933.10 18.67983
933.20 18.64637
933.30 18.57451
933.40 18.51845
933.50 18.49583
933.60 18.45523
933.70 18.43079
933.80 18.4896
933.90 18.62261
934.00 18.73804
934.10 18.80869
934.20 18.90856
934.30 18.9102
934.40 18.85738
934.50 18.70961
934.60 18.66445
934.70 18.67221
934.80 18.70399
934.90 18.64599
935.00 18.68498
935.10 18.70202
935.20 18.70393
935.30 18.60409
935.40 18.58791
935.50 18.55213
935.60 18.48341
935.70 18.43171
935.80 18.40152
935.90 18.47092
936.00 18.58099
936.10 18.65993
936.20 18.76749
936.30 18.90646
936.40 19.09024
936.50 19.01124
936.60 18.90044
936.70 18.76885
936.80 18.57662
936.90 18.32018
937.00 18.03488
937.10 17.75701
937.20 17.55071
937.30 17.63065
937.40 17.78716
937.50 17.95684
937.60 18.20952
937.70 18.4722
937.80 18.6961
937.90 18.85944
938.00 18.89449
938.10 18.7885
938.20 18.6634
938.30 18.64608
938.40 18.77043
938.50 18.87788
938.60 18.91772
938.70 18.93439
938.80 18.90037
938.90 18.88307
939.00 18.87459
939.10 18.8853
939.20 18.93008
939.30 18.995
939.40 19.06444
939.50 19.04372
939.60 19.02334
939.70 18.92663
939.80 18.75896
939.90 18.58222
940.00 18.61887
940.10 18.70358
940.20 18.70287
940.30 18.72851
940.40 18.81536
940.50 18.98974
940.60 19.17267
940.70 19.29281
940.80 19.4226
940.90 19.56806
941.00 19.67505
941.10 19.63144
941.20 19.59078
941.30 19.58164
941.40 19.40154
941.50 19.25541
941.60 19.16603
941.70 19.13431
941.80 18.98474
941.90 19.00535
942.00 19.10075
942.10 19.27207
942.20 19.35561
942.30 19.4487
942.40 19.51299
942.50 19.55746
942.60 19.58492
942.70 19.57572
942.80 19.54677
942.90 19.48913
943.00 19.54594
943.10 19.61186
943.20 19.61111
943.30 19.63947
943.40 19.76993
943.50 19.87224
943.60 19.90064
943.70 19.87084
943.80 19.70616
943.90 19.48023
944.00 19.22805
944.10 19.05832
944.20 18.87555
944.30 18.72786
944.40 18.63808
944.50 18.63206
944.60 18.7062
944.70 18.80912
944.80 18.83585
944.90 18.88923
945.00 18.95904
945.10 19.06823
945.20 19.21827
945.30 19.37391
945.40 19.46904
945.50 19.53681
945.60 19.55125
945.70 19.51198
945.80 19.45052
945.90 19.44833
946.00 19.49252
946.10 19.50229
946.20 19.53189
946.30 19.65009
946.40 19.7378
946.50 19.6482
946.60 19.48795
946.70 19.49713
946.80 19.62465
946.90 19.73227
947.00 19.79528
947.10 19.86871
947.20 19.96807
947.30 20.02742
947.40 20.05298
947.50 20.05481
947.60 20.09808
947.70 20.15657
947.80 20.21256
947.90 20.33465
948.00 20.45132
948.10 20.55441
948.20 20.57539
948.30 20.54732
948.40 20.54785
948.50 20.57199
948.60 20.61168
948.70 20.55557
948.80 20.48579
948.90 20.48328
949.00 20.61588
949.10 20.73298
949.20 20.75553
949.30 20.69797
949.40 20.69212
949.50 20.58642
949.60 20.43765
949.70 20.28909
949.80 20.41947
949.90 20.55737
950.00 20.65489
950.10 20.71892
950.20 20.693
950.30 20.59585
950.40 20.4639
950.50 20.50185
950.60 20.52595
950.70 20.53796
950.80 20.53365
950.90 20.63324
951.00 20.69647
951.10 20.69713
951.20 20.66662
951.30 20.68164
951.40 20.60296
951.50 20.47869
951.60 20.33502
951.70 20.31434
951.80 20.30297
951.90 20.31587
952.00 20.36669
952.10 20.42925
952.20 20.55117
952.30 20.69146
952.40 20.76958
952.50 20.93231
952.60 21.12306
952.70 21.28992
952.80 21.27948
952.90 21.26644
953.00 21.26004
953.10 21.27255
953.20 21.30814
953.30 21.23808
953.40 21.13495
953.50 21.03355
953.60 20.93046
953.70 20.81431
953.80 20.75457
953.90 20.73748
954.00 20.68421
954.10 20.64597
954.20 20.65648
954.30 20.69993
954.40 20.7137
954.50 20.71905
954.60 20.73832
954.70 20.64068
954.80 20.5486
954.90 20.55443
955.00 20.69794
955.10 20.85928
955.20 20.98752
955.30 21.09676
955.40 21.21322
955.50 21.30845
955.60 21.36147
955.70 21.40918
955.80 21.4664
955.90 21.57435
956.00 21.62924
956.10 21.66446
956.20 21.71906
956.30 21.5502
956.40 21.3786
956.50 21.3176
956.60 21.40955
956.70 21.36436
956.80 21.31953
956.90 21.33413
957.00 21.51042
957.10 21.58888
957.20 21.61418
957.30 21.53979
957.40 21.26059
957.50 21.01224
957.60 20.85378
957.70 20.76874
957.80 20.73457
957.90 20.82405
958.00 20.95931
958.10 20.95817
958.20 21.01292
958.30 21.09933
958.40 21.19344
958.50 21.14939
958.60 21.15543
958.70 21.073
958.80 20.92039
958.90 20.7634
959.00 20.60458
959.10 20.42981
959.20 20.2601
959.30 20.35899
959.40 20.44194
959.50 20.39406
959.60 20.19874
959.70 20.14011
959.80 19.93917
959.90 19.66476
960.00 19.32613
960.10 19.36679
960.20 19.45196
960.30 19.63042
960.40 20.13145
960.50 20.56618
960.60 20.77926
960.70 20.84248
960.80 20.9386
960.90 20.89416
961.00 20.85069
961.10 20.86987
961.20 20.80192
961.30 20.71833
961.40 20.66621
961.50 20.65711
961.60 20.67103
961.70 20.84746
961.80 21.08747
961.90 21.24861
962.00 21.35466
962.10 21.4504
962.20 21.4782
962.30 21.37131
962.40 21.32013
962.50 21.38734
962.60 21.53902
962.70 21.60901
962.80 21.53343
962.90 21.44465
963.00 21.4032
963.10 21.32978
963.20 21.2975
963.30 21.2315
963.40 21.15197
963.50 21.08264
963.60 20.70536
963.70 20.17612
963.80 19.69782
963.90 19.23361
964.00 18.76068
964.10 18.5921
964.20 19.1463
964.30 19.65535
964.40 19.9978
964.50 20.23093
964.60 20.5424
964.70 20.32341
964.80 20.05812
964.90 19.87814
965.00 19.89496
965.10 19.99268
965.20 20.14133
965.30 20.34515
965.40 20.49765
965.50 20.64919
965.60 20.80366
965.70 20.98957
965.80 21.12843
965.90 21.24371
966.00 21.34474
966.10 21.46181
966.20 21.56199
966.30 21.60555
966.40 21.61792
966.50 21.63567
966.60 21.5445
966.70 21.49068
966.80 21.52254
966.90 21.56458
967.00 21.52323
967.10 21.42339
967.20 21.3073
967.30 21.26391
967.40 20.91397
967.50 20.48608
967.60 20.12745
967.70 19.9531
967.80 19.77066
967.90 19.88038
968.00 20.47435
968.10 21.03009
968.20 21.31084
968.30 21.43171
968.40 21.61958
968.50 21.42842
968.60 21.21124
968.70 20.95805
968.80 20.61558
968.90 20.28521
969.00 20.20824
969.10 20.31269
969.20 20.3982
969.30 20.8161
969.40 21.27715
969.50 21.65014
969.60 21.8055
969.70 21.99905
969.80 22.12032
969.90 22.11921
970.00 22.06657
970.10 21.95788
970.20 21.80766
970.30 21.65224
970.40 21.18561
970.50 20.76657
970.60 20.46992
970.70 20.26802
970.80 20.0513
970.90 20.30871
971.00 20.90399
971.10 21.36275
971.20 21.72674
971.30 22.05916
971.40 22.36934
971.50 22.43717
971.60 22.48829
971.70 22.41155
971.80 22.20982
971.90 22.0533
972.00 21.86348
972.10 21.69567
972.20 21.59117
972.30 21.70765
972.40 21.78303
972.50 21.7676
972.60 21.65873
972.70 21.51343
972.80 21.11824
972.90 20.60358
973.00 20.22747
973.10 20.29211
973.20 20.34975
973.30 20.34375
973.40 20.59591
973.50 20.843
973.60 20.95668
973.70 20.95033
973.80 21.012
973.90 21.05946
974.00 21.12258
974.10 21.1808
974.20 21.03629
974.30 20.88375
974.40 20.73398
974.50 20.56282
974.60 20.37723
974.70 20.48708
974.80 20.70619
974.90 20.7677
975.00 20.82923
975.10 20.94451
975.20 21.11528
975.30 21.22856
975.40 21.27708
975.50 21.33122
975.60 21.37515
975.70 21.47827
975.80 21.54139
975.90 21.58424
976.00 21.55582
976.10 21.47341
976.20 21.42697
976.30 21.44556
976.40 21.50889
976.50 21.55675
976.60 21.64694
976.70 21.72815
976.80 21.80398
976.90 21.51457
977.00 21.23788
977.10 21.001
977.20 20.81403
977.30 20.64905
977.40 20.83383
977.50 21.19703
977.60 21.42323
977.70 21.516
977.80 21.61018
977.90 21.67677
978.00 21.51504
978.10 21.35114
978.20 21.00284
978.30 20.44246
978.40 19.964
978.50 19.77053
978.60 19.63789
978.70 19.39456
978.80 19.51063
978.90 19.71733
979.00 20.04379
979.10 20.52963
979.20 20.91305
979.30 21.30604
979.40 21.68491
979.50 22.07471
979.60 22.0565
979.70 22.06992
979.80 22.17199
979.90 22.22411
980.00 22.19026
980.10 22.14647
980.20 22.12646
980.30 22.12744
980.40 22.0668
980.50 21.9983
980.60 21.93262
980.70 21.86168
980.80 21.78423
980.90 21.76979
981.00 21.82425
981.10 21.87783
981.20 21.86778
981.30 21.82006
981.40 21.76159
981.50 21.52695
981.60 21.32371
981.70 21.25957
981.80 21.36638
981.90 21.39206
982.00 21.42147
982.10 21.43914
982.20 21.51081
982.30 21.54403
982.40 21.57602
982.50 21.61196
982.60 21.69515
982.70 21.74802
982.80 21.73009
982.90 21.64974
983.00 21.62471
983.10 21.54608
983.20 21.45437
983.30 21.36013
983.40 21.33015
983.50 21.2992
983.60 21.25527
983.70 21.20478
983.80 21.18518
983.90 21.31201
984.00 21.49549
984.10 21.6133
984.20 21.69036
984.30 21.7721
984.40 21.81294
984.50 21.7494
984.60 21.66679
984.70 21.69813
984.80 21.78161
984.90 21.86154
985.00 21.77325
985.10 21.67853
985.20 21.63429
985.30 21.59322
985.40 21.53432
985.50 21.60555
985.60 21.82676
985.70 21.994
985.80 21.99392
985.90 21.94984
986.00 21.96157
986.10 21.94494
986.20 21.92226
986.30 21.9185
986.40 21.96755
986.50 21.98482
986.60 21.93959
986.70 21.85647
986.80 21.8673
986.90 21.75395
987.00 21.62791
987.10 21.55981
987.20 21.70706
987.30 21.77023
987.40 21.85647
987.50 21.95717
987.60 22.10904
987.70 22.04404
987.80 21.93691
987.90 21.85319
988.00 21.70526
988.10 21.57254
988.20 21.59267
988.30 21.79006
988.40 21.93154
988.50 22.10937
988.60 22.2914
988.70 22.48056
988.80 22.45241
988.90 22.41757
989.00 22.36176
989.10 22.24776
989.20 22.14052
989.30 21.93627
989.40 21.64636
989.50 21.38144
989.60 20.69122
989.70 19.9632
989.80 19.37335
989.90 18.99254
990.00 18.55669
990.10 18.23609
990.20 18.06668
990.30 17.89601
990.40 17.42428
990.50 16.86844
990.60 16.36801
990.70 16.04601
990.80 15.73317
990.90 15.61374
991.00 15.76962
991.10 15.89642
991.20 15.9773
991.30 16.0172
991.40 16.07685
991.50 15.82096
991.60 15.5687
991.70 15.46169
991.80 15.67295
991.90 15.84464
992.00 16.10637
992.10 16.42012
992.20 16.7735
992.30 16.63068
992.40 16.41957
992.50 16.31533
992.60 16.36369
992.70 16.33955
992.80 16.49849
992.90 16.92583
993.00 17.36907
993.10 17.68473
993.20 17.93073
993.30 18.18724
993.40 17.90231
993.50 17.61756
993.60 17.56213
993.70 17.89388
993.80 18.1781
993.90 18.60286
994.00 19.06488
994.10 19.52886
994.20 19.54742
994.30 19.53741
994.40 19.53446
994.50 19.38214
994.60 19.25065
994.70 19.27299
994.80 19.42034
994.90 19.48959
995.00 19.67791
995.10 19.91094
995.20 20.16943
995.30 20.33666
995.40 20.46585
995.50 20.40493
995.60 20.11643
995.70 19.91522
995.80 19.715
995.90 19.5289
996.00 19.30126
996.10 19.30564
996.20 19.31387
996.30 19.45665
996.40 19.89403
996.50 20.30308
996.60 20.57944
996.70 20.73436
996.80 20.97015
996.90 20.313
997.00 19.60703
997.10 19.05996
997.20 18.68685
997.30 18.26752
997.40 18.20193
997.50 18.48509
997.60 18.67443
997.70 18.98592
997.80 19.30069
997.90 19.57418
998.00 19.75777
998.10 19.94442
998.20 19.95412
998.30 19.72285
998.40 19.58822
998.50 19.39531
998.60 19.18605
998.70 18.96057
998.80 19.02317
998.90 19.0753
999.00 19.04665
999.10 18.96092
999.20 18.92109
999.30 19.0545
999.40 19.28652
999.50 19.42706
999.60 19.39038
999.70 19.35097
999.80 19.38163
999.90 19.5325
1000.00 19.62288
1000.10 19.86472
1000.20 20.22856
1000.30 20.58312
1000.40 20.71502
1000.50 20.80207
1000.60 20.90161
1000.70 20.64629
1000.80 20.40737
1000.90 20.10611
1001.00 19.7196
1001.10 19.38728
1001.20 19.39712
1001.30 19.55535
1001.40 19.60598
1001.50 20.00507
1001.60 20.40082
1001.70 20.72052
1001.80 20.90639
1001.90 21.1106
1002.00 21.04431
1002.10 20.82958
1002.20 20.6781
1002.30 20.81422
1002.40 20.94946
1002.50 21.00775
1002.60 21.02677
1002.70 21.07929
1002.80 20.93955
1002.90 20.65238
1003.00 20.43722
1003.10 20.41057
1003.20 20.42232
1003.30 20.38049
1003.40 20.17345
1003.50 19.96683
1003.60 19.80341
1003.70 19.69186
1003.80 19.62542
1003.90 19.86143
1004.00 20.20149
1004.10 20.40366
1004.20 20.72363
1004.30 21.02925
1004.40 21.23198
1004.50 21.2457
1004.60 21.35995
1004.70 21.2622
1004.80 21.02471
1004.90 20.83367
1005.00 20.30776
1005.10 19.75647
1005.20 19.2673
1005.30 18.8772
1005.40 18.44816
1005.50 18.26664
1005.60 18.31772
1005.70 18.31329
1005.80 18.59417
1005.90 18.92287
1006.00 19.18572
1006.10 19.37051
1006.20 19.59923
1006.30 19.72902
1006.40 19.71238
1006.50 19.70804
1006.60 19.97008
1006.70 20.33554
1006.80 20.61582
1006.90 20.83197
1007.00 21.07793
1007.10 21.15392
1007.20 20.86623
1007.30 20.61324
1007.40 20.64062
1007.50 20.82908
1007.60 20.92581
1007.70 21.18379
1007.80 21.44052
1007.90 21.5958
1008.00 21.50951
1008.10 21.45766
1008.20 21.46708
1008.30 21.51319
1008.40 21.59802
1008.50 21.75272
1008.60 21.89871
1008.70 21.92738
1008.80 21.57815
1008.90 21.29745
1009.00 21.04744
1009.10 20.78791
1009.20 20.54372
1009.30 20.59404
1009.40 20.74981
1009.50 20.79852
1009.60 21.07156
1009.70 21.34693
1009.80 21.65498
1009.90 22.01358
1010.00 22.37516
1010.10 22.69025
1010.20 22.96284
1010.30 23.20455
1010.40 23.02333
1010.50 22.82822
1010.60 22.6816
1010.70 22.43223
1010.80 22.16893
1010.90 21.88814
1011.00 21.57863
1011.10 21.31669
1011.20 21.06295
1011.30 20.81798
1011.40 20.5809
1011.50 20.55499
1011.60 20.51818
1011.70 20.45592
1011.80 20.38771
1011.90 20.33034
1012.00 20.62648
1012.10 21.06863
1012.20 21.38801
1012.30 21.6951
1012.40 22.0043
1012.50 22.21626
1012.60 22.18757
1012.70 22.25287
1012.80 22.27189
1012.90 22.29595
1013.00 22.23433
1013.10 22.17644
1013.20 22.13318
1013.30 22.02475
1013.40 21.52803
1013.50 21.0869
1013.60 20.61347
1013.70 20.14191
1013.80 19.65075
1013.90 19.72187
1014.00 19.90173
1014.10 20.01495
1014.20 20.40475
1014.30 20.77519
1014.40 20.94099
1014.50 20.85561
1014.60 20.85004
1014.70 20.66289
1014.80 20.4337
1014.90 20.27185
1015.00 20.69376
1015.10 21.03465
1015.20 21.23288
1015.30 21.38046
1015.40 21.61573
1015.50 21.42182
1015.60 20.95911
1015.70 20.64616
1015.80 20.46742
1015.90 20.31418
1016.00 20.20268
1016.10 20.405
1016.20 20.57098
1016.30 20.66784
1016.40 20.71813
1016.50 20.81797
1016.60 21.04182
1016.70 21.28869
1016.80 21.44035
1016.90 21.22658
1017.00 21.03002
1017.10 20.83385
1017.20 20.64337
1017.30 20.47935
1017.40 20.85561
1017.50 21.44247
1017.60 21.89984
1017.70 21.90452
1017.80 21.9198
1017.90 21.82292
1018.00 21.40189
1018.10 21.01002
1018.20 20.83186
1018.30 20.74695
1018.40 20.5746
1018.50 20.3589
1018.60 20.16077
1018.70 20.07293
1018.80 20.30405
1018.90 20.47618
1019.00 20.74798
1019.10 21.09436
1019.20 21.44994
1019.30 21.50016
1019.40 21.49459
1019.50 21.52863
1019.60 21.55557
1019.70 21.56606
1019.80 21.54108
1019.90 21.45977
1020.00 21.38726
1020.10 21.29828
1020.20 21.21085
1020.30 21.11083
1020.40 21.2114
1020.50 21.32722
1020.60 21.45748
1020.70 21.62031
1020.80 21.77989
1020.90 21.80247
1021.00 21.73685
1021.10 21.67653
1021.20 21.40287
1021.30 21.1242
1021.40 20.88743
1021.50 20.65296
1021.60 20.4272
1021.70 20.23704
1021.80 20.06138
1021.90 19.84154
1022.00 19.75151
1022.10 19.71113
1022.20 19.73459
1022.30 20.15228
1022.40 20.49393
1022.50 20.7771
1022.60 20.99656
1022.70 21.28581
1022.80 21.35659
1022.90 21.34392
1023.00 21.32959
1023.10 21.17434
1023.20 21.03928
1023.30 20.99958
1023.40 21.06142
1023.50 21.03429
1023.60 21.19872
1023.70 21.42936
1023.80 21.6472
1023.90 21.7159
1024.00 21.8052
1024.10 21.95928
1024.20 22.12911
1024.30 22.28029
1024.40 22.16498
1024.50 21.90395
1024.60 21.79167
1024.70 21.68671
1024.80 21.55166
1024.90 21.35663
1025.00 21.16588
1025.10 21.00225
1025.20 20.79309
1025.30 20.55608
1025.40 20.32255
1025.50 20.44214
1025.60 20.62746
1025.70 20.66742
1025.80 20.42552
1025.90 20.26062
1026.00 20.02395
1026.10 19.62416
1026.20 19.21026
1026.30 19.15749
1026.40 19.26454
1026.50 19.29235
1026.60 19.81949
1026.70 20.28543
1026.80 20.6775
1026.90 21.03492
1027.00 21.46443
1027.10 21.53829
1027.20 21.42433
1027.30 21.39769
1027.40 21.12547
1027.50 20.83339
1027.60 20.58594
1027.70 20.51165
1027.80 20.40542
1027.90 20.32975
1028.00 20.24493
1028.10 20.19975
1028.20 19.95653
1028.30 19.68182
1028.40 19.46925
1028.50 19.65068
1028.60 19.75913
1028.70 20.05863
1028.80 20.60639
1028.90 21.09514
1029.00 21.14436
1029.10 21.05609
1029.20 21.12175
1029.30 21.00138
1029.40 20.86043
1029.50 20.81077
1029.60 20.90523
1029.70 20.93383
1029.80 20.8361
1029.90 20.68685
1030.00 20.59656
1030.10 20.54524
1030.20 20.5237
1030.30 20.57306
1030.40 20.79992
1030.50 20.92437
1030.60 21.09682
1030.70 21.27385
1030.80 21.50275
1030.90 21.36052
1031.00 21.21408
1031.10 21.19442
1031.20 21.37347
1031.30 21.4692
1031.40 21.52707
1031.50 21.55617
1031.60 21.62026
1031.70 21.37403
1031.80 21.06648
1031.90 20.85307
1032.00 20.87104
1032.10 20.8407
1032.20 20.73174
1032.30 20.55732
1032.40 20.45026
1032.50 20.43407
1032.60 20.47833
1032.70 20.47105
1032.80 20.93865
1032.90 21.4041
1033.00 21.80036
1033.10 22.14483
1033.20 22.51208
1033.30 22.52643
1033.40 22.32954
1033.50 22.21576
1033.60 21.67478
1033.70 21.12497
1033.80 20.6996
1033.90 20.51815
1034.00 20.25495
1034.10 20.08362
1034.20 19.96146
1034.30 19.75203
1034.40 19.39331
1034.50 19.0558
1034.60 18.85351
1034.70 19.17193
1034.80 19.47034
1034.90 19.73633
1035.00 19.9616
1035.10 20.30078
1035.20 20.414
1035.30 20.44396
1035.40 20.43853
1035.50 20.63109
1035.60 20.82979
1035.70 21.0471
1035.80 21.32354
1035.90 21.58523
1036.00 21.86487
1036.10 22.12885
1036.20 22.33296
1036.30 22.3154
1036.40 22.29535
1036.50 22.29645
1036.60 22.26703
1036.70 22.24314
1036.80 22.28784
1036.90 22.37411
1037.00 22.41422
1037.10 22.62457
1037.20 22.86365
1037.30 23.04572
1037.40 23.02344
1037.50 23.01474
1037.60 22.78697
1037.70 22.36645
1037.80 22.05352
1037.90 21.60954
1038.00 21.13612
1038.10 20.69953
1038.20 20.67813
1038.30 20.59029
1038.40 20.71102
1038.50 21.11937
1038.60 21.47729
1038.70 21.63383
1038.80 21.69549
1038.90 21.80056
1039.00 21.6554
1039.10 21.52504
1039.20 21.41131
1039.30 21.29155
1039.40 21.14065
1039.50 20.93161
1039.60 20.69277
1039.70 20.47842
1039.80 20.55452
1039.90 20.66439
1040.00 20.80789
1040.10 21.17637
1040.20 21.5371
1040.30 21.85664
1040.40 22.10663
1040.50 22.37733
1040.60 22.49582
1040.70 22.58286
1040.80 22.66303
1040.90 22.56892
1041.00 22.47761
1041.10 22.20476
1041.20 21.74306
1041.30 21.37018
1041.40 21.24422
1041.50 21.17287
1041.60 21.13083
1041.70 21.69631
1041.80 22.2035
1041.90 22.54956
1042.00 22.71697
1042.10 22.98864
1042.20 22.77905
1042.30 22.39585
1042.40 22.09651
1042.50 21.69193
1042.60 21.30494
1042.70 20.95803
1042.80 20.69851
1042.90 20.38796
1043.00 20.51686
1043.10 20.88908
1043.20 21.10316
1043.30 21.65518
1043.40 22.24743
1043.50 22.72517
1043.60 22.7659
1043.70 22.89261
1043.80 22.90855
1043.90 22.8461
1044.00 22.74223
1044.10 22.72239
1044.20 22.72672
1044.30 22.73679
1044.40 22.77518
1044.50 22.81003
1044.60 22.79676
1044.70 22.70975
1044.80 22.60743
1044.90 22.747
1045.00 22.9726
1045.10 23.17675
1045.20 23.46724
1045.30 23.80179
1045.40 24.06999
1045.50 24.17097
1045.60 24.2647
1045.70 24.0865
1045.80 23.82168
1045.90 23.64094
1046.00 23.3009
1046.10 22.94018
1046.20 22.62723
1046.30 22.45541
1046.40 22.22635
1046.50 22.04222
1046.60 21.85208
1046.70 21.6965
1046.80 21.48114
1046.90 21.2559
1047.00 21.06368
1047.10 21.0533
1047.20 21.01147
1047.30 21.1061
1047.40 21.30971
1047.50 21.53415
1047.60 21.65037
1047.70 21.72391
1047.80 21.75486
1047.90 21.64887
1048.00 21.55362
1048.10 21.57347
1048.20 21.7457
1048.30 21.85639
1048.40 22.04031
1048.50 22.22838
1048.60 22.40621
1048.70 22.32712
1048.80 22.27649
1048.90 22.26475
1049.00 22.31003
1049.10 22.35542
1049.20 22.42792
1049.30 22.49499
1049.40 22.54747
1049.50 22.21813
1049.60 21.88351
1049.70 21.61495
1049.80 21.40887
1049.90 21.15286
1050.00 21.30598
1050.10 21.69124
1050.20 21.99236
1050.30 22.12261
1050.40 22.24112
1050.50 22.3454
1050.60 22.28016
1050.70 22.21305
1050.80 22.16285
1050.90 22.12922
1051.00 22.05362
1051.10 21.77196
1051.20 21.47429
1051.30 21.26121
1051.40 21.11241
1051.50 20.92904
1051.60 20.8931
1051.70 21.03901
1051.80 21.12253
1051.90 21.12293
1052.00 21.09692
1052.10 21.10144
1052.20 21.18309
1052.30 21.26994
1052.40 21.44993
1052.50 21.78209
1052.60 22.06285
1052.70 22.29283
1052.80 22.48367
1052.90 22.68428
1053.00 22.5515
1053.10 22.4024
1053.20 22.31611
1053.30 22.29653
1053.40 22.23547
1053.50 22.27612
1053.60 22.33917
1053.70 22.39606
1053.80 22.25092
1053.90 22.12288
1054.00 22.06431
1054.10 22.14311
1054.20 22.15124
1054.30 22.18625
1054.40 22.2041
1054.50 22.25023
1054.60 21.9918
1054.70 21.70047
1054.80 21.50308
1054.90 21.5351
1055.00 21.51331
1055.10 21.65759
1055.20 21.9927
1055.30 22.26623
1055.40 22.21676
1055.50 22.06493
1055.60 21.97756
1055.70 21.68165
1055.80 21.3882
1055.90 21.13678
1056.00 20.92631
1056.10 20.73335
1056.20 20.71546
1056.30 20.78934
1056.40 20.7849
1056.50 20.8849
1056.60 20.99746
1056.70 21.08889
1056.80 21.1096
1056.90 21.15686
1057.00 21.19153
1057.10 21.23313
1057.20 21.28045
1057.30 21.44267
1057.40 21.60097
1057.50 21.71835
1057.60 21.80288
1057.70 21.91416
1057.80 21.96058
1057.90 21.95646
1058.00 21.9809
1058.10 22.05086
1058.20 22.10879
1058.30 22.09917
1058.40 21.8007
1058.50 21.55162
1058.60 21.32366
1058.70 21.10966
1058.80 20.87945
1058.90 20.89847
1059.00 21.01475
1059.10 21.10463
1059.20 21.17582
1059.30 21.23818
1059.40 21.35949
1059.50 21.56574
1059.60 21.71859
1059.70 21.75311
1059.80 21.72373
1059.90 21.76524
1060.00 21.6188
1060.10 21.45997
1060.20 21.35324
1060.30 21.31781
1060.40 21.28925
1060.50 21.20508
1060.60 21.09049
1060.70 20.95769
1060.80 20.83729
1060.90 20.72562
1061.00 20.68803
1061.10 20.88046
1061.20 21.02728
1061.30 21.21496
1061.40 21.44611
1061.50 21.72343
1061.60 21.8078
1061.70 21.83264
1061.80 21.83884
1061.90 21.6641
1062.00 21.4952
1062.10 21.36823
1062.20 21.33776
1062.30 21.31197
1062.40 21.43392
1062.50 21.595
1062.60 21.71279
1062.70 22.01505
1062.80 22.30724
1062.90 22.50606
1063.00 22.52687
1063.10 22.59433
1063.20 22.49635
1063.30 22.33521
1063.40 22.22756
1063.50 22.27352
1063.60 22.27917
1063.70 22.2969
1063.80 22.40069
1063.90 22.47004
1064.00 22.55463
1064.10 22.6506
1064.20 22.77896
1064.30 22.71578
1064.40 22.64898
1064.50 22.6205
1064.60 22.64174
1064.70 22.64328
1064.80 22.63664
1064.90 22.61715
1065.00 22.57374
1065.10 22.48603
1065.20 22.39563
1065.30 22.2887
1065.40 21.99664
1065.50 21.73687
1065.60 21.62406
1065.70 21.66767
1065.80 21.65976
1065.90 21.65075
1066.00 21.61754
1066.10 21.53809
1066.20 21.1586
1066.30 20.83322
1066.40 20.66048
1066.50 20.68153
1066.60 20.64577
1066.70 20.75861
1066.80 20.90596
1066.90 21.04628
1067.00 20.99978
1067.10 20.94813
1067.20 21.02037
1067.30 21.32574
1067.40 21.57463
1067.50 21.81478
1067.60 22.02315
1067.70 22.22842
1067.80 22.24852
1067.90 22.27458
1068.00 22.3398
1068.10 22.47182
1068.20 22.64144
1068.30 22.89903
1068.40 23.15686
1068.50 23.39042
1068.60 23.50116
1068.70 23.57433
1068.80 23.59265
1068.90 23.47545
1069.00 23.36001
1069.10 23.29111
1069.20 23.27445
1069.30 23.24962
1069.40 23.04685
1069.50 22.80309
1069.60 22.57526
1069.70 22.43762
1069.80 22.2912
1069.90 22.26485
1070.00 22.32985
1070.10 22.3749
1070.20 22.27516
1070.30 22.12187
1070.40 22.01214
1070.50 22.1654
1070.60 22.29288
1070.70 22.41658
1070.80 22.5291
1070.90 22.66053
1071.00 22.5911
1071.10 22.45343
1071.20 22.35951
1071.30 22.54015
1071.40 22.69891
1071.50 22.78867
1071.60 22.7821
1071.70 22.86639
1071.80 22.86684
1071.90 22.83399
1072.00 22.80638
1072.10 22.81489
1072.20 22.81602
1072.30 22.73386
1072.40 22.44127
1072.50 22.18608
1072.60 22.05921
1072.70 22.02674
1072.80 21.89514
1072.90 22.02143
1073.00 22.21567
1073.10 22.37986
1073.20 22.33185
1073.30 22.29267
1073.40 22.18084
1073.50 22.04578
1073.60 21.88773
1073.70 22.00713
1073.80 22.22836
1073.90 22.44924
1074.00 22.67613
1074.10 22.85991
1074.20 22.97711
1074.30 22.97505
1074.40 23.06136
1074.50 22.99869
1074.60 22.84538
1074.70 22.65887
1074.80 22.53083
1074.90 22.42081
1075.00 22.29388
1075.10 22.19242
1075.20 22.18553
1075.30 22.202
1075.40 22.22654
1075.50 22.25004
1075.60 22.4287
1075.70 22.59351
1075.80 22.74891
1075.90 22.97334
1076.00 23.22196
1076.10 23.26818
1076.20 23.17697
1076.30 23.11334
1076.40 23.08414
1076.50 23.06257
1076.60 23.03293
1076.70 23.05607
1076.80 23.07303
1076.90 23.10923
1077.00 23.12579
1077.10 23.13892
1077.20 23.048
1077.30 22.91707
1077.40 22.77093
1077.50 22.52883
1077.60 22.34548
1077.70 22.28901
1077.80 22.36156
1077.90 22.3388
1078.00 22.4386
1078.10 22.57239
1078.20 22.69338
1078.30 22.64827
1078.40 22.62638
1078.50 22.65011
1078.60 22.68402
1078.70 22.72854
1078.80 22.62685
1078.90 22.46881
1079.00 22.34866
1079.10 22.2579
1079.20 22.15908
1079.30 22.05519
1079.40 21.97857
1079.50 21.86618
1079.60 21.93584
1079.70 22.1448
1079.80 22.33648
1079.90 22.46555
1080.00 22.56199
1080.10 22.63386
1080.20 22.67417
1080.30 22.76353
1080.40 22.83831
1080.50 22.88755
1080.60 22.88226
1080.70 22.96251
1080.80 23.06391
1080.90 23.162
1081.00 23.14679
1081.10 23.1419
1081.20 23.14147
1081.30 23.14545
1081.40 23.16564
1081.50 23.24763
1081.60 23.3428
1081.70 23.41352
1081.80 23.4047
1081.90 23.42792
1082.00 23.37129
1082.10 23.19341
1082.20 23.03135
1082.30 22.8598
1082.40 22.69868
1082.50 22.53271
1082.60 22.54058
1082.70 22.57826
1082.80 22.67417
1082.90 22.84561
1083.00 23.01978
1083.10 23.18958
1083.20 23.31416
1083.30 23.34681
1083.40 23.17916
1083.50 22.9618
1083.60 22.71449
1083.70 22.48751
1083.80 22.35794
1083.90 22.38923
1084.00 22.56739
1084.10 22.77542
1084.20 22.87879
1084.30 22.92612
1084.40 22.93192
1084.50 22.78936
1084.60 22.70781
1084.70 22.63154
1084.80 22.5988
1084.90 22.48393
1085.00 22.62839
1085.10 22.8189
1085.20 22.94954
1085.30 22.85365
1085.40 22.80955
1085.50 22.83322
1085.60 22.94503
1085.70 22.98087
1085.80 23.11679
1085.90 23.27577
1086.00 23.44735
1086.10 23.55863
1086.20 23.66626
1086.30 23.70486
1086.40 23.64898
1086.50 23.65506
1086.60 23.54408
1086.70 23.3864
1086.80 23.25031
1086.90 23.3336
1087.00 23.3936
1087.10 23.42584
1087.20 23.46016
1087.30 23.52448
1087.40 23.37121
1087.50 23.1254
1087.60 22.96973
1087.70 23.04596
1087.80 23.09746
1087.90 23.09696
1088.00 23.10048
1088.10 23.16464
1088.20 23.13945
1088.30 23.07551
1088.40 23.03
1088.50 23.11201
1088.60 23.19988
1088.70 23.20834
1088.80 23.08705
1088.90 23.05052
1089.00 23.08022
1089.10 23.18362
1089.20 23.23904
1089.30 23.21761
1089.40 23.1428
1089.50 23.04795
1089.60 23.07055
1089.70 23.08926
1089.80 23.21352
1089.90 23.44444
1090.00 23.64082
1090.10 23.65588
1090.20 23.61453
1090.30 23.60931
1090.40 23.59644
1090.50 23.59229
1090.60 23.53812
1090.70 23.36643
1090.80 23.20814
1090.90 23.02655
1091.00 22.86259
1091.10 22.75359
1091.20 22.84631
1091.30 22.91285
1091.40 23.00883
1091.50 23.28631
1091.60 23.53297
1091.70 23.69354
1091.80 23.73645
1091.90 23.78879
1092.00 23.73189
1092.10 23.70283
1092.20 23.73029
1092.30 23.79272
1092.40 23.77197
1092.50 23.72226
1092.60 23.65816
1092.70 23.65288
1092.80 23.67717
1092.90 23.70543
1093.00 23.70654
1093.10 23.6428
1093.20 23.58201
1093.30 23.54143
1093.40 23.52477
1093.50 23.53922
1093.60 23.54228
1093.70 23.53751
1093.80 23.53044
1093.90 23.70796
1094.00 23.82304
1094.10 23.92441
1094.20 24.0058
1094.30 24.09646
1094.40 23.81487
1094.50 23.41763
1094.60 23.09213
1094.70 23.13763
1094.80 23.15769
1094.90 23.28442
1095.00 23.55928
1095.10 23.81509
1095.20 24.05902
1095.30 24.29837
1095.40 24.50979
1095.50 24.39582
1095.60 24.29136
1095.70 24.19481
1095.80 24.09348
1095.90 23.98129
1096.00 23.99583
1096.10 24.08583
1096.20 24.17272
1096.30 24.21019
1096.40 24.22929
1096.50 24.21843
1096.60 24.08137
1096.70 23.93458
1096.80 23.66137
1096.90 23.29348
1097.00 23.01595
1097.10 22.90582
1097.20 22.81942
1097.30 22.76897
1097.40 23.01622
1097.50 23.21509
1097.60 23.34489
1097.70 23.42474
1097.80 23.51253
1097.90 23.58374
1098.00 23.64681
1098.10 23.68862
1098.20 23.54945
1098.30 23.46735
1098.40 23.41482
1098.50 23.34364
1098.60 23.24342
1098.70 23.17326
1098.80 23.12585
1098.90 23.06287
1099.00 23.13721
1099.10 23.21809
1099.20 23.3477
1099.30 23.56829
1099.40 23.71749
1099.50 23.72294
1099.60 23.64808
1099.70 23.66435
1099.80 23.64043
1099.90 23.59396
1100.00 23.51511
1100.10 23.41539
1100.20 23.33611
1100.30 23.2166
1100.40 23.06564
1100.50 22.93666
1100.60 22.97461
1100.70 23.02605
1100.80 23.06066
1100.90 23.19893
1101.00 23.37452
1101.10 23.43551
1101.20 23.39269
1101.30 23.34414
1101.40 23.50491
1101.50 23.70183
1101.60 23.81338
1101.70 23.59834
1101.80 23.43653
1101.90 23.19526
1102.00 22.82067
1102.10 22.41677
1102.20 22.11777
1102.30 21.87525
1102.40 21.67961
1102.50 22.03913
1102.60 22.30985
1102.70 22.62046
1102.80 22.98873
1102.90 23.38227
1103.00 23.47353
1103.10 23.38317
1103.20 23.28611
1103.30 22.76484
1103.40 22.29644
1103.50 21.95316
1103.60 21.80181
1103.70 21.5846
1103.80 21.70831
1103.90 22.00082
1104.00 22.2772
1104.10 22.37114
1104.20 22.41487
1104.30 22.37141
1104.40 22.24834
1104.50 22.18768
1104.60 22.24932
1104.70 22.39299
1104.80 22.60584
1104.90 22.70294
1105.00 22.70457
1105.10 22.56514
1105.20 22.13804
1105.30 21.8118
1105.40 21.64319
1105.50 21.58971
1105.60 21.47447
1105.70 21.55495
1105.80 21.65675
1105.90 21.71314
1106.00 21.79337
1106.10 21.91531
1106.20 21.97056
1106.30 21.95237
1106.40 21.91554
1106.50 21.94005
1106.60 22.00313
1106.70 22.08501
1106.80 21.89287
1106.90 21.72136
1107.00 21.59464
1107.10 21.60155
1107.20 21.58612
1107.30 21.75213
1107.40 21.96723
1107.50 22.09003
1107.60 21.98678
1107.70 21.9578
1107.80 22.02367
1107.90 22.18598
1108.00 22.26768
1108.10 22.36811
1108.20 22.48551
1108.30 22.60677
1108.40 22.67315
1108.50 22.72378
1108.60 22.74326
1108.70 22.72052
1108.80 22.77173
1108.90 22.78182
1109.00 22.77778
1109.10 22.79882
1109.20 22.86623
1109.30 22.90155
1109.40 22.88934
1109.50 22.93342
1109.60 22.99526
1109.70 23.03585
1109.80 23.04782
1109.90 23.10089
1110.00 22.98039
1110.10 22.8533
1110.20 22.76674
1110.30 22.5851
1110.40 22.37728
1110.50 22.24739
1110.60 22.23957
1110.70 22.10943
1110.80 22.15547
1110.90 22.25783
1111.00 22.36685
1111.10 22.23781
1111.20 22.12483
1111.30 22.04411
1111.40 21.9889
1111.50 21.85014
1111.60 21.76527
1111.70 21.73548
1111.80 21.74372
1111.90 21.73851
1112.00 21.74165
1112.10 21.74741
1112.20 21.76818
1112.30 21.78885
1112.40 21.90699
1112.50 22.08012
1112.60 22.25081
1112.70 22.46579
1112.80 22.64274
1112.90 22.76144
1113.00 22.8107
1113.10 22.88156
1113.20 22.86891
1113.30 22.82902
1113.40 22.84231
1113.50 22.75031
1113.60 22.67466
1113.70 22.65206
1113.80 22.6047
1113.90 22.43014
1114.00 22.40115
1114.10 22.48402
1114.20 22.54855
1114.30 22.74673
1114.40 22.9521
1114.50 23.09659
1114.60 23.06117
1114.70 23.16795
1114.80 23.21349
1114.90 23.18133
1115.00 23.10436
1115.10 23.13772
1115.20 23.16453
1115.30 23.11495
1115.40 23.01297
1115.50 23.0063
1115.60 22.95388
1115.70 22.76881
1115.80 22.55615
1115.90 22.46458
1116.00 22.44304
1116.10 22.44677
1116.20 22.54183
1116.30 22.61193
1116.40 22.6266
1116.50 22.51924
1116.60 22.29349
1116.70 22.12326
1116.80 22.04928
1116.90 22.16103
1117.00 22.12015
1117.10 22.04737
1117.20 21.99
1117.30 21.92678
1117.40 21.7806
1117.50 21.80833
1117.60 21.86337
1117.70 21.89498
1117.80 21.96152
1117.90 22.04893
1118.00 22.07733
1118.10 22.17204
1118.20 22.36085
1118.30 22.5746
1118.40 22.76032
1118.50 22.81644
1118.60 22.84166
1118.70 22.93955
1118.80 22.89625
1118.90 22.80133
1119.00 22.66291
1119.10 22.53376
1119.20 22.40457
1119.30 22.31105
1119.40 22.25183
1119.50 22.26305
1119.60 22.31073
1119.70 22.37972
1119.80 22.50022
1119.90 22.59367
1120.00 22.68058
1120.10 22.72797
1120.20 22.77624
1120.30 22.8273
1120.40 22.90455
1120.50 22.93119
1120.60 22.93287
1120.70 22.88456
1120.80 22.76829
1120.90 22.74129
1121.00 22.69616
1121.10 22.66751
1121.20 22.59692
1121.30 22.54849
1121.40 22.54222
1121.50 22.54931
1121.60 22.54064
1121.70 22.46873
1121.80 22.37399
1121.90 22.27604
1122.00 22.24795
1122.10 22.28477
1122.20 22.29972
1122.30 22.3423
1122.40 22.3668
1122.50 22.30393
1122.60 22.30347
1122.70 22.41156
1122.80 22.59635
1122.90 22.85271
1123.00 22.92845
1123.10 22.93847
1123.20 22.8802
1123.30 22.70649
1123.40 22.41325
1123.50 22.06432
1123.60 21.8628
1123.70 22.06973
1123.80 22.24969
1123.90 22.45104
1124.00 22.58646
1124.10 22.71335
1124.20 22.8244
1124.30 22.89208
1124.40 22.9387
1124.50 22.95846
1124.60 22.94563
1124.70 22.84974
1124.80 22.86324
1124.90 22.78008
1125.00 22.57576
1125.10 22.41272
1125.20 22.42413
1125.30 22.61615
1125.40 22.67736
1125.50 22.32933
1125.60 22.06749
1125.70 21.86295
1125.80 22.18157
1125.90 22.40564
1126.00 22.53664
1126.10 22.56099
1126.20 22.54976
1126.30 22.56309
1126.40 22.57951
1126.50 22.61729
1126.60 22.69527
1126.70 22.78427
1126.80 22.86965
1126.90 22.92026
1127.00 22.94974
1127.10 22.97552
1127.20 22.978
1127.30 22.90127
1127.40 22.76623
1127.50 22.59493
1127.60 22.43433
1127.70 22.32843
1127.80 22.2948
1127.90 22.36996
1128.00 22.47347
1128.10 22.59066
1128.20 22.68964
1128.30 22.76835
1128.40 22.77254
1128.50 22.78987
1128.60 22.82019
1128.70 22.90832
1128.80 22.98262
1128.90 22.98152
1129.00 22.96951
1129.10 22.93913
1129.20 22.88068
1129.30 22.79743
1129.40 22.69446
1129.50 22.69373
1129.60 22.77568
1129.70 22.84593
1129.80 22.92613
1129.90 22.99125
1130.00 23.13774
1130.10 23.22908
1130.20 22.9957
1130.30 22.79631
1130.40 22.60885
1130.50 22.4735
1130.60 22.35129
1130.70 22.2128
1130.80 22.21057
1130.90 22.323
1131.00 22.40032
1131.10 22.51961
1131.20 22.66631
1131.30 22.77355
1131.40 22.86398
1131.50 22.89717
1131.60 22.9443
1131.70 23.00446
1131.80 23.01855
1131.90 23.0201
1132.00 23.04112
1132.10 23.02584
1132.20 22.98698
1132.30 22.90789
1132.40 22.83962
1132.50 22.80143
1132.60 22.79897
1132.70 22.79622
1132.80 22.80241
1132.90 22.81862
1133.00 22.84773
1133.10 22.81477
1133.20 22.74134
1133.30 22.5982
1133.40 22.46793
1133.50 22.3528
1133.60 22.32239
1133.70 22.28069
1133.80 22.23623
1133.90 22.22857
1134.00 22.23677
1134.10 22.23579
1134.20 22.20972
1134.30 22.23
1134.40 22.29438
1134.50 22.33567
1134.60 22.30349
1134.70 22.40728
1134.80 22.62626
1134.90 22.53425
1135.00 22.34819
1135.10 21.93809
1135.20 21.99465
1135.30 22.15275
1135.40 22.22417
1135.50 22.23473
1135.60 22.08917
1135.70 21.98118
1135.80 21.86257
1135.90 21.74761
1136.00 21.81274
1136.10 21.96444
1136.20 22.06129
1136.30 22.06624
1136.40 21.8903
1136.50 21.83695
1136.60 21.77557
1136.70 21.68029
1136.80 21.58032
1136.90 21.47001
1137.00 21.39236
1137.10 21.31832
1137.20 21.22857
1137.30 21.06705
1137.40 20.8406
1137.50 20.5507
1137.60 20.19756
1137.70 19.59014
1137.80 19.05442
1137.90 18.4118
1138.00 17.38541
1138.10 16.34503
1138.20 15.32502
1138.30 14.93695
1138.40 14.73655
1138.50 14.63832
1138.60 15.15565
1138.70 16.34158
1138.80 17.49424
1138.90 18.55055
1139.00 19.14204
1139.10 19.7018
1139.20 20.12269
1139.30 20.10398
1139.40 20.10235
1139.50 20.09052
1139.60 19.91101
1139.70 19.6752
1139.80 19.40302
1139.90 18.96389
1140.00 18.29564
1140.10 17.64753
1140.20 16.80313
1140.30 15.60985
1140.40 14.45572
1140.50 13.32923
1140.60 13.12
1140.70 12.91903
1140.80 12.88827
1140.90 13.8393
1141.00 15.127
1141.10 16.4561
1141.20 17.59866
1141.30 18.47526
1141.40 19.23639
1141.50 19.90146
1141.60 20.29422
1141.70 20.75416
1141.80 21.1245
1141.90 21.27941
1142.00 21.38477
1142.10 21.43312
1142.20 21.39627
1142.30 21.34897
1142.40 21.40718
1142.50 21.48894
1142.60 21.61898
1142.70 21.74955
1142.80 21.89438
1142.90 22.01327
1143.00 22.14204
1143.10 22.23092
1143.20 22.258
1143.30 22.28287
1143.40 22.32716
1143.50 22.37494
1143.60 22.41355
1143.70 22.36495
1143.80 22.22604
1143.90 21.97322
1144.00 21.69309
1144.10 21.49419
1144.20 21.46177
1144.30 21.47367
1144.40 21.49602
1144.50 21.52528
1144.60 21.59635
1144.70 21.69662
1144.80 21.81971
1144.90 21.93988
1145.00 22.0044
1145.10 22.06267
1145.20 22.09466
1145.30 22.14991
1145.40 22.17623
1145.50 22.18784
1145.60 22.19683
1145.70 22.20458
1145.80 22.22515
1145.90 22.23586
1146.00 22.25482
1146.10 22.33417
1146.20 22.43818
1146.30 22.55096
1146.40 22.66012
1146.50 22.76982
1146.60 22.8137
1146.70 22.837
1146.80 22.72738
1146.90 22.67761
1147.00 22.58903
1147.10 22.43339
1147.20 22.2476
1147.30 22.06496
1147.40 22.04065
1147.50 22.08908
1147.60 22.30084
1147.70 22.52457
1147.80 22.75998
1147.90 22.85626
1148.00 22.9035
1148.10 22.90675
1148.20 22.92183
1148.30 22.91853
1148.40 22.75548
1148.50 22.54771
1148.60 22.33135
1148.70 22.33246
1148.80 22.41726
1148.90 22.51767
1149.00 22.59588
1149.10 22.64319
1149.20 22.83258
1149.30 22.92714
1149.40 22.91957
1149.50 22.80093
1149.60 22.70501
1149.70 22.72561
1149.80 22.72831
1149.90 22.72219
1150.00 22.65043
1150.10 22.59813
1150.20 22.66576
1150.30 22.72332
1150.40 22.79822
1150.50 22.76529
1150.60 22.77652
1150.70 22.85177
1150.80 22.891
1150.90 22.92771
1151.00 22.90621
1151.10 22.90423
1151.20 22.90422
1151.30 22.8691
1151.40 22.84161
1151.50 22.86414
1151.60 22.88423
1151.70 22.91942
1151.80 22.90902
1151.90 22.93236
1152.00 22.96743
1152.10 22.98474
1152.20 22.9485
1152.30 22.75554
1152.40 22.59159
1152.50 22.46754
1152.60 22.45302
1152.70 22.46445
1152.80 22.44594
1152.90 22.45191
1153.00 22.46484
1153.10 22.51666
1153.20 22.5369
1153.30 22.54931
1153.40 22.52771
1153.50 22.50493
1153.60 22.5714
1153.70 22.61739
1153.80 22.66896
1153.90 22.74903
1154.00 22.83335
1154.10 22.90441
1154.20 22.90222
1154.30 22.83181
1154.40 22.87121
1154.50 22.84796
1154.60 22.72049
1154.70 22.59797
1154.80 22.46008
1154.90 22.49037
1155.00 22.47959
1155.10 22.45903
1155.20 22.5167
1155.30 22.6146
1155.40 22.74652
1155.50 22.8653
1155.60 22.96746
1155.70 22.99812
1155.80 23.01903
1155.90 22.97608
1156.00 23.00292
1156.10 23.00053
1156.20 23.00953
1156.30 22.9933
1156.40 22.97757
1156.50 22.98478
1156.60 22.99858
1156.70 23.02441
1156.80 22.9636
1156.90 22.8425
1157.00 22.7547
1157.10 22.69222
1157.20 22.71279
1157.30 22.68062
1157.40 22.6678
1157.50 22.66241
1157.60 22.65173
1157.70 22.63669
1157.80 22.63935
1157.90 22.65233
1158.00 22.70403
1158.10 22.75773
1158.20 22.80935
1158.30 22.83796
1158.40 22.83453
1158.50 22.80433
1158.60 22.79202
1158.70 22.77313
1158.80 22.70034
1158.90 22.62934
1159.00 22.5582
1159.10 22.36308
1159.20 22.15024
1159.30 21.94665
1159.40 21.74509
1159.50 21.56257
1159.60 21.35721
1159.70 21.29481
1159.80 21.46394
1159.90 21.58197
1160.00 21.74285
1160.10 21.93078
1160.20 22.11507
1160.30 22.29441
1160.40 22.33706
1160.50 22.34485
1160.60 22.31648
1160.70 22.01082
1160.80 21.55965
1160.90 21.16616
1161.00 20.89375
1161.10 20.94532
1161.20 20.97663
1161.30 21.16275
1161.40 21.63887
1161.50 22.07816
1161.60 22.48955
1161.70 22.60683
1161.80 22.71361
1161.90 22.85911
1162.00 22.87506
1162.10 22.82845
1162.20 22.68226
1162.30 22.58856
1162.40 22.57714
1162.50 22.55363
1162.60 22.57172
1162.70 22.63858
1162.80 22.72284
1162.90 22.82859
1163.00 22.92101
1163.10 23.0009
1163.20 23.04809
1163.30 23.00479
1163.40 22.92583
1163.50 22.85946
1163.60 22.67548
1163.70 22.3158
1163.80 21.97539
1163.90 21.64864
1164.00 21.5068
1164.10 21.34236
1164.20 21.25365
1164.30 21.59052
1164.40 21.9419
1164.50 22.27671
1164.60 22.47231
1164.70 22.58381
1164.80 22.70083
1164.90 22.73392
1165.00 22.6847
1165.10 22.66511
1165.20 22.60681
1165.30 22.51064
1165.40 22.43123
1165.50 22.35847
1165.60 22.36971
1165.70 22.36379
1165.80 22.35326
1165.90 22.43413
1166.00 22.54432
1166.10 22.63217
1166.20 22.708
1166.30 22.77005
1166.40 22.86099
1166.50 22.90465
1166.60 22.90118
1166.70 22.90502
1166.80 22.89853
1166.90 22.77816
1167.00 22.67529
1167.10 22.61072
1167.20 22.57486
1167.30 22.53989
1167.40 22.46283
1167.50 22.39214
1167.60 22.33524
1167.70 22.27863
1167.80 22.23166
1167.90 22.22538
1168.00 22.22967
1168.10 22.23366
1168.20 22.12545
1168.30 22.03457
1168.40 21.95584
1168.50 21.70097
1168.60 21.39539
1168.70 21.09949
1168.80 20.45599
1168.90 19.38856
1169.00 18.40804
1169.10 17.49672
1169.20 17.12604
1169.30 16.61355
1169.40 16.34578
1169.50 17.35803
1169.60 18.33729
1169.70 19.26577
1169.80 20.02803
1169.90 20.7269
1170.00 21.41293
1170.10 21.82205
1170.20 22.0157
1170.30 22.25425
1170.40 22.39746
1170.50 22.40321
1170.60 22.48458
1170.70 22.55564
1170.80 22.52509
1170.90 22.5156
1171.00 22.50268
1171.10 22.49233
1171.20 22.48762
1171.30 22.50888
1171.40 22.53648
1171.50 22.55605
1171.60 22.5502
1171.70 22.49995
1171.80 22.38431
1171.90 22.29951
1172.00 22.2339
1172.10 22.22616
1172.20 22.19646
1172.30 22.1606
1172.40 22.17137
1172.50 22.18794
1172.60 22.19396
1172.70 22.24009
1172.80 22.32711
1172.90 22.42046
1173.00 22.50463
1173.10 22.54907
1173.20 22.62764
1173.30 22.67654
1173.40 22.60473
1173.50 22.53855
1173.60 22.46889
1173.70 22.43219
1173.80 22.37511
1173.90 22.29765
1174.00 22.28133
1174.10 22.30016
1174.20 22.32691
1174.30 22.36502
1174.40 22.42556
1174.50 22.53362
1174.60 22.62845
1174.70 22.62002
1174.80 22.61853
1174.90 22.59879
1175.00 22.51769
1175.10 22.43363
1175.20 22.36496
1175.30 22.3285
1175.40 22.30687
1175.50 22.26724
1175.60 22.27367
1175.70 22.35343
1175.80 22.40084
1175.90 22.39376
1176.00 22.27389
1176.10 22.19556
1176.20 22.12059
1176.30 22.00233
1176.40 21.88148
1176.50 21.78045
1176.60 21.43979
1176.70 20.96584
1176.80 20.47618
1176.90 19.59651
1177.00 18.28554
1177.10 17.07653
1177.20 15.86692
1177.30 15.10733
1177.40 14.28723
1177.50 13.63885
1177.60 14.48478
1177.70 15.36793
1177.80 16.18967
1177.90 17.24286
1178.00 18.37568
1178.10 19.37905
1178.20 20.0587
1178.30 20.32883
1178.40 20.65944
1178.50 20.88751
1178.60 20.99725
1178.70 21.18876
1178.80 21.39207
1178.90 21.55465
1179.00 21.73919
1179.10 21.94471
1179.20 22.01622
1179.30 22.04037
1179.40 22.02532
1179.50 21.97912
1179.60 21.90753
1179.70 21.8245
1179.80 21.75713
1179.90 21.73917
1180.00 21.78105
1180.10 21.8687
1180.20 22.01818
1180.30 22.13812
1180.40 22.21416
1180.50 22.2174
1180.60 22.20491
1180.70 22.20199
1180.80 22.15747
1180.90 22.09709
1181.00 22.0446
1181.10 21.99873
1181.20 21.95862
1181.30 21.93446
1181.40 21.92138
1181.50 21.90312
1181.60 21.85774
1181.70 21.80394
1181.80 21.81465
1181.90 21.84147
1182.00 21.84615
1182.10 21.8639
1182.20 21.89723
1182.30 21.98028
1182.40 21.97701
1182.50 21.83126
1182.60 21.69412
1182.70 21.51875
1182.80 21.26293
1182.90 21.00501
1183.00 20.76871
1183.10 20.81289
1183.20 20.91672
1183.30 21.04698
1183.40 21.1796
1183.50 21.30365
1183.60 21.42005
1183.70 21.47098
1183.80 21.45849
1183.90 21.4491
1184.00 21.48524
1184.10 21.73154
1184.20 21.91143
1184.30 22.07045
1184.40 22.09976
1184.50 22.12918
1184.60 22.18487
1184.70 22.07921
1184.80 21.90336
1184.90 21.75518
1185.00 21.6427
1185.10 21.62732
1185.20 21.59877
1185.30 21.61501
1185.40 21.76731
1185.50 21.87121
1185.60 21.97198
1185.70 21.98952
1185.80 21.98895
1185.90 21.98507
1186.00 21.98623
1186.10 22.00184
1186.20 22.05503
1186.30 22.10192
1186.40 22.12045
1186.50 22.1106
1186.60 22.05549
1186.70 21.92951
1186.80 21.84916
1186.90 21.77777
1187.00 21.7766
1187.10 21.76717
1187.20 21.75508
1187.30 21.81128
1187.40 21.8867
1187.50 21.90379
1187.60 21.88634
1187.70 21.80476
1187.80 21.81188
1187.90 21.7243
1188.00 21.41686
1188.10 21.08823
1188.20 20.68907
1188.30 20.01708
1188.40 19.37236
1188.50 18.78092
1188.60 18.78424
1188.70 18.96985
1188.80 19.18291
1188.90 19.64213
1189.00 20.31098
1189.10 20.90115
1189.20 21.35539
1189.30 21.40252
1189.40 21.52409
1189.50 21.62059
1189.60 21.72278
1189.70 21.82115
1189.80 21.90069
1189.90 21.96948
1190.00 22.0344
1190.10 22.06825
1190.20 22.02454
1190.30 21.92872
1190.40 21.88121
1190.50 21.82724
1190.60 21.75061
1190.70 21.65837
1190.80 21.57871
1190.90 21.6821
1191.00 21.75675
1191.10 21.84333
1191.20 21.89311
1191.30 21.93385
1191.40 21.96584
1191.50 21.96278
1191.60 21.94014
1191.70 21.92747
1191.80 21.91508
1191.90 21.91809
1192.00 21.9315
1192.10 21.96057
1192.20 21.93296
1192.30 21.91533
1192.40 21.88116
1192.50 21.83821
1192.60 21.78704
1192.70 21.73092
1192.80 21.74622
1192.90 21.79988
1193.00 21.84914
1193.10 21.89365
1193.20 21.91345
1193.30 21.92495
1193.40 21.90543
1193.50 21.76454
1193.60 21.67155
1193.70 21.56682
1193.80 21.41997
1193.90 21.2728
1194.00 21.14442
1194.10 21.12615
1194.20 21.15506
1194.30 21.12889
1194.40 21.10586
1194.50 21.0539
1194.60 21.02525
1194.70 20.93587
1194.80 20.70201
1194.90 20.50846
1195.00 20.32218
1195.10 20.36082
1195.20 20.37353
1195.30 20.38976
1195.40 20.58433
1195.50 20.81886
1195.60 21.0245
1195.70 21.10093
1195.80 21.00162
1195.90 21.02744
1196.00 20.97808
1196.10 20.89253
1196.20 20.80173
1196.30 20.71704
1196.40 20.72157
1196.50 20.7019
1196.60 20.66733
1196.70 20.66572
1196.80 20.67613
1196.90 20.67532
1197.00 20.45286
1197.10 20.04406
1197.20 19.63775
1197.30 19.15628
1197.40 18.62173
1197.50 18.13608
1197.60 17.73309
1197.70 18.05525
1197.80 18.30744
1197.90 18.59674
1198.00 18.94267
1198.10 19.28814
1198.20 19.59887
1198.30 19.85166
1198.40 20.06851
1198.50 20.23537
1198.60 20.38425
1198.70 20.4329
1198.80 20.5524
1198.90 20.5938
1199.00 20.35121
1199.10 20.16787
1199.20 19.99908
1199.30 19.95568
1199.40 19.91024
1199.50 19.839
1199.60 19.87522
1199.70 19.95404
1199.80 19.99911
1199.90 20.03382
1200.00 20.01912
