# Version 2.1 - nm, norm@500 to 1, cut digits
# Wavelength(nm)  Flambda(ergs/cm^s/s/nm)
300.00 0.008395532
300.10 0.01116756
300.20 0.01285186
300.30 0.01354335
300.40 0.01371946
300.50 0.01376801
300.60 0.01381839
300.70 0.01387062
300.80 0.01392638
300.90 0.01398952
301.00 0.01406442
301.10 0.01415302
301.20 0.01425326
301.30 0.01436046
301.40 0.01447039
301.50 0.01458084
301.60 0.01469128
301.70 0.0148017
301.80 0.01491211
301.90 0.01502253
302.00 0.01513294
302.10 0.01524335
302.20 0.01535377
302.30 0.01546418
302.40 0.01557458
302.50 0.01568498
302.60 0.01579536
302.70 0.01590615
302.80 0.01601899
302.90 0.01613713
303.00 0.01626411
303.10 0.01640148
303.20 0.01654769
303.30 0.01669919
303.40 0.01685276
303.50 0.01700673
303.60 0.01716068
303.70 0.01731462
303.80 0.01746856
303.90 0.01762249
304.00 0.01777643
304.10 0.01793036
304.20 0.0180843
304.30 0.01823824
304.40 0.0183922
304.50 0.01854618
304.60 0.01870021
304.70 0.01885302
304.80 0.0189995
304.90 0.01912981
305.00 0.0192331
305.10 0.01930456
305.20 0.01934901
305.30 0.01937729
305.40 0.01939923
305.50 0.01941996
305.60 0.01944073
305.70 0.01946153
305.80 0.01948235
305.90 0.01950316
306.00 0.01952398
306.10 0.0195448
306.20 0.01956562
306.30 0.01958644
306.40 0.01960726
306.50 0.01962808
306.60 0.0196489
306.70 0.01966972
306.80 0.01969056
306.90 0.01971143
307.00 0.01973236
307.10 0.01975336
307.20 0.01977441
307.30 0.01979551
307.40 0.01981661
307.50 0.01983772
307.60 0.01985883
307.70 0.01987994
307.80 0.01990105
307.90 0.01992216
308.00 0.01994326
308.10 0.01996437
308.20 0.01998548
308.30 0.02000657
308.40 0.02002763
308.50 0.02004862
308.60 0.0200695
308.70 0.02009343
308.80 0.02013319
308.90 0.02021344
309.00 0.0203613
309.10 0.02058881
309.20 0.02088394
309.30 0.02121955
309.40 0.021571
309.50 0.02192549
309.60 0.02227987
309.70 0.02263419
309.80 0.02298847
309.90 0.02334274
310.00 0.023697
310.10 0.02405127
310.20 0.02440554
310.30 0.02475982
310.40 0.02511413
310.50 0.02546852
310.60 0.02582301
310.70 0.02617444
310.80 0.02650996
310.90 0.02680477
311.00 0.02703162
311.10 0.02717839
311.20 0.0272572
311.30 0.0272953
311.40 0.02731749
311.50 0.02733661
311.60 0.02735585
311.70 0.02737515
311.80 0.02739449
311.90 0.02741384
312.00 0.02743319
312.10 0.02745254
312.20 0.02747189
312.30 0.02749123
312.40 0.02751052
312.50 0.02752973
312.60 0.0275488
312.70 0.02757165
312.80 0.02761416
312.90 0.02770694
313.00 0.02788367
313.10 0.02815929
313.20 0.02851884
313.30 0.02892868
313.40 0.02935816
313.50 0.02979144
313.60 0.03022457
313.70 0.03065762
313.80 0.03109063
313.90 0.03152362
314.00 0.0319566
314.10 0.03238959
314.20 0.03282258
314.30 0.03325555
314.40 0.0336885
314.50 0.03412138
314.60 0.03455417
314.70 0.0349896
314.80 0.0354387
314.90 0.03592281
315.00 0.03646534
315.10 0.03707671
315.20 0.03774651
315.30 0.03845131
315.40 0.03916979
315.50 0.03989091
315.60 0.04061193
315.70 0.04133289
315.80 0.04205382
315.90 0.04277474
316.00 0.04349565
316.10 0.04421657
316.20 0.0449375
316.30 0.04565847
316.40 0.04637954
316.50 0.04710083
316.60 0.04782247
316.70 0.04853443
316.80 0.0491961
316.90 0.04972913
317.00 0.05004738
317.10 0.05011259
317.20 0.04996302
317.30 0.0496848
317.40 0.0493563
317.50 0.04901811
317.60 0.04868028
317.70 0.04834266
317.80 0.04800515
317.90 0.04766768
318.00 0.04733022
318.10 0.04699276
318.20 0.04665529
318.30 0.04631779
318.40 0.04598021
318.50 0.04564247
318.60 0.04530445
318.70 0.04497385
318.80 0.04468174
318.90 0.04448811
319.00 0.04445888
319.10 0.04462336
319.20 0.04495225
319.30 0.04537962
319.40 0.04584548
319.50 0.04631875
319.60 0.04679175
319.70 0.04726459
319.80 0.04773734
319.90 0.04821007
320.00 0.04868278
320.10 0.0491555
320.20 0.04962822
320.30 0.05010095
320.40 0.05057371
320.50 0.05104653
320.60 0.05151945
320.70 0.05198963
320.80 0.05244558
320.90 0.0528651
321.00 0.05322381
321.10 0.05351089
321.20 0.05373715
321.30 0.053927
321.40 0.05410261
321.50 0.05427547
321.60 0.05444844
321.70 0.05462147
321.80 0.05479452
321.90 0.05496759
322.00 0.05514067
322.10 0.05531374
322.20 0.0554868
322.30 0.05565982
322.40 0.05583273
322.50 0.05600542
322.60 0.05617774
322.70 0.05636007
322.80 0.05659441
322.90 0.05696179
323.00 0.05755127
323.10 0.05840243
323.20 0.05947569
323.30 0.06068199
323.40 0.0619403
323.50 0.06320862
323.60 0.06447657
323.70 0.06574431
323.80 0.06701193
323.90 0.06827951
324.00 0.06954708
324.10 0.07081465
324.20 0.07208222
324.30 0.0733498
324.40 0.07461739
324.50 0.07588502
324.60 0.07715271
324.70 0.07841878
324.80 0.07967639
324.90 0.0809124
325.00 0.08211233
325.10 0.08326975
325.20 0.08439109
325.30 0.08549082
325.40 0.0865821
325.50 0.08767176
325.60 0.08876148
325.70 0.08985123
325.80 0.090941
325.90 0.09203077
326.00 0.09312055
326.10 0.09421033
326.20 0.0953001
326.30 0.09638986
326.40 0.09747959
326.50 0.09856923
326.60 0.09965875
326.70 0.1007518
326.80 0.101863
326.90 0.1030208
327.00 0.1042564
327.10 0.1055836
327.20 0.1069885
327.30 0.10844
327.40 0.1099098
327.50 0.111383
327.60 0.1128561
327.70 0.1143291
327.80 0.1158021
327.90 0.1172751
328.00 0.1187481
328.10 0.1202211
328.20 0.121694
328.30 0.1231671
328.40 0.1246404
328.50 0.1261142
328.60 0.1275887
328.70 0.1290427
328.80 0.1303898
328.90 0.1314636
329.00 0.1320812
329.10 0.1321612
329.20 0.131785
329.30 0.1311355
329.40 0.1303791
329.50 0.1296022
329.60 0.128826
329.70 0.1280503
329.80 0.1272748
329.90 0.1264994
330.00 0.125724
330.10 0.1249487
330.20 0.1241733
330.30 0.1233978
330.40 0.1226222
330.50 0.1218462
330.60 0.1210697
330.70 0.1203084
330.80 0.1196264
330.90 0.1191471
331.00 0.1190063
331.10 0.1192642
331.20 0.1198606
331.30 0.1206597
331.40 0.121538
331.50 0.1224317
331.60 0.1233247
331.70 0.1242174
331.80 0.12511
331.90 0.1260025
332.00 0.1268949
332.10 0.1277874
332.20 0.1286799
332.30 0.1295724
332.40 0.130465
332.50 0.1313578
332.60 0.132251
332.70 0.1331346
332.80 0.1339679
332.90 0.1346729
333.00 0.1351636
333.10 0.1354019
333.20 0.1354258
333.30 0.1353214
333.40 0.1351668
333.50 0.1350026
333.60 0.1348387
333.70 0.134675
333.80 0.1345114
333.90 0.1343479
334.00 0.1341844
334.10 0.1340207
334.20 0.1338568
334.30 0.1336923
334.40 0.1335274
334.50 0.1333621
334.60 0.1333337
334.70 0.1337524
334.80 0.134737
334.90 0.1357341
335.00 0.1356917
335.10 0.1343217
335.20 0.1332771
335.30 0.1356495
335.40 0.1435905
335.50 0.1558849
335.60 0.1678198
335.70 0.1739268
335.80 0.1715116
335.90 0.1619878
336.00 0.1493693
336.10 0.1377865
336.20 0.1301184
336.30 0.1275688
336.40 0.1291553
336.50 0.1318294
336.60 0.1323028
336.70 0.1297747
336.80 0.126952
336.90 0.1279271
337.00 0.1346738
337.10 0.1451247
337.20 0.1543556
337.30 0.1579708
337.40 0.1551892
337.50 0.1493328
337.60 0.1452857
337.70 0.1458718
337.80 0.1501961
337.90 0.1552851
338.00 0.1588665
338.10 0.160316
338.20 0.1593042
338.30 0.1547492
338.40 0.1462806
338.50 0.1364028
338.60 0.1301074
338.70 0.1312846
338.80 0.1390913
338.90 0.1482194
339.00 0.1531611
339.10 0.15272
339.20 0.1507484
339.30 0.1523612
339.40 0.1592274
339.50 0.1684899
339.60 0.1758579
339.70 0.1792133
339.80 0.179153
339.90 0.1768616
340.00 0.1728106
340.10 0.1674859
340.20 0.162011
340.30 0.1572378
340.40 0.1525881
340.50 0.1466563
340.60 0.1391017
340.70 0.1314295
340.80 0.1257965
340.90 0.1234292
341.00 0.1242447
341.10 0.1274941
341.20 0.1323155
341.30 0.1376963
341.40 0.1424432
341.50 0.1456443
341.60 0.1472118
341.70 0.1479211
341.80 0.148823
341.90 0.1504679
342.00 0.1524186
342.10 0.1533356
342.20 0.1517915
342.30 0.147471
342.40 0.141816
342.50 0.1372953
342.60 0.1357444
342.70 0.1372206
342.80 0.1402422
342.90 0.1429585
343.00 0.144288
343.10 0.1444049
343.20 0.1443351
343.30 0.1449603
343.40 0.1462498
343.50 0.147443
343.60 0.1478541
343.70 0.1472947
343.80 0.1459103
343.90 0.1440441
344.00 0.1423235
344.10 0.1414743
344.20 0.1416857
344.30 0.1422899
344.40 0.1423479
344.50 0.1415475
344.60 0.1404561
344.70 0.1400227
344.80 0.1409728
344.90 0.1435631
345.00 0.1476584
345.10 0.1528351
345.20 0.158402
345.30 0.163402
345.40 0.1667647
345.50 0.167823
345.60 0.1668707
345.70 0.1651145
345.80 0.1638484
345.90 0.1635488
346.00 0.1636617
346.10 0.1630861
346.20 0.1609424
346.30 0.1572637
346.40 0.1532183
346.50 0.1504298
346.60 0.1496857
346.70 0.1502533
346.80 0.1505599
346.90 0.1494739
347.00 0.1468869
347.10 0.1434977
347.20 0.1404657
347.30 0.139084
347.40 0.1401749
347.50 0.1434411
347.60 0.1476048
347.70 0.1513898
347.80 0.1543761
347.90 0.1569865
348.00 0.1598223
348.10 0.1629923
348.20 0.165897
348.30 0.1676252
348.40 0.1676933
348.50 0.1664689
348.60 0.1647917
348.70 0.1632072
348.80 0.16171
348.90 0.1601228
349.00 0.1584533
349.10 0.1568497
349.20 0.1554453
349.30 0.1544316
349.40 0.1541532
349.50 0.1548295
349.60 0.1561249
349.70 0.1571991
349.80 0.1574505
349.90 0.1573617
350.00 0.1584413
350.10 0.1620364
350.20 0.1680421
350.30 0.1747655
350.40 0.1800826
350.50 0.1827817
350.60 0.1829633
350.70 0.1814711
350.80 0.1791756
350.90 0.1765627
351.00 0.1735451
351.10 0.1695022
351.20 0.1637642
351.30 0.1564705
351.40 0.1490391
351.50 0.1434848
351.60 0.1409896
351.70 0.1410692
351.80 0.1421346
351.90 0.1428169
352.00 0.1427315
352.10 0.1421564
352.20 0.1414144
352.30 0.1407845
352.40 0.1408674
352.50 0.1427642
352.60 0.1474729
352.70 0.1548558
352.80 0.1632459
352.90 0.1703774
353.00 0.1750556
353.10 0.1779206
353.20 0.1804679
353.30 0.1835259
353.40 0.1868917
353.50 0.1901586
353.60 0.1934089
353.70 0.1969561
353.80 0.2007959
353.90 0.2045859
354.00 0.207878
354.10 0.2100893
354.20 0.2105157
354.30 0.2088752
354.40 0.2059171
354.50 0.2031671
354.60 0.2017868
354.70 0.2017164
354.80 0.2019966
354.90 0.2017751
355.00 0.2008926
355.10 0.1996919
355.20 0.1985378
355.30 0.1975993
355.40 0.1969584
355.50 0.1966512
355.60 0.1964786
355.70 0.1958824
355.80 0.1942055
355.90 0.1912385
356.00 0.187469
356.10 0.1836852
356.20 0.1803001
356.30 0.1770211
356.40 0.1731696
356.50 0.1684174
356.60 0.1633229
356.70 0.1591309
356.80 0.1569048
356.90 0.1567404
357.00 0.1577743
357.10 0.1588518
357.20 0.1591315
357.30 0.1582555
357.40 0.1562437
357.50 0.1533804
357.60 0.1501312
357.70 0.1469798
357.80 0.1442313
357.90 0.1419434
358.00 0.1400971
358.10 0.1388943
358.20 0.1388368
358.30 0.1403972
358.40 0.1435453
358.50 0.1475765
358.60 0.1513855
358.70 0.1539393
358.80 0.154708
358.90 0.1539212
359.00 0.1525845
359.10 0.1521026
359.20 0.1535056
359.30 0.1567309
359.40 0.1605405
359.50 0.1632961
359.60 0.1640703
359.70 0.1632227
359.80 0.1619931
359.90 0.1614546
360.00 0.161661
360.10 0.1616493
360.20 0.1602607
360.30 0.1570709
360.40 0.1527451
360.50 0.1487054
360.60 0.1464703
360.70 0.1470506
360.80 0.1504931
360.90 0.1557749
361.00 0.1613057
361.10 0.1658338
361.20 0.1690398
361.30 0.1712895
361.40 0.1728991
361.50 0.1738004
361.60 0.1739759
361.70 0.1739312
361.80 0.1744196
361.90 0.1756772
362.00 0.1771401
362.10 0.1780347
362.20 0.1780894
362.30 0.1776112
362.40 0.1771148
362.50 0.1770299
362.60 0.1774996
362.70 0.1781336
362.80 0.1780776
362.90 0.1766928
363.00 0.1742995
363.10 0.1720821
363.20 0.1711345
363.30 0.1716443
363.40 0.1729723
363.50 0.1743224
363.60 0.1752539
363.70 0.1757244
363.80 0.1758247
363.90 0.1755189
364.00 0.1745792
364.10 0.1727446
364.20 0.1699849
364.30 0.166647
364.40 0.1633824
364.50 0.1609343
364.60 0.1598503
364.70 0.1601759
364.80 0.161389
364.90 0.162794
365.00 0.1641576
365.10 0.1659454
365.20 0.168749
365.30 0.1724078
365.40 0.1757944
365.50 0.177596
365.60 0.1773976
365.70 0.1759969
365.80 0.1746351
365.90 0.1739896
366.00 0.1739199
366.10 0.1740344
366.20 0.1743059
366.30 0.1750184
366.40 0.1762462
366.50 0.1775684
366.60 0.1782896
366.70 0.17789
366.80 0.176296
366.90 0.1738409
367.00 0.1710901
367.10 0.1686862
367.20 0.1672127
367.30 0.1670444
367.40 0.168185
367.50 0.1702337
367.60 0.1725815
367.70 0.1747275
367.80 0.1764878
367.90 0.1779611
368.00 0.1793222
368.10 0.1806126
368.20 0.1816675
368.30 0.182196
368.40 0.1819701
368.50 0.1810388
368.60 0.179817
368.70 0.1789135
368.80 0.1787592
368.90 0.1793435
369.00 0.180335
369.10 0.1814713
369.20 0.1827398
369.30 0.1841285
369.40 0.1853118
369.50 0.1857305
369.60 0.1850766
369.70 0.1836706
369.80 0.1823496
369.90 0.1819931
370.00 0.1830659
370.10 0.1854362
370.20 0.1885245
370.30 0.1916163
370.40 0.194108
370.50 0.1956081
370.60 0.1959816
370.70 0.1954567
370.80 0.1946397
370.90 0.1942444
371.00 0.194629
371.10 0.1954993
371.20 0.1960198
371.30 0.1952462
371.40 0.1926516
371.50 0.1884769
371.60 0.1836945
371.70 0.179554
371.80 0.1770105
371.90 0.1764158
372.00 0.1775471
372.10 0.1796727
372.20 0.1814991
372.30 0.1813965
372.40 0.1781525
372.50 0.1719217
372.60 0.1645131
372.70 0.1585797
372.80 0.1562656
372.90 0.1582675
373.00 0.1637822
373.10 0.1710908
373.20 0.1782725
373.30 0.183724
373.40 0.1864809
373.50 0.1862855
373.60 0.1834089
373.70 0.1783924
373.80 0.1719332
373.90 0.164949
374.00 0.1585912
374.10 0.1540446
374.20 0.1522257
374.30 0.1536208
374.40 0.1583245
374.50 0.1660743
374.60 0.1761514
374.70 0.1872429
374.80 0.1975233
374.90 0.2051181
375.00 0.2087485
375.10 0.2081426
375.20 0.2039917
375.30 0.1975894
375.40 0.1904354
375.50 0.1839198
375.60 0.1789921
375.70 0.1759066
375.80 0.1742373
375.90 0.1732296
376.00 0.1723223
376.10 0.1715575
376.20 0.1716696
376.30 0.1737801
376.40 0.1788512
376.50 0.1872715
376.60 0.1988464
376.70 0.2129259
376.80 0.2283133
376.90 0.2430122
377.00 0.2543893
377.10 0.2600776
377.20 0.259061
377.30 0.2520691
377.40 0.24104
377.50 0.2282034
377.60 0.2154421
377.70 0.2041095
377.80 0.1949823
377.90 0.1882195
378.00 0.1834604
378.10 0.1801345
378.20 0.1777949
378.30 0.1762012
378.40 0.1751866
378.50 0.1746131
378.60 0.1745019
378.70 0.1751059
378.80 0.1768008
378.90 0.1800079
379.00 0.185322
379.10 0.1935869
379.20 0.2055452
379.30 0.2211911
379.40 0.239369
379.50 0.2579409
379.60 0.2742798
379.70 0.2857941
379.80 0.2905138
379.90 0.2877054
380.00 0.2782479
380.10 0.2643771
380.20 0.2488319
380.30 0.2339154
380.40 0.2210097
380.50 0.2106116
380.60 0.2026065
380.70 0.1965033
380.80 0.1916077
380.90 0.1873232
381.00 0.1834446
381.10 0.1801494
381.20 0.1776424
381.30 0.1758217
381.40 0.174378
381.50 0.1732331
381.60 0.1726855
381.70 0.1730181
381.80 0.1739382
381.90 0.1745003
382.00 0.1737634
382.10 0.1735946
382.20 0.1790617
382.30 0.1992007
382.40 0.2343007
382.50 0.2737295
382.60 0.3050893
382.70 0.3212256
382.80 0.3251383
382.90 0.3274899
383.00 0.3435829
383.10 0.3725058
383.20 0.3961488
383.30 0.410909
383.40 0.4195016
383.50 0.4239979
383.60 0.41995
383.70 0.4002325
383.80 0.362984
383.90 0.3201494
384.00 0.296135
384.10 0.3059746
384.20 0.3325804
384.30 0.3379513
384.40 0.3048478
384.50 0.2559037
384.60 0.2173962
384.70 0.2082351
384.80 0.2233523
384.90 0.2569036
385.00 0.2991472
385.10 0.3329441
385.20 0.344153
385.30 0.3324923
385.40 0.3083053
385.50 0.2844408
385.60 0.2729203
385.70 0.2781967
385.80 0.2895299
385.90 0.2896636
386.00 0.2724103
386.10 0.2480713
386.20 0.2292224
386.30 0.2166666
386.40 0.2046692
386.50 0.1944906
386.60 0.1966532
386.70 0.2200749
386.80 0.2602387
386.90 0.2995755
387.00 0.3196371
387.10 0.3145201
387.20 0.296683
387.30 0.2885499
387.40 0.3026433
387.50 0.3265198
387.60 0.3314759
387.70 0.3022969
387.80 0.2541343
387.90 0.213683
388.00 0.1919279
388.10 0.183376
388.20 0.1851897
388.30 0.2004006
388.40 0.2242101
388.50 0.2487038
388.60 0.2813676
388.70 0.3392026
388.80 0.4188177
388.90 0.4855602
389.00 0.5036459
389.10 0.469643
389.20 0.4076343
389.30 0.3435206
389.40 0.2900317
389.50 0.2508944
389.60 0.2280014
389.70 0.2113741
389.80 0.2135278
389.90 0.2365607
390.00 0.2765788
390.10 0.3224027
390.20 0.3425337
390.30 0.3358199
390.40 0.3245308
390.50 0.3149779
390.60 0.3096647
390.70 0.3069746
390.80 0.3057666
390.90 0.3028817
391.00 0.2935543
391.10 0.2783422
391.20 0.2657866
391.30 0.278335
391.40 0.3016738
391.50 0.3214099
391.60 0.3268803
391.70 0.3126313
391.80 0.2797562
391.90 0.2375422
392.00 0.2002125
392.10 0.181811
392.20 0.1854835
392.30 0.2058939
392.40 0.2220333
392.50 0.2267797
392.60 0.2313274
392.70 0.2459064
392.80 0.2781678
392.90 0.3197329
393.00 0.370027
393.10 0.44241
393.20 0.5501149
393.30 0.6786566
393.40 0.7594371
393.50 0.7248434
393.60 0.5818668
393.70 0.4116104
393.80 0.2965001
393.90 0.2595787
394.00 0.2691371
394.10 0.2824496
394.20 0.2778914
394.30 0.2633785
394.40 0.2436802
394.50 0.2316572
394.60 0.2336464
394.70 0.2467222
394.80 0.2553532
394.90 0.2598067
395.00 0.2595817
395.10 0.2597254
395.20 0.262925
395.30 0.2692084
395.40 0.2781544
395.50 0.2953945
395.60 0.3106094
395.70 0.2991713
395.80 0.2619896
395.90 0.2221146
396.00 0.2042627
396.10 0.2060738
396.20 0.2081519
396.30 0.2092631
396.40 0.2257037
396.50 0.2831954
396.60 0.3956994
396.70 0.553224
396.80 0.7199422
396.90 0.838329
397.00 0.8573574
397.10 0.7705326
397.20 0.626188
397.30 0.4927247
397.40 0.4135368
397.50 0.3856069
397.60 0.3812452
397.70 0.3802914
397.80 0.3783969
397.90 0.3750479
398.00 0.3675395
398.10 0.356775
398.20 0.3515275
398.30 0.3592047
398.40 0.3746973
398.50 0.3845593
398.60 0.3816492
398.70 0.3707844
398.80 0.363328
398.90 0.3515351
399.00 0.3396997
399.10 0.3441227
399.20 0.3785987
399.30 0.4338621
399.40 0.478792
399.50 0.4858688
399.60 0.4539759
399.70 0.4031873
399.80 0.3577462
399.90 0.3346745
400.00 0.3341846
400.10 0.3451758
400.20 0.3556268
400.30 0.3592437
400.40 0.3551044
400.50 0.3468779
400.60 0.341745
400.70 0.3437751
400.80 0.3602746
400.90 0.3927356
401.00 0.4228818
401.10 0.4300294
401.20 0.4059449
401.30 0.3706427
401.40 0.3481299
401.50 0.3448216
401.60 0.348885
401.70 0.3502702
401.80 0.3412005
401.90 0.331517
402.00 0.3317432
402.10 0.342508
402.20 0.3572975
402.30 0.3680773
402.40 0.3699726
402.50 0.3652144
402.60 0.3603171
402.70 0.3565791
402.80 0.3456815
402.90 0.3188139
403.00 0.2806287
403.10 0.2476492
403.20 0.2308638
403.30 0.2281794
403.40 0.234243
403.50 0.2502268
403.60 0.2787721
403.70 0.3166957
403.80 0.3541486
403.90 0.3854134
404.00 0.4128411
404.10 0.4385427
404.20 0.4608996
404.30 0.4702095
404.40 0.4527491
404.50 0.4042031
404.60 0.3407955
404.70 0.2900344
404.80 0.2672653
404.90 0.2656098
405.00 0.268714
405.10 0.2694912
405.20 0.27495
405.30 0.2940906
405.40 0.324701
405.50 0.3541828
405.60 0.3704159
405.70 0.3715496
405.80 0.365668
405.90 0.3601481
406.00 0.3564678
406.10 0.3517152
406.20 0.343951
406.30 0.3374964
406.40 0.3407374
406.50 0.3555346
406.60 0.3722508
406.70 0.373928
406.80 0.350299
406.90 0.3074436
407.00 0.2640556
407.10 0.23883
407.20 0.2407744
407.30 0.2571492
407.40 0.2680156
407.50 0.2687682
407.60 0.2611309
407.70 0.2568038
407.80 0.2642069
407.90 0.2810967
408.00 0.2995284
408.10 0.3157725
408.20 0.3316612
408.30 0.3477023
408.40 0.3587346
408.50 0.3603767
408.60 0.3560627
408.70 0.3523799
408.80 0.3490433
408.90 0.3393932
409.00 0.322787
409.10 0.3094416
409.20 0.3099794
409.30 0.3234978
409.40 0.3380236
409.50 0.3439877
409.60 0.3412845
409.70 0.337118
409.80 0.3427084
409.90 0.3710883
410.00 0.4293354
410.10 0.5051553
410.20 0.5629135
410.30 0.5644939
410.40 0.5006297
410.50 0.4012838
410.60 0.3136028
410.70 0.2740097
410.80 0.2707909
410.90 0.2843834
411.00 0.2972298
411.10 0.3014405
411.20 0.2983573
411.30 0.2939231
411.40 0.2934442
411.50 0.2961709
411.60 0.3027053
411.70 0.3043626
411.80 0.2942798
411.90 0.2839766
412.00 0.2859451
412.10 0.3009381
412.20 0.318064
412.30 0.3283754
412.40 0.3316046
412.50 0.3323824
412.60 0.3330392
412.70 0.3328367
412.80 0.3313449
412.90 0.3275509
413.00 0.3185717
413.10 0.3033763
413.20 0.2858117
413.30 0.2715042
413.40 0.261245
413.50 0.2511333
413.60 0.2399526
413.70 0.2328473
413.80 0.2366739
413.90 0.253412
414.00 0.2774067
414.10 0.297336
414.20 0.3091737
414.30 0.3012003
414.40 0.277143
414.50 0.2498007
414.60 0.2321402
414.70 0.2284604
414.80 0.2395308
414.90 0.2530513
415.00 0.2618026
415.10 0.2754635
415.20 0.3004126
415.30 0.327534
415.40 0.3469058
415.50 0.3502816
415.60 0.3353862
415.70 0.307779
415.80 0.2792966
415.90 0.2634759
416.00 0.2688442
416.10 0.2896377
416.20 0.314119
416.30 0.3350536
416.40 0.3519767
416.50 0.3650255
416.60 0.3755781
416.70 0.3699437
416.80 0.3478258
416.90 0.3201363
417.00 0.299892
417.10 0.2898751
417.20 0.2757813
417.30 0.2580237
417.40 0.2448778
417.50 0.240884
417.60 0.2413873
417.70 0.2407035
417.80 0.2412271
417.90 0.2551546
418.00 0.2806805
418.10 0.3141548
418.20 0.3443594
418.30 0.3603167
418.40 0.3611896
418.50 0.3556582
418.60 0.3574036
418.70 0.3591854
418.80 0.3556326
418.90 0.3443464
419.00 0.3283909
419.10 0.3129008
419.20 0.3012239
419.30 0.2939993
419.40 0.2907548
419.50 0.2905566
419.60 0.2916019
419.70 0.2924076
419.80 0.2927802
419.90 0.293609
420.00 0.292923
420.10 0.2863855
420.20 0.2728569
420.30 0.2593576
420.40 0.2488939
420.50 0.2368795
420.60 0.2208014
420.70 0.2025692
420.80 0.1904089
420.90 0.1848864
421.00 0.189077
421.10 0.2053759
421.20 0.2310739
421.30 0.2581301
421.40 0.2781136
421.50 0.2890433
421.60 0.2913364
421.70 0.2847704
421.80 0.2694903
421.90 0.2486106
422.00 0.2265674
422.10 0.2053398
422.20 0.1846489
422.30 0.1648559
422.40 0.1474081
422.50 0.1316722
422.60 0.1154833
422.70 0.1049763
422.80 0.09825757
422.90 0.1034865
423.00 0.12123
423.10 0.1415739
423.20 0.153555
423.30 0.1565928
423.40 0.1602946
423.50 0.177076
423.60 0.2054284
423.70 0.2275257
423.80 0.236098
423.90 0.2357778
424.00 0.2363305
424.10 0.2423633
424.20 0.2502032
424.30 0.2535159
424.40 0.2532097
424.50 0.2521728
424.60 0.2517752
424.70 0.251334
424.80 0.2534054
424.90 0.257722
425.00 0.2659322
425.10 0.2754113
425.20 0.2783034
425.30 0.2696859
425.40 0.2532268
425.50 0.2377977
425.60 0.2292985
425.70 0.2259133
425.80 0.2216352
425.90 0.2141637
426.00 0.2082059
426.10 0.2099565
426.20 0.2185808
426.30 0.2280799
426.40 0.2364108
426.50 0.2469795
426.60 0.2591488
426.70 0.2646318
426.80 0.2593634
426.90 0.2546384
427.00 0.2634004
427.10 0.2752542
427.20 0.2792779
427.30 0.2690401
427.40 0.2477634
427.50 0.2252177
427.60 0.2136099
427.70 0.2214861
427.80 0.248263
427.90 0.2795557
428.00 0.3017998
428.10 0.3096017
428.20 0.3044849
428.30 0.2931597
428.40 0.2839852
428.50 0.2813949
428.60 0.2801526
428.70 0.2722394
428.80 0.2564197
428.90 0.2390149
429.00 0.2269786
429.10 0.2268482
429.20 0.235039
429.30 0.2468305
429.40 0.2594378
429.50 0.2718579
429.60 0.2866157
429.70 0.3046173
429.80 0.319163
429.90 0.3201684
430.00 0.3057906
430.10 0.2873267
430.20 0.2809411
430.30 0.2938303
430.40 0.3175038
430.50 0.3344957
430.60 0.3314601
430.70 0.3084104
430.80 0.2777992
430.90 0.2542965
431.00 0.245246
431.10 0.2494002
431.20 0.2605752
431.30 0.2710156
431.40 0.2737175
431.50 0.265637
431.60 0.2534763
431.70 0.2486271
431.80 0.2580878
431.90 0.2810992
432.00 0.3086599
432.10 0.3309736
432.20 0.3401515
432.30 0.3400747
432.40 0.3377008
432.50 0.3346292
432.60 0.3263339
432.70 0.311535
432.80 0.2980071
432.90 0.2949345
433.00 0.3035676
433.10 0.3184144
433.20 0.3366952
433.30 0.3553784
433.40 0.3678453
433.50 0.3743073
433.60 0.3844457
433.70 0.4171763
433.80 0.4969766
433.90 0.6173722
434.00 0.7459693
434.10 0.8289086
434.20 0.8262726
434.30 0.7430065
434.40 0.6247772
434.50 0.5237422
434.60 0.4661516
434.70 0.44591
434.80 0.4394349
434.90 0.4246613
435.00 0.3927237
435.10 0.3489841
435.20 0.3071319
435.30 0.2811292
435.40 0.2778899
435.50 0.2934918
435.60 0.3162599
435.70 0.3331902
435.80 0.3388719
435.90 0.3367823
436.00 0.3324687
436.10 0.3274501
436.20 0.3246698
436.30 0.3206479
436.40 0.3244009
436.50 0.3386786
436.60 0.3517841
436.70 0.356063
436.80 0.3543051
436.90 0.3548087
437.00 0.3598398
437.10 0.3637619
437.20 0.3608788
437.30 0.3509963
437.40 0.3386307
437.50 0.3297755
437.60 0.3277008
437.70 0.3303657
437.80 0.3317537
437.90 0.3272007
438.00 0.3195721
438.10 0.3152995
438.20 0.3176541
438.30 0.3257889
438.40 0.3409629
438.50 0.363913
438.60 0.3883311
438.70 0.4029138
438.80 0.3998926
438.90 0.3821731
439.00 0.3629206
439.10 0.3526014
439.20 0.3517716
439.30 0.3541774
439.40 0.3557312
439.50 0.3599875
439.60 0.3721768
439.70 0.389754
439.80 0.4030017
439.90 0.4086804
440.00 0.4086939
440.10 0.4091101
440.20 0.4121453
440.30 0.4136823
440.40 0.4133373
440.50 0.4053524
440.60 0.3939472
440.70 0.3852798
440.80 0.3824437
440.90 0.3916869
441.00 0.4067372
441.10 0.4217489
441.20 0.4320661
441.30 0.4371453
441.40 0.4409617
441.50 0.4478221
441.60 0.4587554
441.70 0.4721263
441.80 0.4841493
441.90 0.489207
442.00 0.4831403
442.10 0.4682455
442.20 0.4529417
442.30 0.444305
442.40 0.4423672
442.50 0.4428078
442.60 0.4429793
442.70 0.4432719
442.80 0.4448401
442.90 0.449492
443.00 0.4601103
443.10 0.4768761
443.20 0.4924476
443.30 0.4952346
443.40 0.4818735
443.50 0.4648164
443.60 0.4606311
443.70 0.4742523
443.80 0.5055007
443.90 0.5398764
444.00 0.5675108
444.10 0.5833588
444.20 0.5871211
444.30 0.5837621
444.40 0.57984
444.50 0.5778039
444.60 0.5766775
444.70 0.5769831
444.80 0.5818955
444.90 0.5931003
445.00 0.6073203
445.10 0.618024
445.20 0.618943
445.30 0.6052912
445.40 0.5761052
445.50 0.5390662
445.60 0.5090031
445.70 0.5001479
445.80 0.5124245
445.90 0.5337373
446.00 0.5517818
446.10 0.5630765
446.20 0.570728
446.30 0.5770957
446.40 0.5814364
446.50 0.5825409
446.60 0.5815374
446.70 0.5818426
446.80 0.587218
446.90 0.6001575
447.00 0.6206276
447.10 0.6456929
447.20 0.6704491
447.30 0.6890717
447.40 0.6955534
447.50 0.6860155
447.60 0.663718
447.70 0.6404771
447.80 0.6298189
447.90 0.6363619
448.00 0.6557141
448.10 0.6685487
448.20 0.6716826
448.30 0.6762471
448.40 0.6857504
448.50 0.7008056
448.60 0.7157175
448.70 0.7247879
448.80 0.7270879
448.90 0.7258221
449.00 0.7253519
449.10 0.7283796
449.20 0.7336884
449.30 0.7359035
449.40 0.7293765
449.50 0.7150973
449.60 0.7026547
449.70 0.7021999
449.80 0.7158166
449.90 0.7373311
450.00 0.7581018
450.10 0.7715773
450.20 0.7747668
450.30 0.7692279
450.40 0.7603682
450.50 0.752327
450.60 0.7443822
450.70 0.7348558
450.80 0.7258191
450.90 0.7208883
451.00 0.7193232
451.10 0.71646
451.20 0.7114969
451.30 0.7098801
451.40 0.7152862
451.50 0.7230418
451.60 0.7252582
451.70 0.7221222
451.80 0.7238932
451.90 0.7394511
452.00 0.7655321
452.10 0.7899668
452.20 0.8038626
452.30 0.808261
452.40 0.8092952
452.50 0.8096248
452.60 0.8069659
452.70 0.7994388
452.80 0.7895206
452.90 0.7822493
453.00 0.7798807
453.10 0.7788486
453.20 0.7729911
453.30 0.7600318
453.40 0.7446028
453.50 0.7354949
453.60 0.7403667
453.70 0.7619897
453.80 0.7974388
453.90 0.8383509
454.00 0.8741185
454.10 0.8974548
454.20 0.9066516
454.30 0.9023148
454.40 0.8841264
454.50 0.8529396
454.60 0.8145405
454.70 0.7789051
454.80 0.754143
454.90 0.7423493
455.00 0.7406579
455.10 0.7448775
455.20 0.7529671
455.30 0.7653447
455.40 0.7823226
455.50 0.8022289
455.60 0.8229321
455.70 0.8444935
455.80 0.8685165
455.90 0.8942392
456.00 0.9175865
456.10 0.9351492
456.20 0.9473137
456.30 0.9572673
456.40 0.9682055
456.50 0.9827405
456.60 1.002677
456.70 1.026235
456.80 1.046803
456.90 1.058154
457.00 1.062223
457.10 1.068769
457.20 1.084818
457.30 1.105712
457.40 1.117973
457.50 1.110522
457.60 1.083049
457.70 1.045313
457.80 1.010435
457.90 0.9880778
458.00 0.9805431
458.10 0.9825082
458.20 0.9831832
458.30 0.9700746
458.40 0.9356995
458.50 0.8832514
458.60 0.8250853
458.70 0.774954
458.80 0.7417269
458.90 0.729475
459.00 0.7383632
459.10 0.7621778
459.20 0.7884389
459.30 0.8069391
459.40 0.8190376
459.50 0.8346942
459.60 0.8593035
459.70 0.8861541
459.80 0.903252
459.90 0.9059957
460.00 0.9010155
460.10 0.8986574
460.20 0.9037803
460.30 0.9116735
460.40 0.9110041
460.50 0.8927444
460.60 0.8601668
460.70 0.831612
460.80 0.8309981
460.90 0.8712545
461.00 0.9439698
461.10 1.024233
461.20 1.086664
461.30 1.121132
461.40 1.135586
461.50 1.144277
461.60 1.153845
461.70 1.160782
461.80 1.160562
461.90 1.155588
462.00 1.153429
462.10 1.15894
462.20 1.168807
462.30 1.171638
462.40 1.152404
462.50 1.10055
462.60 1.019281
462.70 0.92801
462.80 0.8524279
462.90 0.8097719
463.00 0.8020883
463.10 0.8201755
463.20 0.8501353
463.30 0.8773908
463.40 0.8907557
463.50 0.8879547
463.60 0.8756306
463.70 0.8623293
463.80 0.8526942
463.90 0.8480161
464.00 0.849573
464.10 0.8591091
464.20 0.8763562
464.30 0.8968806
464.40 0.9129023
464.50 0.9175513
464.60 0.9113979
464.70 0.9037614
464.80 0.9044109
464.90 0.9136836
465.00 0.9232697
465.10 0.9275226
465.20 0.9306148
465.30 0.9400759
465.40 0.9560722
465.50 0.9711736
465.60 0.9806339
465.70 0.99024
465.80 1.011292
465.90 1.048105
466.00 1.091427
466.10 1.125215
466.20 1.140737
466.30 1.144026
466.40 1.148401
466.50 1.158166
466.60 1.161174
466.70 1.138792
466.80 1.082758
466.90 1.001691
467.00 0.9134457
467.10 0.8344576
467.20 0.7761859
467.30 0.7454726
467.40 0.7423149
467.50 0.7583036
467.60 0.7797336
467.70 0.7947511
467.80 0.798241
467.90 0.791753
468.00 0.7816008
468.10 0.7764229
468.20 0.7830112
468.30 0.802549
468.40 0.8310278
468.50 0.8635609
468.60 0.8970529
468.70 0.9279623
468.80 0.9513298
468.90 0.9641937
469.00 0.9684394
469.10 0.9685483
469.20 0.9673768
469.30 0.9660173
469.40 0.9664744
469.50 0.9714007
469.60 0.9813615
469.70 0.994188
469.80 1.007263
469.90 1.019676
470.00 1.032079
470.10 1.045285
470.20 1.059023
470.30 1.070591
470.40 1.074826
470.50 1.067069
470.60 1.047678
470.70 1.023686
470.80 1.005001
470.90 0.9987139
471.00 1.005577
471.10 1.019013
471.20 1.026897
471.30 1.017986
471.40 0.9906058
471.50 0.9552166
471.60 0.9273954
471.70 0.9177729
471.80 0.9277999
471.90 0.9521274
472.00 0.9820816
472.10 1.009133
472.20 1.029025
472.30 1.043688
472.40 1.057637
472.50 1.071638
472.60 1.080706
472.70 1.07985
472.80 1.071579
472.90 1.065442
473.00 1.069169
473.10 1.08097
473.20 1.09192
473.30 1.095571
473.40 1.093124
473.50 1.089516
473.60 1.087137
473.70 1.085548
473.80 1.085463
473.90 1.08926
474.00 1.097248
474.10 1.106129
474.20 1.113099
474.30 1.119693
474.40 1.129551
474.50 1.143225
474.60 1.157375
474.70 1.169011
474.80 1.178586
474.90 1.188692
475.00 1.200482
475.10 1.212022
475.20 1.220693
475.30 1.226863
475.40 1.2336
475.50 1.241172
475.60 1.241801
475.70 1.222174
475.80 1.172849
475.90 1.094238
476.00 0.9943916
476.10 0.8847359
476.20 0.7792941
476.30 0.6942094
476.40 0.643613
476.50 0.6234806
476.60 0.6192939
476.70 0.6205776
476.80 0.6213303
476.90 0.6229938
477.00 0.6283079
477.10 0.6357512
477.20 0.6427493
477.30 0.6512153
477.40 0.6677884
477.50 0.6969851
477.60 0.7335948
477.70 0.7634976
477.80 0.7743437
477.90 0.7665973
478.00 0.7533009
478.10 0.7485512
478.20 0.7569132
478.30 0.7729995
478.40 0.7890011
478.50 0.8020351
478.60 0.8152507
478.70 0.8320349
478.80 0.850128
478.90 0.8631816
479.00 0.8689176
479.10 0.8731759
479.20 0.8829752
479.30 0.8979045
479.40 0.9118398
479.50 0.9218177
479.60 0.9317116
479.70 0.9472638
479.80 0.9699422
479.90 0.9956801
480.00 1.01687
480.10 1.024922
480.20 1.013498
480.30 0.9818579
480.40 0.9346239
480.50 0.877811
480.60 0.816381
480.70 0.756366
480.80 0.7077937
480.90 0.6816706
481.00 0.6815931
481.10 0.6994795
481.20 0.7224347
481.30 0.7433553
481.40 0.763361
481.50 0.784386
481.60 0.8025198
481.70 0.8116443
481.80 0.8116544
481.90 0.8103711
482.00 0.8172052
482.10 0.8363596
482.20 0.8651745
482.30 0.8964538
482.40 0.921312
482.50 0.9330143
482.60 0.9315853
482.70 0.9237927
482.80 0.9169437
482.90 0.9122557
483.00 0.9059763
483.10 0.8967791
483.20 0.8898887
483.30 0.8928241
483.40 0.9083241
483.50 0.9328717
483.60 0.9615001
483.70 0.9924264
483.80 1.025057
483.90 1.053613
484.00 1.065659
484.10 1.050397
484.20 1.010237
484.30 0.9635702
484.40 0.9333748
484.50 0.9295104
484.60 0.9400508
484.70 0.9411481
484.80 0.9173766
484.90 0.8730415
485.00 0.824932
485.10 0.7881651
485.20 0.7705441
485.30 0.7744205
485.40 0.7959437
485.50 0.8223032
485.60 0.8395873
485.70 0.8525993
485.80 0.8970734
485.90 1.020581
486.00 1.234082
486.10 1.475682
486.20 1.634827
486.30 1.630771
486.40 1.475573
486.50 1.259788
486.60 1.077958
486.70 0.9706802
486.80 0.9268098
486.90 0.9187375
487.00 0.9263155
487.10 0.939461
487.20 0.9542504
487.30 0.970309
487.40 0.9866938
487.50 0.998354
487.60 0.9995617
487.70 0.9910584
487.80 0.9811246
487.90 0.9781411
488.00 0.9831149
488.10 0.9907856
488.20 0.996582
488.30 1.000783
488.40 1.006551
488.50 1.016022
488.60 1.029347
488.70 1.045489
488.80 1.062003
488.90 1.074957
489.00 1.080864
489.10 1.079631
489.20 1.075463
489.30 1.073694
489.40 1.076412
489.50 1.081684
489.60 1.086057
489.70 1.087109
489.80 1.084549
489.90 1.080582
490.00 1.079572
490.10 1.086086
490.20 1.102252
490.30 1.127246
490.40 1.159123
490.50 1.195877
490.60 1.23515
490.70 1.273651
490.80 1.307286
490.90 1.332621
491.00 1.349421
491.10 1.36099
491.20 1.370144
491.30 1.375099
491.40 1.37146
491.50 1.359404
491.60 1.346481
491.70 1.341312
491.80 1.345792
491.90 1.355608
492.00 1.367528
492.10 1.382528
492.20 1.401692
492.30 1.422781
492.40 1.443096
492.50 1.463834
492.60 1.488253
492.70 1.515979
492.80 1.541571
492.90 1.558685
493.00 1.564225
493.10 1.559949
493.20 1.551495
493.30 1.545493
493.40 1.546093
493.50 1.552805
493.60 1.562448
493.70 1.572437
493.80 1.58146
493.90 1.588978
494.00 1.596229
494.10 1.60721
494.20 1.626867
494.30 1.656283
494.40 1.690108
494.50 1.720581
494.60 1.744617
494.70 1.767076
494.80 1.795573
494.90 1.830832
495.00 1.862219
495.10 1.870588
495.20 1.833276
495.30 1.729583
495.40 1.550808
495.50 1.313572
495.60 1.062531
495.70 0.8518506
495.80 0.7171348
495.90 0.6602955
496.00 0.6561109
496.10 0.6715075
496.20 0.6830919
496.30 0.6853605
496.40 0.6878316
496.50 0.7038289
496.60 0.7398397
496.70 0.7930201
496.80 0.8554113
496.90 0.9180007
497.00 0.9714586
497.10 1.007456
497.20 1.023367
497.30 1.025723
497.40 1.026476
497.50 1.034048
497.60 1.047677
497.70 1.060385
497.80 1.066104
497.90 1.062147
498.00 1.04731
498.10 1.022806
498.20 0.996998
498.30 0.9859439
498.40 1.003439
498.50 1.047817
498.60 1.100938
498.70 1.142607
498.80 1.165659
498.90 1.17696
499.00 1.185845
499.10 1.193561
499.20 1.194928
499.30 1.188235
499.40 1.181293
499.50 1.185599
499.60 1.192262
499.70 1.155863
499.80 1.019292
499.90 0.7698534
500.00 1
500.10 0.9097128
500.20 0.8656833
500.30 0.8534572
500.40 0.8607319
500.50 0.8768285
500.60 0.8958622
500.70 0.9144589
500.80 0.8867798
500.90 0.8419326
501.00 0.9008163
501.10 0.9727993
501.20 0.9639117
501.30 0.9494129
501.40 0.9392181
501.50 0.8615603
501.60 0.8575126
501.70 0.8962696
501.80 0.9419424
501.90 1.030422
502.00 1.079233
502.10 1.060463
502.20 1.062757
502.30 1.040056
502.40 1.018861
502.50 1.006252
502.60 1.061746
502.70 1.082465
502.80 1.135617
502.90 1.129758
503.00 1.131116
503.10 1.15144
503.20 1.180578
503.30 1.199997
503.40 1.199804
503.50 1.177257
503.60 1.187755
503.70 1.163629
503.80 1.208109
503.90 1.195518
504.00 1.166387
504.10 1.148943
504.20 1.190233
504.30 1.218201
504.40 1.24121
504.50 1.266359
504.60 1.381163
504.70 1.419318
504.80 1.361554
504.90 1.315495
505.00 1.242558
505.10 1.169719
505.20 1.182789
505.30 1.219524
505.40 1.247809
505.50 1.196144
505.60 1.198612
505.70 1.206454
505.80 1.220574
505.90 1.257927
506.00 1.296964
506.10 1.278461
506.20 1.238366
506.30 1.281062
506.40 1.333038
506.50 1.275404
506.60 1.207173
506.70 1.215437
506.80 1.301263
506.90 1.29928
507.00 1.322812
507.10 1.3483
507.20 1.295019
507.30 1.267705
507.40 1.321067
507.50 1.407095
507.60 1.450953
507.70 1.38003
507.80 1.3274
507.90 1.427658
508.00 1.407242
508.10 1.321763
508.20 1.266766
508.30 1.273412
508.40 1.206472
508.50 1.19614
508.60 1.36836
508.70 1.464811
508.80 1.477306
508.90 1.39596
509.00 1.291827
509.10 1.320431
509.20 1.450437
509.30 1.465831
509.40 1.435818
509.50 1.353088
509.60 1.243492
509.70 1.297281
509.80 1.367056
509.90 1.444064
510.00 1.349278
510.10 1.276047
510.20 1.273843
510.30 1.233613
510.40 1.225389
510.50 1.274807
510.60 1.259795
510.70 1.248152
510.80 1.272413
510.90 1.285138
511.00 1.309947
511.10 1.31936
511.20 1.302024
511.30 1.323147
511.40 1.376715
511.50 1.429863
511.60 1.523725
511.70 1.564378
511.80 1.539102
511.90 1.501445
512.00 1.448366
512.10 1.408358
512.20 1.400222
512.30 1.43166
512.40 1.410731
512.50 1.364066
512.60 1.314311
512.70 1.312536
512.80 1.306967
512.90 1.266304
513.00 1.281239
513.10 1.332646
513.20 1.388193
513.30 1.503177
513.40 1.56034
513.50 1.469945
513.60 1.457788
513.70 1.518238
513.80 1.600583
513.90 1.631766
514.00 1.568642
514.10 1.426515
514.20 1.441492
514.30 1.471566
514.40 1.436188
514.50 1.417908
514.60 1.359637
514.70 1.303335
514.80 1.338247
514.90 1.415954
515.00 1.420844
515.10 1.381095
515.20 1.392866
515.30 1.347112
515.40 1.238352
515.50 1.216497
515.60 1.23972
515.70 1.415122
515.80 1.608025
515.90 1.68448
516.00 1.689441
516.10 1.723036
516.20 1.833572
516.30 1.897334
516.40 1.815551
516.50 1.828161
516.60 1.766651
516.70 1.431847
516.80 0.9665452
516.90 0.6777814
517.00 0.5873089
517.10 0.6097446
517.20 0.5749352
517.30 0.5810466
517.40 0.6032886
517.50 0.632285
517.60 0.7009035
517.70 0.7137266
517.80 0.7125404
517.90 0.7625959
518.00 0.7184626
518.10 0.6765116
518.20 0.6937921
518.30 0.7243629
518.40 0.7432428
518.50 0.8021977
518.60 0.9689939
518.70 1.112625
518.80 1.127644
518.90 1.131594
519.00 1.142605
519.10 1.140963
519.20 1.148845
519.30 1.125371
519.40 1.110625
519.50 1.157278
519.60 1.190129
519.70 1.229904
519.80 1.31962
519.90 1.349779
520.00 1.26717
520.10 1.152314
520.20 1.119704
520.30 1.17912
520.40 1.162877
520.50 1.022575
520.60 0.8719787
520.70 0.829658
520.80 0.8655427
520.90 0.8813426
521.00 0.8354617
521.10 0.8655493
521.20 1.103807
521.30 1.407651
521.40 1.604495
521.50 1.606807
521.60 1.562839
521.70 1.577415
521.80 1.604604
521.90 1.623533
522.00 1.673771
522.10 1.660473
522.20 1.711115
522.30 1.734738
522.40 1.692159
522.50 1.683768
522.60 1.648701
522.70 1.600991
522.80 1.624236
522.90 1.65767
523.00 1.780473
523.10 1.885982
523.20 1.885269
523.30 1.807234
523.40 1.761023
523.50 1.676293
523.60 1.739181
523.70 1.804758
523.80 1.819079
523.90 1.83096
524.00 1.862497
524.10 1.71324
524.20 1.531854
524.30 1.463734
524.40 1.483407
524.50 1.57874
524.60 1.606639
524.70 1.549272
524.80 1.498219
524.90 1.571936
525.00 1.612763
525.10 1.548802
525.20 1.538606
525.30 1.638896
525.40 1.761966
525.50 1.783422
525.60 1.740298
525.70 1.767341
525.80 1.87215
525.90 1.896594
526.00 1.842198
526.10 1.697727
526.20 1.616341
526.30 1.570222
526.40 1.538565
526.50 1.496669
526.60 1.467477
526.70 1.444945
526.80 1.527978
526.90 1.486493
527.00 1.318937
527.10 1.25131
527.20 1.404873
527.30 1.603111
527.40 1.732789
527.50 1.783139
527.60 1.804714
527.70 1.782848
527.80 1.800024
527.90 1.820523
528.00 1.821941
528.10 1.753998
528.20 1.684525
528.30 1.720188
528.40 1.7946
528.50 1.798482
528.60 1.843363
528.70 1.930016
528.80 2.005428
528.90 1.951544
529.00 1.929459
529.10 1.939314
529.20 1.911629
529.30 1.911683
529.40 1.92673
529.50 1.973648
529.60 1.99492
529.70 1.964487
529.80 1.877726
529.90 1.795982
530.00 1.745794
530.10 1.81676
530.20 1.902265
530.30 2.006088
530.40 2.07164
530.50 2.110826
530.60 2.110766
530.70 2.133513
530.80 1.982825
530.90 1.859781
531.00 1.865149
531.10 1.850208
531.20 1.829113
531.30 1.835924
531.40 1.847614
531.50 1.858817
531.60 1.919818
531.70 1.953335
531.80 1.952256
531.90 1.929347
532.00 1.902206
532.10 1.917316
532.20 1.923037
532.30 1.970965
532.40 1.956452
532.50 1.9135
532.60 1.938803
532.70 1.926536
532.80 1.795927
532.90 1.61337
533.00 1.570647
533.10 1.728769
533.20 1.889254
533.30 1.962203
533.40 1.930614
533.50 1.883929
533.60 1.875262
533.70 1.855584
533.80 1.892998
533.90 1.921844
534.00 1.950277
534.10 1.940731
534.20 1.937742
534.30 1.930269
534.40 1.959872
534.50 1.998076
534.60 2.030553
534.70 1.938697
534.80 1.898028
534.90 1.941558
535.00 1.99268
535.10 2.098373
535.20 2.278745
535.30 2.381084
535.40 2.347362
535.50 2.346941
535.60 2.331352
535.70 2.31845
535.80 2.258303
535.90 2.139073
536.00 2.026364
536.10 2.032165
536.20 2.045133
536.30 2.06417
536.40 2.079431
536.50 2.082037
536.60 2.021143
536.70 2.033761
536.80 2.070475
536.90 2.125302
537.00 2.103705
537.10 1.982171
537.20 1.888074
537.30 1.929979
537.40 2.022448
537.50 2.127398
537.60 2.198044
537.70 2.229952
537.80 2.261882
537.90 2.288556
538.00 2.358679
538.10 2.405951
538.20 2.396335
538.30 2.357217
538.40 2.356491
538.50 2.335708
538.60 2.305486
538.70 2.345783
538.80 2.416452
538.90 2.453735
539.00 2.466533
539.10 2.438638
539.20 2.380536
539.30 2.287342
539.40 2.280739
539.50 2.259803
539.60 2.243945
539.70 2.191949
539.80 2.155473
539.90 2.212206
540.00 2.379574
540.10 2.538334
540.20 2.606042
540.30 2.63006
540.40 2.590382
540.50 2.466697
540.60 2.271103
540.70 2.181487
540.80 2.217969
540.90 2.30084
541.00 2.273661
541.10 2.147148
541.20 2.152528
541.30 2.219582
541.40 2.282926
541.50 2.375644
541.60 2.480248
541.70 2.494873
541.80 2.471863
541.90 2.553402
542.00 2.603148
542.10 2.547613
542.20 2.512689
542.30 2.52299
542.40 2.475249
542.50 2.479458
542.60 2.492935
542.70 2.503633
542.80 2.544514
542.90 2.522188
543.00 2.388013
543.10 2.282214
543.20 2.277347
543.30 2.276712
543.40 2.31357
543.50 2.33467
543.60 2.322764
543.70 2.437576
543.80 2.573874
543.90 2.602251
544.00 2.611124
544.10 2.690368
544.20 2.83332
544.30 2.89051
544.40 2.91618
544.50 2.885643
544.60 2.776759
544.70 2.477807
544.80 2.118205
544.90 1.761787
545.00 1.472272
545.10 1.302366
545.20 1.247411
545.30 1.234293
545.40 1.246653
545.50 1.312701
545.60 1.319256
545.70 1.286744
545.80 1.304049
545.90 1.350671
546.00 1.388978
546.10 1.43253
546.20 1.452454
546.30 1.557256
546.40 1.593254
546.50 1.59875
546.60 1.648543
546.70 1.756545
546.80 1.843842
546.90 1.818645
547.00 1.702437
547.10 1.646995
547.20 1.683172
547.30 1.688576
547.40 1.692617
547.50 1.698438
547.60 1.717645
547.70 1.677467
547.80 1.694271
547.90 1.688475
548.00 1.684977
548.10 1.698037
548.20 1.735225
548.30 1.762646
548.40 1.834167
548.50 1.888777
548.60 1.90348
548.70 1.901741
548.80 1.886141
548.90 1.844828
549.00 1.817494
549.10 1.835861
549.20 1.892287
549.30 1.951802
549.40 1.962394
549.50 1.951031
549.60 1.894635
549.70 1.735998
549.80 1.587553
549.90 1.494128
550.00 1.391198
550.10 1.349344
550.20 1.310179
550.30 1.299176
550.40 1.329486
550.50 1.320469
550.60 1.265984
550.70 1.255576
550.80 1.290527
550.90 1.296456
551.00 1.317284
551.10 1.309117
551.20 1.285515
551.30 1.295829
551.40 1.235843
551.50 1.221006
551.60 1.24075
551.70 1.263271
551.80 1.207757
551.90 1.216884
552.00 1.228632
552.10 1.209504
552.20 1.203989
552.30 1.233867
552.40 1.233103
552.50 1.176961
552.60 1.140992
552.70 1.129459
552.80 1.192816
552.90 1.190745
553.00 1.182746
553.10 1.202194
553.20 1.178866
553.30 1.139132
553.40 1.140772
553.50 1.140314
553.60 1.054412
553.70 1.003524
553.80 1.020757
553.90 1.03753
554.00 1.025732
554.10 1.02153
554.20 1.034066
554.30 0.9835453
554.40 0.9873431
554.50 1.04775
554.60 1.014984
554.70 0.9750272
554.80 1.012062
554.90 1.070899
555.00 1.090751
555.10 1.096757
555.20 1.094176
555.30 1.150125
555.40 1.153077
555.50 1.136299
555.60 1.177379
555.70 1.28312
555.80 1.370074
555.90 1.375998
556.00 1.374396
556.10 1.388161
556.20 1.41288
556.30 1.441963
556.40 1.473009
556.50 1.528851
556.60 1.595204
556.70 1.587638
556.80 1.568658
556.90 1.538767
557.00 1.616443
557.10 1.707649
557.20 1.703854
557.30 1.701894
557.40 1.70184
557.50 1.701842
557.60 1.701842
557.70 1.701842
557.80 1.701842
557.90 1.701842
558.00 1.701842
558.10 1.701837
558.20 1.701783
558.30 1.700931
558.40 1.692805
558.50 1.760096
558.60 1.939191
558.70 2.004022
558.80 1.965227
558.90 1.8736
559.00 1.797819
559.10 1.854137
559.20 1.939521
559.30 1.947427
559.40 1.906242
559.50 1.87868
559.60 1.842483
559.70 1.832694
559.80 1.759552
559.90 1.579787
560.00 1.440181
560.10 1.46179
560.20 1.556476
560.30 1.652484
560.40 1.665604
560.50 1.584756
560.60 1.531747
560.70 1.534305
560.80 1.56851
560.90 1.602656
561.00 1.607365
561.10 1.60768
561.20 1.657361
561.30 1.699147
561.40 1.749638
561.50 1.715102
561.60 1.631392
561.70 1.573258
561.80 1.576244
561.90 1.574809
562.00 1.52086
562.10 1.519708
562.20 1.53747
562.30 1.550417
562.40 1.588007
562.50 1.64
562.60 1.635638
562.70 1.65527
562.80 1.719054
562.90 1.687367
563.00 1.537027
563.10 1.383644
563.20 1.362368
563.30 1.423441
563.40 1.558499
563.50 1.670732
563.60 1.655146
563.70 1.621385
563.80 1.620105
563.90 1.616341
564.00 1.611579
564.10 1.596228
564.20 1.574984
564.30 1.573925
564.40 1.597367
564.50 1.599943
564.60 1.61115
564.70 1.63863
564.80 1.688995
564.90 1.738703
565.00 1.78377
565.10 1.81167
565.20 1.847992
565.30 1.888324
565.40 1.902579
565.50 1.882572
565.60 1.890381
565.70 1.934602
565.80 1.95672
565.90 1.963573
566.00 1.989902
566.10 1.975381
566.20 1.876851
566.30 1.821989
566.40 1.763497
566.50 1.717975
566.60 1.711414
566.70 1.751929
566.80 1.757081
566.90 1.676389
567.00 1.622722
567.10 1.608005
567.20 1.630329
567.30 1.64501
567.40 1.64443
567.50 1.676315
567.60 1.721441
567.70 1.747103
567.80 1.778237
567.90 1.808632
568.00 1.861246
568.10 1.879906
568.20 1.866649
568.30 1.854915
568.40 1.876894
568.50 1.968065
568.60 2.013309
568.70 2.024072
568.80 1.961109
568.90 1.897656
569.00 1.870709
569.10 1.87893
569.20 1.943176
569.30 1.972087
569.40 1.985165
569.50 1.953268
569.60 1.925214
569.70 1.931264
569.80 1.983358
569.90 2.02829
570.00 2.041485
570.10 2.063741
570.20 2.124012
570.30 2.094485
570.40 2.01525
570.50 2.11034
570.60 2.217765
570.70 2.230287
570.80 2.216361
570.90 2.260942
571.00 2.276544
571.10 2.299989
571.20 2.304913
571.30 2.284984
571.40 2.214543
571.50 2.143682
571.60 2.14291
571.70 2.118484
571.80 2.070579
571.90 2.034985
572.00 2.023861
572.10 2.020242
572.20 2.055883
572.30 2.095518
572.40 2.147957
572.50 2.124851
572.60 2.145593
572.70 2.135763
572.80 2.119815
572.90 2.060568
573.00 2.089145
573.10 2.154691
573.20 2.249353
573.30 2.286348
573.40 2.309221
573.50 2.284753
573.60 2.262708
573.70 2.207943
573.80 2.185369
573.90 2.163404
574.00 2.116695
574.10 2.173988
574.20 2.28136
574.30 2.273892
574.40 2.217698
574.50 2.283858
574.60 2.361158
574.70 2.359171
574.80 2.382576
574.90 2.404487
575.00 2.422935
575.10 2.497982
575.20 2.535917
575.30 2.511589
575.40 2.511747
575.50 2.53597
575.60 2.551824
575.70 2.566882
575.80 2.587265
575.90 2.521299
576.00 2.322135
576.10 2.125862
576.20 2.007576
576.30 1.909471
576.40 1.858787
576.50 1.830887
576.60 1.823372
576.70 1.859127
576.80 1.92465
576.90 1.997127
577.00 2.046742
577.10 2.063958
577.20 2.034959
577.30 2.004538
577.40 2.065989
577.50 2.081684
577.60 2.077081
577.70 2.032713
577.80 2.08303
577.90 2.127798
578.00 2.158691
578.10 2.192119
578.20 2.219247
578.30 2.196562
578.40 2.205016
578.50 2.312227
578.60 2.370297
578.70 2.30307
578.80 2.234251
578.90 2.275788
579.00 2.304155
579.10 2.274929
579.20 2.282436
579.30 2.385785
579.40 2.482868
579.50 2.537901
579.60 2.604623
579.70 2.596712
579.80 2.568985
579.90 2.58574
580.00 2.653392
580.10 2.665104
580.20 2.642642
580.30 2.623859
580.40 2.668328
580.50 2.708625
580.60 2.676431
580.70 2.663245
580.80 2.713753
580.90 2.71524
581.00 2.643643
581.10 2.52273
581.20 2.312527
581.30 2.164192
581.40 2.109194
581.50 2.026614
581.60 1.980418
581.70 1.971821
581.80 1.949822
581.90 1.881364
582.00 1.869457
582.10 1.910403
582.20 1.921153
582.30 1.879052
582.40 1.92492
582.50 1.92285
582.60 1.937692
582.70 2.003964
582.80 2.037066
582.90 1.985864
583.00 2.013297
583.10 2.087541
583.20 2.119375
583.30 2.164695
583.40 2.240618
583.50 2.241543
583.60 2.189506
583.70 2.163701
583.80 2.081693
583.90 2.036084
584.00 2.029562
584.10 2.015135
584.20 2.004085
584.30 2.038498
584.40 2.101534
584.50 2.152064
584.60 2.133519
584.70 2.08391
584.80 1.996182
584.90 1.845651
585.00 1.667327
585.10 1.553281
585.20 1.513724
585.30 1.504161
585.40 1.534082
585.50 1.550668
585.60 1.544768
585.70 1.515564
585.80 1.483321
585.90 1.502494
586.00 1.527159
586.10 1.49239
586.20 1.547175
586.30 1.509023
586.40 1.394703
586.50 1.33864
586.60 1.370921
586.70 1.384719
586.80 1.424849
586.90 1.513671
587.00 1.516145
587.10 1.420556
587.20 1.325993
587.30 1.263106
587.40 1.213178
587.50 1.228472
587.60 1.249535
587.70 1.261288
587.80 1.243758
587.90 1.178704
588.00 1.14207
588.10 1.120623
588.20 1.124523
588.30 1.081346
588.40 1.030161
588.50 1.006618
588.60 0.9282724
588.70 0.8315026
588.80 0.77807
588.90 0.7775009
589.00 0.8073302
589.10 0.7503039
589.20 0.6092104
589.30 0.6087029
589.40 0.7195775
589.50 0.7597034
589.60 0.6493739
589.70 0.5405232
589.80 0.5540992
589.90 0.5597795
590.00 0.7042371
590.10 0.8568604
590.20 0.9546796
590.30 0.9287811
590.40 0.9288385
590.50 0.9530264
590.60 0.981839
590.70 1.039813
590.80 1.009738
590.90 0.9548699
591.00 0.9992235
591.10 1.093894
591.20 1.109551
591.30 1.069868
591.40 1.061087
591.50 1.076654
591.60 1.094886
591.70 1.136743
591.80 1.190458
591.90 1.227678
592.00 1.220622
592.10 1.203983
592.20 1.210564
592.30 1.211954
592.40 1.189865
592.50 1.143277
592.60 1.173471
592.70 1.15325
592.80 1.132162
592.90 1.166452
593.00 1.190298
593.10 1.210581
593.20 1.209973
593.30 1.252524
593.40 1.308107
593.50 1.302353
593.60 1.341131
593.70 1.41289
593.80 1.475021
593.90 1.476298
594.00 1.426091
594.10 1.43405
594.20 1.44295
594.30 1.469391
594.40 1.504838
594.50 1.551416
594.60 1.55191
594.70 1.545776
594.80 1.539017
594.90 1.485812
595.00 1.439106
595.10 1.40809
595.20 1.367574
595.30 1.318264
595.40 1.34307
595.50 1.388406
595.60 1.389168
595.70 1.37347
595.80 1.313003
595.90 1.273233
596.00 1.239562
596.10 1.26422
596.20 1.309738
596.30 1.325824
596.40 1.323426
596.50 1.328322
596.60 1.382338
596.70 1.406806
596.80 1.447745
596.90 1.450679
597.00 1.440316
597.10 1.44846
597.20 1.435306
597.30 1.390327
597.40 1.34944
597.50 1.348187
597.60 1.37783
597.70 1.405829
597.80 1.446195
597.90 1.470769
598.00 1.495962
598.10 1.501005
598.20 1.5038
598.30 1.558086
598.40 1.571514
598.50 1.549992
598.60 1.568792
598.70 1.563252
598.80 1.582923
598.90 1.577778
599.00 1.600013
599.10 1.620449
599.20 1.658483
599.30 1.717258
599.40 1.7478
599.50 1.733263
599.60 1.761588
599.70 1.78475
599.80 1.78482
599.90 1.766157
600.00 1.730595
600.10 1.693581
600.20 1.648598
600.30 1.609741
600.40 1.63982
600.50 1.66334
600.60 1.647359
600.70 1.63795
600.80 1.659584
600.90 1.645886
601.00 1.62713
601.10 1.667105
601.20 1.703676
601.30 1.722998
601.40 1.724606
601.50 1.726504
601.60 1.736911
601.70 1.764233
601.80 1.785369
601.90 1.79377
602.00 1.806441
602.10 1.794669
602.20 1.786262
602.30 1.78963
602.40 1.83134
602.50 1.871478
602.60 1.869451
602.70 1.861538
602.80 1.890242
602.90 1.905165
603.00 1.914178
603.10 1.907128
603.20 1.935815
603.30 1.953474
603.40 1.998066
603.50 1.990756
603.60 1.923685
603.70 1.831258
603.80 1.744408
603.90 1.700042
604.00 1.780661
604.10 1.884969
604.20 1.942586
604.30 2.017606
604.40 2.030977
604.50 2.027248
604.60 2.036265
604.70 2.121868
604.80 2.20814
604.90 2.181352
605.00 2.130921
605.10 2.183586
605.20 2.198893
605.30 2.122465
605.40 2.041392
605.50 2.058633
605.60 2.104675
605.70 2.155091
605.80 2.176952
605.90 2.180058
606.00 2.191229
606.10 2.201846
606.20 2.209645
606.30 2.1836
606.40 2.138843
606.50 2.07071
606.60 1.977599
606.70 1.964758
606.80 2.05403
606.90 2.188793
607.00 2.27029
607.10 2.297224
607.20 2.318985
607.30 2.27081
607.40 2.204774
607.50 2.170413
607.60 2.201808
607.70 2.254272
607.80 2.294013
607.90 2.265817
608.00 2.153259
608.10 2.05911
608.20 2.024174
608.30 2.047957
608.40 2.091214
608.50 2.095085
608.60 2.111819
608.70 2.167095
608.80 2.19578
608.90 2.188448
609.00 2.168456
609.10 2.173894
609.20 2.195553
609.30 2.262526
609.40 2.291783
609.50 2.300304
609.60 2.311787
609.70 2.322124
609.80 2.355134
609.90 2.362281
610.00 2.334846
610.10 2.304494
610.20 2.260761
610.30 2.196725
610.40 2.103906
610.50 2.096901
610.60 2.142438
610.70 2.208662
610.80 2.26902
610.90 2.313718
611.00 2.310956
611.10 2.26677
611.20 2.227678
611.30 2.238877
611.40 2.27122
611.50 2.290244
611.60 2.273579
611.70 2.20399
611.80 2.117301
611.90 2.120597
612.00 2.150853
612.10 2.141471
612.20 2.0744
612.30 2.006231
612.40 2.018074
612.50 2.097695
612.60 2.185554
612.70 2.240688
612.80 2.181553
612.90 2.15223
613.00 2.263016
613.10 2.328287
613.20 2.252197
613.30 2.180781
613.40 2.159549
613.50 2.136466
613.60 2.14262
613.70 2.160249
613.80 2.163277
613.90 2.142553
614.00 2.20239
614.10 2.262009
614.20 2.252777
614.30 2.20439
614.40 2.219653
614.50 2.278245
614.60 2.302532
614.70 2.304068
614.80 2.242819
614.90 2.095888
615.00 1.950411
615.10 1.799465
615.20 1.729151
615.30 1.776073
615.40 1.85545
615.50 1.847426
615.60 1.765247
615.70 1.73234
615.80 1.714897
615.90 1.611433
616.00 1.456173
616.10 1.308122
616.20 1.188341
616.30 1.113364
616.40 1.09932
616.50 1.141754
616.60 1.165645
616.70 1.150789
616.80 1.158026
616.90 1.19018
617.00 1.223059
617.10 1.208638
617.20 1.22642
617.30 1.269905
617.40 1.258314
617.50 1.211516
617.60 1.20229
617.70 1.176217
617.80 1.181717
617.90 1.220303
618.00 1.239695
618.10 1.216439
618.20 1.189412
618.30 1.220301
618.40 1.228358
618.50 1.176929
618.60 1.151247
618.70 1.121102
618.80 1.102314
618.90 1.084915
619.00 1.05472
619.10 1.030671
619.20 1.013429
619.30 1.029934
619.40 1.05089
619.50 1.043138
619.60 1.030695
619.70 1.030748
619.80 1.013574
619.90 1.043678
620.00 1.107905
620.10 1.13697
620.20 1.101299
620.30 1.096085
620.40 1.131
620.50 1.150451
620.60 1.165745
620.70 1.169797
620.80 1.178169
620.90 1.19818
621.00 1.187737
621.10 1.184243
621.20 1.181342
621.30 1.121921
621.40 1.086174
621.50 1.084106
621.60 1.054339
621.70 1.006005
621.80 0.9856648
621.90 1.002917
622.00 1.040009
622.10 1.060342
622.20 1.062231
622.30 1.014119
622.40 0.9642876
622.50 0.9137892
622.60 0.9168279
622.70 0.95366
622.80 0.9420199
622.90 0.9510803
623.00 0.9758785
623.10 0.9668025
623.20 0.9512156
623.30 0.9463937
623.40 0.979926
623.50 1.009277
623.60 1.01728
623.70 1.06819
623.80 1.056212
623.90 0.9599194
624.00 0.9380446
624.10 1.007126
624.20 1.046237
624.30 1.021834
624.40 1.035221
624.50 1.053835
624.60 1.066488
624.70 1.08361
624.80 1.071058
624.90 1.09769
625.00 1.119844
625.10 1.119862
625.20 1.129845
625.30 1.160464
625.40 1.192858
625.50 1.175164
625.60 1.162392
625.70 1.179807
625.80 1.200429
625.90 1.258348
626.00 1.299937
626.10 1.296683
626.20 1.285009
626.30 1.292525
626.40 1.355034
626.50 1.400476
626.60 1.416172
626.70 1.410456
626.80 1.344988
626.90 1.296603
627.00 1.303876
627.10 1.34965
627.20 1.396238
627.30 1.444024
627.40 1.497396
627.50 1.484842
627.60 1.412148
627.70 1.383436
627.80 1.375376
627.90 1.34179
628.00 1.34377
628.10 1.395213
628.20 1.443708
628.30 1.459309
628.40 1.495249
628.50 1.532974
628.60 1.564593
628.70 1.608982
628.80 1.647196
628.90 1.650622
629.00 1.660973
629.10 1.687832
629.20 1.685625
629.30 1.698663
629.40 1.704174
629.50 1.717514
629.60 1.728577
629.70 1.772104
629.80 1.811268
629.90 1.864045
630.00 1.930828
630.10 2.102005
630.20 2.065986
630.30 1.746942
630.40 1.773033
630.50 1.962107
630.60 2.110493
630.70 2.131734
630.80 2.127636
630.90 2.146663
631.00 2.150244
631.10 2.158515
631.20 2.213157
631.30 2.283467
631.40 2.343324
631.50 2.367444
631.60 2.387765
631.70 2.416247
631.80 2.437027
631.90 2.475553
632.00 2.493481
632.10 2.479033
632.20 2.423848
632.30 2.35543
632.40 2.316758
632.50 2.331928
632.60 2.395255
632.70 2.42013
632.80 2.461054
632.90 2.4964
633.00 2.510459
633.10 2.515545
633.20 2.500457
633.30 2.536218
633.40 2.575029
633.50 2.640446
633.60 2.691795
633.70 2.688848
633.80 2.679884
633.90 2.694615
634.00 2.737536
634.10 2.81551
634.20 2.918255
634.30 2.970335
634.40 2.945525
634.50 2.937743
634.60 2.954417
634.70 2.99377
634.80 3.051376
634.90 3.085773
635.00 3.0934
635.10 3.080746
635.20 3.009129
635.30 2.897682
635.40 2.824201
635.50 2.789055
635.60 2.757176
635.70 2.726828
635.80 2.664817
635.90 2.577995
636.00 2.54032
636.10 2.561001
636.20 2.605499
636.30 2.674245
636.40 2.73405
636.50 2.707107
636.60 2.614739
636.70 2.53951
636.80 2.596709
636.90 2.658457
637.00 2.675063
637.10 2.70181
637.20 2.745054
637.30 2.784368
637.40 2.77133
637.50 2.724406
637.60 2.72285
637.70 2.742147
637.80 2.733049
637.90 2.703932
638.00 2.626293
638.10 2.513642
638.20 2.393222
638.30 2.337077
638.40 2.361742
638.50 2.437317
638.60 2.470476
638.70 2.43712
638.80 2.38184
638.90 2.368609
639.00 2.400519
639.10 2.465944
639.20 2.539853
639.30 2.59491
639.40 2.658508
639.50 2.748501
639.60 2.832719
639.70 2.921197
639.80 2.983252
639.90 3.025226
640.00 3.047237
640.10 3.037682
640.20 3.061343
640.30 3.106175
640.40 3.174122
640.50 3.246718
640.60 3.307553
640.70 3.33825
640.80 3.358714
640.90 3.378661
641.00 3.377208
641.10 3.379868
641.20 3.37877
641.30 3.372225
641.40 3.35199
641.50 3.323776
641.60 3.279061
641.70 3.230706
641.80 3.204889
641.90 3.17785
642.00 3.141162
642.10 3.117183
642.20 3.065063
642.30 3.014365
642.40 3.008529
642.50 3.048332
642.60 3.105306
642.70 3.138748
642.80 3.156917
642.90 3.169507
643.00 3.176003
643.10 3.218747
643.20 3.272294
643.30 3.282251
643.40 3.279204
643.50 3.287261
643.60 3.327662
643.70 3.356666
643.80 3.320001
643.90 3.281717
644.00 3.249218
644.10 3.27003
644.20 3.38029
644.30 3.529237
644.40 3.644299
644.50 3.696298
644.60 3.72075
644.70 3.682187
644.80 3.586402
644.90 3.48468
645.00 3.398158
645.10 3.317273
645.20 3.343286
645.30 3.483424
645.40 3.618805
645.50 3.687643
645.60 3.669341
645.70 3.668476
645.80 3.681989
645.90 3.713613
646.00 3.740537
646.10 3.740659
646.20 3.688755
646.30 3.610169
646.40 3.564037
646.50 3.608159
646.60 3.728019
646.70 3.849727
646.80 3.959346
646.90 4.032359
647.00 4.052723
647.10 4.053156
647.20 4.052741
647.30 4.099537
647.40 4.160049
647.50 4.160838
647.60 4.158359
647.70 4.185348
647.80 4.182173
647.90 4.128805
648.00 3.992267
648.10 3.834912
648.20 3.728865
648.30 3.699202
648.40 3.67043
648.50 3.590873
648.60 3.519049
648.70 3.53169
648.80 3.594225
648.90 3.665068
649.00 3.740354
649.10 3.828959
649.20 3.871303
649.30 3.819046
649.40 3.763776
649.50 3.718066
649.60 3.711661
649.70 3.754786
649.80 3.841901
649.90 3.927071
650.00 3.99111
650.10 4.012447
650.20 4.042284
650.30 4.14455
650.40 4.273919
650.50 4.362536
650.60 4.373258
650.70 4.408652
650.80 4.478469
650.90 4.485345
651.00 4.497532
651.10 4.554945
651.20 4.567218
651.30 4.528195
651.40 4.428803
651.50 4.351266
651.60 4.331513
651.70 4.381983
651.80 4.464923
651.90 4.528593
652.00 4.593168
652.10 4.654749
652.20 4.748785
652.30 4.841829
652.40 4.884522
652.50 4.869641
652.60 4.858898
652.70 4.901537
652.80 4.963075
652.90 5.033091
653.00 5.085134
653.10 5.1247
653.20 5.167368
653.30 5.183041
653.40 5.186719
653.50 5.205181
653.60 5.277918
653.70 5.3708
653.80 5.441818
653.90 5.53206
654.00 5.638201
654.10 5.677735
654.20 5.652628
654.30 5.567242
654.40 5.427728
654.50 5.253453
654.60 5.095867
654.70 4.992594
654.80 4.939095
654.90 4.862877
655.00 4.722933
655.10 4.590576
655.20 4.498928
655.30 4.450175
655.40 4.451875
655.50 4.462548
655.60 4.483773
655.70 4.522969
655.80 4.610671
655.90 4.735202
656.00 4.856782
656.10 5.088253
656.20 5.706181
656.30 6.588315
656.40 7.230617
656.50 7.129216
656.60 6.260652
656.70 5.172535
656.80 4.420935
656.90 4.153731
657.00 4.112041
657.10 4.089673
657.20 3.994536
657.30 3.854445
657.40 3.8159
657.50 3.832137
657.60 3.909417
657.70 4.030926
657.80 4.079173
657.90 4.039045
658.00 3.884234
658.10 3.740518
658.20 3.732602
658.30 3.848241
658.40 3.973041
658.50 4.04913
658.60 4.116685
658.70 4.205146
658.80 4.288953
658.90 4.360409
659.00 4.404064
659.10 4.381847
659.20 4.331294
659.30 4.243965
659.40 4.102202
659.50 3.940222
659.60 3.833704
659.70 3.827932
659.80 3.895704
659.90 3.938271
660.00 3.953889
660.10 3.925868
660.20 3.886019
660.30 3.917296
660.40 3.984697
660.50 4.019802
660.60 3.965434
660.70 3.89845
660.80 3.88582
660.90 3.903521
661.00 3.907229
661.10 3.914036
661.20 3.966796
661.30 4.026927
661.40 4.074905
661.50 4.08838
661.60 4.046001
661.70 3.988385
661.80 3.906225
661.90 3.789119
662.00 3.702301
662.10 3.670411
662.20 3.643475
662.30 3.618887
662.40 3.601466
662.50 3.531879
662.60 3.385282
662.70 3.251241
662.80 3.189142
662.90 3.199
663.00 3.258117
663.10 3.375865
663.20 3.492244
663.30 3.582425
663.40 3.635981
663.50 3.586854
663.60 3.433047
663.70 3.215911
663.80 3.056805
663.90 3.039985
664.00 3.100507
664.10 3.179764
664.20 3.254448
664.30 3.337454
664.40 3.40938
664.50 3.442162
664.60 3.437004
664.70 3.442002
664.80 3.443174
664.90 3.379745
665.00 3.229613
665.10 3.002699
665.20 2.781082
665.30 2.601332
665.40 2.509809
665.50 2.545799
665.60 2.631819
665.70 2.676502
665.80 2.656498
665.90 2.648791
666.00 2.678041
666.10 2.724945
666.20 2.774415
666.30 2.808279
666.40 2.861028
666.50 2.914129
666.60 2.961434
666.70 3.021827
666.80 3.067487
666.90 3.118508
667.00 3.170304
667.10 3.186686
667.20 3.194292
667.30 3.18298
667.40 3.15505
667.50 3.115343
667.60 3.090385
667.70 3.099776
667.80 3.128378
667.90 3.138145
668.00 3.065792
668.10 2.887515
668.20 2.635652
668.30 2.411865
668.40 2.310428
668.50 2.315196
668.60 2.378674
668.70 2.445135
668.80 2.473536
668.90 2.516849
669.00 2.543296
669.10 2.549956
669.20 2.536109
669.30 2.503201
669.40 2.482423
669.50 2.488105
669.60 2.537933
669.70 2.600487
669.80 2.643802
669.90 2.680284
670.00 2.716512
670.10 2.741568
670.20 2.757357
670.30 2.791054
670.40 2.826537
670.50 2.841515
670.60 2.861579
670.70 2.895279
670.80 2.902124
670.90 2.901962
671.00 2.922132
671.10 2.93241
671.20 2.925494
671.30 2.904848
671.40 2.835755
671.50 2.677783
671.60 2.4863
671.70 2.317951
671.80 2.202699
671.90 2.11945
672.00 2.072368
672.10 2.072833
672.20 2.108518
672.30 2.144896
672.40 2.181972
672.50 2.239702
672.60 2.290711
672.70 2.346953
672.80 2.409265
672.90 2.441478
673.00 2.421264
673.10 2.398498
673.20 2.41953
673.30 2.459463
673.40 2.491817
673.50 2.49076
673.60 2.475111
673.70 2.474065
673.80 2.500135
673.90 2.566282
674.00 2.625287
674.10 2.644187
674.20 2.648768
674.30 2.657668
674.40 2.691256
674.50 2.745007
674.60 2.780486
674.70 2.712942
674.80 2.563852
674.90 2.406581
675.00 2.30564
675.10 2.300624
675.20 2.314823
675.30 2.34788
675.40 2.389936
675.50 2.444191
675.60 2.475236
675.70 2.478875
675.80 2.512819
675.90 2.540064
676.00 2.524774
676.10 2.515396
676.20 2.555268
676.30 2.617829
676.40 2.66451
676.50 2.709458
676.60 2.765216
676.70 2.818269
676.80 2.858096
676.90 2.873882
677.00 2.860994
677.10 2.854577
677.20 2.862899
677.30 2.876711
677.40 2.91831
677.50 2.956886
677.60 2.985897
677.70 3.021191
677.80 3.031691
677.90 3.012876
678.00 2.987206
678.10 2.927857
678.20 2.793398
678.30 2.604569
678.40 2.435827
678.50 2.331707
678.60 2.287924
678.70 2.296904
678.80 2.343997
678.90 2.411868
679.00 2.451774
679.10 2.466567
679.20 2.489085
679.30 2.499119
679.40 2.50103
679.50 2.516339
679.60 2.559795
679.70 2.600781
679.80 2.61506
679.90 2.614733
680.00 2.602765
680.10 2.621881
680.20 2.680167
680.30 2.719187
680.40 2.741182
680.50 2.746477
680.60 2.723111
680.70 2.696828
680.80 2.679669
680.90 2.695773
681.00 2.737975
681.10 2.760949
681.20 2.794743
681.30 2.844883
681.40 2.876664
681.50 2.868773
681.60 2.79648
681.70 2.68783
681.80 2.611372
681.90 2.627377
682.00 2.673388
682.10 2.695821
682.20 2.710461
682.30 2.714428
682.40 2.696456
682.50 2.690051
682.60 2.723399
682.70 2.789562
682.80 2.858742
682.90 2.907661
683.00 2.919682
683.10 2.905614
683.20 2.904102
683.30 2.895362
683.40 2.89658
683.50 2.906769
683.60 2.914811
683.70 2.888225
683.80 2.845021
683.90 2.838427
684.00 2.853875
684.10 2.927804
684.20 2.99575
684.30 3.020834
684.40 3.031042
684.50 3.023808
684.60 3.006535
684.70 2.976414
684.80 2.958001
684.90 2.932365
685.00 2.898066
685.10 2.836834
685.20 2.734481
685.30 2.643741
685.40 2.61258
685.50 2.642252
685.60 2.688853
685.70 2.718293
685.80 2.729209
685.90 2.717596
686.00 2.692701
686.10 2.683866
686.20 2.70032
686.30 2.738016
686.40 2.818159
686.50 2.938672
686.60 2.997576
686.70 2.947323
686.80 2.834527
686.90 2.788236
687.00 2.807366
687.10 2.782985
687.20 2.792581
687.30 2.863564
687.40 2.962304
687.50 3.070939
687.60 3.138016
687.70 3.171156
687.80 3.196851
687.90 3.212801
688.00 3.205575
688.10 3.200767
688.20 3.175398
688.30 3.123293
688.40 3.072884
688.50 3.002531
688.60 2.947453
688.70 2.914261
688.80 2.941677
688.90 3.040027
689.00 3.122951
689.10 3.148653
689.20 3.143446
689.30 3.154693
689.40 3.17767
689.50 3.219546
689.60 3.260586
689.70 3.281248
689.80 3.28757
689.90 3.276028
690.00 3.231989
690.10 3.121231
690.20 2.971438
690.30 2.931774
690.40 3.017599
690.50 3.154513
690.60 3.307053
690.70 3.448874
690.80 3.56764
690.90 3.644827
691.00 3.66105
691.10 3.616398
691.20 3.571874
691.30 3.606835
691.40 3.700876
691.50 3.744601
691.60 3.73452
691.70 3.681839
691.80 3.521769
691.90 3.285163
692.00 3.081508
692.10 3.032328
692.20 3.174119
692.30 3.439552
692.40 3.701563
692.50 3.840616
692.60 3.855823
692.70 3.85842
692.80 3.855178
692.90 3.854318
693.00 3.901545
693.10 3.992183
693.20 4.106586
693.30 4.193014
693.40 4.252976
693.50 4.270004
693.60 4.241084
693.70 4.2314
693.80 4.261218
693.90 4.279456
694.00 4.291279
694.10 4.323675
694.20 4.39721
694.30 4.522119
694.40 4.681617
694.50 4.816506
694.60 4.887562
694.70 4.959727
694.80 5.057258
694.90 5.129758
695.00 5.147858
695.10 5.124952
695.20 5.071312
695.30 4.943045
695.40 4.793358
695.50 4.704456
695.60 4.692917
695.70 4.726882
695.80 4.743693
695.90 4.7302
696.00 4.702155
696.10 4.701991
696.20 4.722097
696.30 4.768015
696.40 4.839248
696.50 4.918527
696.60 4.99291
696.70 5.027296
696.80 5.040536
696.90 5.065186
697.00 5.072606
697.10 5.040097
697.20 4.981859
697.30 4.942747
697.40 4.963861
697.50 5.020291
697.60 5.109154
697.70 5.241641
697.80 5.364362
697.90 5.417556
698.00 5.425509
698.10 5.387583
698.20 5.366497
698.30 5.417777
698.40 5.478957
698.50 5.532248
698.60 5.555379
698.70 5.562508
698.80 5.563991
698.90 5.532773
699.00 5.461689
699.10 5.361659
699.20 5.277251
699.30 5.249064
699.40 5.290111
699.50 5.361613
699.60 5.421766
699.70 5.477469
699.80 5.527257
699.90 5.523814
700.00 5.471849
700.10 5.466981
700.20 5.536941
700.30 5.646237
700.40 5.676465
700.50 5.584704
700.60 5.4825
700.70 5.486988
700.80 5.613203
700.90 5.768688
701.00 5.838454
701.10 5.838296
701.20 5.853152
701.30 5.951677
701.40 6.110479
701.50 6.224979
701.60 6.257735
701.70 6.217333
701.80 6.160609
701.90 6.171067
702.00 6.264648
702.10 6.403855
702.20 6.489224
702.30 6.445197
702.40 6.277854
702.50 6.06314
702.60 5.947096
702.70 6.006614
702.80 6.250881
702.90 6.613613
703.00 6.928171
703.10 7.093599
703.20 7.113127
703.30 7.050814
703.40 7.006921
703.50 7.100399
703.60 7.328518
703.70 7.591115
703.80 7.736113
703.90 7.748476
704.00 7.743788
704.10 7.803382
704.20 7.934333
704.30 8.092679
704.40 8.1932
704.50 8.231257
704.60 8.257219
704.70 8.286144
704.80 8.331025
704.90 8.361391
705.00 8.352449
705.10 8.342941
705.20 8.319325
705.30 8.128661
705.40 7.539785
705.50 6.50939
705.60 5.29304
705.70 4.333828
705.80 3.932107
705.90 3.961259
706.00 4.065585
706.10 3.974584
706.20 3.771297
706.30 3.639101
706.40 3.676127
706.50 3.83874
706.60 4.013718
706.70 4.14771
706.80 4.248874
706.90 4.321378
707.00 4.370564
707.10 4.436793
707.20 4.54582
707.30 4.670456
707.40 4.75043
707.50 4.761761
707.60 4.734389
707.70 4.72819
707.80 4.752019
707.90 4.785869
708.00 4.828132
708.10 4.884335
708.20 4.964805
708.30 5.033079
708.40 5.07754
708.50 5.114476
708.60 5.096451
708.70 4.906172
708.80 4.449399
708.90 3.802628
709.00 3.204088
709.10 2.862671
709.20 2.827951
709.30 2.953049
709.40 3.052707
709.50 3.057799
709.60 3.004289
709.70 2.968964
709.80 3.022059
709.90 3.141957
710.00 3.252689
710.10 3.30531
710.20 3.296786
710.30 3.258886
710.40 3.24914
710.50 3.291336
710.60 3.385743
710.70 3.497241
710.80 3.614552
710.90 3.762771
711.00 3.927264
711.10 4.076398
711.20 4.173215
711.30 4.20322
711.40 4.190819
711.50 4.171294
711.60 4.143147
711.70 4.112058
711.80 4.122522
711.90 4.221236
712.00 4.376324
712.10 4.512069
712.20 4.610994
712.30 4.661057
712.40 4.583761
712.50 4.276387
712.60 3.722092
712.70 3.06187
712.80 2.535488
712.90 2.325938
713.00 2.374814
713.10 2.48674
713.20 2.517921
713.30 2.449003
713.40 2.387834
713.50 2.410485
713.60 2.492646
713.70 2.54881
713.80 2.550228
713.90 2.526989
714.00 2.517846
714.10 2.564765
714.20 2.674637
714.30 2.814699
714.40 2.918757
714.50 2.952809
714.60 2.942213
714.70 2.925655
714.80 2.94101
714.90 2.97968
715.00 3.011086
715.10 3.036834
715.20 3.082235
715.30 3.144321
715.40 3.229905
715.50 3.350853
715.60 3.469539
715.70 3.559673
715.80 3.544805
715.90 3.407748
716.00 3.237366
716.10 3.11351
716.20 3.0818
716.30 3.109357
716.40 3.146934
716.50 3.183877
716.60 3.209786
716.70 3.225549
716.80 3.236859
716.90 3.252526
717.00 3.303105
717.10 3.393948
717.20 3.487867
717.30 3.567487
717.40 3.603792
717.50 3.58706
717.60 3.565053
717.70 3.554195
717.80 3.574521
717.90 3.627353
718.00 3.710183
718.10 3.801146
718.20 3.8565
718.30 3.910961
718.40 3.96666
718.50 4.046664
718.60 4.154403
718.70 4.21136
718.80 4.22089
718.90 4.245503
719.00 4.297232
719.10 4.347328
719.20 4.367548
719.30 4.367663
719.40 4.366707
719.50 4.377128
719.60 4.369488
719.70 4.249539
719.80 4.030867
719.90 3.815957
720.00 3.678566
720.10 3.636208
720.20 3.660764
720.30 3.693639
720.40 3.706346
720.50 3.704403
720.60 3.705074
720.70 3.716707
720.80 3.748082
720.90 3.806449
721.00 3.851841
721.10 3.883829
721.20 3.927407
721.30 4.008716
721.40 4.093548
721.50 4.135587
721.60 4.160826
721.70 4.184188
721.80 4.247991
721.90 4.331589
722.00 4.373354
722.10 4.404503
722.20 4.455882
722.30 4.521108
722.40 4.588207
722.50 4.658635
722.60 4.753739
722.70 4.865999
722.80 4.950693
722.90 4.980822
723.00 4.944988
723.10 4.845111
723.20 4.739946
723.30 4.697492
723.40 4.732835
723.50 4.821522
723.60 4.933924
723.70 5.060803
723.80 5.148853
723.90 5.177431
724.00 5.18615
724.10 5.199631
724.20 5.198221
724.30 5.164411
724.40 5.216314
724.50 5.334474
724.60 5.462817
724.70 5.598702
724.80 5.631353
724.90 5.64374
725.00 5.76287
725.10 5.882868
725.20 5.918408
725.30 5.874171
725.40 5.818231
725.50 5.879021
725.60 6.01564
725.70 6.113538
725.80 6.140463
725.90 6.104653
726.00 6.086625
726.10 6.13269
726.20 6.229519
726.30 6.356463
726.40 6.493297
726.50 6.616791
726.60 6.670146
726.70 6.649977
726.80 6.655074
726.90 6.709046
727.00 6.686031
727.10 6.496971
727.20 6.214059
727.30 6.037452
727.40 6.092716
727.50 6.337494
727.60 6.646037
727.70 6.856224
727.80 6.817405
727.90 6.612653
728.00 6.458356
728.10 6.453333
728.20 6.562127
728.30 6.644529
728.40 6.71223
728.50 6.851945
728.60 7.016122
728.70 7.118303
728.80 7.142435
728.90 7.143422
729.00 7.204294
729.10 7.284856
729.20 7.325478
729.30 7.339694
729.40 7.339854
729.50 7.376147
729.60 7.476128
729.70 7.612456
729.80 7.723048
729.90 7.738535
730.00 7.683853
730.10 7.677865
730.20 7.762459
730.30 7.884171
730.40 7.993776
730.50 8.027708
730.60 8.00268
730.70 8.034816
730.80 8.157283
730.90 8.281283
731.00 8.320005
731.10 8.268571
731.20 8.236318
731.30 8.305103
731.40 8.433162
731.50 8.546061
731.60 8.678963
731.70 8.802329
731.80 8.808284
731.90 8.740306
732.00 8.68727
732.10 8.716831
732.20 8.814814
732.30 8.904676
732.40 8.941247
732.50 8.900013
732.60 8.744378
732.70 8.531922
732.80 8.477649
732.90 8.681293
733.00 8.963376
733.10 9.156404
733.20 9.214872
733.30 9.175984
733.40 9.169601
733.50 9.23477
733.60 9.352379
733.70 9.496685
733.80 9.606356
733.90 9.673217
734.00 9.751387
734.10 9.897593
734.20 10.03013
734.30 9.924604
734.40 9.594243
734.50 9.317959
734.60 9.2007
734.70 9.205729
734.80 9.336829
734.90 9.484371
735.00 9.599884
735.10 9.691509
735.20 9.755742
735.30 9.831014
735.40 9.874839
735.50 9.821731
735.60 9.689186
735.70 9.542755
735.80 9.487548
735.90 9.570833
736.00 9.721763
736.10 9.854925
736.20 9.911028
736.30 9.917998
736.40 9.985812
736.50 10.09606
736.60 10.16707
736.70 10.20239
736.80 10.26566
736.90 10.41087
737.00 10.61196
737.10 10.73454
737.20 10.68443
737.30 10.53892
737.40 10.44818
737.50 10.42045
737.60 10.39513
737.70 10.42107
737.80 10.50246
737.90 10.60539
738.00 10.6782
738.10 10.67943
738.20 10.65029
738.30 10.63948
738.40 10.65467
738.50 10.6903
738.60 10.74303
738.70 10.81614
738.80 10.90173
738.90 10.98783
739.00 11.0549
739.10 11.09663
739.20 11.08434
739.30 10.98793
739.40 10.83452
739.50 10.68487
739.60 10.60591
739.70 10.64743
739.80 10.77327
739.90 10.87167
740.00 10.87826
740.10 10.87368
740.20 10.94132
740.30 11.05666
740.40 11.11627
740.50 11.02582
740.60 10.84795
740.70 10.68898
740.80 10.63563
740.90 10.71629
741.00 10.84322
741.10 10.95949
741.20 11.03339
741.30 11.07095
741.40 11.1207
741.50 11.17705
741.60 11.202
741.70 11.13186
741.80 10.95928
741.90 10.79748
742.00 10.75492
742.10 10.83872
742.20 10.94253
742.30 10.9912
742.40 11.00474
742.50 11.0537
742.60 11.1305
742.70 11.19996
742.80 11.26064
742.90 11.31049
743.00 11.40044
743.10 11.49472
743.20 11.50869
743.30 11.463
743.40 11.36776
743.50 11.22154
743.60 11.05009
743.70 10.94021
743.80 11.0322
743.90 11.29557
744.00 11.56919
744.10 11.6527
744.20 11.46378
744.30 11.21353
744.40 11.12141
744.50 11.15275
744.60 11.18686
744.70 11.16978
744.80 11.07919
744.90 10.98752
745.00 10.97755
745.10 11.05451
745.20 11.21551
745.30 11.36654
745.40 11.41614
745.50 11.38052
745.60 11.29562
745.70 11.24979
745.80 11.28405
745.90 11.33957
746.00 11.36877
746.10 11.34766
746.20 11.3213
746.30 11.33732
746.40 11.35658
746.50 11.37733
746.60 11.439
746.70 11.50218
746.80 11.53027
746.90 11.54916
747.00 11.60285
747.10 11.74374
747.20 11.85179
747.30 11.80406
747.40 11.62982
747.50 11.45892
747.60 11.43251
747.70 11.52691
747.80 11.6627
747.90 11.77053
748.00 11.77095
748.10 11.67092
748.20 11.5736
748.30 11.57504
748.40 11.71782
748.50 11.89335
748.60 11.91155
748.70 11.76568
748.80 11.58197
748.90 11.49837
749.00 11.53299
749.10 11.60929
749.20 11.68375
749.30 11.70404
749.40 11.64374
749.50 11.52352
749.60 11.41859
749.70 11.42754
749.80 11.60419
749.90 11.89985
750.00 12.17058
750.10 12.29925
750.20 12.29424
750.30 12.24723
750.40 12.23793
750.50 12.24374
750.60 12.17809
750.70 12.03
750.80 11.91015
750.90 11.94077
751.00 12.15698
751.10 12.41892
751.20 12.51306
751.30 12.42253
751.40 12.28471
751.50 12.25791
751.60 12.36939
751.70 12.50371
751.80 12.56779
751.90 12.50501
752.00 12.34659
752.10 12.20433
752.20 12.14194
752.30 12.23147
752.40 12.46057
752.50 12.61314
752.60 12.53048
752.70 12.22518
752.80 11.85137
752.90 11.6824
753.00 11.7901
753.10 12.06525
753.20 12.37471
753.30 12.56433
753.40 12.57214
753.50 12.45424
753.60 12.33959
753.70 12.35896
753.80 12.5353
753.90 12.8034
754.00 13.05953
754.10 13.19083
754.20 13.18689
754.30 13.11324
754.40 13.06806
754.50 13.09423
754.60 13.13714
754.70 13.14462
754.80 13.09709
754.90 13.02866
755.00 13.00849
755.10 13.04554
755.20 13.10941
755.30 13.15899
755.40 13.14564
755.50 13.07604
755.60 13.0255
755.70 13.0265
755.80 13.06489
755.90 13.12678
756.00 13.18517
756.10 13.22462
756.20 13.20852
756.30 13.13512
756.40 13.05368
756.50 12.96106
756.60 12.84009
756.70 12.69433
756.80 12.53403
756.90 12.40669
757.00 12.39722
757.10 12.59789
757.20 13.0041
757.30 13.42856
757.40 13.65765
757.50 13.6364
757.60 13.47654
757.70 13.31507
757.80 13.16905
757.90 13.03576
758.00 13.03154
758.10 13.2307
758.20 13.55547
758.30 13.80057
758.40 13.86375
758.50 13.83629
758.60 13.78674
758.70 13.65623
758.80 13.24334
758.90 12.39758
759.00 11.20853
759.10 10.03067
759.20 9.256163
759.30 9.044579
759.40 9.308031
759.50 9.679409
759.60 9.869938
759.70 9.898647
759.80 9.940706
759.90 10.15326
760.00 10.46165
760.10 10.53798
760.20 10.22002
760.30 9.862127
760.40 9.884932
760.50 10.14126
760.60 10.2989
760.70 10.30758
760.80 10.20655
760.90 10.11081
761.00 10.09696
761.10 10.11757
761.20 10.30387
761.30 10.70112
761.40 11.09426
761.50 11.30978
761.60 11.25896
761.70 11.14572
761.80 11.287
761.90 11.59902
762.00 11.86308
762.10 11.9017
762.20 11.71082
762.30 11.53031
762.40 11.49802
762.50 11.56737
762.60 11.5103
762.70 11.11017
762.80 10.39525
762.90 9.552154
763.00 8.831115
763.10 8.367982
763.20 8.195797
763.30 8.305819
763.40 8.558132
763.50 8.708505
763.60 8.692221
763.70 8.65284
763.80 8.679765
763.90 8.791122
764.00 8.838475
764.10 8.691661
764.20 8.602333
764.30 8.752067
764.40 8.928376
764.50 8.953747
764.60 8.799468
764.70 8.671989
764.80 8.828466
764.90 9.029976
765.00 8.96803
765.10 8.752899
765.20 8.597256
765.30 8.629784
765.40 8.704934
765.50 8.554212
765.60 8.33425
765.70 8.305363
765.80 8.447261
765.90 8.571815
766.00 8.341311
766.10 7.733326
766.20 7.012902
766.30 6.250584
766.40 5.417079
766.50 4.491242
766.60 3.625521
766.70 3.209296
766.80 3.423143
766.90 4.094888
767.00 4.884467
767.10 5.460377
767.20 5.71136
767.30 5.726548
767.40 5.721618
767.50 5.822051
767.60 6.004887
767.70 6.205873
767.80 6.38114
767.90 6.534148
768.00 6.650248
768.10 6.73031
768.20 6.82258
768.30 6.921905
768.40 6.988098
768.50 7.023275
768.60 7.043039
768.70 7.074027
768.80 7.133246
768.90 7.196979
769.00 7.247769
769.10 7.267671
769.20 7.246651
769.30 7.222178
769.40 7.178459
769.50 7.027831
769.60 6.730729
769.70 6.240795
769.80 5.524728
769.90 4.682882
770.00 3.969217
770.10 3.688625
770.20 3.999686
770.30 4.754076
770.40 5.562025
770.50 6.134491
770.60 6.389055
770.70 6.428872
770.80 6.444362
770.90 6.548933
771.00 6.753205
771.10 6.998175
771.20 7.236976
771.30 7.426273
771.40 7.514166
771.50 7.465985
771.60 7.355698
771.70 7.353814
771.80 7.497443
771.90 7.605151
772.00 7.591148
772.10 7.580986
772.20 7.652643
772.30 7.763299
772.40 7.856484
772.50 7.965131
772.60 8.121211
772.70 8.287056
772.80 8.427113
772.90 8.519368
773.00 8.561081
773.10 8.588381
773.20 8.622801
773.30 8.672376
773.40 8.756308
773.50 8.843318
773.60 8.886739
773.70 8.915355
773.80 8.967656
773.90 9.040193
774.00 9.125992
774.10 9.18736
774.20 9.168262
774.30 9.02317
774.40 8.731562
774.50 8.38503
774.60 8.112691
774.70 7.949541
774.80 7.834627
774.90 7.699648
775.00 7.482401
775.10 7.226837
775.20 7.082951
775.30 7.061928
775.40 7.102067
775.50 7.19285
775.60 7.331925
775.70 7.443921
775.80 7.48349
775.90 7.49326
776.00 7.526533
776.10 7.64344
776.20 7.77032
776.30 7.769271
776.40 7.656229
776.50 7.533617
776.60 7.503225
776.70 7.618082
776.80 7.814004
776.90 8.008321
777.00 8.144553
777.10 8.188267
777.20 8.189341
777.30 8.228136
777.40 8.312902
777.50 8.397322
777.60 8.445893
777.70 8.453787
777.80 8.443986
777.90 8.450378
778.00 8.477348
778.10 8.467144
778.20 8.355766
778.30 8.155959
778.40 7.910307
778.50 7.684572
778.60 7.569575
778.70 7.560234
778.80 7.603204
778.90 7.689169
779.00 7.794233
779.10 7.915077
779.20 8.075253
779.30 8.238884
779.40 8.398744
779.50 8.550646
779.60 8.60737
779.70 8.531515
779.80 8.382
779.90 8.214996
780.00 8.056952
780.10 7.926561
780.20 7.884475
780.30 8.056797
780.40 8.43216
780.50 8.835623
780.60 9.145636
780.70 9.362915
780.80 9.523353
780.90 9.594027
781.00 9.535631
781.10 9.406885
781.20 9.293682
781.30 9.278069
781.40 9.396241
781.50 9.597614
781.60 9.790429
781.70 9.886076
781.80 9.879698
781.90 9.835228
782.00 9.779489
782.10 9.678278
782.20 9.450441
782.30 9.129303
782.40 8.944626
782.50 8.928979
782.60 8.959166
782.70 8.992
782.80 8.918548
782.90 8.664249
783.00 8.322218
783.10 8.065681
783.20 7.988483
783.30 8.093863
783.40 8.288316
783.50 8.460416
783.60 8.596497
783.70 8.68494
783.80 8.730929
783.90 8.778193
784.00 8.838377
784.10 8.902418
784.20 8.940437
784.30 8.93674
784.40 8.942925
784.50 9.00123
784.60 9.10513
784.70 9.228002
784.80 9.319014
784.90 9.342583
785.00 9.293822
785.10 9.244093
785.20 9.287414
785.30 9.410227
785.40 9.566725
785.50 9.626997
785.60 9.537048
785.70 9.452972
785.80 9.460078
785.90 9.551874
786.00 9.642209
786.10 9.64349
786.20 9.552467
786.30 9.373919
786.40 9.17974
786.50 9.074771
786.60 9.102487
786.70 9.241438
786.80 9.398083
786.90 9.50622
787.00 9.596381
787.10 9.607245
787.20 9.496133
787.30 9.383894
787.40 9.335517
787.50 9.363631
787.60 9.499731
787.70 9.713419
787.80 9.916786
787.90 10.07871
788.00 10.17104
788.10 10.19077
788.20 10.22841
788.30 10.29936
788.40 10.37164
788.50 10.40019
788.60 10.35755
788.70 10.31272
788.80 10.34137
788.90 10.46569
789.00 10.63393
789.10 10.73321
789.20 10.71693
789.30 10.65178
789.40 10.63231
789.50 10.66676
789.60 10.69983
789.70 10.68135
789.80 10.59173
789.90 10.46841
790.00 10.32433
790.10 10.18627
790.20 10.11508
790.30 10.14414
790.40 10.28294
790.50 10.46183
790.60 10.59157
790.70 10.5684
790.80 10.33547
790.90 9.991066
791.00 9.672431
791.10 9.488891
791.20 9.432625
791.30 9.499704
791.40 9.689546
791.50 9.859623
791.60 9.952584
791.70 9.951699
791.80 9.875482
791.90 9.816959
792.00 9.823492
792.10 9.910207
792.20 10.01152
792.30 10.0835
792.40 10.10071
792.50 10.06752
792.60 10.06788
792.70 10.10814
792.80 10.16006
792.90 10.22788
793.00 10.32981
793.10 10.50207
793.20 10.73932
793.30 10.97651
793.40 11.10208
793.50 11.08379
793.60 11.02903
793.70 11.00741
793.80 10.99721
793.90 10.95946
794.00 10.86623
794.10 10.71807
794.20 10.55838
794.30 10.47178
794.40 10.53569
794.50 10.6838
794.60 10.7323
794.70 10.56089
794.80 10.23814
794.90 9.98406
795.00 9.958746
795.10 10.19815
795.20 10.57066
795.30 10.90071
795.40 11.15097
795.50 11.30063
795.60 11.36442
795.70 11.40996
795.80 11.42661
795.90 11.39293
796.00 11.32972
796.10 11.2117
796.20 11.06562
796.30 11.00334
796.40 11.11823
796.50 11.41785
796.60 11.69238
796.70 11.71512
796.80 11.55985
796.90 11.48366
797.00 11.59452
797.10 11.77016
797.20 11.87833
797.30 11.89522
797.40 11.87719
797.50 11.87355
797.60 11.84845
797.70 11.7939
797.80 11.74879
797.90 11.72323
798.00 11.72974
798.10 11.73278
798.20 11.6616
798.30 11.54329
798.40 11.46594
798.50 11.47154
798.60 11.50673
798.70 11.4706
798.80 11.34703
798.90 11.23646
799.00 11.22236
799.10 11.34858
799.20 11.64118
799.30 11.97789
799.40 12.16028
799.50 12.07891
799.60 11.80186
799.70 11.58136
799.80 11.5371
799.90 11.55848
800.00 11.60383
800.10 11.70976
800.20 11.83736
800.30 11.93992
800.40 12.01662
800.50 12.05986
800.60 12.07201
800.70 12.08612
800.80 12.13762
800.90 12.2251
801.00 12.31207
801.10 12.36306
801.20 12.41057
801.30 12.49564
801.40 12.61007
801.50 12.71465
801.60 12.74833
801.70 12.7326
801.80 12.72698
801.90 12.74457
802.00 12.80206
802.10 12.85118
802.20 12.80214
802.30 12.70056
802.40 12.64368
802.50 12.70541
802.60 12.9035
802.70 13.06065
802.80 13.04703
802.90 12.97987
803.00 13.00617
803.10 13.13879
803.20 13.29229
803.30 13.39392
803.40 13.41464
803.50 13.39717
803.60 13.38195
803.70 13.35402
803.80 13.33202
803.90 13.33863
804.00 13.34344
804.10 13.34633
804.20 13.37352
804.30 13.42191
804.40 13.52453
804.50 13.66005
804.60 13.72263
804.70 13.6793
804.80 13.55366
804.90 13.42653
805.00 13.45722
805.10 13.71199
805.20 14.06797
805.30 14.36524
805.40 14.52462
805.50 14.54539
805.60 14.49928
805.70 14.44955
805.80 14.40446
805.90 14.38689
806.00 14.44835
806.10 14.59011
806.20 14.74076
806.30 14.80483
806.40 14.74155
806.50 14.60245
806.60 14.47063
806.70 14.42235
806.80 14.45978
806.90 14.46653
807.00 14.40222
807.10 14.34165
807.20 14.34804
807.30 14.45901
807.40 14.63078
807.50 14.77586
807.60 14.86729
807.70 14.90356
807.80 14.92912
807.90 14.99252
808.00 15.05774
808.10 15.10954
808.20 15.15091
808.30 15.17885
808.40 15.24371
808.50 15.34584
808.60 15.41869
808.70 15.42922
808.80 15.39081
808.90 15.34797
809.00 15.34355
809.10 15.39045
809.20 15.46763
809.30 15.53867
809.40 15.57785
809.50 15.56854
809.60 15.51623
809.70 15.4524
809.80 15.39723
809.90 15.37798
810.00 15.4
810.10 15.42823
810.20 15.45987
810.30 15.48765
810.40 15.48308
810.50 15.4403
810.60 15.39595
810.70 15.40565
810.80 15.50683
810.90 15.68886
811.00 15.84811
811.10 15.88292
811.20 15.83415
811.30 15.81242
811.40 15.86144
811.50 15.90546
811.60 15.81347
811.70 15.58156
811.80 15.35193
811.90 15.30261
812.00 15.50564
812.10 15.82598
812.20 16.08975
812.30 16.21602
812.40 16.21728
812.50 16.19713
812.60 16.22181
812.70 16.28708
812.80 16.37488
812.90 16.44815
813.00 16.48239
813.10 16.47317
813.20 16.43168
813.30 16.40335
813.40 16.40297
813.50 16.41341
813.60 16.43754
813.70 16.48235
813.80 16.58096
813.90 16.74299
814.00 16.87404
814.10 16.87323
814.20 16.71787
814.30 16.48261
814.40 16.27515
814.50 16.15772
814.60 16.18609
814.70 16.31183
814.80 16.37147
814.90 16.32457
815.00 16.22902
815.10 16.16767
815.20 16.23581
815.30 16.37219
815.40 16.44945
815.50 16.42286
815.60 16.33421
815.70 16.28662
815.80 16.30417
815.90 16.30928
816.00 16.23757
816.10 16.12341
816.20 16.03353
816.30 15.98609
816.40 16.01691
816.50 16.14168
816.60 16.32674
816.70 16.51898
816.80 16.64358
816.90 16.69345
817.00 16.67516
817.10 16.58909
817.20 16.51801
817.30 16.50158
817.40 16.50147
817.50 16.47507
817.60 16.39117
817.70 16.23323
817.80 15.9892
817.90 15.7171
818.00 15.44913
818.10 14.95507
818.20 13.98894
818.30 12.55544
818.40 10.98305
818.50 9.987271
818.60 10.07943
818.70 11.13965
818.80 12.58469
818.90 13.73333
819.00 14.31385
819.10 14.44772
819.20 14.22127
819.30 13.52043
819.40 12.25532
819.50 10.65736
819.60 9.336697
819.70 8.86395
819.80 9.372428
819.90 10.54353
820.00 11.82314
820.10 12.86917
820.20 13.6699
820.30 14.30683
820.40 14.78351
820.50 15.01024
820.60 14.95475
820.70 14.74208
820.80 14.56913
820.90 14.5672
821.00 14.75926
821.10 15.02561
821.20 15.23766
821.30 15.3544
821.40 15.36079
821.50 15.30417
821.60 15.27241
821.70 15.2826
821.80 15.31588
821.90 15.37308
822.00 15.42325
822.10 15.44344
822.20 15.48782
822.30 15.5719
822.40 15.66674
822.50 15.80383
822.60 15.96388
822.70 16.0648
822.80 16.08995
822.90 16.06666
823.00 16.08546
823.10 16.24267
823.20 16.43178
823.30 16.46062
823.40 16.29414
823.50 16.0483
823.60 15.91669
823.70 16.00272
823.80 16.2202
823.90 16.45779
824.00 16.68464
824.10 16.87203
824.20 16.94687
824.30 16.86665
824.40 16.6642
824.50 16.49304
824.60 16.51907
824.70 16.73962
824.80 17.08611
824.90 17.40051
825.00 17.48274
825.10 17.333
825.20 17.05096
825.30 16.71727
825.40 16.43911
825.50 16.24504
825.60 16.05327
825.70 15.82109
825.80 15.64362
825.90 15.6489
826.00 15.84944
826.10 16.19918
826.20 16.57949
826.30 16.81454
826.40 16.89893
826.50 16.93737
826.60 16.97746
826.70 17.06401
826.80 17.17164
826.90 17.18824
827.00 17.06936
827.10 16.82645
827.20 16.47186
827.30 16.07178
827.40 15.7211
827.50 15.51473
827.60 15.50669
827.70 15.62095
827.80 15.80832
827.90 16.05984
828.00 16.23522
828.10 16.2471
828.20 16.09061
828.30 15.83713
828.40 15.69044
828.50 15.69924
828.60 15.76543
828.70 15.79327
828.80 15.74263
828.90 15.6281
829.00 15.37948
829.10 15.08532
829.20 14.95586
829.30 14.94636
829.40 14.97064
829.50 15.02544
829.60 15.08241
829.70 15.19684
829.80 15.38077
829.90 15.52723
830.00 15.20964
830.10 15.03612
830.20 14.8626
830.30 14.63261
830.40 14.40263
830.50 14.35673
830.60 14.31084
830.70 14.41065
830.80 14.51046
830.90 14.76015
831.00 15.00985
831.10 15.10262
831.20 15.1954
831.30 15.11269
831.40 15.02998
831.50 15.04985
831.60 15.06972
831.70 15.25384
831.80 15.43796
831.90 15.47993
832.00 15.5219
832.10 15.58464
832.20 15.64738
832.30 15.70607
832.40 15.76475
832.50 15.76357
832.60 15.76239
832.70 15.38531
832.80 15.00823
832.90 14.82596
833.00 14.64368
833.10 15.07404
833.20 15.5044
833.30 15.57301
833.40 15.64162
833.50 15.33837
833.60 15.03513
833.70 14.95691
833.80 14.87869
833.90 15.05097
834.00 15.22325
834.10 15.39776
834.20 15.57226
834.30 15.68424
834.40 15.79622
834.50 15.76441
834.60 15.7326
834.70 15.39613
834.80 15.05966
834.90 14.90447
835.00 14.74928
835.10 14.99399
835.20 15.23869
835.30 15.27272
835.40 15.30675
835.50 15.2754
835.60 15.24405
835.70 15.30373
835.80 15.36342
835.90 15.45513
836.00 15.54683
836.10 15.5935
836.20 15.64018
836.30 15.47639
836.40 15.31261
836.50 15.17729
836.60 15.04198
836.70 15.21026
836.80 15.37855
836.90 15.67626
837.00 15.97397
837.10 16.07688
837.20 16.17979
837.30 15.87092
837.40 15.56204
837.50 15.22249
837.60 14.88294
837.70 14.72625
837.80 14.56956
837.90 14.65552
838.00 14.74149
838.10 14.83449
838.20 14.92749
838.30 14.82211
838.40 14.71672
838.50 14.55848
838.60 14.40024
838.70 14.12609
838.80 13.85195
838.90 13.71612
839.00 13.58029
839.10 13.89454
839.20 14.20879
839.30 14.52672
839.40 14.84465
839.50 14.87766
839.60 14.91068
839.70 14.95416
839.80 14.99764
839.90 15.15637
840.00 15.3151
840.10 15.48583
840.20 15.63278
840.30 15.66453
840.40 15.67015
840.50 15.69131
840.60 15.71497
840.70 15.74534
840.80 15.79562
840.90 15.86132
841.00 15.86363
841.10 15.79438
841.20 15.66968
841.30 15.51554
841.40 15.42472
841.50 15.66862
841.60 15.95251
841.70 16.0619
841.80 16.09105
841.90 15.91676
842.00 15.52632
842.10 15.2437
842.20 15.1199
842.30 14.94697
842.40 14.97933
842.50 15.03881
842.60 14.98791
842.70 14.81765
842.80 14.77627
842.90 14.87009
843.00 14.9269
843.10 14.89531
843.20 14.82598
843.30 14.31326
843.40 13.38597
843.50 12.57308
843.60 11.83017
843.70 11.0923
843.80 11.50234
843.90 12.07043
844.00 12.44789
844.10 12.78063
844.20 12.91615
844.30 12.41686
844.40 11.93471
844.50 11.5758
844.60 11.19632
844.70 11.11098
844.80 11.25567
844.90 11.31273
845.00 11.37581
845.10 11.42374
845.20 10.97325
845.30 10.54697
845.40 10.22295
845.50 9.891436
845.60 9.632648
845.70 9.699545
845.80 9.768779
845.90 9.917601
846.00 10.08973
846.10 10.24139
846.20 10.36609
846.30 10.35586
846.40 10.23697
846.50 10.18854
846.60 10.08787
846.70 9.958506
846.80 9.897576
846.90 9.852163
847.00 9.795234
847.10 9.830865
847.20 9.94111
847.30 10.06556
847.40 10.12535
847.50 10.11697
847.60 10.12287
847.70 10.18884
847.80 10.33802
847.90 10.53717
848.00 10.6197
848.10 10.67312
848.20 10.62894
848.30 10.5836
848.40 10.62261
848.50 10.74932
848.60 10.85414
848.70 10.96813
848.80 11.0945
848.90 11.21898
849.00 11.34596
849.10 11.46925
849.20 11.62911
849.30 11.74217
849.40 11.66186
849.50 11.6
849.60 11.39494
849.70 11.1846
849.80 11.10675
849.90 11.11407
850.00 11.07997
850.10 11.18812
850.20 11.24328
850.30 11.27273
850.40 11.32341
850.50 11.13939
850.60 10.75829
850.70 10.46423
850.80 10.27483
850.90 10.08389
851.00 10.30655
851.10 10.54442
851.20 10.65631
851.30 10.69822
851.40 10.71513
851.50 10.58305
851.60 10.4421
851.70 10.26906
851.80 10.12921
851.90 10.06097
852.00 10.00562
852.10 9.969218
852.20 10.04507
852.30 10.13862
852.40 10.41821
852.50 10.67204
852.60 10.81462
852.70 10.94485
852.80 11.03078
852.90 11.04577
853.00 11.05473
853.10 11.09506
853.20 11.15323
853.30 11.22149
853.40 11.28424
853.50 11.35952
853.60 11.46728
853.70 11.60232
853.80 11.6422
853.90 11.62122
854.00 11.57915
854.10 11.59904
854.20 11.73006
854.30 11.8392
854.40 11.89684
854.50 11.98302
854.60 11.99437
854.70 12.06703
854.80 12.20097
854.90 12.3414
855.00 12.4233
855.10 12.4969
855.20 12.54866
855.30 12.61774
855.40 12.64152
855.50 12.63475
855.60 12.67125
855.70 12.75411
855.80 12.77858
855.90 12.53413
856.00 12.29446
856.10 12.12504
856.20 11.96929
856.30 11.95445
856.40 12.11284
856.50 12.29772
856.60 12.5623
856.70 12.84299
856.80 12.88489
856.90 12.86727
857.00 12.74829
857.10 12.58079
857.20 12.51316
857.30 12.48828
857.40 12.41441
857.50 12.46623
857.60 12.52669
857.70 12.64188
857.80 12.79909
857.90 12.85853
858.00 12.8418
858.10 12.88883
858.20 12.85401
858.30 12.78692
858.40 12.74508
858.50 12.77095
858.60 12.85861
858.70 12.94845
858.80 12.98898
858.90 13.0343
859.00 13.08396
859.10 13.053
859.20 12.99119
859.30 12.92841
859.40 12.85901
859.50 12.81143
859.60 12.93651
859.70 13.06447
859.80 13.16344
859.90 13.24615
860.00 13.29435
860.10 13.30446
860.20 13.30791
860.30 13.32033
860.40 13.35343
860.50 13.43122
860.60 13.55112
860.70 13.66129
860.80 13.75278
860.90 13.79226
861.00 13.70974
861.10 13.66428
861.20 13.5607
861.30 13.43303
861.40 13.35803
861.50 13.35508
861.60 13.30982
861.70 13.21741
861.80 13.14729
861.90 13.26216
862.00 13.40276
862.10 13.4893
862.20 13.56751
862.30 13.56402
862.40 13.44128
862.50 13.39588
862.60 13.35064
862.70 13.28871
862.80 13.17851
862.90 13.08529
863.00 13.05659
863.10 13.05177
863.20 13.04392
863.30 13.19045
863.40 13.34013
863.50 13.406
863.60 13.46278
863.70 13.56238
863.80 13.59497
863.90 13.57675
864.00 13.48502
864.10 13.39998
864.20 13.46291
864.30 13.60862
864.40 13.68272
864.50 13.63175
864.60 13.62992
864.70 13.51189
864.80 13.39048
864.90 13.33115
865.00 13.2897
865.10 13.29173
865.20 13.41228
865.30 13.5726
865.40 13.77681
865.50 13.93762
865.60 14.0201
865.70 14.09195
865.80 14.12642
865.90 14.08175
866.00 14.01358
866.10 13.79225
866.20 13.61477
866.30 13.63317
866.40 13.68194
866.50 13.7893
866.60 14.04513
866.70 14.20508
866.80 14.24016
866.90 14.31783
867.00 14.27777
867.10 14.21485
867.20 14.24782
867.30 14.35333
867.40 14.33375
867.50 14.23871
867.60 14.1398
867.70 14.2056
867.80 14.31174
867.90 14.40266
868.00 14.51433
868.10 14.59315
868.20 14.52681
868.30 14.46271
868.40 14.50623
868.50 14.50924
868.60 14.44483
868.70 14.41551
868.80 14.35972
868.90 14.05263
869.00 13.7307
869.10 13.55419
869.20 13.42492
869.30 13.27195
869.40 13.10588
869.50 13.01174
869.60 12.98008
869.70 12.88595
869.80 13.0164
869.90 13.1739
870.00 13.33974
870.10 13.49303
870.20 13.63751
870.30 13.77958
870.40 13.8954
870.50 13.96915
870.60 14.02998
870.70 14.00187
870.80 13.9303
870.90 13.83659
871.00 13.6478
871.10 13.521
871.20 13.44992
871.30 13.32666
871.40 13.34155
871.50 13.41508
871.60 13.39645
871.70 13.28768
871.80 13.24981
871.90 13.293
872.00 13.35407
872.10 13.48731
872.20 13.62284
872.30 13.783
872.40 13.95782
872.50 14.12028
872.60 14.22563
872.70 14.29947
872.80 14.63944
872.90 14.9897
873.00 15.05474
873.10 14.93176
873.20 14.83782
873.30 14.57607
873.40 14.30582
873.50 14.24763
873.60 14.19658
873.70 14.20857
873.80 14.28334
873.90 14.37351
874.00 14.46017
874.10 14.51155
874.20 14.74722
874.30 15.01033
874.40 15.33179
874.50 15.62748
874.60 15.69508
874.70 15.54817
874.80 15.48923
874.90 15.22467
875.00 14.98471
875.10 15.12339
875.20 15.37208
875.30 15.50682
875.40 15.71493
875.50 15.87327
875.60 15.76136
875.70 15.69721
875.80 15.83838
875.90 15.99109
876.00 16.1308
876.10 16.34191
876.20 16.45568
876.30 16.2508
876.40 16.13166
876.50 15.92316
876.60 15.627
876.70 15.38512
876.80 15.2686
876.90 15.33721
877.00 15.83133
877.10 16.24637
877.20 16.6014
877.30 16.96684
877.40 17.26511
877.50 17.45748
877.60 17.54253
877.70 17.45212
877.80 17.46592
877.90 16.97356
878.00 16.44898
878.10 16.25508
878.20 16.2471
878.30 16.2128
878.40 16.43203
878.50 16.66065
878.60 16.72508
878.70 16.779
878.80 16.82073
878.90 16.86725
879.00 16.92638
879.10 17.05061
879.20 17.13767
879.30 17.18429
879.40 17.28606
879.50 17.40816
879.60 17.49336
879.70 17.53995
879.80 17.70578
879.90 17.80912
880.00 17.41081
880.10 17.02362
880.20 16.42654
880.30 15.77597
880.40 15.43179
880.50 15.47041
880.60 15.4422
880.70 15.53262
880.80 15.67412
880.90 15.9199
881.00 16.20909
881.10 16.69442
881.20 17.27203
881.30 17.66878
881.40 17.93441
881.50 18.22084
881.60 18.32332
881.70 18.42063
881.80 18.60509
881.90 18.77917
882.00 18.74186
882.10 18.36468
882.20 18.05461
882.30 17.47782
882.40 16.86815
882.50 16.533
882.60 16.38708
882.70 16.33893
882.80 16.63569
882.90 16.95011
883.00 17.35187
883.10 17.7452
883.20 18.07064
883.30 18.37019
883.40 18.56306
883.50 18.5527
883.60 18.58355
883.70 18.66707
883.80 18.7099
883.90 18.75978
884.00 18.80176
884.10 18.88294
884.20 19.05291
884.30 19.19264
884.40 18.92361
884.50 18.63694
884.60 18.26506
884.70 17.88231
884.80 17.64015
884.90 17.54649
885.00 17.546
885.10 17.97416
885.20 18.30561
885.30 18.919
885.40 19.58435
885.50 19.76647
885.60 19.59548
885.70 19.41029
885.80 18.68204
885.90 18.00433
886.00 17.08926
886.10 16.10958
886.20 15.385
886.30 14.87404
886.40 14.53523
886.50 14.93669
886.60 15.29432
886.70 15.53397
886.80 15.7973
886.90 15.53584
887.00 14.9589
887.10 14.4177
887.20 13.72944
887.30 13.08675
887.40 13.15082
887.50 13.18621
887.60 13.4913
887.70 13.93979
887.80 14.36448
887.90 14.83265
888.00 15.27459
888.10 15.38635
888.20 15.50741
888.30 15.28147
888.40 14.96832
888.50 14.83356
888.60 14.72572
888.70 14.5917
888.80 14.87063
888.90 15.12609
889.00 15.38123
889.10 15.63002
889.20 15.79081
889.30 15.835
889.40 15.82154
889.50 15.63031
889.60 15.49886
889.70 15.31062
889.80 15.0693
889.90 15.06078
890.00 15.2803
890.10 15.45157
890.20 15.89003
890.30 16.42951
890.40 16.72141
890.50 16.94121
890.60 16.94173
890.70 16.87204
890.80 16.83803
890.90 16.71284
891.00 16.61894
891.10 16.4908
891.20 16.3348
891.30 16.39392
891.40 16.57169
891.50 16.6718
891.60 16.86286
891.70 17.05514
891.80 17.07987
891.90 17.08696
892.00 17.06362
892.10 17.05062
892.20 17.02277
892.30 16.94512
892.40 16.9104
892.50 16.84066
892.60 16.75788
892.70 16.73289
892.80 16.70821
892.90 16.74949
893.00 16.92272
893.10 17.12053
893.20 17.50614
893.30 17.87774
893.40 18.12221
893.50 18.35907
893.60 18.21518
893.70 17.74309
893.80 17.29871
893.90 16.58249
894.00 15.89038
894.10 15.79836
894.20 15.70167
894.30 15.67529
894.40 15.77194
894.50 15.94356
894.60 16.05817
894.70 16.09012
894.80 16.29036
894.90 16.46442
895.00 16.43703
895.10 16.35017
895.20 16.3291
895.30 16.2247
895.40 16.18279
895.50 16.38001
895.60 16.51823
895.70 16.6661
895.80 16.85608
895.90 17.01005
896.00 17.01956
896.10 17.04355
896.20 17.02964
896.30 16.99519
896.40 16.96092
896.50 16.94357
896.60 16.78817
896.70 16.5194
896.80 16.40412
896.90 16.58968
897.00 16.74506
897.10 16.97661
897.20 17.2205
897.30 17.33609
897.40 17.3447
897.50 17.38815
897.60 17.55037
897.70 17.70448
897.80 17.84034
897.90 18.0011
898.00 17.98132
898.10 17.76637
898.20 17.64614
898.30 17.70399
898.40 17.69764
898.50 18.17661
898.60 18.65338
898.70 18.85614
898.80 18.93082
898.90 18.87241
899.00 18.56984
899.10 18.34916
899.20 18.27409
899.30 18.21413
899.40 18.26361
899.50 18.33644
899.60 18.33151
899.70 18.27713
899.80 18.20362
899.90 18.03568
900.00 17.84906
900.10 17.89695
900.20 17.99191
900.30 18.16262
900.40 18.63988
900.50 19.18942
900.60 19.55575
900.70 19.89057
900.80 19.68004
900.90 19.39614
901.00 19.13308
901.10 18.79789
901.20 18.58273
901.30 18.78287
901.40 18.9868
901.50 19.06498
901.60 19.12118
901.70 18.8959
901.80 18.49287
901.90 18.23322
902.00 18.15309
902.10 18.12421
902.20 17.97585
902.30 17.81304
902.40 17.71169
902.50 17.62713
902.60 17.56316
902.70 17.5772
902.80 17.57007
902.90 17.61465
903.00 17.65452
903.10 17.8444
903.20 18.12964
903.30 18.46777
903.40 18.75417
903.50 18.95008
903.60 19.11266
903.70 19.28632
903.80 19.42441
903.90 19.56714
904.00 19.61853
904.10 19.61784
904.20 19.66811
904.30 19.49208
904.40 19.26289
904.50 19.30005
904.60 19.3597
904.70 19.46935
904.80 19.70684
904.90 19.94863
905.00 20.04313
905.10 20.12537
905.20 19.77432
905.30 19.42569
905.40 19.22908
905.50 19.09562
905.60 18.95997
905.70 18.86867
905.80 18.81458
905.90 18.82425
906.00 18.81892
906.10 18.87574
906.20 18.95574
906.30 18.93818
906.40 18.95857
906.50 19.00629
906.60 18.88731
906.70 18.77507
906.80 18.65131
906.90 18.53759
907.00 18.52103
907.10 18.54436
907.20 18.51112
907.30 18.722
907.40 18.95817
907.50 19.05487
907.60 19.13338
907.70 19.28824
907.80 19.46823
907.90 19.63229
908.00 19.91377
908.10 20.1939
908.20 20.13674
908.30 20.04854
908.40 20.03219
908.50 19.98375
908.60 19.82935
908.70 19.67909
908.80 19.49859
908.90 19.21134
909.00 18.91896
909.10 18.92187
909.20 19.13054
909.30 19.36405
909.40 19.65423
909.50 19.96668
909.60 20.15977
909.70 20.30141
909.80 20.43354
909.90 20.54804
910.00 20.61453
910.10 20.68487
910.20 20.82038
910.30 20.77554
910.40 20.68196
910.50 20.42999
910.60 20.1309
910.70 19.9357
910.80 19.84603
910.90 19.79061
911.00 20.03018
911.10 20.29195
911.20 20.51851
911.30 20.74015
911.40 20.86109
911.50 20.92725
911.60 20.95789
911.70 20.77252
911.80 20.57675
911.90 20.57049
912.00 20.60096
912.10 20.70159
912.20 20.8713
912.30 21.01985
912.40 21.05142
912.50 21.05251
912.60 20.99114
912.70 20.89663
912.80 20.82698
912.90 20.81248
913.00 20.86443
913.10 20.94476
913.20 21.04601
913.30 21.24043
913.40 21.42897
913.50 21.52668
913.60 21.58649
913.70 21.51165
913.80 21.19396
913.90 20.8318
914.00 20.33109
914.10 19.90809
914.20 20.03779
914.30 20.23927
914.40 20.48192
914.50 20.88237
914.60 21.1881
914.70 21.20948
914.80 21.2595
914.90 21.01393
915.00 20.753
915.10 20.67172
915.20 20.67588
915.30 20.70546
915.40 21.0735
915.50 21.35192
915.60 21.66071
915.70 22.00486
915.80 22.10754
915.90 22.07085
916.00 22.08886
916.10 21.89635
916.20 21.69312
916.30 21.45993
916.40 21.21586
916.50 21.2608
916.60 21.43658
916.70 21.55712
916.80 21.74253
916.90 21.93624
917.00 21.85295
917.10 21.76487
917.20 21.70066
917.30 21.63814
917.40 21.61128
917.50 21.56278
917.60 21.50767
917.70 21.46699
917.80 21.41087
917.90 21.41389
918.00 21.43587
918.10 21.52411
918.20 21.65894
918.30 21.75812
918.40 21.73857
918.50 21.69321
918.60 21.59469
918.70 21.50183
918.80 21.67138
918.90 21.99178
919.00 22.19351
919.10 22.49828
919.20 22.93422
919.30 22.68845
919.40 22.45544
919.50 22.28598
919.60 22.0881
919.70 21.96246
919.80 22.23138
919.90 22.4814
920.00 22.53095
920.10 22.62333
920.20 22.61813
920.30 22.53833
920.40 22.4161
920.50 22.36393
920.60 22.34507
920.70 22.1034
920.80 21.87879
920.90 21.37199
921.00 20.78164
921.10 20.54546
921.20 20.67699
921.30 20.80829
921.40 21.12542
921.50 21.39019
921.60 21.50181
921.70 21.57309
921.80 21.55385
921.90 21.50229
922.00 21.54347
922.10 21.39529
922.20 21.21036
922.30 21.06317
922.40 20.91467
922.50 20.87849
922.60 20.88952
922.70 20.83586
922.80 20.84167
922.90 20.80342
923.00 20.5628
923.10 20.35319
923.20 20.08215
923.30 19.76553
923.40 19.63816
923.50 19.81294
923.60 19.93627
923.70 20.0174
923.80 20.09691
923.90 20.165
924.00 20.22274
924.10 20.44755
924.20 20.81684
924.30 20.98191
924.40 21.10435
924.50 21.33188
924.60 21.00818
924.70 20.62839
924.80 20.40428
924.90 20.18938
925.00 19.95798
925.10 19.91724
925.20 19.84923
925.30 19.89256
925.40 19.96246
925.50 20.21693
925.60 20.57976
925.70 20.81094
925.80 21.0663
925.90 21.35909
926.00 21.18974
926.10 21.05491
926.20 20.94886
926.30 20.83558
926.40 20.86496
926.50 21.05001
926.60 21.17121
926.70 21.43056
926.80 21.67528
926.90 21.68813
927.00 21.62505
927.10 21.49085
927.20 21.23309
927.30 21.02731
927.40 20.81041
927.50 20.59865
927.60 20.41673
927.70 20.23328
927.80 20.01891
927.90 19.80254
928.00 19.67193
928.10 19.73767
928.20 19.77563
928.30 20.05891
928.40 20.35532
928.50 20.47725
928.60 20.50199
928.70 20.48682
928.80 20.21726
928.90 19.93652
929.00 19.82762
929.10 19.70838
929.20 19.59541
929.30 19.51388
929.40 19.49617
929.50 19.5856
929.60 19.64317
929.70 19.64183
929.80 19.68903
929.90 19.50268
930.00 19.2617
930.10 19.14037
930.20 19.12543
930.30 19.06472
930.40 19.06611
930.50 19.14191
930.60 19.18174
930.70 19.27287
930.80 19.48285
930.90 19.64807
931.00 19.79136
931.10 20.00488
931.20 20.16076
931.30 20.18663
931.40 20.20156
931.50 20.21544
931.60 20.01864
931.70 20.00692
931.80 19.96289
931.90 19.85338
932.00 19.65873
932.10 19.58152
932.20 19.60666
932.30 19.66717
932.40 19.72693
932.50 19.77095
932.60 19.80667
932.70 19.74966
932.80 19.70758
932.90 19.70236
933.00 19.74385
933.10 19.77022
933.20 19.71876
933.30 19.63114
933.40 19.57875
933.50 19.5648
933.60 19.53024
933.70 19.51179
933.80 19.58821
933.90 19.72441
934.00 19.83582
934.10 19.89932
934.20 19.98505
934.30 19.95796
934.40 19.88991
934.50 19.76305
934.60 19.76417
934.70 19.80244
934.80 19.84392
934.90 19.77862
935.00 19.78663
935.10 19.77153
935.20 19.74548
935.30 19.63703
935.40 19.62293
935.50 19.5941
935.60 19.53737
935.70 19.49859
935.80 19.47864
935.90 19.5617
936.00 19.69127
936.10 19.77746
936.20 19.8986
936.30 20.05047
936.40 20.23923
936.50 20.13125
936.60 20.00247
936.70 19.85394
936.80 19.63544
936.90 19.36841
937.00 19.07711
937.10 18.79455
937.20 18.58442
937.30 18.70106
937.40 18.87515
937.50 19.03976
937.60 19.29612
937.70 19.56397
937.80 19.78494
937.90 19.93692
938.00 19.99368
938.10 19.89039
938.20 19.75865
938.30 19.72556
938.40 19.85411
938.50 19.96152
938.60 19.99787
938.70 20.00601
938.80 19.98255
938.90 19.97922
939.00 19.98361
939.10 19.99419
939.20 20.044
939.30 20.11258
939.40 20.1806
939.50 20.14531
939.60 20.1222
939.70 20.01825
939.80 19.83277
939.90 19.63657
940.00 19.67758
940.10 19.77448
940.20 19.78653
940.30 19.83122
940.40 19.92505
940.50 20.09652
940.60 20.27658
940.70 20.3967
940.80 20.53258
940.90 20.68991
941.00 20.82236
941.10 20.78643
941.20 20.75391
941.30 20.74993
941.40 20.55077
941.50 20.37991
941.60 20.2707
941.70 20.22717
941.80 20.075
941.90 20.11934
942.00 20.24351
942.10 20.43001
942.20 20.51075
942.30 20.59807
942.40 20.65477
942.50 20.68982
942.60 20.71129
942.70 20.6954
942.80 20.66182
942.90 20.61966
943.00 20.70072
943.10 20.78458
943.20 20.7944
943.30 20.8371
943.40 20.96592
943.50 21.05233
943.60 21.05457
943.70 21.02626
943.80 20.84273
943.90 20.5948
944.00 20.33263
944.10 20.1675
944.20 19.98931
944.30 19.84865
944.40 19.77423
944.50 19.76816
944.60 19.84256
944.70 19.94662
944.80 19.97181
944.90 20.03197
945.00 20.10578
945.10 20.21343
945.20 20.36691
945.30 20.52532
945.40 20.62149
945.50 20.68636
945.60 20.71529
945.70 20.67795
945.80 20.61413
945.90 20.60818
946.00 20.65729
946.10 20.67395
946.20 20.71678
946.30 20.86132
946.40 20.96691
946.50 20.87906
946.60 20.70613
946.70 20.69084
946.80 20.8097
946.90 20.91899
947.00 20.99389
947.10 21.08076
947.20 21.18732
947.30 21.24791
947.40 21.26881
947.50 21.27094
947.60 21.31776
947.70 21.37938
947.80 21.43464
947.90 21.56859
948.00 21.69606
948.10 21.8028
948.20 21.81457
948.30 21.8006
948.40 21.82043
948.50 21.86137
948.60 21.89421
948.70 21.82289
948.80 21.74109
948.90 21.73507
949.00 21.88334
949.10 22.01267
949.20 22.03704
949.30 21.96808
949.40 21.95826
949.50 21.83655
949.60 21.67083
949.70 21.51354
949.80 21.67271
949.90 21.82345
950.00 21.92146
950.10 21.98039
950.20 21.97681
950.30 21.8955
950.40 21.76887
950.50 21.78999
950.60 21.79916
950.70 21.79619
950.80 21.78024
950.90 21.88261
951.00 21.95248
951.10 21.95788
951.20 21.92684
951.30 21.93856
951.40 21.84319
951.50 21.70205
951.60 21.55141
951.70 21.54158
951.80 21.53888
951.90 21.56164
952.00 21.6287
952.10 21.69808
952.20 21.82899
952.30 21.98141
952.40 22.0744
952.50 22.26183
952.60 22.47376
952.70 22.65135
952.80 22.62526
952.90 22.60817
953.00 22.60559
953.10 22.62661
953.20 22.66775
953.30 22.58607
953.40 22.46514
953.50 22.34564
953.60 22.22738
953.70 22.10014
953.80 22.03216
953.90 22.01129
954.00 21.94835
954.10 21.9137
954.20 21.93573
954.30 21.99149
954.40 22.00949
954.50 22.0243
954.60 22.05429
954.70 21.94998
954.80 21.83954
954.90 21.84304
955.00 22.00505
955.10 22.16537
955.20 22.29015
955.30 22.40055
955.40 22.52772
955.50 22.62906
955.60 22.69802
955.70 22.76691
955.80 22.84563
955.90 22.95999
956.00 23.01626
956.10 23.05034
956.20 23.1039
956.30 22.90762
956.40 22.70734
956.50 22.62242
956.60 22.71212
956.70 22.68366
956.80 22.66787
956.90 22.71678
957.00 22.89967
957.10 22.96924
957.20 22.9874
957.30 22.91646
957.40 22.61432
957.50 22.34307
957.60 22.16738
957.70 22.07789
957.80 22.01846
957.90 22.09988
958.00 22.24184
958.10 22.26501
958.20 22.34676
958.30 22.45661
958.40 22.56436
958.50 22.51376
958.60 22.50078
958.70 22.38777
958.80 22.19653
958.90 22.01672
959.00 21.83948
959.10 21.65051
959.20 21.47451
959.30 21.5991
959.40 21.70338
959.50 21.66165
959.60 21.44808
959.70 21.36857
959.80 21.12958
959.90 20.81319
960.00 20.45091
960.10 20.52493
960.20 20.61774
960.30 20.79576
960.40 21.34256
960.50 21.82748
960.60 22.06713
960.70 22.13665
960.80 22.25683
960.90 22.21747
961.00 22.17204
961.10 22.18246
961.20 22.09242
961.30 21.9943
961.40 21.93581
961.50 21.92827
961.60 21.93483
961.70 22.12633
961.80 22.38834
961.90 22.56639
962.00 22.67484
962.10 22.78074
962.20 22.81769
962.30 22.70135
962.40 22.63918
962.50 22.71233
962.60 22.88437
962.70 22.98057
962.80 22.90791
962.90 22.81686
963.00 22.76978
963.10 22.68524
963.20 22.63539
963.30 22.54988
963.40 22.44935
963.50 22.36543
963.60 21.92396
963.70 21.32783
963.80 20.81811
963.90 20.33415
964.00 19.81744
964.10 19.63534
964.20 20.2896
964.30 20.84114
964.40 21.20418
964.50 21.45671
964.60 21.83271
964.70 21.60432
964.80 21.32281
964.90 21.13712
965.00 21.18287
965.10 21.27154
965.20 21.40903
965.30 21.61165
965.40 21.77091
965.50 21.9295
965.60 22.09234
965.70 22.28866
965.80 22.4279
965.90 22.5494
966.00 22.66101
966.10 22.78947
966.20 22.90347
966.30 22.95677
966.40 22.97951
966.50 23.01766
966.60 22.93469
966.70 22.88024
966.80 22.90318
966.90 22.93627
967.00 22.89593
967.10 22.79749
967.20 22.6802
967.30 22.63805
967.40 22.24293
967.50 21.76469
967.60 21.37027
967.70 21.1979
967.80 20.98685
967.90 21.0976
968.00 21.76892
968.10 22.374
968.20 22.66089
968.30 22.77698
968.40 22.98696
968.50 22.77279
968.60 22.53954
968.70 22.27312
968.80 21.90279
968.90 21.55199
969.00 21.48253
969.10 21.61328
969.20 21.68493
969.30 22.13484
969.40 22.63892
969.50 23.0524
969.60 23.21552
969.70 23.42239
969.80 23.54625
969.90 23.52971
970.00 23.48186
970.10 23.36434
970.20 23.20433
970.30 23.04932
970.40 22.53878
970.50 22.08287
970.60 21.76075
970.70 21.55553
970.80 21.30118
970.90 21.58428
971.00 22.2492
971.10 22.74918
971.20 23.12965
971.30 23.48754
971.40 23.82849
971.50 23.89107
971.60 23.95641
971.70 23.88468
971.80 23.66962
971.90 23.50709
972.00 23.30888
972.10 23.12335
972.20 22.98766
972.30 23.10692
972.40 23.18611
972.50 23.16659
972.60 23.03437
972.70 22.90134
972.80 22.48423
972.90 21.92115
973.00 21.48174
973.10 21.55683
973.20 21.61711
973.30 21.611
973.40 21.89395
973.50 22.17468
973.60 22.30415
973.70 22.29551
973.80 22.36586
973.90 22.42032
974.00 22.48436
974.10 22.53285
974.20 22.34663
974.30 22.17161
974.40 22.0072
974.50 21.82378
974.60 21.61174
974.70 21.73166
974.80 21.97644
974.90 22.05853
975.00 22.13825
975.10 22.2666
975.20 22.44279
975.30 22.55196
975.40 22.61589
975.50 22.68412
975.60 22.73869
975.70 22.84693
975.80 22.91549
975.90 22.96372
976.00 22.94047
976.10 22.85481
976.20 22.80986
976.30 22.83623
976.40 22.91381
976.50 22.96349
976.60 23.05411
976.70 23.14062
976.80 23.22992
976.90 22.90118
977.00 22.59853
977.10 22.34935
977.20 22.16523
977.30 21.9699
977.40 22.16297
977.50 22.5618
977.60 22.82027
977.70 22.92044
977.80 23.02366
977.90 23.09551
978.00 22.90689
978.10 22.74042
978.20 22.3637
978.30 21.7428
978.40 21.21842
978.50 21.0243
978.60 20.89371
978.70 20.64473
978.80 20.80496
978.90 21.02026
979.00 21.35501
979.10 21.8747
979.20 22.29442
979.30 22.71987
979.40 23.13301
979.50 23.56637
979.60 23.53823
979.70 23.54328
979.80 23.63499
979.90 23.66902
980.00 23.63
980.10 23.5879
980.20 23.57285
980.30 23.578
980.40 23.51254
980.50 23.43732
980.60 23.36485
980.70 23.28754
980.80 23.20554
980.90 23.19385
981.00 23.26028
981.10 23.31626
981.20 23.29596
981.30 23.23808
981.40 23.17748
981.50 22.92359
981.60 22.69832
981.70 22.62123
981.80 22.74194
981.90 22.77891
982.00 22.81465
982.10 22.83581
982.20 22.9104
982.30 22.94687
982.40 22.98046
982.50 23.01848
982.60 23.11031
982.70 23.17558
982.80 23.16132
982.90 23.07512
983.00 23.04519
983.10 22.95684
983.20 22.85368
983.30 22.7487
983.40 22.71474
983.50 22.68239
983.60 22.63876
983.70 22.59004
983.80 22.56409
983.90 22.69989
984.00 22.89783
984.10 23.02647
984.20 23.1085
984.30 23.19728
984.40 23.242
984.50 23.16861
984.60 23.08138
984.70 23.11649
984.80 23.21131
984.90 23.30346
985.00 23.20867
985.10 23.10535
985.20 23.05261
985.30 23.00445
985.40 22.93131
985.50 23.0037
985.60 23.2485
985.70 23.44326
985.80 23.4491
985.90 23.40407
986.00 23.41557
986.10 23.39513
986.20 23.36925
986.30 23.3665
986.40 23.4242
986.50 23.44931
986.60 23.40152
986.70 23.31025
986.80 23.31049
986.90 23.17575
987.00 23.02753
987.10 22.9465
987.20 23.11345
987.30 23.1923
987.40 23.29345
987.50 23.40963
987.60 23.57813
987.70 23.50194
987.80 23.38315
987.90 23.29443
988.00 23.13882
988.10 22.98961
988.20 23.00606
988.30 23.22539
988.40 23.38125
988.50 23.57259
988.60 23.76851
988.70 23.97248
988.80 23.93359
988.90 23.89684
989.00 23.84084
989.10 23.71875
989.20 23.60448
989.30 23.37779
989.40 23.05924
989.50 22.77965
989.60 22.01526
989.70 21.21549
989.80 20.56876
989.90 20.16642
990.00 19.68675
990.10 19.33778
990.20 19.16229
990.30 18.98696
990.40 18.46806
990.50 17.85735
990.60 17.3112
990.70 16.97503
990.80 16.63156
990.90 16.49649
991.00 16.67698
991.10 16.8046
991.20 16.88002
991.30 16.91928
991.40 16.99549
991.50 16.71787
991.60 16.43813
991.70 16.31704
991.80 16.56331
991.90 16.74468
992.00 17.02257
992.10 17.36322
992.20 17.75274
992.30 17.58078
992.40 17.33833
992.50 17.21583
992.60 17.27315
992.70 17.24483
992.80 17.4258
992.90 17.91157
993.00 18.39005
993.10 18.71714
993.20 18.97828
993.30 19.26424
993.40 18.93767
993.50 18.61742
993.60 18.55933
993.70 18.94976
993.80 19.26245
993.90 19.72393
994.00 20.2316
994.10 20.74646
994.20 20.75713
994.30 20.7514
994.40 20.75805
994.50 20.59602
994.60 20.44361
994.70 20.46404
994.80 20.62773
994.90 20.7095
995.00 20.92528
995.10 21.1838
995.20 21.45912
995.30 21.6279
995.40 21.77199
995.50 21.70639
995.60 21.38032
995.70 21.15966
995.80 20.94721
995.90 20.74776
996.00 20.5016
996.10 20.51817
996.20 20.5241
996.30 20.67546
996.40 21.16335
996.50 21.60842
996.60 21.89731
996.70 22.06003
996.80 22.32809
996.90 21.58711
997.00 20.80048
997.10 20.19011
997.20 19.78583
997.30 19.31704
997.40 19.24725
997.50 19.57144
997.60 19.77536
997.70 20.11163
997.80 20.45725
997.90 20.76391
998.00 20.96668
998.10 21.17549
998.20 21.18518
998.30 20.91784
998.40 20.77121
998.50 20.56131
998.60 20.33022
998.70 20.07853
998.80 20.1527
998.90 20.20792
999.00 20.1757
999.10 20.07897
999.20 20.02351
999.30 20.16276
999.40 20.4175
999.50 20.58691
999.60 20.54564
999.70 20.50108
999.80 20.53496
999.90 20.71447
1000.00 20.8224
1000.10 21.09426
1000.20 21.50376
1000.30 21.9
1000.40 22.04255
1000.50 22.1375
1000.60 22.24619
1000.70 21.94914
1000.80 21.68323
1000.90 21.35564
1001.00 20.93382
1001.10 20.55585
1001.20 20.57095
1001.30 20.74803
1001.40 20.79972
1001.50 21.23894
1001.60 21.67102
1001.70 22.01604
1001.80 22.20559
1001.90 22.43818
1002.00 22.3699
1002.10 22.13024
1002.20 21.95571
1002.30 22.11474
1002.40 22.27342
1002.50 22.348
1002.60 22.3708
1002.70 22.4281
1002.80 22.27532
1002.90 21.95602
1003.00 21.71737
1003.10 21.68812
1003.20 21.70006
1003.30 21.65294
1003.40 21.41756
1003.50 21.18782
1003.60 21.00903
1003.70 20.89145
1003.80 20.80005
1003.90 21.05232
1004.00 21.42493
1004.10 21.65614
1004.20 22.01537
1004.30 22.36439
1004.40 22.60152
1004.50 22.6203
1004.60 22.74505
1004.70 22.62804
1004.80 22.35243
1004.90 22.13429
1005.00 21.54113
1005.10 20.92463
1005.20 20.38019
1005.30 19.95202
1005.40 19.48211
1005.50 19.29181
1005.60 19.36602
1005.70 19.36304
1005.80 19.67777
1005.90 20.04617
1006.00 20.34407
1006.10 20.55135
1006.20 20.80431
1006.30 20.94613
1006.40 20.92107
1006.50 20.90614
1006.60 21.19543
1006.70 21.6017
1006.80 21.91757
1006.90 22.15109
1007.00 22.4182
1007.10 22.49758
1007.20 22.16185
1007.30 21.87634
1007.40 21.90683
1007.50 22.11959
1007.60 22.2292
1007.70 22.51441
1007.80 22.80428
1007.90 22.98971
1008.00 22.89957
1008.10 22.84715
1008.20 22.86137
1008.30 22.91677
1008.40 23.00241
1008.50 23.1689
1008.60 23.3351
1008.70 23.38737
1008.80 23.0052
1008.90 22.69554
1009.00 22.41939
1009.10 22.13608
1009.20 21.85416
1009.30 21.90543
1009.40 22.07588
1009.50 22.13325
1009.60 22.43938
1009.70 22.74462
1009.80 23.08267
1009.90 23.47745
1010.00 23.87237
1010.10 24.21277
1010.20 24.50848
1010.30 24.78531
1010.40 24.58531
1010.50 24.37179
1010.60 24.20944
1010.70 23.93259
1010.80 23.64944
1010.90 23.34488
1011.00 23.00597
1011.10 22.71014
1011.20 22.43057
1011.30 22.15765
1011.40 21.88991
1011.50 21.85885
1011.60 21.81707
1011.70 21.75046
1011.80 21.67804
1011.90 21.61048
1012.00 21.94532
1012.10 22.43848
1012.20 22.79036
1012.30 23.11647
1012.40 23.45782
1012.50 23.69564
1012.60 23.65705
1012.70 23.7194
1012.80 23.74059
1012.90 23.76891
1013.00 23.71621
1013.10 23.66154
1013.20 23.62191
1013.30 23.50283
1013.40 22.93558
1013.50 22.43824
1013.60 21.91622
1013.70 21.39778
1013.80 20.85157
1013.90 20.93861
1014.00 21.14261
1014.10 21.26941
1014.20 21.70713
1014.30 22.12179
1014.40 22.30711
1014.50 22.20516
1014.60 22.20451
1014.70 22.00309
1014.80 21.74634
1014.90 21.54844
1015.00 22.01907
1015.10 22.39777
1015.20 22.62568
1015.30 22.78792
1015.40 23.05583
1015.50 22.84145
1015.60 22.32985
1015.70 21.98268
1015.80 21.79768
1015.90 21.62575
1016.00 21.497
1016.10 21.72423
1016.20 21.90151
1016.30 22.00319
1016.40 22.05512
1016.50 22.16372
1016.60 22.41556
1016.70 22.69328
1016.80 22.86895
1016.90 22.6204
1017.00 22.40848
1017.10 22.20446
1017.20 22.00771
1017.30 21.81409
1017.40 22.2289
1017.50 22.87503
1017.60 23.38051
1017.70 23.35392
1017.80 23.37073
1017.90 23.27287
1018.00 22.81288
1018.10 22.38335
1018.20 22.18443
1018.30 22.09002
1018.40 21.90708
1018.50 21.67684
1018.60 21.45633
1018.70 21.35214
1018.80 21.61404
1018.90 21.80084
1019.00 22.09612
1019.10 22.47972
1019.20 22.88023
1019.30 22.93249
1019.40 22.92318
1019.50 22.95865
1019.60 22.99135
1019.70 23.00451
1019.80 22.97517
1019.90 22.881
1020.00 22.80352
1020.10 22.711
1020.20 22.61714
1020.30 22.50597
1020.40 22.62135
1020.50 22.7436
1020.60 22.87906
1020.70 23.05223
1020.80 23.22869
1020.90 23.2483
1021.00 23.1692
1021.10 23.10343
1021.20 22.80112
1021.30 22.49977
1021.40 22.24527
1021.50 21.99429
1021.60 21.73803
1021.70 21.51812
1021.80 21.31766
1021.90 21.08222
1022.00 20.99304
1022.10 20.94622
1022.20 20.95837
1022.30 21.42581
1022.40 21.80575
1022.50 22.11688
1022.60 22.35413
1022.70 22.67588
1022.80 22.75155
1022.90 22.7357
1023.00 22.72177
1023.10 22.54724
1023.20 22.39506
1023.30 22.35103
1023.40 22.42799
1023.50 22.40331
1023.60 22.5901
1023.70 22.85114
1023.80 23.09813
1023.90 23.18032
1024.00 23.28552
1024.10 23.45551
1024.20 23.6411
1024.30 23.80428
1024.40 23.66984
1024.50 23.37116
1024.60 23.2316
1024.70 23.10873
1024.80 22.95768
1024.90 22.74771
1025.00 22.5398
1025.10 22.3617
1025.20 22.13454
1025.30 21.87322
1025.40 21.60927
1025.50 21.74627
1025.60 21.95614
1025.70 22.01285
1025.80 21.73851
1025.90 21.55731
1026.00 21.29442
1026.10 20.84824
1026.20 20.38902
1026.30 20.33619
1026.40 20.44889
1026.50 20.46347
1026.60 21.04895
1026.70 21.5709
1026.80 22.01393
1026.90 22.41044
1027.00 22.89038
1027.10 22.9715
1027.20 22.83912
1027.30 22.80508
1027.40 22.49987
1027.50 22.17394
1027.60 21.90103
1027.70 21.82921
1027.80 21.71652
1027.90 21.63067
1028.00 21.53658
1028.10 21.48919
1028.20 21.21972
1028.30 20.91156
1028.40 20.67145
1028.50 20.88753
1028.60 21.01079
1028.70 21.34034
1028.80 21.95101
1028.90 22.50085
1029.00 22.5538
1029.10 22.45198
1029.20 22.51337
1029.30 22.3715
1029.40 22.2101
1029.50 22.14862
1029.60 22.25397
1029.70 22.29343
1029.80 22.19571
1029.90 22.03969
1030.00 21.94569
1030.10 21.89268
1030.20 21.85989
1030.30 21.89813
1030.40 22.14276
1030.50 22.28202
1030.60 22.47328
1030.70 22.67603
1030.80 22.94027
1030.90 22.78254
1031.00 22.6138
1031.10 22.57809
1031.20 22.77536
1031.30 22.88707
1031.40 22.9536
1031.50 22.98471
1031.60 23.05863
1031.70 22.7833
1031.80 22.44004
1031.90 22.19652
1032.00 22.22204
1032.10 22.192
1032.20 22.07471
1032.30 21.88113
1032.40 21.75793
1032.50 21.7458
1032.60 21.79643
1032.70 21.78869
1032.80 22.31751
1032.90 22.83121
1033.00 23.26737
1033.10 23.64185
1033.20 24.05425
1033.30 24.06631
1033.40 23.84401
1033.50 23.72616
1033.60 23.13452
1033.70 22.53037
1033.80 22.05993
1033.90 21.86982
1034.00 21.58673
1034.10 21.40141
1034.20 21.27618
1034.30 21.08423
1034.40 20.72471
1034.50 20.36672
1034.60 20.13646
1034.70 20.51137
1034.80 20.83692
1034.90 21.11485
1035.00 21.34216
1035.10 21.68995
1035.20 21.79338
1035.30 21.80803
1035.40 21.79513
1035.50 22.00223
1035.60 22.21242
1035.70 22.44455
1035.80 22.74561
1035.90 23.03037
1036.00 23.33108
1036.10 23.6173
1036.20 23.84882
1036.30 23.82765
1036.40 23.80819
1036.50 23.81296
1036.60 23.78326
1036.70 23.755
1036.80 23.80508
1036.90 23.90307
1037.00 23.95423
1037.10 24.19636
1037.20 24.46501
1037.30 24.66582
1037.40 24.62974
1037.50 24.62456
1037.60 24.37441
1037.70 23.9045
1037.80 23.54973
1037.90 23.0521
1038.00 22.52169
1038.10 22.03509
1038.20 22.02768
1038.30 21.93325
1038.40 22.06763
1038.50 22.52851
1038.60 22.92918
1038.70 23.09322
1038.80 23.15704
1038.90 23.2773
1039.00 23.11843
1039.10 22.97544
1039.20 22.8489
1039.30 22.71522
1039.40 22.55977
1039.50 22.33777
1039.60 22.07905
1039.70 21.8448
1039.80 21.94403
1039.90 22.0668
1040.00 22.22198
1040.10 22.6391
1040.20 23.035
1040.30 23.376
1040.40 23.63787
1040.50 23.92924
1040.60 24.05278
1040.70 24.14548
1040.80 24.23332
1040.90 24.11927
1041.00 24.01926
1041.10 23.72314
1041.20 23.20876
1041.30 22.78671
1041.40 22.652
1041.50 22.57496
1041.60 22.52568
1041.70 23.16868
1041.80 23.74201
1041.90 24.1289
1042.00 24.3067
1042.10 24.60177
1042.20 24.36324
1042.30 23.93675
1042.40 23.60583
1042.50 23.15357
1042.60 22.71955
1042.70 22.33295
1042.80 22.05027
1042.90 21.7044
1043.00 21.85354
1043.10 22.2743
1043.20 22.51569
1043.30 23.1275
1043.40 23.78851
1043.50 24.32221
1043.60 24.35256
1043.70 24.4823
1043.80 24.49515
1043.90 24.42126
1044.00 24.31253
1044.10 24.29589
1044.20 24.30271
1044.30 24.3127
1044.40 24.35366
1044.50 24.39869
1044.60 24.39031
1044.70 24.29644
1044.80 24.17597
1044.90 24.33464
1045.00 24.59456
1045.10 24.83078
1045.20 25.16007
1045.30 25.52717
1045.40 25.81395
1045.50 25.9054
1045.60 26.00245
1045.70 25.79424
1045.80 25.48769
1045.90 25.27095
1046.00 24.87832
1046.10 24.4711
1046.20 24.12532
1046.30 23.94617
1046.40 23.70887
1046.50 23.51344
1046.60 23.31186
1046.70 23.14553
1046.80 22.90827
1046.90 22.65984
1047.00 22.45264
1047.10 22.4592
1047.20 22.42207
1047.30 22.53194
1047.40 22.76069
1047.50 22.99597
1047.60 23.10801
1047.70 23.18053
1047.80 23.21587
1047.90 23.09553
1048.00 22.9881
1048.10 23.012
1048.20 23.21141
1048.30 23.34189
1048.40 23.54459
1048.50 23.75462
1048.60 23.95877
1048.70 23.87156
1048.80 23.81282
1048.90 23.79757
1049.00 23.85058
1049.10 23.90349
1049.20 23.98189
1049.30 24.05626
1049.40 24.12235
1049.50 23.74989
1049.60 23.37768
1049.70 23.08557
1049.80 22.87208
1049.90 22.58127
1050.00 22.74477
1050.10 23.16936
1050.20 23.49703
1050.30 23.62582
1050.40 23.75365
1050.50 23.87036
1050.60 23.79326
1050.70 23.71894
1050.80 23.66496
1050.90 23.63053
1051.00 23.55764
1051.10 23.24866
1051.20 22.91927
1051.30 22.67788
1051.40 22.51473
1051.50 22.31054
1051.60 22.26815
1051.70 22.43293
1051.80 22.52725
1051.90 22.52889
1052.00 22.50268
1052.10 22.51056
1052.20 22.60906
1052.30 22.70541
1052.40 22.90006
1052.50 23.2688
1052.60 23.57475
1052.70 23.82117
1052.80 24.02556
1052.90 24.24669
1053.00 24.09028
1053.10 23.92542
1053.20 23.83425
1053.30 23.82317
1053.40 23.75919
1053.50 23.80108
1053.60 23.87218
1053.70 23.94059
1053.80 23.78066
1053.90 23.63365
1054.00 23.56107
1054.10 23.65009
1054.20 23.66435
1054.30 23.70019
1054.40 23.71753
1054.50 23.7701
1054.60 23.48662
1054.70 23.16289
1054.80 22.93716
1054.90 22.97792
1055.00 22.95146
1055.10 23.10322
1055.20 23.47321
1055.30 23.78927
1055.40 23.73904
1055.50 23.57132
1055.60 23.4741
1055.70 23.143
1055.80 22.81843
1055.90 22.54035
1056.00 22.31128
1056.10 22.08444
1056.20 22.05582
1056.30 22.1359
1056.40 22.14002
1056.50 22.26178
1056.60 22.39139
1056.70 22.4931
1056.80 22.51248
1056.90 22.56631
1057.00 22.6085
1057.10 22.65544
1057.20 22.70324
1057.30 22.8805
1057.40 23.05517
1057.50 23.18842
1057.60 23.28416
1057.70 23.40982
1057.80 23.46319
1057.90 23.45712
1058.00 23.47699
1058.10 23.54897
1058.20 23.61657
1058.30 23.61826
1058.40 23.28478
1058.50 23.01097
1058.60 22.76349
1058.70 22.53383
1058.80 22.26959
1058.90 22.2883
1059.00 22.4146
1059.10 22.50742
1059.20 22.57811
1059.30 22.64294
1059.40 22.77242
1059.50 22.9988
1059.60 23.17471
1059.70 23.21795
1059.80 23.19052
1059.90 23.24029
1060.00 23.07838
1060.10 22.90021
1060.20 22.7767
1060.30 22.73363
1060.40 22.6948
1060.50 22.59551
1060.60 22.46536
1060.70 22.32555
1060.80 22.20567
1060.90 22.08892
1061.00 22.04925
1061.10 22.27176
1061.20 22.43956
1061.30 22.65265
1061.40 22.91366
1061.50 23.21525
1061.60 23.29237
1061.70 23.31362
1061.80 23.32521
1061.90 23.13209
1062.00 22.94138
1062.10 22.80323
1062.20 22.77757
1062.30 22.75289
1062.40 22.88886
1062.50 23.06447
1062.60 23.18948
1062.70 23.52586
1062.80 23.85305
1062.90 24.07494
1063.00 24.08829
1063.10 24.16407
1063.20 24.05872
1063.30 23.87816
1063.40 23.74909
1063.50 23.7943
1063.60 23.79783
1063.70 23.81909
1063.80 23.94052
1063.90 24.02476
1064.00 24.12484
1064.10 24.23719
1064.20 24.38193
1064.30 24.31089
1064.40 24.23418
1064.50 24.19747
1064.60 24.21696
1064.70 24.22118
1064.80 24.21622
1064.90 24.19635
1065.00 24.15202
1065.10 24.05319
1065.20 23.95281
1065.30 23.83743
1065.40 23.51501
1065.50 23.22333
1065.60 23.09192
1065.70 23.1386
1065.80 23.12516
1065.90 23.10826
1066.00 23.07148
1066.10 22.99813
1066.20 22.57941
1066.30 22.21797
1066.40 22.02984
1066.50 22.06504
1066.60 22.02131
1066.70 22.13856
1066.80 22.29856
1066.90 22.45429
1067.00 22.39938
1067.10 22.34303
1067.20 22.4262
1067.30 22.77727
1067.40 23.05966
1067.50 23.32535
1067.60 23.55703
1067.70 23.79289
1067.80 23.82233
1067.90 23.85305
1068.00 23.9235
1068.10 24.07058
1068.20 24.24632
1068.30 24.50726
1068.40 24.76953
1068.50 25.00708
1068.60 25.10898
1068.70 25.17853
1068.80 25.2017
1068.90 25.07213
1069.00 24.94878
1069.10 24.87872
1069.20 24.86942
1069.30 24.84826
1069.40 24.62095
1069.50 24.35177
1069.60 24.1071
1069.70 23.97209
1069.80 23.81855
1069.90 23.78909
1070.00 23.86366
1070.10 23.91694
1070.20 23.80636
1070.30 23.63632
1070.40 23.51204
1070.50 23.68946
1070.60 23.83277
1070.70 23.96596
1070.80 24.08238
1070.90 24.22212
1071.00 24.14788
1071.10 23.99468
1071.20 23.88417
1071.30 24.08886
1071.40 24.27586
1071.50 24.3893
1071.60 24.3874
1071.70 24.47921
1071.80 24.48352
1071.90 24.44811
1072.00 24.41655
1072.10 24.42342
1072.20 24.42746
1072.30 24.34391
1072.40 24.01759
1072.50 23.7368
1072.60 23.59935
1072.70 23.56887
1072.80 23.43085
1072.90 23.578
1073.00 23.79203
1073.10 23.96325
1073.20 23.8877
1073.30 23.83871
1073.40 23.72263
1073.50 23.58099
1073.60 23.41188
1073.70 23.5506
1073.80 23.79777
1073.90 24.03265
1074.00 24.27562
1074.10 24.48848
1074.20 24.63121
1074.30 24.6329
1074.40 24.72
1074.50 24.64493
1074.60 24.47462
1074.70 24.27915
1074.80 24.14435
1074.90 24.02161
1075.00 23.88315
1075.10 23.77613
1075.20 23.75563
1075.30 23.76228
1075.40 23.78179
1075.50 23.80439
1075.60 24.00769
1075.70 24.19142
1075.80 24.36144
1075.90 24.60508
1076.00 24.87927
1076.10 24.93253
1076.20 24.82742
1076.30 24.75292
1076.40 24.72072
1076.50 24.6967
1076.60 24.66447
1076.70 24.6932
1076.80 24.71827
1076.90 24.75953
1077.00 24.77752
1077.10 24.79405
1077.20 24.69539
1077.30 24.55632
1077.40 24.40541
1077.50 24.14481
1077.60 23.93741
1077.70 23.86843
1077.80 23.94898
1077.90 23.92357
1078.00 24.03266
1078.10 24.18313
1078.20 24.32384
1078.30 24.27534
1078.40 24.2499
1078.50 24.26878
1078.60 24.29726
1078.70 24.33933
1078.80 24.22519
1078.90 24.04863
1079.00 23.91352
1079.10 23.8103
1079.20 23.69746
1079.30 23.57938
1079.40 23.49202
1079.50 23.36326
1079.60 23.43732
1079.70 23.67264
1079.80 23.88787
1079.90 24.02958
1080.00 24.14133
1080.10 24.23126
1080.20 24.28523
1080.30 24.37979
1080.40 24.45468
1080.50 24.50066
1080.60 24.49595
1080.70 24.58681
1080.80 24.70429
1080.90 24.81964
1081.00 24.80796
1081.10 24.80657
1081.20 24.80878
1081.30 24.8133
1081.40 24.82982
1081.50 24.91901
1081.60 25.02733
1081.70 25.11244
1081.80 25.10278
1081.90 25.12444
1082.00 25.05941
1082.10 24.8542
1082.20 24.67775
1082.30 24.49372
1082.40 24.3175
1082.50 24.13167
1082.60 24.14564
1082.70 24.17503
1082.80 24.26035
1082.90 24.43172
1083.00 24.59803
1083.10 24.76063
1083.20 24.88845
1083.30 24.94811
1083.40 24.77011
1083.50 24.55171
1083.60 24.31436
1083.70 24.10264
1083.80 23.9622
1083.90 24.00056
1084.00 24.20438
1084.10 24.42494
1084.20 24.52387
1084.30 24.57247
1084.40 24.58668
1084.50 24.42727
1084.60 24.32552
1084.70 24.23544
1084.80 24.19712
1084.90 24.07485
1085.00 24.24106
1085.10 24.45692
1085.20 24.605
1085.30 24.48416
1085.40 24.42475
1085.50 24.4493
1085.60 24.58166
1085.70 24.63102
1085.80 24.7857
1085.90 24.96562
1086.00 25.15662
1086.10 25.27543
1086.20 25.39427
1086.30 25.44033
1086.40 25.37678
1086.50 25.37844
1086.60 25.25395
1086.70 25.07596
1086.80 24.91952
1086.90 25.01159
1087.00 25.07952
1087.10 25.11629
1087.20 25.15356
1087.30 25.2325
1087.40 25.06977
1087.50 24.79696
1087.60 24.61355
1087.70 24.7009
1087.80 24.76242
1087.90 24.76753
1088.00 24.77217
1088.10 24.83803
1088.20 24.81015
1088.30 24.73736
1088.40 24.68353
1088.50 24.77498
1088.60 24.87533
1088.70 24.8938
1088.80 24.76096
1088.90 24.7112
1089.00 24.73519
1089.10 24.84503
1089.20 24.91185
1089.30 24.88472
1089.40 24.80043
1089.50 24.69979
1089.60 24.74078
1089.70 24.76599
1089.80 24.90211
1089.90 25.15981
1090.00 25.38454
1090.10 25.4044
1090.20 25.35968
1090.30 25.35443
1090.40 25.34376
1090.50 25.34467
1090.60 25.28832
1090.70 25.09394
1090.80 24.91478
1090.90 24.71573
1091.00 24.53493
1091.10 24.4051
1091.20 24.50666
1091.30 24.57983
1091.40 24.68456
1091.50 24.99724
1091.60 25.27304
1091.70 25.44553
1091.80 25.49103
1091.90 25.56012
1092.00 25.50392
1092.10 25.46407
1092.20 25.4774
1092.30 25.53321
1092.40 25.51565
1092.50 25.46837
1092.60 25.40427
1092.70 25.39431
1092.80 25.41701
1092.90 25.44437
1093.00 25.44444
1093.10 25.37284
1093.20 25.30449
1093.30 25.25753
1093.40 25.23571
1093.50 25.23765
1093.60 25.22258
1093.70 25.19687
1093.80 25.1681
1093.90 25.36289
1094.00 25.49139
1094.10 25.60216
1094.20 25.68849
1094.30 25.80795
1094.40 25.50806
1094.50 25.07322
1094.60 24.71162
1094.70 24.77924
1094.80 24.81099
1094.90 24.95304
1095.00 25.26696
1095.10 25.54877
1095.20 25.8209
1095.30 26.09274
1095.40 26.34417
1095.50 26.21918
1095.60 26.09964
1095.70 25.9907
1095.80 25.87945
1095.90 25.75996
1096.00 25.77752
1096.10 25.88042
1096.20 25.97173
1096.30 26.00676
1096.40 26.02425
1096.50 26.01184
1096.60 25.85436
1096.70 25.70415
1096.80 25.41323
1096.90 25.00798
1097.00 24.68095
1097.10 24.55115
1097.20 24.45062
1097.30 24.38776
1097.40 24.66484
1097.50 24.88907
1097.60 25.03962
1097.70 25.13446
1097.80 25.24212
1097.90 25.32625
1098.00 25.39752
1098.10 25.44562
1098.20 25.29087
1098.30 25.19967
1098.40 25.13773
1098.50 25.05006
1098.60 24.93055
1098.70 24.85005
1098.80 24.79759
1098.90 24.72954
1099.00 24.81753
1099.10 24.90711
1099.20 25.04872
1099.30 25.29482
1099.40 25.47734
1099.50 25.49293
1099.60 25.41175
1099.70 25.4184
1099.80 25.38259
1099.90 25.32783
1100.00 25.24347
1100.10 25.13713
1100.20 25.05024
1100.30 24.91774
1100.40 24.74867
1100.50 24.60271
1100.60 24.64859
1100.70 24.71014
1100.80 24.75377
1100.90 24.91263
1101.00 25.10326
1101.10 25.16613
1101.20 25.11334
1101.30 25.05822
1101.40 25.23683
1101.50 25.46095
1101.60 25.59922
1101.70 25.3635
1101.80 25.18674
1101.90 24.91859
1102.00 24.49662
1102.10 24.04444
1102.20 23.71002
1102.30 23.43323
1102.40 23.19555
1102.50 23.60119
1102.60 23.90898
1102.70 24.25278
1102.80 24.66007
1102.90 25.10143
1103.00 25.19829
1103.10 25.09134
1103.20 24.98916
1103.30 24.4101
1103.40 23.88503
1103.50 23.49933
1103.60 23.34004
1103.70 23.09952
1103.80 23.23845
1103.90 23.57249
1104.00 23.88725
1104.10 23.98385
1104.20 24.03421
1104.30 24.00302
1104.40 23.88663
1104.50 23.82555
1104.60 23.89449
1104.70 24.05274
1104.80 24.26751
1104.90 24.34502
1105.00 24.33654
1105.10 24.195
1105.20 23.72614
1105.30 23.35894
1105.40 23.16613
1105.50 23.10626
1105.60 22.97887
1105.70 23.07541
1105.80 23.1962
1105.90 23.26759
1106.00 23.35737
1106.10 23.49153
1106.20 23.55393
1106.30 23.53297
1106.40 23.4996
1106.50 23.53559
1106.60 23.61105
1106.70 23.70079
1106.80 23.47349
1106.90 23.27179
1107.00 23.12735
1107.10 23.13703
1107.20 23.1117
1107.30 23.28589
1107.40 23.52576
1107.50 23.67805
1107.60 23.56338
1107.70 23.51972
1107.80 23.57686
1107.90 23.74904
1108.00 23.85156
1108.10 23.97803
1108.20 24.12148
1108.30 24.25981
1108.40 24.3295
1108.50 24.38724
1108.60 24.41586
1108.70 24.39363
1108.80 24.44416
1108.90 24.45239
1109.00 24.44436
1109.10 24.46212
1109.20 24.53451
1109.30 24.5756
1109.40 24.5698
1109.50 24.62797
1109.60 24.7029
1109.70 24.75053
1109.80 24.76364
1109.90 24.81914
1110.00 24.67981
1110.10 24.5292
1110.20 24.41778
1110.30 24.19674
1110.40 23.95596
1110.50 23.80831
1110.60 23.80261
1110.70 23.66806
1110.80 23.72383
1110.90 23.84372
1111.00 23.9709
1111.10 23.82531
1111.20 23.69737
1111.30 23.60409
1111.40 23.5439
1111.50 23.40724
1111.60 23.3321
1111.70 23.30936
1111.80 23.31316
1111.90 23.29645
1112.00 23.29657
1112.10 23.30488
1112.20 23.33191
1112.30 23.35439
1112.40 23.48829
1112.50 23.68286
1112.60 23.86334
1112.70 24.08873
1112.80 24.28377
1112.90 24.42355
1113.00 24.48296
1113.10 24.5761
1113.20 24.58154
1113.30 24.54801
1113.40 24.556
1113.50 24.44231
1113.60 24.34468
1113.70 24.30165
1113.80 24.232
1113.90 24.04136
1114.00 24.01267
1114.10 24.11028
1114.20 24.17613
1114.30 24.39674
1114.40 24.63211
1114.50 24.80599
1114.60 24.77094
1114.70 24.8725
1114.80 24.90606
1114.90 24.85426
1115.00 24.79007
1115.10 24.84815
1115.20 24.90038
1115.30 24.86723
1115.40 24.76581
1115.50 24.74637
1115.60 24.67187
1115.70 24.45009
1115.80 24.20611
1115.90 24.10629
1116.00 24.08534
1116.10 24.08867
1116.20 24.19172
1116.30 24.27299
1116.40 24.29263
1116.50 24.17417
1116.60 23.97427
1116.70 23.83251
1116.80 23.77135
1116.90 23.85273
1117.00 23.76547
1117.10 23.65694
1117.20 23.57863
1117.30 23.49505
1117.40 23.34374
1117.50 23.38416
1117.60 23.4468
1117.70 23.46971
1117.80 23.53732
1117.90 23.62367
1118.00 23.6626
1118.10 23.77358
1118.20 23.98779
1118.30 24.23021
1118.40 24.44203
1118.50 24.51128
1118.60 24.54668
1118.70 24.64962
1118.80 24.5788
1118.90 24.46241
1119.00 24.32411
1119.10 24.19707
1119.20 24.07081
1119.30 23.97135
1119.40 23.91407
1119.50 23.93867
1119.60 23.97454
1119.70 24.0272
1119.80 24.13832
1119.90 24.23148
1120.00 24.32398
1120.10 24.37173
1120.20 24.42503
1120.30 24.49283
1120.40 24.59112
1120.50 24.64198
1120.60 24.64951
1120.70 24.59815
1120.80 24.46357
1120.90 24.41848
1121.00 24.35699
1121.10 24.3139
1121.20 24.24082
1121.30 24.19619
1121.40 24.20058
1121.50 24.21347
1121.60 24.19789
1121.70 24.11157
1121.80 23.99652
1121.90 23.88791
1122.00 23.85749
1122.10 23.90619
1122.20 23.94042
1122.30 24.00287
1122.40 24.04689
1122.50 24.00791
1122.60 24.0306
1122.70 24.17702
1122.80 24.38464
1122.90 24.62502
1123.00 24.66215
1123.10 24.6156
1123.20 24.53646
1123.30 24.33605
1123.40 23.99651
1123.50 23.63554
1123.60 23.43402
1123.70 23.70783
1123.80 23.93033
1123.90 24.14691
1124.00 24.28496
1124.10 24.41128
1124.20 24.52551
1124.30 24.59226
1124.40 24.63507
1124.50 24.66924
1124.60 24.66542
1124.70 24.56608
1124.80 24.5622
1124.90 24.45972
1125.00 24.21496
1125.10 24.01206
1125.20 23.98073
1125.30 24.15581
1125.40 24.22596
1125.50 23.952
1125.60 23.77772
1125.70 23.67195
1125.80 23.95492
1125.90 24.13763
1126.00 24.21114
1126.10 24.22837
1126.20 24.23201
1126.30 24.26479
1126.40 24.2936
1126.50 24.33603
1126.60 24.42364
1126.70 24.52108
1126.80 24.60641
1126.90 24.65373
1127.00 24.67596
1127.10 24.70511
1127.20 24.70549
1127.30 24.61448
1127.40 24.48003
1127.50 24.31605
1127.60 24.16434
1127.70 24.06019
1127.80 24.0206
1127.90 24.10617
1128.00 24.22045
1128.10 24.33209
1128.20 24.423
1128.30 24.4913
1128.40 24.49748
1128.50 24.51789
1128.60 24.55439
1128.70 24.64519
1128.80 24.72181
1128.90 24.71112
1129.00 24.69371
1129.10 24.66251
1129.20 24.59783
1129.30 24.50651
1129.40 24.39589
1129.50 24.39992
1129.60 24.50055
1129.70 24.59658
1129.80 24.70231
1129.90 24.79207
1130.00 24.95344
1130.10 25.05837
1130.20 24.78795
1130.30 24.55073
1130.40 24.32628
1130.50 24.16218
1130.60 24.01495
1130.70 23.85164
1130.80 23.84269
1130.90 23.96761
1131.00 24.05397
1131.10 24.18161
1131.20 24.34057
1131.30 24.4645
1131.40 24.57356
1131.50 24.61746
1131.60 24.6727
1131.70 24.73695
1131.80 24.74803
1131.90 24.74333
1132.00 24.75816
1132.10 24.73346
1132.20 24.6814
1132.30 24.60265
1132.40 24.53725
1132.50 24.50663
1132.60 24.50488
1132.70 24.50035
1132.80 24.50571
1132.90 24.51582
1133.00 24.53126
1133.10 24.47572
1133.20 24.38171
1133.30 24.24225
1133.40 24.11844
1133.50 24.01292
1133.60 23.97734
1133.70 23.92922
1133.80 23.87781
1133.90 23.85842
1134.00 23.85289
1134.10 23.83589
1134.20 23.79336
1134.30 23.79439
1134.40 23.8429
1134.50 23.87183
1134.60 23.83294
1134.70 23.95043
1134.80 24.20835
1134.90 24.20103
1135.00 24.09576
1135.10 23.72867
1135.20 23.75139
1135.30 23.84634
1135.40 23.84063
1135.50 23.79704
1135.60 23.63476
1135.70 23.51783
1135.80 23.3972
1135.90 23.29249
1136.00 23.38055
1136.10 23.57334
1136.20 23.69419
1136.30 23.71489
1136.40 23.52372
1136.50 23.44479
1136.60 23.35449
1136.70 23.22554
1136.80 23.0988
1136.90 22.97219
1137.00 22.883
1137.10 22.79891
1137.20 22.69121
1137.30 22.50176
1137.40 22.23678
1137.50 21.9436
1137.60 21.58117
1137.70 20.92396
1137.80 20.33697
1137.90 19.64767
1138.00 18.51215
1138.10 17.35868
1138.20 16.23402
1138.30 15.84046
1138.40 15.67711
1138.50 15.54592
1138.60 16.09446
1138.70 17.42474
1138.80 18.67853
1138.90 19.81205
1139.00 20.40344
1139.10 20.9965
1139.20 21.47838
1139.30 21.45299
1139.40 21.43956
1139.50 21.42464
1139.60 21.21942
1139.70 20.95079
1139.80 20.67992
1139.90 20.21818
1140.00 19.48707
1140.10 18.79684
1140.20 17.90296
1140.30 16.60203
1140.40 15.33889
1140.50 14.10304
1140.60 13.93212
1140.70 13.75778
1140.80 13.69387
1140.90 14.74367
1141.00 16.18828
1141.10 17.61278
1141.20 18.82097
1141.30 19.71204
1141.40 20.5483
1141.50 21.28574
1141.60 21.708
1141.70 22.20054
1141.80 22.61046
1141.90 22.77085
1142.00 22.8912
1142.10 22.97628
1142.20 22.96462
1142.30 22.93543
1142.40 22.99783
1142.50 23.08895
1142.60 23.23682
1142.70 23.37459
1142.80 23.52375
1142.90 23.6431
1143.00 23.77419
1143.10 23.86827
1143.20 23.89075
1143.30 23.9097
1143.40 23.94763
1143.50 23.98834
1143.60 24.02182
1143.70 23.9883
1143.80 23.85314
1143.90 23.58495
1144.00 23.29948
1144.10 23.10135
1144.20 23.09747
1144.30 23.12378
1144.40 23.15136
1144.50 23.18664
1144.60 23.25703
1144.70 23.34778
1144.80 23.46492
1144.90 23.58154
1145.00 23.65175
1145.10 23.71334
1145.20 23.74584
1145.30 23.80276
1145.40 23.8311
1145.50 23.84187
1145.60 23.85446
1145.70 23.86885
1145.80 23.89806
1145.90 23.91237
1146.00 23.92613
1146.10 24.00703
1146.20 24.11589
1146.30 24.23962
1146.40 24.3603
1146.50 24.48289
1146.60 24.55286
1146.70 24.59814
1146.80 24.49069
1146.90 24.43211
1147.00 24.33
1147.10 24.14931
1147.20 23.9478
1147.30 23.76494
1147.40 23.76201
1147.50 23.83689
1147.60 24.02492
1147.70 24.22538
1147.80 24.43801
1147.90 24.54428
1148.00 24.60418
1148.10 24.61349
1148.20 24.63046
1148.30 24.62816
1148.40 24.44165
1148.50 24.21618
1148.60 23.99416
1148.70 24.01972
1148.80 24.13959
1148.90 24.26034
1149.00 24.35302
1149.10 24.40879
1149.20 24.58548
1149.30 24.66383
1149.40 24.62343
1149.50 24.50097
1149.60 24.41157
1149.70 24.45824
1149.80 24.48941
1149.90 24.51352
1150.00 24.46077
1150.10 24.41226
1150.20 24.44641
1150.30 24.47371
1150.40 24.52036
1150.50 24.48026
1150.60 24.48784
1150.70 24.56937
1150.80 24.6191
1150.90 24.66765
1151.00 24.64929
1151.10 24.65248
1151.20 24.66148
1151.30 24.6316
1151.40 24.60365
1151.50 24.61039
1151.60 24.61713
1151.70 24.64066
1151.80 24.63144
1151.90 24.65691
1152.00 24.69662
1152.10 24.71639
1152.20 24.6831
1152.30 24.46788
1152.40 24.28577
1152.50 24.15098
1152.60 24.14193
1152.70 24.16475
1152.80 24.14736
1152.90 24.15383
1153.00 24.16644
1153.10 24.20532
1153.20 24.21199
1153.30 24.20946
1153.40 24.1866
1153.50 24.16805
1153.60 24.25263
1153.70 24.31594
1153.80 24.38217
1153.90 24.47861
1154.00 24.58133
1154.10 24.67506
1154.20 24.68536
1154.30 24.61697
1154.40 24.64532
1154.50 24.60728
1154.60 24.44923
1154.70 24.29882
1154.80 24.13481
1154.90 24.16467
1155.00 24.15481
1155.10 24.13518
1155.20 24.2032
1155.30 24.31425
1155.40 24.45519
1155.50 24.5811
1155.60 24.68873
1155.70 24.73953
1155.80 24.77609
1155.90 24.73989
1156.00 24.75932
1156.10 24.74536
1156.20 24.74393
1156.30 24.72626
1156.40 24.71748
1156.50 24.73376
1156.60 24.75492
1156.70 24.77911
1156.80 24.7067
1156.90 24.56286
1157.00 24.45744
1157.10 24.38322
1157.20 24.40556
1157.30 24.37438
1157.40 24.36068
1157.50 24.3552
1157.60 24.34974
1157.70 24.34538
1157.80 24.36154
1157.90 24.38555
1158.00 24.43375
1158.10 24.48322
1158.20 24.52992
1158.30 24.55839
1158.40 24.55377
1158.50 24.51786
1158.60 24.50573
1158.70 24.49006
1158.80 24.41224
1158.90 24.3376
1159.00 24.26437
1159.10 24.04861
1159.20 23.80908
1159.30 23.57601
1159.40 23.34915
1159.50 23.14495
1159.60 22.91874
1159.70 22.84927
1159.80 23.04858
1159.90 23.18649
1160.00 23.3626
1160.10 23.56918
1160.20 23.77458
1160.30 23.97779
1160.40 24.02335
1160.50 24.03556
1160.60 24.02986
1160.70 23.71195
1160.80 23.22267
1160.90 22.79066
1161.00 22.50181
1161.10 22.58932
1161.20 22.62547
1161.30 22.80887
1161.40 23.32706
1161.50 23.80659
1161.60 24.25563
1161.70 24.36652
1161.80 24.45823
1161.90 24.60005
1162.00 24.59982
1162.10 24.52748
1162.20 24.37656
1162.30 24.2831
1162.40 24.28521
1162.50 24.26595
1162.60 24.28537
1162.70 24.36089
1162.80 24.44958
1162.90 24.55539
1163.00 24.64531
1163.10 24.72505
1163.20 24.77989
1163.30 24.73379
1163.40 24.64503
1163.50 24.58132
1163.60 24.38992
1163.70 23.99495
1163.80 23.62996
1163.90 23.28494
1164.00 23.15462
1164.10 22.98013
1164.20 22.86327
1164.30 23.23296
1164.40 23.62157
1164.50 23.98445
1164.60 24.18512
1164.70 24.28725
1164.80 24.41404
1164.90 24.44946
1165.00 24.38938
1165.10 24.36301
1165.20 24.29976
1165.30 24.19211
1165.40 24.0996
1165.50 24.01303
1165.60 24.02381
1165.70 24.0188
1165.80 24.00569
1165.90 24.09231
1166.00 24.21495
1166.10 24.31085
1166.20 24.39287
1166.30 24.45758
1166.40 24.55441
1166.50 24.60516
1166.60 24.60182
1166.70 24.61233
1166.80 24.61736
1166.90 24.4913
1167.00 24.37599
1167.10 24.29228
1167.20 24.24155
1167.30 24.19456
1167.40 24.11047
1167.50 24.03401
1167.60 23.97288
1167.70 23.91077
1167.80 23.85974
1167.90 23.85598
1168.00 23.86225
1168.10 23.86804
1168.20 23.74478
1168.30 23.63738
1168.40 23.54405
1168.50 23.2506
1168.60 22.89654
1168.70 22.56845
1168.80 21.85065
1168.90 20.6389
1169.00 19.54454
1169.10 18.54653
1169.20 18.17621
1169.30 17.62237
1169.40 17.28395
1169.50 18.41615
1169.60 19.52586
1169.70 20.55843
1169.80 21.39075
1169.90 22.14874
1170.00 22.9177
1170.10 23.37876
1170.20 23.59016
1170.30 23.86185
1170.40 24.03697
1170.50 24.05348
1170.60 24.14783
1170.70 24.23431
1170.80 24.20424
1170.90 24.19505
1171.00 24.18374
1171.10 24.17717
1171.20 24.17586
1171.30 24.19492
1171.40 24.21858
1171.50 24.23288
1171.60 24.22598
1171.70 24.1733
1171.80 24.04583
1171.90 23.95162
1172.00 23.87738
1172.10 23.86996
1172.20 23.83868
1172.30 23.7987
1172.40 23.81127
1172.50 23.83095
1172.60 23.83898
1172.70 23.89276
1172.80 23.99262
1172.90 24.09974
1173.00 24.19489
1173.10 24.2445
1173.20 24.32518
1173.30 24.37638
1173.40 24.28813
1173.50 24.20927
1173.60 24.13126
1173.70 24.09173
1173.80 24.0349
1173.90 23.95896
1174.00 23.94944
1174.10 23.98171
1174.20 24.01159
1174.30 24.05415
1174.40 24.12208
1174.50 24.2345
1174.60 24.33162
1174.70 24.3089
1174.80 24.29533
1174.90 24.26697
1175.00 24.16943
1175.10 24.06836
1175.20 23.98629
1175.30 23.94163
1175.40 23.91601
1175.50 23.86428
1175.60 23.86276
1175.70 23.9458
1175.80 24.00138
1175.90 24.00286
1176.00 23.87359
1176.10 23.78586
1176.20 23.70255
1176.30 23.57068
1176.40 23.4351
1176.50 23.31878
1176.60 22.92667
1176.70 22.37814
1176.80 21.84718
1176.90 20.88478
1177.00 19.42046
1177.10 18.08038
1177.20 16.75574
1177.30 15.95166
1177.40 15.05454
1177.50 14.29932
1177.60 15.25896
1177.70 16.25668
1177.80 17.14681
1177.90 18.28395
1178.00 19.5157
1178.10 20.65029
1178.20 21.42059
1178.30 21.71465
1178.40 22.09682
1178.50 22.37787
1178.60 22.52349
1178.70 22.74069
1178.80 22.96409
1178.90 23.14095
1179.00 23.33934
1179.10 23.55996
1179.20 23.62852
1179.30 23.643
1179.40 23.63778
1179.50 23.5995
1179.60 23.53207
1179.70 23.45176
1179.80 23.38854
1179.90 23.38214
1180.00 23.42208
1180.10 23.50131
1180.20 23.65168
1180.30 23.77688
1180.40 23.86238
1180.50 23.86449
1180.60 23.8471
1180.70 23.8449
1180.80 23.79952
1180.90 23.73565
1181.00 23.67963
1181.10 23.63033
1181.20 23.58758
1181.30 23.55648
1181.40 23.5345
1181.50 23.50643
1181.60 23.45568
1181.70 23.40033
1181.80 23.41785
1181.90 23.45539
1182.00 23.47038
1182.10 23.49982
1182.20 23.5457
1182.30 23.63601
1182.40 23.63129
1182.50 23.4603
1182.60 23.311
1182.70 23.1309
1182.80 22.85837
1182.90 22.58072
1183.00 22.3208
1183.10 22.38254
1183.20 22.50814
1183.30 22.63871
1183.40 22.76883
1183.50 22.8887
1183.60 23.01046
1183.70 23.06397
1183.80 23.04274
1183.90 23.02482
1184.00 23.05108
1184.10 23.31984
1184.20 23.5236
1184.30 23.70605
1184.40 23.73738
1184.50 23.7664
1184.60 23.83118
1184.70 23.71786
1184.80 23.52107
1184.90 23.35568
1185.00 23.23272
1185.10 23.22264
1185.20 23.18709
1185.30 23.19436
1185.40 23.35874
1185.50 23.47729
1185.60 23.59334
1185.70 23.61258
1185.80 23.61134
1185.90 23.61025
1186.00 23.61656
1186.10 23.6382
1186.20 23.69319
1186.30 23.73846
1186.40 23.75078
1186.50 23.7413
1186.60 23.68811
1186.70 23.55324
1186.80 23.46207
1186.90 23.37933
1187.00 23.37834
1187.10 23.36878
1187.20 23.35315
1187.30 23.41322
1187.40 23.49878
1187.50 23.53143
1187.60 23.52256
1187.70 23.43891
1187.80 23.44364
1187.90 23.34685
1188.00 22.99511
1188.10 22.64798
1188.20 22.24387
1188.30 21.52714
1188.40 20.82698
1188.50 20.17256
1188.60 20.20099
1188.70 20.4417
1188.80 20.65291
1188.90 21.12706
1189.00 21.84205
1189.10 22.48915
1189.20 22.98721
1189.30 23.0146
1189.40 23.13096
1189.50 23.23065
1189.60 23.33803
1189.70 23.43805
1189.80 23.51596
1189.90 23.58242
1190.00 23.64721
1190.10 23.6932
1190.20 23.6533
1190.30 23.55175
1190.40 23.49916
1190.50 23.43934
1190.60 23.35346
1190.70 23.2504
1190.80 23.1586
1190.90 23.27769
1191.00 23.3671
1191.10 23.46598
1191.20 23.52059
1191.30 23.56456
1191.40 23.60069
1191.50 23.5991
1191.60 23.57487
1191.70 23.561
1191.80 23.54865
1191.90 23.55398
1192.00 23.56857
1192.10 23.59691
1192.20 23.5597
1192.30 23.53427
1192.40 23.4952
1192.50 23.44737
1192.60 23.39083
1192.70 23.32766
1192.80 23.34474
1192.90 23.40631
1193.00 23.4616
1193.10 23.51022
1193.20 23.52977
1193.30 23.54671
1193.40 23.53258
1193.50 23.37876
1193.60 23.27336
1193.70 23.15806
1193.80 22.99628
1193.90 22.83148
1194.00 22.67979
1194.10 22.65243
1194.20 22.68303
1194.30 22.66064
1194.40 22.63746
1194.50 22.58003
1194.60 22.54555
1194.70 22.4495
1194.80 22.18621
1194.90 21.96707
1195.00 21.75868
1195.10 21.81008
1195.20 21.83503
1195.30 21.853
1195.40 22.06871
1195.50 22.33476
1195.60 22.57357
1195.70 22.66542
1195.80 22.55318
1195.90 22.56717
1196.00 22.50747
1196.10 22.4062
1196.20 22.30092
1196.30 22.20202
1196.40 22.20559
1196.50 22.1854
1196.60 22.15015
1196.70 22.1515
1196.80 22.16714
1196.90 22.17569
1197.00 21.93126
1197.10 21.46561
1197.20 21.03353
1197.30 20.52678
1197.40 19.95981
1197.50 19.42658
1197.60 18.96697
1197.70 19.34531
1197.80 19.63432
1197.90 19.93519
1198.00 20.29404
1198.10 20.65614
1198.20 20.99252
1198.30 21.2661
1198.40 21.49657
1198.50 21.69032
1198.60 21.85853
1198.70 21.91038
1198.80 22.03945
1198.90 22.09533
1199.00 21.82419
1199.10 21.61001
1199.20 21.40971
1199.30 21.35495
1199.40 21.30348
1199.50 21.22409
1199.60 21.2627
1199.70 21.35169
1199.80 21.4073
1199.90 21.44884
1200.00 21.4327
