# Version 2.1 - nm, norm@500 to 1, cut digits
# Wavelength(nm)  Flambda(ergs/cm^s/s/nm)
300.00 0.008271694
300.10 0.01100165
300.20 0.01266094
300.30 0.01334289
300.40 0.01351729
300.50 0.01356582
300.60 0.01361587
300.70 0.01366755
300.80 0.01372259
300.90 0.01378483
301.00 0.01385864
301.10 0.01394594
301.20 0.0140447
301.30 0.01415033
301.40 0.01425863
301.50 0.01436746
301.60 0.01447628
301.70 0.01458508
301.80 0.01469388
301.90 0.01480268
302.00 0.01491148
302.10 0.01502027
302.20 0.01512907
302.30 0.01523787
302.40 0.01534666
302.50 0.01545544
302.60 0.01556422
302.70 0.01567338
302.80 0.01578459
302.90 0.01590101
303.00 0.01602613
303.10 0.01616149
303.20 0.01630555
303.30 0.01645482
303.40 0.01660614
303.50 0.01675784
303.60 0.01690954
303.70 0.01706123
303.80 0.01721291
303.90 0.0173646
304.00 0.01751628
304.10 0.01766796
304.20 0.01781965
304.30 0.01797134
304.40 0.01812304
304.50 0.01827476
304.60 0.01842652
304.70 0.01857707
304.80 0.01872138
304.90 0.01884975
305.00 0.01895152
305.10 0.01902195
305.20 0.01906578
305.30 0.01909366
305.40 0.01911531
305.50 0.01913575
305.60 0.01915622
305.70 0.01917672
305.80 0.01919723
305.90 0.01921775
306.00 0.01923826
306.10 0.01925877
306.20 0.01927929
306.30 0.0192998
306.40 0.01932032
306.50 0.01934083
306.60 0.01936135
306.70 0.01938187
306.80 0.0194024
306.90 0.01942296
307.00 0.01944359
307.10 0.01946428
307.20 0.01948503
307.30 0.01950581
307.40 0.01952661
307.50 0.01954741
307.60 0.01956821
307.70 0.01958901
307.80 0.01960981
307.90 0.01963061
308.00 0.01965141
308.10 0.01967221
308.20 0.019693
308.30 0.01971379
308.40 0.01973455
308.50 0.01975525
308.60 0.01977586
308.70 0.01979949
308.80 0.01983874
308.90 0.01991788
309.00 0.0200636
309.10 0.02028776
309.20 0.0205785
309.30 0.02090913
309.40 0.02125538
309.50 0.02160465
309.60 0.02195383
309.70 0.02230295
309.80 0.02265205
309.90 0.02300113
310.00 0.02335021
310.10 0.02369929
310.20 0.02404837
310.30 0.02439747
310.40 0.02474659
310.50 0.02509577
310.60 0.02544504
310.70 0.02579127
310.80 0.02612181
310.90 0.02641224
311.00 0.02663574
311.10 0.02678039
311.20 0.02685811
311.30 0.02689573
311.40 0.02691765
311.50 0.02693652
311.60 0.0269555
311.70 0.02697453
311.80 0.02699358
311.90 0.02701265
312.00 0.02703172
312.10 0.02705079
312.20 0.02706986
312.30 0.02708891
312.40 0.02710793
312.50 0.02712688
312.60 0.02714571
312.70 0.0271683
312.80 0.02721028
312.90 0.02730178
313.00 0.02747595
313.10 0.0277475
313.20 0.02810172
313.30 0.02850547
313.40 0.0289286
313.50 0.02935549
313.60 0.02978226
313.70 0.03020896
313.80 0.03063563
313.90 0.03106229
314.00 0.03148894
314.10 0.03191559
314.20 0.03234224
314.30 0.03276888
314.40 0.03319549
314.50 0.03362206
314.60 0.03404855
314.70 0.03447765
314.80 0.03492024
314.90 0.03539731
315.00 0.03593193
315.10 0.03653433
315.20 0.03719428
315.30 0.0378887
315.40 0.03859662
315.50 0.03930715
315.60 0.0400176
315.70 0.040728
315.80 0.04143838
315.90 0.04214875
316.00 0.04285912
316.10 0.04356949
316.20 0.04427986
316.30 0.04499027
316.40 0.04570077
316.50 0.04641144
316.60 0.04712242
316.70 0.04782378
316.80 0.04847554
316.90 0.04900057
317.00 0.04931409
317.10 0.04937842
317.20 0.04923123
317.30 0.04895731
317.40 0.0486338
317.50 0.04830067
317.60 0.04796784
317.70 0.04763519
317.80 0.04730262
317.90 0.04697009
318.00 0.04663757
318.10 0.04630505
318.20 0.04597252
318.30 0.04563996
318.40 0.04530734
318.50 0.04497458
318.60 0.0446416
318.70 0.04431597
318.80 0.04402831
318.90 0.04383766
319.00 0.04380893
319.10 0.04397094
319.20 0.04429486
319.30 0.0447158
319.40 0.04517471
319.50 0.04564097
319.60 0.046107
319.70 0.0465729
319.80 0.04703873
319.90 0.04750454
320.00 0.04797034
320.10 0.04843613
320.20 0.04890193
320.30 0.04936774
320.40 0.04983358
320.50 0.05029947
320.60 0.05076544
320.70 0.05122869
320.80 0.05167789
320.90 0.05209122
321.00 0.05244466
321.10 0.05272756
321.20 0.05295057
321.30 0.0531377
321.40 0.05331079
321.50 0.05348115
321.60 0.05365161
321.70 0.05382211
321.80 0.05399264
321.90 0.05416317
322.00 0.05433371
322.10 0.05450425
322.20 0.05467478
322.30 0.05484528
322.40 0.05501568
322.50 0.0551859
322.60 0.05535581
322.70 0.05553566
322.80 0.05576681
322.90 0.05612901
323.00 0.05670994
323.10 0.05754857
323.20 0.05860592
323.30 0.05979434
323.40 0.06103405
323.50 0.06228369
323.60 0.06353303
323.70 0.06478218
323.80 0.06603125
323.90 0.06728027
324.00 0.06852929
324.10 0.06977831
324.20 0.07102733
324.30 0.07227636
324.40 0.0735254
324.50 0.07477447
324.60 0.07602359
324.70 0.0772711
324.80 0.07851027
324.90 0.07972816
325.00 0.08091051
325.10 0.08205101
325.20 0.08315597
325.30 0.08423964
325.40 0.08531499
325.50 0.08638871
325.60 0.08746249
325.70 0.0885363
325.80 0.08961012
325.90 0.09068395
326.00 0.09175778
326.10 0.09283161
326.20 0.09390544
326.30 0.09497925
326.40 0.09605304
326.50 0.09712675
326.60 0.09820036
326.70 0.09927745
326.80 0.1003725
326.90 0.1015134
327.00 0.102731
327.10 0.1040387
327.20 0.105423
327.30 0.1068532
327.40 0.1083014
327.50 0.109753
327.60 0.1112045
327.70 0.112656
327.80 0.1141074
327.90 0.1155588
328.00 0.1170103
328.10 0.1184617
328.20 0.1199131
328.30 0.1213646
328.40 0.1228163
328.50 0.1242684
328.60 0.1257211
328.70 0.1271534
328.80 0.1284803
328.90 0.129538
329.00 0.1301464
329.10 0.1302254
329.20 0.1298551
329.30 0.1292156
329.40 0.1284706
329.50 0.1277053
329.60 0.1269406
329.70 0.1261763
329.80 0.1254122
329.90 0.1246482
330.00 0.1238841
330.10 0.1231201
330.20 0.1223561
330.30 0.121592
330.40 0.1208277
330.50 0.1200632
330.60 0.1192982
330.70 0.1185484
330.80 0.1178767
330.90 0.1174047
331.00 0.1172661
331.10 0.1175201
331.20 0.1181074
331.30 0.1188945
331.40 0.1197597
331.50 0.1206401
331.60 0.12152
331.70 0.1223996
331.80 0.1232791
331.90 0.1241585
332.00 0.1250379
332.10 0.1259173
332.20 0.1267967
332.30 0.1276761
332.40 0.1285557
332.50 0.1294354
332.60 0.1303154
332.70 0.1311858
332.80 0.1320068
332.90 0.1327013
333.00 0.1331847
333.10 0.1334195
333.20 0.1334433
333.30 0.1333407
333.40 0.1331885
333.50 0.1330268
333.60 0.1328654
333.70 0.1327041
333.80 0.1325429
333.90 0.1323818
334.00 0.1322207
334.10 0.1320594
334.20 0.1318979
334.30 0.131736
334.40 0.1315737
334.50 0.1314111
334.60 0.1313833
334.70 0.1317956
334.80 0.1327649
334.90 0.1337471
335.00 0.133707
335.10 0.1323614
335.20 0.1313369
335.30 0.1336762
335.40 0.1414958
335.50 0.1535992
335.60 0.1653476
335.70 0.1713589
335.80 0.1689811
335.90 0.1596057
336.00 0.147183
336.10 0.1357788
336.20 0.128227
336.30 0.1257131
336.40 0.1272708
336.50 0.1299004
336.60 0.1303658
336.70 0.1278789
336.80 0.1251033
336.90 0.126066
337.00 0.1327091
337.10 0.1429975
337.20 0.1520851
337.30 0.1556457
337.40 0.1529105
337.50 0.1471486
337.60 0.1431671
337.70 0.1437448
337.80 0.1480012
337.90 0.1530098
338.00 0.1565342
338.10 0.1579597
338.20 0.1569621
338.30 0.1524771
338.40 0.1441402
338.50 0.1344169
338.60 0.1282198
338.70 0.129378
338.80 0.1370615
338.90 0.1460468
339.00 0.1509133
339.10 0.1504832
339.20 0.1485475
339.30 0.1501395
339.40 0.1569012
339.50 0.1660208
339.60 0.1732751
339.70 0.1765795
339.80 0.1765209
339.90 0.1742651
340.00 0.170276
340.10 0.1650319
340.20 0.1596387
340.30 0.1549353
340.40 0.1503529
340.50 0.1445089
340.60 0.1370683
340.70 0.129513
340.80 0.1239658
340.90 0.1216338
341.00 0.1224359
341.10 0.1256348
341.20 0.1303818
341.30 0.1356802
341.40 0.1403551
341.50 0.1435088
341.60 0.1450544
341.70 0.145755
341.80 0.1466441
341.90 0.1482638
342.00 0.1501835
342.10 0.1510851
342.20 0.1495641
342.30 0.1453104
342.40 0.1397434
342.50 0.1352928
342.60 0.1337654
342.70 0.1352175
342.80 0.1381912
342.90 0.140865
343.00 0.1421744
343.10 0.1422906
343.20 0.142223
343.30 0.1428391
343.40 0.1441087
343.50 0.1452832
343.60 0.1456877
343.70 0.1451368
343.80 0.1437738
343.90 0.1419364
344.00 0.1402423
344.10 0.1394059
344.20 0.1396132
344.30 0.1402073
344.40 0.1402642
344.50 0.1394766
344.60 0.1384032
344.70 0.1379781
344.80 0.1389153
344.90 0.1414672
345.00 0.145501
345.10 0.1505991
345.20 0.1560814
345.30 0.1610054
345.40 0.1643176
345.50 0.165361
345.60 0.1644251
345.70 0.1626971
345.80 0.1614507
345.90 0.1611549
346.00 0.1612644
346.10 0.1606961
346.20 0.1585843
346.30 0.1549618
346.40 0.1509785
346.50 0.1482321
346.60 0.1474978
346.70 0.1480543
346.80 0.1483542
346.90 0.1472837
347.00 0.1447363
347.10 0.1413996
347.20 0.1384151
347.30 0.1370554
347.40 0.1381299
347.50 0.1413459
347.60 0.1454459
347.70 0.1491739
347.80 0.1521161
347.90 0.1546884
348.00 0.1574823
348.10 0.1606047
348.20 0.1634653
348.30 0.1651674
348.40 0.165235
348.50 0.1640299
348.60 0.1623786
348.70 0.1608181
348.80 0.1593433
348.90 0.1577797
349.00 0.156135
349.10 0.1545556
349.20 0.1531724
349.30 0.1521741
349.40 0.1518997
349.50 0.1525653
349.60 0.1538407
349.70 0.1548989
349.80 0.1551481
349.90 0.1550631
350.00 0.1561286
350.10 0.1596701
350.20 0.1655842
350.30 0.1722045
350.40 0.1774402
350.50 0.1800988
350.60 0.1802787
350.70 0.1788099
350.80 0.1765492
350.90 0.1739748
351.00 0.1710009
351.10 0.1670174
351.20 0.1613651
351.30 0.1541818
351.40 0.1468634
351.50 0.1413928
351.60 0.1389337
351.70 0.1390094
351.80 0.1400561
351.90 0.1407265
352.00 0.140642
352.10 0.1400763
352.20 0.1393469
352.30 0.1387287
352.40 0.1388128
352.50 0.1406831
352.60 0.1453215
352.70 0.1525925
352.80 0.1608551
352.90 0.1678793
353.00 0.172489
353.10 0.1753141
353.20 0.177826
353.30 0.1808401
353.40 0.1841569
353.50 0.1873761
353.60 0.1905789
353.70 0.1940737
353.80 0.1978561
353.90 0.2015889
354.00 0.2048311
354.10 0.2070088
354.20 0.2074292
354.30 0.2058147
354.40 0.2029031
354.50 0.2001958
354.60 0.1988363
354.70 0.1987657
354.80 0.1990404
354.90 0.1988213
355.00 0.1979519
355.10 0.1967694
355.20 0.1956327
355.30 0.1947081
355.40 0.1940764
355.50 0.1937727
355.60 0.1936012
355.70 0.1930125
355.80 0.1913599
355.90 0.1884371
356.00 0.184724
356.10 0.1809964
356.20 0.1776608
356.30 0.1744294
356.40 0.1706345
356.50 0.1659536
356.60 0.1609361
356.70 0.1568075
356.80 0.1546142
356.90 0.1544504
357.00 0.1554664
357.10 0.1565255
357.20 0.1567995
357.30 0.1559358
357.40 0.1539541
357.50 0.151134
357.60 0.1479338
357.70 0.1448299
357.80 0.1421226
357.90 0.139869
358.00 0.1380507
358.10 0.1368665
358.20 0.1368103
358.30 0.1383471
358.40 0.1414469
358.50 0.1454162
358.60 0.1491668
358.70 0.1516819
358.80 0.1524402
358.90 0.1516674
359.00 0.1503535
359.10 0.1498806
359.20 0.1512628
359.30 0.1544384
359.40 0.158189
359.50 0.1609022
359.60 0.1616652
359.70 0.1608317
359.80 0.1596218
359.90 0.1590913
360.00 0.1592933
360.10 0.1592801
360.20 0.1579116
360.30 0.1547705
360.40 0.1505118
360.50 0.1465351
360.60 0.1443353
360.70 0.1449072
360.80 0.1482969
360.90 0.1534976
361.00 0.1589439
361.10 0.1634037
361.20 0.1665622
361.30 0.1687793
361.40 0.1703659
361.50 0.1712549
361.60 0.1714291
361.70 0.1713863
361.80 0.1718679
361.90 0.1731063
362.00 0.1745466
362.10 0.1754276
362.20 0.1754818
362.30 0.1750115
362.40 0.1745231
362.50 0.1744394
362.60 0.1749014
362.70 0.1755248
362.80 0.175469
362.90 0.1741054
363.00 0.1717493
363.10 0.1695665
363.20 0.1686335
363.30 0.1691349
363.40 0.1704419
363.50 0.1717708
363.60 0.1726878
363.70 0.1731508
363.80 0.1732492
363.90 0.1729473
364.00 0.1720212
364.10 0.1702139
364.20 0.1674959
364.30 0.1642089
364.40 0.160994
364.50 0.1585832
364.60 0.1575154
364.70 0.1578355
364.80 0.1590298
364.90 0.1604136
365.00 0.1617573
365.10 0.1635188
365.20 0.1662802
365.30 0.1698831
365.40 0.1732178
365.50 0.1749921
365.60 0.1747979
365.70 0.17342
365.80 0.17208
365.90 0.1714447
366.00 0.1713761
366.10 0.1714889
366.20 0.1717563
366.30 0.1724578
366.40 0.1736664
366.50 0.1749676
366.60 0.1756771
366.70 0.1752831
366.80 0.1737134
366.90 0.171296
367.00 0.1685876
367.10 0.1662207
367.20 0.1647699
367.30 0.1646042
367.40 0.1657271
367.50 0.1677442
367.60 0.1700562
367.70 0.1721699
367.80 0.1739041
367.90 0.1753558
368.00 0.1766967
368.10 0.1779679
368.20 0.1790069
368.30 0.1795274
368.40 0.1793053
368.50 0.1783887
368.60 0.1771862
368.70 0.176297
368.80 0.1761453
368.90 0.1767207
369.00 0.177697
369.10 0.1788161
369.20 0.1800651
369.30 0.1814325
369.40 0.1825975
369.50 0.18301
369.60 0.1823668
369.70 0.1809833
369.80 0.1796838
369.90 0.1793337
370.00 0.1803907
370.10 0.1827248
370.20 0.1857659
370.30 0.1888104
370.40 0.1912643
370.50 0.1927421
370.60 0.1931108
370.70 0.192595
370.80 0.1917915
370.90 0.1914025
371.00 0.1917805
371.10 0.1926362
371.20 0.1931471
371.30 0.1923839
371.40 0.1898282
371.50 0.1857171
371.60 0.1810082
371.70 0.176931
371.80 0.1744258
371.90 0.1738388
372.00 0.1749508
372.10 0.1770412
372.20 0.1788368
372.30 0.1787337
372.40 0.1755386
372.50 0.1694039
372.60 0.1621105
372.70 0.1562695
372.80 0.1539917
372.90 0.1559628
373.00 0.161392
373.10 0.1685877
373.20 0.1756586
373.30 0.1810263
373.40 0.1837409
373.50 0.1835487
373.60 0.1807161
373.70 0.1757761
373.80 0.1694155
373.90 0.162538
374.00 0.1562776
374.10 0.1518011
374.20 0.1500108
374.30 0.1513858
374.40 0.1560191
374.50 0.1636518
374.60 0.1735762
374.70 0.184499
374.80 0.194623
374.90 0.2021026
375.00 0.2056785
375.10 0.2050833
375.20 0.2009971
375.30 0.1946935
375.40 0.187649
375.50 0.1812321
375.60 0.1763781
375.70 0.1733375
375.80 0.1716915
375.90 0.1706979
376.00 0.1698044
376.10 0.1690529
376.20 0.1691663
376.30 0.1712485
376.40 0.1762464
376.50 0.1845424
376.60 0.1959445
376.70 0.2098122
376.80 0.2249667
376.90 0.2394422
377.00 0.250646
377.10 0.2562479
377.20 0.2552478
377.30 0.2483634
377.40 0.2375029
377.50 0.2248612
377.60 0.2122924
377.70 0.2011294
377.80 0.1921373
377.90 0.1854733
378.00 0.1807825
378.10 0.1775038
378.20 0.1751972
378.30 0.173626
378.40 0.1726259
378.50 0.1720611
378.60 0.1719525
378.70 0.1725494
378.80 0.1742216
378.90 0.1773841
379.00 0.1826225
379.10 0.1907673
379.20 0.2025489
379.30 0.2179608
379.40 0.2358649
379.50 0.2541557
379.60 0.2702468
379.70 0.2815862
379.80 0.2862348
379.90 0.2834701
380.00 0.2741577
380.10 0.2604984
380.20 0.2451889
380.30 0.2304968
380.40 0.2177833
380.50 0.2075382
380.60 0.1996495
380.70 0.1936338
380.80 0.1888082
380.90 0.1845853
381.00 0.1807632
381.10 0.1775161
381.20 0.1750456
381.30 0.1732512
381.40 0.1718285
381.50 0.1707005
381.60 0.1701647
381.70 0.1705048
381.80 0.171435
381.90 0.1720284
382.00 0.171365
382.10 0.171624
382.20 0.1785038
382.30 0.2008899
382.40 0.2391282
382.50 0.2827527
382.60 0.3188099
382.70 0.3381078
382.80 0.340694
382.90 0.3362499
383.00 0.341969
383.10 0.361912
383.20 0.3828281
383.30 0.4007043
383.40 0.4156194
383.50 0.4268516
383.60 0.4277732
383.70 0.4098655
383.80 0.3712471
383.90 0.3251286
384.00 0.297377
384.10 0.3037835
384.20 0.3275201
384.30 0.3311722
384.40 0.2984809
384.50 0.2519404
384.60 0.2167526
384.70 0.2076888
384.80 0.2182425
384.90 0.244038
385.00 0.2798007
385.10 0.3125852
385.20 0.3286526
385.30 0.3237025
385.40 0.3034673
385.50 0.2799803
385.60 0.2679028
385.70 0.2738348
385.80 0.2865388
385.90 0.2875283
386.00 0.2707195
386.10 0.2474229
386.20 0.2308431
386.30 0.2219165
386.40 0.2146649
386.50 0.2090818
386.60 0.2137033
386.70 0.2361332
386.80 0.2721618
386.90 0.3055413
387.00 0.3189378
387.10 0.307538
387.20 0.2855158
387.30 0.2771323
387.40 0.2951516
387.50 0.3249495
387.60 0.3345519
387.70 0.3067733
387.80 0.2569118
387.90 0.2125813
388.00 0.1857067
388.10 0.1728361
388.20 0.1741697
388.30 0.1942264
388.40 0.2262868
388.50 0.2588739
388.60 0.2978468
388.70 0.3607357
388.80 0.4441869
388.90 0.5119491
389.00 0.5269176
389.10 0.4866469
389.20 0.4181883
389.30 0.350207
389.40 0.2962837
389.50 0.2589352
389.60 0.2377327
389.70 0.2231989
389.80 0.2267175
389.90 0.2520212
390.00 0.2953999
390.10 0.3427245
390.20 0.3625377
390.30 0.3537635
390.40 0.339756
390.50 0.3293748
390.60 0.3233966
390.70 0.3174491
390.80 0.3105303
390.90 0.3028327
391.00 0.2928944
391.10 0.282051
391.20 0.2767956
391.30 0.2934566
391.40 0.3166126
391.50 0.3319003
391.60 0.3309079
391.70 0.3111232
391.80 0.2749007
391.90 0.2312248
392.00 0.1941264
392.10 0.1772992
392.20 0.1832322
392.30 0.205108
392.40 0.2224169
392.50 0.227607
392.60 0.2308371
392.70 0.2439602
392.80 0.2766047
392.90 0.3216509
393.00 0.3767752
393.10 0.4542537
393.20 0.5680142
393.30 0.7021978
393.40 0.785791
393.50 0.7491821
393.60 0.6000068
393.70 0.4225105
393.80 0.3018674
393.90 0.2614866
394.00 0.2687683
394.10 0.2811151
394.20 0.277877
394.30 0.2660122
394.40 0.2500929
394.50 0.2410221
394.60 0.2441236
394.70 0.2567576
394.80 0.2656577
394.90 0.2705877
395.00 0.2708438
395.10 0.270974
395.20 0.2742339
395.30 0.2816979
395.40 0.2929205
395.50 0.3103786
395.60 0.3218149
395.70 0.3051058
395.80 0.2641578
395.90 0.2242809
396.00 0.2090967
396.10 0.2132773
396.20 0.2155313
396.30 0.2143424
396.40 0.2281895
396.50 0.2848215
396.60 0.4002386
396.70 0.5665299
396.80 0.747553
396.90 0.8812751
397.00 0.9097713
397.10 0.8225322
397.20 0.6693841
397.30 0.5233872
397.40 0.4314526
397.50 0.3923964
397.60 0.3802791
397.70 0.3763648
397.80 0.3756635
397.90 0.3749506
398.00 0.3685482
398.10 0.3561853
398.20 0.3474897
398.30 0.3516883
398.40 0.3649493
398.50 0.3740631
398.60 0.3718586
398.70 0.3635597
398.80 0.3597113
398.90 0.3520846
399.00 0.3419976
399.10 0.3444518
399.20 0.3751515
399.30 0.4274835
399.40 0.4708643
399.50 0.4769464
399.60 0.444888
399.70 0.3964089
399.80 0.3556425
399.90 0.3362707
400.00 0.3360456
400.10 0.3451242
400.20 0.3545044
400.30 0.3586634
400.40 0.3546957
400.50 0.3447028
400.60 0.3369831
400.70 0.3388205
400.80 0.3581064
400.90 0.3938006
401.00 0.4260428
401.10 0.4339611
401.20 0.4102902
401.30 0.3743956
401.40 0.3495498
401.50 0.3422111
401.60 0.3416714
401.70 0.3389024
401.80 0.3280857
401.90 0.3188244
402.00 0.3206353
402.10 0.3333638
402.20 0.3494648
402.30 0.3594536
402.40 0.3584857
402.50 0.351546
402.60 0.3484426
402.70 0.3509107
402.80 0.3473027
402.90 0.3245126
403.00 0.2853472
403.10 0.2479559
403.20 0.2268493
403.30 0.2226516
403.40 0.2300917
403.50 0.248334
403.60 0.2780143
403.70 0.3153111
403.80 0.3517824
403.90 0.3831516
404.00 0.4111919
404.10 0.4363963
404.20 0.4565801
404.30 0.4637598
404.40 0.4463473
404.50 0.4000373
404.60 0.3390384
404.70 0.2892165
404.80 0.2656564
404.90 0.2619398
405.00 0.2627337
405.10 0.2625218
405.20 0.2696142
405.30 0.2928358
405.40 0.3281547
405.50 0.3607486
405.60 0.3774191
405.70 0.3766913
405.80 0.367857
405.90 0.3596452
406.00 0.3541351
406.10 0.3483667
406.20 0.3399764
406.30 0.3329115
406.40 0.3353004
406.50 0.3488949
406.60 0.3640075
406.70 0.3639986
406.80 0.3393686
406.90 0.2969321
407.00 0.255437
407.10 0.2326333
407.20 0.235589
407.30 0.2510141
407.40 0.2599532
407.50 0.2587816
407.60 0.2513211
407.70 0.2495268
407.80 0.2604155
407.90 0.280214
408.00 0.3000441
408.10 0.3155775
408.20 0.3284552
408.30 0.340242
408.40 0.3481973
408.50 0.3497693
408.60 0.3475153
408.70 0.3451384
408.80 0.3409983
408.90 0.3303126
409.00 0.3146509
409.10 0.3031742
409.20 0.3030884
409.30 0.3119731
409.40 0.3203724
409.50 0.3227584
409.60 0.3211047
409.70 0.3216983
409.80 0.3331624
409.90 0.366237
410.00 0.4277346
410.10 0.5066216
410.20 0.5674091
410.30 0.5695778
410.40 0.5016259
410.50 0.3951918
410.60 0.3022317
410.70 0.2611307
410.80 0.2602248
410.90 0.2760791
411.00 0.2888885
411.10 0.2913153
411.20 0.2862959
411.30 0.2809579
411.40 0.2810783
411.50 0.2852811
411.60 0.2910666
411.70 0.2883833
411.80 0.2719514
411.90 0.2557014
412.00 0.2552286
412.10 0.2730855
412.20 0.2975112
412.30 0.3159366
412.40 0.3241586
412.50 0.3253458
412.60 0.323334
412.70 0.3199672
412.80 0.3162928
412.90 0.311456
413.00 0.302792
413.10 0.2898762
413.20 0.2764841
413.30 0.2667497
413.40 0.2596814
413.50 0.2509782
413.60 0.2405292
413.70 0.2345523
413.80 0.2398693
413.90 0.2577795
414.00 0.282136
414.10 0.301532
414.20 0.3107234
414.30 0.2994234
414.40 0.2722976
414.50 0.2426702
414.60 0.2232605
414.70 0.2178056
414.80 0.2260996
414.90 0.237216
415.00 0.2453685
415.10 0.2598012
415.20 0.2867199
415.30 0.3174546
415.40 0.3405804
415.50 0.3460641
415.60 0.3314193
415.70 0.3039097
415.80 0.2771977
415.90 0.2646718
416.00 0.2725591
416.10 0.2932569
416.20 0.3147362
416.30 0.3309997
416.40 0.3432913
416.50 0.3530602
416.60 0.3616767
416.70 0.3571958
416.80 0.3385573
416.90 0.3140137
417.00 0.2938822
417.10 0.2808968
417.20 0.2648217
417.30 0.2478538
417.40 0.2377192
417.50 0.2377528
417.60 0.2424873
417.70 0.2452229
417.80 0.24666
417.90 0.2574818
418.00 0.278679
418.10 0.3094448
418.20 0.3394743
418.30 0.3560095
418.40 0.3561556
418.50 0.3490378
418.60 0.3498617
418.70 0.3535247
418.80 0.35264
418.90 0.3422667
419.00 0.3250988
419.10 0.3076051
419.20 0.2938063
419.30 0.2838638
419.40 0.2774091
419.50 0.2751056
419.60 0.2766981
419.70 0.2802842
419.80 0.2836307
419.90 0.286064
420.00 0.2861283
420.10 0.2809186
420.20 0.2693655
420.30 0.2563004
420.40 0.2436315
420.50 0.2285813
420.60 0.2111759
420.70 0.1943844
420.80 0.184786
420.90 0.1819251
421.00 0.1882031
421.10 0.2056302
421.20 0.2308588
421.30 0.2557291
421.40 0.2732122
421.50 0.283131
421.60 0.2864856
421.70 0.2815063
421.80 0.2664905
421.90 0.2446811
422.00 0.2223608
422.10 0.2028772
422.20 0.1852707
422.30 0.167945
422.40 0.151141
422.50 0.1345764
422.60 0.1171846
422.70 0.1053402
422.80 0.09907669
422.90 0.1058433
423.00 0.1246532
423.10 0.1443181
423.20 0.1536093
423.30 0.1527712
423.40 0.1527175
423.50 0.1662609
423.60 0.1920686
423.70 0.2132309
423.80 0.2225468
423.90 0.225072
424.00 0.230423
424.10 0.241731
424.20 0.2534199
424.30 0.2582038
424.40 0.2568178
424.50 0.2530612
424.60 0.2497681
424.70 0.2478268
424.80 0.2500386
424.90 0.2555664
425.00 0.2641753
425.10 0.2721713
425.20 0.2727978
425.30 0.2631929
425.40 0.2479768
425.50 0.2350077
425.60 0.2280908
425.70 0.2239386
425.80 0.2167837
425.90 0.2061386
426.00 0.1987938
426.10 0.2015032
426.20 0.2121331
426.30 0.2228548
426.40 0.2308972
426.50 0.2406725
426.60 0.2533896
426.70 0.2618606
426.80 0.2611598
426.90 0.2595246
427.00 0.2674525
427.10 0.2765961
427.20 0.2782268
427.30 0.267012
427.40 0.2453793
427.50 0.2219366
427.60 0.2088951
427.70 0.2155259
427.80 0.2412252
427.90 0.2717974
428.00 0.2937661
428.10 0.3018392
428.20 0.2978264
428.30 0.2885355
428.40 0.2822459
428.50 0.2827361
428.60 0.2835739
428.70 0.2756046
428.80 0.2574943
428.90 0.2366502
429.00 0.2216053
429.10 0.2195562
429.20 0.2277513
429.30 0.2412228
429.40 0.2559852
429.50 0.2700053
429.60 0.2855016
429.70 0.3037576
429.80 0.3185104
429.90 0.3195392
430.00 0.3044213
430.10 0.2843491
430.20 0.2763332
430.30 0.2883671
430.40 0.3116335
430.50 0.3279993
430.60 0.3246252
430.70 0.3029659
430.80 0.2758173
430.90 0.2558832
431.00 0.2478219
431.10 0.2496435
431.20 0.2570282
431.30 0.2649183
431.40 0.2674432
431.50 0.2605261
431.60 0.2490598
431.70 0.2438573
431.80 0.2525359
431.90 0.274735
432.00 0.3014568
432.10 0.3226798
432.20 0.330934
432.30 0.3297976
432.40 0.3263821
432.50 0.3235116
432.60 0.3179092
432.70 0.3077806
432.80 0.2983544
432.90 0.2966111
433.00 0.3043244
433.10 0.3184057
433.20 0.3369852
433.30 0.3560112
433.40 0.3679729
433.50 0.3731091
433.60 0.3825006
433.70 0.4165004
433.80 0.4991113
433.90 0.624443
434.00 0.7585373
434.10 0.8450006
434.20 0.8416719
434.30 0.7531355
434.40 0.6272887
434.50 0.5198486
434.60 0.4592699
434.70 0.4388275
434.80 0.4327496
434.90 0.4179073
435.00 0.3863969
435.10 0.3446504
435.20 0.3056826
435.30 0.2816039
435.40 0.2779826
435.50 0.2908763
435.60 0.3095268
435.70 0.3223854
435.80 0.3255894
435.90 0.3237201
436.00 0.3222209
436.10 0.3208872
436.20 0.3193846
436.30 0.3139568
436.40 0.3148098
436.50 0.3276555
436.60 0.3428566
436.70 0.3506354
436.80 0.3502232
436.90 0.3486597
437.00 0.350099
437.10 0.3516226
437.20 0.3486769
437.30 0.3403144
437.40 0.3296858
437.50 0.3220612
437.60 0.3210469
437.70 0.3252053
437.80 0.3281022
437.90 0.3237292
438.00 0.3142561
438.10 0.3076034
438.20 0.3097436
438.30 0.3211141
438.40 0.3411085
438.50 0.3674278
438.60 0.3921637
438.70 0.4042135
438.80 0.397159
438.90 0.3756276
439.00 0.3539251
439.10 0.3432119
439.20 0.3440216
439.30 0.349387
439.40 0.3543822
439.50 0.3618561
439.60 0.3764763
439.70 0.3951523
439.80 0.4076748
439.90 0.4103366
440.00 0.4061519
440.10 0.4026179
440.20 0.402729
440.30 0.4025646
440.40 0.40118
440.50 0.3940232
440.60 0.3852259
440.70 0.3797005
440.80 0.378827
440.90 0.3867045
441.00 0.3981983
441.10 0.409716
441.20 0.4186536
441.30 0.4247822
441.40 0.4305907
441.50 0.4388056
441.60 0.4501907
441.70 0.4638368
441.80 0.476683
441.90 0.4833644
442.00 0.4795387
442.10 0.466907
442.20 0.4531768
442.30 0.4451903
442.40 0.443433
442.50 0.443943
442.60 0.4436621
442.70 0.4425149
442.80 0.442171
442.90 0.4456256
443.00 0.4563467
443.10 0.4739225
443.20 0.4900267
443.30 0.4927354
443.40 0.4789857
443.50 0.4614695
443.60 0.4570997
443.70 0.4713433
443.80 0.5029632
443.90 0.5375565
444.00 0.5646061
444.10 0.5784397
444.20 0.5790306
444.30 0.5727925
444.40 0.5679622
444.50 0.5674774
444.60 0.5691266
444.70 0.571751
444.80 0.5778008
444.90 0.5891806
445.00 0.6031356
445.10 0.6133077
445.20 0.6134062
445.30 0.5990768
445.40 0.5703107
445.50 0.5353589
445.60 0.5082941
445.70 0.5011434
445.80 0.5124227
445.90 0.5305545
446.00 0.5450362
446.10 0.5539994
446.20 0.561001
446.30 0.5676181
446.40 0.5718251
446.50 0.5718247
446.60 0.5696199
446.70 0.5701816
446.80 0.5777674
446.90 0.5937063
447.00 0.6164515
447.10 0.6425392
447.20 0.6672908
447.30 0.6850088
447.40 0.6896638
447.50 0.6776792
447.60 0.6529635
447.70 0.6280014
447.80 0.6169008
447.90 0.624719
448.00 0.646404
448.10 0.6630587
448.20 0.670033
448.30 0.6762972
448.40 0.6852651
448.50 0.6978012
448.60 0.7096055
448.70 0.7169919
448.80 0.7203148
448.90 0.722089
449.00 0.7242438
449.10 0.7272067
449.20 0.7295535
449.30 0.7280092
449.40 0.7196379
449.50 0.706463
449.60 0.6967413
449.70 0.6984785
449.80 0.712695
449.90 0.7337765
450.00 0.7541419
450.10 0.7673816
450.20 0.7696215
450.30 0.7615529
450.40 0.7489216
450.50 0.7376841
450.60 0.7290951
450.70 0.7219033
450.80 0.7168436
450.90 0.7156082
451.00 0.7162624
451.10 0.7140915
451.20 0.7089828
451.30 0.7073356
451.40 0.7136122
451.50 0.7234552
451.60 0.7287477
451.70 0.7288475
451.80 0.7327137
451.90 0.748281
452.00 0.7726663
452.10 0.7950429
452.20 0.8072944
452.30 0.809993
452.40 0.808722
452.50 0.8067237
452.60 0.8028541
452.70 0.7955762
452.80 0.786723
452.90 0.7804679
453.00 0.7784684
453.10 0.776879
453.20 0.769684
453.30 0.7552428
453.40 0.7389338
453.50 0.7298576
453.60 0.7355358
453.70 0.7585749
453.80 0.7960318
453.90 0.8394972
454.00 0.8777984
454.10 0.9026597
454.20 0.9119897
454.30 0.9073527
454.40 0.8899129
454.50 0.8609614
454.60 0.8251738
454.70 0.7908844
454.80 0.7652656
454.90 0.7504289
455.00 0.744347
455.10 0.7441771
455.20 0.7490531
455.30 0.7598789
455.40 0.7768188
455.50 0.7977486
455.60 0.820066
455.70 0.8434599
455.80 0.8693061
455.90 0.8967285
456.00 0.921508
456.10 0.9402245
456.20 0.9535681
456.30 0.9650354
456.40 0.9776558
456.50 0.9933571
456.60 1.013316
456.70 1.035718
456.80 1.054545
456.90 1.064503
457.00 1.068304
457.10 1.075766
457.20 1.093115
457.30 1.114432
457.40 1.125533
457.50 1.11611
457.60 1.08775
457.70 1.051573
457.80 1.020063
457.90 1.000661
458.00 0.9938945
458.10 0.9945074
458.20 0.9929651
458.30 0.9777784
458.40 0.9416382
458.50 0.8875222
458.60 0.8277558
458.70 0.7762913
458.80 0.7420942
458.90 0.7289639
459.00 0.7366416
459.10 0.758827
459.20 0.7834744
459.30 0.8008247
459.40 0.8121449
459.50 0.8270673
459.60 0.8511649
459.70 0.8784673
459.80 0.897407
459.90 0.9027388
460.00 0.8997288
460.10 0.8978934
460.20 0.9026573
460.30 0.9107845
460.40 0.9119069
460.50 0.8963848
460.60 0.8658079
460.70 0.8374134
460.80 0.8355379
460.90 0.8743643
461.00 0.9462543
461.10 1.026068
461.20 1.087939
461.30 1.121881
461.40 1.13666
461.50 1.147309
461.60 1.160258
461.70 1.170718
461.80 1.172821
461.90 1.168427
462.00 1.165159
462.10 1.16804
462.20 1.174267
462.30 1.173791
462.40 1.152968
462.50 1.101127
462.60 1.019918
462.70 0.9274237
462.80 0.8494987
462.90 0.8046021
463.00 0.7957662
463.10 0.8140057
463.20 0.8451564
463.30 0.874042
463.40 0.8886748
463.50 0.886276
463.60 0.8738012
463.70 0.860725
463.80 0.8520991
463.90 0.8484992
464.00 0.8503273
464.10 0.8594876
464.20 0.876648
464.30 0.8978159
464.40 0.9145253
464.50 0.9188555
464.60 0.9110036
464.70 0.900812
464.80 0.899039
464.90 0.9068885
465.00 0.9164781
465.10 0.9221434
465.20 0.9276835
465.30 0.9400874
465.40 0.9589866
465.50 0.9765108
465.60 0.9876336
465.70 0.9978834
465.80 1.018304
465.90 1.053251
466.00 1.094151
466.10 1.126331
466.20 1.142398
466.30 1.148401
466.40 1.156071
466.50 1.167697
466.60 1.169971
466.70 1.144346
466.80 1.083559
466.90 0.9978445
467.00 0.9068344
467.10 0.8277746
467.20 0.7711463
467.30 0.7417301
467.40 0.7379985
467.50 0.7516982
467.60 0.7709127
467.70 0.7859323
467.80 0.7923015
467.90 0.7899766
468.00 0.7827532
468.10 0.778123
468.20 0.783835
468.30 0.8025231
468.40 0.8305609
468.50 0.8627326
468.60 0.8961388
468.70 0.9279335
468.80 0.9530946
468.90 0.9673352
469.00 0.9712135
469.10 0.9694239
469.20 0.9664746
469.30 0.9649356
469.40 0.9668478
469.50 0.9738544
469.60 0.9856826
469.70 1.000006
469.80 1.014265
469.90 1.027563
470.00 1.040989
470.10 1.056113
470.20 1.072532
470.30 1.085933
470.40 1.089521
470.50 1.078962
470.60 1.056641
470.70 1.031016
470.80 1.011854
470.90 1.00577
471.00 1.013539
471.10 1.02831
471.20 1.036801
471.30 1.026893
471.40 0.9976591
471.50 0.9611389
471.60 0.9333023
471.70 0.9237319
471.80 0.9329142
471.90 0.9557842
472.00 0.9847408
472.10 1.011908
472.20 1.032869
472.30 1.049001
472.40 1.064312
472.50 1.079256
472.60 1.08869
472.70 1.08753
472.80 1.078411
472.90 1.071481
473.00 1.075354
473.10 1.088508
473.20 1.101034
473.30 1.105071
473.40 1.101479
473.50 1.096294
473.60 1.093327
473.70 1.092594
473.80 1.094168
473.90 1.099359
474.00 1.107707
474.10 1.116002
474.20 1.122484
474.30 1.129833
474.40 1.141657
474.50 1.157102
474.60 1.171309
474.70 1.181094
474.80 1.188217
474.90 1.196876
475.00 1.20888
475.10 1.221678
475.20 1.231296
475.30 1.236958
475.40 1.241511
475.50 1.246002
475.60 1.243991
475.70 1.223239
475.80 1.174123
475.90 1.095572
476.00 0.994289
476.10 0.882197
476.20 0.7754357
476.30 0.6915173
476.40 0.6431442
476.50 0.6244359
476.60 0.6198288
476.70 0.6190531
476.80 0.6180918
476.90 0.6197958
477.00 0.6264758
477.10 0.6349805
477.20 0.6414553
477.30 0.6480959
477.40 0.6630067
477.50 0.6919534
477.60 0.7299761
477.70 0.7625592
477.80 0.7767731
477.90 0.772257
478.00 0.76114
478.10 0.7571491
478.20 0.7652657
478.30 0.7807527
478.40 0.7959766
478.50 0.8077902
478.60 0.8193204
478.70 0.8345794
478.80 0.8522318
478.90 0.8663934
479.00 0.874296
479.10 0.8807099
479.20 0.8918882
479.30 0.9073128
479.40 0.9211174
479.50 0.9306329
479.60 0.9400403
479.70 0.9553594
479.80 0.9779457
479.90 1.003225
480.00 1.02327
480.10 1.029671
480.20 1.016385
480.30 0.9827262
480.40 0.9333323
480.50 0.8743814
480.60 0.8109757
480.70 0.7491501
480.80 0.699224
480.90 0.6729686
481.00 0.6744573
481.10 0.6949454
481.20 0.7199517
481.30 0.7411803
481.40 0.7600029
481.50 0.7797042
481.60 0.7975773
481.70 0.8077343
481.80 0.8094707
481.90 0.8098733
482.00 0.8180583
482.10 0.8384743
482.20 0.8688291
482.30 0.9017743
482.40 0.9276267
482.50 0.9390039
482.60 0.9362846
482.70 0.9274186
482.80 0.9205768
482.90 0.9166908
483.00 0.9110591
483.10 0.9019351
483.20 0.8951602
483.30 0.899047
483.40 0.9161242
483.50 0.9417095
483.60 0.9699903
483.70 0.999527
483.80 1.030695
483.90 1.058153
484.00 1.06915
484.10 1.052565
484.20 1.01081
484.30 0.962199
484.40 0.9295146
484.50 0.9230152
484.60 0.9320855
484.70 0.9339284
484.80 0.9125721
484.90 0.8705953
485.00 0.823592
485.10 0.7867898
485.20 0.7687767
485.30 0.7725907
485.40 0.7948636
485.50 0.8231136
485.60 0.8432461
485.70 0.8596144
485.80 0.9083437
485.90 1.038646
486.00 1.262561
486.10 1.516074
486.20 1.683277
486.30 1.678631
486.40 1.514125
486.50 1.284976
486.60 1.091202
486.70 0.9759809
486.80 0.9275353
486.90 0.916698
487.00 0.9227795
487.10 0.9362021
487.20 0.9533775
487.30 0.9731481
487.40 0.9928639
487.50 1.005932
487.60 1.006175
487.70 0.995085
487.80 0.9823529
487.90 0.9775557
488.00 0.9820787
488.10 0.9903461
488.20 0.9972763
488.30 1.002733
488.40 1.009568
488.50 1.019798
488.60 1.033706
488.70 1.050378
488.80 1.067264
488.90 1.080513
489.00 1.087341
489.10 1.08818
489.20 1.086512
489.30 1.086155
489.40 1.088583
489.50 1.092843
489.60 1.096816
489.70 1.098291
489.80 1.096122
489.90 1.091732
490.00 1.089546
490.10 1.095076
490.20 1.111511
490.30 1.13801
490.40 1.171172
490.50 1.207369
490.60 1.244309
490.70 1.280616
490.80 1.313862
490.90 1.340325
491.00 1.358248
491.10 1.370031
491.20 1.378879
491.30 1.383781
491.40 1.380548
491.50 1.369079
491.60 1.35674
491.70 1.352404
491.80 1.358585
491.90 1.371418
492.00 1.387261
492.10 1.405728
492.20 1.426425
492.30 1.446678
492.40 1.46483
492.50 1.483712
492.60 1.507465
492.70 1.535343
492.80 1.561126
492.90 1.578405
493.00 1.584706
493.10 1.582106
493.20 1.575675
493.30 1.571104
493.40 1.572047
493.50 1.578118
493.60 1.586396
493.70 1.59443
493.80 1.60121
493.90 1.60693
494.00 1.613657
494.10 1.625744
494.20 1.647791
494.30 1.680157
494.40 1.716686
494.50 1.748815
494.60 1.772948
494.70 1.794227
494.80 1.821355
494.90 1.856174
495.00 1.888244
495.10 1.897425
495.20 1.859522
495.30 1.752761
495.40 1.568374
495.50 1.323903
495.60 1.065539
495.70 0.8489262
495.80 0.7104299
495.90 0.6518696
496.00 0.6474202
496.10 0.6634126
496.20 0.6761531
496.30 0.6800389
496.40 0.6845294
496.50 0.7028034
496.60 0.7410376
496.70 0.7960348
496.80 0.8594402
496.90 0.921774
497.00 0.9735741
497.10 1.007211
497.20 1.021525
497.30 1.024385
497.40 1.02792
497.50 1.039391
497.60 1.056257
497.70 1.070231
497.80 1.075026
497.90 1.068732
498.00 1.051463
498.10 1.025646
498.20 1.000103
498.30 0.9903123
498.40 1.008843
498.50 1.053073
498.60 1.104916
498.70 1.145259
498.80 1.168459
498.90 1.182302
499.00 1.195529
499.10 1.207657
499.20 1.212249
499.30 1.20775
499.40 1.202523
499.50 1.20751
499.60 1.212472
499.70 1.171652
499.80 1.029405
499.90 0.7751021
500.00 1
500.10 0.9097129
500.20 0.867204
500.30 0.8518166
500.40 0.8608653
500.50 0.8799973
500.60 0.8986534
500.70 0.9156482
500.80 0.8919432
500.90 0.845009
501.00 0.9096879
501.10 0.9690345
501.20 0.9647665
501.30 0.9553595
501.40 0.9482276
501.50 0.8690383
501.60 0.8643669
501.70 0.9121966
501.80 0.9507617
501.90 1.033439
502.00 1.076649
502.10 1.06076
502.20 1.072299
502.30 1.04964
502.40 1.019896
502.50 1.005037
502.60 1.066902
502.70 1.091804
502.80 1.141019
502.90 1.12983
503.00 1.128985
503.10 1.141743
503.20 1.180533
503.30 1.199028
503.40 1.201
503.50 1.187572
503.60 1.20069
503.70 1.170603
503.80 1.212336
503.90 1.202666
504.00 1.175094
504.10 1.164353
504.20 1.207762
504.30 1.235906
504.40 1.260491
504.50 1.288317
504.60 1.395572
504.70 1.438132
504.80 1.38277
504.90 1.331744
505.00 1.256218
505.10 1.1813
505.20 1.191545
505.30 1.227596
505.40 1.260898
505.50 1.223824
505.60 1.212326
505.70 1.211652
505.80 1.224685
505.90 1.27031
506.00 1.315833
506.10 1.293543
506.20 1.257095
506.30 1.295854
506.40 1.354397
506.50 1.299674
506.60 1.227262
506.70 1.231208
506.80 1.31902
506.90 1.326294
507.00 1.342612
507.10 1.358348
507.20 1.311687
507.30 1.280947
507.40 1.330719
507.50 1.420001
507.60 1.469232
507.70 1.39576
507.80 1.355308
507.90 1.459681
508.00 1.430017
508.10 1.328783
508.20 1.280294
508.30 1.29475
508.40 1.220899
508.50 1.212636
508.60 1.391466
508.70 1.476674
508.80 1.487285
508.90 1.41213
509.00 1.302861
509.10 1.339372
509.20 1.47598
509.30 1.485873
509.40 1.444148
509.50 1.362988
509.60 1.26384
509.70 1.316527
509.80 1.379487
509.90 1.451011
510.00 1.363658
510.10 1.300501
510.20 1.292336
510.30 1.257356
510.40 1.254276
510.50 1.29648
510.60 1.270445
510.70 1.264529
510.80 1.296794
510.90 1.310024
511.00 1.329244
511.10 1.340394
511.20 1.319614
511.30 1.336783
511.40 1.393718
511.50 1.448017
511.60 1.537576
511.70 1.588054
511.80 1.567066
511.90 1.509876
512.00 1.459349
512.10 1.42503
512.20 1.411114
512.30 1.440176
512.40 1.424845
512.50 1.373112
512.60 1.326863
512.70 1.327603
512.80 1.319003
512.90 1.282634
513.00 1.299277
513.10 1.340431
513.20 1.403039
513.30 1.532512
513.40 1.586023
513.50 1.489699
513.60 1.482285
513.70 1.538986
513.80 1.621495
513.90 1.649805
514.00 1.587351
514.10 1.453355
514.20 1.468237
514.30 1.49009
514.40 1.458994
514.50 1.442439
514.60 1.384229
514.70 1.325145
514.80 1.360772
514.90 1.442272
515.00 1.441258
515.10 1.401212
515.20 1.414505
515.30 1.368032
515.40 1.257303
515.50 1.234192
515.60 1.253279
515.70 1.432679
515.80 1.633495
515.90 1.709628
516.00 1.722134
516.10 1.756643
516.20 1.865574
516.30 1.918031
516.40 1.845026
516.50 1.86402
516.60 1.789922
516.70 1.444719
516.80 0.9819013
516.90 0.6848579
517.00 0.5905847
517.10 0.6138789
517.20 0.5746705
517.30 0.5742948
517.40 0.5943191
517.50 0.6231851
517.60 0.6972506
517.70 0.7142532
517.80 0.7028713
517.90 0.7505061
518.00 0.7100988
518.10 0.6703539
518.20 0.6934252
518.30 0.7236712
518.40 0.7370404
518.50 0.8037694
518.60 0.9695852
518.70 1.111749
518.80 1.125282
518.90 1.130266
519.00 1.145606
519.10 1.147668
519.20 1.152308
519.30 1.129452
519.40 1.116811
519.50 1.161332
519.60 1.19283
519.70 1.239792
519.80 1.335901
519.90 1.368939
520.00 1.275688
520.10 1.166501
520.20 1.136326
520.30 1.184916
520.40 1.163326
520.50 1.031777
520.60 0.8851537
520.70 0.83688
520.80 0.8640176
520.90 0.8774393
521.00 0.8444181
521.10 0.8792727
521.20 1.111891
521.30 1.417602
521.40 1.623875
521.50 1.630697
521.60 1.585076
521.70 1.590363
521.80 1.614944
521.90 1.633041
522.00 1.683659
522.10 1.674561
522.20 1.732896
522.30 1.759478
522.40 1.714581
522.50 1.711571
522.60 1.675409
522.70 1.620549
522.80 1.641765
522.90 1.681292
523.00 1.803933
523.10 1.918714
523.20 1.919349
523.30 1.831968
523.40 1.772843
523.50 1.689135
523.60 1.775608
523.70 1.84376
523.80 1.844028
523.90 1.857563
524.00 1.89242
524.10 1.737034
524.20 1.540191
524.30 1.468124
524.40 1.488282
524.50 1.592673
524.60 1.623093
524.70 1.56288
524.80 1.510387
524.90 1.589052
525.00 1.636325
525.10 1.568455
525.20 1.551999
525.30 1.647658
525.40 1.774966
525.50 1.804899
525.60 1.759816
525.70 1.78931
525.80 1.89295
525.90 1.914858
526.00 1.851668
526.10 1.709367
526.20 1.628853
526.30 1.584674
526.40 1.559768
526.50 1.516095
526.60 1.482225
526.70 1.459784
526.80 1.546686
526.90 1.510194
527.00 1.337487
527.10 1.262936
527.20 1.423378
527.30 1.626464
527.40 1.760886
527.50 1.81254
527.60 1.826566
527.70 1.809016
527.80 1.819278
527.90 1.829234
528.00 1.841444
528.10 1.779687
528.20 1.712874
528.30 1.7435
528.40 1.813909
528.50 1.818079
528.60 1.871056
528.70 1.954838
528.80 2.037684
528.90 1.983645
529.00 1.954588
529.10 1.9594
529.20 1.929127
529.30 1.937817
529.40 1.958204
529.50 2.007105
529.60 2.028015
529.70 1.993974
529.80 1.899696
529.90 1.818558
530.00 1.769539
530.10 1.843594
530.20 1.926411
530.30 2.033404
530.40 2.108354
530.50 2.143503
530.60 2.136811
530.70 2.158101
530.80 2.01045
530.90 1.885251
531.00 1.888936
531.10 1.871203
531.20 1.851952
531.30 1.857238
531.40 1.876495
531.50 1.88805
531.60 1.950554
531.70 1.984694
531.80 1.971201
531.90 1.950282
532.00 1.926608
532.10 1.940219
532.20 1.947199
532.30 1.992172
532.40 1.976639
532.50 1.939205
532.60 1.965748
532.70 1.9493
532.80 1.816457
532.90 1.640156
533.00 1.599589
533.10 1.759824
533.20 1.916548
533.30 1.979954
533.40 1.952593
533.50 1.915068
533.60 1.903699
533.70 1.881405
533.80 1.921349
533.90 1.957505
534.00 1.977785
534.10 1.965224
534.20 1.962717
534.30 1.950264
534.40 1.984664
534.50 2.029569
534.60 2.058324
534.70 1.963231
534.80 1.926613
534.90 1.972338
535.00 2.03441
535.10 2.130703
535.20 2.305821
535.30 2.413702
535.40 2.389433
535.50 2.388871
535.60 2.368191
535.70 2.351947
535.80 2.293241
535.90 2.170331
536.00 2.046984
536.10 2.049237
536.20 2.066422
536.30 2.095031
536.40 2.110203
536.50 2.11051
536.60 2.049495
536.70 2.06363
536.80 2.107486
536.90 2.154716
537.00 2.128282
537.10 2.015337
537.20 1.921067
537.30 1.960142
537.40 2.052666
537.50 2.162063
537.60 2.243678
537.70 2.275719
537.80 2.302927
537.90 2.325373
538.00 2.394271
538.10 2.446616
538.20 2.438384
538.30 2.397951
538.40 2.397712
538.50 2.375128
538.60 2.349377
538.70 2.391731
538.80 2.453548
538.90 2.482812
539.00 2.500389
539.10 2.470863
539.20 2.419284
539.30 2.331044
539.40 2.317628
539.50 2.294819
539.60 2.277188
539.70 2.221893
539.80 2.181899
539.90 2.248652
540.00 2.424284
540.10 2.58497
540.20 2.648561
540.30 2.672339
540.40 2.633287
540.50 2.502275
540.60 2.310297
540.70 2.215996
540.80 2.254492
540.90 2.34281
541.00 2.312336
541.10 2.185297
541.20 2.191267
541.30 2.258452
541.40 2.320388
541.50 2.406646
541.60 2.522719
541.70 2.546694
541.80 2.510989
541.90 2.57862
542.00 2.633218
542.10 2.596745
542.20 2.56219
542.30 2.562591
542.40 2.524139
542.50 2.532706
542.60 2.535211
542.70 2.54293
542.80 2.602974
542.90 2.583799
543.00 2.434494
543.10 2.320171
543.20 2.310777
543.30 2.309117
543.40 2.349396
543.50 2.373921
543.60 2.375726
543.70 2.50139
543.80 2.629604
543.90 2.645747
544.00 2.659707
544.10 2.751077
544.20 2.893268
544.30 2.950818
544.40 2.972992
544.50 2.942019
544.60 2.824531
544.70 2.51569
544.80 2.141766
544.90 1.775969
545.00 1.485477
545.10 1.322715
545.20 1.2527
545.30 1.230968
545.40 1.25757
545.50 1.320586
545.60 1.319444
545.70 1.289663
545.80 1.318001
545.90 1.358459
546.00 1.382641
546.10 1.423197
546.20 1.445941
546.30 1.555794
546.40 1.595233
546.50 1.609626
546.60 1.651394
546.70 1.766547
546.80 1.864176
546.90 1.837341
547.00 1.7164
547.10 1.659465
547.20 1.688253
547.30 1.69814
547.40 1.699926
547.50 1.702869
547.60 1.726519
547.70 1.691011
547.80 1.705435
547.90 1.696918
548.00 1.693782
548.10 1.706475
548.20 1.752231
548.30 1.78828
548.40 1.855164
548.50 1.906676
548.60 1.924354
548.70 1.919136
548.80 1.896499
548.90 1.849035
549.00 1.827441
549.10 1.85042
549.20 1.911624
549.30 1.971492
549.40 1.97659
549.50 1.955135
549.60 1.899893
549.70 1.750469
549.80 1.598456
549.90 1.49331
550.00 1.391684
550.10 1.344898
550.20 1.303394
550.30 1.2901
550.40 1.322231
550.50 1.325352
550.60 1.272298
550.70 1.259231
550.80 1.287038
550.90 1.289556
551.00 1.312114
551.10 1.30582
551.20 1.277969
551.30 1.281918
551.40 1.222028
551.50 1.205385
551.60 1.223147
551.70 1.240019
551.80 1.18124
551.90 1.196716
552.00 1.208823
552.10 1.185464
552.20 1.179607
552.30 1.207028
552.40 1.216023
552.50 1.164267
552.60 1.127885
552.70 1.113182
552.80 1.178314
552.90 1.175669
553.00 1.163977
553.10 1.179411
553.20 1.158486
553.30 1.120265
553.40 1.113691
553.50 1.116109
553.60 1.035717
553.70 0.9800991
553.80 0.9948505
553.90 1.021323
554.00 1.006194
554.10 0.9891263
554.20 1.008791
554.30 0.9654415
554.40 0.9712819
554.50 1.027288
554.60 1.00265
554.70 0.9607321
554.80 0.992937
554.90 1.043457
555.00 1.0654
555.10 1.079181
555.20 1.08034
555.30 1.134022
555.40 1.139675
555.50 1.124035
555.60 1.160798
555.70 1.262538
555.80 1.351901
555.90 1.365655
556.00 1.369123
556.10 1.382334
556.20 1.407721
556.30 1.437581
556.40 1.466845
556.50 1.521304
556.60 1.587963
556.70 1.578567
556.80 1.559697
556.90 1.536359
557.00 1.619295
557.10 1.711889
557.20 1.711239
557.30 1.708925
557.40 1.708851
557.50 1.708852
557.60 1.708852
557.70 1.708852
557.80 1.708852
557.90 1.708852
558.00 1.708852
558.10 1.708846
558.20 1.7088
558.30 1.707855
558.40 1.69942
558.50 1.772394
558.60 1.9517
558.70 2.010456
558.80 1.985091
558.90 1.906459
559.00 1.830176
559.10 1.883914
559.20 1.953104
559.30 1.956094
559.40 1.923452
559.50 1.906531
559.60 1.866771
559.70 1.850507
559.80 1.769814
559.90 1.581357
560.00 1.447788
560.10 1.481127
560.20 1.566499
560.30 1.65274
560.40 1.672835
560.50 1.601846
560.60 1.54453
560.70 1.553988
560.80 1.592278
560.90 1.62528
561.00 1.621812
561.10 1.617012
561.20 1.665966
561.30 1.712932
561.40 1.766641
561.50 1.734814
561.60 1.650338
561.70 1.582189
561.80 1.581008
561.90 1.583687
562.00 1.534057
562.10 1.525259
562.20 1.543032
562.30 1.558672
562.40 1.590468
562.50 1.635574
562.60 1.641713
562.70 1.677015
562.80 1.742819
562.90 1.70583
563.00 1.551044
563.10 1.389938
563.20 1.366572
563.30 1.433288
563.40 1.574321
563.50 1.681654
563.60 1.66277
563.70 1.631947
563.80 1.628619
563.90 1.620307
564.00 1.620401
564.10 1.611796
564.20 1.586197
564.30 1.576068
564.40 1.593031
564.50 1.604237
564.60 1.624048
564.70 1.65415
564.80 1.699058
564.90 1.754687
565.00 1.810087
565.10 1.828039
565.20 1.850759
565.30 1.895082
565.40 1.921004
565.50 1.901635
565.60 1.907905
565.70 1.93738
565.80 1.95588
565.90 1.977363
566.00 2.023899
566.10 2.010331
566.20 1.906184
566.30 1.842052
566.40 1.775533
566.50 1.728614
566.60 1.722373
566.70 1.766603
566.80 1.765787
566.90 1.673479
567.00 1.623956
567.10 1.623101
567.20 1.643962
567.30 1.653569
567.40 1.65372
567.50 1.68659
567.60 1.72947
567.70 1.758439
567.80 1.791362
567.90 1.819297
568.00 1.868585
568.10 1.890551
568.20 1.879345
568.30 1.868373
568.40 1.890081
568.50 1.986088
568.60 2.033036
568.70 2.031647
568.80 1.968227
568.90 1.908291
569.00 1.883611
569.10 1.890709
569.20 1.953348
569.30 1.98038
569.40 1.992214
569.50 1.958059
569.60 1.940891
569.70 1.949345
569.80 2.009555
569.90 2.052102
570.00 2.054535
570.10 2.079076
570.20 2.145143
570.30 2.116538
570.40 2.039515
570.50 2.141971
570.60 2.244262
570.70 2.247984
570.80 2.2325
570.90 2.283398
571.00 2.294112
571.10 2.317301
571.20 2.334302
571.30 2.314901
571.40 2.241781
571.50 2.171639
571.60 2.173938
571.70 2.146742
571.80 2.091958
571.90 2.050889
572.00 2.036804
572.10 2.027213
572.20 2.069515
572.30 2.123714
572.40 2.16588
572.50 2.137442
572.60 2.163317
572.70 2.159545
572.80 2.13906
572.90 2.093145
573.00 2.124632
573.10 2.184297
573.20 2.278806
573.30 2.321484
573.40 2.331576
573.50 2.30267
573.60 2.286704
573.70 2.230028
573.80 2.20638
573.90 2.182793
574.00 2.147302
574.10 2.20134
574.20 2.301812
574.30 2.289232
574.40 2.238701
574.50 2.305249
574.60 2.386312
574.70 2.393216
574.80 2.413118
574.90 2.431968
575.00 2.448196
575.10 2.524364
575.20 2.556615
575.30 2.533177
575.40 2.540229
575.50 2.568961
575.60 2.583262
575.70 2.598739
575.80 2.62634
575.90 2.554976
576.00 2.343945
576.10 2.146781
576.20 2.033828
576.30 1.937236
576.40 1.867096
576.50 1.83233
576.60 1.835576
576.70 1.866471
576.80 1.922704
576.90 2.004305
577.00 2.068926
577.10 2.078459
577.20 2.044961
577.30 2.01939
577.40 2.087307
577.50 2.100753
577.60 2.100617
577.70 2.060056
577.80 2.103386
577.90 2.145524
578.00 2.16807
578.10 2.20668
578.20 2.23887
578.30 2.217425
578.40 2.229154
578.50 2.340282
578.60 2.397138
578.70 2.328466
578.80 2.265246
578.90 2.300769
579.00 2.328185
579.10 2.302409
579.20 2.319613
579.30 2.419974
579.40 2.519461
579.50 2.566454
579.60 2.628113
579.70 2.624425
579.80 2.599336
579.90 2.619675
580.00 2.684709
580.10 2.698037
580.20 2.684582
580.30 2.667228
580.40 2.709018
580.50 2.742952
580.60 2.716507
580.70 2.706077
580.80 2.749649
580.90 2.74481
581.00 2.665483
581.10 2.529363
581.20 2.316024
581.30 2.173719
581.40 2.1195
581.50 2.031523
581.60 1.98639
581.70 1.979247
581.80 1.961429
581.90 1.890326
582.00 1.878727
582.10 1.927446
582.20 1.937267
582.30 1.887497
582.40 1.92186
582.50 1.929889
582.60 1.955261
582.70 2.025912
582.80 2.049691
582.90 1.999958
583.00 2.032125
583.10 2.110576
583.20 2.143539
583.30 2.171864
583.40 2.240531
583.50 2.259152
583.60 2.227428
583.70 2.190938
583.80 2.106902
583.90 2.064058
584.00 2.042864
584.10 2.025736
584.20 2.009342
584.30 2.045135
584.40 2.113347
584.50 2.161944
584.60 2.147583
584.70 2.098227
584.80 2.005448
584.90 1.844853
585.00 1.664943
585.10 1.544281
585.20 1.502954
585.30 1.496202
585.40 1.528213
585.50 1.546913
585.60 1.544395
585.70 1.519156
585.80 1.492864
585.90 1.506243
586.00 1.523239
586.10 1.492905
586.20 1.552424
586.30 1.509408
586.40 1.387789
586.50 1.335178
586.60 1.379793
586.70 1.407062
586.80 1.429517
586.90 1.50192
587.00 1.50799
587.10 1.423206
587.20 1.323492
587.30 1.264898
587.40 1.214589
587.50 1.218943
587.60 1.241613
587.70 1.256878
587.80 1.239274
587.90 1.168989
588.00 1.129931
588.10 1.112186
588.20 1.124068
588.30 1.089357
588.40 1.03721
588.50 0.9990521
588.60 0.9200822
588.70 0.8416044
588.80 0.7968599
588.90 0.7804824
589.00 0.79373
589.10 0.7348474
589.20 0.6260507
589.30 0.6343703
589.40 0.7208584
589.50 0.7356416
589.60 0.6304878
589.70 0.5368743
589.80 0.5569798
589.90 0.5565485
590.00 0.7016167
590.10 0.8566757
590.20 0.9583792
590.30 0.9292581
590.40 0.9202047
590.50 0.9385619
590.60 0.9675172
590.70 1.024422
590.80 0.9943927
590.90 0.9476407
591.00 0.9973893
591.10 1.087268
591.20 1.095568
591.30 1.058886
591.40 1.05063
591.50 1.072759
591.60 1.092419
591.70 1.134154
591.80 1.188117
591.90 1.227368
592.00 1.2184
592.10 1.206953
592.20 1.215539
592.30 1.208595
592.40 1.178066
592.50 1.136528
592.60 1.170576
592.70 1.148103
592.80 1.124846
592.90 1.155812
593.00 1.182504
593.10 1.201418
593.20 1.198886
593.30 1.242786
593.40 1.306242
593.50 1.308264
593.60 1.341856
593.70 1.40484
593.80 1.462037
593.90 1.469898
594.00 1.430058
594.10 1.442197
594.20 1.449694
594.30 1.462644
594.40 1.500945
594.50 1.55374
594.60 1.556271
594.70 1.547265
594.80 1.541412
594.90 1.489244
595.00 1.438068
595.10 1.407114
595.20 1.359406
595.30 1.311424
595.40 1.349599
595.50 1.394258
595.60 1.387316
595.70 1.361588
595.80 1.29998
595.90 1.257414
596.00 1.236714
596.10 1.266207
596.20 1.30641
596.30 1.329017
596.40 1.321086
596.50 1.320069
596.60 1.374597
596.70 1.409117
596.80 1.454818
596.90 1.457256
597.00 1.44051
597.10 1.449106
597.20 1.43781
597.30 1.39807
597.40 1.354727
597.50 1.344912
597.60 1.375037
597.70 1.409458
597.80 1.44619
597.90 1.459364
598.00 1.484766
598.10 1.504258
598.20 1.510092
598.30 1.559095
598.40 1.570536
598.50 1.546265
598.60 1.562607
598.70 1.556032
598.80 1.574012
598.90 1.574195
599.00 1.600932
599.10 1.620051
599.20 1.652422
599.30 1.707767
599.40 1.744305
599.50 1.735657
599.60 1.776244
599.70 1.798853
599.80 1.79042
599.90 1.761187
600.00 1.724797
600.10 1.693025
600.20 1.647939
600.30 1.611681
600.40 1.641146
600.50 1.666411
600.60 1.644469
600.70 1.637993
600.80 1.659529
600.90 1.643066
601.00 1.628804
601.10 1.675955
601.20 1.712216
601.30 1.726344
601.40 1.722986
601.50 1.72321
601.60 1.737654
601.70 1.76695
601.80 1.789474
601.90 1.802371
602.00 1.814786
602.10 1.801346
602.20 1.793624
602.30 1.802592
602.40 1.839511
602.50 1.867474
602.60 1.862421
602.70 1.86478
602.80 1.899465
602.90 1.914474
603.00 1.923316
603.10 1.920427
603.20 1.946052
603.30 1.955028
603.40 1.999777
603.50 2.000503
603.60 1.937344
603.70 1.839392
603.80 1.753421
603.90 1.722186
604.00 1.802265
604.10 1.899922
604.20 1.955719
604.30 2.032566
604.40 2.034618
604.50 2.023369
604.60 2.035323
604.70 2.122501
604.80 2.213798
604.90 2.19678
605.00 2.144211
605.10 2.193191
605.20 2.211581
605.30 2.142439
605.40 2.055236
605.50 2.067483
605.60 2.120481
605.70 2.1727
605.80 2.190457
605.90 2.197809
606.00 2.216584
606.10 2.219891
606.20 2.213211
606.30 2.189178
606.40 2.14706
606.50 2.074095
606.60 1.983205
606.70 1.976259
606.80 2.066311
606.90 2.203507
607.00 2.286651
607.10 2.312177
607.20 2.329435
607.30 2.28007
607.40 2.2208
607.50 2.191012
607.60 2.219446
607.70 2.269004
607.80 2.307163
607.90 2.278461
608.00 2.168398
608.10 2.067985
608.20 2.028691
608.30 2.050204
608.40 2.090646
608.50 2.097552
608.60 2.119378
608.70 2.176675
608.80 2.206644
608.90 2.206231
609.00 2.189804
609.10 2.187489
609.20 2.20715
609.30 2.280807
609.40 2.311927
609.50 2.313775
609.60 2.326659
609.70 2.337848
609.80 2.368082
609.90 2.37221
610.00 2.349064
610.10 2.322939
610.20 2.275596
610.30 2.207031
610.40 2.116369
610.50 2.113476
610.60 2.153645
610.70 2.219391
610.80 2.286257
610.90 2.3333
611.00 2.321398
611.10 2.270753
611.20 2.229361
611.30 2.245027
611.40 2.282087
611.50 2.297476
611.60 2.278494
611.70 2.203034
611.80 2.111801
611.90 2.114751
612.00 2.149806
612.10 2.148264
612.20 2.084873
612.30 2.015737
612.40 2.023975
612.50 2.102253
612.60 2.189552
612.70 2.24509
612.80 2.192238
612.90 2.162804
613.00 2.274214
613.10 2.337781
613.20 2.260752
613.30 2.190074
613.40 2.161456
613.50 2.135878
613.60 2.140986
613.70 2.165615
613.80 2.17101
613.90 2.148665
614.00 2.20596
614.10 2.261447
614.20 2.250139
614.30 2.199416
614.40 2.212128
614.50 2.272285
614.60 2.301158
614.70 2.298663
614.80 2.233092
614.90 2.089382
615.00 1.943437
615.10 1.789934
615.20 1.722781
615.30 1.773802
615.40 1.852029
615.50 1.837432
615.60 1.7584
615.70 1.719571
615.80 1.696568
615.90 1.603608
616.00 1.452045
616.10 1.298076
616.20 1.174249
616.30 1.100453
616.40 1.087089
616.50 1.131067
616.60 1.162228
616.70 1.152443
616.80 1.151462
616.90 1.179693
617.00 1.218529
617.10 1.207143
617.20 1.217391
617.30 1.256205
617.40 1.24937
617.50 1.200492
617.60 1.186619
617.70 1.163177
617.80 1.168202
617.90 1.203911
618.00 1.230505
618.10 1.212912
618.20 1.188437
618.30 1.217959
618.40 1.219183
618.50 1.161886
618.60 1.136301
618.70 1.112032
618.80 1.093273
618.90 1.07435
619.00 1.045032
619.10 1.020981
619.20 1.007853
619.30 1.029964
619.40 1.051869
619.50 1.037309
619.60 1.023707
619.70 1.027201
619.80 1.004261
619.90 1.032143
620.00 1.09608
620.10 1.125834
620.20 1.092672
620.30 1.092844
620.40 1.126749
620.50 1.143575
620.60 1.152965
620.70 1.160832
620.80 1.168993
620.90 1.18806
621.00 1.177135
621.10 1.170726
621.20 1.16734
621.30 1.104993
621.40 1.071095
621.50 1.077374
621.60 1.052602
621.70 1.004319
621.80 0.9790894
621.90 0.9976917
622.00 1.034368
622.10 1.051095
622.20 1.054159
622.30 1.00776
622.40 0.95604
622.50 0.9080995
622.60 0.9151802
622.70 0.9502798
622.80 0.9373089
622.90 0.9415411
623.00 0.9626675
623.10 0.9581297
623.20 0.9472187
623.30 0.9393495
623.40 0.9706353
623.50 0.9997765
623.60 1.012407
623.70 1.059643
623.80 1.049783
623.90 0.957713
624.00 0.9331905
624.10 0.995811
624.20 1.032815
624.30 1.015645
624.40 1.023628
624.50 1.036323
624.60 1.051766
624.70 1.0768
624.80 1.068838
624.90 1.092819
625.00 1.115669
625.10 1.121482
625.20 1.128133
625.30 1.152858
625.40 1.183552
625.50 1.159712
625.60 1.14797
625.70 1.169652
625.80 1.19088
625.90 1.249386
626.00 1.291721
626.10 1.290858
626.20 1.280042
626.30 1.287036
626.40 1.351477
626.50 1.393515
626.60 1.404439
626.70 1.394796
626.80 1.337015
626.90 1.296541
627.00 1.302318
627.10 1.345298
627.20 1.387835
627.30 1.43228
627.40 1.487552
627.50 1.484012
627.60 1.41815
627.70 1.385537
627.80 1.365949
627.90 1.328486
628.00 1.333188
628.10 1.392828
628.20 1.445688
628.30 1.462506
628.40 1.496275
628.50 1.537964
628.60 1.570786
628.70 1.612778
628.80 1.648303
628.90 1.65267
629.00 1.663425
629.10 1.685352
629.20 1.678869
629.30 1.693821
629.40 1.70258
629.50 1.717083
629.60 1.732466
629.70 1.770154
629.80 1.804881
629.90 1.864187
630.00 1.92838
630.10 2.081964
630.20 2.033098
630.30 1.751273
630.40 1.795737
630.50 1.974568
630.60 2.118015
630.70 2.139504
630.80 2.139762
630.90 2.15856
631.00 2.166338
631.10 2.177562
631.20 2.228209
631.30 2.29867
631.40 2.359602
631.50 2.385271
631.60 2.406009
631.70 2.435023
631.80 2.459656
631.90 2.499163
632.00 2.516562
632.10 2.500599
632.20 2.440746
632.30 2.369655
632.40 2.334404
632.50 2.35062
632.60 2.413897
632.70 2.441955
632.80 2.483294
632.90 2.518486
633.00 2.53405
633.10 2.541997
633.20 2.527423
633.30 2.565992
633.40 2.604114
633.50 2.667857
633.60 2.717274
633.70 2.719924
633.80 2.717547
633.90 2.732378
634.00 2.769048
634.10 2.848891
634.20 2.957868
634.30 3.012141
634.40 2.986446
634.50 2.97688
634.60 2.998109
634.70 3.036186
634.80 3.089494
634.90 3.12881
635.00 3.140831
635.10 3.124061
635.20 3.046963
635.30 2.934928
635.40 2.859054
635.50 2.818676
635.60 2.782525
635.70 2.751826
635.80 2.694968
635.90 2.610634
636.00 2.571892
636.10 2.59118
636.20 2.631646
636.30 2.69323
636.40 2.746594
636.50 2.732686
636.60 2.666655
636.70 2.58595
636.80 2.623842
636.90 2.683543
637.00 2.710256
637.10 2.744256
637.20 2.785618
637.30 2.817794
637.40 2.800288
637.50 2.756695
637.60 2.756341
637.70 2.776684
637.80 2.76788
637.90 2.740099
638.00 2.663976
638.10 2.543203
638.20 2.416012
638.30 2.360728
638.40 2.386601
638.50 2.461752
638.60 2.49968
638.70 2.471768
638.80 2.412497
638.90 2.395542
639.00 2.428885
639.10 2.498451
639.20 2.573199
639.30 2.627802
639.40 2.694248
639.50 2.786491
639.60 2.874886
639.70 2.96791
639.80 3.033184
639.90 3.072275
640.00 3.0878
640.10 3.076587
640.20 3.101192
640.30 3.151192
640.40 3.222248
640.50 3.293955
640.60 3.354231
640.70 3.386549
640.80 3.410668
640.90 3.430082
641.00 3.426491
641.10 3.432318
641.20 3.434392
641.30 3.420979
641.40 3.396598
641.50 3.366019
641.60 3.320866
641.70 3.278388
641.80 3.25313
641.90 3.220142
642.00 3.178336
642.10 3.153684
642.20 3.104912
642.30 3.051197
642.40 3.037764
642.50 3.077697
642.60 3.139109
642.70 3.174585
642.80 3.193041
642.90 3.207718
643.00 3.218077
643.10 3.261936
643.20 3.318753
643.30 3.32985
643.40 3.323478
643.50 3.33078
643.60 3.373416
643.70 3.40101
643.80 3.365553
643.90 3.325514
644.00 3.293434
644.10 3.320741
644.20 3.440178
644.30 3.588933
644.40 3.696076
644.50 3.744404
644.60 3.767812
644.70 3.728167
644.80 3.62935
644.90 3.529591
645.00 3.446939
645.10 3.368414
645.20 3.394483
645.30 3.535996
645.40 3.671127
645.50 3.734193
645.60 3.719812
645.70 3.722139
645.80 3.732998
645.90 3.759492
646.00 3.785229
646.10 3.788319
646.20 3.739905
646.30 3.667627
646.40 3.622007
646.50 3.664838
646.60 3.78828
646.70 3.916365
646.80 4.027321
646.90 4.098243
647.00 4.118755
647.10 4.124405
647.20 4.126926
647.30 4.174334
647.40 4.227563
647.50 4.226585
647.60 4.228503
647.70 4.256559
647.80 4.250684
647.90 4.190744
648.00 4.051929
648.10 3.89002
648.20 3.780807
648.30 3.749142
648.40 3.724426
648.50 3.647873
648.60 3.571137
648.70 3.580654
648.80 3.645059
648.90 3.720882
649.00 3.80172
649.10 3.8979
649.20 3.940633
649.30 3.879888
649.40 3.818756
649.50 3.780237
649.60 3.785202
649.70 3.834992
649.80 3.91895
649.90 4.005199
650.00 4.069217
650.10 4.09426
650.20 4.128349
650.30 4.228508
650.40 4.353679
650.50 4.441049
650.60 4.461014
650.70 4.505729
650.80 4.574971
650.90 4.57563
651.00 4.587972
651.10 4.651916
651.20 4.665597
651.30 4.621845
651.40 4.521406
651.50 4.445296
651.60 4.426897
651.70 4.473041
651.80 4.559091
651.90 4.628333
652.00 4.697087
652.10 4.762969
652.20 4.86362
652.30 4.961874
652.40 5.003238
652.50 4.98497
652.60 4.969825
652.70 5.012648
652.80 5.079925
652.90 5.156782
653.00 5.213456
653.10 5.250749
653.20 5.293831
653.30 5.316047
653.40 5.321149
653.50 5.348204
653.60 5.427181
653.70 5.517661
653.80 5.587474
653.90 5.678432
654.00 5.786686
654.10 5.830401
654.20 5.80594
654.30 5.718138
654.40 5.577349
654.50 5.396386
654.60 5.225403
654.70 5.117886
654.80 5.068151
654.90 4.989689
655.00 4.841667
655.10 4.698035
655.20 4.597553
655.30 4.541457
655.40 4.540713
655.50 4.560845
655.60 4.590804
655.70 4.633891
655.80 4.7168
655.90 4.839729
656.00 4.969108
656.10 5.215756
656.20 5.87502
656.30 6.811187
656.40 7.486016
656.50 7.368622
656.60 6.446882
656.70 5.297984
656.80 4.50891
656.90 4.228432
657.00 4.184104
657.10 4.160683
657.20 4.06542
657.30 3.926449
657.40 3.890167
657.50 3.911788
657.60 3.992767
657.70 4.11115
657.80 4.158971
657.90 4.114575
658.00 3.952651
658.10 3.806455
658.20 3.797377
658.30 3.911522
658.40 4.042206
658.50 4.124145
658.60 4.193419
658.70 4.285724
658.80 4.378196
658.90 4.456373
659.00 4.497427
659.10 4.469145
659.20 4.41831
659.30 4.329811
659.40 4.185244
659.50 4.020964
659.60 3.908436
659.70 3.892678
659.80 3.954539
659.90 4.000415
660.00 4.022376
660.10 3.994662
660.20 3.951393
660.30 3.980232
660.40 4.043788
660.50 4.080237
660.60 4.032489
660.70 3.969732
660.80 3.958864
660.90 3.979002
661.00 3.982102
661.10 3.984751
661.20 4.034772
661.30 4.102707
661.40 4.161329
661.50 4.170684
661.60 4.122502
661.70 4.06276
661.80 3.979808
661.90 3.857753
662.00 3.766578
662.10 3.734582
662.20 3.704305
662.30 3.674448
662.40 3.650625
662.50 3.581566
662.60 3.436529
662.70 3.296626
662.80 3.226468
662.90 3.2388
663.00 3.309053
663.10 3.436066
663.20 3.555057
663.30 3.645409
663.40 3.699264
663.50 3.645448
663.60 3.482182
663.70 3.256503
663.80 3.094034
663.90 3.076988
664.00 3.13893
664.10 3.21963
664.20 3.296631
664.30 3.38195
664.40 3.457741
664.50 3.494766
664.60 3.492831
664.70 3.497389
664.80 3.496665
664.90 3.428949
665.00 3.271514
665.10 3.03745
665.20 2.809193
665.30 2.627395
665.40 2.536105
665.50 2.573878
665.60 2.661885
665.70 2.704248
665.80 2.68781
665.90 2.685101
666.00 2.712906
666.10 2.752898
666.20 2.797
666.30 2.838535
666.40 2.900509
666.50 2.952929
666.60 3.001083
666.70 3.063006
666.80 3.112616
666.90 3.161961
667.00 3.208
667.10 3.224609
667.20 3.236154
667.30 3.230274
667.40 3.202969
667.50 3.162813
667.60 3.1372
667.70 3.144108
667.80 3.171002
667.90 3.175348
668.00 3.100937
668.10 2.920817
668.20 2.663056
668.30 2.434427
668.40 2.329359
668.50 2.335981
668.60 2.401311
668.70 2.470721
668.80 2.504109
668.90 2.546485
669.00 2.571896
669.10 2.579806
669.20 2.56458
669.30 2.529606
669.40 2.510973
669.50 2.519299
669.60 2.565828
669.70 2.626656
669.80 2.673271
669.90 2.713057
670.00 2.749088
670.10 2.771622
670.20 2.78837
670.30 2.827532
670.40 2.8685
670.50 2.885649
670.60 2.904615
670.70 2.936111
670.80 2.949504
670.90 2.952626
671.00 2.969194
671.10 2.977988
671.20 2.96519
671.30 2.941476
671.40 2.873071
671.50 2.716419
671.60 2.523056
671.70 2.346667
671.80 2.22709
671.90 2.142241
672.00 2.091358
672.10 2.090498
672.20 2.130535
672.30 2.169898
672.40 2.20588
672.50 2.259178
672.60 2.313684
672.70 2.376096
672.80 2.436832
672.90 2.468578
673.00 2.451877
673.10 2.434531
673.20 2.455058
673.30 2.487227
673.40 2.51421
673.50 2.516116
673.60 2.502431
673.70 2.50386
673.80 2.534684
673.90 2.603748
674.00 2.662791
674.10 2.679975
674.20 2.68734
674.30 2.700285
674.40 2.736502
674.50 2.790267
674.60 2.824096
674.70 2.756175
674.80 2.602857
674.90 2.439649
675.00 2.337263
675.10 2.330112
675.20 2.344682
675.30 2.378003
675.40 2.418977
675.50 2.474017
675.60 2.506851
675.70 2.511456
675.80 2.548509
675.90 2.577178
676.00 2.560925
676.10 2.553328
676.20 2.594693
676.30 2.658991
676.40 2.708903
676.50 2.754752
676.60 2.812158
676.70 2.868488
676.80 2.907512
676.90 2.922818
677.00 2.912315
677.10 2.904381
677.20 2.912645
677.30 2.928728
677.40 2.970972
677.50 3.007573
677.60 3.035978
677.70 3.074385
677.80 3.088845
677.90 3.071093
678.00 3.043959
678.10 2.978985
678.20 2.836762
678.30 2.644866
678.40 2.473461
678.50 2.364755
678.60 2.31636
678.70 2.325548
678.80 2.376148
678.90 2.444314
679.00 2.483867
679.10 2.499796
679.20 2.523067
679.30 2.53481
679.40 2.535699
679.50 2.550983
679.60 2.599377
679.70 2.644897
679.80 2.66339
679.90 2.662115
680.00 2.648542
680.10 2.666301
680.20 2.727879
680.30 2.773901
680.40 2.799522
680.50 2.803083
680.60 2.772421
680.70 2.738455
680.80 2.722652
680.90 2.747052
681.00 2.792735
681.10 2.814946
681.20 2.848627
681.30 2.900431
681.40 2.933135
681.50 2.923423
681.60 2.848538
681.70 2.739461
681.80 2.665795
681.90 2.680747
682.00 2.721663
682.10 2.744529
682.20 2.761972
682.30 2.767842
682.40 2.748705
682.50 2.741795
682.60 2.777917
682.70 2.844821
682.80 2.909706
682.90 2.958859
683.00 2.985779
683.10 2.984241
683.20 2.982123
683.30 2.958079
683.40 2.94586
683.50 2.960371
683.60 2.975004
683.70 2.95322
683.80 2.904881
683.90 2.887315
684.00 2.904807
684.10 2.985443
684.20 3.053584
684.30 3.079926
684.40 3.093784
684.50 3.09201
684.60 3.072745
684.70 3.034659
684.80 3.015974
684.90 2.991573
685.00 2.954876
685.10 2.889285
685.20 2.784819
685.30 2.696774
685.40 2.665
685.50 2.691517
685.60 2.740684
685.70 2.773704
685.80 2.785933
685.90 2.776003
686.00 2.750745
686.10 2.742948
686.20 2.757294
686.30 2.787522
686.40 2.863815
686.50 2.982834
686.60 3.042689
686.70 2.997267
686.80 2.885564
686.90 2.837757
687.00 2.85663
687.10 2.837731
687.20 2.852594
687.30 2.925647
687.40 3.025169
687.50 3.133343
687.60 3.206433
687.70 3.245368
687.80 3.267132
687.90 3.281237
688.00 3.275556
688.10 3.26637
688.20 3.238159
688.30 3.187355
688.40 3.139631
688.50 3.069882
688.60 3.010529
688.70 2.972942
688.80 3.003089
688.90 3.108333
689.00 3.195939
689.10 3.220514
689.20 3.210038
689.30 3.217029
689.40 3.241783
689.50 3.288733
689.60 3.335488
689.70 3.357849
689.80 3.357868
689.90 3.345137
690.00 3.306104
690.10 3.192188
690.20 3.035272
690.30 2.995037
690.40 3.087636
690.50 3.228159
690.60 3.379536
690.70 3.521367
690.80 3.643106
690.90 3.729879
691.00 3.753121
691.10 3.706166
691.20 3.658809
691.30 3.693966
691.40 3.795925
691.50 3.842761
691.60 3.827442
691.70 3.769602
691.80 3.602471
691.90 3.35833
692.00 3.149335
692.10 3.097521
692.20 3.236417
692.30 3.504279
692.40 3.770936
692.50 3.922377
692.60 3.950349
692.70 3.950199
692.80 3.943032
692.90 3.942181
693.00 3.990256
693.10 4.085814
693.20 4.206465
693.30 4.291664
693.40 4.348277
693.50 4.366074
693.60 4.340033
693.70 4.3341
693.80 4.368565
693.90 4.388774
694.00 4.399805
694.10 4.429078
694.20 4.499598
694.30 4.632032
694.40 4.803446
694.50 4.94411
694.60 5.022875
694.70 5.102389
694.80 5.197479
694.90 5.268559
695.00 5.288551
695.10 5.270899
695.20 5.216705
695.30 5.082958
695.40 4.926557
695.50 4.829028
695.60 4.815921
695.70 4.851662
695.80 4.874421
695.90 4.863058
696.00 4.831573
696.10 4.824824
696.20 4.843646
696.30 4.896358
696.40 4.973065
696.50 5.05606
696.60 5.132509
696.70 5.169138
696.80 5.182574
696.90 5.20644
697.00 5.21603
697.10 5.184785
697.20 5.124807
697.30 5.081299
697.40 5.100877
697.50 5.159489
697.60 5.253177
697.70 5.389553
697.80 5.515704
697.90 5.574737
698.00 5.586982
698.10 5.55254
698.20 5.530748
698.30 5.578168
698.40 5.643229
698.50 5.702449
698.60 5.726843
698.70 5.732242
698.80 5.732003
698.90 5.696917
699.00 5.623146
699.10 5.521246
699.20 5.432846
699.30 5.405047
699.40 5.448455
699.50 5.519672
699.60 5.582336
699.70 5.640283
699.80 5.690371
699.90 5.687625
700.00 5.635883
700.10 5.631861
700.20 5.703263
700.30 5.815282
700.40 5.845322
700.50 5.751139
700.60 5.648357
700.70 5.65421
700.80 5.783131
700.90 5.945584
701.00 6.022995
701.10 6.023474
701.20 6.036866
701.30 6.141958
701.40 6.308473
701.50 6.422151
701.60 6.451338
701.70 6.40773
701.80 6.35032
701.90 6.362914
702.00 6.459886
702.10 6.606057
702.20 6.700138
702.30 6.655926
702.40 6.47543
702.50 6.245135
702.60 6.124789
702.70 6.194262
702.80 6.452005
702.90 6.829578
703.00 7.160241
703.10 7.335947
703.20 7.355514
703.30 7.287847
703.40 7.243395
703.50 7.346219
703.60 7.587879
703.70 7.860645
703.80 8.005293
703.90 8.011592
704.00 8.005684
704.10 8.072111
704.20 8.217316
704.30 8.384897
704.40 8.483867
704.50 8.521074
704.60 8.552254
704.70 8.587047
704.80 8.630934
704.90 8.655672
705.00 8.646074
705.10 8.633103
705.20 8.604406
705.30 8.407777
705.40 7.792916
705.50 6.713944
705.60 5.435359
705.70 4.426195
705.80 4.005046
705.90 4.028934
706.00 4.129378
706.10 4.037202
706.20 3.831509
706.30 3.696551
706.40 3.736677
706.50 3.907284
706.60 4.089677
706.70 4.224472
706.80 4.319917
706.90 4.393212
707.00 4.452404
707.10 4.525933
707.20 4.63869
707.30 4.765889
707.40 4.850685
707.50 4.865666
707.60 4.835136
707.70 4.825087
707.80 4.852176
707.90 4.893099
708.00 4.936461
708.10 4.991903
708.20 5.076592
708.30 5.147221
708.40 5.19451
708.50 5.232251
708.60 5.210253
708.70 5.015975
708.80 4.544992
708.90 3.873897
709.00 3.254865
709.10 2.906151
709.20 2.875498
709.30 3.001308
709.40 3.095065
709.50 3.09038
709.60 3.032332
709.70 3.002861
709.80 3.06372
709.90 3.187377
710.00 3.296421
710.10 3.348727
710.20 3.34519
710.30 3.311062
710.40 3.299055
710.50 3.338644
710.60 3.432164
710.70 3.54856
710.80 3.678036
710.90 3.835804
711.00 4.003439
711.10 4.154321
711.20 4.253827
711.30 4.287566
711.40 4.276151
711.50 4.250696
711.60 4.216185
711.70 4.183461
711.80 4.198997
711.90 4.306648
712.00 4.47069
712.10 4.612898
712.20 4.716175
712.30 4.765905
712.40 4.683838
712.50 4.367333
712.60 3.79475
712.70 3.112603
712.80 2.567468
712.90 2.346921
713.00 2.396404
713.10 2.512399
713.20 2.542669
713.30 2.471882
713.40 2.411456
713.50 2.436149
713.60 2.519781
713.70 2.578325
713.80 2.582038
713.90 2.560633
714.00 2.553
714.10 2.598374
714.20 2.708836
714.30 2.85196
714.40 2.959049
714.50 2.995831
714.60 2.987013
714.70 2.974667
714.80 2.994256
714.90 3.034544
715.00 3.066571
715.10 3.092677
715.20 3.135359
715.30 3.193732
715.40 3.277955
715.50 3.40197
715.60 3.526497
715.70 3.62055
715.80 3.604044
715.90 3.461206
716.00 3.286453
716.10 3.160519
716.20 3.129459
716.30 3.155461
716.40 3.19014
716.50 3.225566
716.60 3.252445
716.70 3.272959
716.80 3.289811
716.90 3.308468
717.00 3.359131
717.10 3.450216
717.20 3.547333
717.30 3.630305
717.40 3.667572
717.50 3.65208
717.60 3.630219
717.70 3.618021
717.80 3.63854
717.90 3.693273
718.00 3.77913
718.10 3.873587
718.20 3.930927
718.30 3.984532
718.40 4.045417
718.50 4.133681
718.60 4.243377
718.70 4.302601
718.80 4.313873
718.90 4.339269
719.00 4.393807
719.10 4.443988
719.20 4.463175
719.30 4.461262
719.40 4.460107
719.50 4.472015
719.60 4.461547
719.70 4.337309
719.80 4.111014
719.90 3.887336
720.00 3.74701
720.10 3.70646
720.20 3.734199
720.30 3.765479
720.40 3.772063
720.50 3.768573
720.60 3.772257
720.70 3.785473
720.80 3.819428
720.90 3.883719
721.00 3.934803
721.10 3.968066
721.20 4.0112
721.30 4.095275
721.40 4.184977
721.50 4.228875
721.60 4.251151
721.70 4.279012
721.80 4.352192
721.90 4.434797
722.00 4.473165
722.10 4.50092
722.20 4.548073
722.30 4.614941
722.40 4.68797
722.50 4.770848
722.60 4.874511
722.70 4.983506
722.80 5.066971
722.90 5.100687
723.00 5.066955
723.10 4.961504
723.20 4.845644
723.30 4.798505
723.40 4.840843
723.50 4.944746
723.60 5.069066
723.70 5.194868
723.80 5.276621
723.90 5.30238
724.00 5.30887
724.10 5.328012
724.20 5.336889
724.30 5.301799
724.40 5.356092
724.50 5.47934
724.60 5.610987
724.70 5.752744
724.80 5.788151
724.90 5.808198
725.00 5.93409
725.10 6.051542
725.20 6.083498
725.30 6.0412
725.40 5.99009
725.50 6.054765
725.60 6.194134
725.70 6.292285
725.80 6.320864
725.90 6.28877
726.00 6.272159
726.10 6.321124
726.20 6.421471
726.30 6.551045
726.40 6.694163
726.50 6.82372
726.60 6.878561
726.70 6.856077
726.80 6.859566
726.90 6.916317
727.00 6.89212
727.10 6.690879
727.20 6.394447
727.30 6.218207
727.40 6.283819
727.50 6.534419
727.60 6.837867
727.70 7.03814
727.80 7.001277
727.90 6.810132
728.00 6.653633
728.10 6.644277
728.20 6.764732
728.30 6.852356
728.40 6.918547
728.50 7.059503
728.60 7.231522
728.70 7.347957
728.80 7.373197
728.90 7.369448
729.00 7.435046
729.10 7.519625
729.20 7.561105
729.30 7.57585
729.40 7.578717
729.50 7.620144
729.60 7.724834
729.70 7.867829
729.80 7.980422
729.90 7.994189
730.00 7.942695
730.10 7.940196
730.20 8.033354
730.30 8.165028
730.40 8.276967
730.50 8.313303
730.60 8.288398
730.70 8.319166
730.80 8.443804
730.90 8.574954
731.00 8.622141
731.10 8.573453
731.20 8.541949
731.30 8.612938
731.40 8.743486
731.50 8.857893
731.60 8.999575
731.70 9.128057
731.80 9.132794
731.90 9.065125
732.00 9.009602
732.10 9.042917
732.20 9.148574
732.30 9.243312
732.40 9.280006
732.50 9.235602
732.60 9.078534
732.70 8.863918
732.80 8.802338
732.90 9.005255
733.00 9.303204
733.10 9.516385
733.20 9.579691
733.30 9.529273
733.40 9.516331
733.50 9.587457
733.60 9.714086
733.70 9.86921
733.80 9.990109
733.90 10.06452
734.00 10.14349
734.10 10.2808
734.20 10.41189
734.30 10.31506
734.40 9.976719
734.50 9.678454
734.60 9.546652
734.70 9.552367
734.80 9.695668
734.90 9.857355
735.00 9.984941
735.10 10.08339
735.20 10.14874
735.30 10.2244
735.40 10.26922
735.50 10.21376
735.60 10.07281
735.70 9.916173
735.80 9.860446
735.90 9.955658
736.00 10.11861
736.10 10.25598
736.20 10.3106
736.30 10.31528
736.40 10.3844
736.50 10.49998
736.60 10.5815
736.70 10.62632
736.80 10.69409
736.90 10.83366
737.00 11.03105
737.10 11.16451
737.20 11.12302
737.30 10.9757
737.40 10.87368
737.50 10.83841
737.60 10.81312
737.70 10.83635
737.80 10.91855
737.90 11.03048
738.00 11.11449
738.10 11.12235
738.20 11.09421
738.30 11.08076
738.40 11.09428
738.50 11.13433
738.60 11.19232
738.70 11.2667
738.80 11.35275
738.90 11.44176
739.00 11.51454
739.10 11.55995
739.20 11.54729
739.30 11.4417
739.40 11.27317
739.50 11.11453
739.60 11.03393
739.70 11.08204
739.80 11.21927
739.90 11.32214
740.00 11.32843
740.10 11.32246
740.20 11.39059
740.30 11.51665
740.40 11.58246
740.50 11.47932
740.60 11.28229
740.70 11.11232
740.80 11.06105
740.90 11.15107
741.00 11.28938
741.10 11.42174
741.20 11.50579
741.30 11.54155
741.40 11.58857
741.50 11.64703
741.60 11.67647
741.70 11.60358
741.80 11.41838
741.90 11.24231
742.00 11.19068
742.10 11.27133
742.20 11.38117
742.30 11.44182
742.40 11.46563
742.50 11.52174
742.60 11.60064
742.70 11.66834
742.80 11.72718
742.90 11.78042
743.00 11.87745
743.10 11.97454
743.20 11.98737
743.30 11.94022
743.40 11.84082
743.50 11.68674
743.60 11.50257
743.70 11.38312
743.80 11.4811
743.90 11.75543
744.00 12.03499
744.10 12.12576
744.20 11.9409
744.30 11.68013
744.40 11.57642
744.50 11.60677
744.60 11.6439
744.70 11.63121
744.80 11.54074
744.90 11.44524
745.00 11.43585
745.10 11.51889
745.20 11.68585
745.30 11.83753
745.40 11.88712
745.50 11.84897
745.60 11.75878
745.70 11.71083
745.80 11.7424
745.90 11.79676
746.00 11.82989
746.10 11.81228
746.20 11.78849
746.30 11.81007
746.40 11.83424
746.50 11.85765
746.60 11.92054
746.70 11.98304
746.80 12.01012
746.90 12.0276
747.00 12.08453
747.10 12.23903
747.20 12.36081
747.30 12.3071
747.40 12.11047
747.50 11.92423
747.60 11.89494
747.70 12.00237
747.80 12.1539
747.90 12.2623
748.00 12.25924
748.10 12.15576
748.20 12.05305
748.30 12.05674
748.40 12.20701
748.50 12.38691
748.60 12.40995
748.70 12.26383
748.80 12.07629
748.90 11.99074
749.00 12.02453
749.10 12.10475
749.20 12.1846
749.30 12.2066
749.40 12.14144
749.50 12.0107
749.60 11.89665
749.70 11.90582
749.80 12.09381
749.90 12.40671
750.00 12.69454
750.10 12.83112
750.20 12.82363
750.30 12.77389
750.40 12.7642
750.50 12.77081
750.60 12.70424
750.70 12.54799
750.80 12.41811
750.90 12.45254
751.00 12.68759
751.10 12.96969
751.20 13.07145
751.30 12.97146
751.40 12.81912
751.50 12.78627
751.60 12.90151
751.70 13.04109
751.80 13.10748
751.90 13.04531
752.00 12.88346
752.10 12.73069
752.20 12.66598
752.30 12.76428
752.40 12.99735
752.50 13.15014
752.60 13.05856
752.70 12.73436
752.80 12.35136
752.90 12.18431
753.00 12.29936
753.10 12.58587
753.20 12.9102
753.30 13.11938
753.40 13.13915
753.50 13.01348
753.60 12.87992
753.70 12.89056
753.80 13.08002
753.90 13.37066
754.00 13.64191
754.10 13.78142
754.20 13.78297
754.30 13.70583
754.40 13.657
754.50 13.68535
754.60 13.7298
754.70 13.73727
754.80 13.68226
754.90 13.6042
755.00 13.58551
755.10 13.63449
755.20 13.70766
755.30 13.7557
755.40 13.73589
755.50 13.66143
755.60 13.61073
755.70 13.61319
755.80 13.65261
755.90 13.72303
756.00 13.79303
756.10 13.83566
756.20 13.81484
756.30 13.73318
756.40 13.64523
756.50 13.55074
756.60 13.4215
756.70 13.25771
756.80 13.08444
756.90 12.95297
757.00 12.94672
757.10 13.16338
757.20 13.58979
757.30 14.02896
757.40 14.27306
757.50 14.25638
757.60 14.089
757.70 13.92368
757.80 13.76979
757.90 13.62569
758.00 13.62246
758.10 13.83462
758.20 14.17624
758.30 14.43925
758.40 14.51552
758.50 14.48954
758.60 14.43156
758.70 14.28405
758.80 13.83477
758.90 12.92645
759.00 11.65866
759.10 10.40449
759.20 9.579281
759.30 9.353645
759.40 9.633944
759.50 10.03335
759.60 10.24066
759.70 10.26867
759.80 10.30201
759.90 10.51735
760.00 10.84854
760.10 10.93878
760.20 10.61233
760.30 10.24066
760.40 10.25408
760.50 10.51016
760.60 10.6695
760.70 10.68102
760.80 10.59578
760.90 10.51145
761.00 10.49112
761.10 10.50521
761.20 10.70019
761.30 11.12515
761.40 11.54769
761.50 11.77469
761.60 11.72274
761.70 11.60663
761.80 11.7508
761.90 12.07673
762.00 12.35518
762.10 12.39572
762.20 12.20005
762.30 12.01386
762.40 11.97547
762.50 12.04169
762.60 11.97219
762.70 11.54215
762.80 10.79041
762.90 9.903207
763.00 9.139478
763.10 8.646842
763.20 8.456885
763.30 8.564091
763.40 8.828404
763.50 8.993174
763.60 8.982066
763.70 8.940688
763.80 8.96385
763.90 9.077592
764.00 9.128344
764.10 8.978201
764.20 8.890667
764.30 9.049202
764.40 9.229681
764.50 9.254915
764.60 9.097839
764.70 8.966276
764.80 9.128879
764.90 9.337851
765.00 9.267599
765.10 9.037928
765.20 8.871201
765.30 8.896667
765.40 8.969887
765.50 8.812384
765.60 8.578433
765.70 8.533892
765.80 8.662656
765.90 8.777328
766.00 8.529414
766.10 7.887396
766.20 7.121625
766.30 6.319522
766.40 5.458117
766.50 4.513178
766.60 3.636826
766.70 3.218427
766.80 3.44266
766.90 4.133951
767.00 4.941371
767.10 5.527603
767.20 5.78787
767.30 5.816323
767.40 5.823607
767.50 5.934664
767.60 6.128289
767.70 6.342975
767.80 6.531215
767.90 6.688174
768.00 6.8058
768.10 6.893062
768.20 6.995224
768.30 7.104542
768.40 7.178004
768.50 7.213418
768.60 7.228555
768.70 7.257298
768.80 7.318165
768.90 7.385781
769.00 7.441554
769.10 7.462218
769.20 7.437612
769.30 7.407484
769.40 7.352499
769.50 7.183459
769.60 6.866066
769.70 6.352523
769.80 5.60585
769.90 4.730489
770.00 3.992629
770.10 3.710367
770.20 4.039955
770.30 4.820386
770.40 5.653574
770.50 6.2474
770.60 6.516398
770.70 6.566032
770.80 6.591849
770.90 6.708186
771.00 6.925372
771.10 7.183209
771.20 7.436013
771.30 7.635945
771.40 7.724256
771.50 7.678227
771.60 7.574526
771.70 7.567518
771.80 7.702046
771.90 7.807025
772.00 7.799214
772.10 7.808753
772.20 7.896124
772.30 8.013723
772.40 8.112639
772.50 8.222816
772.60 8.379635
772.70 8.551772
772.80 8.705427
772.90 8.812263
773.00 8.863434
773.10 8.891854
773.20 8.92273
773.30 8.97282
773.40 9.05979
773.50 9.150172
773.60 9.197434
773.70 9.228062
773.80 9.283212
773.90 9.362426
774.00 9.459294
774.10 9.526769
774.20 9.502161
774.30 9.343549
774.40 9.03169
774.50 8.663871
774.60 8.378081
774.70 8.211529
774.80 8.09604
774.90 7.95175
775.00 7.712502
775.10 7.437108
775.20 7.286801
775.30 7.270014
775.40 7.322632
775.50 7.422829
775.60 7.565847
775.70 7.681899
775.80 7.71959
775.90 7.724849
776.00 7.758391
776.10 7.877363
776.20 8.00718
776.30 8.008777
776.40 7.89472
776.50 7.768825
776.60 7.739804
776.70 7.865238
776.80 8.075932
776.90 8.280892
777.00 8.419817
777.10 8.460334
777.20 8.461009
777.30 8.504761
777.40 8.591713
777.50 8.678537
777.60 8.734005
777.70 8.746748
777.80 8.739628
777.90 8.747748
778.00 8.772335
778.10 8.757472
778.20 8.64201
778.30 8.433362
778.40 8.173503
778.50 7.930162
778.60 7.801561
778.70 7.792034
778.80 7.843014
778.90 7.939619
779.00 8.05359
779.10 8.182345
779.20 8.354518
779.30 8.525155
779.40 8.680505
779.50 8.825762
779.60 8.881512
779.70 8.820286
779.80 8.687773
779.90 8.512748
780.00 8.336295
780.10 8.190293
780.20 8.141123
780.30 8.326771
780.40 8.726311
780.50 9.155357
780.60 9.487011
780.70 9.711894
780.80 9.868984
780.90 9.937142
781.00 9.877852
781.10 9.751602
781.20 9.64713
781.30 9.638469
781.40 9.760058
781.50 9.963925
781.60 10.15989
781.70 10.26116
781.80 10.26225
781.90 10.22111
782.00 10.15274
782.10 10.02499
782.20 9.776205
782.30 9.453118
782.40 9.272162
782.50 9.25212
782.60 9.279717
782.70 9.309566
782.80 9.229203
782.90 8.966449
783.00 8.605954
783.10 8.332074
783.20 8.256297
783.30 8.37334
783.40 8.579212
783.50 8.761298
783.60 8.907571
783.70 9.005167
783.80 9.053794
783.90 9.095373
784.00 9.148454
784.10 9.211316
784.20 9.249641
784.30 9.245075
784.40 9.258538
784.50 9.334702
784.60 9.455857
784.70 9.582931
784.80 9.667961
784.90 9.687101
785.00 9.638463
785.10 9.591516
785.20 9.62451
785.30 9.724372
785.40 9.877377
785.50 9.958102
785.60 9.890427
785.70 9.820255
785.80 9.827165
785.90 9.911456
786.00 9.99715
786.10 9.993975
786.20 9.895583
786.30 9.706496
786.40 9.511615
786.50 9.411531
786.60 9.443895
786.70 9.59042
786.80 9.741015
786.90 9.838416
787.00 9.927881
787.10 9.947472
787.20 9.848726
787.30 9.732209
787.40 9.672017
787.50 9.700605
787.60 9.847396
787.70 10.07426
787.80 10.28376
787.90 10.44842
788.00 10.54828
788.10 10.57571
788.20 10.61867
788.30 10.69804
788.40 10.78165
788.50 10.81851
788.60 10.77544
788.70 10.72419
788.80 10.74988
788.90 10.87702
789.00 11.05455
789.10 11.16018
789.20 11.13935
789.30 11.07304
789.40 11.0573
789.50 11.09229
789.60 11.12687
789.70 11.10639
789.80 11.00675
789.90 10.8715
790.00 10.71662
790.10 10.57026
790.20 10.49681
790.30 10.53032
790.40 10.68083
790.50 10.87327
790.60 11.00547
790.70 10.97208
790.80 10.72543
790.90 10.3672
791.00 10.03769
791.10 9.849392
791.20 9.784231
791.30 9.833728
791.40 10.01732
791.50 10.20117
791.60 10.31845
791.70 10.34191
791.80 10.26562
791.90 10.18864
792.00 10.17979
792.10 10.26061
792.20 10.36736
792.30 10.44676
792.40 10.47723
792.50 10.45799
792.60 10.45757
792.70 10.49402
792.80 10.54526
792.90 10.61612
793.00 10.72522
793.10 10.90566
793.20 11.15734
793.30 11.41085
793.40 11.54385
793.50 11.53036
793.60 11.48206
793.70 11.4604
793.80 11.44383
793.90 11.39469
794.00 11.28611
794.10 11.12329
794.20 10.95218
794.30 10.86256
794.40 10.93191
794.50 11.08949
794.60 11.14408
794.70 10.96584
794.80 10.62595
794.90 10.35087
795.00 10.31642
795.10 10.57601
795.20 10.97887
795.30 11.33355
795.40 11.60484
795.50 11.76324
795.60 11.82833
795.70 11.87757
795.80 11.89636
795.90 11.8642
796.00 11.7985
796.10 11.66805
796.20 11.51098
796.30 11.44442
796.40 11.55
796.50 11.84385
796.60 12.12592
796.70 12.15788
796.80 12.02092
796.90 11.96786
797.00 12.08944
797.10 12.27227
797.20 12.38207
797.30 12.39607
797.40 12.38096
797.50 12.37658
797.60 12.34118
797.70 12.27232
797.80 12.2163
797.90 12.19099
798.00 12.20576
798.10 12.21393
798.20 12.14022
798.30 12.01359
798.40 11.92782
798.50 11.92981
798.60 11.96457
798.70 11.9256
798.80 11.79353
798.90 11.67558
799.00 11.66435
799.10 11.80128
799.20 12.10386
799.30 12.43868
799.40 12.60863
799.50 12.52863
799.60 12.26366
799.70 12.04727
799.80 12.00562
799.90 12.03209
800.00 12.08092
800.10 12.19356
800.20 12.32996
800.30 12.43608
800.40 12.51356
800.50 12.55778
800.60 12.57292
800.70 12.59329
800.80 12.64906
800.90 12.7369
801.00 12.8242
801.10 12.88016
801.20 12.93586
801.30 13.02398
801.40 13.13628
801.50 13.24396
801.60 13.28774
801.70 13.28322
801.80 13.28446
801.90 13.30113
802.00 13.35745
802.10 13.40737
802.20 13.35576
802.30 13.24894
802.40 13.18961
802.50 13.25483
802.60 13.4563
802.70 13.61792
802.80 13.6146
802.90 13.55788
803.00 13.59108
803.10 13.72682
803.20 13.87974
803.30 13.9818
803.40 14.0049
803.50 13.98767
803.60 13.97211
803.70 13.94359
803.80 13.91825
803.90 13.92353
804.00 13.933
804.10 13.94337
804.20 13.97762
804.30 14.0302
804.40 14.13201
804.50 14.26786
804.60 14.33574
804.70 14.29302
804.80 14.16293
804.90 14.03434
805.00 14.06965
805.10 14.33727
805.20 14.71022
805.30 15.02103
805.40 15.18738
805.50 15.21307
805.60 15.17226
805.70 15.1227
805.80 15.07528
805.90 15.06183
806.00 15.12983
806.10 15.26992
806.20 15.41881
806.30 15.48734
806.40 15.42178
806.50 15.27325
806.60 15.13957
806.70 15.09598
806.80 15.1349
806.90 15.14284
807.00 15.0798
807.10 15.01717
807.20 15.02305
807.30 15.13553
807.40 15.31003
807.50 15.46387
807.60 15.5652
807.70 15.60325
807.80 15.62695
807.90 15.69147
808.00 15.76117
808.10 15.81845
808.20 15.86332
808.30 15.89548
808.40 15.96491
808.50 16.07039
808.60 16.14985
808.70 16.16904
808.80 16.13427
808.90 16.08701
809.00 16.07457
809.10 16.11994
809.20 16.20671
809.30 16.28797
809.40 16.32949
809.50 16.31557
809.60 16.25314
809.70 16.18216
809.80 16.12803
809.90 16.10945
810.00 16.13055
810.10 16.16251
810.20 16.20021
810.30 16.23312
810.40 16.22793
810.50 16.17725
810.60 16.12724
810.70 16.14011
810.80 16.25129
810.90 16.44637
811.00 16.61508
811.10 16.65151
811.20 16.60182
811.30 16.58039
811.40 16.63185
811.50 16.67902
811.60 16.58152
811.70 16.33638
811.80 16.09606
811.90 16.04664
812.00 16.26364
812.10 16.60217
812.20 16.8769
812.30 17.00807
812.40 17.013
812.50 16.99658
812.60 17.02564
812.70 17.0943
812.80 17.18489
812.90 17.26151
813.00 17.29508
813.10 17.28156
813.20 17.23792
813.30 17.21028
813.40 17.2143
813.50 17.23445
813.60 17.26523
813.70 17.30855
813.80 17.40788
813.90 17.57471
814.00 17.70811
814.10 17.70748
814.20 17.54727
814.30 17.30199
814.40 17.08698
814.50 16.96724
814.60 16.9957
814.70 17.12092
814.80 17.18054
814.90 17.13581
815.00 17.04327
815.10 16.98794
815.20 17.0632
815.30 17.19672
815.40 17.26367
815.50 17.23012
815.60 17.13907
815.70 17.09373
815.80 17.1149
815.90 17.11818
816.00 17.04079
816.10 16.91608
816.20 16.81389
816.30 16.76655
816.40 16.80679
816.50 16.94207
816.60 17.14286
816.70 17.3471
816.80 17.47383
816.90 17.52394
817.00 17.50141
817.10 17.40858
817.20 17.33567
817.30 17.31738
817.40 17.3177
817.50 17.29313
817.60 17.19837
817.70 17.02132
817.80 16.7614
817.90 16.47188
818.00 16.18256
818.10 15.65341
818.20 14.62194
818.30 13.10211
818.40 11.45025
818.50 10.41126
818.60 10.51388
818.70 11.63138
818.80 13.14974
818.90 14.35393
819.00 14.96475
819.10 15.10919
819.20 14.86797
819.30 14.12141
819.40 12.78759
819.50 11.11127
819.60 9.727661
819.70 9.232566
819.80 9.761186
819.90 10.98556
820.00 12.33421
820.10 13.44171
820.20 14.28981
820.30 14.9623
820.40 15.46126
820.50 15.70147
820.60 15.65125
820.70 15.43306
820.80 15.25088
820.90 15.24689
821.00 15.45117
821.10 15.73688
821.20 15.96333
821.30 16.08655
821.40 16.09343
821.50 16.03416
821.60 15.99965
821.70 16.01029
821.80 16.04672
821.90 16.10625
822.00 16.15884
822.10 16.18326
822.20 16.2342
822.30 16.32554
822.40 16.42761
822.50 16.57419
822.60 16.74251
822.70 16.84809
822.80 16.87624
822.90 16.85363
823.00 16.87628
823.10 17.0452
823.20 17.24511
823.30 17.27592
823.40 17.09974
823.50 16.8366
823.60 16.69409
823.70 16.77888
823.80 17.00774
823.90 17.27198
824.00 17.52074
824.10 17.71353
824.20 17.78454
824.30 17.69795
824.40 17.48901
824.50 17.31454
824.60 17.34535
824.70 17.57778
824.80 17.93813
824.90 18.26222
825.00 18.34534
825.10 18.18381
825.20 17.88085
825.30 17.52808
825.40 17.23567
825.50 17.03221
825.60 16.83296
825.70 16.58973
825.80 16.40183
825.90 16.4078
826.00 16.62666
826.10 17.00126
826.20 17.39694
826.30 17.64061
826.40 17.73064
826.50 17.77177
826.60 17.81836
826.70 17.90781
826.80 18.00801
826.90 18.02041
827.00 17.90039
827.10 17.64734
827.20 17.27217
827.30 16.84743
827.40 16.47824
827.50 16.26742
827.60 16.26728
827.70 16.39041
827.80 16.58147
827.90 16.83818
828.00 17.02202
828.10 17.03403
828.20 16.86583
828.30 16.60212
828.40 16.44921
828.50 16.45629
828.60 16.53482
828.70 16.56568
828.80 16.48586
828.90 16.3386
829.00 16.07082
829.10 15.76751
829.20 15.64978
829.30 15.66277
829.40 15.70299
829.50 15.75995
829.60 15.80172
829.70 15.90748
829.80 16.10027
829.90 16.25015
830.00 15.8823
830.10 15.71237
830.20 15.54243
830.30 15.30466
830.40 15.0669
830.50 15.00868
830.60 14.95045
830.70 15.06793
830.80 15.1854
830.90 15.44694
831.00 15.70847
831.10 15.80776
831.20 15.90705
831.30 15.81892
831.40 15.7308
831.50 15.7537
831.60 15.7766
831.70 15.97143
831.80 16.16626
831.90 16.22244
832.00 16.27862
832.10 16.33638
832.20 16.39415
832.30 16.45885
832.40 16.52356
832.50 16.52377
832.60 16.52398
832.70 16.12835
832.80 15.73272
832.90 15.54686
833.00 15.36101
833.10 15.81536
833.20 16.26971
833.30 16.33899
833.40 16.40827
833.50 16.08443
833.60 15.7606
833.70 15.66725
833.80 15.5739
833.90 15.76002
834.00 15.94614
834.10 16.13495
834.20 16.32376
834.30 16.42714
834.40 16.53051
834.50 16.47613
834.60 16.42174
834.70 16.08646
834.80 15.75117
834.90 15.60902
835.00 15.46687
835.10 15.71463
835.20 15.96238
835.30 15.99233
835.40 16.02229
835.50 15.99257
835.60 15.96286
835.70 16.03969
835.80 16.11653
835.90 16.20549
836.00 16.29444
836.10 16.34688
836.20 16.39931
836.30 16.23061
836.40 16.06191
836.50 15.92247
836.60 15.78303
836.70 15.96396
836.80 16.14489
836.90 16.45887
837.00 16.77284
837.10 16.87134
837.20 16.96985
837.30 16.64029
837.40 16.31073
837.50 15.9437
837.60 15.57668
837.70 15.41836
837.80 15.26005
837.90 15.35258
838.00 15.44512
838.10 15.54925
838.20 15.65339
838.30 15.53563
838.40 15.41787
838.50 15.25885
838.60 15.09984
838.70 14.80848
838.80 14.51712
838.90 14.36041
839.00 14.2037
839.10 14.53637
839.20 14.86904
839.30 15.2022
839.40 15.53536
839.50 15.57084
839.60 15.60633
839.70 15.64363
839.80 15.68093
839.90 15.8516
840.00 16.02227
840.10 16.2117
840.20 16.36653
840.30 16.40448
840.40 16.41841
840.50 16.44793
840.60 16.47971
840.70 16.51661
840.80 16.5727
840.90 16.64283
841.00 16.63645
841.10 16.57453
841.20 16.45542
841.30 16.29171
841.40 16.19246
841.50 16.4567
841.60 16.73616
841.70 16.8521
841.80 16.90727
841.90 16.71904
842.00 16.28677
842.10 15.96612
842.20 15.82061
842.30 15.62593
842.40 15.67407
842.50 15.75789
842.60 15.7132
842.70 15.53678
842.80 15.47329
842.90 15.5637
843.00 15.61322
843.10 15.58516
843.20 15.53896
843.30 14.98762
843.40 14.00058
843.50 13.13392
843.60 12.33927
843.70 11.52126
843.80 11.98862
843.90 12.57234
844.00 12.97466
844.10 13.34298
844.20 13.4827
844.30 12.91207
844.40 12.37665
844.50 11.95098
844.60 11.50398
844.70 11.41627
844.80 11.57296
844.90 11.64636
845.00 11.722
845.10 11.80389
845.20 11.31875
845.30 10.85738
845.40 10.48976
845.50 10.11513
845.60 9.84166
845.70 9.92163
845.80 9.998929
845.90 10.17258
846.00 10.36066
846.10 10.51879
846.20 10.65326
846.30 10.65989
846.40 10.54736
846.50 10.49333
846.60 10.36028
846.70 10.20972
846.80 10.15619
846.90 10.12316
847.00 10.07724
847.10 10.11114
847.20 10.20191
847.30 10.31965
847.40 10.38962
847.50 10.40035
847.60 10.42004
847.70 10.5022
847.80 10.66962
847.90 10.87145
848.00 10.94492
848.10 10.99783
848.20 10.95166
848.30 10.89792
848.40 10.93307
848.50 11.06308
848.60 11.1773
848.70 11.30371
848.80 11.44317
848.90 11.56715
849.00 11.68904
849.10 11.82248
849.20 12.00098
849.30 12.12642
849.40 12.03464
849.50 11.96311
849.60 11.73058
849.70 11.48204
849.80 11.36565
849.90 11.3423
850.00 11.30546
850.10 11.44112
850.20 11.54499
850.30 11.60433
850.40 11.68234
850.50 11.50162
850.60 11.11194
850.70 10.79789
850.80 10.58962
850.90 10.37027
851.00 10.61663
851.10 10.87682
851.20 11.00338
851.30 11.06046
851.40 11.08403
851.50 10.93777
851.60 10.78874
851.70 10.60538
851.80 10.44426
851.90 10.35922
852.00 10.29211
852.10 10.25076
852.20 10.32786
852.30 10.42007
852.40 10.71468
852.50 10.98674
852.60 11.14827
852.70 11.29251
852.80 11.38745
852.90 11.40399
853.00 11.42573
853.10 11.48068
853.20 11.54463
853.30 11.61816
853.40 11.68916
853.50 11.77218
853.60 11.88193
853.70 12.00879
853.80 12.03508
853.90 12.01794
854.00 11.98555
854.10 11.9961
854.20 12.08846
854.30 12.16295
854.40 12.20728
854.50 12.30056
854.60 12.33934
854.70 12.45847
854.80 12.6308
854.90 12.79278
855.00 12.89165
855.10 12.97893
855.20 13.03986
855.30 13.11381
855.40 13.13687
855.50 13.13644
855.60 13.18069
855.70 13.26786
855.80 13.29042
855.90 13.02912
856.00 12.77901
856.10 12.59112
856.20 12.41126
856.30 12.40302
856.40 12.57734
856.50 12.77169
856.60 13.05614
856.70 13.35038
856.80 13.381
856.90 13.37188
857.00 13.25814
857.10 13.08334
857.20 12.99114
857.30 12.9484
857.40 12.8669
857.50 12.92989
857.60 12.99575
857.70 13.11921
857.80 13.28642
857.90 13.36347
858.00 13.35603
858.10 13.40616
858.20 13.35914
858.30 13.28734
858.40 13.25491
858.50 13.28213
858.60 13.35845
858.70 13.44518
858.80 13.49547
858.90 13.55444
859.00 13.62099
859.10 13.59243
859.20 13.52798
859.30 13.46268
859.40 13.39059
859.50 13.33443
859.60 13.46877
859.70 13.60393
859.80 13.70193
859.90 13.7863
860.00 13.84147
860.10 13.85895
860.20 13.86882
860.30 13.89415
860.40 13.93587
860.50 14.00509
860.60 14.10655
860.70 14.20978
860.80 14.30934
860.90 14.36603
861.00 14.29023
861.10 14.24833
861.20 14.12504
861.30 13.97559
861.40 13.89121
861.50 13.88441
861.60 13.83504
861.70 13.73815
861.80 13.66029
861.90 13.77088
862.00 13.90308
862.10 13.99167
862.20 14.07738
862.30 14.0889
862.40 13.97093
862.50 13.91729
862.60 13.85352
862.70 13.7736
862.80 13.66685
862.90 13.58406
863.00 13.55734
863.10 13.54886
863.20 13.5387
863.30 13.69563
863.40 13.84787
863.50 13.91798
863.60 13.97842
863.70 14.07152
863.80 14.09571
863.90 14.08029
864.00 13.99009
864.10 13.90331
864.20 13.98019
864.30 14.14362
864.40 14.22992
864.50 14.18363
864.60 14.17737
864.70 14.03709
864.80 13.89479
864.90 13.83735
865.00 13.80308
865.10 13.81577
865.20 13.94486
865.30 14.10659
865.40 14.3196
865.50 14.502
865.60 14.60399
865.70 14.69192
865.80 14.72799
865.90 14.67721
866.00 14.60229
866.10 14.35516
866.20 14.1406
866.30 14.13284
866.40 14.15538
866.50 14.26717
866.60 14.54581
866.70 14.74086
866.80 14.80677
866.90 14.91207
867.00 14.87297
867.10 14.80783
867.20 14.83387
867.30 14.92922
867.40 14.91693
867.50 14.82655
867.60 14.73833
867.70 14.82747
867.80 14.94206
867.90 15.03988
868.00 15.15972
868.10 15.23891
868.20 15.15023
868.30 15.07111
868.40 15.11776
868.50 15.12666
868.60 15.07185
868.70 15.0464
868.80 14.97468
868.90 14.6367
869.00 14.29309
869.10 14.11
869.20 13.95944
869.30 13.77964
869.40 13.58555
869.50 13.46557
869.60 13.42099
869.70 13.32646
869.80 13.47305
869.90 13.63871
870.00 13.8153
870.10 13.9818
870.20 14.13614
870.30 14.28452
870.40 14.41166
870.50 14.49141
870.60 14.56239
870.70 14.53876
870.80 14.47978
870.90 14.38246
871.00 14.17784
871.10 14.02599
871.20 13.93528
871.30 13.79829
871.40 13.82251
871.50 13.90296
871.60 13.89011
871.70 13.78841
871.80 13.75153
871.90 13.79975
872.00 13.85104
872.10 13.98519
872.20 14.12754
872.30 14.2959
872.40 14.47884
872.50 14.64883
872.60 14.76136
872.70 14.84023
872.80 15.21028
872.90 15.59536
873.00 15.67584
873.10 15.56273
873.20 15.46177
873.30 15.17643
873.40 14.88642
873.50 14.82952
873.60 14.77372
873.70 14.78422
873.80 14.85294
873.90 14.93652
874.00 15.0262
874.10 15.08355
874.20 15.344
874.30 15.62577
874.40 15.95757
874.50 16.27381
874.60 16.36686
874.70 16.22544
874.80 16.15847
874.90 15.8623
875.00 15.58057
875.10 15.71012
875.20 15.95431
875.30 16.11181
875.40 16.34804
875.50 16.53736
875.60 16.42427
875.70 16.35369
875.80 16.50285
875.90 16.66549
876.00 16.8222
876.10 17.05021
876.20 17.18406
876.30 16.97381
876.40 16.83651
876.50 16.58264
876.60 16.25981
876.70 16.02623
876.80 15.91875
876.90 15.98121
877.00 16.50514
877.10 16.958
877.20 17.35906
877.30 17.77211
877.40 18.09694
877.50 18.3125
877.60 18.41635
877.70 18.32126
877.80 18.32384
877.90 17.77169
878.00 17.19632
878.10 16.97656
878.20 16.94431
878.30 16.91303
878.40 17.15489
878.50 17.40187
878.60 17.46547
878.70 17.52358
878.80 17.5737
878.90 17.62749
879.00 17.69734
879.10 17.83102
879.20 17.93408
879.30 17.99379
879.40 18.09987
879.50 18.20793
879.60 18.27919
879.70 18.33553
879.80 18.51432
879.90 18.62279
880.00 18.18514
880.10 17.78058
880.20 17.13782
880.30 16.43107
880.40 16.07052
880.50 16.11869
880.60 16.10531
880.70 16.21461
880.80 16.35881
880.90 16.61912
881.00 16.91532
881.10 17.41347
881.20 18.02024
881.30 18.46459
881.40 18.7677
881.50 19.09632
881.60 19.21778
881.70 19.33588
881.80 19.52496
881.90 19.70302
882.00 19.66887
882.10 19.26218
882.20 18.92923
882.30 18.29318
882.40 17.63263
882.50 17.28013
882.60 17.11614
882.70 17.06901
882.80 17.3997
882.90 17.72324
883.00 18.1468
883.10 18.5643
883.20 18.91079
883.30 19.23518
883.40 19.44481
883.50 19.4368
883.60 19.46871
883.70 19.55015
883.80 19.60402
883.90 19.67206
884.00 19.73318
884.10 19.833
884.20 20.01581
884.30 20.14944
884.40 19.8405
884.50 19.53157
884.60 19.12557
884.70 18.70443
884.80 18.43481
884.90 18.31869
885.00 18.3039
885.10 18.76502
885.20 19.12966
885.30 19.8078
885.40 20.54084
885.50 20.75033
885.60 20.58206
885.70 20.37212
885.80 19.57826
885.90 18.84433
886.00 17.83077
886.10 16.76378
886.20 15.99306
886.30 15.44063
886.40 15.09909
886.50 15.55677
886.60 15.95484
886.70 16.22526
886.80 16.52686
886.90 16.2349
887.00 15.6137
887.10 15.01892
887.20 14.27601
887.30 13.57698
887.40 13.63202
887.50 13.64541
887.60 13.98241
887.70 14.47044
887.80 14.93896
887.90 15.45102
888.00 15.93085
888.10 16.04779
888.20 16.18412
888.30 15.94066
888.40 15.60424
888.50 15.43053
888.60 15.28931
888.70 15.14447
888.80 15.45437
888.90 15.73743
889.00 16.02672
889.10 16.31113
889.20 16.48024
889.30 16.52086
889.40 16.50914
889.50 16.30289
889.60 16.14933
889.70 15.93065
889.80 15.6647
889.90 15.66438
890.00 15.89882
890.10 16.10739
890.20 16.5972
890.30 17.16311
890.40 17.45745
890.50 17.69891
890.60 17.71901
890.70 17.65956
890.80 17.6193
890.90 17.47915
891.00 17.37178
891.10 17.22382
891.20 17.0518
891.30 17.11261
891.40 17.28807
891.50 17.40046
891.60 17.60231
891.70 17.8062
891.80 17.84102
891.90 17.86617
892.00 17.84778
892.10 17.83042
892.20 17.79357
892.30 17.71028
892.40 17.66675
892.50 17.58773
892.60 17.49323
892.70 17.46398
892.80 17.43757
892.90 17.4931
893.00 17.68359
893.10 17.90242
893.20 18.31891
893.30 18.72005
893.40 18.98879
893.50 19.25239
893.60 19.09724
893.70 18.59846
893.80 18.11669
893.90 17.34991
894.00 16.59986
894.10 16.48989
894.20 16.37299
894.30 16.35524
894.40 16.46409
894.50 16.62778
894.60 16.73458
894.70 16.77441
894.80 16.99092
894.90 17.18531
895.00 17.17561
895.10 17.1014
895.20 17.07307
895.30 16.96005
895.40 16.9075
895.50 17.10512
895.60 17.24607
895.70 17.41875
895.80 17.63509
895.90 17.79381
896.00 17.79862
896.10 17.82021
896.20 17.80678
896.30 17.78016
896.40 17.74788
896.50 17.72812
896.60 17.5694
896.70 17.29202
896.80 17.15722
896.90 17.35276
897.00 17.51964
897.10 17.76172
897.20 18.01882
897.30 18.14531
897.40 18.16233
897.50 18.21514
897.60 18.39053
897.70 18.55333
897.80 18.70229
897.90 18.87884
898.00 18.84766
898.10 18.61792
898.20 18.48589
898.30 18.54233
898.40 18.53629
898.50 19.05666
898.60 19.57278
898.70 19.78541
898.80 19.86664
898.90 19.8171
899.00 19.5136
899.10 19.28107
899.20 19.20055
899.30 19.12217
899.40 19.16022
899.50 19.22945
899.60 19.21943
899.70 19.14642
899.80 19.05893
899.90 18.87383
900.00 18.68022
900.10 18.73866
900.20 18.83689
900.30 19.06012
900.40 19.60626
900.50 20.18901
900.60 20.56471
900.70 20.9307
900.80 20.70603
900.90 20.415
901.00 20.13884
901.10 19.78946
901.20 19.56222
901.30 19.7747
901.40 19.9806
901.50 20.0668
901.60 20.13871
901.70 19.89955
901.80 19.47095
901.90 19.19
902.00 19.10403
902.10 19.05163
902.20 18.86869
902.30 18.67095
902.40 18.54925
902.50 18.45585
902.60 18.39298
902.70 18.40985
902.80 18.40996
902.90 18.46744
903.00 18.50704
903.10 18.72107
903.20 19.03026
903.30 19.37332
903.40 19.66278
903.50 19.88105
903.60 20.06978
903.70 20.27465
903.80 20.42867
903.90 20.57786
904.00 20.63124
904.10 20.62763
904.20 20.65913
904.30 20.45029
904.40 20.20405
904.50 20.25307
904.60 20.32624
904.70 20.46917
904.80 20.73704
904.90 20.98636
905.00 21.07323
905.10 21.16597
905.20 20.79698
905.30 20.42746
905.40 20.21008
905.50 20.05761
905.60 19.9086
905.70 19.81084
905.80 19.73467
905.90 19.72433
906.00 19.7051
906.10 19.75499
906.20 19.83073
906.30 19.8264
906.40 19.85559
906.50 19.90641
906.60 19.79504
906.70 19.69109
906.80 19.56246
906.90 19.43768
907.00 19.40502
907.10 19.418
907.20 19.39297
907.30 19.62979
907.40 19.88647
907.50 19.99408
907.60 20.07691
907.70 20.23709
907.80 20.43178
907.90 20.61282
908.00 20.9035
908.10 21.19847
908.20 21.13925
908.30 21.05587
908.40 21.03105
908.50 20.97337
908.60 20.81937
908.70 20.65724
908.80 20.47969
908.90 20.19299
909.00 19.8961
909.10 19.91922
909.20 20.14642
909.30 20.38765
909.40 20.68395
909.50 20.99358
909.60 21.17283
909.70 21.31963
909.80 21.46876
909.90 21.608
910.00 21.70269
910.10 21.78958
910.20 21.91982
910.30 21.85628
910.40 21.76012
910.50 21.50012
910.60 21.1947
910.70 20.99418
910.80 20.89768
910.90 20.83929
911.00 21.09562
911.10 21.3566
911.20 21.58363
911.30 21.80563
911.40 21.92914
911.50 22.00005
911.60 22.04012
911.70 21.8563
911.80 21.6667
911.90 21.67311
912.00 21.70936
912.10 21.81794
912.20 21.98995
912.30 22.12698
912.40 22.14442
912.50 22.14628
912.60 22.07867
912.70 21.9855
912.80 21.93036
912.90 21.92541
913.00 21.97941
913.10 22.06982
913.20 22.17963
913.30 22.38034
913.40 22.57666
913.50 22.68448
913.60 22.75809
913.70 22.67209
913.80 22.32714
913.90 21.95279
914.00 21.42392
914.10 20.94583
914.20 21.06558
914.30 21.26945
914.40 21.5429
914.50 21.98242
914.60 22.3176
914.70 22.33734
914.80 22.39444
914.90 22.13024
915.00 21.84351
915.10 21.7422
915.20 21.7364
915.30 21.7744
915.40 22.1666
915.50 22.48549
915.60 22.84593
915.70 23.22791
915.80 23.34069
915.90 23.31069
916.00 23.3154
916.10 23.09956
916.20 22.87501
916.30 22.62603
916.40 22.36519
916.50 22.40942
916.60 22.58282
916.70 22.71595
916.80 22.92122
916.90 23.13125
917.00 23.03414
917.10 22.93584
917.20 22.87478
917.30 22.82032
917.40 22.79181
917.50 22.74073
917.60 22.68429
917.70 22.63683
917.80 22.56866
917.90 22.5744
918.00 22.60044
918.10 22.68871
918.20 22.82046
918.30 22.91244
918.40 22.87829
918.50 22.83963
918.60 22.74391
918.70 22.64394
918.80 22.82991
918.90 23.18042
919.00 23.4252
919.10 23.75812
919.20 24.20717
919.30 23.92747
919.40 23.66978
919.50 23.4781
919.60 23.26414
919.70 23.15817
919.80 23.46372
919.90 23.73878
920.00 23.79082
920.10 23.88647
920.20 23.87348
920.30 23.78842
920.40 23.67381
920.50 23.62635
920.60 23.60067
920.70 23.32776
920.80 23.0778
920.90 22.52971
921.00 21.89986
921.10 21.64834
921.20 21.76923
921.30 21.88616
921.40 22.21599
921.50 22.50356
921.60 22.63141
921.70 22.73227
921.80 22.74496
921.90 22.71915
922.00 22.75075
922.10 22.57352
922.20 22.36156
922.30 22.20094
922.40 22.04331
922.50 21.99881
922.60 22.0006
922.70 21.95098
922.80 21.96023
922.90 21.93097
923.00 21.69132
923.10 21.48829
923.20 21.20294
923.30 20.86595
923.40 20.72903
923.50 20.89928
923.60 21.01278
923.70 21.08915
923.80 21.1634
923.90 21.22844
924.00 21.28821
924.10 21.52555
924.20 21.91716
924.30 22.12858
924.40 22.2908
924.50 22.55143
924.60 22.19282
924.70 21.76832
924.80 21.49696
924.90 21.24996
925.00 21.0041
925.10 20.95387
925.20 20.87848
925.30 20.93679
925.40 21.01104
925.50 21.28181
925.60 21.66642
925.70 21.93993
925.80 22.23529
925.90 22.55982
926.00 22.39281
926.10 22.26232
926.20 22.14585
926.30 22.01872
926.40 22.0363
926.50 22.21872
926.60 22.34216
926.70 22.60482
926.80 22.85771
926.90 22.87507
927.00 22.82527
927.10 22.69244
927.20 22.42471
927.30 22.19642
927.40 21.95803
927.50 21.72986
927.60 21.52675
927.70 21.32244
927.80 21.09795
927.90 20.87591
928.00 20.7368
928.10 20.79919
928.20 20.8245
928.30 21.13427
928.40 21.46227
928.50 21.59869
928.60 21.62685
928.70 21.59901
928.80 21.3106
928.90 21.02344
929.00 20.90895
929.10 20.78675
929.20 20.68045
929.30 20.59786
929.40 20.579
929.50 20.67745
929.60 20.74981
929.70 20.7498
929.80 20.79037
929.90 20.57509
930.00 20.29657
930.10 20.13299
930.20 20.10783
930.30 20.07173
930.40 20.08734
930.50 20.16839
930.60 20.22119
930.70 20.31372
930.80 20.504
930.90 20.66381
931.00 20.82154
931.10 21.05566
931.20 21.23287
931.30 21.28337
931.40 21.31772
931.50 21.3538
931.60 21.15601
931.70 21.11931
931.80 21.05859
931.90 20.93252
932.00 20.72954
932.10 20.65897
932.20 20.7022
932.30 20.76408
932.40 20.82403
932.50 20.87692
932.60 20.92982
932.70 20.87705
932.80 20.83219
932.90 20.8242
933.00 20.86785
933.10 20.88934
933.20 20.83025
933.30 20.73711
933.40 20.68549
933.50 20.67572
933.60 20.64708
933.70 20.63675
933.80 20.72899
933.90 20.8638
934.00 20.96864
934.10 21.02668
934.20 21.09962
934.30 21.04864
934.40 20.96614
934.50 20.85757
934.60 20.90273
934.70 20.97039
934.80 21.01662
934.90 20.94127
935.00 20.91463
935.10 20.86757
935.20 20.81358
935.30 20.70058
935.40 20.68864
935.50 20.6679
935.60 20.62692
935.70 20.60394
935.80 20.59548
935.90 20.68492
936.00 20.82544
936.10 20.9217
936.20 21.05932
936.30 21.22488
936.40 21.41388
936.50 21.28383
936.60 21.14248
936.70 20.97824
936.80 20.73642
936.90 20.46235
937.00 20.17279
937.10 19.89294
937.20 19.67547
937.30 19.81366
937.40 19.99434
937.50 20.15701
937.60 20.41685
937.70 20.6874
937.80 20.90234
937.90 21.04167
938.00 21.11911
938.10 21.02263
938.20 20.88862
938.30 20.83493
938.40 20.9578
938.50 21.0601
938.60 21.09698
938.70 21.10123
938.80 21.08972
938.90 21.09868
939.00 21.11444
939.10 21.12781
939.20 21.18509
939.30 21.25838
939.40 21.32443
939.50 21.27722
939.60 21.24739
939.70 21.13374
939.80 20.93055
939.90 20.71723
940.00 20.75386
940.10 20.85395
940.20 20.88213
940.30 20.94925
940.40 21.05127
940.50 21.21399
940.60 21.38443
940.70 21.50534
940.80 21.65025
940.90 21.82147
941.00 21.97945
941.10 21.95836
941.20 21.93739
941.30 21.93248
941.40 21.71443
941.50 21.51722
941.60 21.38479
941.70 21.32442
941.80 21.17666
941.90 21.2461
942.00 21.39868
942.10 21.59605
942.20 21.67069
942.30 21.74918
942.40 21.7992
942.50 21.82693
942.60 21.84508
942.70 21.82847
942.80 21.79625
942.90 21.76853
943.00 21.86387
943.10 21.95964
943.20 21.98902
943.30 22.05484
943.40 22.18485
943.50 22.25896
943.60 22.24137
943.70 22.21395
943.80 22.01536
943.90 21.75007
944.00 21.48005
944.10 21.31984
944.20 21.14845
944.30 21.01505
944.40 20.95363
944.50 20.94153
944.60 21.00417
944.70 21.09663
944.80 21.12014
944.90 21.18743
945.00 21.26616
945.10 21.3719
945.20 21.52684
945.30 21.68559
945.40 21.78626
945.50 21.85292
945.60 21.8991
945.70 21.86571
945.80 21.80144
945.90 21.7859
946.00 21.83397
946.10 21.85547
946.20 21.90982
946.30 22.07466
946.40 22.20124
946.50 22.13112
946.60 21.96386
946.70 21.92435
946.80 22.03002
946.90 22.13675
947.00 22.22043
947.10 22.31689
947.20 22.4265
947.30 22.48778
947.40 22.50459
947.50 22.5083
947.60 22.55696
947.70 22.61986
947.80 22.67521
947.90 22.82122
948.00 22.96107
948.10 23.07178
948.20 23.07696
948.30 23.07387
948.40 23.10564
948.50 23.15603
948.60 23.1856
948.70 23.10961
948.80 23.02476
948.90 23.0144
949.00 23.17205
949.10 23.31151
949.20 23.34223
949.30 23.26889
949.40 23.25044
949.50 23.11254
949.60 22.93026
949.70 22.76107
949.80 22.9345
949.90 23.09137
950.00 23.1931
950.10 23.25151
950.20 23.27264
950.30 23.2102
950.40 23.09358
950.50 23.09016
950.60 23.07959
950.70 23.05887
950.80 23.0326
950.90 23.13461
951.00 23.21113
951.10 23.22622
951.20 23.20064
951.30 23.20998
951.40 23.10211
951.50 22.94878
951.60 22.79364
951.70 22.793
951.80 22.79718
951.90 22.82727
952.00 22.90674
952.10 22.98263
952.20 23.11813
952.30 23.27766
952.40 23.38804
952.50 23.59832
952.60 23.82913
952.70 24.01756
952.80 23.98275
952.90 23.96242
953.00 23.96352
953.10 23.99273
953.20 24.0374
953.30 23.94485
953.40 23.80772
953.50 23.67177
953.60 23.54181
953.70 23.40655
953.80 23.32634
953.90 23.29487
954.00 23.22401
954.10 23.20067
954.20 23.24036
954.30 23.30933
954.40 23.33209
954.50 23.35414
954.60 23.38424
954.70 23.26528
954.80 23.13424
954.90 23.13456
955.00 23.31038
955.10 23.47327
955.20 23.60078
955.30 23.71755
955.40 23.85397
955.50 23.95986
955.60 24.04387
955.70 24.13122
955.80 24.22779
955.90 24.34592
956.00 24.40516
956.10 24.44026
956.20 24.49206
956.30 24.27888
956.40 24.05838
956.50 23.94626
956.60 24.02435
956.70 24.01264
956.80 24.02819
956.90 24.11166
957.00 24.2933
957.10 24.34916
957.20 24.35647
957.30 24.2912
957.40 23.97717
957.50 23.68952
957.60 23.49568
957.70 23.39873
957.80 23.31522
957.90 23.38622
958.00 23.53059
958.10 23.58382
958.20 23.69348
958.30 23.82542
958.40 23.94228
958.50 23.88528
958.60 23.85311
958.70 23.71564
958.80 23.49401
958.90 23.29146
959.00 23.09827
959.10 22.89871
959.20 22.71918
959.30 22.85911
959.40 22.97911
959.50 22.94691
959.60 22.72322
959.70 22.61251
959.80 22.33216
959.90 21.97177
960.00 21.58297
960.10 21.67373
960.20 21.76856
960.30 21.95137
960.40 22.53632
960.50 23.07103
960.60 23.34863
960.70 23.44014
960.80 23.5854
960.90 23.55786
961.00 23.5158
961.10 23.51515
961.20 23.40397
961.30 23.2903
961.40 23.22204
961.50 23.21168
961.60 23.20813
961.70 23.40569
961.80 23.68041
961.90 23.8804
962.00 23.99442
962.10 24.11067
962.20 24.15814
962.30 24.03983
962.40 23.96685
962.50 24.04189
962.60 24.22754
962.70 24.35185
962.80 24.28785
962.90 24.19974
963.00 24.14609
963.10 24.05039
963.20 23.98053
963.30 23.87747
963.40 23.7586
963.50 23.65767
963.60 23.15904
963.70 22.5019
963.80 21.9396
963.90 21.41757
964.00 20.8535
964.10 20.65353
964.20 21.37645
964.30 21.97782
964.40 22.38261
964.50 22.67699
964.60 23.10341
964.70 22.87253
964.80 22.58005
964.90 22.3848
965.00 22.4496
965.10 22.5288
965.20 22.65899
965.30 22.86262
965.40 23.03387
965.50 23.20542
965.60 23.3815
965.70 23.58672
965.80 23.72446
965.90 23.85047
966.00 23.97198
966.10 24.1109
966.20 24.23889
966.30 24.30608
966.40 24.34369
966.50 24.40035
966.60 24.32915
966.70 24.27564
966.80 24.2835
966.90 24.30045
967.00 24.26053
967.10 24.16783
967.20 24.05408
967.30 24.00594
967.40 23.5688
967.50 23.04149
967.60 22.59825
967.70 22.41191
967.80 22.17462
967.90 22.28794
968.00 23.02047
968.10 23.67993
968.20 23.98653
968.30 24.11328
968.40 24.33603
968.50 24.10851
968.60 23.86612
968.70 23.59123
968.80 23.20128
968.90 22.83237
969.00 22.75786
969.10 22.89767
969.20 22.96335
969.30 23.44007
969.40 23.98211
969.50 24.43948
969.60 24.62126
969.70 24.84367
969.80 24.97188
969.90 24.94604
970.00 24.90534
970.10 24.78078
970.20 24.61265
970.30 24.45478
970.40 23.90946
970.50 23.41486
970.60 23.05132
970.70 22.82544
970.80 22.53743
970.90 22.83441
971.00 23.54787
971.10 24.1037
971.20 24.51363
971.30 24.9055
971.40 25.27658
971.50 25.34253
971.60 25.42226
971.70 25.35896
971.80 25.13829
971.90 24.96679
972.00 24.75949
972.10 24.55626
972.20 24.38952
972.30 24.50447
972.40 24.58583
972.50 24.56684
972.60 24.41803
972.70 24.28948
972.80 23.85042
972.90 23.24302
973.00 22.7325
973.10 22.79799
973.20 22.85453
973.30 22.8641
973.40 23.18156
973.50 23.49882
973.60 23.65179
973.70 23.65236
973.80 23.72687
973.90 23.7844
974.00 23.84594
974.10 23.88401
974.20 23.66289
974.30 23.46258
974.40 23.27568
974.50 23.07367
974.60 22.83889
974.70 22.95875
974.80 23.21793
974.90 23.3351
975.00 23.44679
975.10 23.5969
975.20 23.77931
975.30 23.88724
975.40 23.96799
975.50 24.04794
975.60 24.11123
975.70 24.21713
975.80 24.28786
975.90 24.34097
976.00 24.33115
976.10 24.25245
976.20 24.21131
976.30 24.24195
976.40 24.32929
976.50 24.38548
976.60 24.47613
976.70 24.56621
976.80 24.66207
976.90 24.30078
977.00 23.96957
977.10 23.69971
977.20 23.51071
977.30 23.29262
977.40 23.48531
977.50 23.90599
977.60 24.20479
977.70 24.32293
977.80 24.44152
977.90 24.52068
978.00 24.31657
978.10 24.14567
978.20 23.73963
978.30 23.06396
978.40 22.47932
978.50 22.2616
978.60 22.11532
978.70 21.86901
978.80 22.06667
978.90 22.29054
979.00 22.63506
979.10 23.18471
979.20 23.65041
979.30 24.11527
979.40 24.56889
979.50 25.04527
979.60 25.0241
979.70 25.02917
979.80 25.10357
979.90 25.1141
980.00 25.06984
980.10 25.03253
980.20 25.02479
980.30 25.03385
980.40 24.96535
980.50 24.88514
980.60 24.80729
980.70 24.72591
980.80 24.64158
980.90 24.63126
981.00 24.7059
981.10 24.76598
981.20 24.73759
981.30 24.67128
981.40 24.60686
981.50 24.34266
981.60 24.10124
981.70 24.00753
981.80 24.13224
981.90 24.1839
982.00 24.22689
982.10 24.2527
982.20 24.32383
982.30 24.36139
982.40 24.39542
982.50 24.43571
982.60 24.53462
982.70 24.61305
982.80 24.60586
982.90 24.51903
983.00 24.48082
983.10 24.38293
983.20 24.26949
983.30 24.15571
983.40 24.11589
983.50 24.07899
983.60 24.03382
983.70 23.98583
983.80 23.95252
983.90 24.08823
984.00 24.291
984.10 24.43245
984.20 24.523
984.30 24.62029
984.40 24.67129
984.50 24.59494
984.60 24.50984
984.70 24.54687
984.80 24.6493
984.90 24.74998
985.00 24.65342
985.10 24.54404
985.20 24.47824
985.30 24.41906
985.40 24.33431
985.50 24.40654
985.60 24.6681
985.70 24.88922
985.80 24.90715
985.90 24.86731
986.00 24.87597
986.10 24.85024
986.20 24.82019
986.30 24.81748
986.40 24.88124
986.50 24.91665
986.60 24.87026
986.70 24.77553
986.80 24.75756
986.90 24.60184
987.00 24.43273
987.10 24.33835
987.20 24.51727
987.30 24.61859
987.40 24.73976
987.50 24.87526
987.60 25.05614
987.70 24.97383
987.80 24.84599
987.90 24.74711
988.00 24.58435
988.10 24.42188
988.20 24.43081
988.30 24.66172
988.40 24.83395
988.50 25.03651
988.60 25.24343
988.70 25.45775
988.80 25.41401
988.90 25.37729
989.00 25.32106
989.10 25.19362
989.20 25.0735
989.30 24.82807
989.40 24.48645
989.50 24.18635
989.60 23.35785
989.70 22.48971
989.80 21.77093
989.90 21.32673
990.00 20.80337
990.10 20.42736
990.20 20.24152
990.30 20.05667
990.40 19.49681
990.50 18.83707
990.60 18.24088
990.70 17.88296
990.80 17.50914
990.90 17.35255
991.00 17.5411
991.10 17.67051
991.20 17.74336
991.30 17.78383
991.40 17.86598
991.50 17.57109
991.60 17.26879
991.70 17.1318
991.80 17.40003
991.90 17.59796
992.00 17.89582
992.10 18.26473
992.20 18.68085
992.30 18.49091
992.40 18.22389
992.50 18.07303
992.60 18.12583
992.70 18.09775
992.80 18.30338
992.90 18.84118
993.00 19.35911
993.10 19.70368
993.20 19.98349
993.30 20.28895
993.40 19.93366
993.50 19.58734
993.60 19.52462
993.70 19.9596
993.80 20.31039
993.90 20.80796
994.00 21.35894
994.10 21.91912
994.20 21.93521
994.30 21.93847
994.40 21.94766
994.50 21.7754
994.60 21.60475
994.70 21.62067
994.80 21.79435
994.90 21.8958
995.00 22.14082
995.10 22.42568
995.20 22.71715
995.30 22.88922
995.40 23.04804
995.50 22.98418
995.60 22.63422
995.70 22.38495
995.80 22.15456
995.90 21.93762
996.00 21.67814
996.10 21.70227
996.20 21.7088
996.30 21.87079
996.40 22.40021
996.50 22.88453
996.60 23.19241
996.70 23.37097
996.80 23.65393
996.90 22.84991
997.00 21.99316
997.10 21.30718
997.20 20.85606
997.30 20.33909
997.40 20.25509
997.50 20.59988
997.60 20.82634
997.70 21.1872
997.80 21.56349
997.90 21.90583
998.00 22.13307
998.10 22.36723
998.20 22.38675
998.30 22.10095
998.40 21.93244
998.50 21.69932
998.60 21.44184
998.70 21.16419
998.80 21.23789
998.90 21.29095
999.00 21.26123
999.10 21.16176
999.20 21.09482
999.30 21.23654
999.40 21.50748
999.50 21.70914
999.60 21.66908
999.70 21.62062
999.80 21.65135
999.90 21.85237
1000.00 21.98572
1000.10 22.28824
1000.20 22.73933
1000.30 23.17676
1000.40 23.33776
1000.50 23.44611
1000.60 23.5595
1000.70 23.22945
1000.80 22.93464
1000.90 22.57861
1001.00 22.12347
1001.10 21.69972
1001.20 21.7088
1001.30 21.89308
1001.40 21.95977
1001.50 22.4351
1001.60 22.90211
1001.70 23.27664
1001.80 23.47843
1001.90 23.7315
1002.00 23.66407
1002.10 23.40626
1002.20 23.20519
1002.30 23.37565
1002.40 23.5528
1002.50 23.65027
1002.60 23.68163
1002.70 23.74303
1002.80 23.58759
1002.90 23.25172
1003.00 22.98984
1003.10 22.94856
1003.20 22.95144
1003.30 22.89729
1003.40 22.63831
1003.50 22.38718
1003.60 22.19151
1003.70 22.06478
1003.80 21.94927
1003.90 22.20677
1004.00 22.60038
1004.10 22.87111
1004.20 23.27307
1004.30 23.6687
1004.40 23.94703
1004.50 23.98328
1004.60 24.11324
1004.70 23.97844
1004.80 23.66981
1004.90 23.41676
1005.00 22.76419
1005.10 22.08672
1005.20 21.48212
1005.30 21.00884
1005.40 20.49825
1005.50 20.29016
1005.60 20.37164
1005.70 20.3744
1005.80 20.71282
1005.90 21.11184
1006.00 21.44606
1006.10 21.67909
1006.20 21.95219
1006.30 22.10489
1006.40 22.07562
1006.50 22.05374
1006.60 22.36435
1006.70 22.80447
1006.80 23.16428
1006.90 23.42143
1007.00 23.70946
1007.10 23.79771
1007.20 23.43342
1007.30 23.12115
1007.40 23.14621
1007.50 23.3705
1007.60 23.49995
1007.70 23.80948
1007.80 24.12884
1007.90 24.34597
1008.00 24.26263
1008.10 24.21344
1008.20 24.23114
1008.30 24.29344
1008.40 24.3766
1008.50 24.54962
1008.60 24.73093
1008.70 24.80869
1008.80 24.40794
1008.90 24.07145
1009.00 23.7663
1009.10 23.45805
1009.20 23.14277
1009.30 23.18718
1009.40 23.36391
1009.50 23.44049
1009.60 23.77853
1009.70 24.11392
1009.80 24.48101
1009.90 24.9086
1010.00 25.33466
1010.10 25.69937
1010.20 26.01793
1010.30 26.32739
1010.40 26.12477
1010.50 25.90265
1010.60 25.72174
1010.70 25.41978
1010.80 25.11693
1010.90 24.78671
1011.00 24.41707
1011.10 24.08159
1011.20 23.77356
1011.30 23.47219
1011.40 23.17757
1011.50 23.13547
1011.60 23.08431
1011.70 23.0121
1011.80 22.93471
1011.90 22.85797
1012.00 23.21905
1012.10 23.75068
1012.20 24.15073
1012.30 24.50601
1012.40 24.88204
1012.50 25.14602
1012.60 25.10635
1012.70 25.15697
1012.80 25.17798
1012.90 25.20803
1013.00 25.17159
1013.10 25.1241
1013.20 25.08904
1013.30 24.95837
1013.40 24.33215
1013.50 23.77405
1013.60 23.20179
1013.70 22.63609
1013.80 22.04186
1013.90 22.12685
1014.00 22.34081
1014.10 22.48781
1014.20 22.96746
1014.30 23.42522
1014.40 23.63969
1014.50 23.53811
1014.60 23.5357
1014.70 23.32312
1014.80 23.04371
1014.90 22.80959
1015.00 23.30847
1015.10 23.72246
1015.20 23.99541
1015.30 24.18611
1015.40 24.47768
1015.50 24.25313
1015.60 23.70934
1015.70 23.31464
1015.80 23.10975
1015.90 22.91259
1016.00 22.7673
1016.10 23.00749
1016.20 23.19704
1016.30 23.31036
1016.40 23.37157
1016.50 23.48536
1016.60 23.75814
1016.70 24.06101
1016.80 24.26425
1016.90 23.99458
1017.00 23.76761
1017.10 23.55436
1017.20 23.35216
1017.30 23.13891
1017.40 23.57835
1017.50 24.26748
1017.60 24.82987
1017.70 24.79021
1017.80 24.80684
1017.90 24.70142
1018.00 24.21149
1018.10 23.74835
1018.20 23.51821
1018.30 23.40135
1018.40 23.20822
1018.50 22.9664
1018.60 22.72761
1018.70 22.60716
1018.80 22.88884
1018.90 23.0969
1019.00 23.4182
1019.10 23.83839
1019.20 24.27758
1019.30 24.33686
1019.40 24.32582
1019.50 24.35655
1019.60 24.39179
1019.70 24.40852
1019.80 24.37694
1019.90 24.27314
1020.00 24.18826
1020.10 24.09217
1020.20 23.99362
1020.30 23.87749
1020.40 24.00533
1020.50 24.13411
1020.60 24.27636
1020.70 24.46063
1020.80 24.65157
1020.90 24.67065
1021.00 24.58173
1021.10 24.50892
1021.20 24.18738
1021.30 23.86654
1021.40 23.58898
1021.50 23.31656
1021.60 23.03141
1021.70 22.7815
1021.80 22.55487
1021.90 22.30377
1022.00 22.20984
1022.10 22.15344
1022.20 22.1533
1022.30 22.65703
1022.40 23.07929
1022.50 23.42736
1022.60 23.69221
1022.70 24.03793
1022.80 24.11941
1022.90 24.10179
1023.00 24.08502
1023.10 23.89336
1023.20 23.72205
1023.30 23.66652
1023.40 23.74966
1023.50 23.7385
1023.60 23.94831
1023.70 24.23851
1023.80 24.51596
1023.90 24.62077
1024.00 24.74669
1024.10 24.92834
1024.20 25.12406
1024.30 25.29844
1024.40 25.15753
1024.50 24.83689
1024.60 24.65828
1024.70 24.50949
1024.80 24.33893
1024.90 24.11821
1025.00 23.89617
1025.10 23.70116
1025.20 23.45566
1025.30 23.1708
1025.40 22.88009
1025.50 23.02408
1025.60 23.2506
1025.70 23.3348
1025.80 23.04523
1025.90 22.84466
1026.00 22.5499
1026.10 22.05882
1026.20 21.55722
1026.30 21.49119
1026.40 21.59644
1026.50 21.60677
1026.60 22.24146
1026.70 22.82056
1026.80 23.32351
1026.90 23.76626
1027.00 24.28695
1027.10 24.38217
1027.20 24.24022
1027.30 24.18876
1027.40 23.85402
1027.50 23.49702
1027.60 23.19932
1027.70 23.12612
1027.80 23.01275
1027.90 22.91846
1028.00 22.81601
1028.10 22.75761
1028.20 22.46234
1028.30 22.12149
1028.40 21.85121
1028.50 22.08795
1028.60 22.23375
1028.70 22.59426
1028.80 23.25862
1028.90 23.86994
1029.00 23.94541
1029.10 23.84516
1029.20 23.88982
1029.30 23.7257
1029.40 23.54547
1029.50 23.46798
1029.60 23.57513
1029.70 23.626
1029.80 23.53708
1029.90 23.38355
1030.00 23.2848
1030.10 23.22564
1030.20 23.17854
1030.30 23.20148
1030.40 23.45497
1030.50 23.61669
1030.60 23.83205
1030.70 24.06586
1030.80 24.35785
1030.90 24.19146
1031.00 24.00406
1031.10 23.94485
1031.20 24.14831
1031.30 24.27737
1031.40 24.35573
1031.50 24.39199
1031.60 24.46943
1031.70 24.17241
1031.80 23.80017
1031.90 23.5218
1032.00 23.544
1032.10 23.51447
1032.20 23.39564
1032.30 23.19074
1032.40 23.04775
1032.50 23.03651
1032.60 23.09094
1032.70 23.0915
1032.80 23.66999
1032.90 24.22798
1033.00 24.70953
1033.10 25.12023
1033.20 25.57222
1033.30 25.59051
1033.40 25.35234
1033.50 25.21597
1033.60 24.58208
1033.70 23.92802
1033.80 23.40565
1033.90 23.19216
1034.00 22.89263
1034.10 22.69144
1034.20 22.55918
1034.30 22.38199
1034.40 22.02531
1034.50 21.65203
1034.60 21.39526
1034.70 21.81159
1034.80 22.16871
1034.90 22.46754
1035.00 22.70425
1035.10 23.04775
1035.20 23.14383
1035.30 23.14875
1035.40 23.13474
1035.50 23.35291
1035.60 23.57188
1035.70 23.81703
1035.80 24.13954
1035.90 24.44721
1036.00 24.76584
1036.10 25.07181
1036.20 25.33408
1036.30 25.32128
1036.40 25.30781
1036.50 25.31454
1036.60 25.28404
1036.70 25.25239
1036.80 25.30682
1036.90 25.41487
1037.00 25.48251
1037.10 25.75375
1037.20 26.04953
1037.30 26.27052
1037.40 26.22814
1037.50 26.22231
1037.60 25.95394
1037.70 25.44379
1037.80 25.03645
1037.90 24.48254
1038.00 23.89428
1038.10 23.35677
1038.20 23.34959
1038.30 23.256
1038.40 23.40551
1038.50 23.91042
1038.60 24.35815
1038.70 24.53769
1038.80 24.60909
1038.90 24.73635
1039.00 24.56808
1039.10 24.41399
1039.20 24.27344
1039.30 24.12507
1039.40 23.96363
1039.50 23.72928
1039.60 23.45199
1039.70 23.19559
1039.80 23.30544
1039.90 23.4357
1040.00 23.60462
1040.10 24.06587
1040.20 24.50112
1040.30 24.86684
1040.40 25.14467
1040.50 25.45288
1040.60 25.58642
1040.70 25.68839
1040.80 25.78343
1040.90 25.65397
1041.00 25.5431
1041.10 25.23066
1041.20 24.67616
1041.30 24.20262
1041.40 24.05047
1041.50 23.96252
1041.60 23.9099
1041.70 24.61147
1041.80 25.24685
1041.90 25.68126
1042.00 25.87887
1042.10 26.18433
1042.20 25.92924
1042.30 25.47345
1042.40 25.1062
1042.50 24.60486
1042.60 24.11947
1042.70 23.68758
1042.80 23.37448
1042.90 23.00027
1043.00 23.15739
1043.10 23.6138
1043.20 23.90449
1043.30 24.57789
1043.40 25.30386
1043.50 25.89188
1043.60 25.92413
1043.70 26.04916
1043.80 26.05804
1043.90 25.97517
1044.00 25.86641
1044.10 25.85273
1044.20 25.86163
1044.30 25.87219
1044.40 25.91504
1044.50 25.96581
1044.60 25.95836
1044.70 25.85669
1044.80 25.72567
1044.90 25.90375
1045.00 26.19821
1045.10 26.4711
1045.20 26.83801
1045.30 27.23353
1045.40 27.53692
1045.50 27.62112
1045.60 27.71767
1045.70 27.48804
1045.80 27.14786
1045.90 26.8878
1046.00 26.4442
1046.10 25.99171
1046.20 25.6136
1046.30 25.42519
1046.40 25.18658
1046.50 24.98029
1046.60 24.76756
1046.70 24.58537
1046.80 24.3219
1046.90 24.04653
1047.00 23.82129
1047.10 23.8378
1047.20 23.8098
1047.30 23.9316
1047.40 24.17882
1047.50 24.42322
1047.60 24.53339
1047.70 24.60664
1047.80 24.64852
1047.90 24.52127
1048.00 24.40633
1048.10 24.43413
1048.20 24.65693
1048.30 24.81649
1048.40 25.03879
1048.50 25.2699
1048.60 25.49857
1048.70 25.41184
1048.80 25.34943
1048.90 25.33264
1049.00 25.3943
1049.10 25.45578
1049.20 25.53751
1049.30 25.61619
1049.40 25.6915
1049.50 25.28458
1049.60 24.8728
1049.70 24.54534
1049.80 24.31249
1049.90 23.99748
1050.00 24.16424
1050.10 24.61594
1050.20 24.9773
1050.30 25.11656
1050.40 25.25729
1050.50 25.38232
1050.60 25.2953
1050.70 25.21338
1050.80 25.1546
1050.90 25.11798
1051.00 25.05057
1051.10 24.72404
1051.20 24.36753
1051.30 24.09013
1051.40 23.90505
1051.50 23.68111
1051.60 23.62683
1051.70 23.79892
1051.80 23.90606
1051.90 23.91513
1052.00 23.89384
1052.10 23.90376
1052.20 24.0162
1052.30 24.12251
1052.40 24.32818
1052.50 24.72436
1052.60 25.0602
1052.70 25.32884
1052.80 25.55239
1052.90 25.79433
1053.00 25.6282
1053.10 25.45288
1053.20 25.3511
1053.30 25.34238
1053.40 25.28175
1053.50 25.32377
1053.60 25.40125
1053.70 25.47849
1053.80 25.30959
1053.90 25.14532
1054.00 25.05523
1054.10 25.14825
1054.20 25.17498
1054.30 25.21318
1054.40 25.2309
1054.50 25.28279
1054.60 24.98416
1054.70 24.63555
1054.80 24.37841
1054.90 24.41875
1055.00 24.39377
1055.10 24.55152
1055.20 24.94689
1055.30 25.30067
1055.40 25.25789
1055.50 25.08086
1055.60 24.9676
1055.70 24.60482
1055.80 24.25002
1055.90 23.9419
1056.00 23.69054
1056.10 23.43211
1056.20 23.38784
1056.30 23.46727
1056.40 23.4832
1056.50 23.6255
1056.60 23.77375
1056.70 23.89045
1056.80 23.91508
1056.90 23.97378
1057.00 24.02257
1057.10 24.0738
1057.20 24.12291
1057.30 24.31106
1057.40 24.49999
1057.50 24.65172
1057.60 24.76265
1057.70 24.90098
1057.80 24.96231
1057.90 24.95672
1058.00 24.97175
1058.10 25.04409
1058.20 25.11937
1058.30 25.13274
1058.40 24.77332
1058.50 24.47084
1058.60 24.19685
1058.70 23.94497
1058.80 23.65275
1058.90 23.66739
1059.00 23.79951
1059.10 23.89885
1059.20 23.97303
1059.30 24.04394
1059.40 24.18035
1059.50 24.4227
1059.60 24.62365
1059.70 24.68325
1059.80 24.66539
1059.90 24.7172
1060.00 24.54197
1060.10 24.34697
1060.20 24.2054
1060.30 24.15015
1060.40 24.09697
1060.50 23.98204
1060.60 23.83565
1060.70 23.68602
1060.80 23.56615
1060.90 23.44662
1061.00 23.40532
1061.10 23.64945
1061.20 23.84153
1061.30 24.08248
1061.40 24.37457
1061.50 24.69804
1061.60 24.77044
1061.70 24.78701
1061.80 24.79703
1061.90 24.5861
1062.00 24.37518
1062.10 24.22922
1062.20 24.20954
1062.30 24.18851
1062.40 24.33166
1062.50 24.51728
1062.60 24.65535
1062.70 25.02512
1062.80 25.38759
1062.90 25.63676
1063.00 25.65161
1063.10 25.72908
1063.20 25.6196
1063.30 25.42347
1063.40 25.27015
1063.50 25.30556
1063.60 25.30459
1063.70 25.32996
1063.80 25.46755
1063.90 25.57175
1064.00 25.69102
1064.10 25.82209
1064.20 25.98085
1064.30 25.90805
1064.40 25.82554
1064.50 25.78029
1064.60 25.79534
1064.70 25.79997
1064.80 25.79436
1064.90 25.77295
1065.00 25.7303
1065.10 25.62263
1065.20 25.51119
1065.30 25.38443
1065.40 25.03736
1065.50 24.71567
1065.60 24.55858
1065.70 24.5962
1065.80 24.57741
1065.90 24.55213
1066.00 24.51141
1066.10 24.44513
1066.20 23.99741
1066.30 23.60047
1066.40 23.39029
1066.50 23.4282
1066.60 23.38569
1066.70 23.50671
1066.80 23.67717
1066.90 23.84558
1067.00 23.78792
1067.10 23.73118
1067.20 23.82231
1067.30 24.20826
1067.40 24.52835
1067.50 24.82074
1067.60 25.07684
1067.70 25.34077
1067.80 25.38614
1067.90 25.42658
1068.00 25.5044
1068.10 25.66606
1068.20 25.84695
1068.30 26.10022
1068.40 26.35651
1068.50 26.59141
1068.60 26.68492
1068.70 26.74932
1068.80 26.77647
1068.90 26.63967
1069.00 26.51079
1069.10 26.43915
1069.20 26.43609
1069.30 26.42073
1069.40 26.17598
1069.50 25.88576
1069.60 25.62423
1069.70 25.49208
1069.80 25.33837
1069.90 25.30447
1070.00 25.38408
1070.10 25.44471
1070.20 25.32824
1070.30 25.1464
1070.40 25.00494
1070.50 25.19489
1070.60 25.35083
1070.70 25.49185
1070.80 25.6093
1070.90 25.74925
1071.00 25.67721
1071.10 25.51709
1071.20 25.39281
1071.30 25.61542
1071.40 25.83136
1071.50 25.9759
1071.60 25.98727
1071.70 26.08036
1071.80 26.08874
1071.90 26.05163
1072.00 26.017
1072.10 26.02024
1072.20 26.02418
1072.30 25.94041
1072.40 25.58869
1072.50 25.28062
1072.60 25.1235
1072.70 25.08487
1072.80 24.94942
1072.90 25.11182
1073.00 25.34037
1073.10 25.51998
1073.20 25.42445
1073.30 25.36199
1073.40 25.24377
1073.50 25.09974
1073.60 24.92962
1073.70 25.08298
1073.80 25.35125
1073.90 25.60199
1074.00 25.86351
1074.10 26.10694
1074.20 26.27665
1074.30 26.28567
1074.40 26.36592
1074.50 26.2802
1074.60 26.09731
1074.70 25.89765
1074.80 25.75563
1074.90 25.62041
1075.00 25.47558
1075.10 25.36841
1075.20 25.33042
1075.30 25.32281
1075.40 25.33228
1075.50 25.34683
1075.60 25.56393
1075.70 25.76464
1075.80 25.95295
1075.90 26.21434
1076.00 26.50556
1076.10 26.56889
1076.20 26.45636
1076.30 26.37174
1076.40 26.33763
1076.50 26.31327
1076.60 26.283
1076.70 26.32022
1076.80 26.35581
1076.90 26.40026
1077.00 26.41793
1077.10 26.43551
1077.20 26.3324
1077.30 26.18777
1077.40 26.03303
1077.50 25.75866
1077.60 25.52645
1077.70 25.43721
1077.80 25.51481
1077.90 25.49565
1078.00 25.61578
1078.10 25.78307
1078.20 25.94379
1078.30 25.89859
1078.40 25.87298
1078.50 25.88428
1078.60 25.90303
1078.70 25.93519
1078.80 25.81186
1078.90 25.62086
1079.00 25.46737
1079.10 25.34643
1079.20 25.21676
1079.30 25.08367
1079.40 24.98346
1079.50 24.84459
1079.60 24.92101
1079.70 25.17796
1079.80 25.41609
1079.90 25.57091
1080.00 25.69818
1080.10 25.80704
1080.20 25.87707
1080.30 25.97679
1080.40 26.05149
1080.50 26.09431
1080.60 26.09608
1080.70 26.19931
1080.80 26.33199
1080.90 26.46143
1081.00 26.4552
1081.10 26.45776
1081.20 26.46203
1081.30 26.46576
1081.40 26.47725
1081.50 26.57115
1081.60 26.69088
1081.70 26.79152
1081.80 26.78319
1081.90 26.80116
1082.00 26.73042
1082.10 26.50403
1082.20 26.3098
1082.30 26.11197
1082.40 25.9204
1082.50 25.71783
1082.60 25.73538
1082.70 25.75765
1082.80 25.83221
1082.90 26.00019
1083.00 26.15929
1083.10 26.31616
1083.20 26.44983
1083.30 26.53926
1083.40 26.35651
1083.50 26.13947
1083.60 25.91422
1083.70 25.72004
1083.80 25.5714
1083.90 25.61398
1084.00 25.83684
1084.10 26.06628
1084.20 26.15973
1084.30 26.20802
1084.40 26.22758
1084.50 26.052
1084.60 25.92369
1084.70 25.81638
1084.80 25.76917
1084.90 25.64915
1085.00 25.8336
1085.10 26.0728
1085.20 26.24347
1085.30 26.10565
1085.40 26.02599
1085.50 26.04438
1085.60 26.19168
1085.70 26.26391
1085.80 26.43856
1085.90 26.64003
1086.00 26.85008
1086.10 26.97659
1086.20 27.10527
1086.30 27.16134
1086.40 27.09562
1086.50 27.08752
1086.60 26.95222
1086.70 26.75785
1086.80 26.58185
1086.90 26.67427
1087.00 26.74993
1087.10 26.7966
1087.20 26.84131
1087.30 26.9285
1087.40 26.76125
1087.50 26.46706
1087.60 26.24881
1087.70 26.33463
1087.80 26.40331
1087.90 26.42009
1088.00 26.42933
1088.10 26.49121
1088.20 26.46205
1088.30 26.38254
1088.40 26.31954
1088.50 26.41487
1088.60 26.52554
1088.70 26.5617
1088.80 26.42819
1088.90 26.36465
1089.00 26.37871
1089.10 26.48851
1089.20 26.56447
1089.30 26.52899
1089.40 26.43337
1089.50 26.32597
1089.60 26.38389
1089.70 26.42135
1089.80 26.56963
1089.90 26.85001
1090.00 27.10317
1090.10 27.13553
1090.20 27.0942
1090.30 27.08857
1090.40 27.08181
1090.50 27.08663
1090.60 27.02715
1090.70 26.8117
1090.80 26.61032
1090.90 26.39673
1091.00 26.20098
1091.10 26.04645
1091.20 26.14606
1091.30 26.22448
1091.40 26.33989
1091.50 26.68354
1091.60 26.99213
1091.70 27.18151
1091.80 27.23611
1091.90 27.31918
1092.00 27.26478
1092.10 27.21231
1092.20 27.20562
1092.30 27.24883
1092.40 27.23512
1092.50 27.19289
1092.60 27.13217
1092.70 27.11496
1092.80 27.1319
1092.90 27.15432
1093.00 27.15227
1093.10 27.07524
1093.20 27.00117
1093.30 26.94801
1093.40 26.91992
1093.50 26.90781
1093.60 26.87144
1093.70 26.82157
1093.80 26.76864
1093.90 26.97775
1094.00 27.12799
1094.10 27.25757
1094.20 27.35628
1094.30 27.49732
1094.40 27.1881
1094.50 26.72467
1094.60 26.32471
1094.70 26.40147
1094.80 26.44149
1094.90 26.59113
1095.00 26.93249
1095.10 27.23874
1095.20 27.5399
1095.30 27.84461
1095.40 28.1363
1095.50 28.00992
1095.60 27.87841
1095.70 27.75809
1095.80 27.63958
1095.90 27.51558
1096.00 27.53019
1096.10 27.63899
1096.20 27.73292
1096.30 27.76557
1096.40 27.78143
1096.50 27.76905
1096.60 27.59704
1096.70 27.44122
1096.80 27.13481
1096.90 26.69718
1097.00 26.31922
1097.10 26.16536
1097.20 26.0493
1097.30 25.97266
1097.40 26.26743
1097.50 26.51442
1097.60 26.68995
1097.70 26.80576
1097.80 26.9354
1097.90 27.03281
1098.00 27.11302
1098.10 27.17231
1098.20 27.01548
1098.30 26.91672
1098.40 26.83956
1098.50 26.72874
1098.60 26.58907
1098.70 26.49874
1098.80 26.44264
1098.90 26.3732
1099.00 26.47262
1099.10 26.57054
1099.20 26.72265
1099.30 26.99013
1099.40 27.2079
1099.50 27.23927
1099.60 27.15815
1099.70 27.15013
1099.80 27.10051
1099.90 27.03639
1100.00 26.94812
1100.10 26.8385
1100.20 26.74494
1100.30 26.60196
1100.40 26.41748
1100.50 26.25339
1100.60 26.30074
1100.70 26.37098
1100.80 26.42708
1100.90 26.60478
1101.00 26.80636
1101.10 26.87319
1101.20 26.81642
1101.30 26.75964
1101.40 26.95102
1101.50 27.19528
1101.60 27.35896
1101.70 27.1125
1101.80 26.91976
1101.90 26.62416
1102.00 26.1584
1102.10 25.6663
1102.20 25.30001
1102.30 24.99119
1102.40 24.71122
1102.50 25.14745
1102.60 25.4948
1102.70 25.87367
1102.80 26.31736
1102.90 26.79533
1103.00 26.89792
1103.10 26.77578
1103.20 26.66445
1103.30 26.04281
1103.40 25.46794
1103.50 25.03892
1103.60 24.86668
1103.70 24.61602
1103.80 24.76613
1103.90 25.13439
1104.00 25.48432
1104.10 25.58207
1104.20 25.63761
1104.30 25.62448
1104.40 25.5259
1104.50 25.47038
1104.60 25.54394
1104.70 25.71153
1104.80 25.91996
1104.90 25.97133
1105.00 25.948
1105.10 25.80992
1105.20 25.31662
1105.30 24.91063
1105.40 24.68673
1105.50 24.61032
1105.60 24.47283
1105.70 24.58072
1105.80 24.72043
1105.90 24.81506
1106.00 24.91742
1106.10 25.05926
1106.20 25.12775
1106.30 25.10558
1106.40 25.07645
1106.50 25.12208
1106.60 25.2066
1106.70 25.30066
1106.80 25.04272
1106.90 24.80953
1107.00 24.64481
1107.10 24.65228
1107.20 24.6224
1107.30 24.7994
1107.40 25.05955
1107.50 25.24763
1107.60 25.13222
1107.70 25.07548
1107.80 25.11821
1107.90 25.29313
1108.00 25.41501
1108.10 25.56663
1108.20 25.73698
1108.30 25.89766
1108.40 25.97482
1108.50 26.04212
1108.60 26.08319
1108.70 26.0655
1108.80 26.10925
1108.90 26.11319
1109.00 26.09901
1109.10 26.10729
1109.20 26.17748
1109.30 26.224
1109.40 26.23196
1109.50 26.30906
1109.60 26.39992
1109.70 26.45667
1109.80 26.47319
1109.90 26.52667
1110.00 26.37207
1110.10 26.19778
1110.20 26.05404
1110.30 25.78897
1110.40 25.51083
1110.50 25.33887
1110.60 25.32645
1110.70 25.20013
1110.80 25.2663
1110.90 25.40112
1111.00 25.54255
1111.10 25.38535
1111.20 25.24411
1111.30 25.13694
1111.40 25.06972
1111.50 24.94135
1111.60 24.88029
1111.70 24.86924
1111.80 24.87411
1111.90 24.84962
1112.00 24.84444
1112.10 24.85143
1112.20 24.88099
1112.30 24.90404
1112.40 25.04899
1112.50 25.26154
1112.60 25.4552
1112.70 25.69012
1112.80 25.90389
1112.90 26.06868
1113.00 26.14419
1113.10 26.25566
1113.20 26.28061
1113.30 26.25621
1113.40 26.26044
1113.50 26.1299
1113.60 26.00758
1113.70 25.93245
1113.80 25.8301
1113.90 25.62806
1114.00 25.59681
1114.10 25.7048
1114.20 25.77775
1114.30 26.02283
1114.40 26.29186
1114.50 26.50388
1114.60 26.48334
1114.70 26.57616
1114.80 26.59747
1114.90 26.52709
1115.00 26.4652
1115.10 26.53125
1115.20 26.59986
1115.30 26.59025
1115.40 26.4949
1115.50 26.4617
1115.60 26.36685
1115.70 26.11628
1115.80 25.8499
1115.90 25.74965
1116.00 25.73455
1116.10 25.73959
1116.20 25.84728
1116.30 25.93824
1116.40 25.9631
1116.50 25.8378
1116.60 25.66467
1116.70 25.54759
1116.80 25.49341
1116.90 25.5356
1117.00 25.40241
1117.10 25.25667
1117.20 25.15305
1117.30 25.04532
1117.40 24.88868
1117.50 24.93114
1117.60 24.9924
1117.70 25.01012
1117.80 25.084
1117.90 25.17783
1118.00 25.23797
1118.10 25.37139
1118.20 25.61095
1118.30 25.87656
1118.40 26.11003
1118.50 26.1961
1118.60 26.25147
1118.70 26.36152
1118.80 26.26421
1118.90 26.1271
1119.00 25.98398
1119.10 25.85379
1119.20 25.72573
1119.30 25.61535
1119.40 25.55535
1119.50 25.58666
1119.60 25.61277
1119.70 25.65301
1119.80 25.75708
1119.90 25.85114
1120.00 25.94809
1120.10 25.99631
1120.20 26.05122
1120.30 26.12539
1120.40 26.23371
1120.50 26.30708
1120.60 26.33263
1120.70 26.29124
1120.80 26.15254
1120.90 26.09043
1121.00 26.01557
1121.10 25.95972
1121.20 25.8853
1121.30 25.83889
1121.40 25.84706
1121.50 25.8606
1121.60 25.84231
1121.70 25.74894
1121.80 25.6207
1121.90 25.50366
1122.00 25.46986
1122.10 25.52932
1122.20 25.58076
1122.30 25.65656
1122.40 25.71546
1122.50 25.70599
1122.60 25.74879
1122.70 25.9258
1122.80 26.1482
1122.90 26.37571
1123.00 26.38595
1123.10 26.29381
1123.20 26.19484
1123.30 25.9783
1123.40 25.60672
1123.50 25.23699
1123.60 25.01992
1123.70 25.3324
1123.80 25.58683
1123.90 25.8201
1124.00 25.96429
1124.10 26.09284
1124.20 26.21328
1124.30 26.28436
1124.40 26.32909
1124.50 26.37716
1124.60 26.38252
1124.70 26.28248
1124.80 26.25579
1124.90 26.14088
1125.00 25.86631
1125.10 25.62777
1125.20 25.53413
1125.30 25.66548
1125.40 25.73083
1125.50 25.5405
1125.60 25.46072
1125.70 25.45789
1125.80 25.70809
1125.90 25.86079
1126.00 25.89104
1126.10 25.90285
1126.20 25.91604
1126.30 25.96218
1126.40 26.00077
1126.50 26.04644
1126.60 26.14086
1126.70 26.24476
1126.80 26.33332
1126.90 26.38274
1127.00 26.4036
1127.10 26.43662
1127.20 26.43505
1127.30 26.33236
1127.40 26.20131
1127.50 26.04897
1127.60 25.91015
1127.70 25.80776
1127.80 25.75599
1127.90 25.84205
1128.00 25.95819
1128.10 26.06247
1128.20 26.14438
1128.30 26.20244
1128.40 26.21473
1128.50 26.2412
1128.60 26.28644
1128.70 26.37601
1128.80 26.45326
1128.90 26.43362
1129.00 26.4107
1129.10 26.37868
1129.20 26.30857
1129.30 26.21299
1129.40 26.10114
1129.50 26.11163
1129.60 26.22993
1129.70 26.34849
1129.80 26.47423
1129.90 26.58355
1130.00 26.74835
1130.10 26.86413
1130.20 26.56399
1130.30 26.2917
1130.40 26.03082
1130.50 25.83707
1130.60 25.66453
1130.70 25.47838
1130.80 25.45916
1130.90 25.59009
1131.00 25.68604
1131.10 25.81818
1131.20 25.98472
1131.30 26.12393
1131.40 26.25157
1131.50 26.30791
1131.60 26.37243
1131.70 26.44227
1131.80 26.45337
1131.90 26.44515
1132.00 26.45363
1132.10 26.42165
1132.20 26.35926
1132.30 26.28205
1132.40 26.21924
1132.50 26.19499
1132.60 26.19137
1132.70 26.1839
1132.80 26.18698
1132.90 26.19103
1133.00 26.19516
1133.10 26.12154
1133.20 26.01113
1133.30 25.87616
1133.40 25.75965
1133.50 25.66411
1133.60 25.61962
1133.70 25.56352
1133.80 25.50368
1133.90 25.46839
1134.00 25.44375
1134.10 25.40566
1134.20 25.34546
1134.30 25.32083
1134.40 25.34396
1134.50 25.35464
1134.60 25.31071
1134.70 25.43929
1134.80 25.72995
1134.90 25.82092
1135.00 25.81426
1135.10 25.51492
1135.20 25.50337
1135.30 25.53627
1135.40 25.45722
1135.50 25.35929
1135.60 25.18199
1135.70 25.05776
1135.80 24.93859
1135.90 24.84024
1136.00 24.93389
1136.10 25.14774
1136.20 25.29007
1136.30 25.33247
1136.40 25.13763
1136.50 25.03256
1136.60 24.91582
1136.70 24.75672
1136.80 24.60358
1136.90 24.45671
1137.00 24.35085
1137.10 24.25291
1137.20 24.13016
1137.30 23.91836
1137.40 23.62245
1137.50 23.32318
1137.60 22.94832
1137.70 22.24604
1137.80 21.60285
1137.90 20.87495
1138.00 19.65028
1138.10 18.39899
1138.20 17.17729
1138.30 16.76582
1138.40 16.631
1138.50 16.48245
1138.60 17.0451
1138.70 18.48193
1138.80 19.82798
1138.90 21.03318
1139.00 21.63333
1139.10 22.25444
1139.20 22.79688
1139.30 22.77795
1139.40 22.75636
1139.50 22.7386
1139.60 22.51483
1139.70 22.21973
1139.80 21.94278
1139.90 21.45644
1140.00 20.66757
1140.10 19.92582
1140.20 18.98774
1140.30 17.59523
1140.40 16.2341
1140.50 14.89606
1140.60 14.74227
1140.70 14.59988
1140.80 14.51663
1140.90 15.63988
1141.00 17.21107
1141.10 18.72891
1141.20 20.00542
1141.30 20.92191
1141.40 21.82727
1141.50 22.63285
1141.60 23.08881
1141.70 23.60659
1141.80 24.05789
1141.90 24.23222
1142.00 24.37302
1142.10 24.49649
1142.20 24.51474
1142.30 24.50707
1142.40 24.56947
1142.50 24.66621
1142.60 24.82668
1142.70 24.97226
1142.80 25.1246
1142.90 25.24406
1143.00 25.37465
1143.10 25.4753
1143.20 25.49649
1143.30 25.51245
1143.40 25.54439
1143.50 25.57768
1143.60 25.60567
1143.70 25.58831
1143.80 25.46172
1143.90 25.18651
1144.00 24.90242
1144.10 24.70515
1144.20 24.72478
1144.30 24.76192
1144.40 24.79475
1144.50 24.83585
1144.60 24.90314
1144.70 24.98262
1144.80 25.09168
1144.90 25.20384
1145.00 25.28177
1145.10 25.34788
1145.20 25.38289
1145.30 25.43944
1145.40 25.47098
1145.50 25.48252
1145.60 25.49822
1145.70 25.51726
1145.80 25.55271
1145.90 25.57275
1146.00 25.58716
1146.10 25.67244
1146.20 25.78762
1146.30 25.9191
1146.40 26.04881
1146.50 26.18175
1146.60 26.27752
1146.70 26.34321
1146.80 26.24046
1146.90 26.17302
1147.00 26.06559
1147.10 25.87013
1147.20 25.66076
1147.30 25.47647
1147.40 25.48712
1147.50 25.57954
1147.60 25.7391
1147.70 25.91065
1147.80 26.09449
1147.90 26.20676
1148.00 26.2788
1148.10 26.29499
1148.20 26.31526
1148.30 26.31857
1148.40 26.11813
1148.50 25.88423
1148.60 25.66035
1148.70 25.70578
1148.80 25.85527
1148.90 25.99685
1149.00 26.10413
1149.10 26.16947
1149.20 26.32565
1149.30 26.39051
1149.40 26.32318
1149.50 26.20278
1149.60 26.11673
1149.70 26.1827
1149.80 26.2369
1149.90 26.28609
1150.00 26.24889
1150.10 26.20025
1150.20 26.20032
1150.30 26.19955
1150.40 26.21962
1150.50 26.17798
1150.60 26.18237
1150.70 26.26864
1150.80 26.33026
1150.90 26.39163
1151.00 26.37922
1151.10 26.3864
1151.20 26.40081
1151.30 26.37439
1151.40 26.34396
1151.50 26.33414
1151.60 26.32846
1151.70 26.3408
1151.80 26.33271
1151.90 26.3555
1152.00 26.39467
1152.10 26.41555
1152.20 26.39136
1152.30 26.16486
1152.40 25.96903
1152.50 25.81798
1152.60 25.80461
1152.70 25.83088
1152.80 25.81677
1152.90 25.82309
1153.00 25.83452
1153.10 25.86096
1153.20 25.85911
1153.30 25.84692
1153.40 25.8254
1153.50 25.8108
1153.60 25.91048
1153.70 25.99153
1153.80 26.07349
1153.90 26.18522
1154.00 26.30477
1154.10 26.41914
1154.20 26.44259
1154.30 26.37901
1154.40 26.39038
1154.50 26.33764
1154.60 26.15231
1154.70 25.97509
1154.80 25.7873
1154.90 25.81388
1155.00 25.80734
1155.10 25.79245
1155.20 25.87116
1155.30 25.99392
1155.40 26.13978
1155.50 26.26919
1155.60 26.3795
1155.70 26.44991
1155.80 26.50023
1155.90 26.47084
1156.00 26.48067
1156.10 26.45952
1156.20 26.45167
1156.30 26.43523
1156.40 26.43132
1156.50 26.453
1156.60 26.47859
1156.70 26.50146
1156.80 26.42218
1156.90 26.26151
1157.00 26.13669
1157.10 26.04929
1157.20 26.06936
1157.30 26.04324
1157.40 26.03098
1157.50 26.0275
1157.60 26.02715
1157.70 26.03095
1157.80 26.05736
1157.90 26.08991
1158.00 26.13457
1158.10 26.17932
1158.20 26.22071
1158.30 26.24936
1158.40 26.24673
1158.50 26.20912
1158.60 26.19528
1158.70 26.18022
1158.80 26.09641
1158.90 26.01615
1159.00 25.93799
1159.10 25.70272
1159.20 25.43745
1159.30 25.17606
1159.40 24.92694
1159.50 24.70385
1159.60 24.46244
1159.70 24.38327
1159.80 24.60298
1159.90 24.76419
1160.00 24.95529
1160.10 25.17947
1160.20 25.40406
1160.30 25.62841
1160.40 25.67827
1160.50 25.6936
1160.60 25.70438
1160.70 25.38007
1160.80 24.86217
1160.90 24.39296
1161.00 24.08742
1161.10 24.20057
1161.20 24.2516
1161.30 24.43043
1161.40 24.97987
1161.50 25.49523
1161.60 25.98305
1161.70 26.09832
1161.80 26.17759
1161.90 26.30636
1162.00 26.28815
1162.10 26.19049
1162.20 26.03806
1162.30 25.94484
1162.40 25.95794
1162.50 25.94734
1162.60 25.96914
1162.70 26.05287
1162.80 26.14535
1162.90 26.24989
1163.00 26.3362
1163.10 26.41442
1163.20 26.47594
1163.30 26.43052
1163.40 26.3348
1163.50 26.26781
1163.60 26.07053
1163.70 25.64725
1163.80 25.25589
1163.90 24.88948
1164.00 24.76185
1164.10 24.58384
1164.20 24.44441
1164.30 24.83745
1164.40 25.25828
1164.50 25.65174
1164.60 25.86327
1164.70 25.96218
1164.80 26.09343
1164.90 26.13106
1165.00 26.06254
1165.10 26.02521
1165.20 25.9566
1165.30 25.8382
1165.40 25.73176
1165.50 25.62997
1165.60 25.63629
1165.70 25.63187
1165.80 25.61848
1165.90 25.70738
1166.00 25.83917
1166.10 25.94553
1166.20 26.03659
1166.30 26.10727
1166.40 26.20729
1166.50 26.2676
1166.60 26.26834
1166.70 26.28475
1166.80 26.29934
1166.90 26.16927
1167.00 26.04189
1167.10 25.93755
1167.20 25.86947
1167.30 25.80866
1167.40 25.71908
1167.50 25.63841
1167.60 25.57418
1167.70 25.50836
1167.80 25.45494
1167.90 25.45409
1168.00 25.46151
1168.10 25.46842
1168.20 25.33304
1168.30 25.20786
1168.40 25.09584
1168.50 24.7666
1168.60 24.36592
1168.70 23.99701
1168.80 23.21213
1168.90 21.8764
1169.00 20.65887
1169.10 19.56721
1169.20 19.17358
1169.30 18.59872
1169.40 18.19063
1169.50 19.40097
1169.60 20.62623
1169.70 21.77006
1169.80 22.68056
1169.90 23.50285
1170.00 24.34852
1170.10 24.86922
1170.20 25.11273
1170.30 25.41679
1170.40 25.63076
1170.50 25.66919
1170.60 25.77542
1170.70 25.87639
1170.80 25.84938
1170.90 25.8401
1171.00 25.82978
1171.10 25.8272
1171.20 25.82991
1171.30 25.84673
1171.40 25.86489
1171.50 25.87268
1171.60 25.86485
1171.70 25.81389
1171.80 25.68079
1171.90 25.57751
1172.00 25.49176
1172.10 25.47998
1172.20 25.44672
1172.30 25.40452
1172.40 25.41881
1172.50 25.44196
1172.60 25.45452
1172.70 25.51701
1172.80 25.62941
1172.90 25.74858
1173.00 25.85252
1173.10 25.90635
1173.20 25.98492
1173.30 26.03842
1173.40 25.93746
1173.50 25.84671
1173.60 25.75924
1173.70 25.71476
1173.80 25.65904
1173.90 25.58777
1174.00 25.5843
1174.10 25.62845
1174.20 25.66448
1174.30 25.71393
1174.40 25.79103
1174.50 25.90435
1174.60 26.00104
1174.70 25.96449
1174.80 25.93703
1174.90 25.89898
1175.00 25.78644
1175.10 25.66787
1175.20 25.56764
1175.30 25.50913
1175.40 25.47388
1175.50 25.41153
1175.60 25.40081
1175.70 25.48361
1175.80 25.54584
1175.90 25.55952
1176.00 25.42797
1176.10 25.33189
1176.20 25.24021
1176.30 25.09644
1176.40 24.94702
1176.50 24.81372
1176.60 24.37602
1176.70 23.75924
1176.80 23.17705
1176.90 22.14285
1177.00 20.54946
1177.10 19.07528
1177.20 17.63383
1177.30 16.76959
1177.40 15.80678
1177.50 14.94765
1177.60 15.97255
1177.70 17.06298
1177.80 18.03431
1177.90 19.25141
1178.00 20.57515
1178.10 21.83488
1178.20 22.70357
1178.30 23.04196
1178.40 23.47189
1178.50 23.81043
1178.60 24.00013
1178.70 24.245
1178.80 24.49187
1178.90 24.68809
1179.00 24.9016
1179.10 25.13484
1179.20 25.20324
1179.30 25.21101
1179.40 25.21342
1179.50 25.18314
1179.60 25.12071
1179.70 25.04644
1179.80 24.99005
1179.90 24.99638
1180.00 25.03434
1180.10 25.10207
1180.20 25.24809
1180.30 25.37656
1180.40 25.47356
1180.50 25.47918
1180.60 25.45995
1180.70 25.45699
1180.80 25.41295
1180.90 25.34825
1181.00 25.29026
1181.10 25.23834
1181.20 25.19355
1181.30 25.15621
1181.40 25.12549
1181.50 25.08791
1181.60 25.03356
1181.70 24.97753
1181.80 24.99993
1181.90 25.0466
1182.00 25.07375
1182.10 25.11603
1182.20 25.17479
1182.30 25.26839
1182.40 25.26304
1182.50 25.07204
1182.60 24.90725
1182.70 24.72053
1182.80 24.4319
1182.90 24.13709
1183.00 23.85513
1183.10 23.92615
1183.20 24.0679
1183.30 24.20126
1183.40 24.33025
1183.50 24.44723
1183.60 24.57144
1183.70 24.62994
1183.80 24.60435
1183.90 24.58169
1184.00 24.59598
1184.10 24.87863
1184.20 25.10661
1184.30 25.31612
1184.40 25.35639
1184.50 25.38633
1184.60 25.45242
1184.70 25.33261
1184.80 25.1177
1184.90 24.9318
1185.00 24.79464
1185.10 24.78313
1185.20 24.74265
1185.30 24.74063
1185.40 24.91253
1185.50 25.04684
1185.60 25.17937
1185.70 25.20365
1185.80 25.20464
1185.90 25.20779
1186.00 25.22132
1186.10 25.25028
1186.20 25.30524
1186.30 25.346
1186.40 25.35013
1186.50 25.3395
1186.60 25.29086
1186.70 25.15192
1186.80 25.04919
1186.90 24.95332
1187.00 24.94896
1187.10 24.93877
1187.20 24.92138
1187.30 24.98348
1187.40 25.07799
1187.50 25.1305
1187.60 25.1346
1187.70 25.05525
1187.80 25.05121
1187.90 24.94527
1188.00 24.55605
1188.10 24.18593
1188.20 23.77512
1188.30 23.02113
1188.40 22.2691
1188.50 21.55171
1188.60 21.58551
1188.70 21.86835
1188.80 22.09246
1188.90 22.57869
1189.00 23.33052
1189.10 24.03068
1189.20 24.57532
1189.30 24.59831
1189.40 24.70583
1189.50 24.80402
1189.60 24.91217
1189.70 25.01196
1189.80 25.09092
1189.90 25.15867
1190.00 25.22584
1190.10 25.28416
1190.20 25.25235
1190.30 25.15038
1190.40 25.09062
1190.50 25.02312
1190.60 24.92684
1190.70 24.81497
1190.80 24.71192
1190.90 24.84197
1191.00 24.94612
1191.10 25.05691
1191.20 25.11611
1191.30 25.16293
1191.40 25.20359
1191.50 25.20634
1191.60 25.18385
1191.70 25.17046
1191.80 25.16039
1191.90 25.1698
1192.00 25.18644
1192.10 25.21244
1192.20 25.16577
1192.30 25.13023
1192.40 25.08474
1192.50 25.03137
1192.60 24.97017
1192.70 24.90233
1192.80 24.9204
1192.90 24.98821
1193.00 25.04956
1193.10 25.10182
1193.20 25.12143
1193.30 25.14213
1193.40 25.13359
1193.50 24.9708
1193.60 24.84967
1193.70 24.72118
1193.80 24.5441
1193.90 24.36216
1194.00 24.1881
1194.10 24.14791
1194.20 24.17648
1194.30 24.16101
1194.40 24.13839
1194.50 24.07713
1194.60 24.03523
1194.70 23.93702
1194.80 23.65327
1194.90 23.40946
1195.00 23.17689
1195.10 23.23195
1195.20 23.2692
1195.30 23.29429
1195.40 23.52721
1195.50 23.82106
1195.60 24.09261
1195.70 24.20425
1195.80 24.08891
1195.90 24.08203
1196.00 24.01129
1196.10 23.89471
1196.20 23.77543
1196.30 23.66177
1196.40 23.66088
1196.50 23.63994
1196.60 23.60606
1196.70 23.61073
1196.80 23.63116
1196.90 23.64796
1197.00 23.3882
1197.10 22.87671
1197.20 22.4122
1197.30 21.88168
1197.40 21.28543
1197.50 20.70909
1197.60 20.1903
1197.70 20.59985
1197.80 20.92188
1197.90 21.23918
1198.00 21.61078
1198.10 21.98831
1198.20 22.34917
1198.30 22.64564
1198.40 22.89306
1198.50 23.11693
1198.60 23.30576
1198.70 23.36518
1198.80 23.49431
1198.90 23.56382
1199.00 23.27204
1199.10 23.02756
1199.20 22.79455
1199.30 22.72374
1199.40 22.66543
1199.50 22.58203
1199.60 22.62093
1199.70 22.71765
1199.80 22.78608
1199.90 22.83591
1200.00 22.82132
