# Version 2.1 - nm, norm@500 to 1, cut digits
# Wavelength(nm)  Flambda(ergs/cm^s/s/nm)
300.00 0.008158416
300.10 0.01084854
300.20 0.01248477
300.30 0.01315873
300.40 0.01333258
300.50 0.01338188
300.60 0.0134321
300.70 0.01348353
300.80 0.01353802
300.90 0.01359949
301.00 0.01367231
301.10 0.01375843
301.20 0.01385584
301.30 0.01396002
301.40 0.01406685
301.50 0.0141742
301.60 0.01428155
301.70 0.01438888
301.80 0.01449622
301.90 0.01460355
302.00 0.01471089
302.10 0.01481822
302.20 0.01492555
302.30 0.01503289
302.40 0.01514022
302.50 0.01524754
302.60 0.01535486
302.70 0.01546258
302.80 0.01557231
302.90 0.01568718
303.00 0.01581062
303.10 0.01594415
303.20 0.01608626
303.30 0.0162335
303.40 0.01638277
303.50 0.01653242
303.60 0.01668208
303.70 0.01683172
303.80 0.01698136
303.90 0.01713101
304.00 0.01728065
304.10 0.01743029
304.20 0.01757994
304.30 0.01772958
304.40 0.01787923
304.50 0.0180289
304.60 0.01817859
304.70 0.01832707
304.80 0.01846938
304.90 0.01859598
305.00 0.01869636
305.10 0.01876586
305.20 0.01880915
305.30 0.01883671
305.40 0.01885812
305.50 0.01887831
305.60 0.01889852
305.70 0.01891875
305.80 0.01893899
305.90 0.01895923
306.00 0.01897947
306.10 0.0189997
306.20 0.01901994
306.30 0.01904018
306.40 0.01906042
306.50 0.01908066
306.60 0.0191009
306.70 0.01912114
306.80 0.0191414
306.90 0.01916168
307.00 0.01918203
307.10 0.01920244
307.20 0.01922291
307.30 0.01924342
307.40 0.01926393
307.50 0.01928445
307.60 0.01930497
307.70 0.01932549
307.80 0.01934601
307.90 0.01936653
308.00 0.01938705
308.10 0.01940757
308.20 0.01942809
308.30 0.0194486
308.40 0.0194691
308.50 0.01948956
308.60 0.01950996
308.70 0.01953339
308.80 0.01957226
308.90 0.01965046
309.00 0.01979428
309.10 0.02001537
309.20 0.02030207
309.30 0.02062811
309.40 0.02096958
309.50 0.02131408
309.60 0.02165853
309.70 0.02200294
309.80 0.02234733
309.90 0.02269172
310.00 0.0230361
310.10 0.02338049
310.20 0.02372487
310.30 0.02406927
310.40 0.02441368
310.50 0.02475812
310.60 0.02510262
310.70 0.02544408
310.80 0.02577002
310.90 0.02605642
311.00 0.02627686
311.10 0.02641962
311.20 0.02649642
311.30 0.02653368
311.40 0.02655542
311.50 0.02657411
311.60 0.02659287
311.70 0.02661166
311.80 0.02663046
311.90 0.02664927
312.00 0.02666809
312.10 0.0266869
312.20 0.02670571
312.30 0.02672452
312.40 0.0267433
312.50 0.02676204
312.60 0.02678071
312.70 0.02680314
312.80 0.02684473
312.90 0.02693516
313.00 0.02710705
313.10 0.02737489
313.20 0.02772418
313.30 0.02812232
313.40 0.02853961
313.50 0.02896067
313.60 0.02938165
313.70 0.0298026
313.80 0.03022352
313.90 0.03064443
314.00 0.03106535
314.10 0.03148626
314.20 0.03190717
314.30 0.03232807
314.40 0.03274896
314.50 0.03316982
314.60 0.03359063
314.70 0.03401406
314.80 0.03445083
314.90 0.0349216
315.00 0.03544906
315.10 0.03604332
315.20 0.03669428
315.30 0.03737923
315.40 0.03807753
315.50 0.03877844
315.60 0.0394793
315.70 0.04018013
315.80 0.04088095
315.90 0.04158176
316.00 0.04228257
316.10 0.04298339
316.20 0.0436842
316.30 0.04438504
316.40 0.04508593
316.50 0.04578693
316.60 0.04648811
316.70 0.04717967
316.80 0.0478222
316.90 0.04833976
317.00 0.04864889
317.10 0.04871252
317.20 0.04856773
317.30 0.04829796
317.40 0.04797916
317.50 0.04765074
317.60 0.0473225
317.70 0.04699437
317.80 0.0466663
317.90 0.04633825
318.00 0.0460102
318.10 0.04568215
318.20 0.0453541
318.30 0.04502603
318.40 0.04469792
318.50 0.04436972
318.60 0.04404139
318.70 0.04372043
318.80 0.04343699
318.90 0.04324922
319.00 0.043221
319.10 0.0433807
319.20 0.04369996
319.30 0.04411488
319.40 0.04456733
319.50 0.04502714
319.60 0.04548682
319.70 0.04594641
319.80 0.04640597
319.90 0.0468655
320.00 0.04732504
320.10 0.04778457
320.20 0.0482441
320.30 0.04870364
320.40 0.0491632
320.50 0.04962278
320.60 0.05008242
320.70 0.05053933
320.80 0.05098236
320.90 0.05139002
321.00 0.05173866
321.10 0.05201779
321.20 0.05223792
321.30 0.05242266
321.40 0.05259353
321.50 0.05276167
321.60 0.05292986
321.70 0.05309808
321.80 0.05326632
321.90 0.05343457
322.00 0.05360281
322.10 0.05377106
322.20 0.0539393
322.30 0.05410751
322.40 0.05427568
322.50 0.05444373
322.60 0.05461159
322.70 0.0547894
322.80 0.05501791
322.90 0.05537567
323.00 0.05594896
323.10 0.05677613
323.20 0.05781884
323.30 0.05899079
323.40 0.06021344
323.50 0.06144604
323.60 0.06267845
323.70 0.06391075
323.80 0.06514299
323.90 0.06637522
324.00 0.06760743
324.10 0.06883965
324.20 0.07007187
324.30 0.07130409
324.40 0.07253632
324.50 0.07376857
324.60 0.07500085
324.70 0.07623151
324.80 0.07745394
324.90 0.07865537
325.00 0.07982179
325.10 0.08094697
325.20 0.08203714
325.30 0.08310631
325.40 0.08416725
325.50 0.08522658
325.60 0.08628593
325.70 0.0873453
325.80 0.08840468
325.90 0.08946406
326.00 0.09052345
326.10 0.09158283
326.20 0.09264222
326.30 0.09370159
326.40 0.09476095
326.50 0.09582026
326.60 0.09687952
326.70 0.09794225
326.80 0.09902274
326.90 0.1001485
327.00 0.1013497
327.10 0.1026397
327.20 0.1040053
327.30 0.1054161
327.40 0.1068446
327.50 0.1082767
327.60 0.1097086
327.70 0.1111405
327.80 0.1125724
327.90 0.1140043
328.00 0.1154362
328.10 0.1168681
328.20 0.1183
328.30 0.119732
328.40 0.121164
328.50 0.1225963
328.60 0.124029
328.70 0.1254413
328.80 0.1267493
328.90 0.127792
329.00 0.1283918
329.10 0.1284701
329.20 0.1281056
329.30 0.1274757
329.40 0.1267416
329.50 0.125987
329.60 0.1252329
329.70 0.124479
329.80 0.1237252
329.90 0.1229714
330.00 0.1222176
330.10 0.1214639
330.20 0.1207101
330.30 0.1199563
330.40 0.1192024
330.50 0.1184484
330.60 0.1176941
330.70 0.1169549
330.80 0.116293
330.90 0.115828
331.00 0.1156915
331.10 0.1159418
331.20 0.1165206
331.30 0.1172964
331.40 0.1181493
331.50 0.1190175
331.60 0.1198854
331.70 0.1207531
331.80 0.1216207
331.90 0.1224883
332.00 0.1233559
332.10 0.1242234
332.20 0.125091
332.30 0.1259586
332.40 0.1268263
332.50 0.127694
332.60 0.128562
332.70 0.1294203
332.80 0.1302298
332.90 0.1309145
333.00 0.1313913
333.10 0.1316231
333.20 0.131647
333.30 0.1315462
333.40 0.1313965
333.50 0.1312371
333.60 0.131078
333.70 0.1309189
333.80 0.13076
333.90 0.130601
334.00 0.130442
334.10 0.130283
334.20 0.1301238
334.30 0.1299644
334.40 0.1298047
334.50 0.1296448
334.60 0.1296177
334.70 0.1300238
334.80 0.1309785
334.90 0.1319467
335.00 0.1319106
335.10 0.130592
335.20 0.1295915
335.30 0.1319023
335.40 0.1396061
335.50 0.151524
335.60 0.16309
335.70 0.1690073
335.80 0.1666658
335.90 0.1574349
336.00 0.1452024
336.10 0.1339702
336.20 0.1265284
336.30 0.1240451
336.40 0.1255704
336.50 0.1281535
336.60 0.1286106
336.70 0.1261657
336.80 0.1234392
336.90 0.1243928
337.00 0.1309364
337.10 0.141067
337.20 0.1500155
337.30 0.1535245
337.40 0.1508377
337.50 0.1451717
337.60 0.1412567
337.70 0.1418272
337.80 0.1460168
337.90 0.1509458
338.00 0.1544132
338.10 0.1558138
338.20 0.1548286
338.30 0.1504105
338.40 0.142202
338.50 0.1326299
338.60 0.126529
338.70 0.1276676
338.80 0.1352296
338.90 0.144075
339.00 0.1488701
339.10 0.1484553
339.20 0.1465601
339.30 0.1481362
339.40 0.1547988
339.50 0.1637805
339.60 0.1709253
339.70 0.1741812
339.80 0.1741252
339.90 0.171904
340.00 0.1679739
340.10 0.1628058
340.20 0.1574885
340.30 0.1528481
340.40 0.1483259
340.50 0.1425624
340.60 0.1352292
340.70 0.1277849
340.80 0.1223192
340.90 0.1200203
341.00 0.1208085
341.10 0.1239581
341.20 0.1286335
341.30 0.133853
341.40 0.1384598
341.50 0.1415699
341.60 0.143097
341.70 0.1437913
341.80 0.1446697
341.90 0.1462651
342.00 0.1481539
342.10 0.1490393
342.20 0.1475398
342.30 0.1433507
342.40 0.1378693
342.50 0.1334868
342.60 0.1319814
342.70 0.1334091
342.80 0.1363352
342.90 0.1389673
343.00 0.1402577
343.10 0.1403744
343.20 0.1403101
343.30 0.1409181
343.40 0.1421685
343.50 0.1433245
343.60 0.1437223
343.70 0.1431795
343.80 0.1418372
343.90 0.1400279
344.00 0.1383593
344.10 0.1375346
344.20 0.1377372
344.30 0.1383207
344.40 0.1383762
344.50 0.1376016
344.60 0.1365469
344.70 0.1361314
344.80 0.1370579
344.90 0.1395747
345.00 0.1435507
345.10 0.1485747
345.20 0.1539767
345.30 0.1588287
345.40 0.1620935
345.50 0.1631244
345.60 0.1622059
345.70 0.1605064
345.80 0.1592791
345.90 0.158986
346.00 0.1590906
346.10 0.1585275
346.20 0.1564453
346.30 0.1528765
346.40 0.1489526
346.50 0.1462459
346.60 0.1455191
346.70 0.1460625
346.80 0.1463537
346.90 0.1452968
347.00 0.1427871
347.10 0.1395016
347.20 0.1365637
347.30 0.1352259
347.40 0.1362849
347.50 0.1394528
347.60 0.143492
347.70 0.1471663
347.80 0.1500682
347.90 0.1526062
348.00 0.1553617
348.10 0.1584394
348.20 0.1612583
348.30 0.1629358
348.40 0.1630036
348.50 0.1618177
348.60 0.1601915
348.70 0.1586536
348.80 0.1571993
348.90 0.1556575
349.00 0.154036
349.10 0.1524791
349.20 0.1511159
349.30 0.1501321
349.40 0.1498614
349.50 0.1505164
349.60 0.1517724
349.70 0.152816
349.80 0.1530648
349.90 0.152986
350.00 0.1540407
350.10 0.1575326
350.20 0.1633594
350.30 0.1698808
350.40 0.175039
350.50 0.1776596
350.60 0.1778389
350.70 0.1763933
350.80 0.1741654
350.90 0.1716262
351.00 0.1686916
351.10 0.1647618
351.20 0.1591892
351.30 0.1521101
351.40 0.1448988
351.50 0.139507
351.60 0.1370801
351.70 0.137149
351.80 0.1381752
351.90 0.1388327
352.00 0.1387488
352.10 0.1381925
352.20 0.1374766
352.30 0.1368717
352.40 0.1369597
352.50 0.1388074
352.60 0.1433806
352.70 0.1505458
352.80 0.1586876
352.90 0.1656113
353.00 0.170159
353.10 0.17295
353.20 0.1754321
353.30 0.1784075
353.40 0.1816801
353.50 0.1848563
353.60 0.1880162
353.70 0.1914628
353.80 0.1951918
353.90 0.1988711
354.00 0.2020661
354.10 0.204212
354.20 0.2046271
354.30 0.2030386
354.40 0.2001725
354.50 0.1975067
354.60 0.1961666
354.70 0.1960947
354.80 0.1963626
354.90 0.1961449
355.00 0.1952875
355.10 0.1941221
355.20 0.1930018
355.30 0.1920901
355.40 0.1914663
355.50 0.1911648
355.60 0.1909928
355.70 0.1904096
355.80 0.1887785
355.90 0.1858966
356.00 0.182236
356.10 0.1785602
356.20 0.1752693
356.30 0.1720806
356.40 0.1683375
356.50 0.163723
356.60 0.1587782
356.70 0.1547093
356.80 0.1525458
356.90 0.1523806
357.00 0.1533771
357.10 0.1544166
357.20 0.1546835
357.30 0.1538306
357.40 0.1518768
357.50 0.1490974
357.60 0.1459433
357.70 0.1428837
357.80 0.1402149
357.90 0.1379934
358.00 0.1362016
358.10 0.1350355
358.20 0.1349809
358.30 0.1364955
358.40 0.139549
358.50 0.1434588
358.60 0.1471534
358.70 0.1496322
358.80 0.1503819
358.90 0.1496248
359.00 0.1483349
359.10 0.1478725
359.20 0.1492355
359.30 0.1523633
359.40 0.1560567
359.50 0.1587291
359.60 0.1594821
359.70 0.1586634
359.80 0.1574731
359.90 0.1569501
360.00 0.1571466
360.10 0.1571303
360.20 0.1557798
360.30 0.1526851
360.40 0.1484913
360.50 0.1445762
360.60 0.1424112
360.70 0.1429756
360.80 0.1463148
360.90 0.1514376
361.00 0.1568034
361.10 0.161199
361.20 0.1643139
361.30 0.1665017
361.40 0.168068
361.50 0.1689468
361.60 0.1691215
361.70 0.1690818
361.80 0.1695576
361.90 0.1707778
362.00 0.1721963
362.10 0.1730643
362.20 0.1731185
362.30 0.1726564
362.40 0.172176
362.50 0.1720935
362.60 0.1725473
362.70 0.1731596
362.80 0.1731033
362.90 0.17176
363.00 0.1694401
363.10 0.167291
363.20 0.1663721
363.30 0.1668651
363.40 0.1681512
363.50 0.1694592
363.60 0.1703619
363.70 0.1708175
363.80 0.1709136
363.90 0.1706148
364.00 0.1697007
364.10 0.1679188
364.20 0.16524
364.30 0.1620013
364.40 0.1588339
364.50 0.1564585
364.60 0.1554056
364.70 0.1557199
364.80 0.1568959
364.90 0.1582599
365.00 0.1595856
365.10 0.1613232
365.20 0.1640449
365.30 0.1675944
365.40 0.1708793
365.50 0.1726282
365.60 0.172439
365.70 0.1710843
365.80 0.1697662
365.90 0.1691412
366.00 0.1690737
366.10 0.1691849
366.20 0.1694485
366.30 0.1701393
366.40 0.171329
366.50 0.1726094
366.60 0.1733069
366.70 0.1729179
366.80 0.1713712
366.90 0.1689899
367.00 0.1663223
367.10 0.1639912
367.20 0.1625622
367.30 0.1623988
367.40 0.1635046
367.50 0.1654915
367.60 0.1677693
367.70 0.1698527
367.80 0.1715628
367.90 0.1729948
368.00 0.1743174
368.10 0.1755706
368.20 0.1765946
368.30 0.1771078
368.40 0.1768895
368.50 0.1759876
368.60 0.1748042
368.70 0.1739293
368.80 0.1737802
368.90 0.1743471
369.00 0.1753089
369.10 0.1764116
369.20 0.1776422
369.30 0.1789891
369.40 0.1801365
369.50 0.1805431
369.60 0.1799107
369.70 0.1785501
369.80 0.1772723
369.90 0.1769295
370.00 0.1779719
370.10 0.1802717
370.20 0.1832676
370.30 0.1862671
370.40 0.1886852
370.50 0.1901424
370.60 0.1905075
370.70 0.1900017
370.80 0.1892118
370.90 0.1888292
371.00 0.1892004
371.10 0.1900405
371.20 0.1905405
371.30 0.1897856
371.40 0.1872662
371.50 0.1832159
371.60 0.1785771
371.70 0.1745604
371.80 0.1720913
371.90 0.1715103
372.00 0.1726015
372.10 0.1746553
372.20 0.1764185
372.30 0.1763125
372.40 0.1731633
372.50 0.1671214
372.60 0.1599399
372.70 0.1541892
372.80 0.151947
372.90 0.1538882
373.00 0.1592348
373.10 0.1663212
373.20 0.1732853
373.30 0.1785725
373.40 0.1812468
373.50 0.1810577
373.60 0.1782671
373.70 0.1734
373.80 0.1671332
373.90 0.1603576
374.00 0.1541904
374.10 0.1497813
374.20 0.1480193
374.30 0.1493764
374.40 0.1539441
374.50 0.1614668
374.60 0.1712467
374.70 0.1820096
374.80 0.191985
374.90 0.1993555
375.00 0.2028808
375.10 0.2022972
375.20 0.1982741
375.30 0.1920657
375.40 0.1851257
375.50 0.1788022
375.60 0.1740166
375.70 0.1710164
375.80 0.1693904
375.90 0.1684087
376.00 0.1675284
376.10 0.1667914
376.20 0.1669092
376.30 0.1689687
376.40 0.1739016
376.50 0.1820837
376.60 0.1933254
376.70 0.2069946
376.80 0.2219293
376.90 0.2361929
377.00 0.247232
377.10 0.2527523
377.20 0.2517688
377.30 0.2449879
377.40 0.2342882
377.50 0.2218312
377.60 0.2094432
377.70 0.1984381
377.80 0.1895701
377.90 0.1829952
378.00 0.178365
378.10 0.1751274
378.20 0.1728493
378.30 0.1712975
378.40 0.1703101
378.50 0.1697535
378.60 0.1696485
378.70 0.1702407
378.80 0.1718948
378.90 0.1750196
379.00 0.180192
379.10 0.1882289
379.20 0.1998485
379.30 0.2150428
379.40 0.23269
379.50 0.2507156
379.60 0.266572
379.70 0.2777459
379.80 0.2823276
379.90 0.2796057
380.00 0.2704323
380.10 0.2569744
380.20 0.2418877
380.30 0.2274057
380.40 0.2148701
380.50 0.2047647
380.60 0.1969803
380.70 0.191042
380.80 0.1862778
380.90 0.1821095
381.00 0.178338
381.10 0.1751344
381.20 0.1726967
381.30 0.1709259
381.40 0.169522
381.50 0.1684094
381.60 0.1678889
381.70 0.1682496
381.80 0.1692161
381.90 0.1698828
382.00 0.1693577
382.10 0.1701099
382.20 0.1784095
382.30 0.2023072
382.40 0.2421981
382.50 0.2886371
382.60 0.3292075
382.70 0.3533379
382.80 0.3576168
382.90 0.3493639
383.00 0.345525
383.10 0.3551367
383.20 0.3724268
383.30 0.3936908
383.40 0.4160866
383.50 0.4349985
383.60 0.4405205
383.70 0.4226134
383.80 0.3804319
383.90 0.3295906
384.00 0.2973715
384.10 0.2995558
384.20 0.3196556
384.30 0.3220424
384.40 0.2918456
384.50 0.2495045
384.60 0.2177886
384.70 0.2060138
384.80 0.208393
384.90 0.224156
385.00 0.2531855
385.10 0.2858811
385.20 0.3076872
385.30 0.3097215
385.40 0.2932467
385.50 0.269893
385.60 0.2571696
385.70 0.2638578
385.80 0.2784725
385.90 0.2816406
386.00 0.2672946
386.10 0.2469834
386.20 0.2335655
386.30 0.2278472
386.40 0.2242655
386.50 0.2224523
386.60 0.2293981
386.70 0.2512879
386.80 0.2839546
386.90 0.3120759
387.00 0.3189782
387.10 0.3007648
387.20 0.2735487
387.30 0.263685
387.40 0.2841571
387.50 0.3182533
387.60 0.3314323
387.70 0.3053697
387.80 0.255354
387.90 0.2088626
388.00 0.17803
388.10 0.1617673
388.20 0.1639791
388.30 0.1904586
388.40 0.2315475
388.50 0.2714134
388.60 0.3145478
388.70 0.3801038
388.80 0.4657057
388.90 0.5336548
389.00 0.5451808
389.10 0.4987911
389.20 0.4248861
389.30 0.3548967
389.40 0.3024977
389.50 0.2677664
389.60 0.2470255
389.70 0.2332292
389.80 0.2361843
389.90 0.2626579
390.00 0.3093863
390.10 0.3577483
390.20 0.377824
390.30 0.3684342
390.40 0.3529285
390.50 0.3436398
390.60 0.3387955
390.70 0.3301753
390.80 0.316536
390.90 0.3021136
391.00 0.2899765
391.10 0.2831902
391.20 0.2863398
391.30 0.3069328
391.40 0.3299391
391.50 0.3412759
391.60 0.3345612
391.70 0.3101419
391.80 0.2717362
391.90 0.2280083
392.00 0.19257
392.10 0.1780559
392.20 0.1858769
392.30 0.2072709
392.40 0.2240305
392.50 0.2288718
392.60 0.2301929
392.70 0.2416101
392.80 0.274152
392.90 0.3222867
393.00 0.3819479
393.10 0.4651876
393.20 0.5875353
393.30 0.73025
393.40 0.8189468
393.50 0.7819319
393.60 0.6272321
393.70 0.4416905
393.80 0.3132113
393.90 0.2663677
394.00 0.2685928
394.10 0.2779983
394.20 0.2750393
394.30 0.2647011
394.40 0.2525933
394.50 0.2475131
394.60 0.2532567
394.70 0.2666756
394.80 0.2772683
394.90 0.2832153
395.00 0.2841658
395.10 0.2842558
395.20 0.287124
395.30 0.2948877
395.40 0.3076507
395.50 0.3242793
395.60 0.3311074
395.70 0.3103423
395.80 0.2681915
395.90 0.2303797
396.00 0.2176657
396.10 0.2224717
396.20 0.2238741
396.30 0.2205321
396.40 0.2326801
396.50 0.2889343
396.60 0.4072511
396.70 0.5827001
396.80 0.7789271
396.90 0.9287214
397.00 0.9663766
397.10 0.8771004
397.20 0.7128117
397.30 0.5524209
397.40 0.4469249
397.50 0.3969403
397.60 0.3777537
397.70 0.3712858
397.80 0.3715185
397.90 0.3728022
398.00 0.3669579
398.10 0.3525531
398.20 0.339818
398.30 0.3401004
398.40 0.351767
398.50 0.3622918
398.60 0.3636006
398.70 0.3598588
398.80 0.3592596
398.90 0.3548154
399.00 0.3456827
399.10 0.3457394
399.20 0.3722023
399.30 0.4207645
399.40 0.4616128
399.50 0.4662438
399.60 0.4343268
399.70 0.3891104
399.80 0.3543168
399.90 0.3394533
400.00 0.339358
400.10 0.345601
400.20 0.3529781
400.30 0.3576692
400.40 0.355059
400.50 0.3448292
400.60 0.3351353
400.70 0.3365528
400.80 0.3576394
400.90 0.3948336
401.00 0.4277877
401.10 0.4360792
401.20 0.4137691
401.30 0.3783979
401.40 0.3518831
401.50 0.3407626
401.60 0.3355728
401.70 0.3278869
401.80 0.3150716
401.90 0.3065494
402.00 0.3102347
402.10 0.3245831
402.20 0.3409778
402.30 0.3492459
402.40 0.3454592
402.50 0.337334
402.60 0.3369822
402.70 0.3457933
402.80 0.349145
402.90 0.3305864
403.00 0.2913623
403.10 0.2504325
403.20 0.2249462
403.30 0.2182974
403.40 0.2261184
403.50 0.2462371
403.60 0.2772443
403.70 0.314033
403.80 0.3495164
403.90 0.3811839
404.00 0.4102384
404.10 0.4354091
404.20 0.4534093
404.30 0.4578073
404.40 0.4397448
404.50 0.3957139
404.60 0.3380012
404.70 0.2902485
404.80 0.2668123
404.90 0.2617352
405.00 0.2607759
405.10 0.2598191
405.20 0.2682194
405.30 0.2944979
405.40 0.3328604
405.50 0.3665839
405.60 0.3821342
405.70 0.3791596
405.80 0.3680283
405.90 0.3580338
406.00 0.3510713
406.10 0.3440199
406.20 0.3345831
406.30 0.3267536
406.40 0.3283804
406.50 0.3410098
406.60 0.3547872
406.70 0.353444
406.80 0.3284901
406.90 0.2876309
407.00 0.2495476
407.10 0.2305314
407.20 0.2346365
407.30 0.2483769
407.40 0.2547757
407.50 0.2508504
407.60 0.2428602
407.70 0.2427992
407.80 0.2562362
407.90 0.2783692
408.00 0.2998259
408.10 0.315488
408.20 0.3262089
408.30 0.3340784
408.40 0.3386542
408.50 0.3393608
408.60 0.3381869
408.70 0.3364275
408.80 0.3314916
408.90 0.3204371
409.00 0.3064365
409.10 0.296973
409.20 0.2959057
409.30 0.2998411
409.40 0.3023136
409.50 0.3016407
409.60 0.3013304
409.70 0.3064962
409.80 0.3234493
409.90 0.3611192
410.00 0.4262764
410.10 0.5089997
410.20 0.5736725
410.30 0.5772885
410.40 0.506238
410.50 0.3938495
410.60 0.2964958
410.70 0.2530079
410.80 0.2532554
410.90 0.2703146
411.00 0.2825635
411.10 0.2832592
411.20 0.2765019
411.30 0.2701325
411.40 0.2703391
411.50 0.2755559
411.60 0.2794557
411.70 0.2711842
411.80 0.2483594
411.90 0.2267977
412.00 0.2242171
412.10 0.2443999
412.20 0.2750255
412.30 0.3005887
412.40 0.3135704
412.50 0.3157866
412.60 0.3122216
412.70 0.3067931
412.80 0.3016808
412.90 0.296169
413.00 0.2879912
413.10 0.2774664
413.20 0.2683309
413.30 0.2632103
413.40 0.2593317
413.50 0.2519766
413.60 0.242053
413.70 0.2367886
413.80 0.2430273
413.90 0.2615687
414.00 0.2860339
414.10 0.3052002
414.20 0.3115628
414.30 0.2971733
414.40 0.2675693
414.50 0.2364411
414.60 0.2162522
414.70 0.2101951
414.80 0.2159825
414.90 0.2245637
415.00 0.2322951
415.10 0.2471169
415.20 0.2745489
415.30 0.3072816
415.40 0.3329662
415.50 0.3404639
415.60 0.3271904
415.70 0.3013708
415.80 0.2774948
415.90 0.2682785
416.00 0.277594
416.10 0.2967641
416.20 0.3140995
416.30 0.3250947
416.40 0.3327898
416.50 0.3399337
416.60 0.3467872
416.70 0.3440304
416.80 0.3296699
416.90 0.3089241
417.00 0.2889577
417.10 0.2722936
417.20 0.2541842
417.30 0.2381244
417.40 0.2306794
417.50 0.2342256
417.60 0.243349
417.70 0.2506743
417.80 0.2545825
417.90 0.2627471
418.00 0.2795991
418.10 0.307066
418.20 0.3358157
418.30 0.3516744
418.40 0.3500272
418.50 0.3404071
418.60 0.3384315
418.70 0.3423486
418.80 0.3432322
418.90 0.3338321
419.00 0.3160867
419.10 0.2971709
419.20 0.2816072
419.30 0.2694781
419.40 0.260877
419.50 0.2579225
419.60 0.2613473
419.70 0.2683182
419.80 0.274597
419.90 0.2783531
420.00 0.2791474
420.10 0.2757395
420.20 0.2669953
420.30 0.2548789
420.40 0.2403025
420.50 0.2229074
420.60 0.2051088
420.70 0.1904947
420.80 0.1832521
420.90 0.1826454
421.00 0.1905379
421.10 0.2081904
421.20 0.2313148
421.30 0.2519388
421.40 0.2652588
421.50 0.2732477
421.60 0.2774433
421.70 0.2742295
421.80 0.2598161
421.90 0.2374813
422.00 0.2153539
422.10 0.1981681
422.20 0.1842267
422.30 0.1698481
422.40 0.1540478
422.50 0.1370847
422.60 0.1190656
422.70 0.1056114
422.80 0.09973811
422.90 0.1078734
423.00 0.1273763
423.10 0.1460582
423.20 0.1527471
423.30 0.1484954
423.40 0.1452223
423.50 0.1552696
423.60 0.1773949
423.70 0.1970225
423.80 0.207174
423.90 0.2128761
424.00 0.2230631
424.10 0.2392673
424.20 0.2543407
424.30 0.2605074
424.40 0.2581176
424.50 0.2518396
424.60 0.2459085
424.70 0.2425006
424.80 0.2440365
424.90 0.2498006
425.00 0.2583004
425.10 0.2649211
425.20 0.2637909
425.30 0.2537147
425.40 0.2400467
425.50 0.2296621
425.60 0.2244314
425.70 0.2197773
425.80 0.2103169
425.90 0.1974059
426.00 0.1897028
426.10 0.1941241
426.20 0.2070164
426.30 0.2188114
426.40 0.226097
426.50 0.2342333
426.60 0.2464418
426.70 0.2573003
426.80 0.2616547
426.90 0.2640309
427.00 0.2713015
427.10 0.277974
427.20 0.2773611
427.30 0.2652271
427.40 0.2432873
427.50 0.2190148
427.60 0.2044204
427.70 0.2092779
427.80 0.2328562
427.90 0.2619858
428.00 0.2837002
428.10 0.2926575
428.20 0.2907855
428.30 0.2846574
428.40 0.2819223
428.50 0.2851567
428.60 0.2869906
428.70 0.2780097
428.80 0.2575711
428.90 0.2343284
429.00 0.217913
429.10 0.214875
429.20 0.2232034
429.30 0.2379284
429.40 0.2540874
429.50 0.2688648
429.60 0.284182
429.70 0.3017222
429.80 0.3159783
429.90 0.3168783
430.00 0.3012047
430.10 0.2795544
430.20 0.2696241
430.30 0.2805346
430.40 0.3035122
430.50 0.319709
430.60 0.3164661
430.70 0.2965041
430.80 0.2730564
430.90 0.2570675
431.00 0.2506526
431.10 0.2510171
431.20 0.2554407
431.30 0.2612794
431.40 0.2637574
431.50 0.2580269
431.60 0.2471557
431.70 0.2413055
431.80 0.2487736
431.90 0.2695939
432.00 0.2949346
432.10 0.314511
432.20 0.3216633
432.30 0.3193618
432.40 0.314604
432.50 0.3115302
432.60 0.3084826
432.70 0.3033299
432.80 0.298523
432.90 0.2985805
433.00 0.3058689
433.10 0.3199058
433.20 0.3392417
433.30 0.3585422
433.40 0.3700061
433.50 0.3740266
433.60 0.3829982
433.70 0.41867
433.80 0.5037742
433.90 0.6340969
434.00 0.7738659
434.10 0.8636591
434.20 0.8588872
434.30 0.7640817
434.40 0.6297662
434.50 0.5152679
434.60 0.4510897
434.70 0.4299534
434.80 0.4242913
434.90 0.4101647
435.00 0.3803161
435.10 0.3415847
435.20 0.3058724
435.30 0.2834739
435.40 0.2789682
435.50 0.2887556
435.60 0.3029881
435.70 0.3115245
435.80 0.3121521
435.90 0.3108442
436.00 0.3130211
436.10 0.3163215
436.20 0.3159285
436.30 0.3086792
436.40 0.3059315
436.50 0.3164785
436.60 0.3334898
436.70 0.3449135
436.80 0.3459515
436.90 0.3420264
437.00 0.3392854
437.10 0.3379946
437.20 0.3351803
437.30 0.3291835
437.40 0.3214025
437.50 0.3159296
437.60 0.3165339
437.70 0.3224551
437.80 0.3268554
437.90 0.32241
438.00 0.3107129
438.10 0.3015152
438.20 0.3035915
438.30 0.318333
438.40 0.3426562
438.50 0.3713426
438.60 0.395764
438.70 0.4053697
438.80 0.3946476
438.90 0.3694963
439.00 0.3452306
439.10 0.3341545
439.20 0.3371164
439.30 0.3462042
439.40 0.3551151
439.50 0.3655858
439.60 0.3818179
439.70 0.4007408
439.80 0.4121361
439.90 0.4114305
440.00 0.4029207
440.10 0.3957681
440.20 0.3936713
440.30 0.392522
440.40 0.3897214
440.50 0.3827376
440.60 0.3759255
440.70 0.3731761
440.80 0.3744826
440.90 0.380991
441.00 0.3890955
441.10 0.3971736
441.20 0.4044446
441.30 0.4112265
441.40 0.4189813
441.50 0.4290857
441.60 0.4418323
441.70 0.4565905
441.80 0.4706987
441.90 0.4789795
442.00 0.4769865
442.10 0.4659326
442.20 0.4529269
442.30 0.444708
442.40 0.4423983
442.50 0.4426048
442.60 0.4419773
442.70 0.4399072
442.80 0.438315
442.90 0.4410719
443.00 0.4521054
443.10 0.4705518
443.20 0.487395
443.30 0.490582
443.40 0.4772673
443.50 0.459923
443.60 0.455592
443.70 0.470563
443.80 0.5017028
443.90 0.5354368
444.00 0.5610812
444.10 0.5725837
444.20 0.5699719
444.30 0.5607227
444.40 0.5547397
444.50 0.5559271
444.60 0.5611021
444.70 0.5669905
444.80 0.5746625
444.90 0.5859571
445.00 0.5988311
445.10 0.6073868
445.20 0.605481
445.30 0.5894572
445.40 0.5607329
445.50 0.5284407
445.60 0.5057636
445.70 0.5016929
445.80 0.5128515
445.90 0.528216
446.00 0.5393674
446.10 0.5460749
446.20 0.5520605
446.30 0.5579599
446.40 0.5607816
446.50 0.558787
446.60 0.5553775
446.70 0.5570542
446.80 0.5679449
446.90 0.5874293
447.00 0.6121468
447.10 0.6385395
447.20 0.6628606
447.30 0.6798623
447.40 0.6833495
447.50 0.6698504
447.60 0.6438585
447.70 0.6184551
447.80 0.6080702
447.90 0.6178029
448.00 0.6410851
448.10 0.6606306
448.20 0.6705256
448.30 0.6772346
448.40 0.6850241
448.50 0.694994
448.60 0.7038416
448.70 0.7094611
448.80 0.7133356
448.90 0.7174886
449.00 0.7218068
449.10 0.7247226
449.20 0.7245525
449.30 0.7197906
449.40 0.7098808
449.50 0.6977618
449.60 0.6904652
449.70 0.6940706
449.80 0.7086921
449.90 0.7292862
450.00 0.7493064
450.10 0.762553
450.20 0.7643347
450.30 0.7542664
450.40 0.7379964
450.50 0.7231403
450.60 0.71333
450.70 0.7082317
450.80 0.707266
450.90 0.7098701
451.00 0.7127596
451.10 0.7113252
451.20 0.7061574
451.30 0.704326
451.40 0.7109493
451.50 0.7223362
451.60 0.7306393
451.70 0.7344643
451.80 0.7410965
451.90 0.7571601
452.00 0.7800667
452.10 0.8003827
452.20 0.8108183
452.30 0.8115362
452.40 0.8076285
452.50 0.8029162
452.60 0.7973871
452.70 0.7900103
452.80 0.7823095
452.90 0.7777783
453.00 0.7772296
453.10 0.7759651
453.20 0.7675664
453.30 0.7508669
453.40 0.7323892
453.50 0.722364
453.60 0.7289422
453.70 0.7547263
453.80 0.7961143
453.90 0.8436972
454.00 0.8851825
454.10 0.9113798
454.20 0.9202091
454.30 0.9144606
454.40 0.8968285
454.50 0.8691507
454.60 0.835351
454.70 0.8024951
454.80 0.7768561
454.90 0.7601936
455.00 0.7508075
455.10 0.7467689
455.20 0.7480271
455.30 0.7558993
455.40 0.7709644
455.50 0.7916596
455.60 0.8155691
455.70 0.8417242
455.80 0.8703958
455.90 0.8999937
456.00 0.9262009
456.10 0.9459508
456.20 0.9605026
456.30 0.9737017
456.40 0.9883296
456.50 1.005505
456.60 1.025654
456.70 1.046898
456.80 1.063935
456.90 1.07253
457.00 1.076071
457.10 1.084195
457.20 1.102263
457.30 1.123364
457.40 1.132911
457.50 1.121474
457.60 1.092498
457.70 1.058439
457.80 1.031029
457.90 1.01522
458.00 1.009564
458.10 1.008865
458.20 1.004912
458.30 0.9872273
458.40 0.9486714
458.50 0.8921842
458.60 0.8304283
458.70 0.7777961
458.80 0.7431613
458.90 0.7294976
459.00 0.735748
459.10 0.7558393
459.20 0.7788274
459.30 0.7955604
459.40 0.8066314
459.50 0.820732
459.60 0.8437338
459.70 0.8710994
459.80 0.8921262
459.90 0.9006773
460.00 0.9000708
460.10 0.8986784
460.20 0.902647
460.30 0.9105888
460.40 0.9133201
460.50 0.900523
460.60 0.8719381
460.70 0.8437167
460.80 0.8407841
460.90 0.8785216
461.00 0.9496329
461.10 1.028416
461.20 1.088866
461.30 1.121944
461.40 1.137631
461.50 1.151316
461.60 1.168512
461.70 1.182875
461.80 1.187366
461.90 1.18353
462.00 1.179149
462.10 1.179432
462.20 1.181963
462.30 1.177707
462.40 1.154251
462.50 1.101265
462.60 1.01964
462.70 0.9264476
462.80 0.8472809
462.90 0.8011649
463.00 0.7917151
463.10 0.8100167
463.20 0.8416746
463.30 0.8712463
463.40 0.8864654
463.50 0.8842845
463.60 0.8717079
463.70 0.8588014
463.80 0.8510726
463.90 0.8487195
464.00 0.8514747
464.10 0.8612276
464.20 0.8791748
464.30 0.9014901
464.40 0.9190688
464.50 0.9231667
464.60 0.9137067
464.70 0.9008881
464.80 0.8962593
464.90 0.9019896
465.00 0.9110028
465.10 0.9179116
465.20 0.9260869
465.30 0.9416645
465.40 0.9634584
465.50 0.9831036
465.60 0.9954286
465.70 1.005902
465.80 1.025497
465.90 1.058674
466.00 1.09748
466.10 1.128498
466.20 1.145499
466.30 1.154314
466.40 1.164869
466.50 1.177391
466.60 1.177673
466.70 1.147711
466.80 1.081636
466.90 0.9914785
467.00 0.8985031
467.10 0.8202938
467.20 0.7658268
467.30 0.7376764
467.40 0.7331729
467.50 0.7447128
467.60 0.762263
467.70 0.7779751
467.80 0.7878138
467.90 0.7901239
468.00 0.7861704
468.10 0.7821627
468.20 0.786732
468.30 0.8040877
468.40 0.8311666
468.50 0.8624114
468.60 0.8949516
468.70 0.9266687
468.80 0.9528458
468.90 0.9683032
469.00 0.9724204
469.10 0.9698801
469.20 0.9663802
469.30 0.9654171
469.40 0.9687285
469.50 0.9771787
469.60 0.9903736
469.70 1.006399
469.80 1.022675
469.90 1.037806
470.00 1.052915
470.10 1.070234
470.20 1.089277
470.30 1.104258
470.40 1.106993
470.50 1.093709
470.60 1.06889
470.70 1.042276
470.80 1.023197
470.90 1.017433
471.00 1.025506
471.10 1.040384
471.20 1.048147
471.30 1.036354
471.40 1.004882
471.50 0.9668809
471.60 0.938328
471.70 0.9279653
471.80 0.9358963
471.90 0.9576301
472.00 0.986328
472.10 1.014182
472.20 1.036226
472.30 1.053281
472.40 1.06918
472.50 1.084479
472.60 1.094101
472.70 1.092772
472.80 1.082923
472.90 1.075087
473.00 1.078912
473.10 1.093544
473.20 1.108424
473.30 1.114264
473.40 1.111187
473.50 1.105735
473.60 1.102601
473.70 1.10202
473.80 1.103679
473.90 1.108536
474.00 1.116169
474.10 1.12387
474.20 1.130701
474.30 1.139842
474.40 1.154305
474.50 1.171701
474.60 1.185891
474.70 1.193799
474.80 1.198585
474.90 1.205953
475.00 1.218235
475.10 1.232215
475.20 1.242587
475.30 1.247504
475.40 1.24972
475.50 1.251196
475.60 1.246903
475.70 1.225616
475.80 1.177353
475.90 1.09936
476.00 0.9969361
476.10 0.8826032
476.20 0.7747339
476.30 0.6921453
476.40 0.6455619
476.50 0.6276665
476.60 0.6222136
476.70 0.6187245
476.80 0.6153284
476.90 0.6164815
477.00 0.6241069
477.10 0.633488
477.20 0.639548
477.30 0.644751
477.40 0.6585174
477.50 0.6876059
477.60 0.727123
477.70 0.7622301
477.80 0.7797112
477.90 0.7785312
478.00 0.7696168
478.10 0.7658539
478.20 0.7726074
478.30 0.7864522
478.40 0.8007441
478.50 0.8121791
478.60 0.8231145
478.70 0.8374041
478.80 0.8546054
478.90 0.8699291
479.00 0.8805988
479.10 0.8900719
479.20 0.903196
479.30 0.9190198
479.40 0.9321383
479.50 0.9405723
479.60 0.9490165
479.70 0.9637098
479.80 0.9857958
479.90 1.010265
480.00 1.029149
480.10 1.034524
480.20 1.02061
480.30 0.9862238
480.40 0.9353015
480.50 0.873911
480.60 0.807673
480.70 0.7431803
480.80 0.6911466
480.90 0.6637772
481.00 0.665484
481.10 0.6872936
481.20 0.7137596
481.30 0.7355748
481.40 0.7540401
481.50 0.7734452
481.60 0.792167
481.70 0.8044301
481.80 0.8086634
481.90 0.8110157
482.00 0.8204017
482.10 0.8417455
482.20 0.8732244
482.30 0.9073703
482.40 0.9338476
482.50 0.9447737
482.60 0.9407724
482.70 0.9307246
482.80 0.9236801
482.90 0.9206218
483.00 0.9160575
483.10 0.9075312
483.20 0.901208
483.30 0.9063417
483.40 0.9255497
483.50 0.9528037
483.60 0.9808517
483.70 1.008316
483.80 1.036902
483.90 1.062254
484.00 1.071492
484.10 1.052988
484.20 1.008957
484.30 0.9577574
484.40 0.9223546
484.50 0.9136881
484.60 0.9222844
484.70 0.9258051
484.80 0.9071929
484.90 0.8672726
485.00 0.8209266
485.10 0.7840762
485.20 0.7663106
485.30 0.7710644
485.40 0.7949714
485.50 0.8256996
485.60 0.8491805
485.70 0.8694649
485.80 0.9228377
485.90 1.059862
486.00 1.293801
486.10 1.559
486.20 1.73445
486.30 1.729603
486.40 1.556028
486.50 1.313397
486.60 1.107105
486.70 0.9829256
486.80 0.9287723
486.90 0.914538
487.00 0.9194738
487.10 0.9343679
487.20 0.9552269
487.30 0.9792965
487.40 1.001905
487.50 1.01527
487.60 1.013421
487.70 0.9990815
487.80 0.9834397
487.90 0.9771199
488.00 0.9816879
488.10 0.9910019
488.20 0.9992188
488.30 1.005753
488.40 1.013417
488.50 1.024396
488.60 1.039098
488.70 1.056517
488.80 1.073936
488.90 1.087785
489.00 1.096056
489.10 1.099398
489.20 1.100129
489.30 1.100501
489.40 1.101865
489.50 1.104837
489.60 1.108759
489.70 1.111268
489.80 1.109979
489.90 1.105383
490.00 1.101928
490.10 1.105996
490.20 1.121922
490.30 1.149246
490.40 1.183519
490.50 1.219442
490.60 1.254307
490.70 1.288282
490.80 1.32077
490.90 1.348243
491.00 1.36766
491.10 1.380321
491.20 1.38951
491.30 1.394869
491.40 1.392409
491.50 1.381683
491.60 1.369745
491.70 1.365703
491.80 1.372878
491.90 1.38816
492.00 1.407775
492.10 1.430096
492.20 1.453119
492.30 1.473403
492.40 1.490015
492.50 1.50741
492.60 1.530944
492.70 1.559712
492.80 1.58636
492.90 1.603752
493.00 1.609813
493.10 1.607419
493.20 1.601704
493.30 1.597703
493.40 1.598574
493.50 1.604017
493.60 1.611276
493.70 1.617753
493.80 1.622482
493.90 1.626401
494.00 1.632588
494.10 1.645803
494.20 1.670206
494.30 1.7054
494.40 1.744592
494.50 1.778659
494.60 1.803608
494.70 1.824687
494.80 1.851322
494.90 1.886196
495.00 1.919096
495.10 1.929073
495.20 1.890354
495.30 1.779775
495.40 1.58842
495.50 1.335229
495.60 1.068578
495.70 0.845783
495.80 0.7036621
495.90 0.6436254
496.00 0.6392314
496.10 0.6562922
496.20 0.670698
496.30 0.6764606
496.40 0.6827496
496.50 0.7026422
496.60 0.7423561
496.70 0.7987638
496.80 0.8632445
496.90 0.9255687
497.00 0.9758232
497.10 1.0072
497.20 1.020431
497.30 1.024806
497.40 1.032119
497.50 1.047825
497.60 1.067426
497.70 1.081604
497.80 1.084234
497.90 1.074558
498.00 1.054402
498.10 1.027591
498.20 1.003111
498.30 0.9952786
498.40 1.015044
498.50 1.058882
498.60 1.109073
498.70 1.147828
498.80 1.17106
498.90 1.18739
499.00 1.204952
499.10 1.221703
499.20 1.230108
499.30 1.228638
499.40 1.225826
499.50 1.231774
499.60 1.234924
499.70 1.18938
499.80 1.041109
499.90 0.7815905
500.00 1
500.10 0.906151
500.20 0.8689818
500.30 0.8554259
500.40 0.8628375
500.50 0.8810195
500.60 0.8991463
500.70 0.9127073
500.80 0.8947188
500.90 0.8506557
501.00 0.9217504
501.10 0.966166
501.20 0.9652711
501.30 0.9610041
501.40 0.955855
501.50 0.8765099
501.60 0.8731305
501.70 0.9282514
501.80 0.9599129
501.90 1.035894
502.00 1.072949
502.10 1.064718
502.20 1.083233
502.30 1.059584
502.40 1.025254
502.50 1.009054
502.60 1.072008
502.70 1.099746
502.80 1.144786
502.90 1.128363
503.00 1.124675
503.10 1.129976
503.20 1.180621
503.30 1.197546
503.40 1.199778
503.50 1.20025
503.60 1.217277
503.70 1.177627
503.80 1.215365
503.90 1.211953
504.00 1.18574
504.10 1.183699
504.20 1.230463
504.30 1.255847
504.40 1.282516
504.50 1.31418
504.60 1.412489
504.70 1.460077
504.80 1.410755
504.90 1.349001
505.00 1.267682
505.10 1.193328
505.20 1.203138
505.30 1.237636
505.40 1.276272
505.50 1.25429
505.60 1.227019
505.70 1.217501
505.80 1.232248
505.90 1.283912
506.00 1.332517
506.10 1.309129
506.20 1.281865
506.30 1.313884
506.40 1.373669
506.50 1.323889
506.60 1.251376
506.70 1.251866
506.80 1.336957
506.90 1.353794
507.00 1.361223
507.10 1.365314
507.20 1.330335
507.30 1.296721
507.40 1.339986
507.50 1.434335
507.60 1.487684
507.70 1.409765
507.80 1.381185
507.90 1.488295
508.00 1.453121
508.10 1.338586
508.20 1.29419
508.30 1.315251
508.40 1.240981
508.50 1.238735
508.60 1.417261
508.70 1.487768
508.80 1.494969
508.90 1.427845
509.00 1.315975
509.10 1.358351
509.20 1.499743
509.30 1.50601
509.40 1.455967
509.50 1.376844
509.60 1.28411
509.70 1.330652
509.80 1.393199
509.90 1.461448
510.00 1.384303
510.10 1.329544
510.20 1.313795
510.30 1.284937
510.40 1.287178
510.50 1.31922
510.60 1.28354
510.70 1.285231
510.80 1.321006
510.90 1.333732
511.00 1.349337
511.10 1.361247
511.20 1.337514
511.30 1.351214
511.40 1.412204
511.50 1.46736
511.60 1.552201
511.70 1.610843
511.80 1.596318
511.90 1.521959
512.00 1.472867
512.10 1.44282
512.20 1.425401
512.30 1.452355
512.40 1.441204
512.50 1.383409
512.60 1.34243
512.70 1.344489
512.80 1.331729
512.90 1.302295
513.00 1.318898
513.10 1.346939
513.20 1.4196
513.30 1.56415
513.40 1.611111
513.50 1.510358
513.60 1.507372
513.70 1.563771
513.80 1.649102
513.90 1.671668
514.00 1.606479
514.10 1.485636
514.20 1.499288
514.30 1.511274
514.40 1.484379
514.50 1.466521
514.60 1.408791
514.70 1.349145
514.80 1.388589
514.90 1.473296
515.00 1.467408
515.10 1.425897
515.20 1.439287
515.30 1.389793
515.40 1.275997
515.50 1.253974
515.60 1.272839
515.70 1.450067
515.80 1.657786
515.90 1.737149
516.00 1.756853
516.10 1.793863
516.20 1.901905
516.30 1.941797
516.40 1.876498
516.50 1.90292
516.60 1.817637
516.70 1.459708
516.80 0.9980562
516.90 0.6938901
517.00 0.5966932
517.10 0.6198006
517.20 0.5770968
517.30 0.5700306
517.40 0.5856359
517.50 0.6147132
517.60 0.6903767
517.70 0.7105361
517.80 0.6914857
517.90 0.7361681
518.00 0.7001697
518.10 0.6660398
518.20 0.6942285
518.30 0.7257248
518.40 0.734071
518.50 0.8070354
518.60 0.969306
518.70 1.108173
518.80 1.119135
518.90 1.128177
519.00 1.148999
519.10 1.155045
519.20 1.157192
519.30 1.13476
519.40 1.121343
519.50 1.164609
519.60 1.195101
519.70 1.251352
519.80 1.355552
519.90 1.390515
520.00 1.2877
520.10 1.185382
520.20 1.157864
520.30 1.190079
520.40 1.160274
520.50 1.040546
520.60 0.9012765
520.70 0.8430406
520.80 0.8599992
520.90 0.8716727
521.00 0.8528028
521.10 0.8919773
521.20 1.118721
521.30 1.425191
521.40 1.639745
521.50 1.655002
521.60 1.610299
521.70 1.60584
521.80 1.627966
521.90 1.646781
522.00 1.695551
522.10 1.692567
522.20 1.760386
522.30 1.790368
522.40 1.744168
522.50 1.738529
522.60 1.698892
522.70 1.637965
522.80 1.660674
522.90 1.709433
523.00 1.831445
523.10 1.955222
523.20 1.954621
523.30 1.856917
523.40 1.787708
523.50 1.709756
523.60 1.814006
523.70 1.883687
523.80 1.870627
523.90 1.884514
524.00 1.921893
524.10 1.763567
524.20 1.548905
524.30 1.471525
524.40 1.494564
524.50 1.608884
524.60 1.642014
524.70 1.578071
524.80 1.524051
524.90 1.603493
525.00 1.656298
525.10 1.589853
525.20 1.57053
525.30 1.659196
525.40 1.784706
525.50 1.82673
525.60 1.787839
525.70 1.819519
525.80 1.913177
525.90 1.931263
526.00 1.862936
526.10 1.724891
526.20 1.64202
526.30 1.599755
526.40 1.583282
526.50 1.535238
526.60 1.494771
526.70 1.474477
526.80 1.564695
526.90 1.535161
527.00 1.355305
527.10 1.273773
527.20 1.441618
527.30 1.652527
527.40 1.792822
527.50 1.845923
527.60 1.849824
527.70 1.836165
527.80 1.838676
527.90 1.840836
528.00 1.862126
528.10 1.807264
528.20 1.745219
528.30 1.766925
528.40 1.831584
528.50 1.841031
528.60 1.905296
528.70 1.984862
528.80 2.070387
528.90 2.018135
529.00 1.984306
529.10 1.985161
529.20 1.955002
529.30 1.96983
529.40 1.991982
529.50 2.042744
529.60 2.064079
529.70 2.02443
529.80 1.919038
529.90 1.840636
530.00 1.7985
530.10 1.872987
530.20 1.949206
530.30 2.060731
530.40 2.147464
530.50 2.178333
530.60 2.164677
530.70 2.181056
530.80 2.038801
530.90 1.914058
531.00 1.914863
531.10 1.896135
531.20 1.879627
531.30 1.881244
531.40 1.909696
531.50 1.921863
531.60 1.982366
531.70 2.016892
531.80 1.993545
531.90 1.976082
532.00 1.955969
532.10 1.964339
532.20 1.972365
532.30 2.014608
532.40 2.00069
532.50 1.96846
532.60 1.994263
532.70 1.974214
532.80 1.840723
532.90 1.668755
533.00 1.631983
533.10 1.797311
533.20 1.949626
533.30 1.997573
533.40 1.97399
533.50 1.947552
533.60 1.936401
533.70 1.91465
533.80 1.95394
533.90 1.994339
534.00 2.005314
534.10 1.991047
534.20 1.990069
534.30 1.976606
534.40 2.0168
534.50 2.066762
534.60 2.087783
534.70 1.990352
534.80 1.957676
534.90 2.00726
535.00 2.082301
535.10 2.166384
535.20 2.334016
535.30 2.446859
535.40 2.433828
535.50 2.434508
535.60 2.409298
535.70 2.387972
535.80 2.331193
535.90 2.20523
536.00 2.072014
536.10 2.066202
536.20 2.086864
536.30 2.1282
536.40 2.14419
536.50 2.138571
536.60 2.081122
536.70 2.100106
536.80 2.149266
536.90 2.18676
537.00 2.156606
537.10 2.054103
537.20 1.955147
537.30 1.987149
537.40 2.084073
537.50 2.204368
537.60 2.296831
537.70 2.323052
537.80 2.342008
537.90 2.361022
538.00 2.43134
538.10 2.492929
538.20 2.487171
538.30 2.443499
538.40 2.440915
538.50 2.417871
538.60 2.396676
538.70 2.443064
538.80 2.493727
538.90 2.516446
539.00 2.538236
539.10 2.505923
539.20 2.461352
539.30 2.381035
539.40 2.358451
539.50 2.335209
539.60 2.315175
539.70 2.253353
539.80 2.206213
539.90 2.285406
540.00 2.472447
540.10 2.634596
540.20 2.692627
540.30 2.716134
540.40 2.679082
540.50 2.54504
540.60 2.357663
540.70 2.253619
540.80 2.293357
540.90 2.39219
541.00 2.357762
541.10 2.228781
541.20 2.233269
541.30 2.299127
541.40 2.360742
541.50 2.442402
541.60 2.569601
541.70 2.604092
541.80 2.556282
541.90 2.607578
542.00 2.667442
542.10 2.65123
542.20 2.618201
542.30 2.608428
542.40 2.576021
542.50 2.587063
542.60 2.579004
542.70 2.586598
542.80 2.667118
542.90 2.651424
543.00 2.486202
543.10 2.362224
543.20 2.347628
543.30 2.350057
543.40 2.394675
543.50 2.418802
543.60 2.432718
543.70 2.571686
543.80 2.69366
543.90 2.693995
544.00 2.712294
544.10 2.817158
544.20 2.956336
544.30 3.016735
544.40 3.03741
544.50 3.004652
544.60 2.876975
544.70 2.557374
544.80 2.167387
544.90 1.790394
545.00 1.498709
545.10 1.344331
545.20 1.26082
545.30 1.230269
545.40 1.268302
545.50 1.32791
545.60 1.322606
545.70 1.29853
545.80 1.334524
545.90 1.367368
546.00 1.378915
546.10 1.415236
546.20 1.44066
546.30 1.551332
546.40 1.595554
546.50 1.623657
546.60 1.659743
546.70 1.778924
546.80 1.884756
546.90 1.857049
547.00 1.73225
547.10 1.673832
547.20 1.693424
547.30 1.710497
547.40 1.714974
547.50 1.713634
547.60 1.734458
547.70 1.704133
547.80 1.71627
547.90 1.705382
548.00 1.701357
548.10 1.716495
548.20 1.772932
548.30 1.818714
548.40 1.876914
548.50 1.924919
548.60 1.947879
548.70 1.940003
548.80 1.907796
548.90 1.854454
549.00 1.838944
549.10 1.868957
549.20 1.933769
549.30 1.991653
549.40 1.990031
549.50 1.959161
549.60 1.90257
549.70 1.763429
549.80 1.610131
549.90 1.493448
550.00 1.392984
550.10 1.34054
550.20 1.295638
550.30 1.27858
550.40 1.312723
550.50 1.329893
550.60 1.279053
550.70 1.262795
550.80 1.283826
550.90 1.283178
551.00 1.306007
551.10 1.301184
551.20 1.271056
551.30 1.267423
551.40 1.208217
551.50 1.18827
551.60 1.201845
551.70 1.21275
551.80 1.155987
551.90 1.17903
552.00 1.188833
552.10 1.162074
552.20 1.156946
552.30 1.180346
552.40 1.197033
552.50 1.149287
552.60 1.111059
552.70 1.095892
552.80 1.164205
552.90 1.160148
553.00 1.145639
553.10 1.157052
553.20 1.140262
553.30 1.104238
553.40 1.086416
553.50 1.087578
553.60 1.016279
553.70 0.9586595
553.80 0.9713573
553.90 1.006014
554.00 0.9853916
554.10 0.9573301
554.20 0.9839182
554.30 0.9469317
554.40 0.9533802
554.50 1.004776
554.60 0.9920562
554.70 0.949231
554.80 0.9774395
554.90 1.019308
555.00 1.040184
555.10 1.060367
555.20 1.069743
555.30 1.118243
555.40 1.122388
555.50 1.109313
555.60 1.144158
555.70 1.242866
555.80 1.331039
555.90 1.354055
556.00 1.362362
556.10 1.374849
556.20 1.402851
556.30 1.434556
556.40 1.4604
556.50 1.512156
556.60 1.57862
556.70 1.572215
556.80 1.555597
556.90 1.537788
557.00 1.623501
557.10 1.717413
557.20 1.720144
557.30 1.717492
557.40 1.71739
557.50 1.717391
557.60 1.717391
557.70 1.717391
557.80 1.717391
557.90 1.717391
558.00 1.717391
558.10 1.717385
558.20 1.71734
558.30 1.716321
558.40 1.707751
558.50 1.785798
558.60 1.963911
558.70 2.01836
558.80 2.007337
558.90 1.940621
559.00 1.865741
559.10 1.91698
559.20 1.969639
559.30 1.967487
559.40 1.944981
559.50 1.93637
559.60 1.890256
559.70 1.87018
559.80 1.783828
559.90 1.584171
560.00 1.453185
560.10 1.498608
560.20 1.576246
560.30 1.652217
560.40 1.678488
560.50 1.618801
560.60 1.558061
560.70 1.57729
560.80 1.620095
560.90 1.650921
561.00 1.636854
561.10 1.627664
561.20 1.677425
561.30 1.729516
561.40 1.785275
561.50 1.755509
561.60 1.672595
561.70 1.592207
561.80 1.58395
561.90 1.592793
562.00 1.550829
562.10 1.532569
562.20 1.548327
562.30 1.568326
562.40 1.594772
562.50 1.632986
562.60 1.650394
562.70 1.701217
562.80 1.76816
562.90 1.722935
563.00 1.560661
563.10 1.39768
563.20 1.374535
563.30 1.446682
563.40 1.591207
563.50 1.694076
563.60 1.67221
563.70 1.643474
563.80 1.638095
563.90 1.623574
564.00 1.62679
564.10 1.627523
564.20 1.600938
564.30 1.581855
564.40 1.590462
564.50 1.612673
564.60 1.642661
564.70 1.674349
564.80 1.710671
564.90 1.77053
565.00 1.835135
565.10 1.845897
565.20 1.855481
565.30 1.900589
565.40 1.938116
565.50 1.921771
565.60 1.929041
565.70 1.945347
565.80 1.959221
565.90 1.992681
566.00 2.056049
566.10 2.045372
566.20 1.938522
566.30 1.865442
566.40 1.78734
566.50 1.73836
566.60 1.733536
566.70 1.781366
566.80 1.774211
566.90 1.671605
567.00 1.626671
567.10 1.63772
567.20 1.655763
567.30 1.660629
567.40 1.66627
567.50 1.70088
567.60 1.740513
567.70 1.769365
567.80 1.80644
567.90 1.834298
568.00 1.877132
568.10 1.899872
568.20 1.891483
568.30 1.88239
568.40 1.902475
568.50 2.003102
568.60 2.057171
568.70 2.045113
568.80 1.978392
568.90 1.915976
569.00 1.891627
569.10 1.901948
569.20 1.962599
569.30 1.987668
569.40 1.999264
569.50 1.96705
569.60 1.961937
569.70 1.973745
569.80 2.040747
569.90 2.079627
570.00 2.070183
570.10 2.097467
570.20 2.170493
570.30 2.146834
570.40 2.071322
570.50 2.174796
570.60 2.269217
570.70 2.268919
570.80 2.253009
570.90 2.30929
571.00 2.317956
571.10 2.340307
571.20 2.3661
571.30 2.34489
571.40 2.271455
571.50 2.202696
571.60 2.207003
571.70 2.177216
571.80 2.112183
571.90 2.064852
572.00 2.050391
572.10 2.038416
572.20 2.086489
572.30 2.153574
572.40 2.183842
572.50 2.148949
572.60 2.178764
572.70 2.181047
572.80 2.158479
572.90 2.127067
573.00 2.161483
573.10 2.21564
573.20 2.30901
573.30 2.357178
573.40 2.354716
573.50 2.322909
573.60 2.31238
573.70 2.25316
573.80 2.226849
573.90 2.200736
574.00 2.180785
574.10 2.232404
574.20 2.320306
574.30 2.30116
574.40 2.257429
574.50 2.322434
574.60 2.409063
574.70 2.429769
574.80 2.444408
574.90 2.463017
575.00 2.48235
575.10 2.556215
575.20 2.576931
575.30 2.555809
575.40 2.574041
575.50 2.607009
575.60 2.61838
575.70 2.634359
575.80 2.665753
575.90 2.588554
576.00 2.368088
576.10 2.173551
576.20 2.065335
576.30 1.969007
576.40 1.877375
576.50 1.833797
576.60 1.846671
576.70 1.870504
576.80 1.918141
576.90 2.011937
577.00 2.093323
577.10 2.093792
577.20 2.057134
577.30 2.041209
577.40 2.114528
577.50 2.122746
577.60 2.122125
577.70 2.086147
577.80 2.124306
577.90 2.165091
578.00 2.176853
578.10 2.218224
578.20 2.257681
578.30 2.243372
578.40 2.262488
578.50 2.375367
578.60 2.426084
578.70 2.352771
578.80 2.296422
578.90 2.327887
579.00 2.352237
579.10 2.329348
579.20 2.354588
579.30 2.451963
579.40 2.55337
579.50 2.595332
579.60 2.650681
579.70 2.649271
579.80 2.628381
579.90 2.656577
580.00 2.717149
580.10 2.728914
580.20 2.725155
580.30 2.711585
580.40 2.750359
580.50 2.776553
580.60 2.757571
580.70 2.752553
580.80 2.787717
580.90 2.774642
581.00 2.690622
581.10 2.5372
581.20 2.318448
581.30 2.183964
581.40 2.130868
581.50 2.038716
581.60 1.992437
581.70 1.984784
581.80 1.969157
581.90 1.898287
582.00 1.892377
582.10 1.944718
582.20 1.95014
582.30 1.895595
582.40 1.91961
582.50 1.940485
582.60 1.976497
582.70 2.047956
582.80 2.06123
582.90 2.018398
583.00 2.053671
583.10 2.131274
583.20 2.164676
583.30 2.180095
583.40 2.237707
583.50 2.272147
583.60 2.267298
583.70 2.224456
583.80 2.138606
583.90 2.097635
584.00 2.059508
584.10 2.035777
584.20 2.013704
584.30 2.052162
584.40 2.123397
584.50 2.168859
584.60 2.162319
584.70 2.116957
584.80 2.016355
584.90 1.839739
585.00 1.657803
585.10 1.532102
585.20 1.491315
585.30 1.488459
585.40 1.521598
585.50 1.541437
585.60 1.542032
585.70 1.521284
585.80 1.501745
585.90 1.511111
586.00 1.520773
586.10 1.498564
586.20 1.561554
586.30 1.512284
586.40 1.382404
586.50 1.332394
586.60 1.387976
586.70 1.429528
586.80 1.434801
586.90 1.487892
587.00 1.499245
587.10 1.429354
587.20 1.326252
587.30 1.270742
587.40 1.218711
587.50 1.210947
587.60 1.236097
587.70 1.257269
587.80 1.238673
587.90 1.162739
588.00 1.120145
588.10 1.106232
588.20 1.123057
588.30 1.094063
588.40 1.042927
588.50 0.9932708
588.60 0.9158436
588.70 0.8538058
588.80 0.8124725
588.90 0.7750583
589.00 0.7693196
589.10 0.7196639
589.20 0.6462988
589.30 0.6538555
589.40 0.7137309
589.50 0.7076474
589.60 0.6145196
589.70 0.5402506
589.80 0.5649411
589.90 0.5561585
590.00 0.6989714
590.10 0.8560977
590.20 0.9568634
590.30 0.9286733
590.40 0.9165261
590.50 0.9299819
590.60 0.955595
590.70 1.005472
590.80 0.977767
590.90 0.9409983
591.00 0.9956959
591.10 1.078819
591.20 1.082319
591.30 1.051737
591.40 1.04246
591.50 1.069591
591.60 1.089809
591.70 1.133806
591.80 1.188789
591.90 1.225238
592.00 1.213413
592.10 1.210171
592.20 1.222616
592.30 1.203395
592.40 1.164597
592.50 1.133189
592.60 1.168909
592.70 1.143208
592.80 1.120378
592.90 1.150382
593.00 1.178261
593.10 1.192727
593.20 1.189081
593.30 1.23477
593.40 1.305953
593.50 1.317896
593.60 1.345951
593.70 1.394919
593.80 1.444608
593.90 1.462713
594.00 1.43593
594.10 1.450876
594.20 1.45809
594.30 1.457644
594.40 1.497992
594.50 1.557825
594.60 1.562676
594.70 1.548268
594.80 1.540651
594.90 1.491851
595.00 1.434934
595.10 1.40344
595.20 1.35292
595.30 1.311474
595.40 1.360104
595.50 1.40127
595.60 1.385771
595.70 1.346008
595.80 1.28319
595.90 1.241611
596.00 1.235111
596.10 1.268834
596.20 1.306098
596.30 1.335321
596.40 1.322269
596.50 1.312972
596.60 1.367126
596.70 1.410932
596.80 1.460228
596.90 1.463462
597.00 1.441725
597.10 1.451896
597.20 1.444315
597.30 1.409989
597.40 1.363329
597.50 1.344235
597.60 1.374582
597.70 1.414096
597.80 1.448711
597.90 1.450434
598.00 1.473887
598.10 1.503176
598.20 1.515134
598.30 1.560559
598.40 1.56956
598.50 1.54388
598.60 1.559052
598.70 1.553532
598.80 1.56728
598.90 1.570941
599.00 1.601411
599.10 1.618947
599.20 1.645269
599.30 1.698409
599.40 1.742783
599.50 1.743075
599.60 1.794304
599.70 1.815489
599.80 1.799417
599.90 1.75769
600.00 1.718276
600.10 1.690586
600.20 1.646697
600.30 1.614569
600.40 1.642967
600.50 1.670131
600.60 1.643542
600.70 1.638831
600.80 1.65624
600.90 1.636451
601.00 1.629662
601.10 1.685583
601.20 1.721515
601.30 1.730277
601.40 1.722026
601.50 1.720561
601.60 1.738175
601.70 1.76997
601.80 1.792596
601.90 1.809311
602.00 1.823742
602.10 1.812954
602.20 1.805787
602.30 1.818506
602.40 1.847672
602.50 1.863424
602.60 1.857056
602.70 1.870452
602.80 1.911352
602.90 1.925247
603.00 1.931409
603.10 1.933393
603.20 1.957129
603.30 1.9592
603.40 2.00129
603.50 2.00752
603.60 1.950046
603.70 1.847079
603.80 1.762649
603.90 1.745559
604.00 1.824656
604.10 1.915856
604.20 1.969917
604.30 2.047754
604.40 2.038301
604.50 2.020335
604.60 2.037663
604.70 2.123591
604.80 2.214547
604.90 2.208035
605.00 2.16027
605.10 2.20615
605.20 2.224095
605.30 2.163534
605.40 2.073835
605.50 2.08041
605.60 2.1386
605.70 2.190197
605.80 2.203499
605.90 2.216566
606.00 2.245009
606.10 2.241538
606.20 2.221193
606.30 2.198791
606.40 2.158433
606.50 2.08111
606.60 1.993364
606.70 1.989662
606.80 2.077421
606.90 2.216606
607.00 2.303125
607.10 2.328167
607.20 2.340374
607.30 2.292599
607.40 2.238848
607.50 2.212319
607.60 2.238295
607.70 2.286984
607.80 2.324569
607.90 2.294854
608.00 2.187295
608.10 2.079176
608.20 2.034612
608.30 2.052891
608.40 2.089229
608.50 2.101513
608.60 2.130712
608.70 2.188881
608.80 2.21764
608.90 2.224606
609.00 2.215283
609.10 2.204801
609.20 2.220068
609.30 2.297812
609.40 2.333712
609.50 2.330115
609.60 2.343625
609.70 2.356085
609.80 2.382068
609.90 2.38367
610.00 2.36748
610.10 2.344541
610.20 2.290827
610.30 2.216521
610.40 2.131921
610.50 2.132405
610.60 2.166974
610.70 2.232747
610.80 2.307148
610.90 2.354698
611.00 2.332711
611.10 2.276002
611.20 2.232657
611.30 2.251989
611.40 2.294364
611.50 2.306438
611.60 2.285737
611.70 2.204604
611.80 2.108814
611.90 2.109481
612.00 2.1477
612.10 2.154464
612.20 2.096001
612.30 2.026826
612.40 2.031572
612.50 2.106693
612.60 2.194147
612.70 2.251366
612.80 2.206394
612.90 2.177717
613.00 2.284728
613.10 2.344552
613.20 2.271451
613.30 2.201013
613.40 2.162032
613.50 2.134437
613.60 2.141733
613.70 2.174083
613.80 2.18193
613.90 2.15943
614.00 2.21308
614.10 2.261954
614.20 2.247012
614.30 2.195062
614.40 2.205983
614.50 2.26741
614.60 2.300667
614.70 2.293046
614.80 2.218611
614.90 2.078462
615.00 1.934127
615.10 1.78201
615.20 1.719403
615.30 1.773052
615.40 1.848864
615.50 1.829177
615.60 1.756556
615.70 1.709599
615.80 1.677576
615.90 1.595476
616.00 1.448719
616.10 1.288411
616.20 1.161068
616.30 1.089601
616.40 1.07744
616.50 1.122195
616.60 1.160131
616.70 1.155743
616.80 1.147036
616.90 1.172396
617.00 1.215098
617.10 1.207486
617.20 1.20912
617.30 1.241047
617.40 1.239637
617.50 1.188227
617.60 1.16915
617.70 1.151029
617.80 1.15789
617.90 1.189304
618.00 1.223177
618.10 1.212824
618.20 1.193319
618.30 1.219791
618.40 1.209974
618.50 1.14732
618.60 1.122554
618.70 1.103099
618.80 1.082657
618.90 1.062466
619.00 1.035431
619.10 1.011703
619.20 1.003541
619.30 1.028751
619.40 1.050665
619.50 1.031279
619.60 1.018007
619.70 1.023933
619.80 0.9968204
619.90 1.023147
620.00 1.085297
620.10 1.114518
620.20 1.084442
620.30 1.090892
620.40 1.122079
620.50 1.137
620.60 1.143633
620.70 1.154983
620.80 1.160835
620.90 1.177106
621.00 1.166816
621.10 1.156867
621.20 1.152284
621.30 1.090355
621.40 1.057572
621.50 1.068969
621.60 1.048531
621.70 1.002348
621.80 0.9754601
621.90 0.9947506
622.00 1.02893
622.10 1.043427
622.20 1.047457
622.30 1.002938
622.40 0.9486528
622.50 0.904364
622.60 0.9151599
622.70 0.9481446
622.80 0.9329045
622.90 0.9314031
623.00 0.9505516
623.10 0.9508785
623.20 0.9451623
623.30 0.936459
623.40 0.9631293
623.50 0.988568
623.60 1.007415
623.70 1.052336
623.80 1.045644
623.90 0.9619514
624.00 0.9336371
624.10 0.9849219
624.20 1.019802
624.30 1.013817
624.40 1.016833
624.50 1.020323
624.60 1.03681
624.70 1.069633
624.80 1.067619
624.90 1.090296
625.00 1.113132
625.10 1.12408
625.20 1.126556
625.30 1.145643
625.40 1.174657
625.50 1.144693
625.60 1.134864
625.70 1.160553
625.80 1.182847
625.90 1.238629
626.00 1.28028
626.10 1.281272
626.20 1.271576
626.30 1.281802
626.40 1.34937
626.50 1.387001
626.60 1.393091
626.70 1.381677
626.80 1.334184
626.90 1.300586
627.00 1.303379
627.10 1.342223
627.20 1.37949
627.30 1.418983
627.40 1.475174
627.50 1.482564
627.60 1.423941
627.70 1.386274
627.80 1.354866
627.90 1.315477
628.00 1.32336
628.10 1.391352
628.20 1.449228
628.30 1.465894
628.40 1.496671
628.50 1.543684
628.60 1.578468
628.70 1.617165
628.80 1.648067
628.90 1.656966
629.00 1.670314
629.10 1.684639
629.20 1.670957
629.30 1.686898
629.40 1.701545
629.50 1.71861
629.60 1.736496
629.70 1.766045
629.80 1.798029
629.90 1.859694
630.00 1.916961
630.10 2.056174
630.20 2.010576
630.30 1.776858
630.40 1.824577
630.50 1.983626
630.60 2.120288
630.70 2.144386
630.80 2.153347
630.90 2.172959
631.00 2.184499
631.10 2.196282
631.20 2.242484
631.30 2.31389
631.40 2.376854
631.50 2.405776
631.60 2.426744
631.70 2.455547
631.80 2.485293
631.90 2.525697
632.00 2.540721
632.10 2.522025
632.20 2.459385
632.30 2.387554
632.40 2.354507
632.50 2.370707
632.60 2.433899
632.70 2.466533
632.80 2.508701
632.90 2.543392
633.00 2.55948
633.10 2.571609
633.20 2.560673
633.30 2.601806
633.40 2.637924
633.50 2.698776
633.60 2.746148
633.70 2.754164
633.80 2.759049
633.90 2.775066
634.00 2.806057
634.10 2.885753
634.20 2.99816
634.30 3.055334
634.40 3.032697
634.50 3.022751
634.60 3.047003
634.70 3.082363
634.80 3.13015
634.90 3.175863
635.00 3.192576
635.10 3.170865
635.20 3.089189
635.30 2.977713
635.40 2.897696
635.50 2.849509
635.60 2.809832
635.70 2.778477
635.80 2.726586
635.90 2.647556
636.00 2.609586
636.10 2.623465
636.20 2.654316
636.30 2.707415
636.40 2.760221
636.50 2.765533
636.60 2.726285
636.70 2.639271
636.80 2.652728
636.90 2.708607
637.00 2.747561
637.10 2.788821
637.20 2.826088
637.30 2.852016
637.40 2.834675
637.50 2.795749
637.60 2.793882
637.70 2.813237
637.80 2.804818
637.90 2.779194
638.00 2.704211
638.10 2.575297
638.20 2.444067
638.30 2.389825
638.40 2.414428
638.50 2.487404
638.60 2.529467
638.70 2.507329
638.80 2.445554
638.90 2.424986
639.00 2.458724
639.10 2.531535
639.20 2.607679
639.30 2.663299
639.40 2.731215
639.50 2.825923
639.60 2.92076
639.70 3.019592
639.80 3.087567
639.90 3.121844
640.00 3.130631
640.10 3.117978
640.20 3.143924
640.30 3.200092
640.40 3.273
640.50 3.342484
640.60 3.401932
640.70 3.436734
640.80 3.464811
640.90 3.483592
641.00 3.478218
641.10 3.486269
641.20 3.491582
641.30 3.472137
641.40 3.444365
641.50 3.41191
641.60 3.366367
641.70 3.327979
641.80 3.302246
641.90 3.263224
642.00 3.216179
642.10 3.190644
642.20 3.145461
642.30 3.088922
642.40 3.067668
642.50 3.108816
642.60 3.175436
642.70 3.212592
642.80 3.229966
642.90 3.245405
643.00 3.261241
643.10 3.30799
643.20 3.367232
643.30 3.378942
643.40 3.369887
643.50 3.377549
643.60 3.422745
643.70 3.448341
643.80 3.413514
643.90 3.371149
644.00 3.340156
644.10 3.374483
644.20 3.501756
644.30 3.649141
644.40 3.750401
644.50 3.797505
644.60 3.819498
644.70 3.777695
644.80 3.674542
644.90 3.575623
645.00 3.496563
645.10 3.422092
645.20 3.448955
645.30 3.589122
645.40 3.72314
645.50 3.780857
645.60 3.77257
645.70 3.778414
645.80 3.786505
645.90 3.808381
646.00 3.832031
646.10 3.836415
646.20 3.791642
646.30 3.726501
646.40 3.682458
646.50 3.724582
646.60 3.851919
646.70 3.987529
646.80 4.098698
646.90 4.165423
647.00 4.186181
647.10 4.199107
647.20 4.205239
647.30 4.249816
647.40 4.294205
647.50 4.293914
647.60 4.30438
647.70 4.334451
647.80 4.325455
647.90 4.257844
648.00 4.115871
648.10 3.948521
648.20 3.83691
648.30 3.804044
648.40 3.783118
648.50 3.710312
648.60 3.628839
648.70 3.632938
648.80 3.698174
648.90 3.780353
649.00 3.868504
649.10 3.972054
649.20 4.013755
649.30 3.944864
649.40 3.878709
649.50 3.847471
649.60 3.862115
649.70 3.917947
649.80 4.001214
649.90 4.090004
650.00 4.151924
650.10 4.183321
650.20 4.223564
650.30 4.3202
650.40 4.439314
650.50 4.524932
650.60 4.555704
650.70 4.609238
650.80 4.676839
650.90 4.673111
651.00 4.687259
651.10 4.758207
651.20 4.774022
651.30 4.723761
651.40 4.621108
651.50 4.545411
651.60 4.528163
651.70 4.570757
651.80 4.662082
651.90 4.73849
652.00 4.811558
652.10 4.882521
652.20 4.988055
652.30 5.089468
652.40 5.130919
652.50 5.112718
652.60 5.094151
652.70 5.135152
652.80 5.208513
652.90 5.293294
653.00 5.353515
653.10 5.385921
653.20 5.428168
653.30 5.458599
653.40 5.468753
653.50 5.507153
653.60 5.590199
653.70 5.67603
653.80 5.746307
653.90 5.838871
654.00 5.948772
654.10 5.998198
654.20 5.975601
654.30 5.883464
654.40 5.738541
654.50 5.549824
654.60 5.366263
654.70 5.254066
654.80 5.205748
654.90 5.125083
655.00 4.972364
655.10 4.818179
655.20 4.706002
655.30 4.64199
655.40 4.63989
655.50 4.669906
655.60 4.706158
655.70 4.753168
655.80 4.833315
655.90 4.953095
656.00 5.089161
656.10 5.35574
656.20 6.061294
656.30 7.057767
656.40 7.773835
656.50 7.641996
656.60 6.659262
656.70 5.435974
656.80 4.602443
656.90 4.308402
657.00 4.262579
657.10 4.238997
657.20 4.141905
657.30 4.002725
657.40 3.966334
657.50 3.993593
657.60 4.08054
657.70 4.197405
657.80 4.244215
657.90 4.193272
658.00 4.024866
658.10 3.877248
658.20 3.86616
658.30 3.976132
658.40 4.112551
658.50 4.202814
658.60 4.276622
658.70 4.373506
658.80 4.473882
658.90 4.559606
659.00 4.598178
659.10 4.563844
659.20 4.5128
659.30 4.421609
659.40 4.272469
659.50 4.104616
659.60 3.986588
659.70 3.962312
659.80 4.017513
659.90 4.066701
660.00 4.094554
660.10 4.067279
660.20 4.021138
660.30 4.047934
660.40 4.108652
660.50 4.146256
660.60 4.105151
660.70 4.046404
660.80 4.035758
660.90 4.058045
661.00 4.060952
661.10 4.061224
661.20 4.109693
661.30 4.184921
661.40 4.252722
661.50 4.257436
661.60 4.206588
661.70 4.14482
661.80 4.059121
661.90 3.932034
662.00 3.835537
662.10 3.802444
662.20 3.769567
662.30 3.735026
662.40 3.704311
662.50 3.635722
662.60 3.493715
662.70 3.348152
662.80 3.26739
662.90 3.280956
663.00 3.363925
663.10 3.501269
663.20 3.624411
663.30 3.715283
663.40 3.766647
663.50 3.705709
663.60 3.53295
663.70 3.300994
663.80 3.134826
663.90 3.115347
664.00 3.178585
664.10 3.260967
664.20 3.341354
664.30 3.429258
664.40 3.509446
664.50 3.550605
664.60 3.552218
664.70 3.556741
664.80 3.553106
664.90 3.479968
665.00 3.314488
665.10 3.0736
665.20 2.839024
665.30 2.655371
665.40 2.564727
665.50 2.602215
665.60 2.690866
665.70 2.732606
665.80 2.721279
665.90 2.723394
666.00 2.748104
666.10 2.78286
666.20 2.823191
666.30 2.871272
666.40 2.941244
666.50 2.99319
666.60 3.043053
666.70 3.107777
666.80 3.162944
666.90 3.209943
667.00 3.248619
667.10 3.26529
667.20 3.280558
667.30 3.281066
667.40 3.25465
667.50 3.214101
667.60 3.187748
667.70 3.192517
667.80 3.217782
667.90 3.215931
668.00 3.13822
668.10 2.955259
668.20 2.691234
668.30 2.457757
668.40 2.35034
668.50 2.359873
668.60 2.426693
668.70 2.498363
668.80 2.53722
668.90 2.579434
669.00 2.603535
669.10 2.612916
669.20 2.596964
669.30 2.559897
669.40 2.544009
669.50 2.555035
669.60 2.597045
669.70 2.655976
669.80 2.706898
669.90 2.750049
670.00 2.784069
670.10 2.803227
670.20 2.820321
670.30 2.863922
670.40 2.91132
670.50 2.93217
670.60 2.950683
670.70 2.980047
670.80 3.000094
670.90 3.009046
671.00 3.022511
671.10 3.027511
671.20 3.007699
671.30 2.980423
671.40 2.912895
671.50 2.758331
671.60 2.563031
671.70 2.379289
671.80 2.254728
671.90 2.166515
672.00 2.111589
672.10 2.109239
672.20 2.153224
672.30 2.196303
672.40 2.232367
672.50 2.281123
672.60 2.338594
672.70 2.406499
672.80 2.46361
672.90 2.493853
673.00 2.482998
673.10 2.473037
673.20 2.492095
673.30 2.514596
673.40 2.534953
673.50 2.540704
673.60 2.530852
673.70 2.537142
673.80 2.573409
673.90 2.643505
674.00 2.701844
674.10 2.718091
674.20 2.728632
674.30 2.746344
674.40 2.785824
674.50 2.838006
674.60 2.868156
674.70 2.7998
674.80 2.642946
674.90 2.474208
675.00 2.3694
675.10 2.35838
675.20 2.374061
675.30 2.409259
675.40 2.449835
675.50 2.504195
675.60 2.539204
675.70 2.546281
675.80 2.585974
675.90 2.61617
676.00 2.599549
676.10 2.592849
676.20 2.633792
676.30 2.699602
676.40 2.754788
676.50 2.801697
676.60 2.860519
676.70 2.920956
676.80 2.95904
676.90 2.973693
677.00 2.966055
677.10 2.95742
677.20 2.965203
677.30 2.982922
677.40 3.024793
677.50 3.059723
677.60 3.090239
677.70 3.132148
677.80 3.150118
677.90 3.132996
678.00 3.103875
678.10 3.033169
678.20 2.883449
678.30 2.690177
678.40 2.515773
678.50 2.400743
678.60 2.347153
678.70 2.355942
678.80 2.408628
678.90 2.475094
679.00 2.514834
679.10 2.533397
679.20 2.557741
679.30 2.571811
679.40 2.572416
679.50 2.588119
679.60 2.641047
679.70 2.690781
679.80 2.712772
679.90 2.71025
680.00 2.696853
680.10 2.714921
680.20 2.779877
680.30 2.832669
680.40 2.861352
680.50 2.861939
680.60 2.823342
680.70 2.781433
680.80 2.767795
680.90 2.802809
681.00 2.85169
681.10 2.87276
681.20 2.906978
681.30 2.960154
681.40 2.993829
681.50 2.982017
681.60 2.904471
681.70 2.794412
681.80 2.723342
681.90 2.736784
682.00 2.772697
682.10 2.797437
682.20 2.818167
682.30 2.824406
682.40 2.803598
682.50 2.796843
682.60 2.836053
682.70 2.902423
682.80 2.961059
682.90 3.010927
683.00 3.056266
683.10 3.068929
683.20 3.063564
683.30 3.023131
683.40 2.998541
683.50 3.019067
683.60 3.03993
683.70 3.021491
683.80 2.967952
683.90 2.939387
684.00 2.959498
684.10 3.046588
684.20 3.1136
684.30 3.139904
684.40 3.158147
684.50 3.163572
684.60 3.14403
684.70 3.098394
684.80 3.0774
684.90 3.054859
685.00 3.017705
685.10 2.948325
685.20 2.840418
685.30 2.753432
685.40 2.721434
685.50 2.745147
685.60 2.795979
685.70 2.831368
685.80 2.844831
685.90 2.838371
686.00 2.813818
686.10 2.805307
686.20 2.81549
686.30 2.837745
686.40 2.909721
686.50 3.02646
686.60 3.088751
686.70 3.052248
686.80 2.945855
686.90 2.892599
687.00 2.906713
687.10 2.895628
687.20 2.918147
687.30 2.992397
687.40 3.090496
687.50 3.197834
687.60 3.27665
687.70 3.321128
687.80 3.340721
687.90 3.35415
688.00 3.351591
688.10 3.337882
688.20 3.305671
688.30 3.256868
688.40 3.21204
688.50 3.143178
688.60 3.077856
688.70 3.033925
688.80 3.067308
688.90 3.181358
689.00 3.27552
689.10 3.300082
689.20 3.281579
689.30 3.280377
689.40 3.307282
689.50 3.36205
689.60 3.41658
689.70 3.440551
689.80 3.433643
689.90 3.419074
690.00 3.384405
690.10 3.268262
690.20 3.105688
690.30 3.062645
690.40 3.159137
690.50 3.3039
690.60 3.456069
690.70 3.599086
690.80 3.722875
690.90 3.818619
691.00 3.850118
691.10 3.802897
691.20 3.753814
691.30 3.786881
691.40 3.8946
691.50 3.945417
691.60 3.926274
691.70 3.862926
691.80 3.688747
691.90 3.438044
692.00 3.223703
692.10 3.169501
692.20 3.306402
692.30 3.575429
692.40 3.845316
692.50 4.010941
692.60 4.055587
692.70 4.053419
692.80 4.040246
692.90 4.036846
693.00 4.085161
693.10 4.185661
693.20 4.312266
693.30 4.398364
693.40 4.452741
693.50 4.470522
693.60 4.446395
693.70 4.443371
693.80 4.48199
693.90 4.504854
694.00 4.516442
694.10 4.543415
694.20 4.612281
694.30 4.753144
694.40 4.93535
694.50 5.081019
694.60 5.167514
694.70 5.25363
694.80 5.347347
694.90 5.420038
695.00 5.443529
695.10 5.429986
695.20 5.371095
695.30 5.229884
695.40 5.067068
695.50 4.961452
695.60 4.946996
695.70 4.983106
695.80 5.011888
695.90 5.004073
696.00 4.971528
696.10 4.959362
696.20 4.976094
696.30 5.034758
696.40 5.116716
696.50 5.203996
696.60 5.283629
696.70 5.32388
696.80 5.338491
696.90 5.361198
697.00 5.371404
697.10 5.339525
697.20 5.277619
697.30 5.229754
697.40 5.247346
697.50 5.309554
697.60 5.410502
697.70 5.551419
697.80 5.679423
697.90 5.743653
698.00 5.76105
698.10 5.73097
698.20 5.708022
698.30 5.750883
698.40 5.820528
698.50 5.887144
698.60 5.913237
698.70 5.915013
698.80 5.911914
698.90 5.873624
699.00 5.799417
699.10 5.69611
699.20 5.602462
699.30 5.574594
699.40 5.618515
699.50 5.687455
699.60 5.752702
699.70 5.813999
699.80 5.865216
699.90 5.864322
700.00 5.813755
700.10 5.810581
700.20 5.883072
700.30 5.996928
700.40 6.028388
700.50 5.934209
700.60 5.830007
700.70 5.8357
700.80 5.967109
700.90 6.137042
701.00 6.222267
701.10 6.222789
701.20 6.234227
701.30 6.345883
701.40 6.522616
701.50 6.637868
701.60 6.662097
701.70 6.61301
701.80 6.554608
701.90 6.569834
702.00 6.670202
702.10 6.823243
702.20 6.927737
702.30 6.88492
702.40 6.69024
702.50 6.44276
702.60 6.316367
702.70 6.39578
702.80 6.667425
702.90 7.060941
703.00 7.411594
703.10 7.598661
703.20 7.615858
703.30 7.541783
703.40 7.49744
703.50 7.611096
703.60 7.868671
703.70 8.15266
703.80 8.29722
703.90 8.29653
704.00 8.286854
704.10 8.359447
704.20 8.520463
704.30 8.698985
704.40 8.798336
704.50 8.835153
704.60 8.870061
704.70 8.91008
704.80 8.953787
704.90 8.97429
705.00 8.963571
705.10 8.945607
705.20 8.911324
705.30 8.709126
705.40 8.067124
705.50 6.934287
705.60 5.587071
705.70 4.524038
705.80 4.081527
705.90 4.100016
706.00 4.195536
706.10 4.101035
706.20 3.892775
706.30 3.756293
706.40 3.801471
706.50 3.980068
706.60 4.16832
706.70 4.303284
706.80 4.393076
706.90 4.468489
707.00 4.539161
707.10 4.620475
707.20 4.736669
707.30 4.865483
707.40 4.955423
707.50 4.975278
707.60 4.942163
707.70 4.928411
707.80 4.9586
707.90 5.006595
708.00 5.052852
708.10 5.109925
708.20 5.197348
708.30 5.268074
708.40 5.317819
708.50 5.35779
708.60 5.333805
708.70 5.134773
708.80 4.646902
708.90 3.94832
709.00 3.305979
709.10 2.948584
709.20 2.921832
709.30 3.049241
709.40 3.138942
709.50 3.12549
709.60 3.062849
709.70 3.038874
709.80 3.10672
709.90 3.233427
710.00 3.34056
710.10 3.393203
710.20 3.395168
710.30 3.365342
710.40 3.351169
710.50 3.387244
710.60 3.479618
710.70 3.601811
710.80 3.745123
710.90 3.914275
711.00 4.085488
711.10 4.237485
711.20 4.339974
711.30 4.378622
711.40 4.368778
711.50 4.336245
711.60 4.29463
711.70 4.260714
711.80 4.281331
711.90 4.397361
712.00 4.569808
712.10 4.719381
712.20 4.82836
712.30 4.8778
712.40 4.791066
712.50 4.466406
712.60 3.874328
712.70 3.166891
712.80 2.600396
712.90 2.366904
713.00 2.416926
713.10 2.53803
713.20 2.567966
713.30 2.495162
713.40 2.434787
713.50 2.460338
713.60 2.544744
713.70 2.607219
713.80 2.616727
713.90 2.598061
714.00 2.590752
714.10 2.634027
714.20 2.744325
714.30 2.890397
714.40 3.001051
714.50 3.040436
714.60 3.03257
714.70 3.023556
714.80 3.046462
714.90 3.089295
715.00 3.123808
715.10 3.150408
715.20 3.190076
715.30 3.245426
715.40 3.328808
715.50 3.456041
715.60 3.586601
715.70 3.683573
715.80 3.66516
715.90 3.517575
716.00 3.338085
716.10 3.208327
716.20 3.177183
716.30 3.203702
716.40 3.238126
716.50 3.271601
716.60 3.296901
716.70 3.32113
716.80 3.343791
716.90 3.365858
717.00 3.417087
717.10 3.507792
717.20 3.60924
717.30 3.697413
717.40 3.736587
717.50 3.722902
717.60 3.70032
717.70 3.686353
717.80 3.706278
717.90 3.762262
718.00 3.850395
718.10 3.9475
718.20 4.008026
718.30 4.061696
718.40 4.128178
718.50 4.224561
718.60 4.336593
718.70 4.399678
718.80 4.41412
718.90 4.440553
719.00 4.496846
719.10 4.545558
719.20 4.562527
719.30 4.559
719.40 4.559073
719.50 4.573453
719.60 4.55912
719.70 4.428768
719.80 4.192797
719.90 3.958516
720.00 3.816658
720.10 3.780209
720.20 3.810632
720.30 3.839436
720.40 3.839391
720.50 3.834427
720.60 3.842218
720.70 3.856148
720.80 3.892461
720.90 3.964046
721.00 4.022075
721.10 4.056952
721.20 4.09885
721.30 4.184886
721.40 4.279455
721.50 4.325769
721.60 4.34559
721.70 4.378571
721.80 4.461418
721.90 4.54391
722.00 4.579894
722.10 4.604436
722.20 4.647644
722.30 4.716068
722.40 4.79513
722.50 4.891103
722.60 5.002869
722.70 5.108818
722.80 5.192148
722.90 5.229068
723.00 5.196403
723.10 5.085194
723.20 4.957521
723.30 4.904117
723.40 4.953434
723.50 5.074143
723.60 5.212519
723.70 5.338479
723.80 5.414697
723.90 5.439478
724.00 5.444469
724.10 5.466387
724.20 5.483972
724.30 5.449645
724.40 5.507872
724.50 5.637525
724.60 5.772511
724.70 5.915728
724.80 5.952054
724.90 5.984635
725.00 6.120324
725.10 6.235506
725.20 6.26201
725.30 6.21942
725.40 6.173831
725.50 6.243332
725.60 6.386016
725.70 6.485717
725.80 6.515815
725.90 6.486686
726.00 6.471098
726.10 6.522454
726.20 6.626542
726.30 6.760357
726.40 6.911351
726.50 7.045162
726.60 7.099313
726.70 7.076012
726.80 7.080012
726.90 7.139961
727.00 7.114467
727.10 6.900849
727.20 6.590102
727.30 6.412761
727.40 6.489464
727.50 6.748264
727.60 7.046481
727.70 7.23572
727.80 7.199456
727.90 7.020785
728.00 6.861812
728.10 6.846537
728.20 6.977776
728.30 7.074539
728.40 7.143602
728.50 7.284926
728.60 7.460292
728.70 7.590348
728.80 7.62057
728.90 7.613861
729.00 7.684413
729.10 7.773527
729.20 7.816367
729.30 7.831367
729.40 7.835999
729.50 7.881998
729.60 7.991265
729.70 8.140347
729.80 8.255218
729.90 8.269907
730.00 8.222241
730.10 8.220149
730.20 8.321291
730.30 8.466052
730.40 8.581256
730.50 8.618643
730.60 8.595735
730.70 8.626907
730.80 8.751601
730.90 8.887415
731.00 8.943397
731.10 8.900396
731.20 8.870311
731.30 8.942501
731.40 9.077364
731.50 9.196671
731.60 9.344664
731.70 9.474025
731.80 9.480244
731.90 9.418256
732.00 9.360149
732.10 9.39292
732.20 9.504734
732.30 9.606263
732.40 9.645137
732.50 9.596665
732.60 9.436778
732.70 9.220396
732.80 9.149418
732.90 9.349327
733.00 9.665166
733.10 9.90146
733.20 9.971192
733.30 9.909909
733.40 9.891303
733.50 9.970351
733.60 10.10697
733.70 10.27187
733.80 10.40318
733.90 10.48681
734.00 10.57096
734.10 10.69821
734.20 10.82111
734.30 10.73402
734.40 10.39056
734.50 10.06568
734.60 9.916888
734.70 9.926737
734.80 10.08457
734.90 10.2607
735.00 10.40027
735.10 10.50643
735.20 10.57358
735.30 10.64747
735.40 10.69145
735.50 10.63428
735.60 10.48594
735.70 10.3198
735.80 10.26161
735.90 10.36782
736.00 10.5461
736.10 10.69119
736.20 10.74613
736.30 10.7467
736.40 10.81402
736.50 10.93467
736.60 11.02808
736.70 11.08513
736.80 11.1574
736.90 11.28877
737.00 11.48114
737.10 11.62438
737.20 11.59249
737.30 11.44533
737.40 11.33244
737.50 11.28956
737.60 11.26531
737.70 11.28536
737.80 11.36733
737.90 11.48802
738.00 11.5847
738.10 11.60275
738.20 11.57698
738.30 11.55805
738.40 11.56657
738.50 11.61075
738.60 11.6767
738.70 11.7544
738.80 11.84045
738.90 11.93118
739.00 12.00976
739.10 12.05926
739.20 12.0449
739.30 11.9283
739.40 11.74426
739.50 11.57764
739.60 11.49779
739.70 11.55361
739.80 11.7007
739.90 11.80818
740.00 11.81606
740.10 11.80934
740.20 11.87784
740.30 12.01244
740.40 12.08421
740.50 11.97224
740.60 11.75703
740.70 11.5723
740.80 11.5197
740.90 11.61998
741.00 11.77293
741.10 11.9234
741.20 12.01869
741.30 12.05354
741.40 12.09756
741.50 12.15689
741.60 12.18912
741.70 12.11282
741.80 11.91589
741.90 11.72457
742.00 11.66282
742.10 11.74033
742.20 11.85616
742.30 11.93078
742.40 11.96685
742.50 12.0291
742.60 12.10969
742.70 12.17628
742.80 12.23449
742.90 12.29254
743.00 12.39372
743.10 12.49039
743.20 12.50327
743.30 12.45534
743.40 12.35096
743.50 12.18963
743.60 11.99389
743.70 11.86676
743.80 11.97128
743.90 12.25559
744.00 12.54123
744.10 12.63967
744.20 12.46069
744.30 12.19012
744.40 12.07225
744.50 12.09894
744.60 12.13836
744.70 12.13011
744.80 12.0414
744.90 11.94353
745.00 11.933
745.10 12.02068
745.20 12.19257
745.30 12.34461
745.40 12.39545
745.50 12.35463
745.60 12.25838
745.70 12.20836
745.80 12.23876
745.90 12.294
746.00 12.33157
746.10 12.31768
746.20 12.29661
746.30 12.322
746.40 12.35026
746.50 12.37748
746.60 12.44197
746.70 12.50321
746.80 12.52783
746.90 12.54401
747.00 12.60779
747.10 12.77836
747.20 12.91417
747.30 12.85226
747.40 12.63036
747.50 12.42788
747.60 12.39417
747.70 12.51524
747.80 12.6856
747.90 12.79482
748.00 12.78696
748.10 12.68067
748.20 12.57306
748.30 12.58074
748.40 12.74071
748.50 12.92305
748.60 12.94974
748.70 12.80436
748.80 12.61266
748.90 12.52445
749.00 12.55864
749.10 12.64466
749.20 12.72996
749.30 12.75232
749.40 12.6802
749.50 12.53757
749.60 12.41526
749.70 12.42602
749.80 12.6254
749.90 12.95521
750.00 13.26055
750.10 13.40683
750.20 13.39944
750.30 13.34748
750.40 13.33629
750.50 13.34371
750.60 13.27684
750.70 13.11091
750.80 12.96832
750.90 13.00619
751.00 13.26193
751.10 13.56599
751.20 13.67558
751.30 13.56452
751.40 13.39568
751.50 13.35667
751.60 13.47761
751.70 13.62517
751.80 13.6943
751.90 13.63079
752.00 13.46377
752.10 13.29974
752.20 13.23583
752.30 13.34627
752.40 13.58227
752.50 13.73293
752.60 13.62802
752.70 13.28087
752.80 12.88985
752.90 12.72656
753.00 12.85145
753.10 13.15268
753.20 13.4929
753.30 13.72273
753.40 13.75476
753.50 13.61913
753.60 13.4662
753.70 13.46964
753.80 13.67288
753.90 13.98572
754.00 14.27166
754.10 14.42056
754.20 14.42894
754.30 14.34876
754.40 14.29638
754.50 14.32653
754.60 14.37279
754.70 14.38058
754.80 14.31669
754.90 14.22809
755.00 14.21206
755.10 14.27481
755.20 14.35716
755.30 14.40137
755.40 14.37305
755.50 14.29355
755.60 14.24298
755.70 14.24787
755.80 14.29062
755.90 14.37013
756.00 14.45139
756.10 14.49844
756.20 14.47414
756.30 14.38346
756.40 14.2868
756.50 14.1886
756.60 14.04959
756.70 13.86685
756.80 13.67977
756.90 13.54381
757.00 13.54329
757.10 13.77794
757.20 14.22261
757.30 14.67503
757.40 14.93545
757.50 14.92735
757.60 14.75422
757.70 14.58186
757.80 14.41927
757.90 14.26719
758.00 14.26565
758.10 14.48934
758.20 14.84659
758.30 15.12885
758.40 15.22159
758.50 15.19847
758.60 15.13174
758.70 14.9648
758.80 14.47534
758.90 13.50204
759.00 12.14999
759.10 10.8111
759.20 9.929075
759.30 9.686941
759.40 9.984662
759.50 10.41417
759.60 10.64175
759.70 10.67179
759.80 10.69702
759.90 10.91223
760.00 11.2602
760.10 11.3664
760.20 11.04046
760.30 10.65735
760.40 10.65693
760.50 10.90823
760.60 11.07055
760.70 11.08987
760.80 11.02078
760.90 10.94483
761.00 10.91605
761.10 10.92643
761.20 11.1351
761.30 11.59264
761.40 12.04694
761.50 12.28195
761.60 12.22652
761.70 12.10746
761.80 12.25538
761.90 12.59858
762.00 12.89282
762.10 12.93517
762.20 12.73583
762.30 12.54198
762.40 12.49244
762.50 12.55315
762.60 12.47088
762.70 12.01032
762.80 11.21705
762.90 10.27663
763.00 9.464507
763.10 8.941369
763.20 8.73441
763.30 8.841086
763.40 9.120782
763.50 9.303784
763.60 9.298818
763.70 9.252888
763.80 9.270228
763.90 9.386984
764.00 9.441428
764.10 9.287181
764.20 9.201426
764.30 9.369565
764.40 9.554193
764.50 9.57694
764.60 9.416397
764.70 9.283306
764.80 9.452767
764.90 9.666092
765.00 9.584974
765.10 9.340904
765.20 9.163721
765.30 9.181899
765.40 9.251488
765.50 9.085567
765.60 8.836911
765.70 8.774851
765.80 8.887286
765.90 8.987867
766.00 8.718647
766.10 8.040552
766.20 7.227536
766.30 6.38428
766.40 5.49482
766.50 4.531007
766.60 3.646334
766.70 3.228479
766.80 3.463171
766.90 4.174015
767.00 4.998839
767.10 5.593764
767.20 5.862662
767.30 5.904685
767.40 5.924864
767.50 6.04807
767.60 6.254565
767.70 6.484541
767.80 6.686664
767.90 6.848104
768.00 6.968216
768.10 7.065369
768.20 7.180234
768.30 7.299611
768.40 7.379099
768.50 7.4138
768.60 7.424155
768.70 7.45168
768.80 7.515433
768.90 7.587504
769.00 7.646387
769.10 7.665237
769.20 7.637128
769.30 7.600785
769.40 7.532411
769.50 7.343882
769.60 7.00458
769.70 6.465106
769.80 5.686016
769.90 4.776795
770.00 4.016233
770.10 3.733749
770.20 4.081978
770.30 4.887653
770.40 5.745185
770.50 6.36085
770.60 6.646891
770.70 6.709013
770.80 6.74693
770.90 6.875378
771.00 7.105438
771.10 7.377723
771.20 7.646078
771.30 7.857941
771.40 7.948908
771.50 7.907094
771.60 7.81119
771.70 7.797469
771.80 7.919661
771.90 8.025348
772.00 8.027769
772.10 8.055211
772.20 8.157831
772.30 8.283948
772.40 8.389586
772.50 8.500456
772.60 8.656806
772.70 8.835343
772.80 9.003626
772.90 9.126442
773.00 9.189285
773.10 9.220767
773.20 9.248009
773.30 9.297038
773.40 9.385546
773.50 9.479913
773.60 9.533432
773.70 9.567492
773.80 9.624529
773.90 9.710089
774.00 9.819902
774.10 9.89508
774.20 9.863754
774.30 9.688254
774.40 9.354821
774.50 8.96662
774.60 8.666256
774.70 8.49381
774.80 8.377152
774.90 8.224007
775.00 7.966011
775.10 7.672781
775.20 7.510087
775.30 7.492683
775.40 7.558571
775.50 7.668996
775.60 7.815757
775.70 7.936465
775.80 7.971712
775.90 7.970137
776.00 8.003848
776.10 8.125128
776.20 8.256823
776.30 8.260741
776.40 8.146757
776.50 8.019746
776.60 7.993461
776.70 8.129791
776.80 8.356121
776.90 8.572514
777.00 8.714644
777.10 8.753465
777.20 8.755076
777.30 8.803882
777.40 8.893085
777.50 8.982061
777.60 9.04398
777.70 9.06167
777.80 9.058345
777.90 9.069253
778.00 9.090669
778.10 9.069448
778.20 8.948052
778.30 8.728708
778.40 8.454525
778.50 8.193951
778.60 8.050777
778.70 8.041074
778.80 8.101962
778.90 8.210577
779.00 8.333574
779.10 8.469287
779.20 8.652349
779.30 8.831867
779.40 8.983378
779.50 9.119333
779.60 9.174429
779.70 9.12859
779.80 9.012287
779.90 8.830645
780.00 8.637824
780.10 8.476598
780.20 8.419611
780.30 8.617018
780.40 9.040513
780.50 9.497208
780.60 9.853276
780.70 10.08699
780.80 10.24036
780.90 10.30777
781.00 10.24951
781.10 10.12476
781.20 10.02821
781.30 10.02708
781.40 10.15157
781.50 10.35641
781.60 10.55467
781.70 10.66225
781.80 10.6729
781.90 10.63614
782.00 10.55527
782.10 10.40013
782.20 10.12954
782.30 9.805429
782.40 9.627235
782.50 9.600758
782.60 9.624708
782.70 9.64961
782.80 9.560666
782.90 9.289527
783.00 8.910445
783.10 8.617699
783.20 8.542438
783.30 8.670844
783.40 8.888802
783.50 9.082954
783.60 9.239989
783.70 9.345948
783.80 9.396487
783.90 9.431647
784.00 9.478198
784.10 9.540022
784.20 9.577469
784.30 9.573072
784.40 9.595776
784.50 9.690593
784.60 9.830785
784.70 9.96452
784.80 10.04561
784.90 10.0601
785.00 10.01135
785.10 9.96914
785.20 9.992437
785.30 10.06996
785.40 10.21777
785.50 10.31357
785.60 10.26509
785.70 10.20867
785.80 10.21724
785.90 10.29741
786.00 10.38102
786.10 10.37242
786.20 10.26153
786.30 10.05927
786.40 9.86645
786.50 9.774523
786.60 9.812545
786.70 9.965968
786.80 10.11081
786.90 10.19919
787.00 10.28607
787.10 10.31016
787.20 10.22306
787.30 10.10419
787.40 10.03439
787.50 10.064
787.60 10.22035
787.70 10.46151
787.80 10.67958
787.90 10.8447
788.00 10.94821
788.10 10.98313
788.20 11.03495
788.30 11.12711
788.40 11.22141
788.50 11.26513
788.60 11.22309
788.70 11.16624
788.80 11.18969
788.90 11.31965
789.00 11.50549
789.10 11.61807
789.20 11.59455
789.30 11.52745
789.40 11.51408
789.50 11.54928
789.60 11.58494
789.70 11.56236
789.80 11.45352
789.90 11.30514
790.00 11.13801
790.10 10.98258
790.20 10.90622
790.30 10.94489
790.40 11.10723
790.50 11.31271
790.60 11.44809
790.70 11.40435
790.80 11.14215
790.90 10.76837
791.00 10.42597
791.10 10.23228
791.20 10.16297
791.30 10.19935
791.40 10.37584
791.50 10.5716
791.60 10.71071
791.70 10.75706
791.80 10.68374
791.90 10.591
792.00 10.56617
792.10 10.63908
792.20 10.74861
792.30 10.83483
792.40 10.88212
792.50 10.88057
792.60 10.87954
792.70 10.90997
792.80 10.95897
792.90 11.03378
793.00 11.15259
793.10 11.3418
793.20 11.60499
793.30 11.87195
793.40 12.01365
793.50 12.0101
793.60 11.9714
793.70 11.94838
793.80 11.92288
793.90 11.86068
794.00 11.73572
794.10 11.55697
794.20 11.37309
794.30 11.28007
794.40 11.35549
794.50 11.5241
794.60 11.58723
794.70 11.40293
794.80 11.04292
794.90 10.74468
795.00 10.70129
795.10 10.98016
795.20 11.41451
795.30 11.79734
795.40 12.09115
795.50 12.25956
795.60 12.32736
795.70 12.37993
795.80 12.40113
795.90 12.37279
796.00 12.30527
796.10 12.1602
796.20 11.9897
796.30 11.91835
796.40 12.01806
796.50 12.30917
796.60 12.59715
796.70 12.63717
796.80 12.51963
796.90 12.49007
797.00 12.6228
797.10 12.81235
797.20 12.92302
797.30 12.93481
797.40 12.9229
797.50 12.91663
797.60 12.87004
797.70 12.78762
797.80 12.72306
797.90 12.7001
798.00 12.72224
798.10 12.73307
798.20 12.65486
798.30 12.51897
798.40 12.42531
798.50 12.42407
798.60 12.45753
798.70 12.41603
798.80 12.27758
798.90 12.15227
799.00 12.14106
799.10 12.28651
799.20 12.59677
799.30 12.92904
799.40 13.09224
799.50 13.0193
799.60 12.76757
799.70 12.55274
799.80 12.5077
799.90 12.53744
800.00 12.59428
800.10 12.71605
800.20 12.86038
800.30 12.97072
800.40 13.05011
800.50 13.09501
800.60 13.11277
800.70 13.13982
800.80 13.20036
800.90 13.28775
801.00 13.37463
801.10 13.43627
801.20 13.50087
801.30 13.59321
801.40 13.70504
801.50 13.81616
801.60 13.86966
801.70 13.87541
801.80 13.88201
801.90 13.89814
802.00 13.95456
802.10 14.00418
802.20 13.94808
802.30 13.83511
802.40 13.77381
802.50 13.84287
802.60 14.04517
802.70 14.20928
802.80 14.22076
802.90 14.18169
803.00 14.22327
803.10 14.35885
803.20 14.50896
803.30 14.61166
803.40 14.63881
803.50 14.62357
803.60 14.60833
803.70 14.57843
803.80 14.54797
803.90 14.5502
804.00 14.56454
804.10 14.58382
804.20 14.62547
804.30 14.68369
804.40 14.78621
804.50 14.92179
804.60 14.99471
804.70 14.95157
804.80 14.81609
804.90 14.68948
805.00 14.73245
805.10 15.01075
805.20 15.39846
805.30 15.72307
805.40 15.897
805.50 15.92958
805.60 15.89612
805.70 15.8474
805.80 15.79861
805.90 15.78895
806.00 15.86105
806.10 15.99826
806.20 16.14601
806.30 16.22083
806.40 16.15489
806.50 15.99635
806.60 15.85978
806.70 15.81968
806.80 15.85735
806.90 15.86527
807.00 15.80351
807.10 15.73834
807.20 15.74389
807.30 15.85847
807.40 16.03654
807.50 16.20051
807.60 16.3122
807.70 16.35139
807.80 16.37291
807.90 16.43869
808.00 16.51277
808.10 16.57375
808.20 16.62005
808.30 16.6572
808.40 16.7332
808.50 16.84275
808.60 16.92888
808.70 16.95698
808.80 16.92626
808.90 16.87578
809.00 16.85661
809.10 16.90054
809.20 16.99727
809.30 17.08944
809.40 17.13212
809.50 17.1114
809.60 17.03843
809.70 16.96126
809.80 16.91032
809.90 16.89514
810.00 16.91542
810.10 16.94929
810.20 16.99092
810.30 17.0257
810.40 17.01801
810.50 16.96065
810.60 16.9064
810.70 16.92219
810.80 17.04279
810.90 17.25115
811.00 17.43047
811.10 17.47041
811.20 17.42163
811.30 17.40122
811.40 17.45458
811.50 17.50441
811.60 17.40123
811.70 17.14124
811.80 16.88781
811.90 16.83606
812.00 17.06493
812.10 17.42165
812.20 17.71055
812.30 17.84938
812.40 17.85837
812.50 17.84565
812.60 17.87964
812.70 17.95312
812.80 18.0471
812.90 18.1255
813.00 18.1565
813.10 18.13811
813.20 18.09333
813.30 18.06682
813.40 18.074
813.50 18.10277
813.60 18.14019
813.70 18.18401
813.80 18.28609
813.90 18.45599
814.00 18.58807
814.10 18.58719
814.20 18.42537
814.30 18.17334
814.40 17.95266
814.50 17.83132
814.60 17.85755
814.70 17.97823
814.80 18.03768
814.90 17.99708
815.00 17.90843
815.10 17.86139
815.20 17.94506
815.30 18.07382
815.40 18.12787
815.50 18.08679
815.60 17.9945
815.70 17.9513
815.80 17.97412
815.90 17.97361
816.00 17.89078
816.10 17.75698
816.20 17.64202
816.30 17.59248
816.40 17.6406
816.50 17.78642
816.60 18.00396
816.70 18.22372
816.80 18.35682
816.90 18.40619
817.00 18.3745
817.10 18.27151
817.20 18.19552
817.30 18.17511
817.40 18.17745
817.50 18.15795
817.60 18.05307
817.70 17.85315
817.80 17.57389
817.90 17.26598
818.00 16.9557
818.10 16.39194
818.20 15.29216
818.30 13.67982
818.40 11.94369
818.50 10.85965
818.60 10.97277
818.70 12.15029
818.80 13.74657
818.90 15.00965
819.00 15.65302
819.10 15.80878
819.20 15.551
819.30 14.75604
819.40 13.3509
819.50 11.59263
819.60 10.14294
819.70 9.624217
819.80 10.17288
819.90 11.45328
820.00 12.87586
820.10 14.04754
820.20 14.94454
820.30 15.65441
820.40 16.17603
820.50 16.43114
820.60 16.38898
820.70 16.16749
820.80 15.97866
820.90 15.97372
821.00 16.18952
821.10 16.49494
821.20 16.73703
821.30 16.86717
821.40 16.87425
821.50 16.81306
821.60 16.77791
821.70 16.79015
821.80 16.82826
821.90 16.88673
822.00 16.93911
822.10 16.9686
822.20 17.02824
822.30 17.12644
822.40 17.23441
822.50 17.39059
822.60 17.56715
822.70 17.67689
822.80 17.70855
822.90 17.68796
823.00 17.71641
823.10 17.89751
823.20 18.10483
823.30 18.13423
823.40 17.94736
823.50 17.66782
823.60 17.51772
823.70 17.60441
823.80 17.84568
823.90 18.13581
824.00 18.40532
824.10 18.60285
824.20 18.66892
824.30 18.57553
824.40 18.36175
824.50 18.18597
824.60 18.22253
824.70 18.46673
824.80 18.83859
824.90 19.17012
825.00 19.25639
825.10 19.0855
825.20 18.76065
825.30 18.38838
825.40 18.082
825.50 17.86811
825.60 17.65981
825.70 17.40387
825.80 17.20342
825.90 17.20932
826.00 17.4499
826.10 17.85399
826.20 18.26593
826.30 18.51612
826.40 18.60995
826.50 18.65376
826.60 18.70944
826.70 18.80326
826.80 18.89257
826.90 18.89602
827.00 18.77269
827.10 18.51038
827.20 18.11626
827.30 17.66647
827.40 17.27835
827.50 17.06478
827.60 17.07485
827.70 17.20791
827.80 17.40115
827.90 17.65898
828.00 17.8472
828.10 17.85837
828.20 17.68319
828.30 17.41581
828.40 17.25772
828.50 17.26247
828.60 17.35496
828.70 17.39022
828.80 17.28161
828.90 17.09701
829.00 16.80194
829.10 16.48531
829.20 16.37974
829.30 16.41908
829.40 16.48049
829.50 16.54284
829.60 16.57139
829.70 16.66785
829.80 16.86565
829.90 17.01821
830.00 16.60565
830.10 16.43885
830.20 16.27205
830.30 16.02771
830.40 15.78337
830.50 15.70834
830.60 15.63331
830.70 15.76871
830.80 15.9041
830.90 16.18032
831.00 16.45654
831.10 16.56415
831.20 16.67176
831.30 16.57762
831.40 16.48348
831.50 16.51074
831.60 16.53801
831.70 16.73757
831.80 16.93713
831.90 17.01089
832.00 17.08465
832.10 17.13352
832.20 17.18239
832.30 17.25264
832.40 17.3229
832.50 17.32335
832.60 17.3238
832.70 16.91119
832.80 16.49857
832.90 16.31265
833.00 16.12673
833.10 16.59968
833.20 17.07263
833.30 17.15038
833.40 17.22814
833.50 16.88207
833.60 16.53601
833.70 16.42507
833.80 16.31413
833.90 16.51639
834.00 16.71865
834.10 16.92299
834.20 17.12734
834.30 17.22243
834.40 17.31753
834.50 17.23734
834.60 17.15715
834.70 16.82437
834.80 16.4916
834.90 16.36215
835.00 16.2327
835.10 16.48081
835.20 16.72892
835.30 16.75599
835.40 16.78306
835.50 16.75514
835.60 16.72722
835.70 16.82328
835.80 16.91935
835.90 17.00396
836.00 17.08858
836.10 17.14578
836.20 17.20299
836.30 17.02966
836.40 16.85634
836.50 16.7125
836.60 16.56867
836.70 16.76157
836.80 16.95447
836.90 17.28391
837.00 17.61335
837.10 17.70471
837.20 17.79607
837.30 17.45251
837.40 17.10895
837.50 16.71066
837.60 16.31236
837.70 16.14938
837.80 15.9864
837.90 16.08396
838.00 16.18152
838.10 16.2992
838.20 16.41688
838.30 16.28495
838.40 16.15302
838.50 15.99278
838.60 15.83253
838.70 15.52785
838.80 15.22317
838.90 15.04053
839.00 14.8579
839.10 15.2099
839.20 15.5619
839.30 15.91236
839.40 16.26283
839.50 16.29806
839.60 16.33329
839.70 16.36253
839.80 16.39176
839.90 16.57973
840.00 16.7677
840.10 16.95453
840.20 17.1133
840.30 17.16645
840.40 17.19811
840.50 17.2411
840.60 17.28618
840.70 17.33488
840.80 17.40035
840.90 17.47494
841.00 17.45965
841.10 17.40622
841.20 17.28731
841.30 17.10835
841.40 17.00053
841.50 17.26647
841.60 17.53331
841.70 17.67019
841.80 17.76954
841.90 17.57574
842.00 17.113
842.10 16.74487
842.20 16.56152
842.30 16.34433
842.40 16.40894
842.50 16.51254
842.60 16.46585
842.70 16.28402
842.80 16.19123
842.90 16.26428
843.00 16.30769
843.10 16.29831
843.20 16.28375
843.30 15.70127
843.40 14.67974
843.50 13.75014
843.60 12.88829
843.70 11.99937
843.80 12.49471
843.90 13.07268
844.00 13.52091
844.10 13.94484
844.20 14.08953
844.30 13.47155
844.40 12.88479
844.50 12.37737
844.60 11.85508
844.70 11.76476
844.80 11.92676
844.90 12.03202
845.00 12.13509
845.10 12.24651
845.20 11.73385
845.30 11.23736
845.40 10.81071
845.50 10.38319
845.60 10.10187
845.70 10.18625
845.80 10.26901
845.90 10.46571
846.00 10.66891
846.10 10.83223
846.20 10.97479
846.30 11.00573
846.40 10.91258
846.50 10.85088
846.60 10.67623
846.70 10.49386
846.80 10.44184
846.90 10.42244
847.00 10.39666
847.10 10.42478
847.20 10.4879
847.30 10.5947
847.40 10.67518
847.50 10.71337
847.60 10.75434
847.70 10.85887
847.80 11.04503
847.90 11.24136
848.00 11.30237
848.10 11.35253
848.20 11.30857
848.30 11.2517
848.40 11.28695
848.50 11.4194
848.60 11.54475
848.70 11.68607
848.80 11.83663
848.90 11.95165
849.00 12.06025
849.10 12.20465
849.20 12.40209
849.30 12.53952
849.40 12.44342
849.50 12.36195
849.60 12.10609
849.70 11.82803
849.80 11.67629
849.90 11.61846
850.00 11.58557
850.10 11.75353
850.20 11.9078
850.30 11.99143
850.40 12.08446
850.50 11.90188
850.60 11.5144
850.70 11.18436
850.80 10.95158
850.90 10.70749
851.00 10.97045
851.10 11.24935
851.20 11.39733
851.30 11.47745
851.40 11.50225
851.50 11.34051
851.60 11.17923
851.70 10.98226
851.80 10.79634
851.90 10.69002
852.00 10.61
852.10 10.56947
852.20 10.64686
852.30 10.73638
852.40 11.03705
852.50 11.32345
852.60 11.5102
852.70 11.67341
852.80 11.78338
852.90 11.80936
853.00 11.84399
853.10 11.91202
853.20 11.9828
853.30 12.06397
853.40 12.14588
853.50 12.23652
853.60 12.3442
853.70 12.45624
853.80 12.4689
853.90 12.45842
854.00 12.44174
854.10 12.44773
854.20 12.49592
854.30 12.53029
854.40 12.55709
854.50 12.65363
854.60 12.72053
854.70 12.88805
854.80 13.09683
854.90 13.27547
855.00 13.39232
855.10 13.49761
855.20 13.57237
855.30 13.65444
855.40 13.68199
855.50 13.69327
855.60 13.74276
855.70 13.82636
855.80 13.84034
855.90 13.57251
856.00 13.31486
856.10 13.10018
856.20 12.88922
856.30 12.88664
856.40 13.07009
856.50 13.27609
856.60 13.58026
856.70 13.88873
856.80 13.91839
856.90 13.92275
857.00 13.81402
857.10 13.634
857.20 13.51233
857.30 13.44639
857.40 13.35775
857.50 13.42995
857.60 13.503
857.70 13.63702
857.80 13.81222
857.90 13.91376
858.00 13.92563
858.10 13.9739
858.20 13.90977
858.30 13.8315
858.40 13.80938
858.50 13.83534
858.60 13.89721
858.70 13.98091
858.80 14.04495
858.90 14.12339
859.00 14.2083
859.10 14.18212
859.20 14.11519
859.30 14.04679
859.40 13.97239
859.50 13.91373
859.60 14.0567
859.70 14.19943
859.80 14.29642
859.90 14.38023
860.00 14.43956
860.10 14.46556
860.20 14.48776
860.30 14.53424
860.40 14.59031
860.50 14.64539
860.60 14.7159
860.70 14.80703
860.80 14.91636
860.90 14.99045
861.00 14.92702
861.10 14.8857
861.20 14.73339
861.30 14.55479
861.40 14.45553
861.50 14.43716
861.60 14.38624
861.70 14.29131
861.80 14.20824
861.90 14.30294
862.00 14.41556
862.10 14.50774
862.20 14.6039
862.30 14.63661
862.40 14.53484
862.50 14.4723
862.60 14.38441
862.70 14.28487
862.80 14.19493
862.90 14.13581
863.00 14.11114
863.10 14.09484
863.20 14.07793
863.30 14.23365
863.40 14.38367
863.50 14.46619
863.60 14.53609
863.70 14.61499
863.80 14.62796
863.90 14.61743
864.00 14.53573
864.10 14.45514
864.20 14.55017
864.30 14.72948
864.40 14.82789
864.50 14.79357
864.60 14.77885
864.70 14.61416
864.80 14.44861
864.90 14.39531
865.00 14.37422
865.10 14.40549
865.20 14.53985
865.30 14.69675
865.40 14.91246
865.50 15.11205
865.60 15.2329
865.70 15.33708
865.80 15.37319
865.90 15.31861
866.00 15.23527
866.10 14.9678
866.20 14.71838
866.30 14.67391
866.40 14.66063
866.50 14.7804
866.60 15.07525
866.70 15.30845
866.80 15.41784
866.90 15.55311
867.00 15.51641
867.10 15.45281
867.20 15.46611
867.30 15.53743
867.40 15.5347
867.50 15.45804
867.60 15.38519
867.70 15.49279
867.80 15.61556
867.90 15.72961
868.00 15.86142
868.10 15.93536
868.20 15.82229
868.30 15.71864
868.40 15.75782
868.50 15.7726
868.60 15.73785
868.70 15.71757
868.80 15.61684
868.90 15.25097
869.00 14.88639
869.10 14.68988
869.20 14.51004
869.30 14.29856
869.40 14.07296
869.50 13.92077
869.60 13.85781
869.70 13.77176
869.80 13.93205
869.90 14.10237
870.00 14.28851
870.10 14.47095
870.20 14.63892
870.30 14.79533
870.40 14.93681
870.50 15.02711
870.60 15.11297
870.70 15.1027
870.80 15.06448
870.90 14.958
871.00 14.73586
871.10 14.55056
871.20 14.42936
871.30 14.27861
871.40 14.31115
871.50 14.39178
871.60 14.38591
871.70 14.30077
871.80 14.26459
871.90 14.31238
872.00 14.35655
872.10 14.49462
872.20 14.64424
872.30 14.81643
872.40 15.00146
872.50 15.17229
872.60 15.2897
872.70 15.38312
872.80 15.78244
872.90 16.19899
873.00 16.30466
873.10 16.21985
873.20 16.10851
873.30 15.80356
873.40 15.49688
873.50 15.43536
873.60 15.37228
873.70 15.37832
873.80 15.43312
873.90 15.50513
874.00 15.59733
874.10 15.67201
874.20 15.96182
874.30 16.26393
874.40 16.60005
874.50 16.93045
874.60 17.05387
874.70 16.93184
874.80 16.84698
874.90 16.51588
875.00 16.19078
875.10 16.29487
875.20 16.51732
875.30 16.71
875.40 16.98075
875.50 17.20183
875.60 17.09744
875.70 17.02029
875.80 17.16556
875.90 17.33432
876.00 17.51627
876.10 17.76068
876.20 17.91484
876.30 17.71563
876.40 17.56165
876.50 17.25934
876.60 16.90896
876.70 16.68312
876.80 16.58181
876.90 16.63998
877.00 17.17502
877.10 17.66428
877.20 18.11977
877.30 18.58403
877.40 18.932
877.50 19.17439
877.60 19.30728
877.70 19.22197
877.80 19.20133
877.90 18.59807
878.00 17.98048
878.10 17.72345
878.20 17.64841
878.30 17.63198
878.40 17.8954
878.50 18.15803
878.60 18.22357
878.70 18.28725
878.80 18.34828
878.90 18.41186
879.00 18.49664
879.10 18.63754
879.20 18.75864
879.30 18.83595
879.40 18.94177
879.50 19.02082
879.60 19.06865
879.70 19.1424
879.80 19.33334
879.90 19.4444
880.00 18.9875
880.10 18.56187
880.20 17.86765
880.30 17.10614
880.40 16.73047
880.50 16.77309
880.60 16.7834
880.70 16.91171
880.80 17.05779
880.90 17.32824
881.00 17.62593
881.10 18.12302
881.20 18.74509
881.30 19.24832
881.40 19.60782
881.50 19.98671
881.60 20.14019
881.70 20.28648
881.80 20.46848
881.90 20.63846
882.00 20.61009
882.10 20.19134
882.20 19.8259
882.30 19.12734
882.40 18.41405
882.50 18.03144
882.60 17.83041
882.70 17.78614
882.80 18.13734
882.90 18.47558
883.00 18.92521
883.10 19.37162
883.20 19.7482
883.30 20.10371
883.40 20.33121
883.50 20.33728
883.60 20.37119
883.70 20.44595
883.80 20.50681
883.90 20.58913
884.00 20.6696
884.10 20.78841
884.20 20.97554
884.30 21.09687
884.40 20.76102
884.50 20.43201
884.60 19.992
884.70 19.53238
884.80 19.22914
884.90 19.07769
885.00 19.04198
885.10 19.51334
885.20 19.91841
885.30 20.66186
885.40 21.45786
885.50 21.71055
885.60 21.57244
885.70 21.33215
885.80 20.49515
885.90 19.70301
886.00 18.58947
886.10 17.43753
886.20 16.61577
886.30 16.01089
886.40 15.68281
886.50 16.17553
886.60 16.62114
886.70 16.9359
886.80 17.275
886.90 16.95801
887.00 16.30978
887.10 15.6547
887.20 14.86235
887.30 14.1139
887.40 14.12773
887.50 14.10794
887.60 14.47587
887.70 14.99876
887.80 15.51683
887.90 16.07408
888.00 16.5906
888.10 16.72551
888.20 16.87767
888.30 16.62735
888.40 16.27872
888.50 16.05109
888.60 15.86369
888.70 15.71333
888.80 16.04253
888.90 16.35196
889.00 16.6788
889.10 17.00458
889.20 17.18351
889.30 17.22281
889.40 17.20945
889.50 16.99313
889.60 16.81031
889.70 16.55398
889.80 16.26519
889.90 16.27184
890.00 16.50929
890.10 16.77029
890.20 17.31029
890.30 17.89302
890.40 18.19028
890.50 18.45677
890.60 18.51115
890.70 18.4768
890.80 18.43178
890.90 18.28209
891.00 18.15505
891.10 17.98086
891.20 17.79161
891.30 17.84329
891.40 18.00106
891.50 18.13366
891.60 18.3454
891.70 18.55485
891.80 18.60698
891.90 18.65553
892.00 18.64237
892.10 18.61879
892.20 18.57305
892.30 18.4885
892.40 18.42849
892.50 18.33484
892.60 18.22961
892.70 18.19695
892.80 18.17193
892.90 18.24733
893.00 18.45172
893.10 18.69211
893.20 19.12894
893.30 19.5547
893.40 19.85147
893.50 20.14167
893.60 19.98603
893.70 19.48436
893.80 18.96044
893.90 18.15471
894.00 17.35765
894.10 17.20855
894.20 17.06184
894.30 17.05654
894.40 17.17465
894.50 17.31707
894.60 17.40891
894.70 17.46175
894.80 17.6888
894.90 17.90222
895.00 17.92481
895.10 17.8799
895.20 17.84484
895.30 17.72908
895.40 17.66025
895.50 17.838
895.60 17.97766
895.70 18.18275
895.80 18.42956
895.90 18.59023
896.00 18.59469
896.10 18.61082
896.20 18.59924
896.30 18.58142
896.40 18.54851
896.50 18.52069
896.60 18.36427
896.70 18.09281
896.80 17.94244
896.90 18.13962
897.00 18.31769
897.10 18.56393
897.20 18.82361
897.30 18.95685
897.40 18.98689
897.50 19.05307
897.60 19.23686
897.70 19.41026
897.80 19.57828
897.90 19.76644
898.00 19.71745
898.10 19.48133
898.20 19.3393
898.30 19.3856
898.40 19.39127
898.50 19.94282
898.60 20.49065
898.70 20.71654
898.80 20.80711
898.90 20.76603
899.00 20.47693
899.10 20.23558
899.20 20.14285
899.30 20.0466
899.40 20.07164
899.50 20.13334
899.60 20.11583
899.70 20.02023
899.80 19.91261
899.90 19.71064
900.00 19.50677
900.10 19.55854
900.20 19.65145
900.30 19.94851
900.40 20.56934
900.50 21.18327
900.60 21.57233
900.70 21.96313
900.80 21.74114
900.90 21.45042
901.00 21.15126
901.10 20.78897
901.20 20.55636
901.30 20.76337
901.40 20.96183
901.50 21.06008
901.60 21.1504
901.70 20.90703
901.80 20.46789
901.90 20.16163
902.00 20.05845
902.10 19.97109
902.20 19.74702
902.30 19.51261
902.40 19.3715
902.50 19.26948
902.60 19.2051
902.70 19.21628
902.80 19.21934
902.90 19.28362
903.00 19.33049
903.10 19.57901
903.20 19.91578
903.30 20.25664
903.40 20.54539
903.50 20.7922
903.60 21.01755
903.70 21.25596
903.80 21.42315
903.90 21.57712
904.00 21.64056
904.10 21.64179
904.20 21.64328
904.30 21.40297
904.40 21.14303
904.50 21.19696
904.60 21.28048
904.70 21.46168
904.80 21.75816
904.90 22.01288
905.00 22.09543
905.10 22.18903
905.20 21.81578
905.30 21.43527
905.40 21.19307
905.50 21.01434
905.60 20.85036
905.70 20.74495
905.80 20.64871
905.90 20.61567
906.00 20.57889
906.10 20.61457
906.20 20.67816
906.30 20.69559
906.40 20.7376
906.50 20.78909
906.60 20.6985
906.70 20.61329
906.80 20.48461
906.90 20.35016
907.00 20.29289
907.10 20.28769
907.20 20.27741
907.30 20.53299
907.40 20.80016
907.50 20.91659
907.60 21.00492
907.70 21.16881
907.80 21.37956
907.90 21.58663
908.00 21.88331
908.10 22.18512
908.20 22.13597
908.30 22.06289
908.40 22.01608
908.50 21.94045
908.60 21.79567
908.70 21.62438
908.80 21.44823
908.90 21.16832
909.00 20.87858
909.10 20.92285
909.20 21.16062
909.30 21.4097
909.40 21.70691
909.50 22.00807
909.60 22.17301
909.70 22.32297
909.80 22.48951
909.90 22.65607
910.00 22.78334
910.10 22.887
910.20 23.0047
910.30 22.92449
910.40 22.82809
910.50 22.57092
910.60 22.27168
910.70 22.06758
910.80 21.95796
910.90 21.89535
911.00 22.15118
911.10 22.40342
911.20 22.62832
911.30 22.84899
911.40 22.98321
911.50 23.06605
911.60 23.1106
911.70 22.93821
911.80 22.76363
911.90 22.7784
912.00 22.81495
912.10 22.92365
912.20 23.08706
912.30 23.20755
912.40 23.21465
912.50 23.21678
912.60 23.14424
912.70 23.05706
912.80 23.02421
912.90 23.03432
913.00 23.09268
913.10 23.1965
913.20 23.31443
913.30 23.51204
913.40 23.70718
913.50 23.82484
913.60 23.91486
913.70 23.81791
913.80 23.4541
913.90 23.0672
914.00 22.51447
914.10 21.98625
914.20 22.0779
914.30 22.27135
914.40 22.57659
914.50 23.04821
914.60 23.41594
914.70 23.44775
914.80 23.50863
914.90 23.23435
915.00 22.9289
915.10 22.80253
915.20 22.78145
915.30 22.8341
915.40 23.23522
915.50 23.5922
915.60 24.00475
915.70 24.42771
915.80 24.56594
915.90 24.55682
916.00 24.53219
916.10 24.29045
916.20 24.04351
916.30 23.78276
916.40 23.51347
916.50 23.54944
916.60 23.70832
916.70 23.86173
916.80 24.09123
916.90 24.31097
917.00 24.20267
917.10 24.09494
917.20 24.04131
917.30 24.00032
917.40 23.9673
917.50 23.91175
917.60 23.85213
917.70 23.79228
917.80 23.71615
917.90 23.73105
918.00 23.76607
918.10 23.85215
918.20 23.97495
918.30 24.05688
918.40 24.01145
918.50 23.97116
918.60 23.87237
918.70 23.76549
918.80 23.96205
918.90 24.33693
919.00 24.64502
919.10 25.01013
919.20 25.44934
919.30 25.14863
919.40 24.86662
919.50 24.64368
919.60 24.41349
919.70 24.34219
919.80 24.67607
919.90 24.97872
920.00 25.04257
920.10 25.13672
920.20 25.11179
920.30 25.02559
920.40 24.93322
920.50 24.89709
920.60 24.8578
920.70 24.55481
920.80 24.26987
920.90 23.68582
921.00 23.02822
921.10 22.75382
921.20 22.83823
921.30 22.94089
921.40 23.28009
921.50 23.59413
921.60 23.75187
921.70 23.89187
921.80 23.94791
921.90 23.95892
922.00 23.96737
922.10 23.75506
922.20 23.51964
922.30 23.35192
922.40 23.18847
922.50 23.12843
922.60 23.11233
922.70 23.07293
922.80 23.0862
922.90 23.0721
923.00 22.85271
923.10 22.6607
923.20 22.35812
923.30 22.00153
923.40 21.84707
923.50 21.98585
923.60 22.08307
923.70 22.15357
923.80 22.22242
923.90 22.28657
924.00 22.34924
924.10 22.58763
924.20 22.98541
924.30 23.26404
924.40 23.48723
924.50 23.77556
924.60 23.39194
924.70 22.92921
924.80 22.6004
924.90 22.31559
925.00 22.05718
925.10 21.98603
925.20 21.89837
925.30 21.96745
925.40 22.04574
925.50 22.3266
925.60 22.72172
925.70 23.04911
925.80 23.39215
925.90 23.74755
926.00 23.60752
926.10 23.49338
926.20 23.36641
926.30 23.22428
926.40 23.21855
926.50 23.38162
926.60 23.50974
926.70 23.76786
926.80 24.02111
926.90 24.05229
927.00 24.02506
927.10 23.8956
927.20 23.62678
927.30 23.38007
927.40 23.12595
927.50 22.88085
927.60 22.65092
927.70 22.42026
927.80 22.18739
927.90 21.96387
928.00 21.81378
928.10 21.85682
928.20 21.87073
928.30 22.205
928.40 22.5608
928.50 22.71397
928.60 22.75062
928.70 22.7089
928.80 22.41728
928.90 22.13216
929.00 22.00669
929.10 21.87693
929.20 21.77605
929.30 21.69428
929.40 21.68082
929.50 21.78873
929.60 21.87779
929.70 21.88025
929.80 21.90755
929.90 21.66629
930.00 21.35452
930.10 21.14098
930.20 21.09967
930.30 21.09396
930.40 21.11981
930.50 21.2061
930.60 21.27903
930.70 21.37504
930.80 21.53139
930.90 21.6723
931.00 21.83716
931.10 22.08043
931.20 22.28484
931.30 22.37874
931.40 22.44947
931.50 22.52247
931.60 22.34621
931.70 22.27071
931.80 22.17577
931.90 22.01944
932.00 21.81338
932.10 21.75413
932.20 21.81849
932.30 21.88921
932.40 21.95661
932.50 22.02219
932.60 22.08558
932.70 22.03146
932.80 21.9801
932.90 21.96613
933.00 22.00763
933.10 22.03115
933.20 21.97778
933.30 21.89218
933.40 21.8376
933.50 21.82614
933.60 21.80292
933.70 21.8031
933.80 21.90836
933.90 22.03625
934.00 22.13178
934.10 22.18688
934.20 22.24941
934.30 22.18156
934.40 22.08606
934.50 21.99156
934.60 22.07622
934.70 22.1707
934.80 22.21521
934.90 22.1266
935.00 22.06198
935.10 21.98435
935.20 21.90349
935.30 21.79108
935.40 21.78128
935.50 21.76969
935.60 21.74846
935.70 21.74433
935.80 21.74852
935.90 21.83508
936.00 21.97556
936.10 22.08523
936.20 22.24268
936.30 22.42274
936.40 22.60634
936.50 22.46358
936.60 22.31672
936.70 22.13858
936.80 21.87751
936.90 21.60056
937.00 21.32188
937.10 21.05348
937.20 20.82412
937.30 20.96409
937.40 21.13739
937.50 21.30241
937.60 21.56599
937.70 21.83663
937.80 22.04239
937.90 22.16834
938.00 22.2646
938.10 22.1797
938.20 22.0487
938.30 21.96891
938.40 22.07404
938.50 22.16523
938.60 22.20776
938.70 22.21426
938.80 22.21604
938.90 22.23472
939.00 22.25938
939.10 22.27909
939.20 22.3467
939.30 22.42602
939.40 22.4896
939.50 22.43422
939.60 22.39279
939.70 22.26643
939.80 22.04593
939.90 21.81868
940.00 21.84013
940.10 21.93212
940.20 21.98011
940.30 22.07324
940.40 22.18487
940.50 22.33209
940.60 22.48508
940.70 22.60802
940.80 22.76565
940.90 22.95326
941.00 23.13625
941.10 23.13845
941.20 23.13286
941.30 23.1193
941.40 22.8828
941.50 22.65775
941.60 22.4984
941.70 22.41544
941.80 22.28056
941.90 22.37608
942.00 22.55572
942.10 22.75845
942.20 22.82316
942.30 22.88947
942.40 22.93437
942.50 22.9578
942.60 22.97619
942.70 22.96646
942.80 22.94316
942.90 22.92801
943.00 23.02455
943.10 23.12419
943.20 23.18367
943.30 23.28302
943.40 23.41804
943.50 23.4851
943.60 23.45645
943.70 23.42906
943.80 23.22043
943.90 22.94382
944.00 22.66843
944.10 22.51299
944.20 22.35062
944.30 22.22421
944.40 22.17208
944.50 22.14653
944.60 22.18274
944.70 22.24823
944.80 22.2701
944.90 22.34489
945.00 22.42961
945.10 22.53319
945.20 22.68732
945.30 22.84363
945.40 22.95322
945.50 23.0277
945.60 23.09407
945.70 23.06697
945.80 23.00449
945.90 22.97226
946.00 23.01193
946.10 23.03559
946.20 23.09901
946.30 23.27592
946.40 23.42678
946.50 23.3937
946.60 23.25483
946.70 23.19229
946.80 23.2798
946.90 23.37901
947.00 23.46739
947.10 23.56833
947.20 23.6758
947.30 23.73716
947.40 23.75085
947.50 23.75772
947.60 23.80615
947.70 23.86805
947.80 23.92464
947.90 24.08285
948.00 24.23694
948.10 24.35216
948.20 24.35436
948.30 24.35763
948.40 24.39154
948.50 24.44166
948.60 24.47253
948.70 24.40523
948.80 24.3287
948.90 24.31316
949.00 24.47221
949.10 24.61903
949.20 24.66164
949.30 24.59292
949.40 24.56034
949.50 24.40634
949.60 24.20826
949.70 24.02319
949.80 24.19229
949.90 24.34685
950.00 24.45643
950.10 24.52031
950.20 24.56831
950.30 24.52768
950.40 24.4263
950.50 24.38944
950.60 24.3538
950.70 24.31253
950.80 24.27797
950.90 24.37588
951.00 24.45898
951.10 24.48966
951.20 24.4769
951.30 24.48513
951.40 24.37035
951.50 24.21088
951.60 24.0542
951.70 24.06032
951.80 24.06886
951.90 24.1029
952.00 24.18957
952.10 24.2715
952.20 24.40608
952.30 24.56643
952.40 24.69694
952.50 24.92726
952.60 25.17376
952.70 25.37313
952.80 25.33868
952.90 25.31632
953.00 25.32083
953.10 25.35757
953.20 25.40315
953.30 25.30089
953.40 25.14995
953.50 25
953.60 24.8629
953.70 24.72357
953.80 24.62642
953.90 24.57604
954.00 24.49959
954.10 24.49685
954.20 24.56141
954.30 24.64439
954.40 24.67255
954.50 24.69898
954.60 24.71595
954.70 24.57253
954.80 24.4185
954.90 24.4147
955.00 24.59814
955.10 24.76834
955.20 24.90652
955.30 25.0363
955.40 25.18004
955.50 25.28856
955.60 25.38608
955.70 25.4879
955.80 25.59717
955.90 25.71583
956.00 25.78005
956.10 25.8189
956.20 25.86817
956.30 25.6516
956.40 25.42193
956.50 25.27937
956.60 25.33457
956.70 25.33896
956.80 25.38752
956.90 25.50467
957.00 25.6755
957.10 25.71214
957.20 25.7044
957.30 25.64731
957.40 25.33515
957.50 25.0394
957.60 24.82656
957.70 24.71838
957.80 24.61301
957.90 24.67115
958.00 24.8127
958.10 24.90224
958.20 25.04009
958.30 25.19179
958.40 25.31186
958.50 25.24875
958.60 25.19775
958.70 25.04416
958.80 24.80333
958.90 24.5786
959.00 24.37282
959.10 24.16721
959.20 23.98746
959.30 24.12926
959.40 24.25752
959.50 24.23867
959.60 24.01517
959.70 23.86126
959.80 23.53644
959.90 23.13076
960.00 22.71229
960.10 22.79836
960.20 22.88818
960.30 23.08258
960.40 23.69564
960.50 24.27864
960.60 24.6075
960.70 24.7402
960.80 24.91106
960.90 24.90329
961.00 24.87107
961.10 24.8568
961.20 24.72627
961.30 24.59619
961.40 24.51413
961.50 24.49554
961.60 24.4788
961.70 24.67123
961.80 24.94698
961.90 25.17489
962.00 25.29847
962.10 25.42506
962.20 25.48439
962.30 25.37336
962.40 25.2901
962.50 25.36203
962.60 25.55264
962.70 25.70666
962.80 25.6581
962.90 25.57917
963.00 25.5179
963.10 25.41122
963.20 25.3189
963.30 25.20127
963.40 25.06791
963.50 24.94743
963.60 24.40183
963.70 23.69274
963.80 23.0524
963.90 22.4698
964.00 21.85472
964.10 21.63195
964.20 22.3822
964.30 23.04155
964.40 23.51372
964.50 23.87735
964.60 24.33515
964.70 24.11007
964.80 23.8133
964.90 23.60375
965.00 23.67441
965.10 23.74397
965.20 23.8722
965.30 24.07983
965.40 24.26944
965.50 24.46113
965.60 24.65651
965.70 24.8688
965.80 25.00293
965.90 25.13132
966.00 25.26163
966.10 25.4098
966.20 25.55182
966.30 25.63782
966.40 25.69554
966.50 25.76779
966.60 25.71233
966.70 25.66162
966.80 25.6472
966.90 25.63963
967.00 25.59932
967.10 25.51747
967.20 25.41299
967.30 25.34999
967.40 24.87568
967.50 24.30208
967.60 23.79482
967.70 23.57456
967.80 23.31453
967.90 23.43259
968.00 24.20464
968.10 24.92379
968.20 25.26684
968.30 25.42349
968.40 25.64703
968.50 25.41832
968.60 25.17547
968.70 24.89787
968.80 24.49884
968.90 24.11485
969.00 24.01963
969.10 24.14651
969.20 24.21658
969.30 24.71349
969.40 25.28659
969.50 25.79126
969.60 26.00509
969.70 26.24566
969.80 26.38046
969.90 26.35338
970.00 26.32243
970.10 26.19314
970.20 26.01905
970.30 25.85406
970.40 25.28595
970.50 24.75118
970.60 24.32719
970.70 24.05906
970.80 23.74316
970.90 24.03923
971.00 24.77378
971.10 25.40268
971.20 25.85799
971.30 26.294
971.40 26.69389
971.50 26.77414
971.60 26.86811
971.70 26.81713
971.80 26.60044
971.90 26.4163
972.00 26.19903
972.10 25.97843
972.20 25.7817
972.30 25.88377
972.40 25.96525
972.50 25.95253
972.60 25.79617
972.70 25.6619
972.80 25.20093
972.90 24.55502
973.00 23.96542
973.10 23.99645
973.20 24.0411
973.30 24.08549
973.40 24.44137
973.50 24.79788
973.60 24.98331
973.70 25.00736
973.80 25.08033
973.90 25.13593
974.00 25.19083
974.10 25.21805
974.20 24.97175
974.30 24.74345
974.40 24.52489
974.50 24.29662
974.60 24.04419
974.70 24.15142
974.80 24.41045
974.90 24.57978
975.00 24.7397
975.10 24.92196
975.20 25.11168
975.30 25.22225
975.40 25.32112
975.50 25.40945
975.60 25.47888
975.70 25.57334
975.80 25.64216
975.90 25.69934
976.00 25.71283
976.10 25.65355
976.20 25.61889
976.30 25.64925
976.40 25.74043
976.50 25.80892
976.60 25.8993
976.70 25.99089
976.80 26.08459
976.90 25.69995
977.00 25.33752
977.10 25.03684
977.20 24.83299
977.30 24.60221
977.40 24.78402
977.50 25.20892
977.60 25.5571
977.70 25.70606
977.80 25.84774
977.90 25.93665
978.00 25.73178
978.10 25.55401
978.20 25.11787
978.30 24.39574
978.40 23.73413
978.50 23.46444
978.60 23.28034
978.70 23.0467
978.80 23.27216
978.90 23.50453
979.00 23.86092
979.10 24.43535
979.20 24.95821
979.30 25.47052
979.40 25.97183
979.50 26.48978
979.60 26.49657
979.70 26.51225
979.80 26.56135
979.90 26.54247
980.00 26.49295
980.10 26.46408
980.20 26.46632
980.30 26.4788
980.40 26.40952
980.50 26.32651
980.60 26.24511
980.70 26.16255
980.80 26.07864
980.90 26.06787
981.00 26.14579
981.10 26.2121
981.20 26.17864
981.30 26.1063
981.40 26.03595
981.50 25.77259
981.60 25.52264
981.70 25.40819
981.80 25.5244
981.90 25.59447
982.00 25.64561
982.10 25.67745
982.20 25.73732
982.30 25.77329
982.40 25.80633
982.50 25.84913
982.60 25.95308
982.70 26.0453
982.80 26.04918
982.90 25.96819
983.00 25.91769
983.10 25.81067
983.20 25.68868
983.30 25.56877
983.40 25.52093
983.50 25.47561
983.60 25.42655
983.70 25.37776
983.80 25.33594
983.90 25.46032
984.00 25.65594
984.10 25.81245
984.20 25.91587
984.30 26.02341
984.40 26.08359
984.50 26.01296
984.60 25.93829
984.70 25.9749
984.80 26.08021
984.90 26.18466
985.00 26.09216
985.10 25.97986
985.20 25.89557
985.30 25.82063
985.40 25.72787
985.50 25.79842
985.60 26.06799
985.70 26.31345
985.80 26.35083
985.90 26.32372
986.00 26.32643
986.10 26.29365
986.20 26.25835
986.30 26.25446
986.40 26.32091
986.50 26.36951
986.60 26.32937
986.70 26.23707
986.80 26.19188
986.90 26.01616
987.00 25.82824
987.10 25.72033
987.20 25.90131
987.30 26.03297
987.40 26.1801
987.50 26.33937
987.60 26.52718
987.70 26.44524
987.80 26.31172
987.90 26.19633
988.00 26.02704
988.10 25.85557
988.20 25.85246
988.30 26.08183
988.40 26.27267
988.50 26.48356
988.60 26.69783
988.70 26.91696
988.80 26.87589
988.90 26.84155
989.00 26.78483
989.10 26.65549
989.20 26.53098
989.30 26.27171
989.40 25.91431
989.50 25.58647
989.60 24.70728
989.70 23.77586
989.80 22.96708
989.90 22.45593
990.00 21.88961
990.10 21.48852
990.20 21.28694
990.30 21.08636
990.40 20.49376
990.50 19.79291
990.60 19.14194
990.70 18.75283
990.80 18.34944
990.90 18.16452
991.00 18.34022
991.10 18.47279
991.20 18.54694
991.30 18.59108
991.40 18.66573
991.50 18.35927
991.60 18.04095
991.70 17.88623
991.80 18.15958
991.90 18.38248
992.00 18.70493
992.10 19.10358
992.20 19.53406
992.30 19.34057
992.40 19.05799
992.50 18.86679
992.60 18.89822
992.70 18.87584
992.80 19.10896
992.90 19.68975
993.00 20.252
993.10 20.6217
993.20 20.92455
993.30 21.23677
993.40 20.86941
993.50 20.50921
993.60 20.43949
993.70 20.90024
993.80 21.30057
993.90 21.83304
994.00 22.4238
994.10 23.02168
994.20 23.05983
994.30 23.07771
994.40 23.08044
994.50 22.89734
994.60 22.71224
994.70 22.72061
994.80 22.89617
994.90 23.02579
995.00 23.30171
995.10 23.61354
995.20 23.92028
995.30 24.09808
995.40 24.27118
995.50 24.21702
995.60 23.8607
995.70 23.57185
995.80 23.31652
995.90 23.07702
996.00 22.81075
996.10 22.83628
996.20 22.84702
996.30 23.02214
996.40 23.58122
996.50 24.10838
996.60 24.44331
996.70 24.64774
996.80 24.92364
996.90 24.0836
997.00 23.17108
997.10 22.39541
997.20 21.87845
997.30 21.31567
997.40 21.20524
997.50 21.54463
997.60 21.80337
997.70 22.1884
997.80 22.59465
997.90 22.97516
998.00 23.23313
998.10 23.49618
998.20 23.53755
998.30 23.25585
998.40 23.05352
998.50 22.78973
998.60 22.50058
998.70 22.19771
998.80 22.25587
998.90 22.3003
999.00 22.28053
999.10 22.18861
999.20 22.1157
999.30 22.2558
999.40 22.53463
999.50 22.772
999.60 22.74033
999.70 22.68967
999.80 22.70941
999.90 22.92246
1000.00 23.09049
1000.10 23.42394
1000.20 23.91084
1000.30 24.38818
1000.40 24.57715
1000.50 24.70558
1000.60 24.8181
1000.70 24.4667
1000.80 24.14111
1000.90 23.75436
1001.00 23.26872
1001.10 22.79985
1001.20 22.78888
1001.30 22.96563
1001.40 23.06447
1001.50 23.57042
1001.60 24.07018
1001.70 24.47916
1001.80 24.70403
1001.90 24.96738
1002.00 24.90418
1002.10 24.63701
1002.20 24.40565
1002.30 24.57296
1002.40 24.76188
1002.50 24.88988
1002.60 24.9356
1002.70 25.00027
1002.80 24.85505
1002.90 24.52225
1003.00 24.23779
1003.10 24.17289
1003.20 24.15542
1003.30 24.09217
1003.40 23.81599
1003.50 23.54605
1003.60 23.33195
1003.70 23.19216
1003.80 23.05431
1003.90 23.30341
1004.00 23.70328
1004.10 24.02578
1004.20 24.47404
1004.30 24.91943
1004.40 25.24662
1004.50 25.31542
1004.60 25.44398
1004.70 25.29362
1004.80 24.95916
1004.90 24.66222
1005.00 23.96112
1005.10 23.22898
1005.20 22.55907
1005.30 22.03248
1005.40 21.48195
1005.50 21.24496
1005.60 21.3135
1005.70 21.32728
1005.80 21.67636
1005.90 22.09419
1006.00 22.4657
1006.10 22.72812
1006.20 23.01593
1006.30 23.17794
1006.40 23.14984
1006.50 23.12576
1006.60 23.44998
1006.70 23.91471
1006.80 24.32808
1006.90 24.61635
1007.00 24.92483
1007.10 25.02868
1007.20 24.66084
1007.30 24.32948
1007.40 24.3386
1007.50 24.55817
1007.60 24.71569
1007.70 25.04553
1007.80 25.38932
1007.90 25.63935
1008.00 25.57587
1008.10 25.5345
1008.20 25.55389
1008.30 25.61995
1008.40 25.69673
1008.50 25.86977
1008.60 26.05956
1008.70 26.16436
1008.80 25.76307
1008.90 25.40278
1009.00 25.0655
1009.10 24.73108
1009.20 24.38856
1009.30 24.41655
1009.40 24.58901
1009.50 24.69756
1009.60 25.06552
1009.70 25.43097
1009.80 25.82557
1009.90 26.28139
1010.00 26.7355
1010.10 27.12311
1010.20 27.46394
1010.30 27.80232
1010.40 27.61717
1010.50 27.39877
1010.60 27.19607
1010.70 26.87234
1010.80 26.55008
1010.90 26.19209
1011.00 25.79041
1011.10 25.40879
1011.20 25.06939
1011.30 24.73933
1011.40 24.423
1011.50 24.36277
1011.60 24.29695
1011.70 24.21765
1011.80 24.13437
1011.90 24.04991
1012.00 24.42128
1012.10 24.97514
1012.20 25.44219
1012.30 25.83917
1012.40 26.25255
1012.50 26.5426
1012.60 26.51298
1012.70 26.54136
1012.80 26.5593
1012.90 26.58784
1013.00 26.57626
1013.10 26.54059
1013.20 26.511
1013.30 26.36766
1013.40 25.69807
1013.50 25.07463
1013.60 24.45082
1013.70 23.83799
1013.80 23.20523
1013.90 23.26576
1014.00 23.47173
1014.10 23.64681
1014.20 24.16017
1014.30 24.65894
1014.40 24.91402
1014.50 24.83412
1014.60 24.82163
1014.70 24.60178
1014.80 24.3062
1014.90 24.03653
1015.00 24.53774
1015.10 24.98328
1015.20 25.31959
1015.30 25.5556
1015.40 25.85916
1015.50 25.63736
1015.60 25.0826
1015.70 24.62451
1015.80 24.38276
1015.90 24.15262
1016.00 23.99204
1016.10 24.23013
1016.20 24.43311
1016.30 24.56658
1016.40 24.64646
1016.50 24.76095
1016.60 25.04547
1016.70 25.36598
1016.80 25.60068
1016.90 25.32746
1017.00 25.08594
1017.10 24.86165
1017.20 24.65476
1017.30 24.43478
1017.40 24.88125
1017.50 25.59249
1017.60 26.2219
1017.70 26.19264
1017.80 26.20706
1017.90 26.08584
1018.00 25.57748
1018.10 25.08614
1018.20 24.81225
1018.30 24.65718
1018.40 24.45436
1018.50 24.20463
1018.60 23.95298
1018.70 23.81676
1018.80 24.10411
1018.90 24.34141
1019.00 24.69162
1019.10 25.14713
1019.20 25.61652
1019.30 25.68895
1019.40 25.67877
1019.50 25.69721
1019.60 25.73088
1019.70 25.75221
1019.80 25.72108
1019.90 25.61194
1020.00 25.51666
1020.10 25.41691
1020.20 25.3158
1020.30 25.20248
1020.40 25.33956
1020.50 25.47501
1020.60 25.62609
1020.70 25.82239
1020.80 26.02459
1020.90 26.04631
1021.00 25.95247
1021.10 25.8708
1021.20 25.54204
1021.30 25.20574
1021.40 24.89862
1021.50 24.59875
1021.60 24.28722
1021.70 24.0076
1021.80 23.7536
1021.90 23.4868
1022.00 23.38101
1022.10 23.31132
1022.20 23.29822
1022.30 23.82084
1022.40 24.28974
1022.50 24.68538
1022.60 24.98989
1022.70 25.34863
1022.80 25.43709
1022.90 25.41951
1023.00 25.39585
1023.10 25.19
1023.20 24.99738
1023.30 24.92161
1023.40 24.99945
1023.50 25.01525
1023.60 25.24846
1023.70 25.56579
1023.80 25.87485
1023.90 26.0132
1024.00 26.16535
1024.10 26.35316
1024.20 26.55196
1024.30 26.73646
1024.40 26.60506
1024.50 26.28253
1024.60 26.05114
1024.70 25.86701
1024.80 25.67278
1024.90 25.44651
1025.00 25.21426
1025.10 24.99953
1025.20 24.73548
1025.30 24.42831
1025.40 24.11586
1025.50 24.25371
1025.60 24.48664
1025.70 24.61099
1025.80 24.32796
1025.90 24.10456
1026.00 23.77142
1026.10 23.23803
1026.20 22.69838
1026.30 22.6029
1026.40 22.68461
1026.50 22.70223
1026.60 23.37408
1026.70 24.01076
1026.80 24.58369
1026.90 25.08089
1027.00 25.62959
1027.10 25.74716
1027.20 25.60696
1027.30 25.526
1027.40 25.16653
1027.50 24.78238
1027.60 24.46103
1027.70 24.38147
1027.80 24.27455
1027.90 24.17418
1028.00 24.06463
1028.10 23.98439
1028.20 23.66419
1028.30 23.29216
1028.40 22.98899
1028.50 23.22838
1028.60 23.40593
1028.70 23.79821
1028.80 24.50395
1028.90 25.17621
1029.00 25.29723
1029.10 25.21744
1029.20 25.23029
1029.30 25.04345
1029.40 24.84683
1029.50 24.74853
1029.60 24.84611
1029.70 24.90868
1029.80 24.83915
1029.90 24.69944
1030.00 24.59462
1030.10 24.52379
1030.20 24.45891
1030.30 24.46191
1030.40 24.71315
1030.50 24.90652
1030.60 25.15221
1030.70 25.42315
1030.80 25.73285
1030.90 25.56636
1031.00 25.36524
1031.10 25.27386
1031.20 25.46843
1031.30 25.61612
1031.40 25.70995
1031.50 25.75533
1031.60 25.82842
1031.70 25.51934
1031.80 25.12698
1031.90 24.80858
1032.00 24.81384
1032.10 24.785
1032.20 24.67305
1032.30 24.46677
1032.40 24.29981
1032.50 24.28537
1032.60 24.34033
1032.70 24.35997
1032.80 24.9729
1032.90 25.56966
1033.00 26.10284
1033.10 26.55713
1033.20 27.04114
1033.30 27.07615
1033.40 26.83435
1033.50 26.66156
1033.60 25.99633
1033.70 25.29858
1033.80 24.71653
1033.90 24.46161
1034.00 24.15016
1034.10 23.93106
1034.20 23.7872
1034.30 23.62085
1034.40 23.27114
1034.50 22.88921
1034.60 22.60854
1034.70 23.04644
1034.80 23.43989
1034.90 23.77037
1035.00 24.02559
1035.10 24.349
1035.20 24.44091
1035.30 24.44338
1035.40 24.43616
1035.50 24.66092
1035.60 24.88535
1035.70 25.14119
1035.80 25.48099
1035.90 25.81115
1036.00 26.14368
1036.10 26.46606
1036.20 26.76263
1036.30 26.77299
1036.40 26.77216
1036.50 26.77862
1036.60 26.74667
1036.70 26.71292
1036.80 26.77037
1036.90 26.88625
1037.00 26.97679
1037.10 27.27327
1037.20 27.59265
1037.30 27.83532
1037.40 27.79628
1037.50 27.78456
1037.60 27.5033
1037.70 26.96504
1037.80 26.49275
1037.90 25.8802
1038.00 25.23392
1038.10 24.64521
1038.20 24.62079
1038.30 24.53715
1038.40 24.70341
1038.50 25.24102
1038.60 25.74046
1038.70 25.94546
1038.80 26.03111
1038.90 26.15499
1039.00 25.98275
1039.10 25.8196
1039.20 25.66369
1039.30 25.49998
1039.40 25.33062
1039.50 25.08473
1039.60 24.79089
1039.70 24.51003
1039.80 24.61463
1039.90 24.74552
1040.00 24.93063
1040.10 25.42949
1040.20 25.90865
1040.30 26.30284
1040.40 26.60168
1040.50 26.92178
1040.60 27.07141
1040.70 27.1871
1040.80 27.28864
1040.90 27.1498
1041.00 27.02551
1041.10 26.70545
1041.20 26.12716
1041.30 25.60017
1041.40 25.41999
1041.50 25.31465
1041.60 25.26362
1041.70 25.99904
1041.80 26.69027
1041.90 27.17978
1042.00 27.40886
1042.10 27.7085
1042.20 27.45265
1042.30 26.98544
1042.40 26.57644
1042.50 26.02506
1042.60 25.48376
1042.70 25.00035
1042.80 24.6481
1042.90 24.2546
1043.00 24.40426
1043.10 24.87958
1043.20 25.24613
1043.30 25.98254
1043.40 26.76773
1043.50 27.40712
1043.60 27.45677
1043.70 27.5677
1043.80 27.57161
1043.90 27.48306
1044.00 27.38015
1044.10 27.36899
1044.20 27.37933
1044.30 27.39127
1044.40 27.43519
1044.50 27.48605
1044.60 27.47446
1044.70 27.3639
1044.80 27.23209
1044.90 27.42963
1045.00 27.75819
1045.10 28.07272
1045.20 28.47508
1045.30 28.89357
1045.40 29.21106
1045.50 29.29142
1045.60 29.38289
1045.70 29.14303
1045.80 28.78004
1045.90 28.46843
1046.00 27.97691
1046.10 27.48146
1046.20 27.0721
1046.30 26.87195
1046.40 26.64032
1046.50 26.42372
1046.60 26.20021
1046.70 25.9959
1046.80 25.70119
1046.90 25.39463
1047.00 25.14773
1047.10 25.16496
1047.20 25.15125
1047.30 25.28058
1047.40 25.53765
1047.50 25.78916
1047.60 25.9007
1047.70 25.977
1047.80 26.02796
1047.90 25.90321
1048.00 25.7867
1048.10 25.81808
1048.20 26.05907
1048.30 26.25876
1048.40 26.50142
1048.50 26.75222
1048.60 27.00267
1048.70 26.92714
1048.80 26.86673
1048.90 26.85098
1049.00 26.92222
1049.10 26.99333
1049.20 27.07516
1049.30 27.15447
1049.40 27.23336
1049.50 26.80347
1049.60 26.35045
1049.70 25.97355
1049.80 25.70638
1049.90 25.38083
1050.00 25.54205
1050.10 26.00506
1050.20 26.40846
1050.30 26.57308
1050.40 26.73106
1050.50 26.8591
1050.60 26.76477
1050.70 26.67484
1050.80 26.60999
1050.90 26.56946
1051.00 26.51072
1051.10 26.17898
1051.20 25.80146
1051.30 25.47908
1051.40 25.26294
1051.50 25.0209
1051.60 24.9482
1051.70 25.11306
1051.80 25.23536
1051.90 25.2594
1052.00 25.24928
1052.10 25.25954
1052.20 25.38192
1052.30 25.49855
1052.40 25.71066
1052.50 26.12248
1052.60 26.49373
1052.70 26.79163
1052.80 27.0412
1052.90 27.30407
1053.00 27.14587
1053.10 26.96678
1053.20 26.84727
1053.30 26.83302
1053.40 26.78342
1053.50 26.82425
1053.60 26.90594
1053.70 26.9884
1053.80 26.81787
1053.90 26.63878
1054.00 26.52724
1054.10 26.61641
1054.20 26.66325
1054.30 26.7057
1054.40 26.72496
1054.50 26.76731
1054.60 26.46599
1054.70 26.10229
1054.80 25.81048
1054.90 25.83892
1055.00 25.82315
1055.10 25.98519
1055.20 26.39372
1055.30 26.77843
1055.40 26.75308
1055.50 26.57505
1055.60 26.43831
1055.70 26.04872
1055.80 25.66519
1055.90 25.32324
1056.00 25.04526
1056.10 24.75881
1056.20 24.69323
1056.30 24.76349
1056.40 24.79487
1056.50 24.95567
1056.60 25.12418
1056.70 25.26154
1056.80 25.29963
1056.90 25.36101
1057.00 25.41509
1057.10 25.46919
1057.20 25.52068
1057.30 25.71444
1057.40 25.91481
1057.50 26.08797
1057.60 26.21877
1057.70 26.36746
1057.80 26.43783
1057.90 26.43577
1058.00 26.44584
1058.10 26.51657
1058.20 26.59697
1058.30 26.62214
1058.40 26.24862
1058.50 25.91319
1058.60 25.60455
1058.70 25.32236
1058.80 25.0102
1058.90 25.01614
1059.00 25.14865
1059.10 25.25887
1059.20 25.34152
1059.30 25.42291
1059.40 25.56461
1059.50 25.81754
1059.60 26.04548
1059.70 26.13058
1059.80 26.13158
1059.90 26.17762
1060.00 25.99192
1060.10 25.78353
1060.20 25.62271
1060.30 25.54987
1060.40 25.47764
1060.50 25.34679
1060.60 25.18362
1060.70 25.02073
1060.80 24.89998
1060.90 24.78037
1061.00 24.73798
1061.10 24.99272
1061.20 25.21266
1061.30 25.48401
1061.40 25.80816
1061.50 26.15035
1061.60 26.22151
1061.70 26.23228
1061.80 26.23205
1061.90 26.0042
1062.00 25.77543
1062.10 25.62596
1062.20 25.61342
1062.30 25.59905
1062.40 25.74076
1062.50 25.93065
1062.60 26.08902
1062.70 26.49079
1062.80 26.88828
1062.90 27.16949
1063.00 27.19725
1063.10 27.26817
1063.20 27.15861
1063.30 26.95193
1063.40 26.77135
1063.50 26.78598
1063.60 26.77763
1063.70 26.80771
1063.80 26.95928
1063.90 27.08936
1064.00 27.23205
1064.10 27.38439
1064.20 27.55396
1064.30 27.48706
1064.40 27.40401
1064.50 27.3501
1064.60 27.35751
1064.70 27.35963
1064.80 27.35038
1064.90 27.32598
1065.00 27.28822
1065.10 27.17474
1065.20 27.05108
1065.30 26.90943
1065.40 26.54515
1065.50 26.19625
1065.60 26.00514
1065.70 26.01876
1065.80 25.99499
1065.90 25.96098
1066.00 25.91607
1066.10 25.85784
1066.20 25.39431
1066.30 24.9632
1066.40 24.72303
1066.50 24.74907
1066.60 24.7192
1066.70 24.84323
1066.80 25.02117
1066.90 25.19858
1067.00 25.14524
1067.10 25.09343
1067.20 25.18863
1067.30 25.5952
1067.40 25.95756
1067.50 26.27767
1067.60 26.55928
1067.70 26.8477
1067.80 26.91689
1067.90 26.97315
1068.00 27.06099
1068.10 27.23636
1068.20 27.42132
1068.30 27.65374
1068.40 27.89153
1068.50 28.11589
1068.60 28.20203
1068.70 28.25971
1068.80 28.2897
1068.90 28.15216
1069.00 28.02073
1069.10 27.94694
1069.20 27.94843
1069.30 27.94128
1069.40 27.68822
1069.50 27.38267
1069.60 27.10431
1069.70 26.97496
1069.80 26.82959
1069.90 26.78971
1070.00 26.86868
1070.10 26.93547
1070.20 26.81938
1070.30 26.63208
1070.40 26.47048
1070.50 26.65813
1070.60 26.82244
1070.70 26.96914
1070.80 27.08421
1070.90 27.21444
1071.00 27.15322
1071.10 26.99696
1071.20 26.86271
1071.30 27.09529
1071.40 27.34042
1071.50 27.52462
1071.60 27.55969
1071.70 27.64636
1071.80 27.65899
1071.90 27.62126
1072.00 27.5847
1072.10 27.58196
1072.20 27.58196
1072.30 27.4992
1072.40 27.13292
1072.50 26.79593
1072.60 26.60818
1072.70 26.54886
1072.80 26.42708
1072.90 26.59743
1073.00 26.83363
1073.10 27.02326
1073.20 26.91783
1073.30 26.83766
1073.40 26.71979
1073.50 26.57849
1073.60 26.41978
1073.70 26.58167
1073.80 26.86458
1073.90 27.1334
1074.00 27.41645
1074.10 27.69169
1074.20 27.88952
1074.30 27.91015
1074.40 27.97431
1074.50 27.8804
1074.60 27.6906
1074.70 27.49251
1074.80 27.34263
1074.90 27.19541
1075.00 27.05067
1075.10 26.94998
1075.20 26.89018
1075.30 26.86316
1075.40 26.85663
1075.50 26.85437
1075.60 27.07149
1075.70 27.28651
1075.80 27.49754
1075.90 27.77472
1076.00 28.07215
1076.10 28.14916
1076.20 28.03742
1076.30 27.94387
1076.40 27.90924
1076.50 27.88719
1076.60 27.86449
1076.70 27.91366
1076.80 27.96249
1076.90 28.00773
1077.00 28.02292
1077.10 28.03858
1077.20 27.93513
1077.30 27.78814
1077.40 27.63058
1077.50 27.3484
1077.60 27.09095
1077.70 26.97234
1077.80 27.03335
1077.90 27.03134
1078.00 27.16455
1078.10 27.3485
1078.20 27.52919
1078.30 27.49552
1078.40 27.47397
1078.50 27.47459
1078.60 27.47863
1078.70 27.49181
1078.80 27.36348
1078.90 27.16335
1079.00 26.98751
1079.10 26.84256
1079.20 26.69287
1079.30 26.54402
1079.40 26.4286
1079.50 26.28764
1079.60 26.36394
1079.70 26.63624
1079.80 26.89608
1079.90 27.0644
1080.00 27.20709
1080.10 27.33548
1080.20 27.42415
1080.30 27.52903
1080.40 27.60336
1080.50 27.64335
1080.60 27.65882
1080.70 27.77644
1080.80 27.92294
1080.90 28.0622
1081.00 28.06363
1081.10 28.07052
1081.20 28.07605
1081.30 28.07736
1081.40 28.08237
1081.50 28.17786
1081.60 28.3066
1081.70 28.42379
1081.80 28.41945
1081.90 28.43126
1082.00 28.35833
1082.10 28.11883
1082.20 27.90279
1082.30 27.68953
1082.40 27.48248
1082.50 27.26732
1082.60 27.28518
1082.70 27.30214
1082.80 27.36635
1082.90 27.52725
1083.00 27.68055
1083.10 27.83414
1083.20 27.97709
1083.30 28.09883
1083.40 27.91825
1083.50 27.70512
1083.60 27.49374
1083.70 27.3189
1083.80 27.16543
1083.90 27.2086
1084.00 27.44184
1084.10 27.67569
1084.20 27.76272
1084.30 27.80875
1084.40 27.82957
1084.50 27.63892
1084.60 27.47677
1084.70 27.34844
1084.80 27.28832
1084.90 27.1824
1085.00 27.38036
1085.10 27.64001
1085.20 27.83931
1085.30 27.69496
1085.40 27.58934
1085.50 27.59291
1085.60 27.74774
1085.70 27.85399
1085.80 28.04971
1085.90 28.27315
1086.00 28.50151
1086.10 28.63588
1086.20 28.77257
1086.30 28.84161
1086.40 28.78067
1086.50 28.75644
1086.60 28.61394
1086.70 28.40838
1086.80 28.21425
1086.90 28.29652
1087.00 28.37947
1087.10 28.44253
1087.20 28.50019
1087.30 28.5874
1087.40 28.42168
1087.50 28.11344
1087.60 27.85226
1087.70 27.92078
1087.80 27.99285
1087.90 28.02853
1088.00 28.04662
1088.10 28.09761
1088.20 28.06894
1088.30 27.98548
1088.40 27.91244
1088.50 28.00467
1088.60 28.12276
1088.70 28.1858
1088.80 28.06511
1088.90 27.98749
1089.00 27.9867
1089.10 28.0885
1089.20 28.17058
1089.30 28.12363
1089.40 28.01462
1089.50 27.89926
1089.60 27.97177
1089.70 28.02838
1089.80 28.18914
1089.90 28.48673
1090.00 28.7678
1090.10 28.82198
1090.20 28.79242
1090.30 28.78596
1090.40 28.78513
1090.50 28.79226
1090.60 28.72844
1090.70 28.49436
1090.80 28.2695
1090.90 28.04523
1091.00 27.83709
1091.10 27.65353
1091.20 27.73783
1091.30 27.81971
1091.40 27.94803
1091.50 28.31687
1091.60 28.66228
1091.70 28.87464
1091.80 28.94634
1091.90 29.03953
1092.00 28.98814
1092.10 28.92117
1092.20 28.88778
1092.30 28.91142
1092.40 28.90228
1092.50 28.86814
1092.60 28.81482
1092.70 28.78733
1092.80 28.79348
1092.90 28.8061
1093.00 28.80064
1093.10 28.72134
1093.20 28.64396
1093.30 28.58493
1093.40 28.54936
1093.50 28.52176
1093.60 28.46081
1093.70 28.38351
1093.80 28.30411
1093.90 28.52369
1094.00 28.70565
1094.10 28.86551
1094.20 28.98581
1094.30 29.13879
1094.40 28.83132
1094.50 28.35083
1094.60 27.91022
1094.70 27.97952
1094.80 28.02321
1094.90 28.17067
1095.00 28.52446
1095.10 28.85292
1095.20 29.18374
1095.30 29.52121
1095.40 29.85259
1095.50 29.73678
1095.60 29.59739
1095.70 29.46718
1095.80 29.3448
1095.90 29.21972
1096.00 29.22397
1096.10 29.32982
1096.20 29.42416
1096.30 29.45467
1096.40 29.46897
1096.50 29.45859
1096.60 29.27971
1096.70 29.11541
1096.80 28.79624
1096.90 28.33281
1097.00 27.90325
1097.10 27.72038
1097.20 27.58734
1097.30 27.49555
1097.40 27.79259
1097.50 28.05873
1097.60 28.26399
1097.70 28.40778
1097.80 28.56147
1097.90 28.6723
1098.00 28.76219
1098.10 28.83855
1098.20 28.69643
1098.30 28.59215
1098.40 28.49283
1098.50 28.35107
1098.60 28.19062
1098.70 28.09133
1098.80 28.03346
1098.90 27.96729
1099.00 28.07511
1099.10 28.18072
1099.20 28.34129
1099.30 28.62473
1099.40 28.87932
1099.50 28.93307
1099.60 28.85994
1099.70 28.83141
1099.80 28.76599
1099.90 28.69135
1100.00 28.60117
1100.10 28.49241
1100.20 28.39337
1100.30 28.24319
1100.40 28.04687
1100.50 27.86352
1100.60 27.90417
1100.70 27.98111
1100.80 28.05369
1100.90 28.24773
1101.00 28.45514
1101.10 28.52858
1101.20 28.47536
1101.30 28.42304
1101.40 28.62069
1101.50 28.87599
1101.60 29.06283
1101.70 28.8181
1101.80 28.60831
1101.90 28.28492
1102.00 27.78057
1102.10 27.25959
1102.20 26.86634
1102.30 26.52888
1102.40 26.2073
1102.50 26.65425
1102.60 27.04352
1102.70 27.45936
1102.80 27.93571
1102.90 28.43572
1103.00 28.54417
1103.10 28.40899
1103.20 28.2836
1103.30 27.63894
1103.40 27.02366
1103.50 26.55099
1103.60 26.35952
1103.70 26.11519
1103.80 26.27128
1103.90 26.66399
1104.00 27.04447
1104.10 27.14159
1104.20 27.2005
1104.30 27.21205
1104.40 27.14442
1104.50 27.10171
1104.60 27.17646
1104.70 27.34673
1104.80 27.53905
1104.90 27.55708
1105.00 27.51343
1105.10 27.3854
1105.20 26.88959
1105.30 26.44828
1105.40 26.18545
1105.50 26.07998
1105.60 25.93499
1105.70 26.04802
1105.80 26.20608
1105.90 26.33367
1106.00 26.45217
1106.10 26.59594
1106.20 26.66909
1106.30 26.6477
1106.40 26.62363
1106.50 26.67629
1106.60 26.76547
1106.70 26.85937
1106.80 26.57708
1106.90 26.31148
1107.00 26.12368
1107.10 26.12284
1107.20 26.09539
1107.30 26.26871
1107.40 26.5431
1107.50 26.77391
1107.60 26.67103
1107.70 26.60372
1107.80 26.62555
1107.90 26.79453
1108.00 26.93344
1108.10 27.10849
1108.20 27.30608
1108.30 27.49526
1108.40 27.58496
1108.50 27.66468
1108.60 27.72195
1108.70 27.71368
1108.80 27.7433
1108.90 27.7401
1109.00 27.7173
1109.10 27.70867
1109.20 27.76783
1109.30 27.81926
1109.40 27.84977
1109.50 27.95139
1109.60 28.06131
1109.70 28.12957
1109.80 28.15233
1109.90 28.19844
1110.00 28.03336
1110.10 27.83576
1110.20 27.65125
1110.30 27.33742
1110.40 27.01718
1110.50 26.81321
1110.60 26.78309
1110.70 26.68038
1110.80 26.75755
1110.90 26.90369
1111.00 27.0541
1111.10 26.89164
1111.20 26.73949
1111.30 26.61713
1111.40 26.5403
1111.50 26.42733
1111.60 26.3851
1111.70 26.39113
1111.80 26.40399
1111.90 26.37667
1112.00 26.36359
1112.10 26.36447
1112.20 26.39183
1112.30 26.41396
1112.40 26.56396
1112.50 26.78981
1112.60 27.0008
1112.70 27.24425
1112.80 27.4773
1112.90 27.67145
1113.00 27.77018
1113.10 27.89452
1113.20 27.94006
1113.30 27.92791
1113.40 27.93047
1113.50 27.78959
1113.60 27.63993
1113.70 27.51904
1113.80 27.37183
1113.90 27.16426
1114.00 27.12684
1114.10 27.23947
1114.20 27.32672
1114.30 27.5984
1114.40 27.90494
1114.50 28.16513
1114.60 28.1764
1114.70 28.25668
1114.80 28.26594
1114.90 28.17903
1115.00 28.10603
1115.10 28.15867
1115.20 28.23157
1115.30 28.25341
1115.40 28.17063
1115.50 28.12292
1115.60 28.01053
1115.70 27.74174
1115.80 27.46454
1115.90 27.37359
1116.00 27.37083
1116.10 27.38033
1116.20 27.48861
1116.30 27.58732
1116.40 27.61772
1116.50 27.49091
1116.60 27.34419
1116.70 27.24567
1116.80 27.19054
1116.90 27.18386
1117.00 27.00682
1117.10 26.8233
1117.20 26.68969
1117.30 26.55371
1117.40 26.39136
1117.50 26.42234
1117.60 26.47088
1117.70 26.48798
1117.80 26.5746
1117.90 26.68673
1118.00 26.78098
1118.10 26.94416
1118.20 27.20852
1118.30 27.48998
1118.40 27.73906
1118.50 27.84615
1118.60 27.93334
1118.70 28.05316
1118.80 27.9316
1118.90 27.77535
1119.00 27.62112
1119.10 27.48102
1119.20 27.34488
1119.30 27.21738
1119.40 27.1487
1119.50 27.17799
1119.60 27.19733
1119.70 27.23067
1119.80 27.33119
1119.90 27.42791
1120.00 27.52799
1120.10 27.57687
1120.20 27.629
1120.30 27.69625
1120.40 27.80039
1120.50 27.89331
1120.60 27.95157
1120.70 27.93607
1120.80 27.81122
1120.90 27.73407
1121.00 27.65008
1121.10 27.58402
1121.20 27.50959
1121.30 27.45428
1121.40 27.45734
1121.50 27.46496
1121.60 27.44935
1121.70 27.35834
1121.80 27.22624
1121.90 27.1037
1122.00 27.06525
1122.10 27.13377
1122.20 27.19927
1122.30 27.2798
1122.40 27.34721
1122.50 27.37324
1122.60 27.4316
1122.70 27.6285
1122.80 27.8552
1122.90 28.07473
1123.00 28.07392
1123.10 27.95181
1123.20 27.83496
1123.30 27.61593
1123.40 27.23099
1123.50 26.85633
1123.60 26.60422
1123.70 26.91864
1123.80 27.19054
1123.90 27.44197
1124.00 27.59677
1124.10 27.73143
1124.20 27.86205
1124.30 27.94424
1124.40 27.99818
1124.50 28.05905
1124.60 28.07348
1124.70 27.97597
1124.80 27.92039
1124.90 27.80199
1125.00 27.51181
1125.10 27.24413
1125.20 27.06585
1125.30 27.12165
1125.40 27.16514
1125.50 27.06693
1125.60 27.08664
1125.70 27.18774
1125.80 27.41043
1125.90 27.54896
1126.00 27.55582
1126.10 27.56463
1126.20 27.58021
1126.30 27.63144
1126.40 27.6761
1126.50 27.72309
1126.60 27.82065
1126.70 27.92849
1126.80 28.02454
1126.90 28.08292
1127.00 28.11002
1127.10 28.14751
1127.20 28.14427
1127.30 28.03342
1127.40 27.90889
1127.50 27.77291
1127.60 27.65125
1127.70 27.55036
1127.80 27.47891
1127.90 27.55305
1128.00 27.65987
1128.10 27.75498
1128.20 27.82725
1128.30 27.87583
1128.40 27.89924
1128.50 27.93533
1128.60 27.9922
1128.70 28.07573
1128.80 28.1515
1128.90 28.12391
1129.00 28.0954
1129.10 28.06245
1129.20 27.98801
1129.30 27.89309
1129.40 27.78815
1129.50 27.80715
1129.60 27.94151
1129.70 28.07792
1129.80 28.21618
1129.90 28.33805
1130.00 28.49185
1130.10 28.6148
1130.20 28.29465
1130.30 27.99158
1130.40 27.69584
1130.50 27.47207
1130.60 27.27451
1130.70 27.06852
1130.80 27.03499
1130.90 27.16378
1131.00 27.26989
1131.10 27.40183
1131.20 27.57014
1131.30 27.72262
1131.40 27.86842
1131.50 27.93903
1131.60 28.01405
1131.70 28.0913
1131.80 28.10625
1131.90 28.09808
1132.00 28.10032
1132.10 28.06398
1132.20 27.99518
1132.30 27.92076
1132.40 27.85995
1132.50 27.84022
1132.60 27.83149
1132.70 27.81971
1132.80 27.81883
1132.90 27.81713
1133.00 27.81347
1133.10 27.72805
1133.20 27.60695
1133.30 27.47705
1133.40 27.36838
1133.50 27.28265
1133.60 27.22474
1133.70 27.15886
1133.80 27.08891
1133.90 27.03296
1134.00 26.98311
1134.10 26.9183
1134.20 26.83957
1134.30 26.78224
1134.40 26.76909
1134.50 26.75494
1134.60 26.70831
1134.70 26.84473
1134.80 27.15927
1134.90 27.36178
1135.00 27.47208
1135.10 27.26844
1135.20 27.22334
1135.30 27.19807
1135.40 27.05319
1135.50 26.90265
1135.60 26.71272
1135.70 26.58336
1135.80 26.46988
1135.90 26.37263
1136.00 26.44998
1136.10 26.65888
1136.20 26.81873
1136.30 26.88946
1136.40 26.70536
1136.50 26.57432
1136.60 26.43514
1136.70 26.25123
1136.80 26.07287
1136.90 25.9012
1137.00 25.77263
1137.10 25.65639
1137.20 25.5226
1137.30 25.29597
1137.40 24.97938
1137.50 24.67009
1137.60 24.27846
1137.70 23.53738
1137.80 22.83265
1137.90 22.07644
1138.00 20.78904
1138.10 19.46104
1138.20 18.15371
1138.30 17.70888
1138.40 17.59012
1138.50 17.44416
1138.60 18.00001
1138.70 19.49384
1138.80 20.91968
1138.90 22.18879
1139.00 22.8097
1139.10 23.45244
1139.20 24.05363
1139.30 24.05742
1139.40 24.03256
1139.50 24.01241
1139.60 23.77939
1139.70 23.46634
1139.80 23.17369
1139.90 22.66006
1140.00 21.82073
1140.10 21.01625
1140.20 20.04054
1140.30 18.57789
1140.40 17.1343
1140.50 15.70498
1140.60 15.54076
1140.70 15.43518
1140.80 15.35044
1140.90 16.51453
1141.00 18.17162
1141.10 19.77914
1141.20 21.12673
1141.30 22.08349
1141.40 23.04951
1141.50 23.91681
1141.60 24.41133
1141.70 24.94511
1141.80 25.43939
1141.90 25.63822
1142.00 25.806
1142.10 25.9688
1142.20 26.02182
1142.30 26.03915
1142.40 26.09637
1142.50 26.19406
1142.60 26.36035
1142.70 26.51454
1142.80 26.66882
1142.90 26.78819
1143.00 26.91499
1143.10 27.02393
1143.20 27.04809
1143.30 27.065
1143.40 27.09172
1143.50 27.11755
1143.60 27.13994
1143.70 27.13949
1143.80 27.02694
1143.90 26.75503
1144.00 26.48028
1144.10 26.28365
1144.20 26.31948
1144.30 26.36247
1144.40 26.40034
1144.50 26.44679
1144.60 26.5081
1144.70 26.57464
1144.80 26.67352
1144.90 26.78052
1145.00 26.86869
1145.10 26.94082
1145.20 26.9808
1145.30 27.03448
1145.40 27.07057
1145.50 27.08492
1145.60 27.10303
1145.70 27.12403
1145.80 27.16252
1145.90 27.19083
1146.00 27.21329
1146.10 27.3066
1146.20 27.43006
1146.30 27.56528
1146.40 27.70088
1146.50 27.84087
1146.60 27.96125
1146.70 28.04466
1146.80 27.94933
1146.90 27.87303
1147.00 27.77059
1147.10 27.57357
1147.20 27.36627
1147.30 27.17869
1147.40 27.19258
1147.50 27.29066
1147.60 27.41712
1147.70 27.55407
1147.80 27.70309
1147.90 27.81632
1148.00 27.89954
1148.10 27.92343
1148.20 27.94876
1148.30 27.9633
1148.40 27.76113
1148.50 27.53038
1148.60 27.30907
1148.70 27.3679
1148.80 27.53917
1148.90 27.70159
1149.00 27.82326
1149.10 27.89936
1149.20 28.02633
1149.30 28.08189
1149.40 27.99609
1149.50 27.885
1149.60 27.79804
1149.70 27.87408
1149.80 27.94349
1149.90 28.01025
1150.00 27.98342
1150.10 27.92957
1150.20 27.8961
1150.30 27.87117
1150.40 27.86792
1150.50 27.8319
1150.60 27.83385
1150.70 27.92299
1150.80 27.99793
1150.90 28.07306
1151.00 28.06988
1151.10 28.07944
1151.20 28.09452
1151.30 28.06909
1151.40 28.03362
1151.50 28.00688
1151.60 27.99041
1151.70 27.99264
1151.80 27.98558
1151.90 27.99978
1152.00 28.03192
1152.10 28.05211
1152.20 28.04437
1152.30 27.82053
1152.40 27.61682
1152.50 27.44295
1152.60 27.41298
1152.70 27.43243
1152.80 27.42402
1152.90 27.42927
1153.00 27.43852
1153.10 27.45375
1153.20 27.45012
1153.30 27.43536
1153.40 27.41844
1153.50 27.40731
1153.60 27.51789
1153.70 27.61668
1153.80 27.71533
1153.90 27.84063
1154.00 27.97462
1154.10 28.10653
1154.20 28.14352
1154.30 28.08792
1154.40 28.07546
1154.50 28.00857
1154.60 27.80078
1154.70 27.59874
1154.80 27.39061
1154.90 27.41046
1155.00 27.41007
1155.10 27.40448
1155.20 27.4941
1155.30 27.62661
1155.40 27.77238
1155.50 27.9009
1155.60 28.01056
1155.70 28.09932
1155.80 28.16058
1155.90 28.13772
1156.00 28.1355
1156.10 28.11288
1156.20 28.10395
1156.30 28.09206
1156.40 28.09021
1156.50 28.11249
1156.60 28.13865
1156.70 28.16073
1156.80 28.08066
1156.90 27.91102
1157.00 27.76505
1157.10 27.66296
1157.20 27.67577
1157.30 27.65965
1157.40 27.65166
1157.50 27.65275
1157.60 27.65719
1157.70 27.66566
1157.80 27.69786
1157.90 27.73546
1158.00 27.77672
1158.10 27.81638
1158.20 27.8523
1158.30 27.88156
1158.40 27.88486
1158.50 27.85063
1158.60 27.83275
1158.70 27.81492
1158.80 27.72398
1158.90 27.63561
1159.00 27.54897
1159.10 27.29585
1159.20 27.00649
1159.30 26.7188
1159.40 26.45165
1159.50 26.21347
1159.60 25.9641
1159.70 25.87218
1159.80 26.09953
1159.90 26.28776
1160.00 26.49335
1160.10 26.73358
1160.20 26.9747
1160.30 27.21642
1160.40 27.27226
1160.50 27.28904
1160.60 27.30786
1160.70 26.98407
1160.80 26.44966
1160.90 25.94543
1161.00 25.62298
1161.10 25.74798
1161.20 25.82606
1161.30 25.99852
1161.40 26.56548
1161.50 27.11077
1161.60 27.63825
1161.70 27.77153
1161.80 27.84238
1161.90 27.94706
1162.00 27.90923
1162.10 27.78756
1162.20 27.63741
1162.30 27.54424
1162.40 27.56468
1162.50 27.56791
1162.60 27.59333
1162.70 27.68451
1162.80 27.78002
1162.90 27.88186
1163.00 27.96348
1163.10 28.03865
1163.20 28.10552
1163.30 28.06508
1163.40 27.96611
1163.50 27.88834
1163.60 27.68696
1163.70 27.24447
1163.80 26.82468
1163.90 26.43305
1164.00 26.29653
1164.10 26.12295
1164.20 25.96854
1164.30 26.37287
1164.40 26.81917
1164.50 27.24601
1164.60 27.47571
1164.70 27.57955
1164.80 27.70861
1164.90 27.74827
1165.00 27.67458
1165.10 27.62137
1165.20 27.54689
1165.30 27.41888
1165.40 27.29787
1165.50 27.17955
1165.60 27.1766
1165.70 27.17232
1165.80 27.16153
1165.90 27.24841
1166.00 27.385
1166.10 27.5046
1166.20 27.60814
1166.30 27.68892
1166.40 27.78881
1166.50 27.86162
1166.60 27.87127
1166.70 27.89241
1166.80 27.91372
1166.90 27.7816
1167.00 27.64281
1167.10 27.51657
1167.20 27.42851
1167.30 27.35196
1167.40 27.25884
1167.50 27.17588
1167.60 27.10999
1167.70 27.04276
1167.80 26.98906
1167.90 26.99154
1168.00 26.99902
1168.10 27.00614
1168.20 26.8625
1168.30 26.71837
1168.40 26.58295
1168.50 26.22207
1168.60 25.77811
1168.70 25.35825
1168.80 24.51626
1168.90 23.08448
1169.00 21.73433
1169.10 20.54174
1169.20 20.09486
1169.30 19.5242
1169.40 19.04944
1169.50 20.28459
1169.60 21.60444
1169.70 22.8666
1169.80 23.86429
1169.90 24.7568
1170.00 25.67021
1170.10 26.25907
1170.20 26.55218
1170.30 26.88707
1170.40 27.14759
1170.50 27.22132
1170.60 27.33781
1170.70 27.45168
1170.80 27.43085
1170.90 27.421
1171.00 27.41084
1171.10 27.41236
1171.20 27.41976
1171.30 27.43444
1171.40 27.44539
1171.50 27.44542
1171.60 27.43685
1171.70 27.39276
1171.80 27.26176
1171.90 27.14996
1172.00 27.04927
1172.10 27.02733
1172.20 26.99153
1172.30 26.94948
1172.40 26.96531
1172.50 26.99228
1172.60 27.01238
1172.70 27.08471
1172.80 27.20911
1172.90 27.33797
1173.00 27.44789
1173.10 27.50471
1173.20 27.57611
1173.30 27.63196
1173.40 27.52331
1173.50 27.42201
1173.60 27.3239
1173.70 27.27189
1173.80 27.21821
1173.90 27.1552
1174.00 27.15657
1174.10 27.21017
1174.20 27.25597
1174.30 27.31523
1174.40 27.40352
1174.50 27.51353
1174.60 27.60653
1174.70 27.55724
1174.80 27.51417
1174.90 27.46543
1175.00 27.3401
1175.10 27.20382
1175.20 27.07991
1175.30 27.00082
1175.40 26.949
1175.50 26.87816
1175.60 26.85695
1175.70 26.93521
1175.80 27.00198
1175.90 27.032
1176.00 26.90702
1176.10 26.80409
1176.20 26.70417
1176.30 26.55086
1176.40 26.38885
1176.50 26.23673
1176.60 25.76154
1176.70 25.08596
1176.80 24.44077
1176.90 23.34912
1177.00 21.6592
1177.10 20.04937
1177.20 18.49054
1177.30 17.54691
1177.40 16.53335
1177.50 15.57634
1177.60 16.60497
1177.70 17.75877
1177.80 18.82615
1177.90 20.11748
1178.00 21.52366
1178.10 22.89863
1178.20 23.87339
1178.30 24.28106
1178.40 24.75302
1178.50 25.15339
1178.60 25.3962
1178.70 25.67066
1178.80 25.94485
1178.90 26.1665
1179.00 26.39663
1179.10 26.63936
1179.20 26.71126
1179.30 26.71639
1179.40 26.72338
1179.50 26.7008
1179.60 26.64412
1179.70 26.57969
1179.80 26.53315
1179.90 26.55321
1180.00 26.58935
1180.10 26.64229
1180.20 26.77785
1180.30 26.90717
1180.40 27.01802
1180.50 27.03289
1180.60 27.0157
1180.70 27.01014
1180.80 26.97004
1180.90 26.90781
1181.00 26.84975
1181.10 26.7962
1181.20 26.75016
1181.30 26.70761
1181.40 26.66865
1181.50 26.62223
1181.60 26.56656
1181.70 26.51086
1181.80 26.53559
1181.90 26.58909
1182.00 26.63033
1182.10 26.68648
1182.20 26.7582
1182.30 26.85018
1182.40 26.84527
1182.50 26.64142
1182.60 26.45733
1182.70 26.26161
1182.80 25.95773
1182.90 25.64918
1183.00 25.34759
1183.10 25.41735
1183.20 25.5676
1183.30 25.70691
1183.40 25.83676
1183.50 25.95275
1183.60 26.07577
1183.70 26.14208
1183.80 26.11774
1183.90 26.09526
1184.00 26.09541
1184.10 26.38114
1184.20 26.63326
1184.30 26.87376
1184.40 26.93141
1184.50 26.96398
1184.60 27.02158
1184.70 26.89671
1184.80 26.66754
1184.90 26.4574
1185.00 26.30162
1185.10 26.28022
1185.20 26.23751
1185.30 26.22613
1185.40 26.3999
1185.50 26.55099
1185.60 26.70115
1185.70 26.73454
1185.80 26.74134
1185.90 26.75041
1186.00 26.77358
1186.10 26.81126
1186.20 26.86398
1186.30 26.89687
1186.40 26.89062
1186.50 26.87693
1186.60 26.83591
1186.70 26.69887
1186.80 26.58383
1186.90 26.47293
1187.00 26.46082
1187.10 26.44935
1187.20 26.43248
1187.30 26.4943
1187.40 26.59614
1187.50 26.6733
1187.60 26.69541
1187.70 26.62813
1187.80 26.60761
1187.90 26.49271
1188.00 26.0754
1188.10 25.67681
1188.20 25.25654
1188.30 24.47462
1188.40 23.67575
1188.50 22.89641
1188.60 22.91068
1188.70 23.21789
1188.80 23.47339
1188.90 23.9686
1189.00 24.74565
1189.10 25.49343
1189.20 26.08743
1189.30 26.12564
1189.40 26.22027
1189.50 26.31133
1189.60 26.4148
1189.70 26.51215
1189.80 26.59567
1189.90 26.66937
1190.00 26.74216
1190.10 26.81271
1190.20 26.79401
1190.30 26.69817
1190.40 26.62876
1190.50 26.55139
1190.60 26.44344
1190.70 26.32538
1190.80 26.21245
1190.90 26.34733
1191.00 26.46585
1191.10 26.58785
1191.20 26.65127
1191.30 26.70045
1191.40 26.74603
1191.50 26.75662
1191.60 26.73997
1191.70 26.72909
1191.80 26.72401
1191.90 26.73958
1192.00 26.75935
1192.10 26.7811
1192.20 26.72543
1192.30 26.67715
1192.40 26.62346
1192.50 26.56381
1192.60 26.49891
1192.70 26.42942
1192.80 26.4475
1192.90 26.51933
1193.00 26.58665
1193.10 26.64195
1193.20 26.66207
1193.30 26.68438
1193.40 26.68148
1193.50 26.51473
1193.60 26.37403
1193.70 26.22924
1193.80 26.0366
1193.90 25.8384
1194.00 25.64359
1194.10 25.58625
1194.20 25.60818
1194.30 25.60327
1194.40 25.58201
1194.50 25.519
1194.60 25.46792
1194.70 25.37311
1194.80 25.08048
1194.90 24.8137
1195.00 24.55483
1195.10 24.60207
1195.20 24.65125
1195.30 24.69006
1195.40 24.93506
1195.50 25.25153
1195.60 25.55456
1195.70 25.69092
1195.80 25.58477
1195.90 25.54638
1196.00 25.46398
1196.10 25.33293
1196.20 25.20054
1196.30 25.07172
1196.40 25.06208
1196.50 25.0401
1196.60 25.01002
1196.70 25.0184
1196.80 25.04296
1196.90 25.06637
1197.00 24.79966
1197.10 24.25719
1197.20 23.75222
1197.30 23.19973
1197.40 22.57807
1197.50 21.96476
1197.60 21.38483
1197.70 21.7937
1197.80 22.1431
1197.90 22.48283
1198.00 22.86717
1198.10 23.25879
1198.20 23.64243
1198.30 23.96408
1198.40 24.23257
1198.50 24.48994
1198.60 24.70062
1198.70 24.77305
1198.80 24.89052
1198.90 24.97222
1199.00 24.66995
1199.10 24.3965
1199.20 24.13
1199.30 24.03768
1199.40 23.97157
1199.50 23.88928
1199.60 23.92587
1199.70 24.02715
1199.80 24.11092
1199.90 24.17067
1200.00 24.16136
