# Version 2.1 - nm, norm@500 to 1, cut digits
# Wavelength(nm)  Flambda(ergs/cm^s/s/nm)
300.00 0.008057138
300.10 0.01070994
300.20 0.01232533
300.30 0.01299309
300.40 0.01316771
300.50 0.0132187
300.60 0.01326969
300.70 0.0133212
300.80 0.01337535
300.90 0.01343618
301.00 0.01350814
301.10 0.01359321
301.20 0.01368942
301.30 0.0137923
301.40 0.01389782
301.50 0.01400386
301.60 0.0141099
301.70 0.01421595
301.80 0.01432199
301.90 0.01442803
302.00 0.01453408
302.10 0.01464012
302.20 0.01474617
302.30 0.01485221
302.40 0.01495825
302.50 0.0150643
302.60 0.01517034
302.70 0.01527678
302.80 0.01538523
302.90 0.01549874
303.00 0.01562071
303.10 0.01575263
303.20 0.015893
303.30 0.01603845
303.40 0.01618589
303.50 0.01633373
303.60 0.01648158
303.70 0.01662942
303.80 0.01677727
303.90 0.01692511
304.00 0.01707296
304.10 0.0172208
304.20 0.01736864
304.30 0.01751649
304.40 0.01766433
304.50 0.01781218
304.60 0.01796002
304.70 0.01810664
304.80 0.01824715
304.90 0.01837214
305.00 0.01847128
305.10 0.01853998
305.20 0.01858283
305.30 0.01861016
305.40 0.01863138
305.50 0.01865137
305.60 0.01867137
305.70 0.01869137
305.80 0.01871136
305.90 0.01873136
306.00 0.01875135
306.10 0.01877135
306.20 0.01879134
306.30 0.01881134
306.40 0.01883134
306.50 0.01885133
306.60 0.01887133
306.70 0.01889132
306.80 0.01891134
306.90 0.01893138
307.00 0.01895148
307.10 0.01897165
307.20 0.01899187
307.30 0.01901213
307.40 0.0190324
307.50 0.01905268
307.60 0.01907295
307.70 0.01909322
307.80 0.0191135
307.90 0.01913377
308.00 0.01915404
308.10 0.01917432
308.20 0.01919459
308.30 0.01921486
308.40 0.01923513
308.50 0.01925541
308.60 0.01927568
308.70 0.01929902
308.80 0.01933765
308.90 0.01941512
309.00 0.01955729
309.10 0.01977564
309.20 0.02005869
309.30 0.02038058
309.40 0.02071776
309.50 0.021058
309.60 0.02139825
309.70 0.02173849
309.80 0.02207874
309.90 0.02241899
310.00 0.02275923
310.10 0.02309948
310.20 0.02343972
310.30 0.02377997
310.40 0.02412022
310.50 0.02446046
310.60 0.02480071
310.70 0.02513787
310.80 0.02545966
310.90 0.02574241
311.00 0.02596012
311.10 0.02610124
311.20 0.02617733
311.30 0.02621437
311.40 0.02623604
311.50 0.02625463
311.60 0.02627322
311.70 0.0262918
311.80 0.02631039
311.90 0.02632898
312.00 0.02634757
312.10 0.02636615
312.20 0.02638474
312.30 0.02640333
312.40 0.02642192
312.50 0.0264405
312.60 0.02645909
312.70 0.02648148
312.80 0.02652286
312.90 0.02661247
313.00 0.02678239
313.10 0.02704691
313.20 0.02739175
313.30 0.02778481
313.40 0.02819685
313.50 0.02861271
313.60 0.02902856
313.70 0.02944441
313.80 0.02986027
313.90 0.03027612
314.00 0.03069197
314.10 0.03110783
314.20 0.03152368
314.30 0.03193953
314.40 0.03235538
314.50 0.03277124
314.60 0.03318709
314.70 0.03360559
314.80 0.03403731
314.90 0.0345026
315.00 0.0350238
315.10 0.03561084
315.20 0.03625379
315.30 0.03693031
315.40 0.03762005
315.50 0.03831244
315.60 0.03900483
315.70 0.03969722
315.80 0.04038961
315.90 0.04108199
316.00 0.04177438
316.10 0.04246677
316.20 0.04315916
316.30 0.04385155
316.40 0.04454393
316.50 0.04523632
316.60 0.04592871
316.70 0.04661137
316.80 0.04724543
316.90 0.04775612
317.00 0.04806127
317.10 0.0481244
317.20 0.04798199
317.30 0.04771621
317.40 0.04740184
317.50 0.04707773
317.60 0.04675363
317.70 0.04642952
317.80 0.04610542
317.90 0.04578131
318.00 0.0454572
318.10 0.0451331
318.20 0.04480899
318.30 0.04448489
318.40 0.04416078
318.50 0.04383667
318.60 0.04351257
318.70 0.04319591
318.80 0.04291645
318.90 0.04273144
319.00 0.04270376
319.10 0.04286134
319.20 0.04317626
319.30 0.04358562
319.40 0.04403218
319.50 0.04448619
319.60 0.0449402
319.70 0.04539421
319.80 0.04584822
319.90 0.04630223
320.00 0.04675624
320.10 0.04721025
320.20 0.04766426
320.30 0.04811827
320.40 0.04857228
320.50 0.04902628
320.60 0.04948029
320.70 0.04993155
320.80 0.05036905
320.90 0.05077161
321.00 0.05111599
321.10 0.05139184
321.20 0.05160951
321.30 0.05179225
321.40 0.05196122
321.50 0.05212745
321.60 0.05229367
321.70 0.05245989
321.80 0.05262612
321.90 0.05279234
322.00 0.05295856
322.10 0.05312478
322.20 0.05329101
322.30 0.05345723
322.40 0.05362345
322.50 0.05378968
322.60 0.0539559
322.70 0.05413219
322.80 0.05435872
322.90 0.05471285
323.00 0.05527953
323.10 0.05609648
323.20 0.05712598
323.30 0.05828308
323.40 0.05949042
323.50 0.06070783
323.60 0.06192523
323.70 0.06314264
323.80 0.06436005
323.90 0.06557746
324.00 0.06679486
324.10 0.06801227
324.20 0.06922968
324.30 0.07044708
324.40 0.07166449
324.50 0.0728819
324.60 0.0740993
324.70 0.07531508
324.80 0.07652269
324.90 0.07770957
325.00 0.07886193
325.10 0.07997363
325.20 0.08105081
325.30 0.08210725
325.40 0.08315554
325.50 0.08420219
325.60 0.08524885
325.70 0.0862955
325.80 0.08734215
325.90 0.0883888
326.00 0.08943545
326.10 0.09048211
326.20 0.09152876
326.30 0.09257541
326.40 0.09362206
326.50 0.09466871
326.60 0.09571537
326.70 0.09676554
326.80 0.09783331
326.90 0.09894575
327.00 0.1001326
327.10 0.1014071
327.20 0.102756
327.30 0.1041495
327.40 0.1055607
327.50 0.1069754
327.60 0.1083901
327.70 0.1098048
327.80 0.1112194
327.90 0.1126341
328.00 0.1140488
328.10 0.1154635
328.20 0.1168782
328.30 0.1182929
328.40 0.1197075
328.50 0.1211222
328.60 0.1225369
328.70 0.1239309
328.80 0.1252217
328.90 0.1262504
329.00 0.1268425
329.10 0.1269204
329.20 0.1265617
329.30 0.1259409
329.40 0.1252169
329.50 0.1244722
329.60 0.1237275
329.70 0.1229828
329.80 0.1222381
329.90 0.1214934
330.00 0.1207487
330.10 0.120004
330.20 0.1192593
330.30 0.1185146
330.40 0.1177699
330.50 0.1170252
330.60 0.1162805
330.70 0.1155512
330.80 0.1148984
330.90 0.11444
331.00 0.1143056
331.10 0.1145525
331.20 0.1151233
331.30 0.1158886
331.40 0.1167304
331.50 0.1175875
331.60 0.1184447
331.70 0.1193018
331.80 0.120159
331.90 0.1210161
332.00 0.1218733
332.10 0.1227304
332.20 0.1235876
332.30 0.1244447
332.40 0.1253018
332.50 0.126159
332.60 0.1270161
332.70 0.1278636
332.80 0.1286625
332.90 0.1293384
333.00 0.1298092
333.10 0.1300385
333.20 0.1300627
333.30 0.1299639
333.40 0.1298165
333.50 0.1296595
333.60 0.1295025
333.70 0.1293454
333.80 0.1291884
333.90 0.1290313
334.00 0.1288743
334.10 0.1287172
334.20 0.1285602
334.30 0.1284031
334.40 0.1282461
334.50 0.128089
334.60 0.1280627
334.70 0.1284629
334.80 0.1294034
334.90 0.1303589
335.00 0.1303288
335.10 0.1290403
335.20 0.1280681
335.30 0.130356
335.40 0.1379502
335.50 0.1496883
335.60 0.1610763
335.70 0.1669014
335.80 0.164595
335.90 0.1555045
336.00 0.143456
336.10 0.1323887
336.20 0.12505
336.30 0.1225913
336.40 0.1240799
336.50 0.1266142
336.60 0.1270623
336.70 0.1246606
336.80 0.1219859
336.90 0.1229342
337.00 0.129383
337.10 0.1393605
337.20 0.1481743
337.30 0.1516353
337.40 0.1489994
337.50 0.1434311
337.60 0.1395839
337.70 0.1401484
337.80 0.1442723
337.90 0.1491225
338.00 0.1525328
338.10 0.1539075
338.20 0.1529323
338.30 0.148578
338.40 0.1404942
338.50 0.1310698
338.60 0.1250629
338.70 0.1261815
338.80 0.1336233
338.90 0.1423319
339.00 0.1470597
339.10 0.1466651
339.20 0.1448159
339.30 0.1463822
339.40 0.1529516
339.50 0.1618009
339.60 0.1688405
339.70 0.1720509
339.80 0.1719985
339.90 0.1698107
340.00 0.1659364
340.10 0.1608394
340.20 0.1555913
340.30 0.1510062
340.40 0.146536
340.50 0.140845
340.60 0.1336114
340.70 0.1262717
340.80 0.1208827
340.90 0.1186142
341.00 0.119388
341.10 0.1224897
341.20 0.1270964
341.30 0.132241
341.40 0.1367841
341.50 0.1398548
341.60 0.1413672
341.70 0.1420583
341.80 0.142928
341.90 0.1445002
342.00 0.1463583
342.10 0.1472266
342.20 0.1457468
342.30 0.1416199
342.40 0.1362214
342.50 0.1319048
342.60 0.13042
342.70 0.1318225
342.80 0.1347012
342.90 0.1372925
343.00 0.1385653
343.10 0.1386838
343.20 0.1386242
343.30 0.1392252
343.40 0.1404571
343.50 0.1415951
343.60 0.1419861
343.70 0.1414509
343.80 0.1401285
343.90 0.1383461
344.00 0.136702
344.10 0.1358881
344.20 0.1360851
344.30 0.1366574
344.40 0.1367111
344.50 0.1359497
344.60 0.1349146
344.70 0.1345104
344.80 0.1354288
344.90 0.1379141
345.00 0.1418367
345.10 0.1467914
345.20 0.1521179
345.30 0.1569023
345.40 0.1601233
345.50 0.1611442
345.60 0.1602447
345.70 0.158574
345.80 0.1573653
345.90 0.1570734
346.00 0.1571713
346.10 0.1566112
346.20 0.1545559
346.30 0.1510378
346.40 0.1471705
346.50 0.1445007
346.60 0.1437788
346.70 0.1443068
346.80 0.1445869
346.90 0.1435413
347.00 0.1410674
347.10 0.1378315
347.20 0.1349392
347.30 0.1336234
347.40 0.1346679
347.50 0.1377899
347.60 0.1417715
347.70 0.1453961
347.80 0.1482619
347.90 0.1507699
348.00 0.153491
348.10 0.1565274
348.20 0.1593072
348.30 0.1609619
348.40 0.1610306
348.50 0.1598637
348.60 0.1582616
348.70 0.1567448
348.80 0.1553092
348.90 0.1537871
349.00 0.1521868
349.10 0.1506507
349.20 0.149306
349.30 0.1483358
349.40 0.1480683
349.50 0.1487129
349.60 0.1499503
349.70 0.1509805
349.80 0.151231
349.90 0.1511616
350.00 0.1522091
350.10 0.1556559
350.20 0.1614002
350.30 0.1678275
350.40 0.1729122
350.50 0.1754977
350.60 0.1756779
350.70 0.1742551
350.80 0.172058
350.90 0.1695502
351.00 0.1666497
351.10 0.1627674
351.20 0.1572676
351.30 0.1502857
351.40 0.143175
351.50 0.1378563
351.60 0.1354571
351.70 0.1355161
351.80 0.1365196
351.90 0.1371629
352.00 0.137079
352.10 0.1365324
352.20 0.135831
352.30 0.1352414
352.40 0.1353365
352.50 0.1371659
352.60 0.1416798
352.70 0.1487459
352.80 0.1567744
352.90 0.1636053
353.00 0.1680983
353.10 0.1708622
353.20 0.1733207
353.30 0.1762633
353.40 0.1794973
353.50 0.1826359
353.60 0.1857579
353.70 0.1891614
353.80 0.1928415
353.90 0.196471
354.00 0.1996219
354.10 0.2017381
354.20 0.2021488
354.30 0.2005862
354.40 0.1977648
354.50 0.1951392
354.60 0.193817
354.70 0.1937423
354.80 0.194002
354.90 0.1937844
355.00 0.1929378
355.10 0.1917884
355.20 0.1906833
355.30 0.1897833
355.40 0.1891661
355.50 0.1888653
355.60 0.1886908
355.70 0.1881105
355.80 0.186498
355.90 0.1836533
356.00 0.1800409
356.10 0.1764119
356.20 0.1731604
356.30 0.1700086
356.40 0.1663116
356.50 0.1617581
356.60 0.1568811
356.70 0.1528677
356.80 0.150731
356.90 0.1505619
357.00 0.1515371
357.10 0.1525554
357.20 0.1528137
357.30 0.1519696
357.40 0.1500414
357.50 0.1472996
357.60 0.1441884
357.70 0.1411699
357.80 0.1385363
357.90 0.1363443
358.00 0.1345773
358.10 0.1334286
358.20 0.1333763
358.30 0.13487
358.40 0.1378796
358.50 0.1417324
358.60 0.1453739
358.70 0.1478189
358.80 0.1485622
358.90 0.1478226
359.00 0.1465584
359.10 0.1461083
359.20 0.147454
359.30 0.1505359
359.40 0.1541741
359.50 0.1568076
359.60 0.157552
359.70 0.1567487
359.80 0.1555782
359.90 0.155062
360.00 0.1552516
360.10 0.1552302
360.20 0.1538953
360.30 0.1508444
360.40 0.1467132
360.50 0.1428582
360.60 0.1407278
360.70 0.1412857
360.80 0.1445767
360.90 0.1496254
361.00 0.1549149
361.10 0.1592508
361.20 0.1623266
361.30 0.1644889
361.40 0.1660382
361.50 0.1669094
361.60 0.1670864
361.70 0.1670513
361.80 0.1675225
361.90 0.1687254
362.00 0.170123
362.10 0.1709787
362.20 0.1710335
362.30 0.1705798
362.40 0.1701076
362.50 0.1700261
362.60 0.1704715
362.70 0.1710721
362.80 0.1710143
362.90 0.1696903
363.00 0.1674056
363.10 0.1652893
363.20 0.1643838
363.30 0.1648682
363.40 0.1661336
363.50 0.167421
363.60 0.1683096
363.70 0.1687579
363.80 0.1688512
363.90 0.1685545
364.00 0.1676508
364.10 0.1658918
364.20 0.1632497
364.30 0.1600564
364.40 0.1569339
364.50 0.1545916
364.60 0.1535524
364.70 0.1538606
364.80 0.1550189
364.90 0.1563644
365.00 0.1576744
365.10 0.1593908
365.20 0.1620757
365.30 0.1655746
365.40 0.1688123
365.50 0.1705374
365.60 0.1703545
365.70 0.1690235
365.80 0.1677275
365.90 0.1671127
366.00 0.1670463
366.10 0.167156
366.20 0.1674161
366.30 0.1680967
366.40 0.1692679
366.50 0.1705276
366.60 0.1712128
366.70 0.1708278
366.80 0.1693028
366.90 0.166956
367.00 0.1643274
367.10 0.1620305
367.20 0.1606224
367.30 0.1604612
367.40 0.1615505
367.50 0.1635084
367.60 0.1657541
367.70 0.1678094
367.80 0.1694978
367.90 0.1709124
368.00 0.1722185
368.10 0.1734552
368.20 0.1744653
368.30 0.1749716
368.40 0.1747575
368.50 0.1738702
368.60 0.1727057
368.70 0.1718449
368.80 0.1716987
368.90 0.1722576
369.00 0.1732057
369.10 0.1742928
369.20 0.175506
369.30 0.1768333
369.40 0.1779638
369.50 0.178365
369.60 0.1777438
369.70 0.1764063
369.80 0.1751509
369.90 0.1748162
370.00 0.1758456
370.10 0.178113
370.20 0.181066
370.30 0.1840229
370.40 0.1864074
370.50 0.1878459
370.60 0.188209
370.70 0.1877139
370.80 0.1869383
370.90 0.186562
371.00 0.1869259
371.10 0.1877496
371.20 0.1882369
371.30 0.1874881
371.40 0.185002
371.50 0.181009
371.60 0.176437
371.70 0.1724777
371.80 0.170042
371.90 0.169465
372.00 0.1705337
372.10 0.1725493
372.20 0.174278
372.30 0.1741664
372.40 0.1710596
372.50 0.1651068
372.60 0.1580339
372.70 0.1523711
372.80 0.1501637
372.90 0.1520763
373.00 0.1573432
373.10 0.1643245
373.20 0.1711861
373.30 0.1763963
373.40 0.1790325
373.50 0.1788464
373.60 0.1760957
373.70 0.1712975
373.80 0.1651193
373.90 0.15844
374.00 0.1523613
374.10 0.1480168
374.20 0.1462828
374.30 0.1476246
374.40 0.152132
374.50 0.1595526
374.60 0.1691973
374.70 0.1798098
374.80 0.1896455
374.90 0.1969138
375.00 0.2003926
375.10 0.1998218
375.20 0.1958603
375.30 0.1897431
375.40 0.1829023
375.50 0.1766661
375.60 0.1719431
375.70 0.1689782
375.80 0.1673681
375.90 0.1663958
376.00 0.1655281
376.10 0.1648068
376.20 0.1649329
376.30 0.1669761
376.40 0.1718532
376.50 0.1799335
376.60 0.1910287
376.70 0.2045144
376.80 0.2192441
376.90 0.2333087
377.00 0.2441928
377.10 0.2496366
377.20 0.2486699
377.30 0.2419879
377.40 0.2314404
377.50 0.2191566
377.60 0.2069366
377.70 0.1960759
377.80 0.1873197
377.90 0.180823
378.00 0.1762444
378.10 0.1730408
378.20 0.170786
378.30 0.1692501
378.40 0.1682735
378.50 0.1677245
378.60 0.1676241
378.70 0.1682146
378.80 0.1698558
378.90 0.1729509
379.00 0.1780681
379.10 0.1860112
379.20 0.1974854
379.30 0.2124807
379.40 0.2298899
379.50 0.2476681
379.60 0.2633048
379.70 0.2743236
379.80 0.2788433
379.90 0.276163
380.00 0.2671219
380.10 0.2538542
380.20 0.2389757
380.30 0.2246878
380.40 0.2123139
380.50 0.2023329
380.60 0.1946393
380.70 0.1887667
380.80 0.1840541
380.90 0.1799324
381.00 0.176205
381.10 0.1730396
381.20 0.1706305
381.30 0.1688799
381.40 0.1674926
381.50 0.1663936
381.60 0.1658923
381.70 0.1662892
381.80 0.1673223
381.90 0.1681116
382.00 0.1678004
382.10 0.1691163
382.20 0.1788194
382.30 0.2033071
382.40 0.2429942
382.50 0.2904556
382.60 0.3351445
382.70 0.3659973
382.80 0.3756599
382.90 0.3674689
383.00 0.3554763
383.10 0.353526
383.20 0.3663168
383.30 0.3913354
383.40 0.4225532
383.50 0.4501853
383.60 0.4597392
383.70 0.4395372
383.80 0.3911008
383.90 0.3338608
384.00 0.2964416
384.10 0.2936334
384.20 0.3093091
384.30 0.3109794
384.40 0.2855797
384.50 0.2492221
384.60 0.2207588
384.70 0.2027235
384.80 0.1927326
384.90 0.1960885
385.00 0.218428
385.10 0.2522833
385.20 0.2807865
385.30 0.2899258
385.40 0.2768286
385.50 0.2532858
385.60 0.2398532
385.70 0.2474493
385.80 0.2645995
385.90 0.271461
386.00 0.2619088
386.10 0.2468288
386.20 0.2375485
386.30 0.2343828
386.40 0.2329576
386.50 0.2336952
386.60 0.2426636
386.70 0.2645441
386.80 0.2948718
386.90 0.3187468
387.00 0.3196177
387.10 0.294287
387.20 0.2609925
387.30 0.2483562
387.40 0.2694798
387.50 0.3057383
387.60 0.3210192
387.70 0.2969641
387.80 0.248656
387.90 0.2021144
388.00 0.168782
388.10 0.1503019
388.20 0.1550238
388.30 0.1896824
388.40 0.2404492
388.50 0.2862831
388.60 0.3307585
388.70 0.3960579
388.80 0.481915
388.90 0.5492908
389.00 0.5572317
389.10 0.5050895
389.20 0.4270512
389.30 0.3573191
389.40 0.3087482
389.50 0.2774963
389.60 0.2555582
389.70 0.2406431
389.80 0.2405481
389.90 0.2667656
390.00 0.3167851
390.10 0.3656681
390.20 0.3867728
390.30 0.3785887
390.40 0.3631356
390.50 0.357261
390.60 0.3557133
390.70 0.3452154
390.80 0.3238285
390.90 0.300532
391.00 0.2842648
391.10 0.2809571
391.20 0.2935656
391.30 0.31773
391.40 0.3406136
391.50 0.3486922
391.60 0.3373025
391.70 0.3094937
391.80 0.2704351
391.90 0.2284505
392.00 0.1964727
392.10 0.1852363
392.20 0.1945451
392.30 0.213128
392.40 0.2272271
392.50 0.2307155
392.60 0.2294158
392.70 0.2388304
392.80 0.2706469
392.90 0.3213169
393.00 0.385132
393.10 0.4749973
393.20 0.6090751
393.30 0.7638692
393.40 0.860418
393.50 0.8248575
393.60 0.6653713
393.70 0.4707952
393.80 0.3317311
393.90 0.274835
394.00 0.2686609
394.10 0.2727216
394.20 0.2687191
394.30 0.2584665
394.40 0.2500803
394.50 0.2501378
394.60 0.260337
394.70 0.2760616
394.80 0.290086
394.90 0.2976988
395.00 0.2995644
395.10 0.299532
395.20 0.3014056
395.30 0.3083441
395.40 0.3217032
395.50 0.3362605
395.60 0.3376009
395.70 0.3143754
395.80 0.2741841
395.90 0.2408907
396.00 0.2302875
396.10 0.2335024
396.20 0.2327978
396.30 0.227607
396.40 0.2393476
396.50 0.2960387
396.60 0.4174345
396.70 0.6025892
396.80 0.8149918
396.90 0.9814487
397.00 1.027515
397.10 0.9339285
397.20 0.7555187
397.30 0.5785212
397.40 0.458709
397.50 0.3983799
397.60 0.3732565
397.70 0.3648659
397.80 0.3657066
397.90 0.3681476
398.00 0.3621656
398.10 0.3452058
398.20 0.3277798
398.30 0.3236835
398.40 0.3345564
398.50 0.349083
398.60 0.3572373
398.70 0.3603559
398.80 0.3624566
398.90 0.3598844
399.00 0.3507371
399.10 0.3480563
399.20 0.3700206
399.30 0.4140582
399.40 0.4513147
399.50 0.4539492
399.60 0.4224623
399.70 0.3814925
399.80 0.3540106
399.90 0.344442
400.00 0.3442346
400.10 0.3465252
400.20 0.3507633
400.30 0.355935
400.40 0.3561036
400.50 0.3475526
400.60 0.3367424
400.70 0.3375332
400.80 0.3592186
400.90 0.3957734
401.00 0.4276822
401.10 0.4357326
401.20 0.4157711
401.30 0.3822057
401.40 0.3549092
401.50 0.34049
401.60 0.3307721
401.70 0.317379
401.80 0.3023068
401.90 0.2949006
402.00 0.3007969
402.10 0.3163652
402.20 0.3318971
402.30 0.3374516
402.40 0.3310215
402.50 0.322922
402.60 0.3263213
402.70 0.3413652
402.80 0.3509977
402.90 0.3366815
403.00 0.2984991
403.10 0.2552202
403.20 0.2254738
403.30 0.2153766
403.40 0.2224162
403.50 0.243941
403.60 0.2765042
403.70 0.312936
403.80 0.3473925
403.90 0.3795075
404.00 0.4100051
404.10 0.4357732
404.20 0.4517935
404.30 0.4528657
404.40 0.4334159
404.50 0.3916196
404.60 0.3380354
404.70 0.2935112
404.80 0.2711912
404.90 0.2655715
405.00 0.2635264
405.10 0.2620781
405.20 0.2713082
405.30 0.2993157
405.40 0.338651
405.50 0.3710999
405.60 0.3836981
405.70 0.3781251
405.80 0.3656466
405.90 0.3550948
406.00 0.3471582
406.10 0.3384087
406.20 0.3272771
406.30 0.3183932
406.40 0.3193569
406.50 0.331395
406.60 0.3442978
406.70 0.3421351
406.80 0.3176303
406.90 0.2795723
407.00 0.2465396
407.10 0.2328672
407.20 0.2383427
407.30 0.2496269
407.40 0.2528204
407.50 0.2451788
407.60 0.2358229
407.70 0.2365549
407.80 0.2514421
407.90 0.2752312
408.00 0.2985851
408.10 0.3154224
408.20 0.3251483
408.30 0.3297016
408.40 0.3306584
408.50 0.3295038
408.60 0.3280948
408.70 0.326054
408.80 0.3203926
408.90 0.3098634
409.00 0.2983901
409.10 0.2910531
409.20 0.2885845
409.30 0.2873423
409.40 0.2843311
409.50 0.2813248
409.60 0.2826331
409.70 0.2919362
409.80 0.3137033
409.90 0.3557506
410.00 0.4251004
410.10 0.5126903
410.20 0.5823476
410.30 0.5884563
410.40 0.5155033
410.50 0.3985508
410.60 0.2978672
410.70 0.2508844
410.80 0.2507594
410.90 0.2676323
411.00 0.2786682
411.10 0.2777849
411.20 0.2696724
411.30 0.2622256
411.40 0.2619032
411.50 0.2674841
411.60 0.2680728
411.70 0.2527704
411.80 0.2236432
411.90 0.1976917
412.00 0.1934789
412.10 0.2152667
412.20 0.2505646
412.30 0.281865
412.40 0.299201
412.50 0.303205
412.60 0.2995162
412.70 0.2934346
412.80 0.287838
412.90 0.282146
413.00 0.2746877
413.10 0.2666359
413.20 0.2617086
413.30 0.2610583
413.40 0.2601962
413.50 0.2539698
413.60 0.2441712
413.70 0.2389607
413.80 0.2453212
413.90 0.2638214
414.00 0.2881781
414.10 0.3076432
414.20 0.3111714
414.30 0.2941359
414.40 0.2628266
414.50 0.2311483
414.60 0.2113794
414.70 0.206225
414.80 0.2099702
414.90 0.2159493
415.00 0.2234718
415.10 0.23819
415.20 0.2643582
415.30 0.2970908
415.40 0.3238055
415.50 0.3331047
415.60 0.3224684
415.70 0.3001775
415.80 0.2803193
415.90 0.274322
416.00 0.2837089
416.10 0.2996934
416.20 0.3116683
416.30 0.3168566
416.40 0.3201406
416.50 0.3255333
416.60 0.3308757
416.70 0.330465
416.80 0.3211838
416.90 0.3048696
417.00 0.2851168
417.10 0.2640473
417.20 0.2439373
417.30 0.2288861
417.40 0.2235713
417.50 0.2297852
417.60 0.2432825
417.70 0.2564794
417.80 0.2647382
417.90 0.2709606
418.00 0.2836919
418.10 0.3073499
418.20 0.3335831
418.30 0.3472658
418.40 0.3425377
418.50 0.3293086
418.60 0.3222485
418.70 0.3243609
418.80 0.3258233
418.90 0.3174434
419.00 0.299946
419.10 0.2803921
419.20 0.263561
419.30 0.2499545
419.40 0.2405743
419.50 0.2387827
419.60 0.2455695
419.70 0.2565639
419.80 0.2656399
419.90 0.2703582
420.00 0.2718644
420.10 0.2707795
420.20 0.2657349
420.30 0.2551167
420.40 0.2390306
420.50 0.2201955
420.60 0.2031225
420.70 0.1914542
420.80 0.1861637
420.90 0.1871736
421.00 0.1959955
421.10 0.2127301
421.20 0.2318244
421.30 0.2458607
421.40 0.2531807
421.50 0.2582554
421.60 0.2630905
421.70 0.2619042
421.80 0.2485624
421.90 0.226247
422.00 0.20488
422.10 0.1905808
422.20 0.1808988
422.30 0.1700076
422.40 0.1557134
422.50 0.1389882
422.60 0.1211102
422.70 0.1057313
422.80 0.1000944
422.90 0.1092903
423.00 0.1289613
423.10 0.1462751
423.20 0.1505016
423.30 0.1434607
423.40 0.1376935
423.50 0.1440214
423.60 0.1611685
423.70 0.1785502
423.80 0.1895975
423.90 0.1987742
424.00 0.2137052
424.10 0.2342101
424.20 0.2520129
424.30 0.2594361
424.40 0.2562056
424.50 0.2477795
424.60 0.2396569
424.70 0.2349034
424.80 0.2348077
424.90 0.2396391
425.00 0.2474544
425.10 0.2528993
425.20 0.2506679
425.30 0.2407051
425.40 0.2288455
425.50 0.2210744
425.60 0.2175705
425.70 0.2127066
425.80 0.2016507
425.90 0.1876048
426.00 0.1807883
426.10 0.1877886
426.20 0.2032042
426.30 0.2158855
426.40 0.2218939
426.50 0.2274165
426.60 0.2378124
426.70 0.2501987
426.80 0.2600177
426.90 0.2674374
427.00 0.2743689
427.10 0.2790286
427.20 0.2764611
427.30 0.26349
427.40 0.2412954
427.50 0.2163287
427.60 0.2001428
427.70 0.2026768
427.80 0.2229131
427.90 0.2497146
428.00 0.2711573
428.10 0.2816907
428.20 0.2831601
428.30 0.281496
428.40 0.28304
428.50 0.2885129
428.60 0.2899529
428.70 0.2787984
428.80 0.2560821
428.90 0.2318733
429.00 0.2162389
429.10 0.2134292
429.20 0.2219978
429.30 0.2373043
429.40 0.2537843
429.50 0.2682152
429.60 0.2822362
429.70 0.2979161
429.80 0.3108547
429.90 0.3114655
430.00 0.2954927
430.10 0.2723644
430.20 0.260268
430.30 0.2698256
430.40 0.2927229
430.50 0.3093177
430.60 0.3067222
430.70 0.2886987
430.80 0.2690467
430.90 0.2572667
431.00 0.2531948
431.10 0.2532103
431.20 0.2558392
431.30 0.2603994
431.40 0.2630629
431.50 0.2585041
431.60 0.2480089
431.70 0.2410703
431.80 0.2467717
431.90 0.2655461
432.00 0.2889145
432.10 0.306262
432.20 0.3121757
432.30 0.3086707
432.40 0.3023298
432.50 0.2986828
432.60 0.2980454
432.70 0.2981118
432.80 0.298342
432.90 0.3006027
433.00 0.3079922
433.10 0.3228446
433.20 0.3435092
433.30 0.3630509
433.40 0.3740879
433.50 0.3772936
433.60 0.3862344
433.70 0.424007
433.80 0.5111909
433.90 0.6465727
434.00 0.7922658
434.10 0.8852023
434.20 0.8781357
434.30 0.7759331
434.40 0.6322131
434.50 0.5099195
434.60 0.4413707
434.70 0.4188522
434.80 0.4135451
434.90 0.401034
435.00 0.3742846
435.10 0.3397033
435.20 0.3075867
435.30 0.2865425
435.40 0.280633
435.50 0.2869951
435.60 0.2965942
435.70 0.3005809
435.80 0.2985161
435.90 0.2981402
436.00 0.3049624
436.10 0.3139515
436.20 0.3144152
436.30 0.3048461
436.40 0.2977212
436.50 0.3049923
436.60 0.3234413
436.70 0.3385803
436.80 0.3411201
436.90 0.334505
437.00 0.3269663
437.10 0.3224336
437.20 0.3200045
437.30 0.31739
437.40 0.3138016
437.50 0.3115914
437.60 0.3144376
437.70 0.3223312
437.80 0.3281058
437.90 0.3232442
438.00 0.3089498
438.10 0.2971492
438.20 0.2994186
438.30 0.3176453
438.40 0.3456029
438.50 0.3754087
438.60 0.3988162
438.70 0.4062109
438.80 0.3923815
438.90 0.3639023
439.00 0.3369276
439.10 0.3254517
439.20 0.3310566
439.30 0.3446211
439.40 0.3578325
439.50 0.3708551
439.60 0.3875849
439.70 0.405689
439.80 0.4155326
439.90 0.4111966
440.00 0.3984255
440.10 0.3882753
440.20 0.3850136
440.30 0.3838443
440.40 0.3792018
440.50 0.3715333
440.60 0.3658297
440.70 0.365295
440.80 0.3689718
440.90 0.374123
441.00 0.3790884
441.10 0.3838247
441.20 0.3890819
441.30 0.3960289
441.40 0.4056927
441.50 0.4183805
441.60 0.433628
441.70 0.4505131
441.80 0.4663839
441.90 0.4761755
442.00 0.4754194
442.10 0.4649743
442.20 0.451545
442.30 0.4419906
442.40 0.4382997
442.50 0.437855
442.60 0.4371054
442.70 0.4347952
442.80 0.4327591
442.90 0.4353766
443.00 0.4469292
443.10 0.4663167
443.20 0.4841898
443.30 0.4885709
443.40 0.4767005
443.50 0.4602837
443.60 0.4562379
443.70 0.4720061
443.80 0.5015938
443.90 0.5331591
444.00 0.5564701
444.10 0.5653958
444.20 0.5597084
444.30 0.5474153
444.40 0.5400226
444.50 0.5429685
444.60 0.552455
444.70 0.5626358
444.80 0.572464
444.90 0.5833763
445.00 0.5942253
445.10 0.5998803
445.20 0.5945524
445.30 0.5756194
445.40 0.5464776
445.50 0.5174918
445.60 0.5008147
445.70 0.5014723
445.80 0.5136469
445.90 0.5268805
446.00 0.5351106
446.10 0.5397194
446.20 0.5442303
446.30 0.5481731
446.40 0.5480302
446.50 0.5429446
446.60 0.5383294
446.70 0.5421325
446.80 0.557572
446.90 0.5811671
447.00 0.6074314
447.10 0.6332571
447.20 0.6566751
447.30 0.6732638
447.40 0.6764721
447.50 0.6626665
447.60 0.6368272
447.70 0.6125419
447.80 0.6042564
447.90 0.6166334
448.00 0.6405696
448.10 0.6617743
448.20 0.6733457
448.30 0.6789056
448.40 0.6847366
448.50 0.6921583
448.60 0.6983277
448.70 0.7021161
448.80 0.7059088
448.90 0.7115263
449.00 0.7173924
449.10 0.720366
449.20 0.7184254
449.30 0.7113208
449.40 0.7003407
449.50 0.6891547
449.60 0.6837759
449.70 0.6887422
449.80 0.7035091
449.90 0.7235836
450.00 0.7433559
450.10 0.7569021
450.20 0.7588331
450.30 0.7474829
450.40 0.7278765
450.50 0.7090281
450.60 0.6973481
450.70 0.6939929
450.80 0.6971495
450.90 0.7036674
451.00 0.7087488
451.10 0.70806
451.20 0.7028972
451.30 0.7006586
451.40 0.7069561
451.50 0.7191611
451.60 0.7302746
451.70 0.7382691
451.80 0.7483854
451.90 0.7655636
452.00 0.7873829
452.10 0.8057689
452.20 0.8142482
452.30 0.8126628
452.40 0.8057402
452.50 0.7978944
452.60 0.790206
452.70 0.7823144
452.80 0.7758328
452.90 0.7738269
453.00 0.7760095
453.10 0.7761544
453.20 0.7667531
453.30 0.7468764
453.40 0.7246632
453.50 0.712494
453.60 0.7200968
453.70 0.7502457
453.80 0.7978716
453.90 0.8513967
454.00 0.8967617
454.10 0.9239984
454.20 0.9315427
454.30 0.923703
454.40 0.9046988
454.50 0.8770206
454.60 0.8443159
454.70 0.8129112
454.80 0.7882732
454.90 0.7713613
455.00 0.7601415
455.10 0.7530194
455.20 0.7502865
455.30 0.753572
455.40 0.7645519
455.50 0.7834628
455.60 0.80889
455.70 0.8388742
455.80 0.8715171
455.90 0.9037859
456.00 0.9313403
456.10 0.9519346
456.20 0.9677157
456.30 0.9828948
456.40 0.9998944
456.50 1.018903
456.60 1.039489
456.70 1.059682
456.80 1.075004
456.90 1.082373
457.00 1.085707
457.10 1.094164
457.20 1.112217
457.30 1.13233
457.40 1.139905
457.50 1.126462
457.60 1.09718
457.70 1.065784
457.80 1.043184
457.90 1.031626
458.00 1.027495
458.10 1.025621
458.20 1.019116
458.30 0.9984765
458.40 0.9567271
458.50 0.8970173
458.60 0.8328051
458.70 0.7791971
458.80 0.7447302
458.90 0.7309008
459.00 0.7354529
459.10 0.7529587
459.20 0.7743636
459.30 0.791252
459.40 0.8027939
459.50 0.8160018
459.60 0.8372085
459.70 0.8641332
459.80 0.8874441
459.90 0.8998372
460.00 0.9020587
460.10 0.9010104
460.20 0.9037164
460.30 0.9109906
460.40 0.9150412
460.50 0.904831
460.60 0.87815
460.70 0.8501459
460.80 0.8465157
460.90 0.8837052
461.00 0.9541952
461.10 1.031321
461.20 1.089366
461.30 1.121215
461.40 1.138519
461.50 1.156496
461.60 1.178897
461.70 1.197511
461.80 1.204366
461.90 1.200997
462.00 1.195495
462.10 1.193297
462.20 1.192194
462.30 1.183692
462.40 1.156347
462.50 1.100733
462.60 1.018021
462.70 0.9247442
462.80 0.8457324
462.90 0.7997376
463.00 0.7904055
463.10 0.8086811
463.20 0.8399882
463.30 0.8690502
463.40 0.8839777
463.50 0.8817407
463.60 0.8690699
463.70 0.8562181
463.80 0.8492176
463.90 0.8483079
464.00 0.8527994
464.10 0.8643341
464.20 0.8841228
464.30 0.9081719
464.40 0.9268147
464.50 0.9307847
464.60 0.9198688
464.70 0.9044304
464.80 0.8965549
464.90 0.8994594
465.00 0.9072744
465.10 0.9151987
465.20 0.9261049
465.30 0.9449474
465.40 0.9694492
465.50 0.9907281
465.60 1.00364
465.70 1.013835
465.80 1.032441
465.90 1.064097
466.00 1.10135
466.10 1.131823
466.20 1.150188
466.30 1.1618
466.40 1.174618
466.50 1.186859
466.60 1.18375
466.70 1.148318
466.80 1.076488
466.90 0.9822428
467.00 0.8882564
467.10 0.8118848
467.20 0.7600405
467.30 0.7330356
467.40 0.7275858
467.50 0.7372796
467.60 0.753945
467.70 0.7711364
467.80 0.784941
467.90 0.7921711
468.00 0.7916791
468.10 0.788305
468.20 0.7914612
468.30 0.8070307
468.40 0.8326868
468.50 0.8624696
468.60 0.8932759
468.70 0.9237123
468.80 0.9498449
468.90 0.966227
469.00 0.9713205
469.10 0.9695073
469.20 0.9670225
469.30 0.9675483
469.40 0.9721175
469.50 0.9811584
469.60 0.9950715
469.70 1.013048
469.80 1.032365
469.90 1.050473
470.00 1.06801
470.10 1.087745
470.20 1.109213
470.30 1.125409
470.40 1.127084
470.50 1.111261
470.60 1.084546
470.70 1.057751
470.80 1.039447
470.90 1.034153
471.00 1.041797
471.10 1.055268
471.20 1.060668
471.30 1.045947
471.40 1.011824
471.50 0.9719498
471.60 0.9418309
471.70 0.9296575
471.80 0.9358948
471.90 0.9569756
472.00 0.9864067
472.10 1.015698
472.20 1.038843
472.30 1.056122
472.40 1.071607
472.50 1.08647
472.60 1.095986
472.70 1.094588
472.80 1.084137
472.90 1.075305
473.00 1.078912
473.10 1.095202
473.20 1.113357
473.30 1.122697
473.40 1.122177
473.50 1.118112
473.60 1.115366
473.70 1.114059
473.80 1.113818
473.90 1.116162
474.00 1.121733
474.10 1.12884
474.20 1.137063
474.30 1.149261
474.40 1.167165
474.50 1.186719
474.60 1.200846
474.70 1.206939
474.80 1.209627
474.90 1.215948
475.00 1.228578
475.10 1.243603
475.20 1.254461
475.30 1.258361
475.40 1.258121
475.50 1.256761
475.60 1.250709
475.70 1.229648
475.80 1.183006
475.90 1.106138
476.00 1.002896
476.10 0.8865185
476.20 0.7777184
476.30 0.6965469
476.40 0.6511719
476.50 0.6333928
476.60 0.6266894
476.70 0.6198055
476.80 0.6131312
476.90 0.6129547
477.00 0.6209206
477.10 0.6308951
477.20 0.6366754
477.30 0.6409466
477.40 0.6542229
477.50 0.6839384
477.60 0.7250558
477.70 0.7624909
477.80 0.7830673
477.90 0.7852643
478.00 0.7785051
478.10 0.7743032
478.20 0.7783567
478.30 0.7893135
478.40 0.8024841
478.50 0.8145539
478.60 0.8262329
478.70 0.8402722
478.80 0.8570531
478.90 0.8736051
479.00 0.8877211
479.10 0.9012855
479.20 0.9169976
479.30 0.9330796
479.40 0.9448198
479.50 0.9514077
479.60 0.9583122
479.70 0.9719258
479.80 0.9930616
479.90 1.016368
480.00 1.034165
480.10 1.039356
480.20 1.026368
480.30 0.9928575
480.40 0.9412136
480.50 0.8770681
480.60 0.8069924
480.70 0.7387865
480.80 0.6836856
480.90 0.6539491
481.00 0.6541773
481.10 0.6757015
481.20 0.7028757
481.30 0.7256176
481.40 0.7447612
481.50 0.7651444
481.60 0.7860409
481.70 0.8016419
481.80 0.8092231
481.90 0.8137907
482.00 0.8241866
482.10 0.846074
482.20 0.8781974
482.30 0.9129989
482.40 0.9396755
482.50 0.9500319
482.60 0.944795
482.70 0.9334424
482.80 0.9259025
482.90 0.9236399
483.00 0.9206166
483.10 0.9133484
483.20 0.9079422
483.30 0.9147098
483.40 0.9366922
483.50 0.966333
483.60 0.9942746
483.70 1.018879
483.80 1.043595
483.90 1.0657
484.00 1.072402
484.10 1.051309
484.20 1.004189
484.30 0.9496164
484.40 0.911258
484.50 0.9010983
484.60 0.9105426
484.70 0.9169006
484.80 0.9013423
484.90 0.8629582
485.00 0.8165831
485.10 0.779579
485.20 0.7627964
485.30 0.7696997
485.40 0.7963174
485.50 0.83021
485.60 0.8575662
485.70 0.8823403
485.80 0.9407611
485.90 1.084436
486.00 1.32799
486.10 1.604653
486.20 1.788583
486.30 1.783981
486.40 1.60163
486.50 1.345436
486.60 1.126023
486.70 0.9917402
486.80 0.9305713
486.90 0.9122272
487.00 0.916483
487.10 0.9342986
487.20 0.9603571
487.30 0.9893375
487.40 1.014218
487.50 1.026507
487.60 1.021237
487.70 1.002901
487.80 0.9842383
487.90 0.9767259
488.00 0.9818939
488.10 0.9927513
488.20 1.00239
488.30 1.009734
488.40 1.017899
488.50 1.029613
488.60 1.04541
488.70 1.063899
488.80 1.0821
488.90 1.096923
489.00 1.107209
489.10 1.113459
489.20 1.116348
489.30 1.116558
489.40 1.115931
489.50 1.117315
489.60 1.121608
489.70 1.125863
489.80 1.126031
489.90 1.121528
490.00 1.116759
490.10 1.118843
490.20 1.133312
490.30 1.160574
490.40 1.195699
490.50 1.231739
490.60 1.264978
490.70 1.296588
490.80 1.327904
490.90 1.356191
491.00 1.377495
491.10 1.391842
491.20 1.402214
491.30 1.408698
491.40 1.407466
491.50 1.397649
491.60 1.385857
491.70 1.381438
491.80 1.388727
491.90 1.405715
492.00 1.42883
492.10 1.455376
492.20 1.48163
492.30 1.502987
492.40 1.518829
492.50 1.535204
492.60 1.559077
492.70 1.589645
492.80 1.61799
492.90 1.635434
493.00 1.640022
493.10 1.635999
493.20 1.629357
493.30 1.624857
493.40 1.625184
493.50 1.630091
493.60 1.636832
493.70 1.642299
493.80 1.645257
493.90 1.647406
494.00 1.65304
494.10 1.667393
494.20 1.694073
494.30 1.731907
494.40 1.773666
494.50 1.809973
494.60 1.836585
494.70 1.858671
494.80 1.885931
494.90 1.921515
495.00 1.955438
495.10 1.966175
495.20 1.926346
495.30 1.811059
495.40 1.611168
495.50 1.347562
495.60 1.071538
495.70 0.8422982
495.80 0.6967584
495.90 0.6355598
496.00 0.6316327
496.10 0.6503399
496.20 0.6669868
496.30 0.6748468
496.40 0.6825482
496.50 0.7031638
496.60 0.7434109
496.70 0.8007497
496.80 0.8664355
496.90 0.9291346
497.00 0.9780834
497.10 1.007413
497.20 1.020222
497.30 1.027303
497.40 1.039515
497.50 1.059788
497.60 1.08148
497.70 1.094587
497.80 1.093601
497.90 1.079347
498.00 1.055807
498.10 1.028377
498.20 1.005843
498.30 1.000681
498.40 1.021823
498.50 1.064962
498.60 1.113121
498.70 1.150071
498.80 1.173256
498.90 1.191975
499.00 1.213748
499.10 1.235228
499.20 1.248015
499.30 1.250463
499.40 1.250825
499.50 1.258056
499.60 1.259355
499.70 1.208914
499.80 1.054418
499.90 0.7894282
500.00 1
500.10 0.8981509
500.20 0.8707243
500.30 0.8652199
500.40 0.8667032
500.50 0.8789392
500.60 0.896471
500.70 0.9043046
500.80 0.8940167
500.90 0.8590781
501.00 0.9372357
501.10 0.9644955
501.20 0.9653474
501.30 0.9660324
501.40 0.9617195
501.50 0.8838776
501.60 0.8839431
501.70 0.9437766
501.80 0.9688859
501.90 1.03753
502.00 1.068156
502.10 1.073273
502.20 1.095517
502.30 1.069508
502.40 1.035743
502.50 1.019379
502.60 1.07674
502.70 1.105602
502.80 1.146671
502.90 1.125296
503.00 1.117981
503.10 1.116134
503.20 1.181061
503.30 1.195668
503.40 1.19565
503.50 1.215255
503.60 1.237737
503.70 1.184486
503.80 1.216953
503.90 1.223553
504.00 1.198414
504.10 1.207255
504.20 1.259135
504.30 1.278037
504.40 1.307394
504.50 1.344281
504.60 1.432446
504.70 1.485697
504.80 1.446475
504.90 1.366906
505.00 1.276077
505.10 1.205688
505.20 1.218049
505.30 1.249931
505.40 1.294276
505.50 1.287301
505.60 1.242539
505.70 1.224244
505.80 1.244147
505.90 1.298828
506.00 1.346062
506.10 1.32486
506.20 1.313399
506.30 1.335506
506.40 1.389942
506.50 1.347515
506.60 1.279824
506.70 1.278162
506.80 1.355105
506.90 1.381382
507.00 1.378111
507.10 1.368419
507.20 1.350899
507.30 1.315383
507.40 1.348784
507.50 1.450157
507.60 1.505892
507.70 1.421324
507.80 1.403894
507.90 1.511902
508.00 1.476154
508.10 1.35187
508.20 1.308419
508.30 1.33429
508.40 1.267565
508.50 1.276006
508.60 1.445838
508.70 1.497736
508.80 1.499994
508.90 1.443056
509.00 1.331508
509.10 1.376664
509.20 1.521094
509.30 1.526247
509.40 1.471972
509.50 1.395149
509.60 1.303671
509.70 1.338049
509.80 1.408153
509.90 1.476166
510.00 1.412299
510.10 1.363677
510.20 1.338687
510.30 1.316622
510.40 1.324139
510.50 1.342845
510.60 1.299537
510.70 1.310897
510.80 1.344578
510.90 1.355623
511.00 1.370027
511.10 1.381417
511.20 1.355391
511.30 1.366435
511.40 1.432238
511.50 1.48802
511.60 1.567834
511.70 1.631974
511.80 1.626464
511.90 1.538715
512.00 1.489343
512.10 1.461493
512.20 1.443503
512.30 1.4691
512.40 1.460284
512.50 1.39525
512.60 1.361443
512.70 1.363451
512.80 1.34524
512.90 1.325784
513.00 1.340128
513.10 1.352072
513.20 1.438195
513.30 1.59818
513.40 1.635269
513.50 1.532073
513.60 1.532711
513.70 1.592919
513.80 1.684397
513.90 1.6982
514.00 1.62616
514.10 1.523793
514.20 1.534682
514.30 1.535082
514.40 1.512164
514.50 1.489581
514.60 1.432994
514.70 1.375329
514.80 1.422069
514.90 1.509269
515.00 1.5
515.10 1.45578
515.20 1.46754
515.30 1.4124
515.40 1.294217
515.50 1.276179
515.60 1.299531
515.70 1.467123
515.80 1.680215
515.90 1.767052
516.00 1.793282
516.10 1.834713
516.20 1.942812
516.30 1.969267
516.40 1.910053
516.50 1.944962
516.60 1.850589
516.70 1.477148
516.80 1.014726
516.90 0.7051517
517.00 0.6061204
517.10 0.6277984
517.20 0.5826272
517.30 0.5688537
517.40 0.577566
517.50 0.6071271
517.60 0.679548
517.70 0.7014643
517.80 0.6782076
517.90 0.7194965
518.00 0.6884896
518.10 0.6639284
518.20 0.6963709
518.30 0.7311665
518.40 0.7353008
518.50 0.8122491
518.60 0.9678494
518.70 1.101456
518.80 1.108616
518.90 1.125261
519.00 1.152711
519.10 1.162945
519.20 1.163821
519.30 1.141547
519.40 1.123706
519.50 1.167014
519.60 1.196859
519.70 1.26458
519.80 1.378772
519.90 1.414587
520.00 1.30379
520.10 1.209149
520.20 1.184338
520.30 1.194322
520.40 1.153253
520.50 1.048664
520.60 0.9204365
520.70 0.8475153
520.80 0.8528767
520.90 0.8638736
521.00 0.8601861
521.10 0.9029107
521.20 1.12398
521.30 1.430004
521.40 1.651007
521.50 1.679179
521.60 1.638706
521.70 1.624504
521.80 1.644175
521.90 1.66559
522.00 1.71009
522.10 1.715255
522.20 1.794235
522.30 1.828155
522.40 1.782076
522.50 1.763859
522.60 1.717805
522.70 1.652455
522.80 1.681007
522.90 1.7423
523.00 1.86332
523.10 1.995479
523.20 1.990427
523.30 1.881489
523.40 1.806316
523.50 1.739673
523.60 1.853788
523.70 1.923719
523.80 1.898681
523.90 1.911263
524.00 1.950026
524.10 1.792704
524.20 1.557844
524.30 1.473628
524.40 1.502365
524.50 1.627608
524.60 1.663636
524.70 1.59476
524.80 1.539198
524.90 1.614484
525.00 1.671673
525.10 1.613132
525.20 1.595028
525.30 1.67421
525.40 1.79047
525.50 1.848594
525.60 1.825837
525.70 1.859281
525.80 1.932619
525.90 1.945421
526.00 1.87636
526.10 1.744826
526.20 1.655678
526.30 1.615413
526.40 1.609224
526.50 1.553751
526.60 1.504414
526.70 1.488789
526.80 1.581726
526.90 1.561287
527.00 1.371951
527.10 1.283518
527.20 1.459134
527.30 1.681383
527.40 1.828732
527.50 1.883478
527.60 1.874436
527.70 1.863778
527.80 1.857773
527.90 1.855903
528.00 1.883973
528.10 1.83662
528.20 1.781677
528.30 1.790011
528.40 1.8472
528.50 1.867799
528.60 1.946856
528.70 2.020606
528.80 2.10288
528.90 2.054603
529.00 2.019152
529.10 2.017734
529.20 1.99085
529.30 2.008531
529.40 2.027927
529.50 2.080171
529.60 2.102987
529.70 2.055699
529.80 1.934918
529.90 1.861598
530.00 1.833272
530.10 1.904984
530.20 1.970095
530.30 2.087784
530.40 2.188752
530.50 2.215094
530.60 2.194357
530.70 2.202036
530.80 2.067804
530.90 1.946368
531.00 1.943038
531.10 1.925619
531.20 1.912543
531.30 1.907712
531.40 1.947404
531.50 1.960653
531.60 2.014821
531.70 2.049462
531.80 2.019766
531.90 2.00744
532.00 1.99076
532.10 1.989402
532.20 1.998314
532.30 2.038179
532.40 2.028964
532.50 2.001471
532.60 2.024222
532.70 2.001257
532.80 1.869247
532.90 1.699129
533.00 1.667943
533.10 1.841922
533.20 1.989045
533.30 2.014786
533.40 1.994412
533.50 1.980824
533.60 1.973378
533.70 1.956233
533.80 1.991183
533.90 2.031817
534.00 2.03246
534.10 2.018205
534.20 2.019956
534.30 2.010365
534.40 2.057439
534.50 2.110177
534.60 2.118845
534.70 2.020272
534.80 1.991338
534.90 2.046585
535.00 2.136603
535.10 2.205539
535.20 2.363397
535.30 2.480377
535.40 2.480526
535.50 2.484214
535.60 2.455268
535.70 2.426834
535.80 2.372261
535.90 2.244016
536.00 2.102224
536.10 2.083078
536.20 2.106067
536.30 2.163625
536.40 2.181419
536.50 2.165537
536.60 2.116075
536.70 2.143889
536.80 2.196067
536.90 2.22154
537.00 2.18896
537.10 2.098948
537.20 1.99001
537.30 2.009925
537.40 2.116253
537.50 2.255233
537.60 2.358113
537.70 2.371266
537.80 2.377968
537.90 2.394565
538.00 2.469482
538.10 2.545256
538.20 2.543404
538.30 2.494138
538.40 2.485828
538.50 2.464001
538.60 2.447387
538.70 2.50006
538.80 2.537065
538.90 2.555425
539.00 2.580671
539.10 2.544035
539.20 2.506785
539.30 2.437784
539.40 2.403488
539.50 2.381578
539.60 2.358333
539.70 2.286193
539.80 2.227819
539.90 2.322186
540.00 2.524317
540.10 2.687227
540.20 2.738041
540.30 2.761322
540.40 2.728003
540.50 2.596392
540.60 2.414438
540.70 2.29461
540.80 2.334481
540.90 2.449966
541.00 2.410917
541.10 2.278127
541.20 2.278365
541.30 2.341183
541.40 2.403929
541.50 2.483457
541.60 2.621049
541.70 2.667288
541.80 2.608408
541.90 2.640958
542.00 2.706695
542.10 2.711514
542.20 2.681162
542.30 2.661194
542.40 2.630616
542.50 2.641678
542.60 2.623801
542.70 2.63503
542.80 2.736999
542.90 2.725025
543.00 2.543463
543.10 2.408749
543.20 2.388202
543.30 2.400844
543.40 2.451014
543.50 2.470226
543.60 2.493537
543.70 2.648291
543.80 2.766564
543.90 2.747251
544.00 2.768857
544.10 2.888673
544.20 3.022298
544.30 3.088636
544.40 3.110219
544.50 3.074077
544.60 2.934775
544.70 2.603493
544.80 2.195519
544.90 1.804999
545.00 1.51139
545.10 1.366465
545.20 1.272015
545.30 1.232727
545.40 1.278371
545.50 1.334296
545.60 1.329298
545.70 1.314513
545.80 1.353675
545.90 1.377015
546.00 1.378123
546.10 1.408963
546.20 1.436819
546.30 1.543136
546.40 1.593569
546.50 1.640737
546.60 1.674866
546.70 1.794199
546.80 1.905115
546.90 1.877378
547.00 1.749902
547.10 1.690211
547.20 1.69867
547.30 1.726049
547.40 1.739149
547.50 1.731923
547.60 1.74093
547.70 1.716321
547.80 1.726574
547.90 1.713736
548.00 1.706987
548.10 1.727962
548.20 1.797457
548.30 1.854116
548.40 1.899098
548.50 1.943288
548.60 1.974188
548.70 1.964621
548.80 1.920097
548.90 1.861443
549.00 1.852072
549.10 1.891842
549.20 1.958711
549.30 2.011843
549.40 2.002228
549.50 1.963131
549.60 1.901928
549.70 1.77379
549.80 1.622276
549.90 1.494793
550.00 1.395208
550.10 1.336298
550.20 1.286741
550.30 1.263925
550.40 1.300192
550.50 1.333546
550.60 1.285811
550.70 1.265623
550.80 1.280599
550.90 1.277209
551.00 1.298452
551.10 1.294544
551.20 1.264902
551.30 1.252654
551.40 1.194542
551.50 1.169504
551.60 1.176373
551.70 1.180888
551.80 1.13226
551.90 1.164292
552.00 1.168843
552.10 1.139701
552.20 1.136448
552.30 1.154063
552.40 1.175622
552.50 1.131146
552.60 1.089327
552.70 1.077163
552.80 1.150441
552.90 1.143912
553.00 1.127655
553.10 1.13503
553.20 1.124349
553.30 1.091329
553.40 1.058976
553.50 1.053912
553.60 0.9957407
553.70 0.9395887
553.80 0.9510443
553.90 0.9917672
554.00 0.9629645
554.10 0.9263996
554.20 0.9597774
554.30 0.9279485
554.40 0.9329465
554.50 0.9795789
554.60 0.9830817
554.70 0.9406193
554.80 0.9658954
554.90 0.9989277
555.00 1.01494
555.10 1.039758
555.20 1.062764
555.30 1.10279
555.40 1.100181
555.50 1.091168
555.60 1.127226
555.70 1.224417
555.80 1.306965
555.90 1.340742
556.00 1.35355
556.10 1.365101
556.20 1.39796
556.30 1.432708
556.40 1.453326
556.50 1.500911
556.60 1.566845
556.70 1.569472
556.80 1.557558
556.90 1.543702
557.00 1.629192
557.10 1.724358
557.20 1.730583
557.30 1.727616
557.40 1.727479
557.50 1.727479
557.60 1.727479
557.70 1.727479
557.80 1.727479
557.90 1.727479
558.00 1.727479
558.10 1.727473
558.20 1.727419
558.30 1.726353
558.40 1.71787
558.50 1.800186
558.60 1.975564
558.70 2.02807
558.80 2.031996
558.90 1.975433
559.00 1.90443
559.10 1.953511
559.20 1.989647
559.30 1.981956
559.40 1.971072
559.50 1.967694
559.60 1.911977
559.70 1.891419
559.80 1.802211
559.90 1.588857
560.00 1.455935
560.10 1.513296
560.20 1.585485
560.30 1.650954
560.40 1.682086
560.50 1.635102
560.60 1.572069
560.70 1.604232
560.80 1.652002
560.90 1.679506
561.00 1.652068
561.10 1.639486
561.20 1.69204
561.30 1.748895
561.40 1.8051
561.50 1.776512
561.60 1.698063
561.70 1.603213
561.80 1.584561
561.90 1.601807
562.00 1.57111
562.10 1.541795
562.20 1.553346
562.30 1.579522
562.40 1.601301
562.50 1.632796
562.60 1.661802
562.70 1.727479
562.80 1.794753
562.90 1.73794
563.00 1.56454
563.10 1.40695
563.20 1.386731
563.30 1.463745
563.40 1.608658
563.50 1.707755
563.60 1.683289
563.70 1.655582
563.80 1.648297
563.90 1.625838
564.00 1.629973
564.10 1.642798
564.20 1.61919
564.30 1.591752
564.40 1.590155
564.50 1.625779
564.60 1.667497
564.70 1.699653
564.80 1.723923
564.90 1.785668
565.00 1.857875
565.10 1.865178
565.20 1.862682
565.30 1.904507
565.40 1.952986
565.50 1.942484
565.60 1.954011
565.70 1.959736
565.80 1.967778
565.90 2.009692
566.00 2.085318
566.10 2.079552
566.20 1.973395
566.30 1.892295
566.40 1.798679
566.50 1.746852
566.60 1.744653
566.70 1.79576
566.80 1.782011
566.90 1.671071
567.00 1.630878
567.10 1.651001
567.20 1.664685
567.30 1.66537
567.40 1.682175
567.50 1.719395
567.60 1.754769
567.70 1.779264
567.80 1.823288
567.90 1.853979
568.00 1.88682
568.10 1.907444
568.20 1.902726
568.30 1.896656
568.40 1.913437
568.50 2.018473
568.60 2.086372
568.70 2.065636
568.80 1.991952
568.90 1.919704
569.00 1.893546
569.10 1.912281
569.20 1.970268
569.30 1.99334
569.40 2.006005
569.50 1.980985
569.60 1.988896
569.70 2.005207
569.80 2.077264
569.90 2.110993
570.00 2.088714
570.10 2.119256
570.20 2.2006
570.30 2.186685
570.40 2.111649
570.50 2.208339
570.60 2.291917
570.70 2.293615
570.80 2.278591
570.90 2.338752
571.00 2.349028
571.10 2.370063
571.20 2.400438
571.30 2.374483
571.40 2.303641
571.50 2.236963
571.60 2.241979
571.70 2.209614
571.80 2.130181
571.90 2.075769
572.00 2.064158
572.10 2.054317
572.20 2.107264
572.30 2.184981
572.40 2.201673
572.50 2.158781
572.60 2.191081
572.70 2.199373
572.80 2.177797
572.90 2.16154
573.00 2.19873
573.10 2.248103
573.20 2.339431
573.30 2.392855
573.40 2.378653
573.50 2.34571
573.60 2.339443
573.70 2.277001
573.80 2.246214
573.90 2.216387
574.00 2.216601
574.10 2.267005
574.20 2.336203
574.30 2.308818
574.40 2.272706
574.50 2.333838
574.60 2.428365
574.70 2.468362
574.80 2.475546
574.90 2.497421
575.00 2.526652
575.10 2.594248
575.20 2.596476
575.30 2.579182
575.40 2.613632
575.50 2.650537
575.60 2.657381
575.70 2.673883
575.80 2.704663
575.90 2.621275
576.00 2.394594
576.10 2.206885
576.20 2.102403
576.30 2.004647
576.40 1.889763
576.50 1.835256
576.60 1.855927
576.70 1.870236
576.80 1.910417
576.90 2.020052
577.00 2.12
577.10 2.109814
577.20 2.071539
577.30 2.070759
577.40 2.148118
577.50 2.147451
577.60 2.140225
577.70 2.109778
577.80 2.145509
577.90 2.186768
578.00 2.185088
578.10 2.225972
578.20 2.275202
578.30 2.275011
578.40 2.306256
578.50 2.418101
578.60 2.457001
578.70 2.375246
578.80 2.326802
578.90 2.356743
579.00 2.375651
579.10 2.354997
579.20 2.38598
579.30 2.480574
579.40 2.58337
579.50 2.624033
579.60 2.671691
579.70 2.670058
579.80 2.655106
579.90 2.69627
580.00 2.750408
580.10 2.756717
580.20 2.763132
580.30 2.75624
580.40 2.791751
580.50 2.808585
580.60 2.798959
580.70 2.802396
580.80 2.827618
580.90 2.804296
581.00 2.719669
581.10 2.546912
581.20 2.319827
581.30 2.195114
581.40 2.143728
581.50 2.048878
581.60 1.998505
581.70 1.987943
581.80 1.9719
581.90 1.904668
582.00 1.911102
582.10 1.961928
582.20 1.958604
582.30 1.902887
582.40 1.918465
582.50 1.955268
582.60 2.001799
582.70 2.069472
582.80 2.071015
582.90 2.041622
583.00 2.077764
583.10 2.148374
583.20 2.181478
583.30 2.18952
583.40 2.23184
583.50 2.279407
583.60 2.308728
583.70 2.264949
583.80 2.177129
583.90 2.13674
584.00 2.079605
584.10 2.044804
584.20 2.016757
584.30 2.059405
584.40 2.131039
584.50 2.172227
584.60 2.177785
584.70 2.140779
584.80 2.029023
584.90 1.829364
585.00 1.644746
585.10 1.516037
585.20 1.478757
585.30 1.481015
585.40 1.514029
585.50 1.533759
585.60 1.536952
585.70 1.521082
585.80 1.509085
585.90 1.517002
586.00 1.520087
586.10 1.510127
586.20 1.575137
586.30 1.518312
586.40 1.379046
586.50 1.330174
586.60 1.394684
586.70 1.451294
586.80 1.440625
586.90 1.471525
587.00 1.490046
587.10 1.439374
587.20 1.33494
587.30 1.280897
587.40 1.225763
587.50 1.20514
587.60 1.233788
587.70 1.263567
587.80 1.242759
587.90 1.160789
588.00 1.113257
588.10 1.103207
588.20 1.121222
588.30 1.094343
588.40 1.046632
588.50 0.9897537
588.60 0.9164453
588.70 0.8677695
588.80 0.8233234
588.90 0.7592187
589.00 0.7322924
589.10 0.7055151
589.20 0.6697842
589.30 0.664256
589.40 0.6958169
589.50 0.6760273
589.60 0.6028797
589.70 0.5520653
589.80 0.578882
589.90 0.558916
590.00 0.6960552
590.10 0.8549974
590.20 0.9492333
590.30 0.926763
590.40 0.9188698
590.50 0.9286931
590.60 0.9467492
590.70 0.9824384
590.80 0.959557
590.90 0.9345966
591.00 0.9937569
591.10 1.068078
591.20 1.070038
591.30 1.049242
591.40 1.037113
591.50 1.067024
591.60 1.086748
591.70 1.135942
591.80 1.192809
591.90 1.220527
592.00 1.204747
592.10 1.213051
592.20 1.231607
592.30 1.195811
592.40 1.149274
592.50 1.13391
592.60 1.168569
592.70 1.13845
592.80 1.119196
592.90 1.15124
593.00 1.178041
593.10 1.184373
593.20 1.18065
593.30 1.22873
593.40 1.307352
593.50 1.331443
593.60 1.353699
593.70 1.382561
593.80 1.42192
593.90 1.454428
594.00 1.443514
594.10 1.459652
594.20 1.468171
594.30 1.454916
594.40 1.49605
594.50 1.563622
594.60 1.571223
594.70 1.548426
594.80 1.53579
594.90 1.493131
595.00 1.42917
595.10 1.396554
595.20 1.348808
595.30 1.320047
595.40 1.37499
595.50 1.409088
595.60 1.384193
595.70 1.326046
595.80 1.261983
595.90 1.226026
596.00 1.234794
596.10 1.271931
596.20 1.309259
596.30 1.344793
596.40 1.327338
596.50 1.307311
596.60 1.359995
596.70 1.411709
596.80 1.463036
596.90 1.4686
597.00 1.443634
597.10 1.456805
597.20 1.455268
597.30 1.426423
597.40 1.37552
597.50 1.346509
597.60 1.376723
597.70 1.419477
597.80 1.454047
597.90 1.444599
598.00 1.463399
598.10 1.496217
598.20 1.517824
598.30 1.562187
598.40 1.568626
598.50 1.543058
598.60 1.55866
598.70 1.556843
598.80 1.563449
598.90 1.567911
599.00 1.600997
599.10 1.616861
599.20 1.63677
599.30 1.689395
599.40 1.743539
599.50 1.756038
599.60 1.815668
599.70 1.834553
599.80 1.812148
599.90 1.755859
600.00 1.710972
600.10 1.685815
600.20 1.644526
600.30 1.618195
600.40 1.645098
600.50 1.674335
600.60 1.644717
600.70 1.640267
600.80 1.648785
600.90 1.625147
601.00 1.62924
601.10 1.695662
601.20 1.731226
601.30 1.734634
601.40 1.721683
601.50 1.718639
601.60 1.738416
601.70 1.773182
601.80 1.794181
601.90 1.813673
602.00 1.833028
602.10 1.830263
602.20 1.823353
602.30 1.837305
602.40 1.855343
602.50 1.8594
602.60 1.853794
602.70 1.878677
602.80 1.925929
602.90 1.93717
603.00 1.937605
603.10 1.945284
603.20 1.968767
603.30 1.966432
603.40 2.002484
603.50 2.01077
603.60 1.960885
603.70 1.853729
603.80 1.77186
603.90 1.76962
604.00 1.847176
604.10 1.932476
604.20 1.984887
604.30 2.062621
604.40 2.041879
604.50 2.018533
604.60 2.043958
604.70 2.125225
604.80 2.209363
604.90 2.213748
605.00 2.178946
605.10 2.222713
605.20 2.235992
605.30 2.185213
605.40 2.097566
605.50 2.097894
605.60 2.158793
605.70 2.206963
605.80 2.215755
605.90 2.236111
606.00 2.276476
606.10 2.267154
606.20 2.234562
606.30 2.21314
606.40 2.173364
606.50 2.092347
606.60 2.008566
606.70 2.004813
606.80 2.086563
606.90 2.227116
607.00 2.319141
607.10 2.345013
607.20 2.351822
607.30 2.308913
607.40 2.258945
607.50 2.23396
607.60 2.258134
607.70 2.308442
607.80 2.346675
607.90 2.315353
608.00 2.210162
608.10 2.0928
608.20 2.042063
608.30 2.055914
608.40 2.086742
608.50 2.107068
608.60 2.146188
608.70 2.203805
608.80 2.228367
608.90 2.242968
609.00 2.244886
609.10 2.226061
609.20 2.234121
609.30 2.312684
609.40 2.356838
609.50 2.349422
609.60 2.362486
609.70 2.376747
609.80 2.396864
609.90 2.396745
610.00 2.390639
610.10 2.369438
610.20 2.306173
610.30 2.224923
610.40 2.151037
610.50 2.15376
610.60 2.18255
610.70 2.249038
610.80 2.332092
610.90 2.377724
611.00 2.344692
611.10 2.282559
611.20 2.237725
611.30 2.259642
611.40 2.308002
611.50 2.317253
611.60 2.295557
611.70 2.209137
611.80 2.10889
611.90 2.104947
612.00 2.14427
612.10 2.159729
612.20 2.107622
612.30 2.039794
612.40 2.041491
612.50 2.11119
612.60 2.199445
612.70 2.259797
612.80 2.224244
612.90 2.197181
613.00 2.293871
613.10 2.34767
613.20 2.284268
613.30 2.213295
613.40 2.16067
613.50 2.131837
613.60 2.145318
613.70 2.185886
613.80 2.19624
613.90 2.175372
614.00 2.224209
614.10 2.263734
614.20 2.243313
614.30 2.191325
614.40 2.201297
614.50 2.263502
614.60 2.300656
614.70 2.286818
614.80 2.198271
614.90 2.061901
615.00 1.921676
615.10 1.775899
615.20 1.719407
615.30 1.773641
615.40 1.84552
615.50 1.822859
615.60 1.76038
615.70 1.702769
615.80 1.657947
615.90 1.587016
616.00 1.446243
616.10 1.279062
616.20 1.148988
616.30 1.081339
616.40 1.071015
616.50 1.115503
616.60 1.159419
616.70 1.16067
616.80 1.145092
616.90 1.168998
617.00 1.212777
617.10 1.209542
617.20 1.201482
617.30 1.224209
617.40 1.228784
617.50 1.17421
617.60 1.149476
617.70 1.140028
617.80 1.151496
617.90 1.176754
618.00 1.217686
618.10 1.216357
618.20 1.204699
618.30 1.226079
618.40 1.20041
618.50 1.133207
618.60 1.110177
618.70 1.094117
618.80 1.070235
618.90 1.049325
619.00 1.025979
619.10 1.00274
619.20 1.000387
619.30 1.025556
619.40 1.046412
619.50 1.024889
619.60 1.013761
619.70 1.020659
619.80 0.9913622
619.90 1.017049
620.00 1.075805
620.10 1.103011
620.20 1.076525
620.30 1.090203
620.40 1.116712
620.50 1.130586
620.60 1.138533
620.70 1.152967
620.80 1.153932
620.90 1.165042
621.00 1.156696
621.10 1.142608
621.20 1.136091
621.30 1.078688
621.40 1.045977
621.50 1.058344
621.60 1.04139
621.70 0.9998392
621.80 0.9754328
621.90 0.9945552
622.00 1.023602
622.10 1.037685
622.20 1.042331
622.30 0.999726
622.40 0.9422992
622.50 0.9029821
622.60 0.9169993
622.70 0.9473687
622.80 0.9285919
622.90 0.9204544
623.00 0.9399759
623.10 0.9453731
623.20 0.9452242
623.30 0.938445
623.40 0.9576984
623.50 0.9752779
623.60 1.002234
623.70 1.046722
623.80 1.044285
623.90 0.9736039
624.00 0.9400593
624.10 0.9744975
624.20 1.007512
624.30 1.017204
624.40 1.015822
624.50 1.006428
624.60 1.021857
624.70 1.062067
624.80 1.067459
624.90 1.090495
625.00 1.11234
625.10 1.127375
625.20 1.124873
625.30 1.138938
625.40 1.166329
625.50 1.130366
625.60 1.123384
625.70 1.152616
625.80 1.176575
625.90 1.225722
626.00 1.265021
626.10 1.267154
626.20 1.258742
626.30 1.276608
626.40 1.348754
626.50 1.380971
626.60 1.382311
626.70 1.37194
626.80 1.337579
626.90 1.309241
627.00 1.307287
627.10 1.340504
627.20 1.371326
627.30 1.404078
627.40 1.459962
627.50 1.480204
627.60 1.428931
627.70 1.385129
627.80 1.342082
627.90 1.303087
628.00 1.314572
628.10 1.390913
628.20 1.454499
628.30 1.469237
628.40 1.496027
628.50 1.549879
628.60 1.587451
628.70 1.621937
628.80 1.646069
628.90 1.663839
629.00 1.682312
629.10 1.685868
629.20 1.661623
629.30 1.677427
629.40 1.701059
629.50 1.722493
629.60 1.740698
629.70 1.759409
629.80 1.790768
629.90 1.849743
630.00 1.895119
630.10 2.024543
630.20 2.001299
630.30 1.827076
630.40 1.859811
630.50 1.988223
630.60 2.116265
630.70 2.145944
630.80 2.168635
630.90 2.190116
631.00 2.204586
631.10 2.213962
631.20 2.255424
631.30 2.328762
631.40 2.395017
631.50 2.429336
631.60 2.450306
631.70 2.478048
631.80 2.514375
631.90 2.555568
632.00 2.565981
632.10 2.543195
632.20 2.480014
632.30 2.409541
632.40 2.377086
632.50 2.392057
632.60 2.455316
632.70 2.494055
632.80 2.537441
632.90 2.571152
633.00 2.586587
633.10 2.604643
633.20 2.60111
633.30 2.644365
633.40 2.676802
633.50 2.733406
633.60 2.77874
633.70 2.791661
633.80 2.804398
633.90 2.822817
634.00 2.849011
634.10 2.926239
634.20 3.038781
634.30 3.099705
634.40 3.084693
634.50 3.075977
634.60 3.101307
634.70 3.132475
634.80 3.173567
634.90 3.227181
635.00 3.248728
635.10 3.221188
635.20 3.13612
635.30 3.026527
635.40 2.940304
635.50 2.881328
635.60 2.839032
635.70 2.806697
635.80 2.759385
635.90 2.68905
636.00 2.654135
636.10 2.657798
636.20 2.672429
636.30 2.715833
636.40 2.775595
636.50 2.806882
636.60 2.793681
636.70 2.699618
636.80 2.683456
636.90 2.733537
637.00 2.786967
637.10 2.835142
637.20 2.86575
637.30 2.886838
637.40 2.875395
637.50 2.842523
637.60 2.835875
637.70 2.851834
637.80 2.843881
637.90 2.821381
638.00 2.746881
638.10 2.610082
638.20 2.478459
638.30 2.42553
638.40 2.44579
638.50 2.5145
638.60 2.559768
638.70 2.543481
638.80 2.481044
638.90 2.45718
639.00 2.490177
639.10 2.565004
639.20 2.643078
639.30 2.701464
639.40 2.76909
639.50 2.866584
639.60 2.970542
639.70 3.076513
639.80 3.14645
639.90 3.17374
640.00 3.175801
640.10 3.161963
640.20 3.189753
640.30 3.253262
640.40 3.326338
640.50 3.392015
640.60 3.450401
640.70 3.48867
640.80 3.520927
640.90 3.538989
641.00 3.532311
641.10 3.541235
641.20 3.549659
641.30 3.525502
641.40 3.495532
641.50 3.461946
641.60 3.416022
641.70 3.379231
641.80 3.351733
641.90 3.306721
642.00 3.254423
642.10 3.22786
642.20 3.18628
642.30 3.127054
642.40 3.09787
642.50 3.141559
642.60 3.214344
642.70 3.252779
642.80 3.267493
642.90 3.281933
643.00 3.304946
643.10 3.356802
643.20 3.417404
643.30 3.42908
643.40 3.41822
643.50 3.427531
643.60 3.475647
643.70 3.498707
643.80 3.463799
643.90 3.418512
644.00 3.389489
644.10 3.43138
644.20 3.564522
644.30 3.709012
644.40 3.807156
644.50 3.856123
644.60 3.876199
644.70 3.830901
644.80 3.722034
644.90 3.622699
645.00 3.546847
645.10 3.478215
645.20 3.50663
645.30 3.642185
645.40 3.774088
645.50 3.827249
645.60 3.827487
645.70 3.837114
645.80 3.842362
645.90 3.860502
646.00 3.881137
646.10 3.884741
646.20 3.843816
646.30 3.786699
646.40 3.745422
646.50 3.787539
646.60 3.919013
646.70 4.063354
646.80 4.173287
646.90 4.233156
647.00 4.254334
647.10 4.277019
647.20 4.287575
647.30 4.325206
647.40 4.359251
647.50 4.362551
647.60 4.386237
647.70 4.41937
647.80 4.40692
647.90 4.330621
648.00 4.184355
648.10 4.010473
648.20 3.8974
648.30 3.864434
648.40 3.846765
648.50 3.77843
648.60 3.692606
648.70 3.688609
648.80 3.753363
648.90 3.843423
649.00 3.940732
649.10 4.05119
649.20 4.090322
649.30 4.014136
649.40 3.944313
649.50 3.920204
649.60 3.942204
649.70 4.003133
649.80 4.088779
649.90 4.181901
650.00 4.239316
650.10 4.280408
650.20 4.328905
650.30 4.420198
650.40 4.531102
650.50 4.614431
650.60 4.657578
650.70 4.719103
650.80 4.783988
650.90 4.778329
651.00 4.796171
651.10 4.874412
651.20 4.893224
651.30 4.834523
651.40 4.728206
651.50 4.651532
651.60 4.635179
651.70 4.675467
651.80 4.774683
651.90 4.85999
652.00 4.937367
652.10 5.014255
652.20 5.122544
652.30 5.224649
652.40 5.268011
652.50 5.254125
652.60 5.233383
652.70 5.270144
652.80 5.349862
652.90 5.443705
653.00 5.506088
653.10 5.530614
653.20 5.570693
653.30 5.611202
653.40 5.63058
653.50 5.6832
653.60 5.767511
653.70 5.846187
653.80 5.919186
653.90 6.014678
654.00 6.125779
654.10 6.18255
654.20 6.16313
654.30 6.064242
654.40 5.91165
654.50 5.714058
654.60 5.519396
654.70 5.402124
654.80 5.352102
654.90 5.269131
655.00 5.115807
655.10 4.952087
655.20 4.824991
655.30 4.752708
655.40 4.750837
655.50 4.790899
655.60 4.830109
655.70 4.880976
655.80 4.961148
655.90 5.076126
656.00 5.21728
656.10 5.509466
656.20 6.26732
656.30 7.331681
656.40 8.099615
656.50 7.955572
656.60 6.902708
656.70 5.588678
656.80 4.701971
656.90 4.393832
657.00 4.34798
657.10 4.325355
657.20 4.224203
657.30 4.082971
657.40 4.043648
657.50 4.076835
657.60 4.172399
657.70 4.289803
657.80 4.334761
657.90 4.274558
658.00 4.10061
658.10 3.952843
658.20 3.938653
658.30 4.04136
658.40 4.183301
658.50 4.284775
658.60 4.366578
658.70 4.468951
658.80 4.576114
658.90 4.670165
659.00 4.706444
659.10 4.666275
659.20 4.615169
659.30 4.51939
659.40 4.363516
659.50 4.190527
659.60 4.067703
659.70 4.036952
659.80 4.08474
659.90 4.137217
660.00 4.170362
660.10 4.143668
660.20 4.095225
660.30 4.120435
660.40 4.179852
660.50 4.218496
660.60 4.183736
660.70 4.128537
660.80 4.116265
660.90 4.140296
661.00 4.143454
661.10 4.143579
661.20 4.192123
661.30 4.273891
661.40 4.348772
661.50 4.348433
661.60 4.298828
661.70 4.235128
661.80 4.144276
661.90 4.012087
662.00 3.909172
662.10 3.873792
662.20 3.8393
662.30 3.800931
662.40 3.762995
662.50 3.694691
662.60 3.557236
662.70 3.406384
662.80 3.312172
662.90 3.325385
663.00 3.422665
663.10 3.571378
663.20 3.700446
663.30 3.792364
663.40 3.837972
663.50 3.767076
663.60 3.585056
663.70 3.349636
663.80 3.179226
663.90 3.154576
664.00 3.218925
664.10 3.303284
664.20 3.388375
664.30 3.479293
664.40 3.56451
664.50 3.609534
664.60 3.615002
664.70 3.62012
664.80 3.612423
664.90 3.532389
665.00 3.358
665.10 3.110761
665.20 2.870367
665.30 2.685029
665.40 2.595469
665.50 2.630253
665.60 2.717954
665.70 2.761125
665.80 2.75649
665.90 2.763067
666.00 2.782922
666.10 2.81493
666.20 2.853687
666.30 2.906556
666.40 2.9827
666.50 3.03448
666.60 3.087081
666.70 3.156172
666.80 3.21877
666.90 3.262698
667.00 3.292299
667.10 3.308806
667.20 3.327434
667.30 3.335351
667.40 3.310027
667.50 3.268982
667.60 3.241794
667.70 3.245154
667.80 3.269084
667.90 3.260285
668.00 3.177826
668.10 2.990766
668.20 2.720009
668.30 2.481628
668.40 2.373506
668.50 2.387178
668.60 2.454928
668.70 2.527897
668.80 2.572647
668.90 2.615741
669.00 2.638283
669.10 2.649351
669.20 2.633428
669.30 2.594266
669.40 2.581863
669.50 2.595719
669.60 2.631945
669.70 2.688895
669.80 2.745172
669.90 2.79153
670.00 2.821453
670.10 2.836423
670.20 2.853103
670.30 2.899741
670.40 2.954505
670.50 2.980854
670.60 2.999756
670.70 3.027218
670.80 3.053847
670.90 3.071486
671.00 3.082476
671.10 3.080981
671.20 3.053132
671.30 3.021904
671.40 2.955459
671.50 2.803683
671.60 2.606192
671.70 2.416112
671.80 2.285895
671.90 2.192171
672.00 2.132904
672.10 2.128847
672.20 2.176224
672.30 2.22397
672.40 2.261685
672.50 2.305905
672.60 2.365548
672.70 2.437915
672.80 2.489033
672.90 2.516597
673.00 2.514238
673.10 2.513779
673.20 2.530191
673.30 2.541057
673.40 2.55365
673.50 2.564188
673.60 2.560274
673.70 2.57425
673.80 2.616635
673.90 2.685434
674.00 2.742229
674.10 2.758546
674.20 2.772652
674.30 2.795855
674.40 2.83933
674.50 2.888107
674.60 2.912281
674.70 2.843357
674.80 2.683795
674.90 2.510145
675.00 2.401731
675.10 2.384867
675.20 2.4025
675.30 2.441435
675.40 2.48245
675.50 2.534402
675.60 2.572057
675.70 2.583358
675.80 2.625058
675.90 2.656947
676.00 2.640743
676.10 2.633767
676.20 2.671899
676.30 2.738958
676.40 2.801854
676.50 2.84994
676.60 2.909809
676.70 2.975314
676.80 3.012468
676.90 3.026396
677.00 3.022155
677.10 3.013803
677.20 3.020552
677.30 3.039103
677.40 3.079409
677.50 3.113156
677.60 3.149101
677.70 3.194816
677.80 3.21566
677.90 3.198629
678.00 3.166949
678.10 3.090554
678.20 2.933691
678.30 2.74102
678.40 2.563199
678.50 2.439839
678.60 2.380464
678.70 2.388006
678.80 2.441036
678.90 2.503634
679.00 2.544351
679.10 2.567232
679.20 2.59283
679.30 2.609915
679.40 2.611351
679.50 2.628102
679.60 2.684874
679.70 2.738267
679.80 2.762793
679.90 2.758748
680.00 2.747596
680.10 2.767946
680.20 2.836358
680.30 2.895464
680.40 2.926483
680.50 2.92276
680.60 2.8758
680.70 2.825849
680.80 2.815126
680.90 2.863248
681.00 2.915004
681.10 2.934543
681.20 2.970149
681.30 3.024299
681.40 3.058946
681.50 3.044756
681.60 2.964525
681.70 2.852769
681.80 2.783923
681.90 2.79539
682.00 2.826641
682.10 2.855021
682.20 2.879463
682.30 2.884062
682.40 2.860966
682.50 2.855194
682.60 2.897817
682.70 2.962202
682.80 3.01254
682.90 3.063741
683.00 3.131218
683.10 3.159574
683.20 3.147767
683.30 3.090203
683.40 3.055002
683.50 3.083436
683.60 3.109814
683.70 3.092812
683.80 3.034111
683.90 2.994841
684.00 3.018199
684.10 3.111357
684.20 3.175807
684.30 3.20044
684.40 3.223833
684.50 3.238333
684.60 3.220575
684.70 3.168176
684.80 3.142512
684.90 3.122532
685.00 3.08729
685.10 3.014845
685.20 2.901844
685.30 2.813786
685.40 2.782034
685.50 2.803456
685.60 2.854813
685.70 2.891074
685.80 2.905639
685.90 2.904704
686.00 2.88212
686.10 2.870706
686.20 2.874305
686.30 2.888322
686.40 2.955679
686.50 3.069371
686.60 3.135858
686.70 3.112953
686.80 3.016757
686.90 2.953284
687.00 2.957454
687.10 2.956966
687.20 2.989801
687.30 3.064027
687.40 3.158096
687.50 3.264437
687.60 3.348391
687.70 3.397764
687.80 3.4175
687.90 3.431725
688.00 3.43418
688.10 3.415993
688.20 3.378451
688.30 3.332396
688.40 3.290565
688.50 3.222838
688.60 3.149584
688.70 3.096988
688.80 3.134119
688.90 3.259159
689.00 3.362063
689.10 3.38806
689.20 3.358327
689.30 3.344257
689.40 3.373709
689.50 3.439452
689.60 3.50411
689.70 3.529601
689.80 3.51531
689.90 3.498207
690.00 3.466819
690.10 3.349481
690.20 3.183229
690.30 3.134875
690.40 3.231715
690.50 3.381423
690.60 3.536833
690.70 3.682461
690.80 3.807132
690.90 3.910893
691.00 3.95195
691.10 3.906878
691.20 3.857356
691.30 3.885671
691.40 3.996473
691.50 4.052161
691.60 4.031055
691.70 3.961993
691.80 3.780855
691.90 3.524823
692.00 3.305136
692.10 3.248877
692.20 3.385051
692.30 3.653712
692.40 3.925184
692.50 4.106925
692.60 4.172596
692.70 4.169486
692.80 4.147808
692.90 4.138664
693.00 4.186548
693.10 4.292019
693.20 4.424178
693.30 4.513838
693.40 4.567578
693.50 4.584365
693.60 4.560697
693.70 4.559393
693.80 4.601527
693.90 4.627882
694.00 4.641595
694.10 4.667348
694.20 4.736421
694.30 4.886743
694.40 5.078235
694.50 5.227902
694.60 5.321971
694.70 5.413657
694.80 5.507435
694.90 5.585509
695.00 5.614419
695.10 5.603422
695.20 5.534718
695.30 5.383633
695.40 5.214719
695.50 5.101778
695.60 5.086372
695.70 5.12121
695.80 5.155988
695.90 5.153366
696.00 5.122663
696.10 5.106746
696.20 5.12056
696.30 5.18401
696.40 5.270799
696.50 5.36292
696.60 5.447142
696.70 5.492714
696.80 5.509734
696.90 5.530852
697.00 5.539669
697.10 5.504778
697.20 5.440679
697.30 5.388631
697.40 5.403757
697.50 5.471293
697.60 5.582393
697.70 5.728665
697.80 5.856755
697.90 5.925345
698.00 5.948769
698.10 5.923868
698.20 5.899187
698.30 5.936771
698.40 6.011759
698.50 6.087475
698.60 6.115711
698.70 6.111541
698.80 6.104333
698.90 6.063825
699.00 5.991982
699.10 5.887714
699.20 5.787247
699.30 5.75879
699.40 5.80102
699.50 5.865345
699.60 5.933232
699.70 5.99919
699.80 6.052625
699.90 6.055008
700.00 6.006696
700.10 6.004194
700.20 6.077228
700.30 6.191903
700.40 6.226871
700.50 6.135608
700.60 6.028797
700.70 6.032431
700.80 6.166168
700.90 6.344287
701.00 6.437396
701.10 6.437218
701.20 6.446153
701.30 6.564164
701.40 6.754018
701.50 6.873876
701.60 6.891628
701.70 6.834499
701.80 6.774808
701.90 6.793216
702.00 6.89687
702.10 7.056462
702.20 7.173221
702.30 7.133726
702.40 6.923916
702.50 6.657632
702.60 6.523179
702.70 6.612357
702.80 6.898181
702.90 7.308687
703.00 7.683688
703.10 7.883193
703.20 7.895166
703.30 7.813554
703.40 7.770067
703.50 7.896179
703.60 8.172411
703.70 8.468838
703.80 8.613716
703.90 8.605078
704.00 8.588577
704.10 8.666377
704.20 8.844733
704.30 9.036076
704.40 9.138301
704.50 9.175354
704.60 9.211991
704.70 9.256312
704.80 9.30099
704.90 9.319219
705.00 9.306768
705.10 9.281868
705.20 9.241538
705.30 9.034408
705.40 8.364171
705.50 7.171613
705.60 5.748716
705.70 4.627495
705.80 4.161289
705.90 4.174318
706.00 4.263859
706.10 4.165602
706.20 3.954458
706.30 3.817896
706.40 3.870313
706.50 4.056742
706.60 4.248966
706.70 4.383461
706.80 4.467968
706.90 4.547151
707.00 4.630848
707.10 4.720354
707.20 4.839503
707.30 4.968779
707.40 5.064248
707.50 5.090394
707.60 5.055473
707.70 5.038292
707.80 5.071372
707.90 5.126309
708.00 5.177564
708.10 5.239215
708.20 5.327595
708.30 5.395726
708.40 5.447399
708.50 5.49135
708.60 5.467915
708.70 5.263162
708.80 4.755269
708.90 4.025675
709.00 3.35682
709.10 2.988979
709.20 2.965615
709.30 3.095654
709.40 3.183772
709.50 3.16319
709.60 3.096095
709.70 3.076996
709.80 3.150638
709.90 3.279449
710.00 3.384557
710.10 3.438415
710.20 3.446273
710.30 3.421128
710.40 3.40499
710.50 3.436658
710.60 3.527778
710.70 3.656816
710.80 3.815627
710.90 3.998124
711.00 4.173436
711.10 4.325897
711.20 4.431821
711.30 4.476779
711.40 4.469166
711.50 4.4283
711.60 4.378975
711.70 4.344566
711.80 4.370027
711.90 4.493405
712.00 4.673359
712.10 4.831282
712.20 4.947559
712.30 4.996831
712.40 4.905693
712.50 4.57419
712.60 3.961374
712.70 3.224816
712.80 2.634047
712.90 2.38545
713.00 2.435883
713.10 2.563283
713.20 2.593616
713.30 2.518634
713.40 2.457448
713.50 2.482379
713.60 2.566732
713.70 2.634929
713.80 2.654355
713.90 2.639415
714.00 2.630902
714.10 2.671595
714.20 2.780944
714.30 2.929819
714.40 3.044696
714.50 3.086426
714.60 3.078384
714.70 3.071503
714.80 3.096547
714.90 3.143204
715.00 3.182568
715.10 3.209679
715.20 3.245946
715.30 3.299143
715.40 3.3824
715.50 3.513165
715.60 3.649929
715.70 3.74849
715.80 3.727825
715.90 3.576799
716.00 3.392116
716.10 3.256371
716.20 3.224268
716.30 3.253941
716.40 3.291399
716.50 3.322466
716.60 3.343119
716.70 3.369652
716.80 3.39821
716.90 3.424094
717.00 3.476535
717.10 3.56619
717.20 3.673347
717.30 3.768917
717.40 3.811123
717.50 3.799906
717.60 3.775559
717.70 3.759374
717.80 3.777781
717.90 3.834124
718.00 3.923516
718.10 4.022226
718.20 4.087433
718.30 4.142417
718.40 4.214772
718.50 4.318742
718.60 4.433638
718.70 4.502568
718.80 4.521904
718.90 4.549772
719.00 4.606508
719.10 4.651776
719.20 4.66506
719.30 4.660586
719.40 4.66369
719.50 4.681556
719.60 4.6621
719.70 4.52359
719.80 4.275684
719.90 4.028612
720.00 3.886749
720.10 3.857136
720.20 3.889704
720.30 3.915159
720.40 3.908099
720.50 3.901743
720.60 3.914837
720.70 3.9283
720.80 3.966551
720.90 4.046996
721.00 4.113448
721.10 4.15037
721.20 4.190092
721.30 4.277078
721.40 4.376366
721.50 4.425709
721.60 4.443878
721.70 4.482623
721.80 4.575191
721.90 4.658674
722.00 4.693625
722.10 4.71535
722.20 4.75521
722.30 4.825182
722.40 4.910315
722.50 5.01976
722.60 5.138789
722.70 5.242157
722.80 5.326862
722.90 5.366519
723.00 5.333659
723.10 5.216589
723.20 5.075864
723.30 5.014249
723.40 5.070312
723.50 5.209304
723.60 5.363993
723.70 5.491833
723.80 5.563813
723.90 5.589905
724.00 5.594278
724.10 5.615336
724.20 5.63948
724.30 5.608366
724.40 5.672137
724.50 5.809693
724.60 5.948524
724.70 6.088189
724.80 6.123039
724.90 6.173555
725.00 6.322483
725.10 6.435967
725.20 6.45503
725.30 6.409398
725.40 6.369962
725.50 6.445379
725.60 6.592163
725.70 6.695162
725.80 6.726496
725.90 6.699034
726.00 6.683903
726.10 6.73704
726.20 6.845162
726.30 6.985214
726.40 7.145938
726.50 7.28182
726.60 7.332754
726.70 7.310474
726.80 7.317503
726.90 7.381185
727.00 7.354378
727.10 7.128305
727.20 6.802271
727.30 6.62177
727.40 6.710233
727.50 6.98021
727.60 7.273361
727.70 7.450645
727.80 7.413532
727.90 7.24572
728.00 7.083686
728.10 7.060155
728.20 7.200803
728.30 7.311665
728.40 7.389048
728.50 7.529756
728.60 7.703049
728.70 7.845603
728.80 7.885456
728.90 7.878069
729.00 7.953785
729.10 8.048086
729.20 8.092884
729.30 8.107717
729.40 8.1129
729.50 8.16282
729.60 8.276602
729.70 8.430951
729.80 8.548366
729.90 8.56725
730.00 8.524061
730.10 8.51858
730.20 8.626821
730.30 8.7882
730.40 8.907938
730.50 8.944754
730.60 8.926108
730.70 8.959944
730.80 9.082125
730.90 9.219556
731.00 9.284608
731.10 9.250652
731.20 9.222654
731.30 9.294795
731.40 9.436277
731.50 9.564712
731.60 9.715845
731.70 9.840945
731.80 9.852025
731.90 9.802104
732.00 9.741163
732.10 9.767851
732.20 9.884015
732.30 9.994996
732.40 10.03866
732.50 9.985167
732.60 9.82075
732.70 9.602957
732.80 9.520391
732.90 9.714772
733.00 10.05064
733.10 10.31323
733.20 10.39109
733.30 10.3199
733.40 10.2969
733.50 10.38614
733.60 10.53388
733.70 10.70711
733.80 10.84758
733.90 10.9423
734.00 11.03708
734.10 11.15336
734.20 11.26011
734.30 11.1835
734.40 10.83793
734.50 10.48104
734.60 10.31269
734.70 10.33092
734.80 10.50612
734.90 10.69687
735.00 10.848
735.10 10.96273
735.20 11.03255
735.30 11.10225
735.40 11.14329
735.50 11.08527
735.60 10.93092
735.70 10.75638
735.80 10.69335
735.90 10.80904
736.00 11.00628
736.10 11.16325
736.20 11.22091
736.30 11.21543
736.40 11.27721
736.50 11.40255
736.60 11.50918
736.70 11.58144
736.80 11.65817
736.90 11.77862
737.00 11.96472
737.10 12.11639
737.20 12.095
737.30 11.95013
737.40 11.82699
737.50 11.7766
737.60 11.75461
737.70 11.77106
737.80 11.8516
737.90 11.98057
738.00 12.09131
738.10 12.12366
738.20 12.10191
738.30 12.07427
738.40 12.07392
738.50 12.12163
738.60 12.1986
738.70 12.28224
738.80 12.36784
738.90 12.45881
739.00 12.54322
739.10 12.59731
739.20 12.5798
739.30 12.45017
739.40 12.25037
739.50 12.07695
739.60 12.00058
739.70 12.06528
739.80 12.2201
739.90 12.33252
740.00 12.34437
740.10 12.33782
740.20 12.4068
740.30 12.54703
740.40 12.62412
740.50 12.50825
740.60 12.27634
740.70 12.07243
740.80 12.01417
740.90 12.12556
741.00 12.29701
741.10 12.46774
741.20 12.57539
741.30 12.61048
741.40 12.65134
741.50 12.71008
741.60 12.7429
741.70 12.6623
741.80 12.45482
741.90 12.24739
742.00 12.17453
742.10 12.24923
742.20 12.37088
742.30 12.46137
742.40 12.51188
742.50 12.57902
742.60 12.66087
742.70 12.72723
742.80 12.78627
742.90 12.85073
743.00 12.95241
743.10 13.04481
743.20 13.05923
743.30 13.01133
743.40 12.901
743.50 12.73331
743.60 12.52761
743.70 12.39524
743.80 12.50682
743.90 12.79979
744.00 13.09187
744.10 13.19844
744.20 13.02724
744.30 12.74767
744.40 12.61268
744.50 12.63252
744.60 12.67338
744.70 12.66951
744.80 12.58438
744.90 12.48597
745.00 12.47227
745.10 12.56282
745.20 12.73837
745.30 12.89046
745.40 12.94407
745.50 12.90053
745.60 12.79741
745.70 12.74534
745.80 12.77644
745.90 12.835
746.00 12.87747
746.10 12.86758
746.20 12.84953
746.30 12.87658
746.40 12.9078
746.50 12.94014
746.60 13.00668
746.70 13.06602
746.80 13.08639
746.90 13.10134
747.00 13.17628
747.10 13.36572
747.20 13.5156
747.30 13.44281
747.40 13.19261
747.50 12.9732
747.60 12.93353
747.70 13.06882
747.80 13.26129
747.90 13.37168
748.00 13.35744
748.10 13.24902
748.20 13.13715
748.30 13.15085
748.40 13.32325
748.50 13.50583
748.60 13.5346
748.70 13.39086
748.80 13.19445
748.90 13.10283
749.00 13.13905
749.10 13.23311
749.20 13.32396
749.30 13.34505
749.40 13.26344
749.50 13.1073
749.60 12.97779
749.70 12.99185
749.80 13.20255
749.90 13.54872
750.00 13.87184
750.10 14.02994
750.20 14.02595
750.30 13.97245
750.40 13.95845
750.50 13.96656
750.60 13.90002
750.70 13.72273
750.80 13.56445
750.90 13.6052
751.00 13.88351
751.10 14.21145
751.20 14.32911
751.30 14.2052
751.40 14.01767
751.50 13.97245
751.60 14.10143
751.70 14.26024
751.80 14.33262
751.90 14.26525
752.00 14.09076
752.10 13.91467
752.20 13.85528
752.30 13.98175
752.40 14.21962
752.50 14.36562
752.60 14.24249
752.70 13.86773
752.80 13.46973
752.90 13.31205
753.00 13.44978
753.10 13.76997
753.20 14.12734
753.30 14.37873
753.40 14.42281
753.50 14.27454
753.60 14.1022
753.70 14.10059
753.80 14.31833
753.90 14.6527
754.00 14.9527
754.10 15.11229
754.20 15.12885
754.30 15.04611
754.40 14.99047
754.50 15.02192
754.60 15.07029
754.70 15.07881
754.80 15.00459
754.90 14.90463
755.00 14.89259
755.10 14.97093
755.20 15.06213
755.30 15.09996
755.40 15.06082
755.50 14.97605
755.60 14.92595
755.70 14.93447
755.80 14.98338
755.90 15.0725
756.00 15.16418
756.10 15.21696
756.20 15.19087
756.30 15.09049
756.40 14.98255
756.50 14.8783
756.60 14.72782
756.70 14.52545
756.80 14.32369
756.90 14.18262
757.00 14.19072
757.10 14.44551
757.20 14.90606
757.30 15.37018
757.40 15.64837
757.50 15.65362
757.60 15.47687
757.70 15.29339
757.80 15.12105
757.90 14.96467
758.00 14.96581
758.10 15.19921
758.20 15.57051
758.30 15.87332
758.40 15.98626
758.50 15.96762
758.60 15.89196
758.70 15.70288
758.80 15.16906
758.90 14.12865
759.00 12.68655
759.10 11.25362
759.20 10.30786
759.30 10.04629
759.40 10.3619
759.50 10.82363
759.60 11.07538
759.70 11.11071
759.80 11.12894
759.90 11.34077
760.00 11.69802
760.10 11.82247
760.20 11.50781
760.30 11.11613
760.40 11.09695
760.50 11.33821
760.60 11.50513
760.70 11.53825
760.80 11.48511
760.90 11.41321
761.00 11.37366
761.10 11.38408
761.20 11.61271
761.30 12.10841
761.40 12.59671
761.50 12.83542
761.60 12.77376
761.70 12.65182
761.80 12.80474
761.90 13.16908
762.00 13.48051
762.10 13.5243
762.20 13.32241
762.30 13.1185
762.40 13.05196
762.50 13.1045
762.60 13.00936
762.70 12.51796
762.80 11.67753
762.90 10.67316
763.00 9.806334
763.10 9.251963
763.20 9.029107
763.30 9.138003
763.40 9.437111
763.50 9.64281
763.60 9.645134
763.70 9.591639
763.80 9.600753
763.90 9.721385
764.00 9.779824
764.10 9.620412
764.20 9.536297
764.30 9.714832
764.40 9.903494
764.50 9.920889
764.60 9.756055
764.70 9.624701
764.80 9.801866
764.90 10.01549
765.00 9.920472
765.10 9.662528
765.20 9.475951
765.30 9.486853
765.40 9.550773
765.50 9.374263
765.60 9.110183
765.70 9.028749
765.80 9.121323
765.90 9.202995
766.00 8.907879
766.10 8.191534
766.20 7.329656
766.30 6.444009
766.40 5.526336
766.50 4.543839
766.60 3.653503
766.70 3.239429
766.80 3.484565
766.90 4.214808
767.00 5.056462
767.10 5.658204
767.20 5.934906
767.30 5.990612
767.40 6.024329
767.50 6.161462
767.60 6.383187
767.70 6.63011
767.80 6.847068
767.90 7.013689
768.00 7.137479
768.10 7.247626
768.20 7.378445
768.30 7.507834
768.40 7.59171
768.50 7.624593
768.60 7.630193
768.70 7.657894
768.80 7.726043
768.90 7.803188
769.00 7.862819
769.10 7.876699
769.20 7.845186
769.30 7.801997
769.40 7.717823
769.50 7.508727
769.60 7.1457
769.70 6.577687
769.80 5.764312
769.90 4.821262
770.00 4.040181
770.10 3.759016
770.20 4.125564
770.30 4.955262
770.40 5.835941
770.50 6.473973
770.60 6.78017
770.70 6.85791
770.80 6.909857
770.90 7.050564
771.00 7.293258
771.10 7.581821
771.20 7.867466
771.30 8.092764
771.40 8.18921
771.50 8.154004
771.60 8.067089
771.70 8.04481
771.80 8.151144
771.90 8.262007
772.00 8.279461
772.10 8.322054
772.20 8.438814
772.30 8.575054
772.40 8.688478
772.50 8.79934
772.60 8.954225
772.70 9.139314
772.80 9.323151
772.90 9.463322
773.00 9.540229
773.10 9.577103
773.20 9.600813
773.30 9.646921
773.40 9.735146
773.50 9.834213
773.60 9.896763
773.70 9.935901
773.80 9.993685
773.90 10.08513
774.00 10.20993
774.10 10.2947
774.20 10.25544
774.30 10.05921
774.40 9.702799
774.50 9.29545
774.60 8.979126
774.70 8.797612
774.80 8.678946
774.90 8.517687
775.00 8.245267
775.10 7.936926
775.20 7.754876
775.30 7.730928
775.40 7.810575
775.50 7.931862
775.60 8.082042
775.70 8.208154
775.80 8.24062
775.90 8.229719
776.00 8.263317
776.10 8.387285
776.20 8.519891
776.30 8.525669
776.40 8.412901
776.50 8.287205
776.60 8.265104
776.70 8.412662
776.80 8.655535
776.90 8.88411
777.00 9.030119
777.10 9.069317
777.20 9.073547
777.30 9.127399
777.40 9.21896
777.50 9.309807
777.60 9.37742
777.70 9.399938
777.80 9.401606
777.90 9.416618
778.00 9.434072
778.10 9.404525
778.20 9.274957
778.30 9.042748
778.40 8.754244
778.50 8.477178
778.60 8.318599
778.70 8.30877
778.80 8.381685
778.90 8.503687
779.00 8.635698
779.10 8.777239
779.20 8.969714
779.30 9.160223
779.40 9.308853
779.50 9.432643
779.60 9.487687
779.70 9.457603
779.80 9.355736
779.90 9.169218
780.00 8.962923
780.10 8.787247
780.20 8.721719
780.30 8.928788
780.40 9.375693
780.50 9.862331
780.60 10.24591
780.70 10.48991
780.80 10.6395
780.90 10.70854
781.00 10.65356
781.10 10.52881
781.20 10.43868
781.30 10.44547
781.40 10.57236
781.50 10.77663
781.60 10.97637
781.70 11.09105
781.80 11.11351
781.90 11.08217
782.00 10.9893
782.10 10.80636
782.20 10.51309
782.30 10.1886
782.40 10.01185
782.50 9.976767
782.60 9.99577
782.70 10.0134
782.80 9.914098
782.90 9.634768
783.00 9.237249
783.10 8.923963
783.20 8.847771
783.30 8.98687
783.40 9.21765
783.50 9.426447
783.60 9.594975
783.70 9.70816
783.80 9.75957
783.90 9.787509
784.00 9.828494
784.10 9.889733
784.20 9.925
784.30 9.922021
784.40 9.956096
784.50 10.07
784.60 10.2309
784.70 10.37429
784.80 10.45429
784.90 10.46412
785.00 10.4148
785.10 10.37929
785.20 10.39406
785.30 10.45125
785.40 10.59238
785.50 10.69597
785.60 10.66172
785.70 10.61787
785.80 10.63044
785.90 10.7114
786.00 10.79641
786.10 10.78128
786.20 10.65171
786.30 10.43314
786.40 10.24555
786.50 10.16543
786.60 10.21017
786.70 10.36958
786.80 10.50939
786.90 10.5913
787.00 10.67351
787.10 10.69675
787.20 10.61984
787.30 10.50094
787.40 10.42462
787.50 10.45596
787.60 10.62038
787.70 10.87713
787.80 11.10684
787.90 11.26982
788.00 11.37211
788.10 11.41381
788.20 11.4785
788.30 11.58859
788.40 11.69272
788.50 11.74139
788.60 11.70201
788.70 11.64059
788.80 11.66281
788.90 11.79584
789.00 11.98879
789.10 12.10894
789.20 12.08512
789.30 12.01756
789.40 12.00469
789.50 12.03978
789.60 12.07606
789.70 12.05128
789.80 11.93434
789.90 11.77147
790.00 11.59044
790.10 11.42518
790.20 11.3453
790.30 11.38998
790.40 11.56405
790.50 11.78166
790.60 11.92118
790.70 11.86726
790.80 11.5874
790.90 11.19589
791.00 10.83805
791.10 10.63807
791.20 10.57046
791.30 10.5997
791.40 10.76859
791.50 10.97381
791.60 11.13096
791.70 11.19756
791.80 11.13078
791.90 11.02606
792.00 10.98513
792.10 11.04816
792.20 11.15723
792.30 11.24939
792.40 11.31748
792.50 11.33773
792.60 11.3363
792.70 11.35817
792.80 11.40314
792.90 11.48297
793.00 11.6145
793.10 11.81305
793.20 12.08392
793.30 12.36063
793.40 12.5126
793.50 12.52511
793.60 12.49967
793.70 12.47376
793.80 12.43635
793.90 12.35926
794.00 12.21701
794.10 12.02102
794.20 11.82288
794.30 11.72596
794.40 11.80811
794.50 11.9895
794.60 12.06409
794.70 11.87483
794.80 11.49113
794.90 11.1673
795.00 11.11535
795.10 11.41208
795.20 11.879
795.30 12.29397
795.40 12.61179
795.50 12.79175
795.60 12.86401
795.70 12.91923
795.80 12.943
795.90 12.92126
796.00 12.85281
796.10 12.69084
796.20 12.50408
796.30 12.42723
796.40 12.52547
796.50 12.81802
796.60 13.11028
796.70 13.15704
796.80 13.0594
796.90 13.05255
797.00 13.19666
797.10 13.39247
797.20 13.50333
797.30 13.51411
797.40 13.50571
797.50 13.49606
797.60 13.43733
797.70 13.34249
797.80 13.27255
797.90 13.25444
798.00 13.28268
798.10 13.29298
798.20 13.2078
798.30 13.06155
798.40 12.96081
798.50 12.95688
798.60 12.98816
798.70 12.94467
798.80 12.80259
798.90 12.67005
799.00 12.65521
799.10 12.80617
799.20 13.1213
799.30 13.45085
799.40 13.61497
799.50 13.55581
799.60 13.31782
799.70 13.10093
799.80 13.04511
799.90 13.07597
800.00 13.1465
800.10 13.28035
800.20 13.43149
800.30 13.54688
800.40 13.6295
800.50 13.6746
800.60 13.69432
800.70 13.72839
800.80 13.7944
800.90 13.8806
801.00 13.9662
801.10 14.03423
801.20 14.1084
801.30 14.20645
801.40 14.32011
801.50 14.4352
801.60 14.49764
801.70 14.51211
801.80 14.52206
801.90 14.53814
802.00 14.59617
802.10 14.6443
802.20 14.58163
802.30 14.46148
802.40 14.39869
802.50 14.47196
802.60 14.67212
802.70 14.83636
802.80 14.86781
802.90 14.85465
803.00 14.90612
803.10 15.03771
803.20 15.18265
803.30 15.28648
803.40 15.31972
803.50 15.3084
803.60 15.29416
803.70 15.26194
803.80 15.22435
803.90 15.22143
804.00 15.24073
804.10 15.27045
804.20 15.3199
804.30 15.38555
804.40 15.49087
804.50 15.62556
804.60 15.70306
804.70 15.6582
804.80 15.51625
804.90 15.39567
805.00 15.44988
805.10 15.73594
805.20 16.13555
805.30 16.47439
805.40 16.6568
805.50 16.69856
805.60 16.67467
805.70 16.62743
805.80 16.5784
805.90 16.57203
806.00 16.6453
806.10 16.77844
806.20 16.926
806.30 17.00916
806.40 16.945
806.50 16.77588
806.60 16.63517
806.70 16.59699
806.80 16.63005
806.90 16.63642
807.00 16.57584
807.10 16.50745
807.20 16.51287
807.30 16.63047
807.40 16.81335
807.50 16.98903
807.60 17.11151
807.70 17.151
807.80 17.16995
807.90 17.23738
808.00 17.31584
808.10 17.37821
808.20 17.42336
808.30 17.46631
808.40 17.5512
808.50 17.66576
808.60 17.75863
808.70 17.79574
808.80 17.76935
808.90 17.71711
809.00 17.69292
809.10 17.73557
809.20 17.84262
809.30 17.9464
809.40 17.98875
809.50 17.95873
809.60 17.87497
809.70 17.79294
809.80 17.74767
809.90 17.73909
810.00 17.75875
810.10 17.79229
810.20 17.83506
810.30 17.86764
810.40 17.85519
810.50 17.79276
810.60 17.73599
810.70 17.7544
810.80 17.88373
810.90 18.10563
811.00 18.29692
811.10 18.34261
811.20 18.29686
811.30 18.27833
811.40 18.3329
811.50 18.38472
811.60 18.27565
811.70 17.999
811.80 17.72974
811.90 17.67308
812.00 17.91107
812.10 18.28572
812.20 18.59257
812.30 18.74239
812.40 18.75579
812.50 18.74662
812.60 18.78612
812.70 18.86606
812.80 18.96411
812.90 19.04245
813.00 19.06878
813.10 19.04489
813.20 19.00021
813.30 18.97537
813.40 18.98407
813.50 19.01981
813.60 19.06378
813.70 19.11072
813.80 19.21813
813.90 19.3891
814.00 19.51545
814.10 19.51372
814.20 19.35413
814.30 19.09934
814.40 18.87523
814.50 18.75299
814.60 18.7742
814.70 18.88566
814.80 18.94481
814.90 18.91068
815.00 18.82686
815.10 18.79046
815.20 18.88387
815.30 19.00581
815.40 19.04424
815.50 18.99515
815.60 18.90305
815.70 18.86165
815.80 18.88363
815.90 18.87714
816.00 18.78927
816.10 18.64839
816.20 18.52037
816.30 18.4658
816.40 18.51971
816.50 18.67603
816.60 18.91145
816.70 19.15087
816.80 19.29533
816.90 19.34263
817.00 19.29593
817.10 19.17887
817.20 19.09833
817.30 19.07557
817.40 19.08177
817.50 19.07104
817.60 18.95714
817.70 18.73018
817.80 18.42756
817.90 18.10033
818.00 17.76977
818.10 17.17221
818.20 16.00122
818.30 14.28985
818.40 12.46453
818.50 11.3335
818.60 11.45688
818.70 12.69715
818.80 14.37629
818.90 15.70199
819.00 16.38051
819.10 16.54838
819.20 16.27197
819.30 15.42582
819.40 13.94672
819.50 12.10281
819.60 10.58392
819.70 10.04033
819.80 10.60888
819.90 11.9481
820.00 13.44966
820.10 14.68802
820.20 15.63527
820.30 16.38438
820.40 16.9291
820.50 17.20074
820.60 17.16977
820.70 16.94751
820.80 16.75515
820.90 16.75068
821.00 16.97711
821.10 17.30243
821.20 17.56145
821.30 17.699
821.40 17.70585
821.50 17.6436
821.60 17.61042
821.70 17.62561
821.80 17.66361
821.90 17.71705
822.00 17.76619
822.10 17.80182
822.20 17.87271
822.30 17.97714
822.40 18.08919
822.50 18.25492
822.60 18.43965
822.70 18.55301
822.80 18.58881
822.90 18.57172
823.00 18.60812
823.10 18.80184
823.20 19.01249
823.30 19.03643
823.40 18.83782
823.50 18.54312
823.60 18.38961
823.70 18.48236
823.80 18.73727
823.90 19.05174
824.00 19.34001
824.10 19.54142
824.20 19.60159
824.30 19.50121
824.40 19.28455
824.50 19.10971
824.60 19.15301
824.70 19.40864
824.80 19.78912
824.90 20.12552
825.00 20.21767
825.10 20.04045
825.20 19.69267
825.30 19.30045
825.40 18.98056
825.50 18.75514
825.60 18.53598
825.70 18.26534
825.80 18.04987
825.90 18.05476
826.00 18.32086
826.10 18.75978
826.20 19.18912
826.30 19.44331
826.40 19.53862
826.50 19.58503
826.60 19.65276
826.70 19.75284
826.80 19.82748
826.90 19.81622
827.00 19.68665
827.10 19.41608
827.20 19.00516
827.30 18.5302
827.40 18.12291
827.50 17.90881
827.60 17.9318
827.70 18.07591
827.80 18.26951
827.90 18.52358
828.00 18.71117
828.10 18.72041
828.20 18.54414
828.30 18.28089
828.40 18.1188
828.50 18.1207
828.60 18.22883
828.70 18.26987
828.80 18.13363
828.90 17.90714
829.00 17.57521
829.10 17.24012
829.20 17.14677
829.30 17.21623
829.40 17.30458
829.50 17.37636
829.60 17.39477
829.70 17.48162
829.80 17.67958
829.90 17.83363
830.00 17.3841
830.10 17.21972
830.20 17.05533
830.30 16.80576
830.40 16.55618
830.50 16.45929
830.60 16.3624
830.70 16.51573
830.80 16.66907
830.90 16.96332
831.00 17.25757
831.10 17.37556
831.20 17.49354
831.30 17.39268
831.40 17.29183
831.50 17.32507
831.60 17.35831
831.70 17.55543
831.80 17.75255
831.90 17.84766
832.00 17.94276
832.10 17.97827
832.20 18.01377
832.30 18.08892
832.40 18.16407
832.50 18.16333
832.60 18.16258
832.70 17.73498
832.80 17.30738
832.90 17.12545
833.00 16.94351
833.10 17.42837
833.20 17.91322
833.30 18.00898
833.40 18.10474
833.50 17.73462
833.60 17.36451
833.70 17.23336
833.80 17.10221
833.90 17.32316
834.00 17.54411
834.10 17.76527
834.20 17.98643
834.30 18.07388
834.40 18.16133
834.50 18.0519
834.60 17.94247
834.70 17.61348
834.80 17.2845
834.90 17.16676
835.00 17.04902
835.10 17.29451
835.20 17.54
835.30 17.56595
835.40 17.59189
835.50 17.56583
835.60 17.53976
835.70 17.65709
835.80 17.77442
835.90 17.85299
836.00 17.93156
836.10 17.99227
836.20 18.05297
836.30 17.87536
836.40 17.69775
836.50 17.54927
836.60 17.40078
836.70 17.60467
836.80 17.80855
836.90 18.15228
837.00 18.496
837.10 18.57717
837.20 18.65833
837.30 18.30904
837.40 17.95974
837.50 17.52591
837.60 17.09209
837.70 16.92067
837.80 16.74925
837.90 16.85002
838.00 16.95078
838.10 17.0847
838.20 17.21861
838.30 17.07064
838.40 16.92266
838.50 16.76042
838.60 16.59818
838.70 16.28501
838.80 15.97185
838.90 15.75757
839.00 15.54329
839.10 15.91552
839.20 16.28775
839.30 16.65787
839.40 17.02799
839.50 17.05974
839.60 17.09149
839.70 17.1107
839.80 17.12991
839.90 17.34175
840.00 17.55358
840.10 17.71141
840.20 17.86923
840.30 17.94824
840.40 18.00876
840.50 18.07118
840.60 18.13559
840.70 18.20234
840.80 18.2814
840.90 18.36046
841.00 18.33633
841.10 18.29255
841.20 18.16708
841.30 17.9662
841.40 17.84999
841.50 18.09475
841.60 18.3395
841.70 18.51463
841.80 18.67935
841.90 18.49013
842.00 18.01134
842.10 17.58501
842.20 17.34473
842.30 17.10444
842.40 17.18607
842.50 17.30346
842.60 17.24474
842.70 17.05848
842.80 16.9285
842.90 16.96732
843.00 17.00615
843.10 17.03357
843.20 17.06013
843.30 16.45594
843.40 15.43123
843.50 14.42822
843.60 13.48098
843.70 12.53375
843.80 13.02037
843.90 13.56674
844.00 14.08583
844.10 14.5889
844.20 14.73918
844.30 14.1042
844.40 13.46923
844.50 12.86319
844.60 12.25743
844.70 12.16403
844.80 12.32298
844.90 12.47836
845.00 12.6268
845.10 12.76165
845.20 12.23059
845.30 11.69953
845.40 11.19617
845.50 10.70466
845.60 10.42386
845.70 10.50182
845.80 10.58673
845.90 10.80383
846.00 11.02093
846.10 11.18788
846.20 11.33626
846.30 11.3999
846.40 11.34159
846.50 11.26981
846.60 11.04326
846.70 10.81671
846.80 10.75884
846.90 10.75424
847.00 10.75938
847.10 10.77689
847.20 10.80323
847.30 10.89433
847.40 10.98542
847.50 11.06056
847.60 11.13145
847.70 11.26547
847.80 11.47065
847.90 11.65178
848.00 11.69659
848.10 11.7414
848.20 11.70466
848.30 11.65123
848.40 11.69149
848.50 11.82545
848.60 11.96393
848.70 12.123
848.80 12.28207
848.90 12.37807
849.00 12.46381
849.10 12.62008
849.20 12.83644
849.30 12.98508
849.40 12.89365
849.50 12.80222
849.60 12.52874
849.70 12.23276
849.80 12.05081
849.90 11.95488
850.00 11.93423
850.10 12.13941
850.20 12.3446
850.30 12.44477
850.40 12.53702
850.50 12.3458
850.60 11.97332
850.70 11.63232
850.80 11.36839
850.90 11.10447
851.00 11.37512
851.10 11.66804
851.20 11.84539
851.30 11.95773
851.40 11.97701
851.50 11.79853
851.60 11.62004
851.70 11.40548
851.80 11.19092
851.90 11.05824
852.00 10.96408
852.10 10.93136
852.20 11.00788
852.30 11.09318
852.40 11.38909
852.50 11.685
852.60 11.90427
852.70 12.09223
852.80 12.2244
852.90 12.26934
853.00 12.31665
853.10 12.39553
853.20 12.47441
853.30 12.56602
853.40 12.66188
853.50 12.75987
853.60 12.86071
853.70 12.95041
853.80 12.95002
853.90 12.94964
854.00 12.9559
854.10 12.96394
854.20 12.96308
854.30 12.9522
854.40 12.95714
854.50 13.05182
854.60 13.14649
854.70 13.36312
854.80 13.60473
854.90 13.79333
855.00 13.92893
855.10 14.05704
855.20 14.15102
855.30 14.245
855.40 14.28333
855.50 14.3126
855.60 14.36412
855.70 14.43458
855.80 14.43197
855.90 14.17032
856.00 13.90867
856.10 13.65739
856.20 13.40727
856.30 13.40898
856.40 13.59306
856.50 13.8134
856.60 14.1369
856.70 14.46041
856.80 14.50203
856.90 14.52565
857.00 14.42129
857.10 14.2385
857.20 14.08202
857.30 13.98693
857.40 13.89185
857.50 13.97065
857.60 14.053
857.70 14.20025
857.80 14.38094
857.90 14.51482
858.00 14.55783
858.10 14.59824
858.20 14.51137
858.30 14.42451
858.40 14.41346
858.50 14.4349
858.60 14.47895
858.70 14.55988
858.80 14.64224
858.90 14.7469
859.00 14.85156
859.10 14.8276
859.20 14.75845
859.30 14.6863
859.40 14.60998
859.50 14.55637
859.60 14.7071
859.70 14.85782
859.80 14.95389
859.90 15.03455
860.00 15.09452
860.10 15.13021
860.20 15.17171
860.30 15.24892
860.40 15.32614
860.50 15.36065
860.60 15.38578
860.70 15.45893
860.80 15.58007
860.90 15.6714
861.00 15.6269
861.10 15.5824
861.20 15.39022
861.30 15.17399
861.40 15.05332
861.50 15.01406
861.60 14.96471
861.70 14.87955
861.80 14.7944
861.90 14.85943
862.00 14.93931
862.10 15.03704
862.20 15.14717
862.30 15.20811
862.40 15.13606
862.50 15.06401
862.60 14.94566
862.70 14.82487
862.80 14.76764
862.90 14.74774
863.00 14.72502
863.10 14.696
863.20 14.66699
863.30 14.80743
863.40 14.94958
863.50 15.05438
863.60 15.14078
863.70 15.19648
863.80 15.19517
863.90 15.19195
864.00 15.12697
864.10 15.06198
864.20 15.17994
864.30 15.37263
864.40 15.48276
864.50 15.46905
864.60 15.44114
864.70 15.24992
864.80 15.0587
864.90 15.01214
865.00 15.01127
865.10 15.07044
865.20 15.20601
865.30 15.35065
865.40 15.56177
865.50 15.77289
865.60 15.9114
865.70 16.03175
865.80 16.06607
865.90 16.01084
866.00 15.91735
866.10 15.63708
866.20 15.35682
866.30 15.2639
866.40 15.20405
866.50 15.33611
866.60 15.63835
866.70 15.91221
866.80 16.07927
866.90 16.24632
867.00 16.21347
867.10 16.15591
867.20 16.14967
867.30 16.18058
867.40 16.1899
867.50 16.13775
867.60 16.0856
867.70 16.20521
867.80 16.33577
867.90 16.47728
868.00 16.62549
868.10 16.68743
868.20 16.54807
868.30 16.40871
868.40 16.4276
868.50 16.44809
868.60 16.44573
868.70 16.43212
868.80 16.28696
868.90 15.89749
869.00 15.51315
869.10 15.29476
869.20 15.07638
869.30 14.82781
869.40 14.5669
869.50 14.37528
869.60 14.28756
869.70 14.22052
869.80 14.3912
869.90 14.56188
870.00 14.75599
870.10 14.95751
870.20 15.14362
870.30 15.31014
870.40 15.46943
870.50 15.5757
870.60 15.68198
870.70 15.69564
870.80 15.68757
870.90 15.56514
871.00 15.32367
871.10 15.09532
871.20 14.93099
871.30 14.76667
871.40 14.80605
871.50 14.87859
871.60 14.88091
871.70 14.82342
871.80 14.78752
871.90 14.82816
872.00 14.86881
872.10 15.01459
872.20 15.17206
872.30 15.34276
872.40 15.52265
872.50 15.68622
872.60 15.80564
872.70 15.92507
872.80 16.35236
872.90 16.79586
873.00 16.93815
873.10 16.90354
873.20 16.77781
873.30 16.45844
873.40 16.13906
873.50 16.06568
873.60 15.99229
873.70 15.99031
873.80 16.02192
873.90 16.07666
874.00 16.17077
874.10 16.27639
874.20 16.60077
874.30 16.92515
874.40 17.2585
874.50 17.59517
874.60 17.75425
874.70 17.66807
874.80 17.55356
874.90 17.18399
875.00 16.81441
875.10 16.87379
875.20 17.05416
875.30 17.29663
875.40 17.60915
875.50 17.86222
875.60 17.77841
875.70 17.6946
875.80 17.82164
875.90 17.99187
876.00 18.20879
876.10 18.4688
876.20 18.6431
876.30 18.47458
876.40 18.30606
876.50 17.95264
876.60 17.57402
876.70 17.3547
876.80 17.25556
876.90 17.31206
877.00 17.83549
877.10 18.35892
877.20 18.87829
877.30 19.39741
877.40 19.7641
877.50 20.03735
877.60 20.21122
877.70 20.15317
877.80 20.09512
877.90 19.45219
878.00 18.80335
878.10 18.49567
878.20 18.35603
878.30 18.36864
878.40 18.65194
878.50 18.92674
878.60 18.99763
878.70 19.06853
878.80 19.14332
878.90 19.21963
879.00 19.32424
879.10 19.46957
879.20 19.61084
879.30 19.71095
879.40 19.81106
879.50 19.84354
879.60 19.85694
879.70 19.95715
879.80 20.15925
879.90 20.26989
880.00 19.81864
880.10 19.3674
880.20 18.61511
880.30 17.80117
880.40 17.41188
880.50 17.4306
880.60 17.47502
880.70 17.6222
880.80 17.76938
880.90 18.04451
881.00 18.33708
881.10 18.81656
881.20 19.43705
881.30 20.01195
881.40 20.45005
881.50 20.88816
881.60 21.08904
881.70 21.27206
881.80 21.43305
881.90 21.58054
882.00 21.56098
882.10 21.15164
882.20 20.7423
882.30 19.97821
882.40 19.21054
882.50 18.78247
882.60 18.52167
882.70 18.48247
882.80 18.83723
882.90 19.19703
883.00 19.67786
883.10 20.15868
883.20 20.57612
883.30 20.97011
883.40 21.21662
883.50 21.25089
883.60 21.28801
883.70 21.35077
883.80 21.41352
883.90 21.50499
884.00 21.60456
884.10 21.7424
884.20 21.9234
884.30 22.0253
884.40 21.67896
884.50 21.33262
884.60 20.85905
884.70 20.36125
884.80 20.01737
884.90 19.81557
885.00 19.75146
885.10 20.20528
885.20 20.6591
885.30 21.46766
885.40 22.32008
885.50 22.6346
885.60 22.55962
885.70 22.28258
885.80 21.43043
885.90 20.57827
886.00 19.36441
886.10 18.13152
886.20 17.25306
886.30 16.58277
886.40 16.2873
886.50 16.78831
886.60 17.28933
886.70 17.66432
886.80 18.03931
886.90 17.70435
887.00 17.05043
887.10 16.32772
887.20 15.49277
887.30 14.70397
887.40 14.63802
887.50 14.57208
887.60 14.96934
887.70 15.52099
887.80 16.09492
887.90 16.6984
888.00 17.24967
888.10 17.41814
888.20 17.58661
888.30 17.34245
888.40 16.99513
888.50 16.69636
888.60 16.44811
888.70 16.29882
888.80 16.63271
888.90 16.96659
889.00 17.33451
889.10 17.70798
889.20 17.89853
889.30 17.93941
889.40 17.92023
889.50 17.69999
889.60 17.47976
889.70 17.17763
889.80 16.86837
889.90 16.88022
890.00 17.10616
890.10 17.43711
890.20 18.02516
890.30 18.61321
890.40 18.91438
890.50 19.2097
890.60 19.31559
890.70 19.32389
890.80 19.27597
890.90 19.12362
891.00 18.96962
891.10 18.76184
891.20 18.55406
891.30 18.58356
891.40 18.70533
891.50 18.86759
891.60 19.08811
891.70 19.29579
891.80 19.3737
891.90 19.4516
892.00 19.44383
892.10 19.41189
892.20 19.35762
892.30 19.27716
892.40 19.19158
892.50 19.07695
892.60 18.96232
892.70 18.92735
892.80 18.90755
892.90 19.0093
893.00 19.22324
893.10 19.48554
893.20 19.92974
893.30 20.37395
893.40 20.70301
893.50 21.01928
893.60 20.87624
893.70 20.40059
893.80 19.82918
893.90 18.99882
894.00 18.16845
894.10 17.955
894.20 17.76724
894.30 17.77869
894.40 17.90219
894.50 18.00762
894.60 18.07635
894.70 18.14831
894.80 18.37884
894.90 18.60937
895.00 18.68138
895.10 18.68546
895.20 18.64452
895.30 18.53319
895.40 18.44147
895.50 18.57514
895.60 18.70882
895.70 18.95508
895.80 19.2369
895.90 19.39619
896.00 19.40573
896.10 19.4128
896.20 19.40471
896.30 19.39661
896.40 19.35979
896.50 19.31709
896.60 19.1696
896.70 18.92144
896.80 18.76065
896.90 18.94937
897.00 19.13809
897.10 19.38084
897.20 19.63027
897.30 19.76512
897.40 19.81352
897.50 19.89777
897.60 20.08401
897.70 20.27026
897.80 20.4644
897.90 20.65895
898.00 20.58464
898.10 20.35241
898.20 20.20271
898.30 20.22837
898.40 20.25947
898.50 20.82945
898.60 21.39943
898.70 21.64275
898.80 21.74607
898.90 21.71263
899.00 21.45603
899.10 21.20948
899.20 21.0964
899.30 20.98332
899.40 20.99385
899.50 21.04341
899.60 21.01559
899.70 20.89319
899.80 20.75834
899.90 20.5402
900.00 20.32205
900.10 20.3461
900.20 20.42331
900.30 20.81876
900.40 21.51997
900.50 22.16247
900.60 22.57007
900.70 22.97767
900.80 22.77876
900.90 22.49715
901.00 22.16299
901.10 21.78919
901.20 21.55936
901.30 21.73928
901.40 21.91921
901.50 22.03426
901.60 22.1459
901.70 21.91001
901.80 21.47863
901.90 21.14239
902.00 21.00831
902.10 20.87286
902.20 20.60048
902.30 20.3281
902.40 20.1692
902.50 20.05893
902.60 19.98975
902.70 19.98485
902.80 19.98541
902.90 20.04873
903.00 20.11205
903.10 20.4072
903.20 20.77556
903.30 21.10591
903.40 21.38979
903.50 21.6723
903.60 21.94643
903.70 22.22056
903.80 22.39733
903.90 22.55415
904.00 22.63751
904.10 22.65307
904.20 22.61162
904.30 22.3421
904.40 22.07259
904.50 22.1227
904.60 22.21231
904.70 22.43699
904.80 22.75948
904.90 23.0172
905.00 23.09982
905.10 23.18245
905.20 22.82143
905.30 22.44193
905.40 22.17034
905.50 21.95686
905.60 21.77607
905.70 21.66164
905.80 21.54834
905.90 21.48993
906.00 21.43152
906.10 21.44444
906.20 21.4865
906.30 21.53554
906.40 21.59503
906.50 21.64429
906.60 21.59003
906.70 21.53577
906.80 21.41282
906.90 21.27049
907.00 21.17873
907.10 21.14634
907.20 21.15859
907.30 21.42383
907.40 21.68906
907.50 21.81156
907.60 21.90688
907.70 22.07262
907.80 22.30082
907.90 22.54461
908.00 22.84362
908.10 23.14264
908.20 23.11823
908.30 23.06183
908.40 22.97694
908.50 22.87307
908.60 22.74799
908.70 22.57099
908.80 22.394
908.90 22.12796
909.00 21.85917
909.10 21.92517
909.20 22.16363
909.30 22.42085
909.40 22.71291
909.50 22.99931
909.60 23.15004
909.70 23.30078
909.80 23.48493
909.90 23.68143
910.00 23.84594
910.10 23.96624
910.20 24.06298
910.30 23.96908
910.40 23.87519
910.50 23.63384
910.60 23.35564
910.70 23.14989
910.80 23.01955
910.90 22.9512
911.00 23.18552
911.10 23.41983
911.20 23.63982
911.30 23.85747
911.40 24.01234
911.50 24.11582
911.60 24.15865
911.70 24.00936
911.80 23.86007
911.90 23.87761
912.00 23.9077
912.10 24.007
912.20 24.1487
912.30 24.24705
912.40 24.24888
912.50 24.25071
912.60 24.17492
912.70 24.09913
912.80 24.09741
912.90 24.12898
913.00 24.19458
913.10 24.3157
913.20 24.44118
913.30 24.62443
913.40 24.80769
913.50 24.93477
913.60 25.04411
913.70 24.9367
913.80 24.56437
913.90 24.16415
914.00 23.59265
914.10 23.02115
914.20 23.06328
914.30 23.23108
914.40 23.56891
914.50 24.06369
914.60 24.46729
914.70 24.52789
914.80 24.58849
914.90 24.31455
915.00 23.99926
915.10 23.84218
915.20 23.79969
915.30 23.87436
915.40 24.26583
915.50 24.65729
915.60 25.12157
915.70 25.58889
915.80 25.77107
915.90 25.79972
916.00 25.72668
916.10 25.45623
916.20 25.18588
916.30 24.9183
916.40 24.65072
916.50 24.66939
916.60 24.79939
916.70 24.98222
916.80 25.24105
916.90 25.4624
917.00 25.34633
917.10 25.23025
917.20 25.18905
917.30 25.16775
917.40 25.12678
917.50 25.0645
917.60 24.9994
917.70 24.92051
917.80 24.84162
917.90 24.87343
918.00 24.92325
918.10 25.00458
918.20 25.11168
918.30 25.18052
918.40 25.12822
918.50 25.07592
918.60 24.96664
918.70 24.85307
918.80 25.05295
918.90 25.44496
919.00 25.84004
919.10 26.24196
919.20 26.64387
919.30 26.33833
919.40 26.03279
919.50 25.76799
919.60 25.52151
919.70 25.50229
919.80 25.85386
919.90 26.18691
920.00 26.27387
920.10 26.36083
920.20 26.31912
920.30 26.23677
920.40 26.18386
920.50 26.16692
920.60 26.10599
920.70 25.77484
920.80 25.44369
920.90 24.83044
921.00 24.1594
921.10 23.85305
921.20 23.8701
921.30 23.95922
921.40 24.30388
921.50 24.64855
921.60 24.85245
921.70 25.04243
921.80 25.15468
921.90 25.2151
922.00 25.18432
922.10 24.93026
922.20 24.67619
922.30 24.50918
922.40 24.34396
922.50 24.25985
922.60 24.2157
922.70 24.19389
922.80 24.21179
922.90 24.21998
923.00 24.04379
923.10 23.86761
923.20 23.54419
923.30 23.16905
923.40 22.98751
923.50 23.0626
923.60 23.13631
923.70 23.19985
923.80 23.2634
923.90 23.32947
924.00 23.39613
924.10 23.62165
924.20 24.00603
924.30 24.37605
924.40 24.68486
924.50 24.99368
924.60 24.59743
924.70 24.10503
924.80 23.70745
924.90 23.37852
925.00 23.10986
925.10 23.00418
925.20 22.8985
925.30 22.97295
925.40 23.05491
925.50 23.33836
925.60 23.73032
925.70 24.12474
925.80 24.52395
925.90 24.90867
926.00 24.82501
926.10 24.74135
926.20 24.60381
926.30 24.44532
926.40 24.40258
926.50 24.52641
926.60 24.66231
926.70 24.90679
926.80 25.15126
926.90 25.20751
927.00 25.21373
927.10 25.08987
927.20 24.83061
927.30 24.57078
927.40 24.30828
927.50 24.04578
927.60 23.7826
927.70 23.51933
927.80 23.28019
927.90 23.06
928.00 22.89599
928.10 22.90048
928.20 22.90496
928.30 23.26102
928.40 23.63952
928.50 23.81189
928.60 23.8632
928.70 23.80657
928.80 23.53078
928.90 23.25766
929.00 23.11469
929.10 22.97172
929.20 22.87435
929.30 22.79562
929.40 22.79547
929.50 22.9132
929.60 23.02089
929.70 23.02713
929.80 23.03337
929.90 22.77025
930.00 22.43116
930.10 22.15936
930.20 22.09496
930.30 22.1258
930.40 22.15663
930.50 22.24816
930.60 22.34956
930.70 22.45168
930.80 22.55786
930.90 22.66403
931.00 22.82701
931.10 23.06527
931.20 23.30353
931.30 23.46288
931.40 23.59
931.50 23.71711
931.60 23.58946
931.70 23.45924
931.80 23.30936
931.90 23.10636
932.00 22.90336
932.10 22.86079
932.20 22.94949
932.30 23.03819
932.40 23.122
932.50 23.2048
932.60 23.27018
932.70 23.20769
932.80 23.14521
932.90 23.12137
933.00 23.15549
933.10 23.18961
933.20 23.15828
933.30 23.09614
933.40 23.03401
933.50 23.01361
933.60 22.99495
933.70 23.00825
933.80 23.12276
933.90 23.23726
934.00 23.32051
934.10 23.37606
934.20 23.4316
934.30 23.356
934.40 23.24965
934.50 23.16343
934.60 23.28071
934.70 23.39799
934.80 23.43282
934.90 23.32725
935.00 23.22169
935.10 23.11609
935.20 23.01046
935.30 22.90484
935.40 22.8971
935.50 22.89561
935.60 22.89839
935.70 22.91631
935.80 22.93422
935.90 23.00668
936.00 23.13367
936.10 23.26066
936.20 23.44169
936.30 23.6371
936.40 23.80876
936.50 23.66509
936.60 23.52142
936.70 23.33175
936.80 23.05667
936.90 22.7816
937.00 22.52431
937.10 22.27747
937.20 22.03064
937.30 22.14796
937.40 22.29696
937.50 22.46976
937.60 22.73779
937.70 23.00581
937.80 23.19915
937.90 23.31156
938.00 23.42398
938.10 23.35605
938.20 23.23426
938.30 23.12222
938.40 23.19537
938.50 23.26852
938.60 23.32293
938.70 23.33931
938.80 23.35568
938.90 23.38061
939.00 23.41076
939.10 23.44092
939.20 23.52217
939.30 23.6091
939.40 23.6698
939.50 23.61104
939.60 23.55228
939.70 23.40968
939.80 23.17254
939.90 22.93539
940.00 22.92881
940.10 22.9991
940.20 23.07095
940.30 23.19381
940.40 23.31667
940.50 23.44074
940.60 23.5674
940.70 23.69405
940.80 23.86886
940.90 24.07578
941.00 24.2827
941.10 24.31795
941.20 24.33199
941.30 24.30042
941.40 24.04617
941.50 23.79192
941.60 23.60166
941.70 23.48962
941.80 23.37758
941.90 23.4997
942.00 23.70411
942.10 23.90543
942.20 23.9559
942.30 24.00637
942.40 24.04836
942.50 24.07144
942.60 24.09452
942.70 24.10089
942.80 24.09563
942.90 24.09038
943.00 24.17197
943.10 24.2654
943.20 24.36706
943.30 24.51195
943.40 24.65683
943.50 24.7237
943.60 24.69523
943.70 24.66676
943.80 24.4543
943.90 24.17379
944.00 23.89586
944.10 23.74465
944.20 23.59345
944.30 23.47324
944.40 23.42536
944.50 23.37749
944.60 23.36996
944.70 23.39049
944.80 23.41101
944.90 23.49363
945.00 23.58554
945.10 23.68686
945.20 23.83761
945.30 23.98835
945.40 24.11223
945.50 24.20192
945.60 24.29161
945.70 24.27341
945.80 24.2153
945.90 24.15801
946.00 24.18052
946.10 24.20302
946.20 24.27236
946.30 24.45094
946.40 24.62952
946.50 24.65614
946.60 24.57272
946.70 24.4893
946.80 24.55323
946.90 24.63918
947.00 24.72723
947.10 24.82634
947.20 24.92544
947.30 24.98619
947.40 24.99813
947.50 25.01006
947.60 25.05578
947.70 25.11399
947.80 25.17333
947.90 25.3438
948.00 25.51427
948.10 25.63474
948.20 25.63854
948.30 25.64235
948.40 25.66618
948.50 25.70394
948.60 25.7417
948.70 25.69926
948.80 25.64483
948.90 25.62323
949.00 25.774
949.10 25.92477
949.20 25.98583
949.30 25.93272
949.40 25.87961
949.50 25.70992
949.60 25.49712
949.70 25.29141
949.80 25.4335
949.90 25.5756
950.00 25.69809
950.10 25.77485
950.20 25.85161
950.30 25.83567
950.40 25.7553
950.50 25.67494
950.60 25.60836
950.70 25.54366
950.80 25.50363
950.90 25.5931
951.00 25.68257
951.10 25.73572
951.20 25.74449
951.30 25.75326
951.40 25.63851
951.50 25.48036
951.60 25.32557
951.70 25.33524
951.80 25.34492
951.90 25.37866
952.00 25.46597
952.10 25.55328
952.20 25.68036
952.30 25.83395
952.40 25.98754
952.50 26.23415
952.60 26.49225
952.70 26.7026
952.80 26.67978
952.90 26.65697
953.00 26.66455
953.10 26.70781
953.20 26.75107
953.30 26.64067
953.40 26.47906
953.50 26.31837
953.60 26.1798
953.70 26.04123
953.80 25.92169
953.90 25.84258
954.00 25.76346
954.10 25.79221
954.20 25.88992
954.30 25.98763
954.40 26.02195
954.50 26.04923
954.60 26.03722
954.70 25.85767
954.80 25.67812
954.90 25.66915
955.00 25.85253
955.10 26.0359
955.20 26.19451
955.30 26.34531
955.40 26.49401
955.50 26.60284
955.60 26.71168
955.70 26.82272
955.80 26.93806
955.90 27.0534
956.00 27.12501
956.10 27.17093
956.20 27.21685
956.30 27.01339
956.40 26.78824
956.50 26.61196
956.60 26.6311
956.70 26.65025
956.80 26.73291
956.90 26.88169
957.00 27.03046
957.10 27.04173
957.20 27.0142
957.30 26.96805
957.40 26.67428
957.50 26.38051
957.60 26.14788
957.70 26.02395
957.80 25.90001
957.90 25.94279
958.00 26.07534
958.10 26.20788
958.20 26.37357
958.30 26.54176
958.40 26.65779
958.50 26.58892
958.60 26.52005
958.70 26.3609
958.80 26.11501
958.90 25.86912
959.00 25.655
959.10 25.44883
959.20 25.27267
959.30 25.39983
959.40 25.527
959.50 25.52573
959.60 25.31493
959.70 25.10412
959.80 24.73199
959.90 24.28042
960.00 23.82884
960.10 23.88403
960.20 23.96032
960.30 24.17473
960.40 24.80344
960.50 25.43214
960.60 25.82748
960.70 26.02402
960.80 26.22056
960.90 26.24172
961.00 26.22694
961.10 26.19628
961.20 26.04907
961.30 25.90185
961.40 25.80133
961.50 25.76801
961.60 25.73468
961.70 25.90861
961.80 26.17136
961.90 26.43411
962.00 26.57208
962.10 26.70879
962.20 26.78126
962.30 26.68858
962.40 26.59589
962.50 26.65872
962.60 26.84375
962.70 27.02877
962.80 27.00348
962.90 26.94107
963.00 26.87098
963.10 26.75373
963.20 26.63648
963.30 26.50826
963.40 26.36551
963.50 26.22276
963.60 25.64359
963.70 24.89471
963.80 24.14661
963.90 23.47676
964.00 22.8069
964.10 22.55589
964.20 23.28219
964.30 24.0085
964.40 24.57816
964.50 25.04339
964.60 25.50862
964.70 25.29902
964.80 25.00602
964.90 24.77656
965.00 24.83655
965.10 24.89654
965.20 25.0296
965.30 25.24504
965.40 25.46049
965.50 25.68084
965.60 25.90275
965.70 26.11998
965.80 26.24815
965.90 26.37633
966.00 26.51394
966.10 26.66986
966.20 26.82578
966.30 26.9363
966.40 27.02016
966.50 27.10402
966.60 27.06865
966.70 27.0229
966.80 26.978
966.90 26.93628
967.00 26.89456
967.10 26.82947
967.20 26.74101
967.30 26.65256
967.40 26.14765
967.50 25.53205
967.60 24.94343
967.70 24.66528
967.80 24.38713
967.90 24.51274
968.00 25.29712
968.10 26.08151
968.20 26.48084
968.30 26.69053
968.40 26.90022
968.50 26.68498
968.60 26.45204
968.70 26.17851
968.80 25.78323
968.90 25.38795
969.00 25.25323
969.10 25.34048
969.20 25.42772
969.30 25.93678
969.40 26.53223
969.50 27.08763
969.60 27.34937
969.70 27.61111
969.80 27.75522
969.90 27.73689
970.00 27.71855
970.10 27.58732
970.20 27.40997
970.30 27.23261
970.40 26.65653
970.50 26.08045
970.60 25.57393
970.70 25.23771
970.80 24.9015
970.90 25.17892
971.00 25.9007
971.10 26.62249
971.20 27.14204
971.30 27.63402
971.40 28.06069
971.50 28.16847
971.60 28.27625
971.70 28.2419
971.80 28.04072
971.90 27.83954
972.00 27.61123
972.10 27.37386
972.20 27.14916
972.30 27.2283
972.40 27.30745
972.50 27.30781
972.60 27.15526
972.70 27.0027
972.80 26.51984
972.90 25.84299
973.00 25.16614
973.10 25.13305
973.20 25.15593
973.30 25.25766
973.40 25.65599
973.50 26.05433
973.60 26.28242
973.70 26.34696
973.80 26.4115
973.90 26.45914
974.00 26.50256
974.10 26.51876
974.20 26.25989
974.30 26.00102
974.40 25.74031
974.50 25.47673
974.60 25.21314
974.70 25.29274
974.80 25.53384
974.90 25.77494
975.00 26.00188
975.10 26.22838
975.20 26.42671
975.30 26.54486
975.40 26.66301
975.50 26.75547
975.60 26.82775
975.70 26.90003
975.80 26.96203
975.90 27.02222
976.00 27.07046
976.10 27.04533
976.20 27.0202
976.30 27.0447
976.40 27.13236
976.50 27.22002
976.60 27.30992
976.70 27.40064
976.80 27.48162
976.90 27.08527
977.00 26.68892
977.10 26.34551
977.20 26.11459
977.30 25.88367
977.40 26.04227
977.50 26.44992
977.60 26.85756
977.70 27.05244
977.80 27.22627
977.90 27.32782
978.00 27.1402
978.10 26.95258
978.20 26.48563
978.30 25.72795
978.40 24.97027
978.50 24.61487
978.60 24.36641
978.70 24.15708
978.80 24.39783
978.90 24.63858
979.00 25.00956
979.10 25.6023
979.20 26.19503
979.30 26.76393
979.40 27.32108
979.50 27.87824
979.60 27.9381
979.70 27.97724
979.80 27.99198
979.90 27.93724
980.00 27.88251
980.10 27.86625
980.20 27.88149
980.30 27.89672
980.40 27.82932
980.50 27.74619
980.60 27.66346
980.70 27.58323
980.80 27.50299
980.90 27.48955
981.00 27.56466
981.10 27.63976
981.20 27.60506
981.30 27.52975
981.40 27.45096
981.50 27.20185
981.60 26.95273
981.70 26.81295
981.80 26.90551
981.90 26.99808
982.00 27.05823
982.10 27.09766
982.20 27.13709
982.30 27.16826
982.40 27.19862
982.50 27.2442
982.60 27.3507
982.70 27.4572
982.80 27.47675
982.90 27.40933
983.00 27.34191
983.10 27.22642
983.20 27.09815
983.30 26.97548
983.40 26.91715
983.50 26.85881
983.60 26.80303
983.70 26.75142
983.80 26.6998
983.90 26.79943
984.00 26.97356
984.10 27.14768
984.20 27.26912
984.30 27.38892
984.40 27.46168
984.50 27.40726
984.60 27.35283
984.70 27.38624
984.80 27.48865
984.90 27.59107
985.00 27.50957
985.10 27.39812
985.20 27.28895
985.30 27.19273
985.40 27.09651
985.50 27.1637
985.60 27.43061
985.70 27.69751
985.80 27.76289
985.90 27.75747
986.00 27.75058
986.10 27.70877
986.20 27.66696
986.30 27.66041
986.40 27.72546
986.50 27.7905
986.60 27.76241
986.70 27.67963
986.80 27.59684
986.90 27.40266
987.00 27.1988
987.10 27.0774
987.20 27.24836
987.30 27.41933
987.40 27.5992
987.50 27.78728
987.60 27.97536
987.70 27.9017
987.80 27.76665
987.90 27.62719
988.00 27.45204
988.10 27.27688
988.20 27.25657
988.30 27.46851
988.40 27.68045
988.50 27.89613
988.60 28.11341
988.70 28.33069
988.80 28.30146
988.90 28.27222
989.00 28.21459
989.10 28.08747
989.20 27.96034
989.30 27.69334
989.40 27.32914
989.50 26.96494
989.60 26.05187
989.70 25.06396
989.80 24.14444
989.90 23.53648
990.00 22.92852
990.10 22.50494
990.20 22.28109
990.30 22.05725
990.40 21.44216
990.50 20.71021
990.60 19.99927
990.70 19.56765
990.80 19.13602
990.90 18.91499
991.00 19.05256
991.10 19.19012
991.20 19.27044
991.30 19.32128
991.40 19.37211
991.50 19.06105
991.60 18.73491
991.70 18.56059
991.80 18.8184
991.90 19.0762
992.00 19.4287
992.10 19.85867
992.20 20.28864
992.30 20.10926
992.40 19.82235
992.50 19.57695
992.60 19.56679
992.70 19.55664
992.80 19.82027
992.90 20.43235
993.00 21.04444
993.10 21.44857
993.20 21.77963
993.30 22.08308
993.40 21.72402
993.50 21.36496
993.60 21.28544
993.70 21.74853
993.80 22.21163
993.90 22.77726
994.00 23.40311
994.10 24.02896
994.20 24.10913
994.30 24.14823
994.40 24.13356
994.50 23.93889
994.60 23.74423
994.70 23.74157
994.80 23.90918
994.90 24.0768
995.00 24.38513
995.10 24.72436
995.20 25.04528
995.30 25.23196
995.40 25.41863
995.50 25.38359
995.60 25.04236
995.70 24.70112
995.80 24.41257
995.90 24.1445
996.00 23.8793
996.10 23.89856
996.20 23.91782
996.30 24.10903
996.40 24.68297
996.50 25.25691
996.60 25.62856
996.70 25.87088
996.80 26.1132
996.90 25.27037
997.00 24.32022
997.10 23.43907
997.20 22.83394
997.30 22.22881
997.40 22.07747
997.50 22.37994
997.60 22.68241
997.70 23.09096
997.80 23.52603
997.90 23.94717
998.00 24.24302
998.10 24.53887
998.20 24.61633
998.30 24.36619
998.40 24.11606
998.50 23.81298
998.60 23.48611
998.70 23.15924
998.80 23.18378
998.90 23.21186
999.00 23.21091
999.10 23.13888
999.20 23.06684
999.30 23.2005
999.40 23.47711
999.50 23.75372
999.60 23.73901
999.70 23.68828
999.80 23.68772
999.90 23.90103
1000.00 24.11433
1000.10 24.4786
1000.20 24.99382
1000.30 25.50905
1000.40 25.7372
1000.50 25.89359
1000.60 25.99852
1000.70 25.64034
1000.80 25.28216
1000.90 24.86224
1001.00 24.34971
1001.10 23.83717
1001.20 23.78939
1001.30 23.94079
1001.40 24.09219
1001.50 24.62178
1001.60 25.15137
1001.70 25.60041
1001.80 25.86151
1001.90 26.12261
1002.00 26.06761
1002.10 25.80188
1002.20 25.53615
1002.30 25.68265
1002.40 25.87495
1002.50 26.04218
1002.60 26.10907
1002.70 26.17597
1002.80 26.05641
1002.90 25.75039
1003.00 25.44437
1003.10 25.34216
1003.20 25.29091
1003.30 25.21625
1003.40 24.93092
1003.50 24.6456
1003.60 24.4114
1003.70 24.25389
1003.80 24.09638
1003.90 24.32088
1004.00 24.70911
1004.10 25.09734
1004.20 25.5956
1004.30 26.09386
1004.40 26.47839
1004.50 26.59755
1004.60 26.71672
1004.70 26.55379
1004.80 26.20281
1004.90 25.85182
1005.00 25.1161
1005.10 24.33764
1005.20 23.59702
1005.30 23.0078
1005.40 22.41857
1005.50 22.13948
1005.60 22.17052
1005.70 22.20156
1005.80 22.54545
1005.90 22.96755
1006.00 23.37701
1006.10 23.67282
1006.20 23.96862
1006.30 24.13794
1006.40 24.11753
1006.50 24.09712
1006.60 24.42547
1006.70 24.90327
1006.80 25.38108
1006.90 25.70925
1007.00 26.03742
1007.10 26.16488
1007.20 25.82403
1007.30 25.48317
1007.40 25.46388
1007.50 25.65896
1007.60 25.85405
1007.70 26.19911
1007.80 26.56084
1007.90 26.8446
1008.00 26.81644
1008.10 26.78829
1008.20 26.80716
1008.30 26.87307
1008.40 26.93897
1008.50 27.10423
1008.60 27.29433
1008.70 27.42741
1008.80 27.04727
1008.90 26.66714
1009.00 26.29431
1009.10 25.93243
1009.20 25.57054
1009.30 25.57081
1009.40 25.72629
1009.50 25.88177
1009.60 26.27684
1009.70 26.67191
1009.80 27.09193
1009.90 27.57015
1010.00 28.04838
1010.10 28.45704
1010.20 28.81932
1010.30 29.1816
1010.40 29.03796
1010.50 28.83811
1010.60 28.60999
1010.70 28.26878
1010.80 27.92757
1010.90 27.53946
1011.00 27.10446
1011.10 26.66945
1011.20 26.2955
1011.30 25.93682
1011.40 25.60534
1011.50 25.51867
1011.60 25.432
1011.70 25.34391
1011.80 25.25367
1011.90 25.16343
1012.00 25.52564
1012.10 26.08174
1012.20 26.63785
1012.30 27.09139
1012.40 27.54493
1012.50 27.86057
1012.60 27.85446
1012.70 27.84835
1012.80 27.85977
1012.90 27.8829
1013.00 27.90602
1013.10 27.88744
1013.20 27.86423
1013.30 27.70699
1013.40 27.01365
1013.50 26.32031
1013.60 25.64397
1013.70 24.98465
1013.80 24.32533
1013.90 24.33448
1014.00 24.51074
1014.10 24.72305
1014.20 25.25972
1014.30 25.79639
1014.40 26.10537
1014.50 26.07283
1014.60 26.04029
1014.70 25.81792
1014.80 25.51419
1014.90 25.21047
1015.00 25.68265
1015.10 26.15483
1015.20 26.57571
1015.30 26.87692
1015.40 27.17814
1015.50 26.97464
1015.60 26.43468
1015.70 25.89473
1015.80 25.59585
1015.90 25.32377
1016.00 25.14966
1016.10 25.36747
1016.20 25.58528
1016.30 25.74906
1016.40 25.8588
1016.50 25.96854
1016.60 26.25352
1016.70 26.58231
1016.80 26.85269
1016.90 26.59735
1017.00 26.34201
1017.10 26.10445
1017.20 25.89357
1017.30 25.68269
1017.40 26.11491
1017.50 26.82275
1017.60 27.53059
1017.70 27.54045
1017.80 27.55031
1017.90 27.40339
1018.00 26.89061
1018.10 26.37783
1018.20 26.0456
1018.30 25.83372
1018.40 25.62185
1018.50 25.36861
1018.60 25.11077
1018.70 24.95968
1018.80 25.23554
1018.90 25.5114
1019.00 25.89378
1019.10 26.38268
1019.20 26.87159
1019.30 26.96446
1019.40 26.95833
1019.50 26.95552
1019.60 26.98261
1019.70 27.0097
1019.80 26.98228
1019.90 26.87309
1020.00 26.7639
1020.10 26.66033
1020.20 26.55917
1020.30 26.45801
1020.40 26.60027
1020.50 26.74254
1020.60 26.90496
1020.70 27.11441
1020.80 27.32386
1020.90 27.35207
1021.00 27.25947
1021.10 27.16687
1021.20 26.84546
1021.30 26.49862
1021.40 26.15426
1021.50 25.8198
1021.60 25.48534
1021.70 25.17687
1021.80 24.89439
1021.90 24.61191
1022.00 24.48565
1022.10 24.39843
1022.20 24.37195
1022.30 24.89214
1022.40 25.41233
1022.50 25.86782
1022.60 26.22627
1022.70 26.58471
1022.80 26.68151
1022.90 26.66618
1023.00 26.63076
1023.10 26.41447
1023.20 26.19818
1023.30 26.09183
1023.40 26.15039
1023.50 26.20895
1023.60 26.46567
1023.70 26.80732
1023.80 27.14898
1023.90 27.33358
1024.00 27.51819
1024.10 27.70541
1024.20 27.89873
1024.30 28.09205
1024.40 27.98943
1024.50 27.68952
1024.60 27.38961
1024.70 27.15926
1024.80 26.93664
1024.90 26.71102
1025.00 26.47337
1025.10 26.23573
1025.20 25.95302
1025.30 25.62524
1025.40 25.29747
1025.50 25.41331
1025.60 25.64005
1025.70 25.81911
1025.80 25.569
1025.90 25.31889
1026.00 24.94002
1026.10 24.368
1026.20 23.79598
1026.30 23.65173
1026.40 23.69081
1026.50 23.72988
1026.60 24.42386
1026.70 25.11785
1026.80 25.77191
1026.90 26.33283
1027.00 26.89375
1027.10 27.04334
1027.20 26.9187
1027.30 26.79406
1027.40 26.41599
1027.50 26.00976
1027.60 25.66637
1027.70 25.57437
1027.80 25.48236
1027.90 25.37886
1028.00 25.26387
1028.10 25.14887
1028.20 24.80509
1028.30 24.40411
1028.40 24.06523
1028.50 24.28527
1028.60 24.50531
1028.70 24.93001
1028.80 25.66173
1028.90 26.39344
1029.00 26.58728
1029.10 26.55062
1029.20 26.51395
1029.30 26.30421
1029.40 26.09448
1029.50 25.96996
1029.60 26.04429
1029.70 26.11862
1029.80 26.08087
1029.90 25.96839
1030.00 25.85591
1030.10 25.7668
1030.20 25.68029
1030.30 25.65822
1030.40 25.89392
1030.50 26.12961
1030.60 26.41283
1030.70 26.72772
1030.80 27.04261
1030.90 26.88633
1031.00 26.67769
1031.10 26.54429
1031.20 26.71182
1031.30 26.87935
1031.40 26.99277
1031.50 27.05207
1031.60 27.11138
1031.70 26.80207
1031.80 26.4006
1031.90 26.03648
1032.00 26.00851
1032.10 25.98053
1032.20 25.88548
1032.30 25.68982
1032.40 25.49416
1032.50 25.47154
1032.60 25.52308
1032.70 25.57462
1032.80 26.20306
1032.90 26.83149
1033.00 27.42332
1033.10 27.92972
1033.20 28.43612
1033.30 28.50036
1033.40 28.26985
1033.50 28.03933
1033.60 27.35617
1033.70 26.62271
1033.80 25.97239
1033.90 25.65461
1034.00 25.33683
1034.10 25.09763
1034.20 24.93701
1034.30 24.77638
1034.40 24.43825
1034.50 24.05573
1034.60 23.75495
1034.70 24.18978
1034.80 24.62461
1034.90 24.99933
1035.00 25.28391
1035.10 25.56848
1035.20 25.66016
1035.30 25.66916
1035.40 25.67816
1035.50 25.90407
1035.60 26.12998
1035.70 26.39369
1035.80 26.74563
1035.90 27.09756
1036.00 27.43911
1036.10 27.77375
1036.20 28.10839
1036.30 28.15952
1036.40 28.17916
1036.50 28.18264
1036.60 28.14842
1036.70 28.1142
1036.80 28.17304
1036.90 28.29393
1037.00 28.41481
1037.10 28.73143
1037.20 29.06979
1037.30 29.3357
1037.40 29.31179
1037.50 29.28787
1037.60 29.00026
1037.70 28.44896
1037.80 27.89766
1037.90 27.22441
1038.00 26.52068
1038.10 25.88103
1038.20 25.81817
1038.30 25.75531
1038.40 25.94006
1038.50 26.49621
1038.60 27.05236
1038.70 27.29473
1038.80 27.40262
1038.90 27.51051
1039.00 27.34082
1039.10 27.17113
1039.20 26.99846
1039.30 26.81882
1039.40 26.63918
1039.50 26.38272
1039.60 26.07504
1039.70 25.76737
1039.80 25.84748
1039.90 25.97068
1040.00 26.17484
1040.10 26.70279
1040.20 27.23075
1040.30 27.65768
1040.40 27.98358
1040.50 28.30948
1040.60 28.4824
1040.70 28.61707
1040.80 28.72421
1040.90 28.58354
1041.00 28.44286
1041.10 28.12565
1041.20 27.54364
1041.30 26.96162
1041.40 26.74089
1041.50 26.61047
1041.60 26.56697
1041.70 27.30575
1041.80 28.04452
1041.90 28.59757
1042.00 28.87204
1042.10 29.14651
1042.20 28.90906
1042.30 28.45221
1042.40 27.99537
1042.50 27.39343
1042.60 26.7915
1042.70 26.24966
1042.80 25.84806
1042.90 25.44646
1043.00 25.56999
1043.10 26.04361
1043.20 26.51722
1043.30 27.31762
1043.40 28.15433
1043.50 28.84086
1043.60 28.92664
1043.70 29.01243
1043.80 29.01025
1043.90 28.92012
1044.00 28.82999
1044.10 28.82072
1044.20 28.83167
1044.30 28.84592
1044.40 28.88998
1044.50 28.93404
1044.60 28.9122
1044.70 28.79149
1044.80 28.67078
1044.90 28.88762
1045.00 29.24913
1045.10 29.61064
1045.20 30.04531
1045.30 30.47999
1045.40 30.80857
1045.50 30.88961
1045.60 30.97065
1045.70 30.73437
1045.80 30.36209
1045.90 29.98981
1046.00 29.45482
1046.10 28.91982
1046.20 28.48085
1046.30 28.2659
1046.40 28.05096
1046.50 27.82469
1046.60 27.59086
1046.70 27.35703
1046.80 27.02535
1046.90 26.68279
1047.00 26.41004
1047.10 26.41653
1047.20 26.42301
1047.30 26.55441
1047.40 26.81072
1047.50 27.06703
1047.60 27.18412
1047.70 27.26639
1047.80 27.32935
1047.90 27.21846
1048.00 27.10757
1048.10 27.14207
1048.20 27.39465
1048.30 27.64723
1048.40 27.91101
1048.50 28.17959
1048.60 28.44817
1048.70 28.39665
1048.80 28.34513
1048.90 28.3336
1049.00 28.41539
1049.10 28.49718
1049.20 28.57523
1049.30 28.65077
1049.40 28.72632
1049.50 28.28782
1049.60 27.79221
1049.70 27.34946
1049.80 27.03005
1049.90 26.71063
1050.00 26.85587
1050.10 27.31086
1050.20 27.76585
1050.30 27.97364
1050.40 28.15397
1050.50 28.27855
1050.60 28.18017
1050.70 28.08179
1050.80 28.00935
1050.90 27.96287
1051.00 27.91638
1051.10 27.59436
1051.20 27.20346
1051.30 26.82587
1051.40 26.56797
1051.50 26.31007
1051.60 26.21136
1051.70 26.35144
1051.80 26.49152
1051.90 26.53946
1052.00 26.54791
1052.10 26.55636
1052.20 26.68362
1052.30 26.81088
1052.40 27.02387
1052.50 27.43688
1052.60 27.84988
1052.70 28.18533
1052.80 28.46906
1052.90 28.7528
1053.00 28.62388
1053.10 28.44912
1053.20 28.30341
1053.30 28.27395
1053.40 28.24448
1053.50 28.28261
1053.60 28.36578
1053.70 28.44896
1053.80 28.28566
1053.90 28.09496
1054.00 27.95757
1054.10 28.0334
1054.20 28.10924
1054.30 28.15826
1054.40 28.18048
1054.50 28.2027
1054.60 27.9137
1054.70 27.54689
1054.80 27.21704
1054.90 27.21978
1055.00 27.22251
1055.10 27.38689
1055.20 27.79371
1055.30 28.20054
1055.40 28.20433
1055.50 28.03539
1055.60 27.86645
1055.70 27.45632
1055.80 27.04618
1055.90 26.6662
1056.00 26.35661
1056.10 26.04701
1056.20 25.9537
1056.30 26.00458
1056.40 26.05546
1056.50 26.23193
1056.60 26.42236
1056.70 26.58698
1056.80 26.64837
1056.90 26.70975
1057.00 26.76741
1057.10 26.82259
1057.20 26.87777
1057.30 27.07074
1057.40 27.27902
1057.50 27.47686
1057.60 27.63296
1057.70 27.78906
1057.80 27.86967
1057.90 27.87479
1058.00 27.87991
1058.10 27.9468
1058.20 28.02914
1058.30 28.06595
1058.40 27.69297
1058.50 27.31999
1058.60 26.96736
1058.70 26.64528
1058.80 26.3232
1058.90 26.31495
1059.00 26.44119
1059.10 26.56744
1059.20 26.6645
1059.30 26.76155
1059.40 26.90655
1059.50 27.16342
1059.60 27.42028
1059.70 27.54152
1059.80 27.57234
1059.90 27.60316
1060.00 27.41057
1060.10 27.19316
1060.20 27.01198
1060.30 26.91532
1060.40 26.81866
1060.50 26.67182
1060.60 26.49154
1060.70 26.31126
1060.80 26.18837
1060.90 26.07185
1061.00 26.02898
1061.10 26.2807
1061.20 26.53243
1061.30 26.83677
1061.40 27.19373
1061.50 27.5507
1061.60 27.62513
1061.70 27.62892
1061.80 27.60799
1061.90 27.36447
1062.00 27.12096
1062.10 26.97316
1062.20 26.96895
1062.30 26.96474
1062.40 27.09456
1062.50 27.28184
1062.60 27.46911
1062.70 27.90083
1062.80 28.33254
1062.90 28.6511
1063.00 28.70562
1063.10 28.76014
1063.20 28.65535
1063.30 28.44435
1063.40 28.23335
1063.50 28.21425
1063.60 28.19514
1063.70 28.23057
1063.80 28.39324
1063.90 28.55591
1064.00 28.7268
1064.10 28.90315
1064.20 29.0795
1064.30 29.0277
1064.40 28.95054
1064.50 28.88803
1064.60 28.88408
1064.70 28.88013
1064.80 28.8636
1064.90 28.8345
1065.00 28.8054
1065.10 28.6899
1065.20 28.55279
1065.30 28.39217
1065.40 28.0198
1065.50 27.64744
1065.60 27.41274
1065.70 27.38454
1065.80 27.35634
1065.90 27.31344
1066.00 27.26424
1066.10 27.21504
1066.20 26.75185
1066.30 26.28866
1066.40 26.00931
1066.50 26.00571
1066.60 26.00212
1066.70 26.12825
1066.80 26.30999
1066.90 26.49173
1067.00 26.45117
1067.10 26.41062
1067.20 26.50509
1067.30 26.91461
1067.40 27.32413
1067.50 27.67287
1067.60 27.9811
1067.70 28.28933
1067.80 28.39149
1067.90 28.47077
1068.00 28.57175
1068.10 28.75958
1068.20 28.94741
1068.30 29.14365
1068.40 29.34831
1068.50 29.55297
1068.60 29.63339
1068.70 29.68274
1068.80 29.71412
1068.90 29.58373
1069.00 29.45333
1069.10 29.37661
1069.20 29.38039
1069.30 29.38417
1069.40 29.1339
1069.50 28.82011
1069.60 28.52501
1069.70 28.39808
1069.80 28.27115
1069.90 28.22357
1070.00 28.29504
1070.10 28.3665
1070.20 28.25839
1070.30 28.07332
1070.40 27.88826
1070.50 28.05561
1070.60 28.22296
1070.70 28.37272
1070.80 28.48145
1070.90 28.59018
1071.00 28.55002
1071.10 28.4106
1071.20 28.27118
1071.30 28.50395
1071.40 28.77806
1071.50 29.01157
1071.60 29.08266
1071.70 29.15375
1071.80 29.17077
1071.90 29.13372
1072.00 29.09667
1072.10 29.0852
1072.20 29.07658
1072.30 28.99617
1072.40 28.62864
1072.50 28.2611
1072.60 28.02988
1072.70 27.93496
1072.80 27.84004
1072.90 28.00936
1073.00 28.24473
1073.10 28.44629
1073.20 28.34357
1073.30 28.24084
1073.40 28.1262
1073.50 27.99368
1073.60 27.86117
1073.70 28.02406
1073.80 28.31356
1073.90 28.60305
1074.00 28.91108
1074.10 29.21911
1074.20 29.4459
1074.30 29.48314
1074.40 29.52039
1074.50 29.42142
1074.60 29.23164
1074.70 29.04185
1074.80 28.88333
1074.90 28.7248
1075.00 28.58792
1075.10 28.50154
1075.20 28.41516
1075.30 28.36294
1075.40 28.33349
1075.50 28.30403
1075.60 28.50444
1075.70 28.73039
1075.80 28.96927
1075.90 29.25982
1076.00 29.55037
1076.10 29.64519
1076.20 29.54427
1076.30 29.44335
1076.40 29.40992
1076.50 29.39335
1076.60 29.38494
1076.70 29.45005
1076.80 29.51516
1076.90 29.55828
1077.00 29.56841
1077.10 29.57853
1077.20 29.47968
1077.30 29.33412
1077.40 29.17484
1077.50 28.89205
1077.60 28.60926
1077.70 28.45081
1077.80 28.47888
1077.90 28.50694
1078.00 28.65552
1078.10 28.85575
1078.20 29.05597
1078.30 29.04362
1078.40 29.03126
1078.50 29.0177
1078.60 29.0013
1078.70 28.98491
1078.80 28.85671
1078.90 28.65397
1079.00 28.45122
1079.10 28.27499
1079.20 28.10171
1079.30 27.93642
1079.40 27.80314
1079.50 27.66985
1079.60 27.74312
1079.70 28.02295
1079.80 28.30278
1079.90 28.48493
1080.00 28.64266
1080.10 28.79085
1080.20 28.90093
1080.30 29.011
1080.40 29.08491
1080.50 29.12263
1080.60 29.16036
1080.70 29.29464
1080.80 29.45306
1080.90 29.59679
1081.00 29.60835
1081.10 29.61991
1081.20 29.62564
1081.30 29.62261
1081.40 29.61959
1081.50 29.71296
1081.60 29.84763
1081.70 29.98231
1081.80 29.98511
1081.90 29.98791
1082.00 29.9171
1082.10 29.67454
1082.20 29.43197
1082.30 29.20141
1082.40 28.97884
1082.50 28.75627
1082.60 28.77041
1082.70 28.78456
1082.80 28.83937
1082.90 28.98909
1083.00 29.13882
1083.10 29.29256
1083.20 29.44899
1083.30 29.60542
1083.40 29.4352
1083.50 29.22869
1083.60 29.03263
1083.70 28.87841
1083.80 28.72419
1083.90 28.76354
1084.00 28.99646
1084.10 29.22939
1084.20 29.30917
1084.30 29.35067
1084.40 29.36761
1084.50 29.16343
1084.60 28.95926
1084.70 28.80565
1084.80 28.72791
1084.90 28.65017
1085.00 28.85568
1085.10 29.13201
1085.20 29.3669
1085.30 29.22889
1085.40 29.09088
1085.50 29.06934
1085.60 29.22251
1085.70 29.37567
1085.80 29.59352
1085.90 29.83908
1086.00 30.08465
1086.10 30.22707
1086.20 30.36949
1086.30 30.45486
1086.40 30.40711
1086.50 30.35937
1086.60 30.21413
1086.70 30.00388
1086.80 29.79364
1086.90 29.85322
1087.00 29.94277
1087.10 30.02985
1087.20 30.10699
1087.30 30.18413
1087.40 30.02707
1087.50 29.71385
1087.60 29.40064
1087.70 29.433
1087.80 29.50376
1087.90 29.56675
1088.00 29.5987
1088.10 29.63065
1088.20 29.60463
1088.30 29.52063
1088.40 29.43663
1088.50 29.51736
1088.60 29.63926
1088.70 29.73979
1088.80 29.64808
1088.90 29.55636
1089.00 29.53509
1089.10 29.61948
1089.20 29.70387
1089.30 29.64188
1089.40 29.51716
1089.50 29.39243
1089.60 29.47629
1089.70 29.56015
1089.80 29.73365
1089.90 30.04161
1090.00 30.34957
1090.10 30.43648
1090.20 30.42864
1090.30 30.42081
1090.40 30.42825
1090.50 30.43568
1090.60 30.36605
1090.70 30.11657
1090.80 29.8671
1090.90 29.63692
1091.00 29.41959
1091.10 29.20227
1091.20 29.25532
1091.30 29.33841
1091.40 29.48222
1091.50 29.8689
1091.60 30.25559
1091.70 30.49809
1091.80 30.5964
1091.90 30.69472
1092.00 30.64764
1092.10 30.56422
1092.20 30.49671
1092.30 30.49285
1092.40 30.48899
1092.50 30.46643
1092.60 30.42517
1092.70 30.38391
1092.80 30.37338
1092.90 30.37053
1093.00 30.3602
1093.10 30.28247
1093.20 30.20474
1093.30 30.14035
1093.40 30.09595
1093.50 30.05156
1093.60 29.96263
1093.70 29.85461
1093.80 29.74658
1093.90 29.9719
1094.00 30.19721
1094.10 30.4008
1094.20 30.55372
1094.30 30.70663
1094.40 30.41404
1094.50 29.93052
1094.60 29.447
1094.70 29.48859
1094.80 29.53018
1094.90 29.66363
1095.00 30.01144
1095.10 30.35925
1095.20 30.72015
1095.30 31.08978
1095.40 31.45941
1095.50 31.36845
1095.60 31.22632
1095.70 31.08819
1095.80 30.96607
1095.90 30.84395
1096.00 30.82898
1096.10 30.92116
1096.20 31.01334
1096.30 31.0421
1096.40 31.05501
1096.50 31.04899
1096.60 30.87266
1096.70 30.69633
1096.80 30.36764
1096.90 29.88659
1097.00 29.40554
1097.10 29.18812
1097.20 29.03661
1097.30 28.92832
1097.40 29.20894
1097.50 29.48957
1097.60 29.72986
1097.70 29.90965
1097.80 30.08945
1097.90 30.2136
1098.00 30.3139
1098.10 30.4142
1098.20 30.3069
1098.30 30.19961
1098.40 30.07002
1098.50 29.88842
1098.60 29.70681
1098.70 29.5998
1098.80 29.54252
1098.90 29.48524
1099.00 29.59764
1099.10 29.71003
1099.20 29.87649
1099.30 30.16912
1099.40 30.46174
1099.50 30.54541
1099.60 30.48976
1099.70 30.43412
1099.80 30.35082
1099.90 30.26444
1100.00 30.17474
1100.10 30.07174
1100.20 29.96875
1100.30 29.81539
1100.40 29.61165
1100.50 29.40792
1100.60 29.43202
1100.70 29.51308
1100.80 29.60675
1100.90 29.81383
1101.00 30.0209
1101.10 30.10417
1101.20 30.06362
1101.30 30.02306
1101.40 30.21907
1101.50 30.47421
1101.60 30.68104
1101.70 30.45306
1101.80 30.22507
1101.90 29.87383
1102.00 29.33769
1102.10 28.80154
1102.20 28.3876
1102.30 28.02602
1102.40 27.66445
1102.50 28.09793
1102.60 28.53141
1102.70 28.98608
1102.80 29.49021
1102.90 29.99434
1103.00 30.1088
1103.10 29.9635
1103.20 29.81819
1103.30 29.17444
1103.40 28.5307
1103.50 28.01461
1103.60 27.79638
1103.70 27.57815
1103.80 27.73383
1103.90 28.13878
1104.00 28.54373
1104.10 28.63824
1104.20 28.69825
1104.30 28.74197
1104.40 28.72053
1104.50 28.69908
1104.60 28.77081
1104.70 28.93571
1104.80 29.10061
1104.90 29.07747
1105.00 29.0073
1105.10 28.89698
1105.20 28.42515
1105.30 27.95332
1105.40 27.64272
1105.50 27.49335
1105.60 27.34398
1105.70 27.45441
1105.80 27.6298
1105.90 27.80152
1106.00 27.94027
1106.10 28.07903
1106.20 28.15501
1106.30 28.13683
1106.40 28.11865
1106.50 28.17502
1106.60 28.26334
1106.70 28.35166
1106.80 28.05312
1106.90 27.75458
1107.00 27.54067
1107.10 27.52423
1107.20 27.5078
1107.30 27.66987
1107.40 27.95096
1107.50 28.23204
1107.60 28.15756
1107.70 28.08307
1107.80 28.07675
1107.90 28.2295
1108.00 28.38224
1108.10 28.57816
1108.20 28.80285
1108.30 29.02755
1108.40 29.13582
1108.50 29.23115
1108.60 29.3088
1108.70 29.31571
1108.80 29.32262
1108.90 29.30897
1109.00 29.27477
1109.10 29.24057
1109.20 29.27825
1109.30 29.33389
1109.40 29.39722
1109.50 29.52965
1109.60 29.66208
1109.70 29.74451
1109.80 29.77695
1109.90 29.80938
1110.00 29.63987
1110.10 29.41987
1110.20 29.18514
1110.30 28.81771
1110.40 28.45029
1110.50 28.20546
1110.60 28.14452
1110.70 28.08358
1110.80 28.17225
1110.90 28.32504
1111.00 28.47783
1111.10 28.3179
1111.20 28.15796
1111.30 28.01914
1111.40 27.92961
1111.50 27.84007
1111.60 27.82179
1111.70 27.851
1111.80 27.88021
1111.90 27.85628
1112.00 27.83234
1112.10 27.82142
1112.20 27.84088
1112.30 27.86034
1112.40 28.00806
1112.50 28.24129
1112.60 28.47453
1112.70 28.72539
1112.80 28.97822
1112.90 29.20652
1113.00 29.33674
1113.10 29.46696
1113.20 29.53384
1113.30 29.5374
1113.40 29.54095
1113.50 29.39793
1113.60 29.21827
1113.70 29.03597
1113.80 28.82997
1113.90 28.62396
1114.00 28.57603
1114.10 28.68617
1114.20 28.79632
1114.30 29.09684
1114.40 29.44495
1114.50 29.76462
1114.60 29.82818
1114.70 29.89175
1114.80 29.8897
1114.90 29.78925
1115.00 29.68879
1115.10 29.70207
1115.20 29.76409
1115.30 29.82611
1115.40 29.76338
1115.50 29.70066
1115.60 29.57462
1115.70 29.30084
1115.80 29.02707
1115.90 28.95706
1116.00 28.97438
1116.10 28.9917
1116.20 29.09579
1116.30 29.19989
1116.40 29.23618
1116.50 29.11425
1116.60 28.99233
1116.70 28.90391
1116.80 28.83783
1116.90 28.77175
1117.00 28.55454
1117.10 28.3336
1117.20 28.16498
1117.30 27.99636
1117.40 27.82774
1117.50 27.83079
1117.60 27.85293
1117.70 27.87506
1117.80 27.98216
1117.90 28.12567
1118.00 28.26919
1118.10 28.47054
1118.20 28.75866
1118.30 29.04678
1118.40 29.30385
1118.50 29.43672
1118.60 29.56958
1118.70 29.70244
1118.80 29.56006
1118.90 29.3871
1119.00 29.21414
1119.10 29.05583
1119.20 28.90379
1119.30 28.75176
1119.40 28.66714
1119.50 28.68366
1119.60 28.70017
1119.70 28.73371
1119.80 28.83538
1119.90 28.93705
1120.00 29.03872
1120.10 29.08854
1120.20 29.13261
1120.30 29.17667
1120.40 29.25923
1120.50 29.36744
1120.60 29.47566
1120.70 29.50488
1120.80 29.41561
1120.90 29.32635
1121.00 29.23872
1121.10 29.16584
1121.20 29.09295
1121.30 29.02007
1121.40 29.0071
1121.50 29.00078
1121.60 28.99446
1121.70 28.91728
1121.80 28.79285
1121.90 28.66842
1122.00 28.62388
1122.10 28.69917
1122.20 28.77447
1122.30 28.84902
1122.40 28.91687
1122.50 28.98473
1122.60 29.05258
1122.70 29.25569
1122.80 29.47383
1122.90 29.69197
1123.00 29.70013
1123.10 29.5683
1123.20 29.43646
1123.30 29.23162
1123.40 28.85641
1123.50 28.4812
1123.60 28.17063
1123.70 28.44171
1123.80 28.7128
1123.90 28.98388
1124.00 29.1547
1124.10 29.30044
1124.20 29.44619
1124.30 29.5477
1124.40 29.61973
1124.50 29.69176
1124.60 29.71481
1124.70 29.62359
1124.80 29.53237
1124.90 29.42147
1125.00 29.13344
1125.10 28.8454
1125.20 28.55736
1125.30 28.5008
1125.40 28.5021
1125.50 28.5034
1125.60 28.62562
1125.70 28.82846
1125.80 29.03129
1125.90 29.17596
1126.00 29.18493
1126.10 29.1939
1126.20 29.20288
1126.30 29.24876
1126.40 29.29465
1126.50 29.34054
1126.60 29.43672
1126.70 29.54546
1126.80 29.6542
1126.90 29.7299
1127.00 29.77255
1127.10 29.8152
1127.20 29.81069
1127.30 29.69615
1127.40 29.58161
1127.50 29.46707
1127.60 29.36714
1127.70 29.26721
1127.80 29.16728
1127.90 29.21458
1128.00 29.29868
1128.10 29.38279
1128.20 29.44507
1128.30 29.48552
1128.40 29.52597
1128.50 29.57581
1128.60 29.64755
1128.70 29.71929
1128.80 29.79102
1128.90 29.7569
1129.00 29.72278
1129.10 29.68865
1129.20 29.61125
1129.30 29.52303
1129.40 29.43481
1129.50 29.46479
1129.60 29.61295
1129.70 29.76112
1129.80 29.90247
1129.90 30.02791
1130.00 30.15335
1130.10 30.27879
1130.20 29.95077
1130.30 29.62275
1130.40 29.29473
1130.50 29.0411
1130.60 28.81934
1130.70 28.59759
1130.80 28.54515
1130.90 28.66204
1131.00 28.77893
1131.10 28.90506
1131.20 29.06822
1131.30 29.23137
1131.40 29.39452
1131.50 29.48131
1131.60 29.5681
1131.70 29.6549
1131.80 29.67836
1131.90 29.67467
1132.00 29.67098
1132.10 29.63401
1132.20 29.56375
1132.30 29.4935
1132.40 29.43375
1132.50 29.41604
1132.60 29.39834
1132.70 29.38064
1132.80 29.37383
1132.90 29.36703
1133.00 29.36022
1133.10 29.27103
1133.20 29.14652
1133.30 29.02202
1133.40 28.92145
1133.50 28.84482
1133.60 28.76819
1133.70 28.6905
1133.80 28.60857
1133.90 28.52664
1134.00 28.44471
1134.10 28.34698
1134.20 28.24925
1134.30 28.15151
1134.40 28.08981
1134.50 28.04355
1134.60 27.99729
1134.70 28.13762
1134.80 28.46454
1134.90 28.79146
1135.00 29.03764
1135.10 28.96085
1135.20 28.88405
1135.30 28.80726
1135.40 28.60779
1135.50 28.40832
1135.60 28.20884
1135.70 28.07704
1135.80 27.97424
1135.90 27.87145
1136.00 27.90603
1136.10 28.07799
1136.20 28.24995
1136.30 28.3563
1136.40 28.20021
1136.50 28.04411
1136.60 27.88802
1136.70 27.68645
1136.80 27.48488
1136.90 27.28331
1137.00 27.12507
1137.10 26.98539
1137.20 26.84572
1137.30 26.61369
1137.40 26.28932
1137.50 25.96494
1137.60 25.55103
1137.70 24.77899
1137.80 24.00695
1137.90 23.2349
1138.00 21.9177
1138.10 20.53993
1138.20 19.16216
1138.30 18.66546
1138.40 18.54637
1138.50 18.42728
1138.60 18.95165
1138.70 20.44119
1138.80 21.93074
1138.90 23.25373
1139.00 23.91051
1139.10 24.56729
1139.20 25.22408
1139.30 25.26998
1139.40 25.24802
1139.50 25.22605
1139.60 24.99527
1139.70 24.67499
1139.80 24.35471
1139.90 23.81044
1140.00 22.93016
1140.10 22.04988
1140.20 21.04446
1140.30 19.53846
1140.40 18.03246
1140.50 16.52646
1140.60 16.31792
1140.70 16.25355
1140.80 16.18917
1140.90 17.35423
1141.00 19.04618
1141.10 20.73813
1141.20 22.15962
1141.30 23.17543
1141.40 24.19123
1141.50 25.1116
1141.60 25.65025
1141.70 26.1889
1141.80 26.72756
1141.90 26.96354
1142.00 27.1659
1142.10 27.36825
1142.20 27.46107
1142.30 27.50694
1142.40 27.55281
1142.50 27.64585
1142.60 27.80963
1142.70 27.97341
1142.80 28.12829
1142.90 28.24754
1143.00 28.36679
1143.10 28.48604
1143.20 28.51844
1143.30 28.54119
1143.40 28.56394
1143.50 28.58258
1143.60 28.59946
1143.70 28.61634
1143.80 28.52396
1143.90 28.26769
1144.00 28.01142
1144.10 27.8149
1144.20 27.85735
1144.30 27.89981
1144.40 27.94227
1144.50 27.99333
1144.60 28.04534
1144.70 28.09736
1144.80 28.18394
1144.90 28.28534
1145.00 28.38673
1145.10 28.46671
1145.20 28.51455
1145.30 28.5624
1145.40 28.60459
1145.50 28.62419
1145.60 28.6438
1145.70 28.6634
1145.80 28.70092
1145.90 28.74042
1146.00 28.77992
1146.10 28.8857
1146.20 29.01988
1146.30 29.15406
1146.40 29.29174
1146.50 29.43468
1146.60 29.57761
1146.70 29.67495
1146.80 29.58991
1146.90 29.50486
1147.00 29.41982
1147.10 29.23735
1147.20 29.04406
1147.30 28.85077
1147.40 28.855
1147.50 28.94387
1147.60 29.03273
1147.70 29.12931
1147.80 29.23745
1147.90 29.34559
1148.00 29.43859
1148.10 29.47103
1148.20 29.50347
1148.30 29.53591
1148.40 29.34683
1148.50 29.13314
1148.60 28.91945
1148.70 28.98332
1148.80 29.16614
1148.90 29.34897
1149.00 29.48446
1149.10 29.57261
1149.20 29.66076
1149.30 29.71264
1149.40 29.61944
1149.50 29.52625
1149.60 29.43306
1149.70 29.50749
1149.80 29.58192
1149.90 29.65634
1150.00 29.63297
1150.10 29.56769
1150.20 29.5024
1150.30 29.4589
1150.40 29.43718
1150.50 29.41546
1150.60 29.41604
1150.70 29.50581
1150.80 29.59558
1150.90 29.68534
1151.00 29.6952
1151.10 29.70506
1151.20 29.71491
1151.30 29.68733
1151.40 29.64369
1151.50 29.60005
1151.60 29.57516
1151.70 29.569
1151.80 29.56285
1151.90 29.56138
1152.00 29.57867
1152.10 29.59597
1152.20 29.61326
1152.30 29.40893
1152.40 29.2046
1152.50 29.00027
1152.60 28.93898
1152.70 28.93898
1152.80 28.93898
1152.90 28.94194
1153.00 28.94788
1153.10 28.95382
1153.20 28.95689
1153.30 28.94848
1153.40 28.94006
1153.50 28.93165
1153.60 29.04779
1153.70 29.16394
1153.80 29.28009
1153.90 29.41661
1154.00 29.56187
1154.10 29.70713
1154.20 29.75774
1154.30 29.71369
1154.40 29.66965
1154.50 29.58962
1154.60 29.36567
1154.70 29.14172
1154.80 28.91777
1154.90 28.92683
1155.00 28.93589
1155.10 28.94495
1155.20 29.04552
1155.30 29.18531
1155.40 29.3251
1155.50 29.44756
1155.60 29.55268
1155.70 29.65781
1155.80 29.7263
1155.90 29.70931
1156.00 29.69232
1156.10 29.67534
1156.20 29.67199
1156.30 29.66863
1156.40 29.66528
1156.50 29.6822
1156.60 29.70419
1156.70 29.72618
1156.80 29.65276
1156.90 29.48393
1157.00 29.3151
1157.10 29.19681
1157.20 29.19643
1157.30 29.19605
1157.40 29.19567
1157.50 29.20438
1157.60 29.21309
1157.70 29.2218
1157.80 29.25409
1157.90 29.29227
1158.00 29.33045
1158.10 29.36477
1158.20 29.39522
1158.30 29.42568
1158.40 29.43959
1158.50 29.4149
1158.60 29.3902
1158.70 29.36551
1158.80 29.26608
1158.90 29.16665
1159.00 29.06722
1159.10 28.79845
1159.20 28.48734
1159.30 28.17624
1159.40 27.89645
1159.50 27.64798
1159.60 27.39951
1159.70 27.29137
1159.80 27.51064
1159.90 27.72992
1160.00 27.9492
1160.10 28.20346
1160.20 28.45771
1160.30 28.71197
1160.40 28.77576
1160.50 28.79194
1160.60 28.80812
1160.70 28.49286
1160.80 27.95665
1160.90 27.42043
1161.00 27.08093
1161.10 27.20043
1161.20 27.31993
1161.30 27.48425
1161.40 28.05206
1161.50 28.61986
1161.60 29.18767
1161.70 29.3555
1161.80 29.42333
1161.90 29.49117
1162.00 29.43222
1162.10 29.28874
1162.20 29.14527
1162.30 29.05174
1162.40 29.07475
1162.50 29.09776
1162.60 29.12822
1162.70 29.22583
1162.80 29.32344
1162.90 29.42104
1163.00 29.49695
1163.10 29.56743
1163.20 29.63791
1163.30 29.60754
1163.40 29.50993
1163.50 29.41233
1163.60 29.20885
1163.70 28.75836
1163.80 28.30787
1163.90 27.88646
1164.00 27.72667
1164.10 27.56689
1164.20 27.40711
1164.30 27.80811
1164.40 28.27141
1164.50 28.73471
1164.60 28.99138
1164.70 29.1103
1164.80 29.22922
1164.90 29.27066
1165.00 29.19589
1165.10 29.12112
1165.20 29.04022
1165.30 28.90416
1165.40 28.76809
1165.50 28.63203
1165.60 28.61418
1165.70 28.60947
1165.80 28.60476
1165.90 28.68448
1166.00 28.82049
1166.10 28.9565
1166.20 29.07644
1166.30 29.1723
1166.40 29.26816
1166.50 29.35685
1166.60 29.38115
1166.70 29.40544
1166.80 29.42974
1166.90 29.29785
1167.00 29.1486
1167.10 28.99936
1167.20 28.88856
1167.30 28.79424
1167.40 28.69992
1167.50 28.61699
1167.60 28.55117
1167.70 28.48534
1167.80 28.43392
1167.90 28.44013
1168.00 28.44634
1168.10 28.45255
1168.20 28.30543
1168.30 28.14127
1168.40 27.97712
1168.50 27.59015
1168.60 27.1077
1168.70 26.62524
1168.80 25.73884
1168.90 24.24652
1169.00 22.75421
1169.10 21.45308
1169.20 20.91674
1169.30 20.3804
1169.40 19.84406
1169.50 21.03912
1169.60 22.42655
1169.70 23.81399
1169.80 24.90879
1169.90 25.87819
1170.00 26.84758
1170.10 27.51395
1170.20 27.8773
1170.30 28.24065
1170.40 28.55625
1170.50 28.68085
1170.60 28.80544
1170.70 28.93004
1170.80 28.91901
1170.90 28.90798
1171.00 28.89695
1171.10 28.90259
1171.20 28.91538
1171.30 28.92817
1171.40 28.93006
1171.50 28.92105
1171.60 28.91205
1171.70 28.88092
1171.80 28.76133
1171.90 28.64174
1172.00 28.52215
1172.10 28.4831
1172.20 28.44404
1172.30 28.40499
1172.40 28.42209
1172.50 28.45323
1172.60 28.48436
1172.70 28.56773
1172.80 28.70333
1172.90 28.83893
1173.00 28.95134
1173.10 29.00965
1173.20 29.06796
1173.30 29.12627
1173.40 29.01628
1173.50 28.9063
1173.60 28.79632
1173.70 28.73377
1173.80 28.68308
1173.90 28.63239
1174.00 28.63693
1174.10 28.69671
1174.20 28.75648
1174.30 28.82886
1174.40 28.93063
1174.50 29.03241
1174.60 29.11797
1174.70 29.05762
1174.80 28.99727
1174.90 28.93693
1175.00 28.80175
1175.10 28.64787
1175.20 28.49399
1175.30 28.38648
1175.40 28.30989
1175.50 28.2333
1175.60 28.20028
1175.70 28.26893
1175.80 28.33759
1175.90 28.38859
1176.00 28.28075
1176.10 28.17291
1176.20 28.06507
1176.30 27.90514
1176.40 27.7322
1176.50 27.55926
1176.60 27.05698
1176.70 26.33514
1176.80 25.61331
1176.90 24.48197
1177.00 22.73639
1177.10 20.9908
1177.20 19.3152
1177.30 18.26942
1177.40 17.22365
1177.50 16.17787
1177.60 17.13562
1177.70 18.31598
1177.80 19.49634
1177.90 20.85438
1178.00 22.33088
1178.10 23.80737
1178.20 24.89582
1178.30 25.40222
1178.40 25.90861
1178.50 26.3749
1178.60 26.68075
1178.70 26.9866
1178.80 27.29246
1178.90 27.54665
1179.00 27.7951
1179.10 28.04355
1179.20 28.12345
1179.30 28.13112
1179.40 28.1388
1179.50 28.12327
1179.60 28.07295
1179.70 28.02263
1179.80 27.98931
1179.90 28.02397
1180.00 28.05863
1180.10 28.09329
1180.20 28.21137
1180.30 28.33873
1180.40 28.46608
1180.50 28.49701
1180.60 28.48662
1180.70 28.47624
1180.80 28.44311
1180.90 28.38724
1181.00 28.33137
1181.10 28.27739
1181.20 28.23102
1181.30 28.18465
1181.40 28.13828
1181.50 28.08407
1181.60 28.02986
1181.70 27.97565
1181.80 27.99952
1181.90 28.05686
1182.00 28.1142
1182.10 28.18512
1182.20 28.26964
1182.30 28.35416
1182.40 28.35102
1182.50 28.14337
1182.60 27.93572
1182.70 27.72807
1182.80 27.41007
1182.90 27.09207
1183.00 26.77407
1183.10 26.82976
1183.20 26.97887
1183.30 27.12798
1183.40 27.26127
1183.50 27.37876
1183.60 27.49625
1183.70 27.57361
1183.80 27.55734
1183.90 27.54108
1184.00 27.52481
1184.10 27.80057
1184.20 28.07633
1184.30 28.35209
1184.40 28.43707
1184.50 28.47436
1184.60 28.51165
1184.70 28.38343
1184.80 28.14487
1184.90 27.90632
1185.00 27.72686
1185.10 27.68529
1185.20 27.64372
1185.30 27.62319
1185.40 27.79205
1185.50 27.96091
1185.60 28.12976
1185.70 28.17706
1185.80 28.19396
1185.90 28.21086
1186.00 28.24638
1186.10 28.29429
1186.20 28.34221
1186.30 28.36336
1186.40 28.34435
1186.50 28.32534
1186.60 28.29543
1186.70 28.16739
1186.80 28.03935
1186.90 27.91131
1187.00 27.88628
1187.10 27.87271
1187.20 27.85913
1187.30 27.91795
1187.40 28.02503
1187.50 28.13211
1187.60 28.17794
1187.70 28.13191
1187.80 28.08587
1187.90 27.96234
1188.00 27.52884
1188.10 27.09534
1188.20 26.66184
1188.30 25.86319
1188.40 25.02396
1188.50 24.18473
1188.60 24.14933
1188.70 24.45843
1188.80 24.76754
1188.90 25.26835
1189.00 26.05672
1189.10 26.84509
1189.20 27.49125
1189.30 27.56856
1189.40 27.64587
1189.50 27.72318
1189.60 27.81556
1189.70 27.90793
1189.80 28.0003
1189.90 28.08567
1190.00 28.16805
1190.10 28.25043
1190.20 28.25064
1190.30 28.16868
1190.40 28.08672
1190.50 27.99696
1190.60 27.87595
1190.70 27.75495
1190.80 27.63395
1190.90 27.76614
1191.00 27.89833
1191.10 28.03052
1191.20 28.0977
1191.30 28.14863
1191.40 28.19955
1191.50 28.22204
1191.60 28.21611
1191.70 28.21017
1191.80 28.21325
1191.90 28.23737
1192.00 28.2615
1192.10 28.27682
1192.20 28.2129
1192.30 28.14898
1192.40 28.08506
1192.50 28.01832
1192.60 27.95087
1192.70 27.88342
1192.80 27.90031
1192.90 27.97342
1193.00 28.04653
1193.10 28.10409
1193.20 28.12535
1193.30 28.14661
1193.40 28.14927
1193.50 27.98461
1193.60 27.81996
1193.70 27.6553
1193.80 27.44694
1193.90 27.23373
1194.00 27.02052
1194.10 26.94111
1194.20 26.9509
1194.30 26.96069
1194.40 26.94168
1194.50 26.87945
1194.60 26.81723
1194.70 26.73249
1194.80 26.44517
1194.90 26.15785
1195.00 25.87053
1195.10 25.89609
1195.20 25.9564
1195.30 26.01672
1195.40 26.2675
1195.50 26.59991
1195.60 26.93232
1195.70 27.09889
1195.80 27.01672
1195.90 26.93455
1196.00 26.83997
1196.10 26.69575
1196.20 26.55153
1196.30 26.40731
1196.40 26.38388
1196.50 26.36045
1196.60 26.33702
1196.70 26.34947
1196.80 26.3773
1196.90 26.40513
1197.00 26.14164
1197.10 25.58684
1197.20 25.03203
1197.30 24.45969
1197.40 23.81723
1197.50 23.17478
1197.60 22.53232
1197.70 22.90164
1197.80 23.27096
1197.90 23.64029
1198.00 24.03751
1198.10 24.44171
1198.20 24.84591
1198.30 25.19524
1198.40 25.48969
1198.50 25.78414
1198.60 26.01782
1198.70 26.1097
1198.80 26.20159
1198.90 26.29347
1199.00 25.99314
1199.10 25.69281
1199.20 25.39247
1199.30 25.27239
1199.40 25.19737
1199.50 25.12234
1199.60 25.15348
1199.70 25.25538
1199.80 25.35728
1199.90 25.42876
1200.00 25.42922
