# Version 2.1 - nm, norm@500 to 1, cut digits
# Wavelength(nm)  Flambda(ergs/cm^s/s/nm)
300.00 0.007886784
300.10 0.01047171
300.20 0.01205134
300.30 0.0127115
300.40 0.01289125
300.50 0.01294807
300.60 0.01300213
300.70 0.01305476
300.80 0.01310876
300.90 0.01316866
301.00 0.01323923
301.10 0.01332256
301.20 0.01341674
301.30 0.01351745
301.40 0.01362077
301.50 0.01372464
301.60 0.01382854
301.70 0.01393245
301.80 0.01403638
301.90 0.01414031
302.00 0.01424423
302.10 0.01434816
302.20 0.01445209
302.30 0.01455602
302.40 0.01465996
302.50 0.01476392
302.60 0.01486789
302.70 0.01497228
302.80 0.01507865
302.90 0.01518999
303.00 0.01530956
303.10 0.01543881
303.20 0.0155763
303.30 0.01571876
303.40 0.01586319
303.50 0.01600804
303.60 0.01615291
303.70 0.0162978
303.80 0.01644269
303.90 0.01658758
304.00 0.01673248
304.10 0.01687738
304.20 0.01702227
304.30 0.01716716
304.40 0.01731202
304.50 0.01745685
304.60 0.0176016
304.70 0.01774508
304.80 0.0178825
304.90 0.01800475
305.00 0.01810182
305.10 0.01816925
305.20 0.01821149
305.30 0.01823856
305.40 0.01825958
305.50 0.01827931
305.60 0.01829898
305.70 0.0183186
305.80 0.01833821
305.90 0.01835781
306.00 0.01837741
306.10 0.018397
306.20 0.0184166
306.30 0.0184362
306.40 0.01845579
306.50 0.01847539
306.60 0.01849499
306.70 0.01851459
306.80 0.0185342
306.90 0.01855385
307.00 0.01857355
307.10 0.01859331
307.20 0.01861313
307.30 0.01863299
307.40 0.01865285
307.50 0.01867272
307.60 0.01869259
307.70 0.01871246
307.80 0.01873233
307.90 0.0187522
308.00 0.01877207
308.10 0.01879193
308.20 0.01881181
308.30 0.0188317
308.40 0.01885165
308.50 0.01887169
308.60 0.0188919
308.70 0.01891534
308.80 0.0189539
308.90 0.01903044
309.00 0.01917003
309.10 0.01938377
309.20 0.01966056
309.30 0.01997532
309.40 0.02030522
309.50 0.02063834
309.60 0.02097162
309.70 0.02130501
309.80 0.02163844
309.90 0.0219719
310.00 0.02230536
310.10 0.02263882
310.20 0.02297228
310.30 0.02330571
310.40 0.0236391
310.50 0.02397238
310.60 0.02430549
310.70 0.02463537
310.80 0.02495004
310.90 0.02522653
311.00 0.02543964
311.10 0.0255782
311.20 0.02565339
311.30 0.02569041
311.40 0.0257122
311.50 0.02573077
311.60 0.02574916
311.70 0.02576745
311.80 0.02578569
311.90 0.02580392
312.00 0.02582213
312.10 0.02584035
312.20 0.02585857
312.30 0.02587682
312.40 0.02589513
312.50 0.02591357
312.60 0.02593221
312.70 0.02595485
312.80 0.02599628
312.90 0.02608486
313.00 0.02625171
313.10 0.02651064
313.20 0.02684783
313.30 0.02723218
313.40 0.02763532
313.50 0.02804245
313.60 0.02844979
313.70 0.02885726
313.80 0.02926479
313.90 0.02967234
314.00 0.0300799
314.10 0.03048746
314.20 0.03089503
314.30 0.03130261
314.40 0.03171023
314.50 0.03211794
314.60 0.0325258
314.70 0.03293644
314.80 0.03336016
314.90 0.0338167
315.00 0.03432772
315.10 0.03490284
315.20 0.03553244
315.30 0.03619486
315.40 0.03687036
315.50 0.03754864
315.60 0.03822707
315.70 0.03890559
315.80 0.03958415
315.90 0.04026272
316.00 0.0409413
316.10 0.04161988
316.20 0.04229845
316.30 0.04297695
316.40 0.04365529
316.50 0.04433331
316.60 0.0450108
316.70 0.04567806
316.80 0.04629725
316.90 0.04679578
317.00 0.04709406
317.10 0.04715672
317.20 0.04701912
317.30 0.04676087
317.40 0.04645455
317.50 0.046138
317.60 0.04582092
317.70 0.04550351
317.80 0.04518595
317.90 0.04486832
318.00 0.04455068
318.10 0.04423304
318.20 0.04391541
318.30 0.04359782
318.40 0.04328036
318.50 0.04296315
318.60 0.04264635
318.70 0.04233737
318.80 0.04206519
318.90 0.04188537
319.00 0.04185885
319.10 0.04201268
319.20 0.04231982
319.30 0.04271931
319.40 0.0431556
319.50 0.04359971
319.60 0.04404424
319.70 0.04448901
319.80 0.04493391
319.90 0.04537885
320.00 0.04582381
320.10 0.04626876
320.20 0.04671372
320.30 0.04715865
320.40 0.04760354
320.50 0.04804833
320.60 0.04849298
320.70 0.04893473
320.80 0.04936287
320.90 0.04975685
321.00 0.05009414
321.10 0.05036471
321.20 0.0505786
321.30 0.05075832
321.40 0.05092443
321.50 0.05108765
321.60 0.05125072
321.70 0.05141369
321.80 0.05157662
321.90 0.05173953
322.00 0.05190244
322.10 0.05206535
322.20 0.05222827
322.30 0.05239126
322.40 0.05255442
322.50 0.0527179
322.60 0.05288195
322.70 0.05305656
322.80 0.05328089
322.90 0.05362998
323.00 0.05418618
323.10 0.05498602
323.20 0.05599296
323.30 0.05712467
323.40 0.0583061
323.50 0.05949809
323.60 0.06069064
323.70 0.06188352
323.80 0.06307657
323.90 0.06426969
324.00 0.06546282
324.10 0.06665594
324.20 0.06784907
324.30 0.06904219
324.40 0.07023528
324.50 0.07142831
324.60 0.07262126
324.70 0.07381248
324.80 0.07499564
324.90 0.07615852
325.00 0.07728776
325.10 0.07837743
325.20 0.07943345
325.30 0.08046921
325.40 0.08149689
325.50 0.08252285
325.60 0.08354873
325.70 0.08457455
325.80 0.08560034
325.90 0.08662612
326.00 0.0876519
326.10 0.08867768
326.20 0.08970346
326.30 0.09072927
326.40 0.09175514
326.50 0.09278112
326.60 0.0938073
326.70 0.09483717
326.80 0.09588446
326.90 0.09697542
327.00 0.09813889
327.10 0.09938767
327.20 0.100709
327.30 0.1020739
327.40 0.1034563
327.50 0.1048424
327.60 0.1062286
327.70 0.107615
327.80 0.1090015
327.90 0.1103879
328.00 0.1117744
328.10 0.1131609
328.20 0.1145473
328.30 0.1159336
328.40 0.1173196
328.50 0.1187049
328.60 0.120089
328.70 0.1214515
328.80 0.1227117
328.90 0.1237157
329.00 0.1242943
329.10 0.1243724
329.20 0.124025
329.30 0.1234213
329.40 0.1227155
329.50 0.121988
329.60 0.1212594
329.70 0.12053
329.80 0.1198003
329.90 0.1190705
330.00 0.1183407
330.10 0.1176109
330.20 0.116881
330.30 0.1161513
330.40 0.1154218
330.50 0.1146929
330.60 0.1139648
330.70 0.1132528
330.80 0.1126165
330.90 0.1121704
331.00 0.1120399
331.10 0.1122806
331.20 0.1128369
331.30 0.1135834
331.40 0.1144056
331.50 0.1152439
331.60 0.1160831
331.70 0.1169228
331.80 0.1177627
331.90 0.1186028
332.00 0.1194428
332.10 0.1202829
332.20 0.1211229
332.30 0.1219629
332.40 0.1228027
332.50 0.1236422
332.60 0.1244812
332.70 0.1253099
332.80 0.1260907
332.90 0.1267511
333.00 0.1272117
333.10 0.1274373
333.20 0.127463
333.30 0.1273683
333.40 0.1272257
333.50 0.1270729
333.60 0.1269195
333.70 0.1267659
333.80 0.126612
333.90 0.1264581
334.00 0.1263042
334.10 0.1261505
334.20 0.1259973
334.30 0.1258448
334.40 0.125693
334.50 0.1255417
334.60 0.1255174
334.70 0.1259065
334.80 0.1268204
334.90 0.1277534
335.00 0.1277406
335.10 0.1265205
335.20 0.1256167
335.30 0.1278738
335.40 0.1352652
335.50 0.1466597
335.60 0.1577033
335.70 0.1633489
335.80 0.1611095
335.90 0.1522887
336.00 0.1405916
336.10 0.1298348
336.20 0.1226832
336.30 0.1202578
336.40 0.1216617
336.50 0.124092
336.60 0.1245207
336.70 0.1222084
336.80 0.1196442
336.90 0.1205919
337.00 0.1268635
337.10 0.1365483
337.20 0.1451046
337.30 0.1484793
337.40 0.1459517
337.50 0.1405832
337.60 0.1368752
337.70 0.1374311
337.80 0.1414267
337.90 0.1461211
338.00 0.1494174
338.10 0.1507372
338.20 0.1497762
338.30 0.1455406
338.40 0.1376961
338.50 0.1285581
338.60 0.1227329
338.70 0.1238101
338.80 0.1310156
338.90 0.1394589
339.00 0.1440635
339.10 0.1437226
339.20 0.14198
339.30 0.1435422
339.40 0.1499414
339.50 0.1585407
339.60 0.1653821
339.70 0.1685092
339.80 0.1684667
339.90 0.1663428
340.00 0.1625716
340.10 0.1576026
340.20 0.1524753
340.30 0.1479804
340.40 0.1435923
340.50 0.1380242
340.60 0.1309695
340.70 0.1238217
340.80 0.1185733
340.90 0.1163582
341.00 0.1171016
341.10 0.1201114
341.20 0.1245886
341.30 0.129594
341.40 0.1340217
341.50 0.1370252
341.60 0.1385182
341.70 0.139211
341.80 0.1400689
341.90 0.1415979
342.00 0.1433946
342.10 0.1442262
342.20 0.1427808
342.30 0.1387718
342.40 0.1335324
342.50 0.1293414
342.60 0.1278937
342.70 0.1292443
342.80 0.132029
342.90 0.1345411
343.00 0.1357818
343.10 0.1359079
343.20 0.1358611
343.30 0.136451
343.40 0.137648
343.50 0.1387508
343.60 0.139128
343.70 0.1386067
343.80 0.1373218
343.90 0.1355907
344.00 0.1339928
344.10 0.1331978
344.20 0.1333812
344.30 0.1339294
344.40 0.1339791
344.50 0.1332445
344.60 0.1322506
344.70 0.1318735
344.80 0.1327827
344.90 0.1352145
345.00 0.1390421
345.10 0.1438711
345.20 0.1490598
345.30 0.153721
345.40 0.1568642
345.50 0.1578719
345.60 0.1570138
345.70 0.1554015
345.80 0.1542286
345.90 0.153936
346.00 0.1540154
346.10 0.1534548
346.20 0.1514462
346.30 0.148022
346.40 0.14426
346.50 0.1416566
346.60 0.1409377
346.70 0.1414283
346.80 0.1416802
346.90 0.1406514
347.00 0.1382436
347.10 0.1351025
347.20 0.132299
347.30 0.131027
347.40 0.1320456
347.50 0.1350817
347.60 0.1389568
347.70 0.1424924
347.80 0.1452974
347.90 0.1477566
348.00 0.1504195
348.10 0.1533828
348.20 0.1560915
348.30 0.1577051
348.40 0.1577775
348.50 0.1566481
348.60 0.1550918
348.70 0.1536131
348.80 0.1522098
348.90 0.1507216
349.00 0.1491583
349.10 0.147659
349.20 0.1463477
349.30 0.1454021
349.40 0.1451399
349.50 0.145764
349.60 0.146966
349.70 0.1479733
349.80 0.1482329
349.90 0.1481899
350.00 0.1492333
350.10 0.1526017
350.20 0.1581942
350.30 0.1644461
350.40 0.1693948
350.50 0.1719182
350.60 0.1721038
350.70 0.1707257
350.80 0.1685845
350.90 0.1661293
351.00 0.1632829
351.10 0.1594789
351.20 0.1541062
351.30 0.1473
351.40 0.1403729
351.50 0.1351854
351.60 0.1328295
351.70 0.13286
351.80 0.1338125
351.90 0.134424
352.00 0.1343387
352.10 0.1338121
352.20 0.1331423
352.30 0.1325886
352.40 0.1327063
352.50 0.1345113
352.60 0.1389218
352.70 0.1458082
352.80 0.1536303
352.90 0.1602958
353.00 0.1646993
353.10 0.1674273
353.20 0.1698558
353.30 0.1727484
353.40 0.1759201
353.50 0.1789977
353.60 0.1820579
353.70 0.1853883
353.80 0.1889829
353.90 0.1925235
354.00 0.1955943
354.10 0.1976564
354.20 0.1980609
354.30 0.1965497
354.40 0.1938154
354.50 0.1912666
354.60 0.1899763
354.70 0.1898919
354.80 0.1901316
354.90 0.1899108
355.00 0.1890826
355.10 0.187962
355.20 0.1868844
355.30 0.1860045
355.40 0.1853967
355.50 0.1850929
355.60 0.1849083
355.70 0.1843275
355.80 0.1827439
355.90 0.1799636
356.00 0.1764358
356.10 0.1728872
356.20 0.1696999
356.30 0.166607
356.40 0.1629869
356.50 0.1585408
356.60 0.1537864
356.70 0.1498729
356.80 0.1477808
356.90 0.1475975
357.00 0.1485254
357.10 0.1494972
357.20 0.149734
357.30 0.1489025
357.40 0.1470189
357.50 0.1443447
357.60 0.1413105
357.70 0.138365
357.80 0.1357935
357.90 0.1336537
358.00 0.1319318
358.10 0.1308162
358.20 0.1307696
358.30 0.1322257
358.40 0.1351535
358.50 0.1388997
358.60 0.1424422
358.70 0.1448263
358.80 0.1455627
358.90 0.144863
359.00 0.1436549
359.10 0.1432338
359.20 0.1445498
359.30 0.1475453
359.40 0.1510788
359.50 0.1536392
359.60 0.1543699
359.70 0.1535997
359.80 0.1524687
359.90 0.1519644
360.00 0.1521367
360.10 0.1520998
360.20 0.1507896
360.30 0.1478195
360.40 0.1438074
360.50 0.1400684
360.60 0.1380059
360.70 0.1385537
360.80 0.1417551
360.90 0.146665
361.00 0.151814
361.10 0.1560429
361.20 0.1590521
361.30 0.161174
361.40 0.1626976
361.50 0.1635601
361.60 0.1637468
361.70 0.1637249
361.80 0.1641901
361.90 0.1653612
362.00 0.1667194
362.10 0.1675524
362.20 0.1676098
362.30 0.1671738
362.40 0.1667182
362.50 0.1666384
362.60 0.167066
362.70 0.1676414
362.80 0.1675785
362.90 0.1662901
363.00 0.1640729
363.10 0.1620198
363.20 0.1611397
363.30 0.1616063
363.40 0.1628305
363.50 0.1640777
363.60 0.1649391
363.70 0.1653728
363.80 0.1654595
363.90 0.1651642
364.00 0.1642765
364.10 0.1625573
364.20 0.1599811
364.30 0.1568711
364.40 0.1538312
364.50 0.1515497
364.60 0.1505343
364.70 0.150829
364.80 0.1519535
364.90 0.1532663
365.00 0.1545505
365.10 0.1562316
365.20 0.1588508
365.30 0.1622562
365.40 0.1654059
365.50 0.1670886
365.60 0.1669213
365.70 0.1656392
365.80 0.1643877
365.90 0.1637932
366.00 0.1637291
366.10 0.1638362
366.20 0.1640901
366.30 0.1647514
366.40 0.1658866
366.50 0.1671053
366.60 0.167765
366.70 0.1673858
366.80 0.1659004
366.90 0.163618
367.00 0.1610628
367.10 0.1588304
367.20 0.1574615
367.30 0.157304
367.40 0.158362
367.50 0.1602657
367.60 0.1624522
367.70 0.1644574
367.80 0.1661087
367.90 0.1674942
368.00 0.1687725
368.10 0.1699805
368.20 0.1709655
368.30 0.1714599
368.40 0.1712544
368.50 0.170396
368.60 0.1692689
368.70 0.1684361
368.80 0.1682961
368.90 0.1688402
369.00 0.1697629
369.10 0.1708217
369.20 0.1720027
369.30 0.1732933
369.40 0.174392
369.50 0.1747837
369.60 0.1741855
369.70 0.1728948
369.80 0.1716855
369.90 0.1713697
370.00 0.1723768
370.10 0.1745848
370.20 0.1774584
370.30 0.1803365
370.40 0.1826601
370.50 0.1840663
370.60 0.184429
370.70 0.1839582
370.80 0.1832122
370.90 0.1828486
371.00 0.1831967
371.10 0.1839849
371.20 0.1844426
371.30 0.1836997
371.40 0.1812722
371.50 0.1773848
371.60 0.1729372
371.70 0.1690841
371.80 0.1667082
371.90 0.1661336
372.00 0.1671529
372.10 0.1690876
372.20 0.170742
372.30 0.1706119
372.40 0.1675811
372.50 0.1617963
372.60 0.1549312
372.70 0.1494377
372.80 0.1472979
372.90 0.1491567
373.00 0.1542722
373.10 0.1610542
373.20 0.1677226
373.30 0.1727889
373.40 0.1753541
373.50 0.1751743
373.60 0.1724973
373.70 0.1678259
373.80 0.1618109
373.90 0.1553096
374.00 0.1493955
374.10 0.1451722
374.20 0.1434931
374.30 0.1448112
374.40 0.1492128
374.50 0.15645
374.60 0.1658494
374.70 0.1761875
374.80 0.1857676
374.90 0.1928499
375.00 0.1962471
375.10 0.195705
375.20 0.1918621
375.30 0.1859167
375.40 0.1792596
375.50 0.1731819
375.60 0.168568
375.70 0.1656599
375.80 0.1640712
375.90 0.1631113
376.00 0.1622668
376.10 0.1615806
376.20 0.1617331
376.30 0.1637609
376.40 0.1685515
376.50 0.17646
376.60 0.1872998
376.70 0.2004591
376.80 0.2148184
376.90 0.2285196
377.00 0.2391194
377.10 0.2444243
377.20 0.243492
377.30 0.2369956
377.40 0.2267294
377.50 0.214761
377.60 0.2028416
377.70 0.1922344
377.80 0.1836681
377.90 0.1772988
378.00 0.172799
378.10 0.1696447
378.20 0.1674227
378.30 0.1659092
378.40 0.1649486
378.50 0.1644135
378.60 0.1643251
378.70 0.1649201
378.80 0.1665495
378.90 0.1696065
379.00 0.1746428
379.10 0.1824357
379.20 0.1936639
379.30 0.2083108
379.40 0.2252951
379.50 0.2426266
379.60 0.2578639
379.70 0.2686006
379.80 0.2730091
379.90 0.2704089
380.00 0.2616143
380.10 0.2486964
380.20 0.2341958
380.30 0.220253
380.40 0.2081591
380.50 0.1983859
380.60 0.1908372
380.70 0.1850647
380.80 0.1804292
380.90 0.1763791
381.00 0.1727223
381.10 0.1696192
381.20 0.1672561
381.30 0.1655374
381.40 0.1641766
381.50 0.1631003
381.60 0.1626478
381.70 0.1631586
381.80 0.1644058
381.90 0.1655716
382.00 0.16589
382.10 0.1684575
382.20 0.1806364
382.30 0.2031586
382.40 0.2363575
382.50 0.2798065
382.60 0.3308791
382.70 0.3805351
382.80 0.4124062
382.90 0.4169767
383.00 0.3945228
383.10 0.3674478
383.20 0.3694328
383.30 0.4030678
383.40 0.4554327
383.50 0.502865
383.60 0.5180681
383.70 0.4860364
383.80 0.4171535
383.90 0.3425626
384.00 0.2930615
384.10 0.278311
384.20 0.2828986
384.30 0.2845926
384.40 0.2751264
384.50 0.255417
384.60 0.2322091
384.70 0.1913735
384.80 0.1452547
384.90 0.1180681
385.00 0.1278534
385.10 0.1673087
385.20 0.21084
385.30 0.233513
385.40 0.225906
385.50 0.2016516
385.60 0.1872435
385.70 0.1971884
385.80 0.2208099
385.90 0.2388838
386.00 0.2452489
386.10 0.2469096
386.20 0.2485436
386.30 0.2481957
386.40 0.2460471
386.50 0.2477091
386.60 0.2595655
386.70 0.283172
386.80 0.3123526
386.90 0.331444
387.00 0.3225557
387.10 0.2831894
387.20 0.2360794
387.30 0.2144734
387.40 0.2312559
387.50 0.2647683
387.60 0.2791912
387.70 0.2596922
387.80 0.2204216
387.90 0.1805133
388.00 0.1472038
388.10 0.1283323
388.20 0.1428597
388.30 0.1982237
388.40 0.2688602
388.50 0.3212914
388.60 0.3590195
388.70 0.4146875
388.80 0.4956554
388.90 0.5603608
389.00 0.5616368
389.10 0.4999035
389.20 0.4180402
389.30 0.3556989
389.40 0.3213046
389.50 0.2989074
389.60 0.2690887
389.70 0.2457297
389.80 0.2318168
389.90 0.252854
390.00 0.3086205
390.10 0.3568811
390.20 0.3824881
390.30 0.38262
390.40 0.3726097
390.50 0.3806531
390.60 0.392079
390.70 0.3805439
390.80 0.3414778
390.90 0.2948092
391.00 0.2645162
391.10 0.2654676
391.20 0.298612
391.30 0.3282388
391.40 0.3509528
391.50 0.3550198
391.60 0.3381022
391.70 0.3079595
391.80 0.2728146
391.90 0.2402411
392.00 0.2209573
392.10 0.2193693
392.20 0.2304354
392.30 0.236398
392.40 0.2385195
392.50 0.2358785
392.60 0.2271874
392.70 0.231719
392.80 0.2600242
392.90 0.3137076
393.00 0.3848658
393.10 0.4916145
393.20 0.6598066
393.30 0.8503865
393.40 0.9711305
393.50 0.9434263
393.60 0.7755004
393.70 0.5590005
393.80 0.3901678
393.90 0.3024386
394.00 0.2694908
394.10 0.2553915
394.20 0.2447317
394.30 0.2299651
394.40 0.2283866
394.50 0.2419543
394.60 0.2665432
394.70 0.2917269
394.80 0.3178193
394.90 0.3306999
395.00 0.3349739
395.10 0.3343511
395.20 0.332283
395.30 0.3339659
395.40 0.3454351
395.50 0.3525365
395.60 0.3413993
395.70 0.3188949
395.80 0.2922286
395.90 0.2747003
396.00 0.266418
396.10 0.2592409
396.20 0.2503462
396.30 0.2426689
396.40 0.2580088
396.50 0.3187301
396.60 0.4476288
396.70 0.6544355
396.80 0.902189
396.90 1.103185
397.00 1.162914
397.10 1.053056
397.20 0.8369342
397.30 0.6198151
397.40 0.4691792
397.50 0.3904113
397.60 0.357553
397.70 0.3478295
397.80 0.3491724
397.90 0.3514001
398.00 0.3430659
398.10 0.319708
398.20 0.2914007
398.30 0.2775541
398.40 0.289333
398.50 0.3193853
398.60 0.3507462
398.70 0.3738458
398.80 0.3792607
398.90 0.3760205
399.00 0.3637963
399.10 0.3550136
399.20 0.3678421
399.30 0.4010333
399.40 0.4280788
399.50 0.4250655
399.60 0.3952719
399.70 0.3655493
399.80 0.3561912
399.90 0.3590686
400.00 0.3577275
400.10 0.3488295
400.20 0.3433972
400.30 0.3492223
400.40 0.3590854
400.50 0.3597823
400.60 0.3497046
400.70 0.3487497
400.80 0.3678343
400.90 0.39654
401.00 0.420903
401.10 0.4263546
401.20 0.4136472
401.30 0.3874668
401.40 0.3616328
401.50 0.3426217
401.60 0.3247396
401.70 0.2982064
401.80 0.2782116
401.90 0.2742371
402.00 0.2854704
402.10 0.3022068
402.20 0.3126917
402.30 0.3102823
402.40 0.299583
402.50 0.295255
402.60 0.3085808
402.70 0.3346801
402.80 0.3537075
402.90 0.3472014
403.00 0.3143788
403.10 0.2705415
403.20 0.2333879
403.30 0.213863
403.40 0.2158457
403.50 0.2384742
403.60 0.2745254
403.70 0.3105713
403.80 0.3427588
403.90 0.3759876
404.00 0.4104895
404.10 0.439508
404.20 0.4527849
404.30 0.4463576
404.40 0.4224792
404.50 0.3851687
404.60 0.3421973
404.70 0.3072489
404.80 0.289702
404.90 0.285114
405.00 0.2827747
405.10 0.2810842
405.20 0.2903978
405.30 0.3175329
405.40 0.3522253
405.50 0.3747453
405.60 0.3760455
405.70 0.3644878
405.80 0.352502
405.90 0.3448156
406.00 0.3365657
406.10 0.3232229
406.20 0.3066797
406.30 0.2947335
406.40 0.2947291
406.50 0.306942
406.60 0.3198218
406.70 0.317839
406.80 0.2965433
406.90 0.2674023
407.00 0.2488205
407.10 0.2499848
407.20 0.2587714
407.30 0.2630199
407.40 0.2579724
407.50 0.2403066
407.60 0.2258815
407.70 0.2253771
407.80 0.2397888
407.90 0.2647388
408.00 0.2925922
408.10 0.3149613
408.20 0.3265008
408.30 0.3267244
408.40 0.3200517
408.50 0.3120977
408.60 0.3059473
408.70 0.3005024
408.80 0.2937523
408.90 0.2870713
409.00 0.2830677
409.10 0.2800921
409.20 0.2737545
409.30 0.2621857
409.40 0.2502607
409.50 0.2449707
409.60 0.2499959
409.70 0.2657681
409.80 0.2949053
409.90 0.3452636
410.00 0.4250878
410.10 0.5258999
410.20 0.6088399
410.30 0.6227753
410.40 0.549315
410.50 0.4272591
410.60 0.3229184
410.70 0.2655727
410.80 0.2596941
410.90 0.2715798
411.00 0.2781117
411.10 0.2747628
411.20 0.265471
411.30 0.2559813
411.40 0.2526978
411.50 0.2567799
411.60 0.2467915
411.70 0.2141621
411.80 0.1738416
411.90 0.1426671
412.00 0.1367278
412.10 0.1589374
412.20 0.1978775
412.30 0.2353475
412.40 0.2595185
412.50 0.2692504
412.60 0.269777
412.70 0.2668025
412.80 0.2631985
412.90 0.2586813
413.00 0.253339
413.10 0.2502668
413.20 0.253161
413.30 0.2604801
413.40 0.2646951
413.50 0.2597731
413.60 0.2487533
413.70 0.2413672
413.80 0.245303
413.90 0.2615629
414.00 0.2850385
414.10 0.306737
414.20 0.3051002
414.30 0.2846267
414.40 0.2526009
414.50 0.2229283
414.60 0.2078804
414.70 0.2094217
414.80 0.2111466
414.90 0.2121526
415.00 0.2196928
415.10 0.232328
415.20 0.2503433
415.30 0.27665
415.40 0.3003761
415.50 0.3123419
415.60 0.310718
415.70 0.3010295
415.80 0.292623
415.90 0.2924766
416.00 0.2977821
416.10 0.3026158
416.20 0.3007095
416.30 0.2931774
416.40 0.2884503
416.50 0.2929128
416.60 0.2961046
416.70 0.3021377
416.80 0.3050691
416.90 0.2991826
417.00 0.280098
417.10 0.2487124
417.20 0.2250842
417.30 0.2122283
417.40 0.2090254
417.50 0.2174394
417.60 0.2390198
417.70 0.2672737
417.80 0.2896605
417.90 0.294657
418.00 0.3004654
418.10 0.3154132
418.20 0.3329862
418.30 0.3376881
418.40 0.3228538
418.50 0.2991479
418.60 0.2754568
418.70 0.2679682
418.80 0.2671581
418.90 0.2612826
419.00 0.2472646
419.10 0.2292412
419.20 0.2115958
419.30 0.1972106
419.40 0.1903469
419.50 0.1961642
419.60 0.213859
419.70 0.2342452
419.80 0.248049
419.90 0.2534675
420.00 0.2563535
420.10 0.2612994
420.20 0.2658794
420.30 0.2596807
420.40 0.2420059
420.50 0.2233765
420.60 0.2112581
420.70 0.2075835
420.80 0.2047775
420.90 0.2067991
421.00 0.2150344
421.10 0.2261822
421.20 0.231448
421.30 0.2257255
421.40 0.2161464
421.50 0.2129218
421.60 0.218633
421.70 0.2223421
421.80 0.2126372
421.90 0.1920906
422.00 0.1738828
422.10 0.1668379
422.20 0.1671385
422.30 0.164726
422.40 0.1550256
422.50 0.1407174
422.60 0.1252965
422.70 0.105203
422.80 0.0994198
422.90 0.1095243
423.00 0.1276994
423.10 0.1410349
423.20 0.1408859
423.30 0.1304164
423.40 0.1221283
423.50 0.1207847
423.60 0.124671
423.70 0.1357268
423.80 0.1487327
423.90 0.1654105
424.00 0.1889159
424.10 0.2154672
424.20 0.2361148
424.30 0.2453186
424.40 0.2410135
424.50 0.2298345
424.60 0.2190945
424.70 0.2122392
424.80 0.2062242
424.90 0.2058795
425.00 0.2108746
425.10 0.2149061
425.20 0.2126231
425.30 0.2044913
425.40 0.1966012
425.50 0.1936877
425.60 0.193541
425.70 0.189259
425.80 0.1775139
425.90 0.1649483
426.00 0.1637137
426.10 0.1782311
426.20 0.1991407
426.30 0.2128654
426.40 0.2148473
426.50 0.2124047
426.60 0.215247
426.70 0.2276534
426.80 0.2488095
426.90 0.2688559
427.00 0.2763261
427.10 0.2788053
427.20 0.273535
427.30 0.2592433
427.40 0.236764
427.50 0.21102
427.60 0.1918136
427.70 0.1882124
427.80 0.1981676
427.90 0.2175484
428.00 0.2382091
428.10 0.2538637
428.20 0.2655823
428.30 0.2766798
428.40 0.2887174
428.50 0.2967565
428.60 0.2928474
428.70 0.2737234
428.80 0.2468731
428.90 0.2256187
429.00 0.2186237
429.10 0.2204633
429.20 0.2299523
429.30 0.2440974
429.40 0.2575951
429.50 0.2677952
429.60 0.2758333
429.70 0.2843525
429.80 0.2921053
429.90 0.2915694
430.00 0.275879
430.10 0.2504764
430.20 0.2337546
430.30 0.2401996
430.40 0.2636188
430.50 0.282695
430.60 0.282907
430.70 0.2692622
430.80 0.2569527
430.90 0.2537186
431.00 0.2559998
431.10 0.2586699
431.20 0.261562
431.30 0.2662233
431.40 0.2700098
431.50 0.2675035
431.60 0.2568179
431.70 0.2462266
431.80 0.246661
431.90 0.2593635
432.00 0.277171
432.10 0.2887207
432.20 0.2922179
432.30 0.2867112
432.40 0.2769857
432.50 0.2713569
432.60 0.2749014
432.70 0.2854652
432.80 0.296277
432.90 0.3037451
433.00 0.3128523
433.10 0.3318653
433.20 0.3568258
433.30 0.376789
433.40 0.3872935
433.50 0.3899037
433.60 0.3999571
433.70 0.443067
433.80 0.5334059
433.90 0.6795204
434.00 0.8383538
434.10 0.9374838
434.20 0.9234903
434.30 0.8031059
434.40 0.6376849
434.50 0.4974647
434.60 0.417652
434.70 0.390041
434.80 0.3850607
434.90 0.3783686
435.00 0.3619594
435.10 0.3387442
435.20 0.3144663
435.30 0.2950106
435.40 0.2849585
435.50 0.2840118
435.60 0.2843382
435.70 0.2791649
435.80 0.2717823
435.90 0.2743463
436.00 0.2927795
436.10 0.3154287
436.20 0.3164332
436.30 0.3007185
436.40 0.2828833
436.50 0.2810503
436.60 0.3011393
436.70 0.3235527
436.80 0.3291555
436.90 0.3165505
437.00 0.2981119
437.10 0.2861111
437.20 0.2851315
437.30 0.2920524
437.40 0.3006298
437.50 0.3080974
437.60 0.3170854
437.70 0.3292474
437.80 0.3371406
437.90 0.3304603
438.00 0.310228
438.10 0.2934487
438.20 0.2969038
438.30 0.3219744
438.40 0.3545087
438.50 0.3824598
438.60 0.4017588
438.70 0.4058016
438.80 0.3880575
438.90 0.3543987
439.00 0.3219217
439.10 0.3094704
439.20 0.3213751
439.30 0.3455031
439.40 0.3677996
439.50 0.3840018
439.60 0.3979394
439.70 0.4109828
439.80 0.4165423
439.90 0.4047726
440.00 0.3845215
440.10 0.3709333
440.20 0.3688141
440.30 0.3705125
440.40 0.3609558
440.50 0.3491468
440.60 0.3426377
440.70 0.3444643
440.80 0.3532599
440.90 0.3561549
441.00 0.3562424
441.10 0.3550987
441.20 0.3554339
441.30 0.3610954
441.40 0.374297
441.50 0.3942502
441.60 0.4180723
441.70 0.4423695
441.80 0.4631929
441.90 0.4754194
442.00 0.4748093
442.10 0.462072
442.20 0.4439341
442.30 0.428326
442.40 0.4195737
442.50 0.4170079
442.60 0.4168178
442.70 0.4161268
442.80 0.4156469
442.90 0.4197056
443.00 0.432977
443.10 0.4545159
443.20 0.4753287
443.30 0.4841603
443.40 0.4780527
443.50 0.4656572
443.60 0.462868
443.70 0.4802645
443.80 0.5035888
443.90 0.527023
444.00 0.5431106
444.10 0.5465047
444.20 0.5355123
444.30 0.5174526
444.40 0.5066379
444.50 0.513152
444.60 0.533147
444.70 0.5545338
444.80 0.5700346
444.90 0.579325
445.00 0.5834935
445.10 0.5797579
445.20 0.5636489
445.30 0.5355764
445.40 0.5043593
445.50 0.4836992
445.60 0.4833335
445.70 0.4980148
445.80 0.5156697
445.90 0.5269042
446.00 0.5308964
446.10 0.5319927
446.20 0.5322382
446.30 0.5285813
446.40 0.5178875
446.50 0.5035236
446.60 0.4965869
446.70 0.5074678
446.80 0.535254
446.90 0.5682815
447.00 0.5961135
447.10 0.6181701
447.20 0.6384405
447.30 0.6552278
447.40 0.6607317
447.50 0.6501907
447.60 0.6291662
447.70 0.6118615
447.80 0.6117466
447.90 0.6311828
448.00 0.6532897
448.10 0.6736504
448.20 0.6844273
448.30 0.6829413
448.40 0.6827524
448.50 0.6855015
448.60 0.6875336
448.70 0.6876832
448.80 0.6893214
448.90 0.694806
449.00 0.7017045
449.10 0.7053291
449.20 0.7027658
449.30 0.6943628
449.40 0.6829933
449.50 0.6730318
449.60 0.6693364
449.70 0.6749547
449.80 0.6890136
449.90 0.707973
450.00 0.72759
450.10 0.7426203
450.20 0.7467511
450.30 0.7352682
450.40 0.7103452
450.50 0.6827954
450.60 0.6655426
450.70 0.6643831
450.80 0.6754348
450.90 0.6896067
451.00 0.6987283
451.10 0.6995237
451.20 0.6946139
451.30 0.6909103
451.40 0.6944208
451.50 0.7057751
451.60 0.7214073
451.70 0.7384909
451.80 0.7573115
451.90 0.7785524
452.00 0.7997291
452.10 0.8151107
452.20 0.8195879
452.30 0.8126447
452.40 0.7988242
452.50 0.7838176
452.60 0.7706476
452.70 0.7606283
452.80 0.7566882
452.90 0.7618758
453.00 0.7731417
453.10 0.7793571
453.20 0.7687599
453.30 0.7399985
453.40 0.7056863
453.50 0.6855441
453.60 0.6953816
453.70 0.7389037
453.80 0.8056928
453.90 0.876322
454.00 0.9312799
454.10 0.9595231
454.20 0.962056
454.30 0.9470179
454.40 0.921545
454.50 0.8897229
454.60 0.8561714
454.70 0.8274601
454.80 0.8078129
454.90 0.7952847
455.00 0.7851866
455.10 0.7747945
455.20 0.7635865
455.30 0.7534054
455.40 0.7499949
455.50 0.7607532
455.60 0.7887259
455.70 0.8291394
455.80 0.8727071
455.90 0.9113637
456.00 0.9409849
456.10 0.9624539
456.20 0.980678
456.30 1.000576
456.40 1.023443
456.50 1.047273
456.60 1.069672
456.70 1.088411
456.80 1.1009
456.90 1.106526
457.00 1.109698
457.10 1.117731
457.20 1.133369
457.30 1.149151
457.40 1.151746
457.50 1.134633
457.60 1.105711
457.70 1.080816
457.80 1.069182
457.90 1.067462
458.00 1.067479
458.10 1.063963
458.20 1.052417
458.30 1.024909
458.40 0.9746746
458.50 0.9060223
458.60 0.8354258
458.70 0.7803138
458.80 0.7478808
458.90 0.7347761
459.00 0.7351952
459.10 0.746253
459.20 0.7649608
459.30 0.7846833
459.40 0.7995004
459.50 0.8108929
459.60 0.8265615
459.70 0.8510771
459.80 0.8793115
459.90 0.9009317
460.00 0.9098755
460.10 0.9092056
460.20 0.9080268
460.30 0.9123949
460.40 0.917824
460.50 0.9118599
460.60 0.8883731
460.70 0.8609313
460.80 0.8572577
460.90 0.8953407
461.00 0.9654215
461.10 1.037719
461.20 1.088361
461.30 1.116844
461.40 1.139441
461.50 1.169487
461.60 1.204799
461.70 1.232595
461.80 1.243774
461.90 1.240824
462.00 1.233061
462.10 1.226576
462.20 1.218929
462.30 1.201018
462.40 1.162351
462.50 1.097012
462.60 1.010041
462.70 0.9184349
462.80 0.8439933
462.90 0.8022921
463.00 0.7953292
463.10 0.8131895
463.20 0.8411575
463.30 0.8656015
463.40 0.8773123
463.50 0.8741224
463.60 0.8612547
463.70 0.8481189
463.80 0.8419837
463.90 0.8444404
464.00 0.8547351
464.10 0.8733356
464.20 0.8999206
464.30 0.9291474
464.40 0.950492
464.50 0.9546158
464.60 0.9415024
464.70 0.9212668
464.80 0.9062404
464.90 0.9018272
465.00 0.905577
465.10 0.9146608
465.20 0.930787
465.30 0.955748
465.40 0.9844788
465.50 1.007138
465.60 1.019212
465.70 1.027456
465.80 1.043978
465.90 1.073873
466.00 1.11014
466.10 1.141579
466.20 1.163712
466.30 1.180305
466.40 1.195276
466.50 1.203301
466.60 1.189553
466.70 1.140415
466.80 1.056324
466.90 0.9553582
467.00 0.8621661
467.10 0.7919995
467.20 0.7463171
467.30 0.7211513
467.40 0.7136914
467.50 0.7212719
467.60 0.7389242
467.70 0.7612999
467.80 0.7838485
467.90 0.8009026
468.00 0.8072804
468.10 0.8050315
468.20 0.8047217
468.30 0.8156712
468.40 0.8374365
468.50 0.8629998
468.60 0.8878636
468.70 0.9119363
468.80 0.9343666
468.90 0.9513617
469.00 0.9605802
469.10 0.9648582
469.20 0.9692557
469.30 0.9754342
469.40 0.9818902
469.50 0.9893555
469.60 1.002603
469.70 1.025097
469.80 1.053499
469.90 1.080993
470.00 1.10553
470.10 1.130406
470.20 1.155611
470.30 1.172831
470.40 1.171924
470.50 1.152081
470.60 1.123795
470.70 1.099218
470.80 1.084533
470.90 1.080612
471.00 1.085198
471.10 1.091321
471.20 1.087184
471.30 1.063691
471.40 1.023266
471.50 0.9785662
471.60 0.9427636
471.70 0.9239823
471.80 0.9257204
471.90 0.9471761
472.00 0.9811073
472.10 1.015363
472.20 1.040542
472.30 1.056026
472.40 1.067668
472.50 1.079317
472.60 1.087701
472.70 1.0864
472.80 1.07517
472.90 1.064247
473.00 1.067051
473.10 1.087112
473.20 1.114309
473.30 1.135529
473.40 1.146254
473.50 1.150053
473.60 1.149745
473.70 1.144147
473.80 1.13387
473.90 1.124497
474.00 1.121971
474.10 1.128094
474.20 1.142351
474.30 1.164354
474.40 1.191284
474.50 1.2156
474.60 1.229557
474.70 1.232522
474.80 1.23206
474.90 1.237158
475.00 1.250605
475.10 1.267134
475.20 1.27811
475.30 1.279376
475.40 1.274308
475.50 1.268279
475.60 1.260543
475.70 1.242163
475.80 1.200813
475.90 1.127688
476.00 1.023799
476.10 0.9040656
476.20 0.7938971
476.30 0.7154966
476.40 0.6705708
476.50 0.6509442
476.60 0.6407359
476.70 0.6254135
476.80 0.6099019
476.90 0.6046384
477.00 0.6111717
477.10 0.6212789
477.20 0.6270107
477.30 0.6312939
477.40 0.6459103
477.50 0.6784973
477.60 0.7230726
477.70 0.7643233
477.80 0.7901449
477.90 0.7986862
478.00 0.7956404
478.10 0.7883289
478.20 0.7829466
478.30 0.7844376
478.40 0.7948228
478.50 0.8112496
478.60 0.8286025
478.70 0.8445828
478.80 0.8608362
478.90 0.8800056
479.00 0.902749
479.10 0.9272389
479.20 0.9498733
479.30 0.9660902
479.40 0.9731611
479.50 0.9739215
479.60 0.9760957
479.70 0.986182
479.80 1.004055
479.90 1.024074
480.00 1.040156
480.10 1.047808
480.20 1.041594
480.30 1.014838
480.40 0.9643128
480.50 0.8937951
480.60 0.8130663
480.70 0.7343501
480.80 0.6703494
480.90 0.6322338
481.00 0.6244245
481.10 0.6404394
481.20 0.6666416
481.30 0.6922542
481.40 0.7159952
481.50 0.742259
481.60 0.7713552
481.70 0.7969352
481.80 0.8132782
481.90 0.8227206
482.00 0.8344452
482.10 0.856297
482.20 0.8882929
482.30 0.9227252
482.40 0.948493
482.50 0.9574414
482.60 0.9500764
482.70 0.9359482
482.80 0.9266142
482.90 0.9257704
483.00 0.9271165
483.10 0.9242783
483.20 0.9220865
483.30 0.9331931
483.40 0.9624537
483.50 0.9988604
483.60 1.027023
483.70 1.043805
483.80 1.05725
483.90 1.069725
484.00 1.069278
484.10 1.041235
484.20 0.985686
484.30 0.922172
484.40 0.8774048
484.50 0.8665465
484.60 0.8818052
484.70 0.8972096
484.80 0.888401
484.90 0.8512967
485.00 0.8027529
485.10 0.7651597
485.20 0.7525203
485.30 0.7672202
485.40 0.8022982
485.50 0.8443054
485.60 0.8805799
485.70 0.915578
485.80 0.9850445
485.90 1.142015
486.00 1.404252
486.10 1.703951
486.20 1.905962
486.30 1.903107
486.40 1.703659
486.50 1.419659
486.60 1.17199
486.70 1.014118
486.80 0.9351963
486.90 0.9066987
487.00 0.9110602
487.10 0.9389081
487.20 0.9795381
487.30 1.019745
487.40 1.047068
487.50 1.053171
487.60 1.037458
487.70 1.00934
487.80 0.9845952
487.90 0.9757146
488.00 0.983554
488.10 0.9986897
488.20 1.011272
488.30 1.019201
488.40 1.027322
488.50 1.040605
488.60 1.059719
488.70 1.081482
488.80 1.10199
488.90 1.119729
489.00 1.135466
489.10 1.148382
489.20 1.15457
489.30 1.151717
489.40 1.14441
489.50 1.141739
489.60 1.147901
489.70 1.157599
489.80 1.162378
489.90 1.159153
490.00 1.151986
490.10 1.148869
490.20 1.157682
490.30 1.181986
490.40 1.217792
490.50 1.25522
490.60 1.286859
490.70 1.313967
490.80 1.341748
490.90 1.370832
491.00 1.396853
491.10 1.417
491.20 1.432472
491.30 1.443423
491.40 1.446108
491.50 1.438583
491.60 1.426246
491.70 1.418944
491.80 1.423665
491.90 1.441597
492.00 1.470576
492.10 1.50638
492.20 1.541616
492.30 1.568243
492.40 1.585001
492.50 1.60088
492.60 1.627131
492.70 1.663937
492.80 1.69806
492.90 1.715362
493.00 1.713241
493.10 1.700315
493.20 1.686696
493.30 1.677874
493.40 1.675797
493.50 1.680198
493.60 1.687783
493.70 1.693245
493.80 1.693834
493.90 1.692778
494.00 1.697375
494.10 1.713984
494.20 1.744827
494.30 1.787163
494.40 1.833566
494.50 1.875138
494.60 1.907663
494.70 1.935568
494.80 1.967612
494.90 2.006613
495.00 2.043006
495.10 2.054902
495.20 2.011853
495.30 1.884651
495.40 1.663424
495.50 1.374428
495.60 1.076803
495.70 0.8340838
495.80 0.6823512
495.90 0.619687
496.00 0.6177497
496.10 0.6412406
496.20 0.6638372
496.30 0.6763266
496.40 0.6855175
496.50 0.7047667
496.60 0.7431688
496.70 0.8009045
496.80 0.8694268
496.90 0.9341985
497.00 0.9815686
497.10 1.007739
497.20 1.021711
497.30 1.037431
497.40 1.06225
497.50 1.092177
497.60 1.11596
497.70 1.123326
497.80 1.111274
497.90 1.084898
498.00 1.053506
498.10 1.02594
498.20 1.009514
498.30 1.011338
498.40 1.035473
498.50 1.076534
498.60 1.119966
498.70 1.153046
498.80 1.175907
498.90 1.198678
499.00 1.22781
499.10 1.258399
499.20 1.281164
499.30 1.293766
499.40 1.302488
499.50 1.313179
499.60 1.310958
499.70 1.250907
499.80 1.084238
499.90 0.8082902
500.00 1
500.10 0.8687768
500.20 0.8729373
500.30 0.9018769
500.40 0.8782643
500.50 0.863763
500.60 0.8803652
500.70 0.8696976
500.80 0.880466
500.90 0.8836398
501.00 0.977485
501.10 0.9654035
501.20 0.9638638
501.30 0.9728221
501.40 0.9675051
501.50 0.89746
501.60 0.9096773
501.70 0.9702121
501.80 0.9841053
501.90 1.037302
502.00 1.056148
502.10 1.103648
502.20 1.122354
502.30 1.087122
502.40 1.070938
502.50 1.058393
502.60 1.083936
502.70 1.109406
502.80 1.144009
502.90 1.114562
503.00 1.098389
503.10 1.084002
503.20 1.182924
503.30 1.190288
503.40 1.177749
503.50 1.248884
503.60 1.287346
503.70 1.197504
503.80 1.215931
503.90 1.252468
504.00 1.22892
504.10 1.26441
504.20 1.332072
504.30 1.327138
504.40 1.36357
504.50 1.41407
504.60 1.479595
504.70 1.546133
504.80 1.538249
504.90 1.40236
505.00 1.282302
505.10 1.230325
505.20 1.2569
505.30 1.280438
505.40 1.336381
505.50 1.356519
505.60 1.274173
505.70 1.240522
505.80 1.280837
505.90 1.330901
506.00 1.361294
506.10 1.35469
506.20 1.394262
506.30 1.388396
506.40 1.411173
506.50 1.390039
506.60 1.347196
506.70 1.345837
506.80 1.390644
506.90 1.434495
507.00 1.40568
507.10 1.362534
507.20 1.395925
507.30 1.360162
507.40 1.364647
507.50 1.485803
507.60 1.540279
507.70 1.436136
507.80 1.437548
507.90 1.541468
508.00 1.520574
508.10 1.388986
508.20 1.337034
508.30 1.366146
508.40 1.338879
508.50 1.381902
508.60 1.508415
508.70 1.513306
508.80 1.501946
508.90 1.470983
509.00 1.369175
509.10 1.408613
509.20 1.554024
509.30 1.565891
509.40 1.516235
509.50 1.443955
509.60 1.339157
509.70 1.331952
509.80 1.441381
509.90 1.518665
510.00 1.48884
510.10 1.443865
510.20 1.396696
510.30 1.389658
510.40 1.406712
510.50 1.390733
510.60 1.339385
510.70 1.374691
510.80 1.387108
510.90 1.392599
511.00 1.412577
511.10 1.418133
511.20 1.389996
511.30 1.399457
511.40 1.475819
511.50 1.531846
511.60 1.602194
511.70 1.668093
511.80 1.686569
511.90 1.586148
512.00 1.530668
512.10 1.500113
512.20 1.490501
512.30 1.517078
512.40 1.506746
512.50 1.423754
512.60 1.408697
512.70 1.406672
512.80 1.374118
512.90 1.38239
513.00 1.385512
513.10 1.358599
513.20 1.480804
513.30 1.671535
513.40 1.679775
513.50 1.577847
513.60 1.582315
513.70 1.662186
513.80 1.776077
513.90 1.764485
514.00 1.666412
514.10 1.614264
514.20 1.614652
514.30 1.588474
514.40 1.572654
514.50 1.531162
514.60 1.478895
514.70 1.432311
514.80 1.503236
514.90 1.592992
515.00 1.581585
515.10 1.528757
515.20 1.532725
515.30 1.459307
515.40 1.32855
515.50 1.326996
515.60 1.373167
515.70 1.499356
515.80 1.718034
515.90 1.832775
516.00 1.868398
516.10 1.924098
516.20 2.035982
516.30 2.034725
516.40 1.982171
516.50 2.036277
516.60 1.930782
516.70 1.518259
516.80 1.04809
516.90 0.733131
517.00 0.634008
517.10 0.6488523
517.20 0.6021808
517.30 0.5762382
517.40 0.5641684
517.50 0.5949246
517.60 0.6462187
517.70 0.6666492
517.80 0.6464694
517.90 0.6801817
518.00 0.6603797
518.10 0.6660404
518.20 0.7039257
518.30 0.7513391
518.40 0.7501089
518.50 0.8275176
518.60 0.961145
518.70 1.078345
518.80 1.074587
518.90 1.116883
519.00 1.160141
519.10 1.179115
519.20 1.182073
519.30 1.158542
519.40 1.120516
519.50 1.168705
519.60 1.19857
519.70 1.294665
519.80 1.433086
519.90 1.466758
520.00 1.345369
520.10 1.267236
520.20 1.24813
520.30 1.199136
520.40 1.128144
520.50 1.062765
520.60 0.9661982
520.70 0.8501678
520.80 0.8296527
520.90 0.8431097
521.00 0.8704769
521.10 0.9171618
521.20 1.129212
521.30 1.430798
521.40 1.657558
521.50 1.723823
521.60 1.702418
521.70 1.670742
521.80 1.685326
521.90 1.717819
522.00 1.747442
522.10 1.773742
522.20 1.877947
522.30 1.920767
522.40 1.880025
522.50 1.807158
522.60 1.740083
522.70 1.672061
522.80 1.724772
522.90 1.818532
523.00 1.937103
523.10 2.083842
523.20 2.06026
523.30 1.926656
523.40 1.854042
523.50 1.826597
523.60 1.933858
523.70 1.999682
523.80 1.956591
523.90 1.961742
524.00 1.999009
524.10 1.855553
524.20 1.575659
524.30 1.473456
524.40 1.521324
524.50 1.670192
524.60 1.712792
524.70 1.630499
524.80 1.572112
524.90 1.624285
525.00 1.686569
525.10 1.662895
525.20 1.659829
525.30 1.71443
525.40 1.790391
525.50 1.890264
525.60 1.929456
525.70 1.965486
525.80 1.968163
525.90 1.96584
526.00 1.908697
526.10 1.796045
526.20 1.68297
526.30 1.647692
526.40 1.66662
526.50 1.587059
526.60 1.513649
526.70 1.515057
526.80 1.61131
526.90 1.614507
527.00 1.400789
527.10 1.299845
527.20 1.490166
527.30 1.744724
527.40 1.908961
527.50 1.968187
527.60 1.926503
527.70 1.917976
527.80 1.893177
527.90 1.895646
528.00 1.929103
528.10 1.897677
528.20 1.863182
528.30 1.833366
528.40 1.871795
528.50 1.931155
528.60 2.048631
528.70 2.106624
528.80 2.164522
528.90 2.13062
529.00 2.102084
529.10 2.101814
529.20 2.091188
529.30 2.103862
529.40 2.103427
529.50 2.156966
529.60 2.186338
529.70 2.119249
529.80 1.954967
529.90 1.897868
530.00 1.918396
530.10 1.975229
530.20 2.005065
530.30 2.13911
530.40 2.274959
530.50 2.292165
530.60 2.257319
530.70 2.236872
530.80 2.125745
530.90 2.018965
531.00 2.004101
531.10 1.996143
531.20 1.990954
531.30 1.96529
531.40 2.032921
531.50 2.049403
531.60 2.078005
531.70 2.112716
531.80 2.082411
531.90 2.084289
532.00 2.073464
532.10 2.040563
532.20 2.050485
532.30 2.086371
532.40 2.096093
532.50 2.076909
532.60 2.086409
532.70 2.058837
532.80 1.936961
532.90 1.763692
533.00 1.748349
533.10 1.949529
533.20 2.083915
533.30 2.047151
533.40 2.030976
533.50 2.045876
533.60 2.056354
533.70 2.06079
533.80 2.076477
533.90 2.105159
534.00 2.084009
534.10 2.075055
534.20 2.085017
534.30 2.098478
534.40 2.162482
534.50 2.213102
534.60 2.184104
534.70 2.087389
534.80 2.063926
534.90 2.135218
535.00 2.26023
535.10 2.292473
535.20 2.424781
535.30 2.546526
535.40 2.578201
535.50 2.593602
535.60 2.559605
535.70 2.511091
535.80 2.460803
535.90 2.330495
536.00 2.176658
536.10 2.115962
536.20 2.139272
536.30 2.238238
536.40 2.261845
536.50 2.213386
536.60 2.192597
536.70 2.249269
536.80 2.299788
536.90 2.295578
537.00 2.262142
537.10 2.203054
537.20 2.059435
537.30 2.040599
537.40 2.179633
537.50 2.379083
537.60 2.500276
537.70 2.46525
537.80 2.436568
537.90 2.452947
538.00 2.546702
538.10 2.664274
538.20 2.674332
538.30 2.607064
538.40 2.577683
538.50 2.563223
538.60 2.555245
538.70 2.625809
538.80 2.629317
538.90 2.646799
539.00 2.676823
539.10 2.627192
539.20 2.604117
539.30 2.566652
539.40 2.503338
539.50 2.490139
539.60 2.457896
539.70 2.353758
539.80 2.262093
539.90 2.394541
540.00 2.636367
540.10 2.79845
540.20 2.830994
540.30 2.853696
540.40 2.832803
540.50 2.723247
540.60 2.553624
540.70 2.385112
540.80 2.421873
540.90 2.587228
541.00 2.536743
541.10 2.390501
541.20 2.374265
541.30 2.426525
541.40 2.495608
541.50 2.578669
541.60 2.733498
541.70 2.806823
541.80 2.730772
541.90 2.719897
542.00 2.798158
542.10 2.84576
542.20 2.824172
542.30 2.785152
542.40 2.744688
542.50 2.748103
542.60 2.713979
542.70 2.74367
542.80 2.888388
542.90 2.884374
543.00 2.670742
543.10 2.512061
543.20 2.477842
543.30 2.528899
543.40 2.593993
543.50 2.590311
543.60 2.62236
543.70 2.814264
543.80 2.933606
543.90 2.866029
544.00 2.890817
544.10 3.043578
544.20 3.159129
544.30 3.246755
544.40 3.276675
544.50 3.22905
544.60 3.06441
544.70 2.708508
544.80 2.259426
544.90 1.834854
545.00 1.533751
545.10 1.407854
545.20 1.300864
545.30 1.246045
545.40 1.293868
545.50 1.34244
545.60 1.351951
545.70 1.366005
545.80 1.397217
545.90 1.396451
546.00 1.384928
546.10 1.402531
546.20 1.434592
546.30 1.515702
546.40 1.582072
546.50 1.681273
546.60 1.724543
546.70 1.831729
546.80 1.942389
546.90 1.917451
547.00 1.788679
547.10 1.726742
547.20 1.707641
547.30 1.764062
547.40 1.812199
547.50 1.78939
547.60 1.747961
547.70 1.735482
547.80 1.744008
547.90 1.729035
548.00 1.710777
548.10 1.753091
548.20 1.854774
548.30 1.935621
548.40 1.94144
548.50 1.977855
548.60 2.032176
548.70 2.022045
548.80 1.945557
548.90 1.878744
549.00 1.880894
549.10 1.947176
549.20 2.013545
549.30 2.048921
549.40 2.020418
549.50 1.970071
549.60 1.889234
549.70 1.782948
549.80 1.645587
549.90 1.501106
550.00 1.401528
550.10 1.326926
550.20 1.264254
550.30 1.224285
550.40 1.264331
550.50 1.335277
550.60 1.296771
550.70 1.266451
550.80 1.271935
550.90 1.26478
551.00 1.276783
551.10 1.272721
551.20 1.252921
551.30 1.221265
551.40 1.166316
551.50 1.126628
551.60 1.113291
551.70 1.104135
551.80 1.089199
551.90 1.142462
552.00 1.128619
552.10 1.097732
552.20 1.100875
552.30 1.102301
552.40 1.124313
552.50 1.083608
552.60 1.030215
552.70 1.034752
552.80 1.12302
552.90 1.10813
553.00 1.091015
553.10 1.09079
553.20 1.09848
553.30 1.073999
553.40 1.003522
553.50 0.971062
553.60 0.9500573
553.70 0.908416
553.80 0.920479
553.90 0.9655522
554.00 0.9127223
554.10 0.8677546
554.20 0.9140776
554.30 0.8881342
554.40 0.8836048
554.50 0.9204809
554.60 0.9677971
554.70 0.9299861
554.80 0.9527966
554.90 0.968736
555.00 0.9638558
555.10 0.9920344
555.20 1.057889
555.30 1.072002
555.40 1.040139
555.50 1.0429
555.60 1.091206
555.70 1.19074
555.80 1.248535
555.90 1.306962
556.00 1.327914
556.10 1.337832
556.20 1.386387
556.30 1.430156
556.40 1.435473
556.50 1.471318
556.60 1.53561
556.70 1.574513
556.80 1.578763
556.90 1.567221
557.00 1.64325
557.10 1.740866
557.20 1.753986
557.30 1.750474
557.40 1.750248
557.50 1.750247
557.60 1.750247
557.70 1.750247
557.80 1.750247
557.90 1.750247
558.00 1.750247
558.10 1.750242
558.20 1.750142
558.30 1.749064
558.40 1.741456
558.50 1.829668
558.60 1.995437
558.70 2.051845
558.80 2.085703
558.90 2.042565
559.00 1.987214
559.10 2.033265
559.20 2.037928
559.30 2.018597
559.40 2.034154
559.50 2.0308
559.60 1.94714
559.70 1.935478
559.80 1.849589
559.90 1.60297
560.00 1.452237
560.10 1.531045
560.20 1.600921
560.30 1.646045
560.40 1.682167
560.50 1.663789
560.60 1.599742
560.70 1.665708
560.80 1.72446
560.90 1.742305
561.00 1.681112
561.10 1.665946
561.20 1.729409
561.30 1.792937
561.40 1.844915
561.50 1.816339
561.60 1.755739
561.70 1.627081
561.80 1.577761
561.90 1.617188
562.00 1.618763
562.10 1.564414
562.20 1.561889
562.30 1.605451
562.40 1.620166
562.50 1.638929
562.60 1.690385
562.70 1.78197
562.80 1.847474
562.90 1.758347
563.00 1.5536
563.10 1.429406
563.20 1.42198
563.30 1.505653
563.40 1.642307
563.50 1.737074
563.60 1.708468
563.70 1.678552
563.80 1.667531
563.90 1.62571
564.00 1.625157
564.10 1.668612
564.20 1.662321
564.30 1.621843
564.40 1.596192
564.50 1.664259
564.60 1.732958
564.70 1.762558
564.80 1.753648
564.90 1.811467
565.00 1.892814
565.10 1.905267
565.20 1.883999
565.30 1.907135
565.40 1.973471
565.50 1.982706
565.60 2.012629
565.70 2.007425
565.80 2.00018
565.90 2.047367
566.00 2.131913
566.10 2.140733
566.20 2.046168
566.30 1.953783
566.40 1.819035
566.50 1.758632
566.60 1.76494
566.70 1.821349
566.80 1.794613
566.90 1.673797
567.00 1.642566
567.10 1.670711
567.20 1.671388
567.30 1.666346
567.40 1.722113
567.50 1.766831
567.60 1.790882
567.70 1.794051
567.80 1.860147
567.90 1.905368
568.00 1.908045
568.10 1.915409
568.20 1.920286
568.30 1.924123
568.40 1.929877
568.50 2.042231
568.60 2.157153
568.70 2.126469
568.80 2.028196
568.90 1.91448
569.00 1.878926
569.10 1.92874
569.20 1.978857
569.30 1.998209
569.40 2.01752
569.50 2.022865
569.60 2.057672
569.70 2.086001
569.80 2.162356
569.90 2.182314
570.00 2.133367
570.10 2.171893
570.20 2.273255
570.30 2.292056
570.40 2.214561
570.50 2.274299
570.60 2.328935
570.70 2.353201
570.80 2.343702
570.90 2.406185
571.00 2.431339
571.10 2.448662
571.20 2.474347
571.30 2.429738
571.40 2.372493
571.50 2.3114
571.60 2.313704
571.70 2.276673
571.80 2.157415
571.90 2.086454
572.00 2.089572
572.10 2.097905
572.20 2.15859
572.30 2.249663
572.40 2.235298
572.50 2.171939
572.60 2.204649
572.70 2.224612
572.80 2.214383
572.90 2.227948
573.00 2.269743
573.10 2.312733
573.20 2.397256
573.30 2.460538
573.40 2.42794
573.50 2.397947
573.60 2.395115
573.70 2.324213
573.80 2.279456
573.90 2.238107
574.00 2.290365
574.10 2.34251
574.20 2.357488
574.30 2.309165
574.40 2.289884
574.50 2.336427
574.60 2.453837
574.70 2.547275
574.80 2.533713
574.90 2.571929
575.00 2.641521
575.10 2.685608
575.20 2.631491
575.30 2.625546
575.40 2.706086
575.50 2.750536
575.60 2.744065
575.70 2.761089
575.80 2.776703
575.90 2.680692
576.00 2.452163
576.10 2.289704
576.20 2.189116
576.30 2.083489
576.40 1.919578
576.50 1.838024
576.60 1.867509
576.70 1.855778
576.80 1.885234
576.90 2.035975
577.00 2.17663
577.10 2.141421
577.20 2.104329
577.30 2.149191
577.40 2.230305
577.50 2.201794
577.60 2.163021
577.70 2.146141
577.80 2.185944
577.90 2.233893
578.00 2.199229
578.10 2.229276
578.20 2.305195
578.30 2.353269
578.40 2.421211
578.50 2.522221
578.60 2.522286
578.70 2.413234
578.80 2.381542
578.90 2.416517
579.00 2.418367
579.10 2.400686
579.20 2.435226
579.30 2.524266
579.40 2.627946
579.50 2.678397
579.60 2.706923
579.70 2.697019
579.80 2.698588
579.90 2.780075
580.00 2.816571
580.10 2.800873
580.20 2.827614
580.30 2.842233
580.40 2.870631
580.50 2.865075
580.60 2.879737
580.70 2.908632
580.80 2.910093
580.90 2.861209
581.00 2.788201
581.10 2.572448
581.20 2.319619
581.30 2.218936
581.40 2.173096
581.50 2.077852
581.60 2.010163
581.70 1.986631
581.80 1.962027
581.90 1.912395
582.00 1.96239
582.10 1.993951
582.20 1.960174
582.30 1.913944
582.40 1.919514
582.50 1.99564
582.60 2.062265
582.70 2.108492
582.80 2.084203
582.90 2.100482
583.00 2.130869
583.10 2.169564
583.20 2.200221
583.30 2.211566
583.40 2.211993
583.50 2.275696
583.60 2.391354
583.70 2.362655
583.80 2.270486
583.90 2.226673
584.00 2.126899
584.10 2.057591
584.20 2.018288
584.30 2.074291
584.40 2.138495
584.50 2.167884
584.60 2.209218
584.70 2.201568
584.80 2.057661
584.90 1.792417
585.00 1.600909
585.10 1.472606
585.20 1.450808
585.30 1.466812
585.40 1.49626
585.50 1.51205
585.60 1.518638
585.70 1.512355
585.80 1.516755
585.90 1.531099
586.00 1.524705
586.10 1.549643
586.20 1.613005
586.30 1.538302
586.40 1.378253
586.50 1.326495
586.60 1.40148
586.70 1.489194
586.80 1.45229
586.90 1.43278
587.00 1.471042
587.10 1.469662
587.20 1.368468
587.30 1.31209
587.40 1.247877
587.50 1.200987
587.60 1.239536
587.70 1.294204
587.80 1.265427
587.90 1.17046
588.00 1.108536
588.10 1.105222
588.20 1.113715
588.30 1.079944
588.40 1.046824
588.50 0.9899357
588.60 0.9318346
588.70 0.8982402
588.80 0.828379
588.90 0.6976145
589.00 0.6238235
589.10 0.6823793
589.20 0.7245797
589.30 0.6563251
589.40 0.6292923
589.50 0.6063631
589.60 0.5953448
589.70 0.6007268
589.80 0.6244858
589.90 0.5746896
590.00 0.6899327
590.10 0.8506208
590.20 0.9154396
590.30 0.9185804
590.40 0.9413971
590.50 0.9483469
590.60 0.9389297
590.70 0.9254677
590.80 0.9194858
590.90 0.922163
591.00 0.9876625
591.10 1.039333
591.20 1.049271
591.30 1.058547
591.40 1.035102
591.50 1.062873
591.60 1.078756
591.70 1.146936
591.80 1.209724
591.90 1.202237
592.00 1.175453
592.10 1.215991
592.20 1.253056
592.30 1.173349
592.40 1.11427
592.50 1.146835
592.60 1.171196
592.70 1.129803
592.80 1.126697
592.90 1.171476
593.00 1.188899
593.10 1.168713
593.20 1.168173
593.30 1.222619
593.40 1.314233
593.50 1.367859
593.60 1.378261
593.70 1.349622
593.80 1.360243
593.90 1.433303
594.00 1.461737
594.10 1.4752
594.20 1.491063
594.30 1.456062
594.40 1.494555
594.50 1.578834
594.60 1.59316
594.70 1.545159
594.80 1.512802
594.90 1.490963
595.00 1.410011
595.10 1.372913
595.20 1.347654
595.30 1.362147
595.40 1.415479
595.50 1.424121
595.60 1.379276
595.70 1.274223
595.80 1.208276
595.90 1.196959
596.00 1.237236
596.10 1.278258
596.20 1.324819
596.30 1.370225
596.40 1.347211
596.50 1.300808
596.60 1.347214
596.70 1.408801
596.80 1.458769
596.90 1.472985
597.00 1.447079
597.10 1.470412
597.20 1.488046
597.30 1.469712
597.40 1.407977
597.50 1.358957
597.60 1.388333
597.70 1.431264
597.80 1.471625
597.90 1.441644
598.00 1.443061
598.10 1.462594
598.20 1.513701
598.30 1.564407
598.40 1.565922
598.50 1.544804
598.60 1.566569
598.70 1.580589
598.80 1.564672
598.90 1.561558
599.00 1.595566
599.10 1.608503
599.20 1.61517
599.30 1.672162
599.40 1.750028
599.50 1.795463
599.60 1.864505
599.70 1.87674
599.80 1.846037
599.90 1.756036
600.00 1.693975
600.10 1.668878
600.20 1.636366
600.30 1.626389
600.40 1.649588
600.50 1.682948
600.60 1.652103
600.70 1.643146
600.80 1.620299
600.90 1.587776
601.00 1.622609
601.10 1.714008
601.20 1.749132
601.30 1.743259
601.40 1.721761
601.50 1.715538
601.60 1.736794
601.70 1.778936
601.80 1.791477
601.90 1.81259
602.00 1.850346
602.10 1.879446
602.20 1.871817
602.30 1.880033
602.40 1.86663
602.50 1.850981
602.60 1.853365
602.70 1.900713
602.80 1.960051
602.90 1.961379
603.00 1.941089
603.10 1.961788
603.20 1.990351
603.30 1.988141
603.40 2.002667
603.50 2.00412
603.60 1.974249
603.70 1.861799
603.80 1.788264
603.90 1.816183
604.00 1.888884
604.10 1.964717
604.20 2.014282
604.30 2.088546
604.40 2.047549
604.50 2.018526
604.60 2.067459
604.70 2.1289
604.80 2.180213
604.90 2.206503
605.00 2.221497
605.10 2.264116
605.20 2.255361
605.30 2.226694
605.40 2.157313
605.50 2.144155
605.60 2.202131
605.70 2.235471
605.80 2.23603
605.90 2.274346
606.00 2.34431
606.10 2.327125
606.20 2.276125
606.30 2.254356
606.40 2.211985
606.50 2.12624
606.60 2.052049
606.70 2.038074
606.80 2.097069
606.90 2.238416
607.00 2.347568
607.10 2.378988
607.20 2.374467
607.30 2.350694
607.40 2.302563
607.50 2.275277
607.60 2.29802
607.70 2.359183
607.80 2.402261
607.90 2.366218
608.00 2.264739
608.10 2.125078
608.20 2.059873
608.30 2.061294
608.40 2.077912
608.50 2.121927
608.60 2.187679
608.70 2.239505
608.80 2.246873
608.90 2.276358
609.00 2.311912
609.10 2.277325
609.20 2.263263
609.30 2.33293
609.40 2.403656
609.50 2.394112
609.60 2.402509
609.70 2.421823
609.80 2.426227
609.90 2.425512
610.00 2.448138
610.10 2.425993
610.20 2.335016
610.30 2.236647
610.40 2.197373
610.50 2.200836
610.60 2.218669
610.70 2.288736
610.80 2.391181
610.90 2.425062
611.00 2.367714
611.10 2.297606
611.20 2.251833
611.30 2.275052
611.40 2.336629
611.50 2.341986
611.60 2.320453
611.70 2.225245
611.80 2.117034
611.90 2.097252
612.00 2.132683
612.10 2.16595
612.20 2.130235
612.30 2.069677
612.40 2.067444
612.50 2.119385
612.60 2.209923
612.70 2.280465
612.80 2.267575
612.90 2.246149
613.00 2.305031
613.10 2.340377
613.20 2.312887
613.30 2.238459
613.40 2.150394
613.50 2.121914
613.60 2.159428
613.70 2.21686
613.80 2.232504
613.90 2.219929
614.00 2.255656
614.10 2.269074
614.20 2.232158
614.30 2.183192
614.40 2.194202
614.50 2.256434
614.60 2.299311
614.70 2.27021
614.80 2.138667
614.90 2.009868
615.00 1.885549
615.10 1.767797
615.20 1.727476
615.30 1.776057
615.40 1.835825
615.50 1.814646
615.60 1.783056
615.70 1.697511
615.80 1.617327
615.90 1.568583
616.00 1.442945
616.10 1.261091
616.20 1.128532
616.30 1.073174
616.40 1.068553
616.50 1.109166
616.60 1.161453
616.70 1.173938
616.80 1.148281
616.90 1.173811
617.00 1.210432
617.10 1.217264
617.20 1.187618
617.30 1.185769
617.40 1.202792
617.50 1.140276
617.60 1.103992
617.70 1.121784
617.80 1.150102
617.90 1.15765
618.00 1.211068
618.10 1.232072
618.20 1.243989
618.30 1.249494
618.40 1.18012
618.50 1.107297
618.60 1.090042
618.70 1.0757
618.80 1.039804
618.90 1.019234
619.00 1.007065
619.10 0.985195
619.20 0.9962753
619.30 1.011715
619.40 1.027279
619.50 1.010554
619.60 1.009383
619.70 1.013781
619.80 0.9863612
619.90 1.013184
620.00 1.060231
620.10 1.079157
620.20 1.061659
620.30 1.091992
620.40 1.103149
620.50 1.117354
620.60 1.140755
620.70 1.159987
620.80 1.14377
620.90 1.137645
621.00 1.136947
621.10 1.113441
621.20 1.101171
621.30 1.065313
621.40 1.029229
621.50 1.030206
621.60 1.017571
621.70 0.9926503
621.80 0.9857577
621.90 1.001873
622.00 1.012812
622.10 1.032305
622.20 1.037075
622.30 0.9977928
622.40 0.9330603
622.50 0.9073862
622.60 0.9256842
622.70 0.948784
622.80 0.9191336
622.90 0.8963667
623.00 0.9245647
623.10 0.9401088
623.20 0.9511646
623.30 0.956629
623.40 0.9531097
623.50 0.9430366
623.60 0.9911949
623.70 1.041072
623.80 1.049777
623.90 1.017351
624.00 0.9697883
624.10 0.9559894
624.20 0.9864336
624.30 1.038663
624.40 1.030317
624.50 0.9859832
624.60 0.9930229
624.70 1.045697
624.80 1.069459
624.90 1.098382
625.00 1.11505
625.10 1.134147
625.20 1.120331
625.30 1.127289
625.40 1.15181
625.50 1.105092
625.60 1.106094
625.70 1.140419
625.80 1.169312
625.90 1.193855
626.00 1.223297
626.10 1.225042
626.20 1.219379
626.30 1.265141
626.40 1.350332
626.50 1.369674
626.60 1.36248
626.70 1.362952
626.80 1.362083
626.90 1.338514
627.00 1.322371
627.10 1.340373
627.20 1.35504
627.30 1.369534
627.40 1.421317
627.50 1.471986
627.60 1.434773
627.70 1.376545
627.80 1.312878
627.90 1.281427
628.00 1.300593
628.10 1.392455
628.20 1.468979
628.30 1.474229
628.40 1.490281
628.50 1.561957
628.60 1.60734
628.70 1.630562
628.80 1.635854
628.90 1.684563
629.00 1.72031
629.10 1.693093
629.20 1.63842
629.30 1.65105
629.40 1.701205
629.50 1.736464
629.60 1.748838
629.70 1.739683
629.80 1.776609
629.90 1.81401
630.00 1.820744
630.10 1.944939
630.20 2.022965
630.30 1.996998
630.40 1.94641
630.50 1.983727
630.60 2.088988
630.70 2.138657
630.80 2.202938
630.90 2.230976
631.00 2.247875
631.10 2.243564
631.20 2.27563
631.30 2.35548
631.40 2.432072
631.50 2.483359
631.60 2.503405
631.70 2.526973
631.80 2.580726
631.90 2.62285
632.00 2.617295
632.10 2.583345
632.20 2.525848
632.30 2.463369
632.40 2.427068
632.50 2.436474
632.60 2.500679
632.70 2.55527
632.80 2.60181
632.90 2.632286
633.00 2.643328
633.10 2.678245
633.20 2.700295
633.30 2.745838
633.40 2.766186
633.50 2.810895
633.60 2.852496
633.70 2.873255
633.80 2.902746
633.90 2.929632
634.00 2.949477
634.10 3.015163
634.20 3.117831
634.30 3.188174
634.40 3.201508
634.50 3.200129
634.60 3.221783
634.70 3.241008
634.80 3.265976
634.90 3.338824
635.00 3.369979
635.10 3.328749
635.20 3.240654
635.30 3.138385
635.40 3.034103
635.50 2.945618
635.60 2.900805
635.70 2.865309
635.80 2.825341
635.90 2.782052
636.00 2.760316
636.10 2.730462
636.20 2.69452
636.30 2.715366
636.40 2.810833
636.50 2.911731
636.60 2.945111
636.70 2.835856
636.80 2.748142
636.90 2.780972
637.00 2.868817
637.10 2.929076
637.20 2.939348
637.30 2.955921
637.40 2.973541
637.50 2.955998
637.60 2.930207
637.70 2.932472
637.80 2.925672
637.90 2.912123
638.00 2.836235
638.10 2.685676
638.20 2.564772
638.30 2.515165
638.40 2.517668
638.50 2.571839
638.60 2.620036
638.70 2.614667
638.80 2.556887
638.90 2.527809
639.00 2.556028
639.10 2.630573
639.20 2.713969
639.30 2.783367
639.40 2.844969
639.50 2.948746
639.60 3.078329
639.70 3.202043
639.80 3.273596
639.90 3.280727
640.00 3.270155
640.10 3.254916
640.20 3.287639
640.30 3.368806
640.40 3.436822
640.50 3.490792
640.60 3.546889
640.70 3.594408
640.80 3.634723
640.90 3.650718
641.00 3.643041
641.10 3.649102
641.20 3.662688
641.30 3.634366
641.40 3.604701
641.50 3.571476
641.60 3.524437
641.70 3.482181
641.80 3.447369
641.90 3.391318
642.00 3.328924
642.10 3.300026
642.20 3.265012
642.30 3.200746
642.40 3.156065
642.50 3.208363
642.60 3.295871
642.70 3.335758
642.80 3.341024
642.90 3.348204
643.00 3.38975
643.10 3.458452
643.20 3.518206
643.30 3.52768
643.40 3.51603
643.50 3.532163
643.60 3.587119
643.70 3.604096
643.80 3.567163
643.90 3.514865
644.00 3.492348
644.10 3.550094
644.20 3.687545
644.30 3.821692
644.40 3.923091
644.50 3.985415
644.60 4.00002
644.70 3.943674
644.80 3.820182
644.90 3.716304
645.00 3.645233
645.10 3.593354
645.20 3.627196
645.30 3.743658
645.40 3.868024
645.50 3.915301
645.60 3.939008
645.70 3.956282
645.80 3.955905
645.90 3.970223
646.00 3.982648
646.10 3.978297
646.20 3.94551
646.30 3.906632
646.40 3.874767
646.50 3.919002
646.60 4.058498
646.70 4.222551
646.80 4.32547
646.90 4.36411
647.00 4.38717
647.10 4.435916
647.20 4.457308
647.30 4.469684
647.40 4.480421
647.50 4.499416
647.60 4.561691
647.70 4.603479
647.80 4.58373
647.90 4.48802
648.00 4.329422
648.10 4.139333
648.20 4.026542
648.30 3.997217
648.40 3.983983
648.50 3.926332
648.60 3.833305
648.70 3.805608
648.80 3.865577
648.90 3.975605
649.00 4.095839
649.10 4.217492
649.20 4.24713
649.30 4.160584
649.40 4.088723
649.50 4.077919
649.60 4.107085
649.70 4.174789
649.80 4.274242
649.90 4.380869
650.00 4.422519
650.10 4.492857
650.20 4.563565
650.30 4.639213
650.40 4.728193
650.50 4.805438
650.60 4.876505
650.70 4.950638
650.80 5.007515
650.90 5.006428
651.00 5.037193
651.10 5.130105
651.20 5.157492
651.30 5.07675
651.40 4.958566
651.50 4.875362
651.60 4.860111
651.70 4.900705
651.80 5.023419
651.90 5.131271
652.00 5.216825
652.10 5.30752
652.20 5.414694
652.30 5.510711
652.40 5.563451
652.50 5.570644
652.60 5.549767
652.70 5.571941
652.80 5.665491
652.90 5.780209
653.00 5.842206
653.10 5.842846
653.20 5.874972
653.30 5.940052
653.40 5.989211
653.50 6.077313
653.60 6.155806
653.70 6.213893
653.80 6.30013
653.90 6.406117
654.00 6.518102
654.10 6.593503
654.20 6.584329
654.30 6.465258
654.40 6.286426
654.50 6.067799
654.60 5.85658
654.70 5.728236
654.80 5.66458
654.90 5.576426
655.00 5.434571
655.10 5.25565
655.20 5.090033
655.30 5.000995
655.40 5.004673
655.50 5.063763
655.60 5.097774
655.70 5.156166
655.80 5.24591
655.90 5.347093
656.00 5.492965
656.10 5.853677
656.20 6.736808
656.30 7.963471
656.40 8.869261
656.50 8.707724
656.60 7.485554
656.70 5.938842
656.80 4.917201
656.90 4.577563
657.00 4.535745
657.10 4.518362
657.20 4.402512
657.30 4.251569
657.40 4.197834
657.50 4.243024
657.60 4.363132
657.70 4.488174
657.80 4.526895
657.90 4.440069
658.00 4.257753
658.10 4.113277
658.20 4.089613
658.30 4.169254
658.40 4.321374
658.50 4.453484
658.60 4.561795
658.70 4.677809
658.80 4.794489
658.90 4.906354
659.00 4.938718
659.10 4.888628
659.20 4.838152
659.30 4.727717
659.40 4.55196
659.50 4.363843
659.60 4.233828
659.70 4.197405
659.80 4.229141
659.90 4.287662
660.00 4.328679
660.10 4.303646
660.20 4.252757
660.30 4.276367
660.40 4.338404
660.50 4.378676
660.60 4.354793
660.70 4.304727
660.80 4.283343
660.90 4.309201
661.00 4.314325
661.10 4.321322
661.20 4.375335
661.30 4.46737
661.40 4.549113
661.50 4.538308
661.60 4.503079
661.70 4.435615
661.80 4.327533
661.90 4.185559
662.00 4.066729
662.10 4.022689
662.20 3.988149
662.30 3.945351
662.40 3.893
662.50 3.824387
662.60 3.699596
662.70 3.539599
662.80 3.410922
662.90 3.418599
663.00 3.548255
663.10 3.722
663.20 3.868051
663.30 3.96376
663.40 3.98838
663.50 3.889748
663.60 3.690734
663.70 3.456968
663.80 3.275997
663.90 3.232805
664.00 3.299011
664.10 3.388387
664.20 3.486859
664.30 3.584987
664.40 3.681542
664.50 3.733048
664.60 3.746761
664.70 3.755189
664.80 3.736278
664.90 3.638351
665.00 3.44439
665.10 3.186344
665.20 2.935856
665.30 2.747109
665.40 2.660634
665.50 2.683196
665.60 2.76451
665.70 2.8167
665.80 2.829498
665.90 2.843363
666.00 2.848779
666.10 2.883655
666.20 2.926592
666.30 2.98305
666.40 3.064881
666.50 3.117423
666.60 3.178638
666.70 3.261116
666.80 3.343689
666.90 3.379593
667.00 3.387098
667.10 3.402637
667.20 3.426488
667.30 3.451347
667.40 3.428228
667.50 3.385702
667.60 3.356866
667.70 3.360568
667.80 3.383568
667.90 3.359556
668.00 3.263402
668.10 3.064093
668.20 2.778253
668.30 2.529608
668.40 2.42504
668.50 2.450365
668.60 2.518245
668.70 2.590524
668.80 2.647597
668.90 2.696135
669.00 2.715581
669.10 2.730344
669.20 2.716235
669.30 2.672884
669.40 2.669452
669.50 2.689442
669.60 2.711322
669.70 2.764737
669.80 2.834404
669.90 2.885785
670.00 2.901537
670.10 2.906378
670.20 2.920107
670.30 2.968061
670.40 3.039403
670.50 3.081813
670.60 3.104111
670.70 3.128869
670.80 3.167798
670.90 3.210664
671.00 3.218686
671.10 3.196546
671.20 3.150817
671.30 3.11096
671.40 3.047059
671.50 2.902472
671.60 2.699731
671.70 2.500732
671.80 2.357476
671.90 2.246511
672.00 2.177928
672.10 2.169964
672.20 2.222204
672.30 2.28206
672.40 2.327969
672.50 2.363455
672.60 2.424538
672.70 2.502003
672.80 2.534667
672.90 2.553892
673.00 2.575789
673.10 2.599552
673.20 2.607132
673.30 2.590328
673.40 2.585452
673.50 2.607839
673.60 2.621117
673.70 2.658084
673.80 2.714298
673.90 2.773868
674.00 2.825213
674.10 2.844678
674.20 2.866684
674.30 2.90277
674.40 2.956542
674.50 2.993426
674.60 2.998979
674.70 2.928146
674.80 2.765681
674.90 2.5846
675.00 2.465639
675.10 2.431574
675.20 2.45563
675.30 2.507461
675.40 2.552159
675.50 2.594436
675.60 2.638548
675.70 2.66327
675.80 2.706754
675.90 2.74213
676.00 2.729119
676.10 2.717939
676.20 2.743348
676.30 2.812289
676.40 2.897569
676.50 2.948346
676.60 3.009135
676.70 3.087183
676.80 3.122807
676.90 3.135419
677.00 3.139446
677.10 3.134807
677.20 3.137922
677.30 3.155646
677.40 3.189136
677.50 3.222238
677.60 3.27926
677.70 3.333239
677.80 3.357301
677.90 3.338807
678.00 3.300762
678.10 3.2139
678.20 3.043884
678.30 2.857384
678.40 2.671285
678.50 2.526014
678.60 2.454116
678.70 2.456391
678.80 2.50453
678.90 2.553329
679.00 2.59878
679.10 2.635259
679.20 2.66336
679.30 2.688084
679.40 2.69484
679.50 2.715841
679.60 2.777681
679.70 2.836139
679.80 2.862527
679.90 2.855028
680.00 2.854622
680.10 2.885214
680.20 2.960099
680.30 3.029807
680.40 3.063235
680.50 3.04749
680.60 2.983738
680.70 2.918388
680.80 2.915077
680.90 2.995519
681.00 3.0524
681.10 3.068288
681.20 3.109192
681.30 3.163756
681.40 3.199953
681.50 3.180207
681.60 3.094596
681.70 2.977305
681.80 2.911714
681.90 2.918214
682.00 2.942021
682.10 2.982821
682.20 3.015116
682.30 3.010215
682.40 2.980927
682.50 2.979577
682.60 3.029708
682.70 3.086144
682.80 3.11496
682.90 3.170604
683.00 3.291015
683.10 3.353089
683.20 3.3189
683.30 3.227177
683.40 3.177963
683.50 3.227479
683.60 3.262141
683.70 3.24176
683.80 3.17324
683.90 3.114834
684.00 3.146415
684.10 3.24981
684.20 3.305358
684.30 3.321793
684.40 3.357242
684.50 3.394771
684.60 3.386612
684.70 3.324021
684.80 3.282294
684.90 3.269292
685.00 3.244818
685.10 3.168536
685.20 3.040338
685.30 2.943087
685.40 2.913132
685.50 2.93183
685.60 2.980966
685.70 3.014443
685.80 3.030681
685.90 3.046632
686.00 3.031562
686.10 3.007867
686.20 2.99185
686.30 2.989899
686.40 3.04796
686.50 3.15337
686.60 3.233052
686.70 3.250621
686.80 3.188611
686.90 3.090579
687.00 3.059712
687.10 3.088098
687.20 3.149033
687.30 3.219559
687.40 3.298307
687.50 3.403064
687.60 3.494762
687.70 3.550717
687.80 3.578038
687.90 3.598226
688.00 3.615693
688.10 3.589329
688.20 3.538023
688.30 3.499651
688.40 3.463618
688.50 3.398572
688.60 3.30397
688.70 3.227704
688.80 3.273673
688.90 3.426427
689.00 3.55252
689.10 3.585543
689.20 3.524411
689.30 3.47168
689.40 3.507572
689.50 3.603809
689.60 3.694965
689.70 3.723367
689.80 3.693842
689.90 3.669804
690.00 3.640891
690.10 3.524215
690.20 3.35702
690.30 3.290632
690.40 3.377325
690.50 3.538979
690.60 3.708335
690.70 3.863685
690.80 3.987022
690.90 4.103325
691.00 4.166322
691.10 4.132563
691.20 4.08596
691.30 4.097355
691.40 4.205591
691.50 4.272996
691.60 4.254376
691.70 4.173902
691.80 3.979441
691.90 3.716301
692.00 3.48563
692.10 3.42646
692.20 3.565936
692.30 3.829867
692.40 4.099783
692.50 4.318003
692.60 4.436923
692.70 4.436113
692.80 4.390772
692.90 4.36055
693.00 4.405379
693.10 4.520395
693.20 4.66238
693.30 4.76788
693.40 4.826126
693.50 4.838071
693.60 4.810252
693.70 4.808233
693.80 4.854907
693.90 4.890331
694.00 4.912855
694.10 4.939986
694.20 5.016162
694.30 5.188465
694.40 5.393439
694.50 5.548174
694.60 5.656705
694.70 5.756219
694.80 5.854822
694.90 5.954776
695.00 6.0001
695.10 5.988901
695.20 5.885055
695.30 5.707193
695.40 5.526733
695.50 5.401631
695.60 5.385805
695.70 5.413605
695.80 5.459576
695.90 5.471572
696.00 5.453438
696.10 5.436113
696.20 5.442489
696.30 5.511558
696.40 5.60618
696.50 5.709384
696.60 5.807011
696.70 5.868247
696.80 5.894028
696.90 5.910838
697.00 5.910311
697.10 5.861809
697.20 5.792123
697.30 5.732324
697.40 5.741367
697.50 5.824961
697.60 5.96509
697.70 6.125025
697.80 6.2487
697.90 6.323443
698.00 6.360599
698.10 6.347318
698.20 6.317409
698.30 6.343055
698.40 6.430703
698.50 6.529053
698.60 6.562653
698.70 6.539974
698.80 6.521219
698.90 6.479573
699.00 6.420633
699.10 6.315676
699.20 6.197293
699.30 6.166025
699.40 6.198374
699.50 6.246794
699.60 6.320224
699.70 6.399446
699.80 6.460418
699.90 6.473149
700.00 6.432103
700.10 6.430359
700.20 6.503203
700.30 6.616637
700.40 6.664802
700.50 6.587691
700.60 6.471747
700.70 6.465992
700.80 6.604575
700.90 6.801206
701.00 6.909841
701.10 6.905981
701.20 6.908475
701.30 7.037655
701.40 7.261291
701.50 7.399923
701.60 7.40142
701.70 7.321486
701.80 7.258574
701.90 7.284727
702.00 7.394538
702.10 7.565917
702.20 7.711672
702.30 7.684206
702.40 7.442423
702.50 7.134909
702.60 6.978835
702.70 7.086282
702.80 7.400852
702.90 7.848322
703.00 8.284083
703.10 8.510811
703.20 8.503736
703.30 8.403936
703.40 8.364401
703.50 8.519936
703.60 8.841498
703.70 9.166399
703.80 9.313572
703.90 9.286878
704.00 9.247484
704.10 9.332251
704.20 9.548436
704.30 9.770214
704.40 9.886385
704.50 9.926336
704.60 9.960126
704.70 10.00979
704.80 10.06017
704.90 10.08036
705.00 10.06263
705.10 10.01861
705.20 9.965622
705.30 9.750512
705.40 9.020765
705.50 7.691873
705.60 6.097694
705.70 4.847803
705.80 4.326468
705.90 4.328508
706.00 4.403787
706.10 4.293493
706.20 4.075341
706.30 3.943027
706.40 4.015937
706.50 4.216726
706.60 4.410977
706.70 4.543314
706.80 4.619638
706.90 4.711207
707.00 4.824624
707.10 4.931289
707.20 5.05458
707.30 5.181235
707.40 5.288582
707.50 5.331122
707.60 5.295153
707.70 5.272206
707.80 5.310462
707.90 5.378813
708.00 5.446118
708.10 5.525194
708.20 5.610067
708.30 5.665667
708.40 5.719836
708.50 5.777136
708.60 5.762668
708.70 5.54325
708.80 4.98649
708.90 4.186088
709.00 3.455702
709.10 3.061324
709.20 3.042078
709.30 3.180162
709.40 3.273151
709.50 3.24451
709.60 3.169678
709.70 3.157909
709.80 3.238718
709.90 3.368592
710.00 3.469627
710.10 3.5286
710.20 3.548849
710.30 3.533728
710.40 3.514779
710.50 3.535636
710.60 3.624368
710.70 3.769882
710.80 3.963382
710.90 4.177538
711.00 4.362617
711.10 4.514423
711.20 4.628639
711.30 4.689916
711.40 4.688399
711.50 4.627848
711.60 4.562313
711.70 4.529295
711.80 4.563147
711.90 4.697213
712.00 4.888827
712.10 5.066091
712.20 5.201316
712.30 5.250759
712.40 5.152229
712.50 4.811486
712.60 4.15441
712.70 3.349298
712.80 2.702396
712.90 2.417998
713.00 2.468541
713.10 2.611638
713.20 2.645234
713.30 2.565646
713.40 2.500183
713.50 2.519237
713.60 2.601112
713.70 2.686026
713.80 2.737032
713.90 2.731993
714.00 2.716405
714.10 2.751113
714.20 2.856571
714.30 3.010439
714.40 3.135481
714.50 3.18072
714.60 3.168646
714.70 3.16216
714.80 3.188031
714.90 3.246367
715.00 3.302244
715.10 3.33004
715.20 3.358693
715.30 3.410516
715.40 3.495886
715.50 3.634816
715.60 3.78433
715.70 3.881794
715.80 3.855381
715.90 3.701548
716.00 3.505369
716.10 3.351347
716.20 3.314485
716.30 3.358328
716.40 3.411877
716.50 3.437153
716.60 3.439616
716.70 3.466111
716.80 3.50603
716.90 3.54029
717.00 3.597131
717.10 3.683029
717.20 3.805605
717.30 3.922167
717.40 3.973574
717.50 3.968982
717.60 3.938089
717.70 3.916641
717.80 3.929714
717.90 3.983912
718.00 4.07246
718.10 4.171403
718.20 4.250525
718.30 4.312084
718.40 4.396285
718.50 4.512826
718.60 4.63521
718.70 4.721743
718.80 4.756034
718.90 4.788357
719.00 4.841941
719.10 4.874392
719.20 4.875914
719.30 4.871807
719.40 4.886609
719.50 4.914121
719.60 4.880705
719.70 4.719927
719.80 4.441925
719.90 4.163123
720.00 4.025357
720.10 4.017074
720.20 4.052391
720.30 4.06945
720.40 4.048076
720.50 4.039101
720.60 4.06583
720.70 4.074703
720.80 4.115293
720.90 4.217422
721.00 4.304589
721.10 4.347229
721.20 4.380309
721.30 4.465967
721.40 4.573595
721.50 4.630563
721.60 4.648526
721.70 4.700434
721.80 4.811367
721.90 4.900093
722.00 4.937303
722.10 4.95517
722.20 4.991173
722.30 5.064582
722.40 5.161687
722.50 5.297919
722.60 5.428032
722.70 5.528311
722.80 5.620974
722.90 5.664772
723.00 5.627604
723.10 5.498695
723.20 5.328794
723.30 5.245187
723.40 5.313199
723.50 5.491753
723.60 5.684932
723.70 5.822391
723.80 5.891132
723.90 5.926986
724.00 5.932879
724.10 5.941255
724.20 5.970872
724.30 5.953522
724.40 6.032519
724.50 6.189888
724.60 6.339406
724.70 6.457806
724.80 6.482571
724.90 6.583694
725.00 6.768389
725.10 6.88156
725.20 6.881195
725.30 6.820886
725.40 6.794497
725.50 6.884541
725.60 7.042224
725.70 7.157832
725.80 7.190871
725.90 7.162069
726.00 7.14559
726.10 7.20017
726.20 7.317619
726.30 7.476901
726.40 7.662676
726.50 7.796008
726.60 7.833177
726.70 7.818789
726.80 7.839518
726.90 7.911884
727.00 7.882156
727.10 7.631273
727.20 7.27159
727.30 7.077241
727.40 7.190055
727.50 7.492265
727.60 7.778245
727.70 7.931131
727.80 7.888747
727.90 7.735938
728.00 7.565354
728.10 7.518344
728.20 7.672204
728.30 7.825878
728.40 7.936456
728.50 8.073198
728.60 8.226522
728.70 8.389414
728.80 8.462138
728.90 8.461487
729.00 8.548084
729.10 8.654351
729.20 8.70469
729.30 8.717954
729.40 8.720997
729.50 8.777215
729.60 8.900422
729.70 9.063085
729.80 9.186588
729.90 9.223499
730.00 9.190155
730.10 9.166551
730.20 9.286473
730.30 9.491238
730.40 9.624514
730.50 9.655643
730.60 9.65208
730.70 9.698439
730.80 9.808616
730.90 9.940405
731.00 10.02404
731.10 10.01766
731.20 9.995168
731.30 10.06301
731.40 10.22461
731.50 10.38449
731.60 10.53227
731.70 10.63355
731.80 10.6646
731.90 10.65781
732.00 10.59192
732.10 10.59024
732.20 10.70902
732.30 10.84688
732.40 10.90823
732.50 10.8425
732.60 10.66407
732.70 10.44436
732.80 10.33344
732.90 10.51023
733.00 10.89095
733.10 11.21346
733.20 11.31197
733.30 11.22487
733.40 11.1977
733.50 11.31384
733.60 11.4873
733.70 11.67306
733.80 11.82779
733.90 11.95046
734.00 12.08266
734.10 12.17581
734.20 12.2276
734.30 12.17174
734.40 11.82992
734.50 11.3939
734.60 11.1788
734.70 11.22589
734.80 11.44349
734.90 11.66363
735.00 11.83631
735.10 11.97073
735.20 12.04899
735.30 12.10367
735.40 12.13287
735.50 12.0753
735.60 11.91271
735.70 11.72502
735.80 11.6456
735.90 11.77554
736.00 12.02113
736.10 12.21415
736.20 12.28507
736.30 12.26292
736.40 12.30339
736.50 12.43735
736.60 12.57382
736.70 12.6843
736.80 12.77009
736.90 12.86219
737.00 13.033
737.10 13.19707
737.20 13.19842
737.30 13.06359
737.40 12.92155
737.50 12.8554
737.60 12.84057
737.70 12.84914
737.80 12.92406
737.90 13.06801
738.00 13.21023
738.10 13.28259
738.20 13.27369
738.30 13.2198
738.40 13.19102
738.50 13.24344
738.60 13.35086
738.70 13.45448
738.80 13.53832
738.90 13.62621
739.00 13.72296
739.10 13.78829
739.20 13.76019
739.30 13.59802
739.40 13.36529
739.50 13.18069
739.60 13.11867
739.70 13.2037
739.80 13.36729
739.90 13.49147
740.00 13.5195
740.10 13.51739
740.20 13.58902
740.30 13.73083
740.40 13.81491
740.50 13.7054
740.60 13.44408
740.70 13.18847
740.80 13.10545
740.90 13.24077
741.00 13.46088
741.10 13.67867
741.20 13.81439
741.30 13.85368
741.40 13.88796
741.50 13.94173
741.60 13.96953
741.70 13.8772
741.80 13.65103
741.90 13.40803
742.00 13.3099
742.10 13.38046
742.20 13.51359
742.30 13.64109
742.40 13.72672
742.50 13.80036
742.60 13.88416
742.70 13.9534
742.80 14.01847
742.90 14.09966
743.00 14.19098
743.10 14.26347
743.20 14.28589
743.30 14.24105
743.40 14.11651
743.50 13.93793
743.60 13.71567
743.70 13.57933
743.80 13.70604
743.90 14.0135
744.00 14.32167
744.10 14.44579
744.20 14.29396
744.30 13.99885
744.40 13.82103
744.50 13.81677
744.60 13.85726
744.70 13.86122
744.80 13.78851
744.90 13.695
745.00 13.6694
745.10 13.76052
745.20 13.94006
745.30 14.09221
745.40 14.15595
745.50 14.10649
745.60 13.98719
745.70 13.93082
745.80 13.96876
745.90 14.04094
746.00 14.09413
746.10 14.09333
746.20 14.0831
746.30 14.10758
746.40 14.14165
746.50 14.18804
746.60 14.25967
746.70 14.31307
746.80 14.31918
746.90 14.33178
747.00 14.44235
747.10 14.67776
747.20 14.85514
747.30 14.75281
747.40 14.43755
747.50 14.18191
747.60 14.12622
747.70 14.29158
747.80 14.53755
747.90 14.65206
748.00 14.62062
748.10 14.50962
748.20 14.3914
748.30 14.42354
748.40 14.62945
748.50 14.80687
748.60 14.83445
748.70 14.69546
748.80 14.48747
748.90 14.3872
749.00 14.43303
749.10 14.55018
749.20 14.65245
749.30 14.66547
749.40 14.55648
749.50 14.3681
749.60 14.22765
749.70 14.25421
749.80 14.48777
749.90 14.86473
750.00 15.22391
750.10 15.41213
750.20 15.42536
750.30 15.37111
750.40 15.3474
750.50 15.35573
750.60 15.29048
750.70 15.08545
750.80 14.88801
750.90 14.9335
751.00 15.26252
751.10 15.64352
751.20 15.77801
751.30 15.6239
751.40 15.39276
751.50 15.33448
751.60 15.48584
751.70 15.67725
751.80 15.75819
751.90 15.67483
752.00 15.47754
752.10 15.27554
752.20 15.23656
752.30 15.4061
752.40 15.64505
752.50 15.77492
752.60 15.60241
752.70 15.16027
752.80 14.74987
752.90 14.60674
753.00 14.77877
753.10 15.15086
753.20 15.54755
753.30 15.84351
753.40 15.90861
753.50 15.7268
753.60 15.51714
753.70 15.51326
753.80 15.76243
753.90 16.13765
754.00 16.46436
754.10 16.64952
754.20 16.68539
754.30 16.59897
754.40 16.53827
754.50 16.571
754.60 16.6245
754.70 16.63519
754.80 16.53583
754.90 16.41085
755.00 16.40997
755.10 16.52358
755.20 16.63182
755.30 16.65085
755.40 16.58412
755.50 16.48791
755.60 16.43931
755.70 16.45893
755.80 16.529
755.90 16.63839
756.00 16.74754
756.10 16.81544
756.20 16.79148
756.30 16.67042
756.40 16.53227
756.50 16.40813
756.60 16.22962
756.70 15.98717
756.80 15.75343
756.90 15.59915
757.00 15.6323
757.10 15.93356
757.20 16.41996
757.30 16.90458
757.40 17.22212
757.50 17.2675
757.60 17.09041
757.70 16.87166
757.80 16.67545
757.90 16.52134
758.00 16.53116
758.10 16.77964
758.20 17.17583
758.30 17.52407
758.40 17.68812
758.50 17.68268
758.60 17.58802
758.70 17.34596
758.80 16.71053
758.90 15.5288
759.00 13.88822
759.10 12.23894
759.20 11.14472
759.30 10.83467
759.40 11.18631
759.50 11.7179
759.60 12.02941
759.70 12.08522
759.80 12.09373
759.90 12.29013
760.00 12.64271
760.10 12.80904
760.20 12.54848
760.30 12.14861
760.40 12.0792
760.50 12.28625
760.60 12.46787
760.70 12.54657
760.80 12.52288
760.90 12.44453
761.00 12.37719
761.10 12.40012
761.20 12.68747
761.30 13.27438
761.40 13.83597
761.50 14.07025
761.60 13.98921
761.70 13.86242
761.80 14.02924
761.90 14.44595
762.00 14.79485
762.10 14.84018
762.20 14.63538
762.30 14.40375
762.40 14.28664
762.50 14.31521
762.60 14.19443
762.70 13.64037
762.80 12.68783
762.90 11.52368
763.00 10.52961
763.10 9.91112
763.20 9.660604
763.30 9.782649
763.40 10.13275
763.50 10.39704
763.60 10.41713
763.70 10.33956
763.80 10.32532
763.90 10.45622
764.00 10.52341
764.10 10.35003
764.20 10.26757
764.30 10.46832
764.40 10.66457
764.50 10.66279
764.60 10.48651
764.70 10.36783
764.80 10.56234
764.90 10.76374
765.00 10.63226
765.10 10.34927
765.20 10.14766
765.30 10.14461
765.40 10.19112
765.50 9.985879
765.60 9.688141
765.70 9.562842
765.80 9.605763
765.90 9.635385
766.00 9.27468
766.10 8.476727
766.20 7.515477
766.30 6.543967
766.40 5.571289
766.50 4.553826
766.60 3.661422
766.70 3.265278
766.80 3.530157
766.90 4.296257
767.00 5.168268
767.10 5.777968
767.20 6.067871
767.30 6.150424
767.40 6.212398
767.50 6.382375
767.60 6.641372
767.70 6.926761
767.80 7.175631
767.90 7.354689
768.00 7.489624
768.10 7.634592
768.20 7.806221
768.30 7.954731
768.40 8.042264
768.50 8.068878
768.60 8.066064
768.70 8.098763
768.80 8.180183
768.90 8.268938
769.00 8.322236
769.10 8.316335
769.20 8.278261
769.30 8.219389
769.40 8.09643
769.50 7.843317
769.60 7.428053
769.70 6.79631
769.80 5.910547
769.90 4.902445
770.00 4.089046
770.10 3.815069
770.20 4.215272
770.30 5.087012
770.40 6.008949
770.50 6.692858
770.60 7.048836
770.70 7.167496
770.80 7.252774
770.90 7.417732
771.00 7.684949
771.10 8.011217
771.20 8.335642
771.30 8.591991
771.40 8.708708
771.50 8.694508
771.60 8.628939
771.70 8.584853
771.80 8.650604
771.90 8.785324
772.00 8.846608
772.10 8.910554
772.20 9.05173
772.30 9.212506
772.40 9.343602
772.50 9.45279
772.60 9.603334
772.70 9.80244
772.80 10.01953
772.90 10.19771
773.00 10.30903
773.10 10.3634
773.20 10.38092
773.30 10.41589
773.40 10.49844
773.50 10.6095
773.60 10.69823
773.70 10.75231
773.80 10.80854
773.90 10.91042
774.00 11.07049
774.10 11.17966
774.20 11.12159
774.30 10.87314
774.40 10.46685
774.50 10.02505
774.60 9.672529
774.70 9.462719
774.80 9.336838
774.90 9.162225
775.00 8.875653
775.10 8.54643
775.20 8.304998
775.30 8.248481
775.40 8.354903
775.50 8.499893
775.60 8.656818
775.70 8.796292
775.80 8.822917
775.90 8.786779
776.00 8.819154
776.10 8.949912
776.20 9.082357
776.30 9.090297
776.40 8.982669
776.50 8.866491
776.60 8.856946
776.70 9.027823
776.80 9.306318
776.90 9.561391
777.00 9.717219
777.10 9.763778
777.20 9.778479
777.30 9.84228
777.40 9.939426
777.50 10.03336
777.60 10.10911
777.70 10.14018
777.80 10.15491
777.90 10.18179
778.00 10.18948
778.10 10.13798
778.20 9.985634
778.30 9.721593
778.40 9.404746
778.50 9.097713
778.60 8.906837
778.70 8.896884
778.80 8.999522
778.90 9.151374
779.00 9.30097
779.10 9.450871
779.20 9.656543
779.30 9.873981
779.40 10.02061
779.50 10.11401
779.60 10.17227
779.70 10.17335
779.80 10.09207
779.90 9.899898
780.00 9.674963
780.10 9.472406
780.20 9.388171
780.30 9.608585
780.40 10.10124
780.50 10.65591
780.60 11.10489
780.70 11.37507
780.80 11.51817
780.90 11.59768
781.00 11.5552
781.10 11.42489
781.20 11.34101
781.30 11.36411
781.40 11.49595
781.50 11.69623
781.60 11.89736
781.70 12.02836
781.80 12.08013
781.90 12.06206
782.00 11.94752
782.10 11.70981
782.20 11.3684
782.30 11.04172
782.40 10.86252
782.50 10.80554
782.60 10.81273
782.70 10.81025
782.80 10.68442
782.90 10.38794
783.00 9.95403
783.10 9.594735
783.20 9.511214
783.30 9.668978
783.40 9.9279
783.50 10.17432
783.60 10.36815
783.70 10.49176
783.80 10.5415
783.90 10.55331
784.00 10.58711
784.10 10.64914
784.20 10.67639
784.30 10.67998
784.40 10.74249
784.50 10.89456
784.60 11.10116
784.70 11.27376
784.80 11.36149
784.90 11.36192
785.00 11.30895
785.10 11.29129
785.20 11.29362
785.30 11.32052
785.40 11.44559
785.50 11.54028
785.60 11.51637
785.70 11.49194
785.80 11.51994
785.90 11.61984
786.00 11.71896
786.10 11.68696
786.20 11.50162
786.30 11.24152
786.40 11.07277
786.50 11.02588
786.60 11.08672
786.70 11.25434
786.80 11.38704
786.90 11.46522
787.00 11.53226
787.10 11.53723
787.20 11.47454
787.30 11.36182
787.40 11.28228
787.50 11.31948
787.60 11.49572
787.70 11.78791
787.80 12.05138
787.90 12.20422
788.00 12.28952
788.10 12.34118
788.20 12.44219
788.30 12.6022
788.40 12.72329
788.50 12.77678
788.60 12.74802
788.70 12.681
788.80 12.70385
788.90 12.84377
789.00 13.04741
789.10 13.18454
789.20 13.16789
789.30 13.10047
789.40 13.08284
789.50 13.11733
789.60 13.15328
789.70 13.1227
789.80 12.99213
789.90 12.79574
790.00 12.58145
790.10 12.39406
790.20 12.30537
790.30 12.365
790.40 12.56268
790.50 12.80205
790.60 12.95355
790.70 12.88139
790.80 12.56025
790.90 12.12535
791.00 11.72656
791.10 11.50907
791.20 11.46153
791.30 11.49682
791.40 11.65265
791.50 11.87071
791.60 12.05101
791.70 12.14686
791.80 12.1023
791.90 11.98581
792.00 11.91343
792.10 11.95156
792.20 12.05073
792.30 12.15282
792.40 12.27329
792.50 12.34758
792.60 12.34648
792.70 12.34467
792.80 12.37654
792.90 12.46928
793.00 12.63461
793.10 12.85351
793.20 13.12812
793.30 13.41331
793.40 13.59113
793.50 13.65432
793.60 13.6659
793.70 13.62974
793.80 13.5604
793.90 13.44911
794.00 13.26967
794.10 13.03403
794.20 12.80149
794.30 12.69437
794.40 12.7921
794.50 13.00502
794.60 13.11146
794.70 12.91527
794.80 12.47266
794.90 12.0898
795.00 12.02199
795.10 12.34995
795.20 12.88562
795.30 13.37809
795.40 13.749
795.50 13.95704
795.60 14.04355
795.70 14.10142
795.80 14.13077
795.90 14.13057
796.00 14.06233
796.10 13.85952
796.20 13.63134
796.30 13.54017
796.40 13.64935
796.50 13.95959
796.60 14.25761
796.70 14.31568
796.80 14.25794
796.90 14.29082
797.00 14.45723
797.10 14.66469
797.20 14.77564
797.30 14.78963
797.40 14.78841
797.50 14.76557
797.60 14.67827
797.70 14.56187
797.80 14.49108
797.90 14.49016
798.00 14.52613
798.10 14.52546
798.20 14.41921
798.30 14.24961
798.40 14.1372
798.50 14.12901
798.60 14.15277
798.70 14.10689
798.80 13.96603
798.90 13.81985
799.00 13.78719
799.10 13.94052
799.20 14.25781
799.30 14.58337
799.40 14.77477
799.50 14.76254
799.60 14.55054
799.70 14.31765
799.80 14.21824
799.90 14.24489
800.00 14.36021
800.10 14.52723
800.20 14.68849
800.30 14.8167
800.40 14.91009
800.50 14.9543
800.60 14.97596
800.70 15.02483
800.80 15.10416
800.90 15.18692
801.00 15.26817
801.10 15.35042
801.20 15.44478
801.30 15.55888
801.40 15.68418
801.50 15.80933
801.60 15.88674
801.70 15.91332
801.80 15.92417
801.90 15.94232
802.00 16.00839
802.10 16.05031
802.20 15.96876
802.30 15.83135
802.40 15.7672
802.50 15.85062
802.60 16.0389
802.70 16.19741
802.80 16.28385
802.90 16.34548
803.00 16.42017
803.10 16.53294
803.20 16.66166
803.30 16.76989
803.40 16.82118
803.50 16.82306
803.60 16.81261
803.70 16.77305
803.80 16.71598
803.90 16.69675
804.00 16.72512
804.10 16.77919
804.20 16.8451
804.30 16.93152
804.40 17.05
804.50 17.18236
804.60 17.26771
804.70 17.21549
804.80 17.05721
804.90 16.95997
805.00 17.04683
805.10 17.34041
805.20 17.75626
805.30 18.12634
805.40 18.33014
805.50 18.39749
805.60 18.39847
805.70 18.35548
805.80 18.30906
805.90 18.30735
806.00 18.37439
806.10 18.49725
806.20 18.64817
806.30 18.75354
806.40 18.6987
806.50 18.50685
806.60 18.35387
806.70 18.3145
806.80 18.32966
806.90 18.32894
807.00 18.26984
807.10 18.19257
807.20 18.1977
807.30 18.32489
807.40 18.52345
807.50 18.72866
807.60 18.87405
807.70 18.91167
807.80 18.92467
807.90 18.99732
808.00 19.085
808.10 19.14333
808.20 19.17879
808.30 19.23602
808.40 19.34567
808.50 19.47352
808.60 19.58046
808.70 19.63535
808.80 19.6173
808.90 19.56519
809.00 19.53615
809.10 19.57703
809.20 19.70592
809.30 19.83519
809.40 19.87314
809.50 19.81788
809.60 19.71254
809.70 19.62439
809.80 19.59647
809.90 19.61017
810.00 19.62957
810.10 19.65569
810.20 19.69227
810.30 19.70823
810.40 19.67965
810.50 19.61212
810.60 19.55579
810.70 19.5793
810.80 19.72507
810.90 19.97575
811.00 20.19552
811.10 20.25937
811.20 20.22569
811.30 20.21371
811.40 20.26958
811.50 20.32392
811.60 20.20231
811.70 19.88659
811.80 19.57738
811.90 19.50353
812.00 19.75243
812.10 20.16332
812.20 20.51834
812.30 20.70013
812.40 20.72253
812.50 20.71886
812.60 20.77063
812.70 20.86906
812.80 20.97842
812.90 21.05199
813.00 21.06323
813.10 21.02651
813.20 20.98523
813.30 20.96522
813.40 20.97199
813.50 21.01621
813.60 21.07293
813.70 21.13477
813.80 21.26125
813.90 21.42963
814.00 21.53338
814.10 21.52835
814.20 21.38278
814.30 21.13227
814.40 20.90595
814.50 20.78269
814.60 20.78592
814.70 20.86614
814.80 20.92497
814.90 20.91062
815.00 20.83795
815.10 20.82784
815.20 20.94446
815.30 21.04925
815.40 21.05135
815.50 20.986
815.60 20.89778
815.70 20.85773
815.80 20.87022
815.90 20.84602
816.00 20.75001
816.10 20.60125
816.20 20.44685
816.30 20.37373
816.40 20.43319
816.50 20.61142
816.60 20.88634
816.70 21.17704
816.80 21.35885
816.90 21.39855
817.00 21.30587
817.10 21.1501
817.20 21.05618
817.30 21.02786
817.40 21.04627
817.50 21.06296
817.60 20.93491
817.70 20.64281
817.80 20.28141
817.90 19.91208
818.00 19.54149
818.10 18.87643
818.20 17.55316
818.30 15.62281
818.40 13.60124
818.50 12.36841
818.60 12.51177
818.70 13.88772
818.80 15.75032
818.90 17.21525
819.00 17.97313
819.10 18.1673
819.20 17.84673
819.30 16.889
819.40 15.25197
819.50 13.22231
819.60 11.55271
819.70 10.95465
819.80 11.56416
819.90 13.03168
820.00 14.70669
820.10 16.08614
820.20 17.13848
820.30 17.97264
820.40 18.56689
820.50 18.87748
820.60 18.87642
820.70 18.6574
820.80 18.46498
820.90 18.46441
821.00 18.70945
821.10 19.07609
821.20 19.37415
821.30 19.52921
821.40 19.53471
821.50 19.4722
821.60 19.44987
821.70 19.47483
821.80 19.50771
821.90 19.54041
822.00 19.57555
822.10 19.6279
822.20 19.72986
822.30 19.84518
822.40 19.95973
822.50 20.14424
822.60 20.34549
822.70 20.46513
822.80 20.51142
822.90 20.50567
823.00 20.56472
823.10 20.78612
823.20 20.99237
823.30 20.99343
823.40 20.76705
823.50 20.44445
823.60 20.29621
823.70 20.41463
823.80 20.70159
823.90 21.05974
824.00 21.3793
824.10 21.5871
824.20 21.63435
824.30 21.52017
824.40 21.30256
824.50 21.13432
824.60 21.1925
824.70 21.4698
824.80 21.86091
824.90 22.20175
825.00 22.31452
825.10 22.13272
825.20 21.7342
825.30 21.29848
825.40 20.95139
825.50 20.69894
825.60 20.45212
825.70 20.14625
825.80 19.89378
825.90 19.89429
826.00 20.22275
826.10 20.74768
826.20 21.21667
826.30 21.47252
826.40 21.56439
826.50 21.6158
826.60 21.71584
826.70 21.83457
826.80 21.87051
826.90 21.81281
827.00 21.66029
827.10 21.37404
827.20 20.93418
827.30 20.40768
827.40 19.96146
827.50 19.75295
827.60 19.80949
827.70 19.97897
827.80 20.16931
827.90 20.40256
828.00 20.57351
828.10 20.57524
828.20 20.41413
828.30 20.18074
828.40 20.0125
828.50 20.00594
828.60 20.14832
828.70 20.20511
828.80 20.02167
828.90 19.70172
829.00 19.26721
829.10 18.87696
829.20 18.80322
829.30 18.94016
829.40 19.09936
829.50 19.20456
829.60 19.21528
829.70 19.28361
829.80 19.46687
829.90 19.61985
830.00 19.12556
830.10 18.96145
830.20 18.79734
830.30 18.53957
830.40 18.28179
830.50 18.12617
830.60 17.97055
830.70 18.15895
830.80 18.34735
830.90 18.68884
831.00 19.03032
831.10 19.17528
831.20 19.32024
831.30 19.20424
831.40 19.08823
831.50 19.13743
831.60 19.18663
831.70 19.35794
831.80 19.52926
831.90 19.67874
832.00 19.82822
832.10 19.82455
832.20 19.82087
832.30 19.90456
832.40 19.98825
832.50 19.98121
832.60 19.97418
832.70 19.52144
832.80 19.06871
832.90 18.90448
833.00 18.74025
833.10 19.23057
833.20 19.72089
833.30 19.88325
833.40 20.0456
833.50 19.62035
833.60 19.19509
833.70 19.0154
833.80 18.8357
833.90 19.10132
834.00 19.36693
834.10 19.6257
834.20 19.88447
834.30 19.96093
834.40 20.03739
834.50 19.86037
834.60 19.68336
834.70 19.36264
834.80 19.04193
834.90 18.94364
835.00 18.84535
835.10 19.0778
835.20 19.31024
835.30 19.33994
835.40 19.36964
835.50 19.34706
835.60 19.32449
835.70 19.48823
835.80 19.65196
835.90 19.71587
836.00 19.77978
836.10 19.84384
836.20 19.90791
836.30 19.72141
836.40 19.53492
836.50 19.37556
836.60 19.2162
836.70 19.43925
836.80 19.6623
836.90 20.03235
837.00 20.4024
837.10 20.4574
837.20 20.51239
837.30 20.17405
837.40 19.8357
837.50 19.31644
837.60 18.79718
837.70 18.59689
837.80 18.3966
837.90 18.49926
838.00 18.60193
838.10 18.77657
838.20 18.95121
838.30 18.76702
838.40 18.58284
838.50 18.41254
838.60 18.24224
838.70 17.9257
838.80 17.60915
838.90 17.31382
839.00 17.01848
839.10 17.43415
839.20 17.84982
839.30 18.26681
839.40 18.6838
839.50 18.69852
839.60 18.71324
839.70 18.7073
839.80 18.70135
839.90 18.9809
840.00 19.26044
840.10 19.28192
840.20 19.4229
840.30 19.58601
840.40 19.73782
840.50 19.85676
840.60 19.97771
840.70 20.09924
840.80 20.21863
840.90 20.30703
841.00 20.26581
841.10 20.24282
841.20 20.08077
841.30 19.81578
841.40 19.68409
841.50 19.81786
841.60 19.99368
841.70 20.29874
841.80 20.65547
841.90 20.50561
842.00 20.04269
842.10 19.47007
842.20 19.05653
842.30 18.76761
842.40 18.88503
842.50 19.01182
842.60 18.89856
842.70 18.70644
842.80 18.47911
842.90 18.39611
843.00 18.42948
843.10 18.58617
843.20 18.72259
843.30 18.10425
843.40 17.16974
843.50 15.98656
843.60 14.80954
843.70 13.78444
843.80 14.1356
843.90 14.53886
844.00 15.27729
844.10 16.01091
844.20 16.17417
844.30 15.60313
844.40 14.88379
844.50 14.03133
844.60 13.23588
844.70 13.13359
844.80 13.25811
844.90 13.56749
845.00 13.86224
845.10 14.0233
845.20 13.48521
845.30 12.88928
845.40 12.17963
845.50 11.52538
845.60 11.26961
845.70 11.30037
845.80 11.37887
845.90 11.62639
846.00 11.86614
846.10 12.03574
846.20 12.1888
846.30 12.34241
846.40 12.40076
846.50 12.30196
846.60 11.94347
846.70 11.59389
846.80 11.50102
846.90 11.52559
847.00 11.62261
847.10 11.60711
847.20 11.53673
847.30 11.58201
847.40 11.69251
847.50 11.86807
847.60 12.02388
847.70 12.23804
847.80 12.48278
847.90 12.60554
848.00 12.60717
848.10 12.6332
848.20 12.62615
848.30 12.60007
848.40 12.66601
848.50 12.80069
848.60 12.97158
848.70 13.17471
848.80 13.34251
848.90 13.37105
849.00 13.38398
849.10 13.56785
849.20 13.82161
849.30 13.99026
849.40 13.93772
849.50 13.82812
849.60 13.53751
849.70 13.24199
849.80 13.01688
849.90 12.83567
850.00 12.86494
850.10 13.15591
850.20 13.45844
850.30 13.5665
850.40 13.60943
850.50 13.38014
850.60 13.07484
850.70 12.72623
850.80 12.38025
850.90 12.09364
851.00 12.3512
851.10 12.65626
851.20 12.91639
851.30 13.12112
851.40 13.10807
851.50 12.89325
851.60 12.66576
851.70 12.40388
851.80 12.12187
851.90 11.92201
852.00 11.79472
852.10 11.79795
852.20 11.86916
852.30 11.94163
852.40 12.1944
852.50 12.49329
852.60 12.79944
852.70 13.0554
852.80 13.25452
852.90 13.36804
853.00 13.4403
853.10 13.53302
853.20 13.63154
853.30 13.75267
853.40 13.88515
853.50 13.99652
853.60 14.0707
853.70 14.09521
853.80 14.0716
853.90 14.10062
854.00 14.17414
854.10 14.20886
854.20 14.10009
854.30 13.9873
854.40 13.93771
854.50 14.01122
854.60 14.15661
854.70 14.46985
854.80 14.76425
854.90 14.95169
855.00 15.12589
855.10 15.3135
855.20 15.46271
855.30 15.59285
855.40 15.67236
855.50 15.75608
855.60 15.80117
855.70 15.81761
855.80 15.75896
855.90 15.54813
856.00 15.28774
856.10 14.93299
856.20 14.58068
856.30 14.58625
856.40 14.74455
856.50 15.002
856.60 15.36286
856.70 15.71924
856.80 15.82616
856.90 15.90636
857.00 15.80821
857.10 15.62806
857.20 15.38786
857.30 15.21693
857.40 15.11081
857.50 15.19374
857.60 15.29989
857.70 15.48108
857.80 15.66523
857.90 15.88728
858.00 16.02936
858.10 16.03649
858.20 15.88641
858.30 15.77445
858.40 15.78657
858.50 15.7897
858.60 15.79007
858.70 15.8662
858.80 15.99774
858.90 16.174
859.00 16.32102
859.10 16.30084
859.20 16.22871
859.30 16.14746
859.40 16.06852
859.50 16.04893
859.60 16.21305
859.70 16.38102
859.80 16.4763
859.90 16.54386
860.00 16.59432
860.10 16.65178
860.20 16.75228
860.30 16.91839
860.40 17.05652
860.50 17.03193
860.60 16.92749
860.70 16.95076
860.80 17.10157
860.90 17.22549
861.00 17.2377
861.10 17.17442
861.20 16.87025
861.30 16.55372
861.40 16.36967
861.50 16.25897
861.60 16.22154
861.70 16.17904
861.80 16.09846
861.90 16.06237
862.00 16.03815
862.10 16.15396
862.20 16.30275
862.30 16.44076
862.40 16.4691
862.50 16.37671
862.60 16.17738
862.70 16.00902
862.80 16.0655
862.90 16.17012
863.00 16.14974
863.10 16.08038
863.20 16.01121
863.30 16.0783
863.40 16.18793
863.50 16.36787
863.60 16.51009
863.70 16.4937
863.80 16.45476
863.90 16.47278
864.00 16.4655
864.10 16.46013
864.20 16.6372
864.30 16.84873
864.40 16.98201
864.50 17.03626
864.60 16.96794
864.70 16.71773
864.80 16.46981
864.90 16.44435
865.00 16.50292
865.10 16.64484
865.20 16.77221
865.30 16.8721
865.40 17.05239
865.50 17.26813
865.60 17.43761
865.70 17.58956
865.80 17.61459
865.90 17.56823
866.00 17.44935
866.10 17.16797
866.20 16.84079
866.30 16.61667
866.40 16.43244
866.50 16.60317
866.60 16.89301
866.70 17.25469
866.80 17.57846
866.90 17.81259
867.00 17.79097
867.10 17.75785
867.20 17.69048
867.30 17.59214
867.40 17.63373
867.50 17.66445
867.60 17.66927
867.70 17.79064
867.80 17.93441
867.90 18.16443
868.00 18.35969
868.10 18.37776
868.20 18.18365
868.30 17.94141
868.40 17.87868
868.50 17.90636
868.60 18.00492
868.70 18.01143
868.80 17.73275
868.90 17.30977
869.00 16.88873
869.10 16.59854
869.20 16.27516
869.30 15.93725
869.40 15.59525
869.50 15.30349
869.60 15.14509
869.70 15.14554
869.80 15.32706
869.90 15.48669
870.00 15.69191
870.10 15.93964
870.20 16.17501
870.30 16.36849
870.40 16.57394
870.50 16.72957
870.60 16.8943
870.70 16.98952
870.80 17.07055
870.90 16.89455
871.00 16.60924
871.10 16.26681
871.20 15.97789
871.30 15.7859
871.40 15.83292
871.50 15.86457
871.60 15.88767
871.70 15.91774
871.80 15.87966
871.90 15.88387
872.00 15.92892
872.10 16.10278
872.20 16.27825
872.30 16.42999
872.40 16.57819
872.50 16.70319
872.60 16.81731
872.70 17.02344
872.80 17.50375
872.90 17.9883
873.00 18.23943
873.10 18.37196
873.20 18.20493
873.30 17.87241
873.40 17.5395
873.50 17.41856
873.60 17.31406
873.70 17.28534
873.80 17.2445
873.90 17.2494
874.00 17.34464
874.10 17.55275
874.20 17.96184
874.30 18.33715
874.40 18.6453
874.50 18.97108
874.60 19.21672
874.70 19.25314
874.80 19.04441
874.90 18.58658
875.00 18.12565
875.10 18.03679
875.20 18.07057
875.30 18.4568
875.40 18.87523
875.50 19.19241
875.60 19.18795
875.70 19.0936
875.80 19.14012
875.90 19.29654
876.00 19.6116
876.10 19.90124
876.20 20.11525
876.30 20.06839
876.40 19.87856
876.50 19.41645
876.60 18.97853
876.70 18.76559
876.80 18.65555
876.90 18.71639
877.00 19.14628
877.10 19.73016
877.20 20.40667
877.30 21.04711
877.40 21.43913
877.50 21.78654
877.60 22.07905
877.70 22.13225
877.80 21.96
877.90 21.27357
878.00 20.59481
878.10 20.14301
878.20 19.80655
878.30 19.91991
878.40 20.23783
878.50 20.52632
878.60 20.6199
878.70 20.71079
878.80 20.82009
878.90 20.92924
879.00 21.08736
879.10 21.23384
879.20 21.42232
879.30 21.58508
879.40 21.65881
879.50 21.54637
879.60 21.458
879.70 21.63907
879.80 21.86255
879.90 21.9655
880.00 21.60537
880.10 21.08983
880.20 20.19822
880.30 19.28378
880.40 18.86861
880.50 18.77966
880.60 18.92146
880.70 19.10712
880.80 19.25663
880.90 19.52409
881.00 19.78724
881.10 20.18425
881.20 20.75034
881.30 21.50648
881.40 22.16998
881.50 22.754
881.60 23.09726
881.70 23.38007
881.80 23.45714
881.90 23.51669
882.00 23.52451
882.10 23.20244
882.20 22.67209
882.30 21.76822
882.40 20.88597
882.50 20.31663
882.60 19.8644
882.70 19.84123
882.80 20.14856
882.90 20.57223
883.00 21.13162
883.10 21.69873
883.20 22.23215
883.30 22.7275
883.40 23.01623
883.50 23.15077
883.60 23.19855
883.70 23.22207
883.80 23.27267
883.90 23.36602
884.00 23.50076
884.10 23.67413
884.20 23.8116
884.30 23.85558
884.40 23.54198
884.50 23.17018
884.60 22.62968
884.70 22.05607
884.80 21.60854
884.90 21.26016
885.00 21.1169
885.10 21.44788
885.20 22.02119
885.30 22.96077
885.40 23.90794
885.50 24.40488
885.60 24.56065
885.70 24.19323
885.80 23.39647
885.90 22.41795
886.00 21.00348
886.10 19.6198
886.20 18.60577
886.30 17.75985
886.40 17.58397
886.50 18.01597
886.60 18.64997
886.70 19.19784
886.80 19.64192
886.90 19.29382
887.00 18.69521
887.10 17.81463
887.20 16.91201
887.30 16.06715
887.40 15.72304
887.50 15.52601
887.60 15.97641
887.70 16.56585
887.80 17.27071
887.90 17.97069
888.00 18.5868
888.10 18.8728
888.20 19.07716
888.30 18.88533
888.40 18.58234
888.50 18.09015
888.60 17.67541
888.70 17.54715
888.80 17.84349
888.90 18.21943
889.00 18.68159
889.10 19.16902
889.20 19.38787
889.30 19.44255
889.40 19.3993
889.50 19.19093
889.60 18.87251
889.70 18.4533
889.80 18.10758
889.90 18.12146
890.00 18.27834
890.10 18.80138
890.20 19.4807
890.30 20.04831
890.40 20.36336
890.50 20.72795
890.60 20.98827
890.70 21.13604
890.80 21.08841
890.90 20.95245
891.00 20.72302
891.10 20.42559
891.20 20.17499
891.30 20.11831
891.40 20.11189
891.50 20.36328
891.60 20.60165
891.70 20.78644
891.80 20.94073
891.90 21.09337
892.00 21.09757
892.10 21.04509
892.20 20.97684
892.30 20.9211
892.40 20.75653
892.50 20.57854
892.60 20.44747
892.70 20.41049
892.80 20.41133
892.90 20.58338
893.00 20.80271
893.10 21.11016
893.20 21.53148
893.30 21.99549
893.40 22.40377
893.50 22.77204
893.60 22.69587
893.70 22.36225
893.80 21.67913
893.90 20.83928
894.00 19.98139
894.10 19.56061
894.20 19.25522
894.30 19.31305
894.40 19.43619
894.50 19.42087
894.60 19.41795
894.70 19.54529
894.80 19.76372
894.90 20.02421
895.00 20.24721
895.10 20.40964
895.20 20.36037
895.30 20.27939
895.40 20.12121
895.50 20.09271
895.60 20.19983
895.70 20.5558
895.80 20.92224
895.90 21.0699
896.00 21.10741
896.10 21.08591
896.20 21.08774
896.30 21.09917
896.40 21.04406
896.50 20.95226
896.60 20.84381
896.70 20.69465
896.80 20.52906
896.90 20.66748
897.00 20.8732
897.10 21.08705
897.20 21.27911
897.30 21.40238
897.40 21.50287
897.50 21.63703
897.60 21.81125
897.70 22.03197
897.80 22.30171
897.90 22.4952
898.00 22.3478
898.10 22.15189
898.20 21.99117
898.30 21.94144
898.40 22.0641
898.50 22.63335
898.60 23.2191
898.70 23.51253
898.80 23.65569
898.90 23.63571
899.00 23.49761
899.10 23.25098
899.20 23.07102
899.30 22.92662
899.40 22.90315
899.50 22.91347
899.60 22.85524
899.70 22.6683
899.80 22.45885
899.90 22.21062
900.00 21.94995
900.10 21.85117
900.20 21.86302
900.30 22.52818
900.40 23.40621
900.50 24.09959
900.60 24.56385
900.70 24.98168
900.80 24.89184
900.90 24.65647
901.00 24.21571
901.10 23.82006
901.20 23.61917
901.30 23.68004
901.40 23.79178
901.50 23.95517
901.60 24.11694
901.70 23.93154
901.80 23.57244
901.90 23.16191
902.00 22.92306
902.10 22.65205
902.20 22.26228
902.30 21.91076
902.40 21.72076
902.50 21.59299
902.60 21.50144
902.70 21.4311
902.80 21.40841
902.90 21.44479
903.00 21.56893
903.10 21.99432
903.20 22.43934
903.30 22.72614
903.40 22.99017
903.50 23.36675
903.60 23.77575
903.70 24.12729
903.80 24.31269
903.90 24.4712
904.00 24.62628
904.10 24.70236
904.20 24.53861
904.30 24.21838
904.40 23.94098
904.50 23.95352
904.60 24.0393
904.70 24.36512
904.80 24.73199
904.90 24.99074
905.00 25.09035
905.10 25.11609
905.20 24.82749
905.30 24.48518
905.40 24.14089
905.50 23.83245
905.60 23.61289
905.70 23.47541
905.80 23.33766
905.90 23.22182
906.00 23.10864
906.10 23.05089
906.20 23.02219
906.30 23.1648
906.40 23.27598
906.50 23.31451
906.60 23.37685
906.70 23.41769
906.80 23.32151
906.90 23.16834
907.00 22.97798
907.10 22.86321
907.20 22.94283
907.30 23.2001
907.40 23.42507
907.50 23.55198
907.60 23.66652
907.70 23.83158
907.80 24.09744
907.90 24.44648
908.00 24.74367
908.10 25.01243
908.20 25.08411
908.30 25.08073
908.40 24.86903
908.50 24.67452
908.60 24.61885
908.70 24.44344
908.80 24.25875
908.90 24.04067
909.00 23.85349
909.10 23.96067
909.20 24.16827
909.30 24.44306
909.40 24.70826
909.50 24.94885
909.60 25.07467
909.70 25.22082
909.80 25.43962
909.90 25.70132
910.00 25.95166
910.10 26.10521
910.20 26.13652
910.30 26.02526
910.40 25.94399
910.50 25.77253
910.60 25.57926
910.70 25.37326
910.80 25.17774
910.90 25.09362
911.00 25.22253
911.10 25.3958
911.20 25.60006
911.30 25.80934
911.40 26.03749
911.50 26.21081
911.60 26.23127
911.70 26.16073
911.80 26.08941
911.90 26.0933
912.00 26.08931
912.10 26.14148
912.20 26.20206
912.30 26.24201
912.40 26.25012
912.50 26.24921
912.60 26.17178
912.70 26.13423
912.80 26.22056
912.90 26.3146
913.00 26.4047
913.10 26.57193
913.20 26.71015
913.30 26.83191
913.40 26.96063
913.50 27.10585
913.60 27.26156
913.70 27.13331
913.80 26.77512
913.90 26.34339
914.00 25.74826
914.10 25.11306
914.20 24.99049
914.30 25.05822
914.40 25.4625
914.50 25.97549
914.60 26.46118
914.70 26.63381
914.80 26.6838
914.90 26.44188
915.00 26.13439
915.10 25.89867
915.20 25.79263
915.30 25.93258
915.40 26.25029
915.50 26.70086
915.60 27.26901
915.70 27.83687
915.80 28.16373
915.90 28.32136
916.00 28.09457
916.10 27.75763
916.20 27.43648
916.30 27.16743
916.40 26.93113
916.50 26.88744
916.60 26.91712
916.70 27.18795
916.80 27.52203
916.90 27.72242
917.00 27.60323
917.10 27.47628
917.20 27.47485
917.30 27.50995
917.40 27.44038
917.50 27.35545
917.60 27.27043
917.70 27.13325
917.80 27.06556
917.90 27.15504
918.00 27.2521
918.10 27.31688
918.20 27.37434
918.30 27.41013
918.40 27.35963
918.50 27.25119
918.60 27.09561
918.70 26.9679
918.80 27.15249
918.90 27.55404
919.00 28.19375
919.10 28.68893
919.20 28.93924
919.30 28.67448
919.40 28.32496
919.50 27.94148
919.60 27.65634
919.70 27.78971
919.80 28.14249
919.90 28.54451
920.00 28.71525
920.10 28.77382
920.20 28.68351
920.30 28.62174
920.40 28.6984
920.50 28.7446
920.60 28.61694
920.70 28.23732
920.80 27.78084
920.90 27.12703
921.00 26.46827
921.10 26.06742
921.20 25.8558
921.30 25.92275
921.40 26.26668
921.50 26.68371
921.60 27.02789
921.70 27.34891
921.80 27.61045
921.90 27.80711
922.00 27.64934
922.10 27.2927
922.20 27.01778
922.30 26.8768
922.40 26.71978
922.50 26.5607
922.60 26.42918
922.70 26.46515
922.80 26.49588
922.90 26.57171
923.00 26.55191
923.10 26.42041
923.20 26.04039
923.30 25.62753
923.40 25.36024
923.50 25.21099
923.60 25.21851
923.70 25.2674
923.80 25.32223
923.90 25.40057
924.00 25.47771
924.10 25.6342
924.20 25.93031
924.30 26.5546
924.40 27.11115
924.50 27.44026
924.60 27.0587
924.70 26.53642
924.80 25.96887
924.90 25.53056
925.00 25.24642
925.10 25.03111
925.20 24.87292
925.30 24.94015
925.40 25.02759
925.50 25.29324
925.60 25.63717
925.70 26.20594
925.80 26.74489
925.90 27.18513
926.00 27.30253
926.10 27.32135
926.20 27.1605
926.30 26.96381
926.40 26.80505
926.50 26.78919
926.60 26.95029
926.70 27.14473
926.80 27.34852
926.90 27.49065
927.00 27.59645
927.10 27.4896
927.20 27.28116
927.30 27.01118
927.40 26.75318
927.50 26.45273
927.60 26.10221
927.70 25.754
927.80 25.50716
927.90 25.30529
928.00 25.10307
928.10 24.97313
928.20 24.96716
928.30 25.358
928.40 25.76587
928.50 25.98602
928.60 26.08884
928.70 26.00137
928.80 25.81426
928.90 25.5929
929.00 25.39513
929.10 25.2083
929.20 25.11016
929.30 25.04229
929.40 25.09258
929.50 25.23036
929.60 25.38003
929.70 25.39952
929.80 25.34272
929.90 25.04976
930.00 24.67609
930.10 24.26462
930.20 24.12873
930.30 24.24546
930.40 24.27008
930.50 24.37333
930.60 24.55682
930.70 24.68018
930.80 24.63936
930.90 24.6285
931.00 24.75992
931.10 24.94478
931.20 25.27135
931.30 25.62895
931.40 25.93041
931.50 26.21604
931.60 26.26814
931.70 25.98039
931.80 25.6577
931.90 25.31166
932.00 25.13388
932.10 25.14227
932.20 25.28909
932.30 25.44107
932.40 25.58464
932.50 25.71413
932.60 25.75378
932.70 25.65124
932.80 25.55213
932.90 25.49723
933.00 25.50079
933.10 25.58344
933.20 25.64709
933.30 25.68138
933.40 25.59133
933.50 25.53195
933.60 25.51902
933.70 25.56452
933.80 25.68382
933.90 25.75381
934.00 25.80605
934.10 25.87383
934.20 25.92613
934.30 25.8639
934.40 25.74405
934.50 25.65615
934.60 25.81253
934.70 25.95939
934.80 25.95199
934.90 25.80465
935.00 25.61229
935.10 25.46008
935.20 25.3124
935.30 25.23813
935.40 25.23323
935.50 25.25328
935.60 25.31491
935.70 25.38482
935.80 25.43216
935.90 25.44402
936.00 25.50444
936.10 25.67965
936.20 25.92054
936.30 26.15059
936.40 26.27885
936.50 26.16981
936.60 26.05867
936.70 25.85464
936.80 25.56964
936.90 25.31273
937.00 25.12752
937.10 24.95188
937.20 24.65231
937.30 24.64783
937.40 24.69618
937.50 24.9004
937.60 25.179
937.70 25.43341
937.80 25.59315
937.90 25.67975
938.00 25.81476
938.10 25.79648
938.20 25.71195
938.30 25.51868
938.40 25.48562
938.50 25.50277
938.60 25.60008
938.70 25.66012
938.80 25.70878
938.90 25.73536
939.00 25.76579
939.10 25.83013
939.20 25.94897
939.30 26.05642
939.40 26.11057
939.50 26.06094
939.60 25.95047
939.70 25.76304
939.80 25.49371
939.90 25.24897
940.00 25.14879
940.10 25.13517
940.20 25.26641
940.30 25.45823
940.40 25.60796
940.50 25.66482
940.60 25.71451
940.70 25.85568
940.80 26.07984
940.90 26.33533
941.00 26.58599
941.10 26.71582
941.20 26.78083
941.30 26.68363
941.40 26.39598
941.50 26.07994
941.60 25.81562
941.70 25.62504
941.80 25.58687
941.90 25.76115
942.00 26.00483
942.10 26.18209
942.20 26.19293
942.30 26.20302
942.40 26.24659
942.50 26.2815
942.60 26.32779
942.70 26.39343
942.80 26.45093
942.90 26.45618
943.00 26.46033
943.10 26.5126
943.20 26.73584
943.30 27.00828
943.40 27.18959
943.50 27.27801
943.60 27.2856
943.70 27.25095
943.80 27.04989
943.90 26.78467
944.00 26.50876
944.10 26.36113
944.20 26.23552
944.30 26.12392
944.40 26.06755
944.50 25.94805
944.60 25.80224
944.70 25.68013
944.80 25.69992
944.90 25.7989
945.00 25.90851
945.10 26.00657
945.20 26.14426
945.30 26.27591
945.40 26.44334
945.50 26.58473
945.60 26.72806
945.70 26.73562
945.80 26.69445
945.90 26.56161
946.00 26.52178
946.10 26.53026
946.20 26.60191
946.30 26.75203
946.40 26.99698
946.50 27.2108
946.60 27.32085
946.70 27.20443
946.80 27.20627
946.90 27.24871
947.00 27.32112
947.10 27.3977
947.20 27.46207
947.30 27.51928
947.40 27.53214
947.50 27.5601
947.60 27.59398
947.70 27.63784
947.80 27.70747
947.90 27.90106
948.00 28.10929
948.10 28.24369
948.20 28.26695
948.30 28.25418
948.40 28.22094
948.50 28.19751
948.60 28.26686
948.70 28.32241
948.80 28.35305
948.90 28.31717
949.00 28.42164
949.10 28.56974
949.20 28.68768
949.30 28.7003
949.40 28.58751
949.50 28.38725
949.60 28.14773
949.70 27.88555
949.80 27.90291
949.90 27.98867
950.00 28.15362
950.10 28.2803
950.20 28.41911
950.30 28.46075
950.40 28.44025
950.50 28.24461
950.60 28.09865
950.70 27.97877
950.80 27.93702
950.90 27.99667
951.00 28.09802
951.10 28.216
951.20 28.29378
951.30 28.30883
951.40 28.21568
951.50 28.08314
951.60 27.94175
951.70 27.94689
951.80 27.94732
951.90 27.96576
952.00 28.03212
952.10 28.12671
952.20 28.21954
952.30 28.33703
952.40 28.54627
952.50 28.81504
952.60 29.08533
952.70 29.31896
952.80 29.3562
952.90 29.33891
953.00 29.35036
953.10 29.40166
953.20 29.42913
953.30 29.30738
953.40 29.13468
953.50 28.96215
953.60 28.83635
953.70 28.71197
953.80 28.53203
953.90 28.36708
954.00 28.29302
954.10 28.41557
954.20 28.60196
954.30 28.72902
954.40 28.77729
954.50 28.79459
954.60 28.67651
954.70 28.39097
954.80 28.15545
954.90 28.13392
955.00 28.29284
955.10 28.52097
955.20 28.75036
955.30 28.96753
955.40 29.11869
955.50 29.22174
955.60 29.34611
955.70 29.46014
955.80 29.56836
955.90 29.6676
956.00 29.76232
956.10 29.83362
956.20 29.8702
956.30 29.7422
956.40 29.56703
956.50 29.31489
956.60 29.22261
956.70 29.26536
956.80 29.41808
956.90 29.62236
957.00 29.69428
957.10 29.63811
957.20 29.55855
957.30 29.54196
957.40 29.33479
957.50 29.07543
957.60 28.80079
957.70 28.63026
957.80 28.47957
957.90 28.4835
958.00 28.5775
958.10 28.81367
958.20 29.03305
958.30 29.22372
958.40 29.3098
958.50 29.23193
958.60 29.1329
958.70 28.99608
958.80 28.78485
958.90 28.4996
959.00 28.27911
959.10 28.08547
959.20 27.92719
959.30 27.97484
959.40 28.07163
959.50 28.11914
959.60 27.97444
959.70 27.61167
959.80 27.13662
959.90 26.59226
960.00 26.06347
960.10 25.97324
960.20 25.99463
960.30 26.2762
960.40 26.89805
960.50 27.60929
960.60 28.18339
960.70 28.57774
960.80 28.82528
960.90 28.93146
961.00 28.97493
961.10 28.90391
961.20 28.73303
961.30 28.55037
961.40 28.39899
961.50 28.31577
961.60 28.23879
961.70 28.33414
961.80 28.52668
961.90 28.88015
962.00 29.06484
962.10 29.22369
962.20 29.32667
962.30 29.30504
962.40 29.19715
962.50 29.2221
962.60 29.36109
962.70 29.60866
962.80 29.65268
962.90 29.64504
963.00 29.55459
963.10 29.41886
963.20 29.24648
963.30 29.10841
963.40 28.96153
963.50 28.76486
963.60 28.16186
963.70 27.37367
963.80 26.319
963.90 25.38925
964.00 24.59591
964.10 24.27286
964.20 24.78924
964.30 25.67481
964.40 26.53325
964.50 27.30279
964.60 27.70861
964.70 27.56046
964.80 27.30155
964.90 27.01635
965.00 27.00259
965.10 27.04488
965.20 27.20984
965.30 27.45323
965.40 27.74269
965.50 28.04581
965.60 28.34239
965.70 28.56348
965.80 28.67507
965.90 28.79666
966.00 28.94527
966.10 29.11308
966.20 29.29718
966.30 29.47385
966.40 29.62796
966.50 29.72114
966.60 29.73676
966.70 29.70607
966.80 29.57593
966.90 29.43783
967.00 29.39005
967.10 29.3761
967.20 29.34025
967.30 29.16865
967.40 28.62482
967.50 27.94128
967.60 27.13773
967.70 26.6661
967.80 26.36306
967.90 26.51281
968.00 27.23461
968.10 28.16421
968.20 28.74068
968.30 29.13206
968.40 29.27054
968.50 29.12663
968.60 28.9444
968.70 28.6977
968.80 28.348
968.90 27.94019
969.00 27.66893
969.10 27.59361
969.20 27.75598
969.30 28.26591
969.40 28.87942
969.50 29.54609
969.60 29.95325
969.70 30.26774
969.80 30.43847
969.90 30.46893
970.00 30.48381
970.10 30.35886
970.20 30.18508
970.30 29.9668
970.40 29.42139
970.50 28.76069
970.60 28.02123
970.70 27.46616
970.80 27.11064
970.90 27.29571
971.00 27.88403
971.10 28.8497
971.20 29.55865
971.30 30.20152
971.40 30.67714
971.50 30.88367
971.60 31.01959
971.70 31.03122
971.80 30.89682
971.90 30.64842
972.00 30.39334
972.10 30.1238
972.20 29.85046
972.30 29.852
972.40 29.9173
972.50 29.9645
972.60 29.85642
972.70 29.62838
972.80 29.10123
972.90 28.38731
973.00 27.51445
973.10 27.25918
973.20 27.20455
973.30 27.48843
973.40 27.98348
973.50 28.47253
973.60 28.81683
973.70 29.01547
973.80 29.04274
973.90 29.05582
974.00 29.06183
974.10 29.05621
974.20 28.81327
974.30 28.48678
974.40 28.10852
974.50 27.74406
974.60 27.47658
974.70 27.45561
974.80 27.60532
974.90 28.04796
975.00 28.46527
975.10 28.81703
975.20 29.03736
975.30 29.18712
975.40 29.34701
975.50 29.43648
975.60 29.50655
975.70 29.50377
975.80 29.53689
975.90 29.59927
976.00 29.75092
976.10 29.83846
976.20 29.8411
976.30 29.83519
976.40 29.89105
976.50 30.03701
976.60 30.12797
976.70 30.21205
976.80 30.23617
976.90 29.85507
977.00 29.38513
977.10 28.91794
977.20 28.59054
977.30 28.39515
977.40 28.47114
977.50 28.77765
977.60 29.3335
977.70 29.6679
977.80 29.93565
977.90 30.0716
978.00 29.97481
978.10 29.75795
978.20 29.22729
978.30 28.43444
978.40 27.42811
978.50 26.7954
978.60 26.33354
978.70 26.20633
978.80 26.43615
978.90 26.69303
979.00 27.10228
979.10 27.71083
979.20 28.48027
979.30 29.19233
979.40 29.88832
979.50 30.51666
979.60 30.75973
979.70 30.88591
979.80 30.80639
979.90 30.6629
980.00 30.59892
980.10 30.62052
980.20 30.67057
980.30 30.68907
980.40 30.63394
980.50 30.55912
980.60 30.48054
980.70 30.41512
980.80 30.35149
980.90 30.32584
981.00 30.37614
981.10 30.47697
981.20 30.45432
981.30 30.38519
981.40 30.28167
981.50 30.09948
981.60 29.8786
981.70 29.67334
981.80 29.67001
981.90 29.81709
982.00 29.89955
982.10 29.96105
982.20 29.93327
982.30 29.94457
982.40 29.96401
982.50 30.01577
982.60 30.11919
982.70 30.25472
982.80 30.31957
982.90 30.30362
983.00 30.18888
983.10 30.05771
983.20 29.92329
983.30 29.8058
983.40 29.72005
983.50 29.62256
983.60 29.54404
983.70 29.47928
983.80 29.40378
983.90 29.41399
984.00 29.50195
984.10 29.7194
984.20 29.89303
984.30 30.04399
984.40 30.15136
984.50 30.16052
984.60 30.17527
984.70 30.19534
984.80 30.27562
984.90 30.35676
985.00 30.31787
985.10 30.21927
985.20 30.04047
985.30 29.88385
985.40 29.79403
985.50 29.85031
985.60 30.07915
985.70 30.37909
985.80 30.52611
985.90 30.59156
986.00 30.55488
986.10 30.48955
986.20 30.43136
986.30 30.41508
986.40 30.46439
986.50 30.57174
986.60 30.58675
986.70 30.54629
986.80 30.35801
986.90 30.1309
987.00 29.9032
987.10 29.75411
987.20 29.8654
987.30 30.13917
987.40 30.40678
987.50 30.67018
987.60 30.84061
987.70 30.80955
987.80 30.68611
987.90 30.47493
988.00 30.28718
988.10 30.1187
988.20 30.04821
988.30 30.1756
988.40 30.43655
988.50 30.65391
988.60 30.86684
988.70 31.06161
988.80 31.08472
988.90 31.07407
989.00 31.01187
989.10 30.9003
989.20 30.77189
989.30 30.50772
989.40 30.15742
989.50 29.69277
989.60 28.76405
989.70 27.68478
989.80 26.47994
989.90 25.58313
990.00 24.8929
990.10 24.43184
990.20 24.1421
990.30 23.84692
990.40 23.21803
990.50 22.45506
990.60 21.60747
990.70 21.05161
990.80 20.56408
990.90 20.24735
991.00 20.22986
991.10 20.38293
991.20 20.49287
991.30 20.56842
991.40 20.52103
991.50 20.22032
991.60 19.90253
991.70 19.68329
991.80 19.84386
991.90 20.20013
992.00 20.63217
992.10 21.13196
992.20 21.51629
992.30 21.42052
992.40 21.16113
992.50 20.76559
992.60 20.60813
992.70 20.64009
992.80 20.9741
992.90 21.61129
993.00 22.34019
993.10 22.8458
993.20 23.25314
993.30 23.49201
993.40 23.21292
993.50 22.90279
993.60 22.79446
993.70 23.18549
993.80 23.81118
993.90 24.44171
994.00 25.12662
994.10 25.78004
994.20 26.00719
994.30 26.1102
994.40 26.0267
994.50 25.8062
994.60 25.60773
994.70 25.57289
994.80 25.69356
994.90 25.96623
995.00 26.3436
995.10 26.73878
995.20 27.08574
995.30 27.30223
995.40 27.51517
995.50 27.54813
995.60 27.30575
995.70 26.82277
995.80 26.43939
995.90 26.09275
996.00 25.85178
996.10 25.83281
996.20 25.88098
996.30 26.11438
996.40 26.6721
996.50 27.35161
996.60 27.8307
996.70 28.1903
996.80 28.28515
996.90 27.53982
997.00 26.57167
997.10 25.43104
997.20 24.57713
997.30 23.89448
997.40 23.61601
997.50 23.74418
997.60 24.16707
997.70 24.62212
997.80 25.11207
997.90 25.62228
998.00 26.01704
998.10 26.39153
998.20 26.5855
998.30 26.48574
998.40 26.09925
998.50 25.68931
998.60 25.26688
998.70 24.89571
998.80 24.79729
998.90 24.76909
999.00 24.83224
999.10 24.83707
999.20 24.78789
999.30 24.89346
999.40 25.13295
999.50 25.49655
999.60 25.54422
999.70 25.50253
999.80 25.43309
999.90 25.60694
1000.00 25.93948
1000.10 26.36691
1000.20 26.91743
1000.30 27.50354
1000.40 27.84694
1000.50 28.08625
1000.60 28.1571
1000.70 27.83364
1000.80 27.40774
1000.90 26.91283
1001.00 26.35584
1001.10 25.76016
1001.20 25.58388
1001.30 25.62531
1001.40 25.94267
1001.50 26.4991
1001.60 27.08038
1001.70 27.62837
1001.80 28.00524
1001.90 28.22528
1002.00 28.19744
1002.10 27.9683
1002.20 27.62252
1002.30 27.67065
1002.40 27.84081
1002.50 28.11249
1002.60 28.24508
1002.70 28.31604
1002.80 28.29359
1002.90 28.11296
1003.00 27.76678
1003.10 27.54847
1003.20 27.38889
1003.30 27.28362
1003.40 27.00472
1003.50 26.69886
1003.60 26.41845
1003.70 26.2094
1003.80 26.02112
1003.90 26.14673
1004.00 26.45514
1004.10 27.01638
1004.20 27.62659
1004.30 28.24046
1004.40 28.7659
1004.50 29.04273
1004.60 29.12179
1004.70 28.94423
1004.80 28.59175
1004.90 28.10278
1005.00 27.34048
1005.10 26.49494
1005.20 25.5952
1005.30 24.8491
1005.40 24.18305
1005.50 23.77734
1005.60 23.65409
1005.70 23.73683
1005.80 24.02286
1005.90 24.40943
1006.00 24.89728
1006.10 25.27374
1006.20 25.56688
1006.30 25.74389
1006.40 25.75884
1006.50 25.76443
1006.60 26.07111
1006.70 26.5378
1006.80 27.17704
1006.90 27.61536
1007.00 27.98426
1007.10 28.18307
1007.20 27.99101
1007.30 27.66131
1007.40 27.54655
1007.50 27.62991
1007.60 27.92824
1007.70 28.28984
1007.80 28.66884
1007.90 29.02182
1008.00 29.11203
1008.10 29.12739
1008.20 29.13879
1008.30 29.1924
1008.40 29.22388
1008.50 29.34989
1008.60 29.51489
1008.70 29.70563
1008.80 29.43499
1008.90 29.02846
1009.00 28.57206
1009.10 28.14795
1009.20 27.76947
1009.30 27.67811
1009.40 27.7579
1009.50 28.05187
1009.60 28.49322
1009.70 28.94705
1009.80 29.41373
1009.90 29.92138
1010.00 30.4384
1010.10 30.88709
1010.20 31.29347
1010.30 31.68911
1010.40 31.70265
1010.50 31.5863
1010.60 31.29601
1010.70 30.93215
1010.80 30.55295
1010.90 30.09722
1011.00 29.59209
1011.10 29.02891
1011.20 28.57354
1011.30 28.15527
1011.40 27.81311
1011.50 27.64834
1011.60 27.50112
1011.70 27.38918
1011.80 27.28039
1011.90 27.18427
1012.00 27.46713
1012.10 27.9641
1012.20 28.76579
1012.30 29.38311
1012.40 29.92992
1012.50 30.29749
1012.60 30.38372
1012.70 30.27568
1012.80 30.26071
1012.90 30.25788
1013.00 30.3771
1013.10 30.40817
1013.20 30.39983
1013.30 30.21067
1013.40 29.53345
1013.50 28.68962
1013.60 27.90129
1013.70 27.14594
1013.80 26.46707
1013.90 26.28918
1014.00 26.33661
1014.10 26.65113
1014.20 27.20286
1014.30 27.80611
1014.40 28.26475
1014.50 28.4094
1014.60 28.30867
1014.70 28.09366
1014.80 27.79713
1014.90 27.43142
1015.00 27.74689
1015.10 28.2544
1015.20 28.91028
1015.30 29.40704
1015.40 29.66375
1015.50 29.54341
1015.60 29.11304
1015.70 28.35347
1015.80 27.8743
1015.90 27.4877
1016.00 27.29168
1016.10 27.41214
1016.20 27.66331
1016.30 27.91988
1016.40 28.12498
1016.50 28.20978
1016.60 28.46024
1016.70 28.7758
1016.80 29.12976
1016.90 28.98009
1017.00 28.70266
1017.10 28.42921
1017.20 28.20839
1017.30 28.06285
1017.40 28.4018
1017.50 29.02352
1017.60 29.92287
1017.70 30.10749
1017.80 30.10793
1017.90 29.87748
1018.00 29.39542
1018.10 28.85737
1018.20 28.3642
1018.30 27.98151
1018.40 27.75222
1018.50 27.50361
1018.60 27.25271
1018.70 27.0747
1018.80 27.27255
1018.90 27.65209
1019.00 28.11054
1019.10 28.66145
1019.20 29.15689
1019.30 29.31474
1019.40 29.32888
1019.50 29.25705
1019.60 29.25432
1019.70 29.29514
1019.80 29.28552
1019.90 29.19386
1020.00 29.04678
1020.10 28.93401
1020.20 28.83952
1020.30 28.79147
1020.40 28.93185
1020.50 29.089
1020.60 29.28271
1020.70 29.52234
1020.80 29.73407
1020.90 29.78778
1021.00 29.71825
1021.10 29.59764
1021.20 29.33402
1021.30 28.9794
1021.40 28.53467
1021.50 28.10641
1021.60 27.73481
1021.70 27.37132
1021.80 27.02851
1021.90 26.71389
1022.00 26.51954
1022.10 26.38416
1022.20 26.3317
1022.30 26.77967
1022.40 27.41432
1022.50 28.02906
1022.60 28.54249
1022.70 28.86155
1022.80 28.98012
1022.90 28.97744
1023.00 28.90372
1023.10 28.67882
1023.20 28.40883
1023.30 28.20925
1023.40 28.18345
1023.50 28.37342
1023.60 28.67938
1023.70 29.06258
1023.80 29.47248
1023.90 29.78722
1024.00 30.05445
1024.10 30.22032
1024.20 30.3778
1024.30 30.58609
1024.40 30.60074
1024.50 30.42364
1024.60 29.94087
1024.70 29.58349
1024.80 29.28773
1024.90 29.08131
1025.00 28.8475
1025.10 28.55429
1025.20 28.23193
1025.30 27.86661
1025.40 27.52794
1025.50 27.55066
1025.60 27.72508
1025.70 28.05658
1025.80 27.95666
1025.90 27.64483
1026.00 27.14999
1026.10 26.50979
1026.20 25.88857
1026.30 25.58657
1026.40 25.48027
1026.50 25.60648
1026.60 26.29664
1026.70 27.10156
1026.80 27.95289
1026.90 28.67348
1027.00 29.21436
1027.10 29.4585
1027.20 29.41089
1027.30 29.15766
1027.40 28.76076
1027.50 28.32557
1027.60 27.94163
1027.70 27.80219
1027.80 27.76231
1027.90 27.6624
1028.00 27.54269
1028.10 27.31929
1028.20 26.93241
1028.30 26.481
1028.40 26.06236
1028.50 26.17178
1028.60 26.50549
1028.70 26.99983
1028.80 27.73858
1028.90 28.58576
1029.00 29.01078
1029.10 29.13332
1029.20 28.94522
1029.30 28.68795
1029.40 28.46062
1029.50 28.26842
1029.60 28.25422
1029.70 28.35129
1029.80 28.41265
1029.90 28.39403
1030.00 28.26021
1030.10 28.11457
1030.20 27.97407
1030.30 27.88809
1030.40 28.05134
1030.50 28.40295
1030.60 28.78545
1030.70 29.21028
1030.80 29.49617
1030.90 29.39221
1031.00 29.18884
1031.10 28.94245
1031.20 28.99804
1031.30 29.20581
1031.40 29.37227
1031.50 29.47667
1031.60 29.48044
1031.70 29.20679
1031.80 28.8213
1031.90 28.34923
1032.00 28.20242
1032.10 28.1741
1032.20 28.14388
1032.30 28.00795
1032.40 27.74221
1032.50 27.6846
1032.60 27.71369
1032.70 27.86833
1032.80 28.46961
1032.90 29.14019
1033.00 29.8722
1033.10 30.51173
1033.20 31.03557
1033.30 31.19838
1033.40 31.04046
1033.50 30.62993
1033.60 29.94898
1033.70 29.16634
1033.80 28.35189
1033.90 27.83934
1034.00 27.52241
1034.10 27.23777
1034.20 27.029
1034.30 26.86244
1034.40 26.55968
1034.50 26.20045
1034.60 25.87283
1034.70 26.22157
1034.80 26.7512
1034.90 27.25468
1035.00 27.63552
1035.10 27.78867
1035.20 27.88966
1035.30 27.93749
1035.40 28.00771
1035.50 28.2204
1035.60 28.43864
1035.70 28.71023
1035.80 29.07036
1035.90 29.46367
1036.00 29.81058
1036.10 30.15899
1036.20 30.58143
1036.30 30.76915
1036.40 30.85495
1036.50 30.84413
1036.60 30.80286
1036.70 30.77301
1036.80 30.82955
1036.90 30.95097
1037.00 31.15494
1037.10 31.49648
1037.20 31.85911
1037.30 32.17677
1037.40 32.2223
1037.50 32.15677
1037.60 31.87567
1037.70 31.3459
1037.80 30.59469
1037.90 29.79162
1038.00 28.97272
1038.10 28.23075
1038.20 28.02049
1038.30 28.02713
1038.40 28.25446
1038.50 28.80294
1038.60 29.4866
1038.70 29.84365
1038.80 30.02465
1038.90 30.06307
1039.00 29.91815
1039.10 29.74291
1039.20 29.53239
1039.30 29.31916
1039.40 29.11085
1039.50 28.83578
1039.60 28.50914
1039.70 28.1419
1039.80 28.11333
1039.90 28.19508
1040.00 28.44616
1040.10 29.00324
1040.20 29.64147
1040.30 30.14888
1040.40 30.55071
1040.50 30.87159
1040.60 31.11336
1040.70 31.30246
1040.80 31.41848
1040.90 31.29984
1041.00 31.11928
1041.10 30.83791
1041.20 30.31029
1041.30 29.61446
1041.40 29.2708
1041.50 29.0627
1041.60 29.05249
1041.70 29.70175
1041.80 30.50736
1041.90 31.2156
1042.00 31.62966
1042.10 31.79962
1042.20 31.65586
1042.30 31.28592
1042.40 30.71421
1042.50 30.01009
1042.60 29.27312
1042.70 28.5922
1042.80 28.05746
1042.90 27.67088
1043.00 27.6839
1043.10 28.08671
1043.20 28.86855
1043.30 29.80336
1043.40 30.72242
1043.50 31.49119
1043.60 31.71189
1043.70 31.7189
1043.80 31.70031
1043.90 31.61861
1044.00 31.57395
1044.10 31.56635
1044.20 31.57592
1044.30 31.59748
1044.40 31.63898
1044.50 31.64793
1044.60 31.58618
1044.70 31.44098
1044.80 31.37952
1044.90 31.63279
1045.00 32.05361
1045.10 32.52527
1045.20 33.01667
1045.30 33.46547
1045.40 33.80925
1045.50 33.91042
1045.60 33.95773
1045.70 33.77296
1045.80 33.42698
1045.90 32.90692
1046.00 32.2983
1046.10 31.69382
1046.20 31.19791
1046.30 30.93824
1046.40 30.77998
1046.50 30.53546
1046.60 30.28144
1046.70 29.96523
1046.80 29.54282
1046.90 29.11446
1047.00 28.77654
1047.10 28.72233
1047.20 28.78357
1047.30 28.90279
1047.40 29.1254
1047.50 29.38559
1047.60 29.52827
1047.70 29.63292
1047.80 29.72849
1047.90 29.68022
1048.00 29.6027
1048.10 29.64106
1048.20 29.89343
1048.30 30.28868
1048.40 30.60007
1048.50 30.90125
1048.60 31.19527
1048.70 31.23194
1048.80 31.2206
1048.90 31.22714
1049.00 31.33141
1049.10 31.43647
1049.20 31.49584
1049.30 31.55129
1049.40 31.59851
1049.50 31.18948
1049.60 30.60741
1049.70 29.98107
1049.80 29.49779
1049.90 29.23838
1050.00 29.32164
1050.10 29.70048
1050.20 30.28726
1050.30 30.63774
1050.40 30.87979
1050.50 30.97745
1050.60 30.88187
1050.70 30.76589
1050.80 30.6736
1050.90 30.60865
1051.00 30.59659
1051.10 30.34016
1051.20 29.947
1051.30 29.42777
1051.40 29.05128
1051.50 28.76625
1051.60 28.59335
1051.70 28.62991
1051.80 28.81297
1051.90 28.93562
1052.00 29.0036
1052.10 29.00162
1052.20 29.12128
1052.30 29.26942
1052.40 29.4682
1052.50 29.83938
1052.60 30.35584
1052.70 30.7948
1052.80 31.17512
1052.90 31.50086
1053.00 31.49692
1053.10 31.35641
1053.20 31.13121
1053.30 31.03847
1053.40 31.07421
1053.50 31.10467
1053.60 31.18414
1053.70 31.25545
1053.80 31.13429
1053.90 30.93149
1054.00 30.72877
1054.10 30.74598
1054.20 30.90362
1054.30 30.97521
1054.40 31.01083
1054.50 30.96163
1054.60 30.74129
1054.70 30.40387
1054.80 29.987
1054.90 29.8923
1055.00 29.95697
1055.10 30.12267
1055.20 30.48251
1055.30 30.90638
1055.40 31.00499
1055.50 30.88751
1055.60 30.62763
1055.70 30.19501
1055.80 29.73749
1055.90 29.26832
1056.00 28.87866
1056.10 28.53746
1056.20 28.36917
1056.30 28.34879
1056.40 28.44984
1056.50 28.64775
1056.60 28.88625
1056.70 29.12608
1056.80 29.26564
1056.90 29.32002
1057.00 29.37884
1057.10 29.43035
1057.20 29.49793
1057.30 29.67078
1057.40 29.88495
1057.50 30.14225
1057.60 30.36579
1057.70 30.52797
1057.80 30.63181
1057.90 30.66239
1058.00 30.6583
1058.10 30.71091
1058.20 30.78699
1058.30 30.84537
1058.40 30.52066
1058.50 30.06087
1058.60 29.59126
1058.70 29.15835
1058.80 28.84685
1058.90 28.79306
1059.00 28.88517
1059.10 29.05867
1059.20 29.20261
1059.30 29.34654
1059.40 29.4931
1059.50 29.73808
1059.60 30.05855
1059.70 30.2848
1059.80 30.40952
1059.90 30.38032
1060.00 30.18393
1060.10 29.96127
1060.20 29.73672
1060.30 29.57413
1060.40 29.41328
1060.50 29.23441
1060.60 29.01924
1060.70 28.79127
1060.80 28.6574
1060.90 28.55422
1061.00 28.51172
1061.10 28.7142
1061.20 29.04
1061.30 29.41862
1061.40 29.84369
1061.50 30.2185
1061.60 30.31652
1061.70 30.30591
1061.80 30.21195
1061.90 29.94159
1062.00 29.67898
1062.10 29.54886
1062.20 29.56167
1062.30 29.58643
1062.40 29.66134
1062.50 29.82286
1062.60 30.09608
1062.70 30.58188
1062.80 31.07986
1062.90 31.49011
1063.00 31.64414
1063.10 31.63822
1063.20 31.5561
1063.30 31.35489
1063.40 31.074
1063.50 30.94805
1063.60 30.89703
1063.70 30.94546
1063.80 31.12048
1063.90 31.36781
1064.00 31.60981
1064.10 31.84298
1064.20 32.02051
1064.30 32.02678
1064.40 31.98123
1064.50 31.90207
1064.60 31.8645
1064.70 31.83749
1064.80 31.79562
1064.90 31.75199
1065.00 31.75154
1065.10 31.64528
1065.20 31.47938
1065.30 31.26707
1065.40 30.90462
1065.50 30.49533
1065.60 30.14373
1065.70 29.97582
1065.80 29.93954
1065.90 29.87884
1066.00 29.82088
1066.10 29.79112
1066.20 29.37954
1066.30 28.86029
1066.40 28.47353
1066.50 28.35248
1066.60 28.4407
1066.70 28.56979
1066.80 28.74843
1066.90 28.92386
1067.00 28.93391
1067.10 28.9342
1067.20 29.0121
1067.30 29.371
1067.40 29.88807
1067.50 30.29983
1067.60 30.66796
1067.70 31.00274
1067.80 31.19916
1067.90 31.34724
1068.00 31.48463
1068.10 31.69375
1068.20 31.88469
1068.30 31.96809
1068.40 32.06767
1068.50 32.20955
1068.60 32.28669
1068.70 32.31748
1068.80 32.34663
1068.90 32.25394
1069.00 32.1356
1069.10 32.04955
1069.20 32.04865
1069.30 32.08013
1069.40 31.8693
1069.50 31.56092
1069.60 31.23036
1069.70 31.10136
1069.80 31.03701
1069.90 30.96886
1070.00 31.00391
1070.10 31.07906
1070.20 31.00951
1070.30 30.85239
1070.40 30.61144
1070.50 30.68222
1070.60 30.83877
1070.70 30.98968
1070.80 31.07833
1070.90 31.11187
1071.00 31.14289
1071.10 31.07536
1071.20 30.94007
1071.30 31.14069
1071.40 31.46877
1071.50 31.82964
1071.60 32.0123
1071.70 32.0268
1071.80 32.05131
1071.90 32.01867
1072.00 31.98464
1072.10 31.94799
1072.20 31.90801
1072.30 31.83478
1072.40 31.50588
1072.50 31.07266
1072.60 30.71486
1072.70 30.50098
1072.80 30.49962
1072.90 30.64152
1073.00 30.8512
1073.10 31.08387
1073.20 31.02932
1073.30 30.86998
1073.40 30.76711
1073.50 30.66649
1073.60 30.62877
1073.70 30.77039
1073.80 31.04752
1073.90 31.38694
1074.00 31.7555
1074.10 32.13094
1074.20 32.41782
1074.30 32.50582
1074.40 32.45906
1074.50 32.35939
1074.60 32.19067
1074.70 32.03799
1074.80 31.86184
1074.90 31.68555
1075.00 31.58817
1075.10 31.55327
1075.20 31.39939
1075.30 31.27785
1075.40 31.1798
1075.50 31.06416
1075.60 31.17738
1075.70 31.41233
1075.80 31.72387
1075.90 32.03683
1076.00 32.27643
1076.10 32.41844
1076.20 32.37059
1076.30 32.26042
1076.40 32.23368
1076.50 32.23683
1076.60 32.27669
1076.70 32.38447
1076.80 32.48979
1076.90 32.5207
1077.00 32.51441
1077.10 32.50329
1077.20 32.4286
1077.30 32.29751
1077.40 32.13721
1077.50 31.87487
1077.60 31.54173
1077.70 31.27192
1077.80 31.18237
1077.90 31.30861
1078.00 31.49599
1078.10 31.72796
1078.20 31.9648
1078.30 32.02458
1078.40 32.04612
1078.50 31.9952
1078.60 31.92305
1078.70 31.81707
1078.80 31.70258
1078.90 31.51278
1079.00 31.24136
1079.10 30.97983
1079.20 30.74799
1079.30 30.54743
1079.40 30.36997
1079.50 30.2817
1079.60 30.34124
1079.70 30.6112
1079.80 30.92499
1079.90 31.13639
1080.00 31.3232
1080.10 31.51109
1080.20 31.67166
1080.30 31.7925
1080.40 31.86604
1080.50 31.90208
1080.60 32.01105
1080.70 32.1865
1080.80 32.3636
1080.90 32.49966
1081.00 32.53857
1081.10 32.56013
1081.20 32.56284
1081.30 32.54589
1081.40 32.52313
1081.50 32.60071
1081.60 32.7369
1081.70 32.90944
1081.80 32.93835
1081.90 32.91706
1082.00 32.86371
1082.10 32.64723
1082.20 32.3379
1082.30 32.06578
1082.40 31.81104
1082.50 31.58908
1082.60 31.58139
1082.70 31.59664
1082.80 31.63691
1082.90 31.75284
1083.00 31.90393
1083.10 32.07012
1083.20 32.26634
1083.30 32.49712
1083.40 32.37545
1083.50 32.19247
1083.60 32.02988
1083.70 31.91825
1083.80 31.77501
1083.90 31.79262
1084.00 31.99013
1084.10 32.20405
1084.20 32.26748
1084.30 32.29299
1084.40 32.28589
1084.50 32.06128
1084.60 31.75078
1084.70 31.53244
1084.80 31.40226
1084.90 31.42172
1085.00 31.62363
1085.10 31.92075
1085.20 32.24712
1085.30 32.16613
1085.40 31.94839
1085.50 31.84456
1085.60 31.9615
1085.70 32.24392
1085.80 32.50928
1085.90 32.7996
1086.00 33.07673
1086.10 33.23818
1086.20 33.38713
1086.30 33.51567
1086.40 33.52136
1086.50 33.40536
1086.60 33.26656
1086.70 33.06551
1086.80 32.82936
1086.90 32.80494
1087.00 32.905
1087.10 33.06419
1087.20 33.20177
1087.30 33.22901
1087.40 33.10927
1087.50 32.81426
1087.60 32.37083
1087.70 32.27096
1087.80 32.32193
1087.90 32.46551
1088.00 32.54284
1088.10 32.51468
1088.20 32.49876
1088.30 32.42309
1088.40 32.31441
1088.50 32.3457
1088.60 32.46304
1088.70 32.66982
1088.80 32.68624
1088.90 32.56792
1089.00 32.48855
1089.10 32.50845
1089.20 32.58441
1089.30 32.48317
1089.40 32.32197
1089.50 32.17513
1089.60 32.26877
1089.70 32.42955
1089.80 32.6308
1089.90 32.93964
1090.00 33.29831
1090.10 33.48447
1090.20 33.55204
1090.30 33.54026
1090.40 33.57037
1090.50 33.57119
1090.60 33.48436
1090.70 33.21517
1090.80 32.91388
1090.90 32.68422
1091.00 32.456
1091.10 32.15618
1091.20 32.0959
1091.30 32.17213
1091.40 32.35451
1091.50 32.75271
1091.60 33.23392
1091.70 33.56013
1091.80 33.74293
1091.90 33.83639
1092.00 33.80294
1092.10 33.68296
1092.20 33.52648
1092.30 33.44409
1092.40 33.45236
1092.50 33.46353
1092.60 33.46049
1092.70 33.38203
1092.80 33.32139
1092.90 33.27146
1093.00 33.24692
1093.10 33.18352
1093.20 33.11357
1093.30 33.03991
1093.40 32.9741
1093.50 32.89321
1093.60 32.74085
1093.70 32.56458
1093.80 32.3954
1093.90 32.61386
1094.00 32.95728
1094.10 33.28876
1094.20 33.54188
1094.30 33.65695
1094.40 33.43251
1094.50 32.98621
1094.60 32.41096
1094.70 32.33173
1094.80 32.34826
1094.90 32.41981
1095.00 32.69944
1095.10 33.07798
1095.20 33.50065
1095.30 33.93259
1095.40 34.37245
1095.50 34.37699
1095.60 34.24796
1095.70 34.10015
1095.80 33.99008
1095.90 33.88489
1096.00 33.80569
1096.10 33.83797
1096.20 33.91847
1096.30 33.94571
1096.40 33.95697
1096.50 33.96657
1096.60 33.82496
1096.70 33.61324
1096.80 33.27393
1096.90 32.78306
1097.00 32.20086
1097.10 31.89541
1097.20 31.69958
1097.30 31.55534
1097.40 31.74547
1097.50 32.04013
1097.60 32.36608
1097.70 32.64191
1097.80 32.87954
1097.90 33.03145
1098.00 33.15679
1098.10 33.32593
1098.20 33.3492
1098.30 33.24308
1098.40 33.02815
1098.50 32.74125
1098.60 32.5179
1098.70 32.39893
1098.80 32.34881
1098.90 32.32588
1099.00 32.43478
1099.10 32.55728
1099.20 32.72758
1099.30 33.01685
1099.40 33.38709
1099.50 33.55433
1099.60 33.56512
1099.70 33.43755
1099.80 33.31346
1099.90 33.20074
1100.00 33.11885
1100.10 33.04132
1100.20 32.93417
1100.30 32.78571
1100.40 32.58036
1100.50 32.33255
1100.60 32.292
1100.70 32.37165
1100.80 32.52139
1100.90 32.74505
1101.00 32.93392
1101.10 33.04655
1101.20 33.05911
1101.30 33.06489
1101.40 33.2347
1101.50 33.45611
1101.60 33.69098
1101.70 33.54258
1101.80 33.27503
1101.90 32.86682
1102.00 32.28824
1102.10 31.76413
1102.20 31.32865
1102.30 30.93335
1102.40 30.49926
1102.50 30.8269
1102.60 31.3506
1102.70 31.88956
1102.80 32.4365
1102.90 32.89538
1103.00 33.02477
1103.10 32.87288
1103.20 32.67083
1103.30 32.10233
1103.40 31.43892
1103.50 30.83521
1103.60 30.53503
1103.70 30.42534
1103.80 30.56086
1103.90 30.95042
1104.00 31.38428
1104.10 31.47124
1104.20 31.52998
1104.30 31.65988
1104.40 31.77445
1104.50 31.81958
1104.60 31.87304
1104.70 32.00283
1104.80 32.08011
1104.90 31.95522
1105.00 31.81656
1105.10 31.76345
1105.20 31.41994
1105.30 30.90206
1105.40 30.46798
1105.50 30.18276
1105.60 30.03331
1105.70 30.11254
1105.80 30.31619
1105.90 30.60866
1106.00 30.80235
1106.10 30.91191
1106.20 30.98781
1106.30 30.98371
1106.40 30.97988
1106.50 31.0335
1106.60 31.10312
1106.70 31.16285
1106.80 30.85906
1106.90 30.49548
1107.00 30.21955
1107.10 30.14672
1107.20 30.17686
1107.30 30.29439
1107.40 30.56481
1107.50 30.96734
1107.60 31.00087
1107.70 30.92621
1107.80 30.84375
1107.90 30.9324
1108.00 31.10154
1108.10 31.32929
1108.20 31.60529
1108.30 31.92152
1108.40 32.08732
1108.50 32.22541
1108.60 32.35687
1108.70 32.41317
1108.80 32.35065
1108.90 32.30544
1109.00 32.2395
1109.10 32.12769
1109.20 32.08944
1109.30 32.14985
1109.40 32.30947
1109.50 32.52196
1109.60 32.70938
1109.70 32.82875
1109.80 32.89241
1109.90 32.87885
1110.00 32.71913
1110.10 32.45811
1110.20 32.09409
1110.30 31.60593
1110.40 31.12916
1110.50 30.77471
1110.60 30.60877
1110.70 30.68426
1110.80 30.79845
1110.90 30.9506
1111.00 31.08659
1111.10 30.95573
1111.20 30.79019
1111.30 30.61519
1111.40 30.49034
1111.50 30.47075
1111.60 30.51459
1111.70 30.60765
1111.80 30.69567
1111.90 30.70027
1112.00 30.64789
1112.10 30.59586
1112.20 30.58123
1112.30 30.58964
1112.40 30.70957
1112.50 30.93764
1112.60 31.23041
1112.70 31.49477
1112.80 31.78993
1112.90 32.1015
1113.00 32.32108
1113.10 32.44226
1113.20 32.55169
1113.30 32.59565
1113.40 32.60885
1113.50 32.48728
1113.60 32.24074
1113.70 31.88788
1113.80 31.52147
1113.90 31.33844
1114.00 31.25838
1114.10 31.34194
1114.20 31.5255
1114.30 31.8902
1114.40 32.33273
1114.50 32.80414
1114.60 33.03555
1114.70 33.05537
1114.80 33.03134
1114.90 32.91226
1115.00 32.70422
1115.10 32.55775
1115.20 32.54916
1115.30 32.71718
1115.40 32.71996
1115.50 32.63009
1115.60 32.49102
1115.70 32.24954
1115.80 32.02707
1115.90 32.03212
1116.00 32.11054
1116.10 32.15216
1116.20 32.23309
1116.30 32.34
1116.40 32.38929
1116.50 32.29755
1116.60 32.21765
1116.70 32.12288
1116.80 32.00527
1116.90 31.79158
1117.00 31.5068
1117.10 31.21297
1117.20 30.95854
1117.30 30.71037
1117.40 30.52487
1117.50 30.42191
1117.60 30.34958
1117.70 30.40022
1117.80 30.57062
1117.90 30.81591
1118.00 31.10343
1118.10 31.40734
1118.20 31.73969
1118.30 32.01494
1118.40 32.26661
1118.50 32.46725
1118.60 32.73285
1118.70 32.90184
1118.80 32.72902
1118.90 32.53026
1119.00 32.29691
1119.10 32.07705
1119.20 31.86892
1119.30 31.64561
1119.40 31.50579
1119.50 31.46176
1119.60 31.48438
1119.70 31.5393
1119.80 31.65644
1119.90 31.77353
1120.00 31.87262
1120.10 31.92446
1120.20 31.93655
1120.30 31.88702
1120.40 31.87529
1120.50 31.99928
1120.60 32.25912
1120.70 32.4355
1120.80 32.48615
1120.90 32.38304
1121.00 32.30436
1121.10 32.22793
1121.20 32.1613
1121.30 32.02789
1121.40 31.95005
1121.50 31.8921
1121.60 31.92291
1121.70 31.90654
1121.80 31.83162
1121.90 31.71367
1122.00 31.65196
1122.10 31.73081
1122.20 31.81007
1122.30 31.83967
1122.40 31.88269
1122.50 32.05136
1122.60 32.12413
1122.70 32.30205
1122.80 32.46913
1122.90 32.70812
1123.00 32.79838
1123.10 32.71395
1123.20 32.55982
1123.30 32.42941
1123.40 32.14087
1123.50 31.77458
1123.60 31.27977
1123.70 31.32475
1123.80 31.53691
1123.90 31.85152
1124.00 32.07185
1124.10 32.25656
1124.20 32.44812
1124.30 32.61344
1124.40 32.74887
1124.50 32.83811
1124.60 32.87761
1124.70 32.81183
1124.80 32.63107
1124.90 32.56451
1125.00 32.3327
1125.10 32.02895
1125.20 31.45366
1125.30 31.06792
1125.40 30.92708
1125.50 31.14437
1125.60 31.47414
1125.70 31.86567
1125.80 32.05598
1125.90 32.27567
1126.00 32.36882
1126.10 32.38659
1126.20 32.35404
1126.30 32.35611
1126.40 32.3885
1126.50 32.42461
1126.60 32.50393
1126.70 32.60503
1126.80 32.75408
1126.90 32.8884
1127.00 32.98942
1127.10 33.0439
1127.20 33.03861
1127.30 32.93173
1127.40 32.84766
1127.50 32.79
1127.60 32.74578
1127.70 32.6453
1127.80 32.46345
1127.90 32.4125
1128.00 32.41094
1128.10 32.46797
1128.20 32.50965
1128.30 32.53861
1128.40 32.63093
1128.50 32.72098
1128.60 32.83201
1128.70 32.86352
1128.80 32.91865
1128.90 32.87583
1129.00 32.82979
1129.10 32.79097
1129.20 32.71071
1129.30 32.65363
1129.40 32.62992
1129.50 32.6907
1129.60 32.85976
1129.70 33.01261
1129.80 33.13235
1129.90 33.23839
1130.00 33.25599
1130.10 33.3688
1130.20 33.0625
1130.30 32.70354
1130.40 32.31989
1130.50 32.00731
1130.60 31.73975
1130.70 31.49912
1130.80 31.39476
1130.90 31.45636
1131.00 31.59509
1131.10 31.69331
1131.20 31.82549
1131.30 32.00203
1131.40 32.19688
1131.50 32.32186
1131.60 32.43614
1131.70 32.5484
1131.80 32.60345
1131.90 32.62296
1132.00 32.60964
1132.10 32.58336
1132.20 32.52625
1132.30 32.46833
1132.40 32.40809
1132.50 32.38672
1132.60 32.33941
1132.70 32.30444
1132.80 32.27924
1132.90 32.2642
1133.00 32.26575
1133.10 32.1945
1133.20 32.08607
1133.30 31.97195
1133.40 31.8864
1133.50 31.82352
1133.60 31.69271
1133.70 31.58368
1133.80 31.47066
1133.90 31.3194
1134.00 31.15173
1134.10 30.96887
1134.20 30.83123
1134.30 30.63355
1134.40 30.4426
1134.50 30.31477
1134.60 30.28318
1134.70 30.42261
1134.80 30.73952
1134.90 31.34611
1135.00 31.91211
1135.10 32.17764
1135.20 32.04792
1135.30 31.89311
1135.40 31.62459
1135.50 31.34217
1135.60 31.12982
1135.70 30.9968
1135.80 30.92541
1135.90 30.79126
1136.00 30.66406
1136.10 30.66705
1136.20 30.84695
1136.30 31.04409
1136.40 30.99676
1136.50 30.79633
1136.60 30.62396
1136.70 30.40993
1136.80 30.16856
1136.90 29.89178
1137.00 29.6528
1137.10 29.4503
1137.20 29.31361
1137.30 29.09903
1137.40 28.79877
1137.50 28.4275
1137.60 27.95232
1137.70 27.14554
1137.80 26.22593
1137.90 25.45672
1138.00 24.18186
1138.10 22.78917
1138.20 21.31961
1138.30 20.65811
1138.40 20.4788
1138.50 20.48641
1138.60 20.87664
1138.70 22.16507
1138.80 23.73016
1138.90 25.1297
1139.00 25.91016
1139.10 26.57691
1139.20 27.33248
1139.30 27.52403
1139.40 27.53018
1139.50 27.50585
1139.60 27.31454
1139.70 27.01314
1139.80 26.60005
1139.90 25.98439
1140.00 25.05506
1140.10 23.98525
1140.20 22.94046
1140.30 21.43039
1140.40 19.86161
1140.50 18.24857
1140.60 17.83792
1140.70 17.85745
1140.80 17.90336
1140.90 18.9483
1141.00 20.54805
1141.10 22.39051
1141.20 23.96878
1141.30 25.16541
1141.40 26.24977
1141.50 27.25201
1141.60 27.90116
1141.70 28.42147
1141.80 29.05123
1141.90 29.4009
1142.00 29.69581
1142.10 29.97627
1142.20 30.16272
1142.30 30.27589
1142.40 30.2808
1142.50 30.34686
1142.60 30.47895
1142.70 30.66494
1142.80 30.81824
1142.90 30.93872
1143.00 31.03293
1143.10 31.1775
1143.20 31.24169
1143.30 31.29056
1143.40 31.30976
1143.50 31.31599
1143.60 31.32311
1143.70 31.3737
1143.80 31.33826
1143.90 31.15041
1144.00 30.95884
1144.10 30.76298
1144.20 30.78928
1144.30 30.81208
1144.40 30.86263
1144.50 30.92092
1144.60 30.94509
1144.70 30.96351
1144.80 31.01882
1144.90 31.10735
1145.00 31.24435
1145.10 31.34641
1145.20 31.41967
1145.30 31.44718
1145.40 31.50514
1145.50 31.54182
1145.60 31.5605
1145.70 31.56607
1145.80 31.58819
1145.90 31.65774
1146.00 31.75829
1146.10 31.90244
1146.20 32.06528
1146.30 32.18295
1146.40 32.31298
1146.50 32.44874
1146.60 32.62877
1146.70 32.74211
1146.80 32.68752
1146.90 32.58751
1147.00 32.57302
1147.10 32.46776
1147.20 32.33736
1147.30 32.12551
1147.40 32.07087
1147.50 32.0953
1147.60 32.09902
1147.70 32.10143
1147.80 32.1136
1147.90 32.19329
1148.00 32.29983
1148.10 32.35057
1148.20 32.4033
1148.30 32.49036
1148.40 32.37298
1148.50 32.23538
1148.60 32.05287
1148.70 32.10091
1148.80 32.27423
1148.90 32.49546
1149.00 32.65697
1149.10 32.77391
1149.20 32.75816
1149.30 32.81819
1149.40 32.74366
1149.50 32.70968
1149.60 32.58846
1149.70 32.62312
1149.80 32.67503
1149.90 32.73331
1150.00 32.69568
1150.10 32.58995
1150.20 32.46885
1150.30 32.4059
1150.40 32.36261
1150.50 32.39507
1150.60 32.39728
1150.70 32.48187
1150.80 32.60566
1150.90 32.72743
1151.00 32.77562
1151.10 32.7805
1151.20 32.76179
1151.30 32.71987
1151.40 32.6505
1151.50 32.57365
1151.60 32.53834
1151.70 32.5199
1151.80 32.51398
1151.90 32.46072
1152.00 32.42526
1152.10 32.43102
1152.20 32.5221
1152.30 32.4078
1152.40 32.22411
1152.50 31.93668
1152.60 31.76814
1152.70 31.69018
1152.80 31.71402
1152.90 31.70905
1153.00 31.7055
1153.10 31.70084
1153.20 31.74304
1153.30 31.77451
1153.40 31.79401
1153.50 31.78842
1153.60 31.89794
1153.70 32.04588
1153.80 32.19912
1153.90 32.35135
1154.00 32.50967
1154.10 32.66851
1154.20 32.74669
1154.30 32.7375
1154.40 32.60984
1154.50 32.50748
1154.60 32.27241
1154.70 32.01493
1154.80 31.77345
1154.90 31.74697
1155.00 31.78271
1155.10 31.83647
1155.20 31.95836
1155.30 32.10441
1155.40 32.21432
1155.50 32.30913
1155.60 32.39355
1155.70 32.52459
1155.80 32.59683
1155.90 32.59078
1156.00 32.53892
1156.10 32.55464
1156.20 32.58253
1156.30 32.60729
1156.40 32.58996
1156.50 32.57827
1156.60 32.57783
1156.70 32.60245
1156.80 32.56524
1156.90 32.42902
1157.00 32.21004
1157.10 32.05431
1157.20 32.00795
1157.30 32.05463
1157.40 32.07981
1157.50 32.11315
1157.60 32.12851
1157.70 32.12375
1157.80 32.13834
1157.90 32.16363
1158.00 32.19749
1158.10 32.22157
1158.20 32.24253
1158.30 32.27781
1158.40 32.32668
1158.50 32.33963
1158.60 32.29242
1158.70 32.24041
1158.80 32.11944
1158.90 31.98849
1159.00 31.85
1159.10 31.55747
1159.20 31.21151
1159.30 30.86283
1159.40 30.57307
1159.50 30.31723
1159.60 30.09624
1159.70 29.94547
1159.80 30.09811
1159.90 30.3892
1160.00 30.63393
1160.10 30.91046
1160.20 31.18079
1160.30 31.44538
1160.40 31.53269
1160.50 31.54295
1160.60 31.52076
1160.70 31.24646
1160.80 30.75326
1160.90 30.16352
1161.00 29.78764
1161.10 29.83726
1161.20 30.07934
1161.30 30.22581
1161.40 30.74489
1161.50 31.33554
1161.60 31.98611
1161.70 32.27628
1161.80 32.3588
1161.90 32.31601
1162.00 32.21061
1162.10 32.03134
1162.20 31.91321
1162.30 31.81705
1162.40 31.82893
1162.50 31.90829
1162.60 31.95423
1162.70 32.06202
1162.80 32.16194
1162.90 32.24805
1163.00 32.31131
1163.10 32.36916
1163.20 32.44205
1163.30 32.44736
1163.40 32.36728
1163.50 32.20233
1163.60 31.9988
1163.70 31.56665
1163.80 31.04671
1163.90 30.54996
1164.00 30.29569
1164.10 30.18881
1164.20 30.04977
1164.30 30.39866
1164.40 30.86855
1164.50 31.41381
1164.60 31.75323
1164.70 31.93659
1164.80 32.01314
1164.90 32.05824
1165.00 31.99569
1165.10 31.86193
1165.20 31.76553
1165.30 31.61769
1165.40 31.45
1165.50 31.27468
1165.60 31.2088
1165.70 31.2
1165.80 31.21828
1165.90 31.26973
1166.00 31.38905
1166.10 31.56852
1166.20 31.73443
1166.30 31.87714
1166.40 31.95465
1166.50 32.08433
1166.60 32.15476
1166.70 32.1796
1166.80 32.19675
1166.90 32.07164
1167.00 31.90462
1167.10 31.70712
1167.20 31.54326
1167.30 31.40772
1167.40 31.31824
1167.50 31.24231
1167.60 31.18177
1167.70 31.1267
1167.80 31.0869
1167.90 31.10051
1168.00 31.09914
1168.10 31.09895
1168.20 30.95947
1168.30 30.75242
1168.40 30.5143
1168.50 30.09258
1168.60 29.54927
1168.70 28.90561
1168.80 27.96795
1168.90 26.46757
1169.00 24.66378
1169.10 23.11873
1169.20 22.28245
1169.30 21.89609
1169.40 21.25938
1169.50 22.17192
1169.60 23.60506
1169.70 25.26277
1169.80 26.58604
1169.90 27.73495
1170.00 28.78322
1170.10 29.63428
1170.20 30.20486
1170.30 30.62057
1170.40 31.07141
1170.50 31.34592
1170.60 31.48161
1170.70 31.62082
1170.80 31.64108
1170.90 31.62675
1171.00 31.61029
1171.10 31.62295
1171.20 31.64737
1171.30 31.6574
1171.40 31.63693
1171.50 31.60748
1171.60 31.59921
1171.70 31.61158
1171.80 31.54275
1171.90 31.40949
1172.00 31.24058
1172.10 31.14604
1172.20 31.09812
1172.30 31.07386
1172.40 31.09285
1172.50 31.13339
1172.60 31.19721
1172.70 31.30596
1172.80 31.46091
1172.90 31.60049
1173.00 31.70755
1173.10 31.76486
1173.20 31.78035
1173.30 31.84283
1173.40 31.74982
1173.50 31.62835
1173.60 31.49055
1173.70 31.39703
1173.80 31.35393
1173.90 31.33992
1174.00 31.34636
1174.10 31.40855
1174.20 31.50959
1174.30 31.61892
1174.40 31.75505
1174.50 31.82651
1174.60 31.88662
1174.70 31.81154
1174.80 31.71392
1174.90 31.62855
1175.00 31.48378
1175.10 31.29619
1175.20 31.06444
1175.30 30.87706
1175.40 30.72622
1175.50 30.64673
1175.60 30.58698
1175.70 30.62105
1175.80 30.68502
1175.90 30.7894
1176.00 30.7467
1176.10 30.63408
1176.20 30.50968
1176.30 30.34392
1176.40 30.15249
1176.50 29.93076
1176.60 29.4074
1176.70 28.635
1176.80 27.71873
1176.90 26.55947
1177.00 24.83016
1177.10 22.81416
1177.20 20.90382
1177.30 19.57586
1177.40 18.51461
1177.50 17.32415
1177.60 17.9048
1177.70 19.0164
1177.80 20.47312
1177.90 21.94611
1178.00 23.52986
1178.10 25.16683
1178.20 26.50523
1178.30 27.30367
1178.40 27.85916
1178.50 28.46897
1178.60 28.93145
1178.70 29.30741
1178.80 29.6903
1178.90 30.03188
1179.00 30.32314
1179.10 30.5724
1179.20 30.68348
1179.30 30.7141
1179.40 30.71118
1179.50 30.70693
1179.60 30.67064
1179.70 30.66082
1179.80 30.66346
1179.90 30.72874
1180.00 30.76169
1180.10 30.75159
1180.20 30.81516
1180.30 30.93117
1180.40 31.09978
1180.50 31.18442
1180.60 31.2033
1180.70 31.17667
1180.80 31.16538
1180.90 31.13297
1181.00 31.08747
1181.10 31.03571
1181.20 30.99088
1181.30 30.94097
1181.40 30.88263
1181.50 30.81653
1181.60 30.77364
1181.70 30.72633
1181.80 30.73905
1181.90 30.79484
1182.00 30.88977
1182.10 30.99246
1182.20 31.10159
1182.30 31.15377
1182.40 31.15778
1182.50 30.97168
1182.60 30.70471
1182.70 30.46257
1182.80 30.11883
1182.90 29.7942
1183.00 29.45402
1183.10 29.44101
1183.20 29.55603
1183.30 29.73684
1183.40 29.88639
1183.50 30.01608
1183.60 30.10984
1183.70 30.21754
1183.80 30.23773
1183.90 30.25128
1184.00 30.19728
1184.10 30.4129
1184.20 30.73334
1184.30 31.09256
1184.40 31.26462
1184.50 31.32027
1184.60 31.28253
1184.70 31.15285
1184.80 30.91174
1184.90 30.60454
1185.00 30.36218
1185.10 30.24772
1185.20 30.21734
1185.30 30.17953
1185.40 30.31664
1185.50 30.52225
1185.60 30.73103
1185.70 30.82123
1185.80 30.87215
1185.90 30.9109
1186.00 30.979
1186.10 31.05162
1186.20 31.08278
1186.30 31.07039
1186.40 31.02077
1186.50 30.98544
1186.60 30.98742
1186.70 30.89888
1186.80 30.74305
1186.90 30.57425
1187.00 30.50641
1187.10 30.4848
1187.20 30.48563
1187.30 30.52998
1187.40 30.64046
1187.50 30.8226
1187.60 30.93355
1187.70 30.95914
1187.80 30.83642
1187.90 30.69662
1188.00 30.26975
1188.10 29.74775
1188.20 29.27239
1188.30 28.4727
1188.40 27.57214
1188.50 26.61954
1188.60 26.38768
1188.70 26.62315
1188.80 27.1056
1188.90 27.61158
1189.00 28.38233
1189.10 29.23142
1189.20 29.99042
1189.30 30.2236
1189.40 30.25736
1189.50 30.28909
1189.60 30.34121
1189.70 30.41765
1189.80 30.54141
1189.90 30.66777
1190.00 30.78159
1190.10 30.8851
1190.20 30.93884
1190.30 30.90721
1190.40 30.79072
1190.50 30.66778
1190.60 30.51604
1190.70 30.39825
1190.80 30.26678
1190.90 30.36885
1191.00 30.52427
1191.10 30.67372
1191.20 30.74811
1191.30 30.80198
1191.40 30.8653
1191.50 30.92376
1191.60 30.95398
1191.70 30.96526
1191.80 30.99379
1191.90 31.04168
1192.00 31.07777
1192.10 31.07453
1192.20 30.99803
1192.30 30.8956
1192.40 30.80525
1192.50 30.72157
1192.60 30.65229
1192.70 30.60016
1192.80 30.61105
1192.90 30.67787
1193.00 30.7616
1193.10 30.82147
1193.20 30.84746
1193.30 30.85893
1193.40 30.872
1193.50 30.73085
1193.60 30.50612
1193.70 30.29008
1193.80 30.04867
1193.90 29.8083
1194.00 29.56543
1194.10 29.42675
1194.20 29.39435
1194.30 29.44493
1194.40 29.43368
1194.50 29.38196
1194.60 29.29275
1194.70 29.24698
1194.80 29.01382
1194.90 28.69304
1195.00 28.34189
1195.10 28.27882
1195.20 28.35558
1195.30 28.48219
1195.40 28.72614
1195.50 29.06988
1195.60 29.45468
1195.70 29.69913
1195.80 29.71302
1195.90 29.50979
1196.00 29.38881
1196.10 29.22213
1196.20 29.05781
1196.30 28.88218
1196.40 28.81501
1196.50 28.78654
1196.60 28.78454
1196.70 28.80589
1196.80 28.83714
1196.90 28.86612
1197.00 28.64055
1197.10 28.12163
1197.20 27.43965
1197.30 26.83103
1197.40 26.15838
1197.50 25.47979
1197.60 24.71117
1197.70 24.87753
1197.80 25.259
1197.90 25.70922
1198.00 26.13476
1198.10 26.56157
1198.20 27.00049
1198.30 27.41232
1198.40 27.77395
1198.50 28.15279
1198.60 28.43763
1198.70 28.59106
1198.80 28.59295
1198.90 28.6972
1199.00 28.43979
1199.10 28.09384
1199.20 27.72516
1199.30 27.52909
1199.40 27.43072
1199.50 27.38792
1199.60 27.39875
1199.70 27.48957
1199.80 27.63574
1199.90 27.7367
1200.00 27.77164
