# Version 2.1 - nm, norm@500 to 1, cut digits
# Wavelength(nm)  Flambda(ergs/cm^s/s/nm)
300.00 0.007807442
300.10 0.01035983
300.20 0.01192268
300.30 0.0125798
300.40 0.01276263
300.50 0.01282272
300.60 0.01287854
300.70 0.01293186
300.80 0.01298586
300.90 0.01304537
301.00 0.0131153
301.10 0.01319783
301.20 0.01329106
301.30 0.01339076
301.40 0.01349306
301.50 0.01359592
301.60 0.01369883
301.70 0.01380176
301.80 0.01390471
301.90 0.01400766
302.00 0.01411061
302.10 0.01421357
302.20 0.01431652
302.30 0.01441948
302.40 0.01452245
302.50 0.01462544
302.60 0.01472846
302.70 0.01483192
302.80 0.01493734
302.90 0.01504768
303.00 0.01516614
303.10 0.01529417
303.20 0.01543032
303.30 0.01557139
303.40 0.01571442
303.50 0.01585789
303.60 0.01600139
303.70 0.01614491
303.80 0.01628845
303.90 0.01643198
304.00 0.01657552
304.10 0.01671905
304.20 0.01686259
304.30 0.01700611
304.40 0.0171496
304.50 0.01729303
304.60 0.01743635
304.70 0.01757835
304.80 0.01771433
304.90 0.0178353
305.00 0.0179314
305.10 0.01799825
305.20 0.01804023
305.30 0.0180672
305.40 0.01808815
305.50 0.01810778
305.60 0.0181273
305.70 0.01814676
305.80 0.01816618
305.90 0.0181856
306.00 0.01820501
306.10 0.01822443
306.20 0.01824384
306.30 0.01826325
306.40 0.01828267
306.50 0.01830208
306.60 0.01832149
306.70 0.01834091
306.80 0.01836034
306.90 0.0183798
307.00 0.01839932
307.10 0.0184189
307.20 0.01843853
307.30 0.0184582
307.40 0.01847787
307.50 0.01849756
307.60 0.01851724
307.70 0.01853692
307.80 0.0185566
307.90 0.01857629
308.00 0.01859597
308.10 0.01861565
308.20 0.01863534
308.30 0.01865506
308.40 0.01867486
308.50 0.01869482
308.60 0.01871503
308.70 0.01873855
308.80 0.01877715
308.90 0.01885331
309.00 0.01899172
309.10 0.01920333
309.20 0.01947718
309.30 0.0197886
309.40 0.02011509
309.50 0.02044489
309.60 0.02077495
309.70 0.02110517
309.80 0.02143546
309.90 0.02176579
310.00 0.02209612
310.10 0.02242645
310.20 0.02275678
310.30 0.02308707
310.40 0.02341729
310.50 0.02374735
310.60 0.02407714
310.70 0.02440362
310.80 0.02471494
310.90 0.02498849
311.00 0.02519947
311.10 0.02533687
311.20 0.0254117
311.30 0.02544875
311.40 0.02547066
311.50 0.02548924
311.60 0.02550756
311.70 0.02552572
311.80 0.0255438
311.90 0.02556186
312.00 0.0255799
312.10 0.02559795
312.20 0.025616
312.30 0.0256341
312.40 0.02565229
312.50 0.02567067
312.60 0.02568938
312.70 0.02571219
312.80 0.02575372
312.90 0.02584189
313.00 0.02600735
313.10 0.02626367
313.20 0.02659728
313.30 0.02697754
313.40 0.02737651
313.50 0.02777958
313.60 0.02818299
313.70 0.02858658
313.80 0.02899027
313.90 0.02939399
314.00 0.02979773
314.10 0.03020147
314.20 0.03060521
314.30 0.03100898
314.40 0.03141282
314.50 0.03181679
314.60 0.03222099
314.70 0.03262804
314.80 0.03304812
314.90 0.03350067
315.00 0.03400702
315.10 0.03457663
315.20 0.03520002
315.30 0.03585589
315.40 0.03652479
315.50 0.03719655
315.60 0.03786853
315.70 0.03854064
315.80 0.03921282
315.90 0.03988503
316.00 0.04055724
316.10 0.04122946
316.20 0.04190165
316.30 0.04257374
316.40 0.04324559
316.50 0.04391694
316.60 0.04458746
316.70 0.04524748
316.80 0.04585962
316.90 0.0463524
317.00 0.04664743
317.10 0.04670995
317.20 0.04657473
317.30 0.04632014
317.40 0.04601767
317.50 0.0457047
317.60 0.0453909
317.70 0.04507661
317.80 0.04476207
317.90 0.04444743
318.00 0.04413276
318.10 0.0438181
318.20 0.04350345
318.30 0.04318888
318.40 0.0428745
318.50 0.0425605
318.60 0.04224714
318.70 0.04194181
318.80 0.04167313
318.90 0.04149583
319.00 0.04146989
319.10 0.04162195
319.20 0.04192537
319.30 0.04232016
319.40 0.04275161
319.50 0.04319109
319.60 0.04363122
319.70 0.04407171
319.80 0.0445124
319.90 0.04495317
320.00 0.04539395
320.10 0.04583473
320.20 0.0462755
320.30 0.04671625
320.40 0.04715693
320.50 0.04759747
320.60 0.04803777
320.70 0.0484751
320.80 0.04889887
320.90 0.04928885
321.00 0.04962284
321.10 0.04989101
321.20 0.05010319
321.30 0.05028158
321.40 0.05044641
321.50 0.05060827
321.60 0.0507699
321.70 0.05093138
321.80 0.05109279
321.90 0.05125418
322.00 0.05141556
322.10 0.05157694
322.20 0.05173834
322.30 0.05189985
322.40 0.05206161
322.50 0.05222388
322.60 0.05238701
322.70 0.052561
322.80 0.05278451
322.90 0.05313146
323.00 0.05368289
323.10 0.05447477
323.20 0.05547114
323.30 0.05659095
323.40 0.05776028
323.50 0.05894047
323.60 0.06012151
323.70 0.06130307
323.80 0.06248488
323.90 0.06366679
324.00 0.06484873
324.10 0.06603066
324.20 0.0672126
324.30 0.06839451
324.40 0.06957639
324.50 0.07075818
324.60 0.07193983
324.70 0.07311972
324.80 0.07429157
324.90 0.07544336
325.00 0.07656194
325.10 0.07764145
325.20 0.07868775
325.30 0.079714
325.40 0.08073221
325.50 0.08174865
325.60 0.08276495
325.70 0.08378117
325.80 0.08479735
325.90 0.08581351
326.00 0.08682966
326.10 0.08784582
326.20 0.08886198
326.30 0.08987818
326.40 0.09089448
326.50 0.09191094
326.60 0.09292771
326.70 0.09394829
326.80 0.09498619
326.90 0.09606732
327.00 0.09722004
327.10 0.09845694
327.20 0.09976544
327.30 0.1011172
327.40 0.1024862
327.50 0.1038591
327.60 0.1052322
327.70 0.1066055
327.80 0.107979
327.90 0.1093524
328.00 0.1107259
328.10 0.1120994
328.20 0.1134728
328.30 0.114846
328.40 0.1162187
328.50 0.1175903
328.60 0.1189602
328.70 0.1203077
328.80 0.1215536
328.90 0.1225458
329.00 0.123118
329.10 0.1231963
329.20 0.1228545
329.30 0.1222591
329.40 0.121562
329.50 0.1208426
329.60 0.1201215
329.70 0.1193993
329.80 0.1186765
329.90 0.1179536
330.00 0.1172306
330.10 0.1165076
330.20 0.1157846
330.30 0.1150618
330.40 0.1143394
330.50 0.1136178
330.60 0.1128974
330.70 0.1121937
330.80 0.1115653
330.90 0.1111251
331.00 0.1109965
331.10 0.1112343
331.20 0.1117837
331.30 0.1125212
331.40 0.1133341
331.50 0.1141636
331.60 0.1149945
331.70 0.1158261
331.80 0.116658
331.90 0.1174902
332.00 0.1183224
332.10 0.1191545
332.20 0.1199867
332.30 0.1208187
332.40 0.1216505
332.50 0.1224819
332.60 0.1233123
332.70 0.1241323
332.80 0.1249046
332.90 0.1255577
333.00 0.1260136
333.10 0.1262374
333.20 0.126264
333.30 0.1261715
333.40 0.1260312
333.50 0.1258804
333.60 0.1257288
333.70 0.1255767
333.80 0.1254243
333.90 0.1252719
334.00 0.1251194
334.10 0.1249672
334.20 0.1248158
334.30 0.1246655
334.40 0.1245163
334.50 0.124368
334.60 0.1243448
334.70 0.1247284
334.80 0.1256294
334.90 0.1265517
335.00 0.1265483
335.10 0.1253633
335.20 0.1244951
335.30 0.1267392
335.40 0.1340329
335.50 0.1452598
335.60 0.1561349
335.70 0.1616925
335.80 0.1594856
335.90 0.1507967
336.00 0.1392708
336.10 0.1286646
336.20 0.1216027
336.30 0.1191913
336.40 0.1205516
336.50 0.1229295
336.60 0.1233484
336.70 0.1210807
336.80 0.1185722
336.90 0.1195212
337.00 0.1257071
337.10 0.135249
337.20 0.1436799
337.30 0.1470133
337.40 0.1445404
337.50 0.1392713
337.60 0.1356327
337.70 0.1361848
337.80 0.1401174
337.90 0.1447351
338.00 0.147975
338.10 0.1492673
338.20 0.1483123
338.30 0.1441342
338.40 0.1364065
338.50 0.1274087
338.60 0.1216724
338.70 0.122729
338.80 0.1298182
338.90 0.1381316
339.00 0.1426769
339.10 0.1423646
339.20 0.140677
339.30 0.1422396
339.40 0.1485569
339.50 0.1570349
339.60 0.1637802
339.70 0.1668672
339.80 0.16683
339.90 0.1647373
340.00 0.1610157
340.10 0.1561081
340.20 0.1510377
340.30 0.1465843
340.40 0.1422335
340.50 0.1367227
340.60 0.1297535
340.70 0.1226979
340.80 0.117517
340.90 0.1153272
341.00 0.1160554
341.10 0.1190203
341.20 0.1234347
341.30 0.128373
341.40 0.1327452
341.50 0.1357173
341.60 0.1372023
341.70 0.1378971
341.80 0.1387502
341.90 0.1402581
342.00 0.1420245
342.10 0.1428376
342.20 0.1414085
342.30 0.1374568
342.40 0.132295
342.50 0.1281652
342.60 0.1267352
342.70 0.12806
342.80 0.1307982
342.90 0.1332716
343.00 0.1344969
343.10 0.1346273
343.20 0.1345874
343.30 0.1351722
343.40 0.1363523
343.50 0.1374378
343.60 0.1378081
343.70 0.1372935
343.80 0.1360269
343.90 0.1343208
344.00 0.1327452
344.10 0.1319591
344.20 0.1321356
344.30 0.1326716
344.40 0.1327191
344.50 0.1319979
344.60 0.1310247
344.70 0.1306616
344.80 0.1315674
344.90 0.1339741
345.00 0.1377566
345.10 0.1425254
345.20 0.1476479
345.30 0.1522499
345.40 0.1553561
345.50 0.1563584
345.60 0.1555214
345.70 0.1539382
345.80 0.1527826
345.90 0.1524891
346.00 0.1525586
346.10 0.151997
346.20 0.1500104
346.30 0.1466314
346.40 0.1429203
346.50 0.1403486
346.60 0.1396301
346.70 0.1401012
346.80 0.1403382
346.90 0.1393169
347.00 0.136941
347.10 0.133846
347.20 0.131086
347.30 0.1298357
347.40 0.130842
347.50 0.1338365
347.60 0.1376602
347.70 0.1411534
347.80 0.1439301
347.90 0.146367
348.00 0.1490027
348.10 0.1519311
348.20 0.1546058
348.30 0.1561997
348.40 0.1562743
348.50 0.1551634
348.60 0.1536293
348.70 0.1521689
348.80 0.1507808
348.90 0.1493084
349.00 0.1477627
349.10 0.1462808
349.20 0.1449855
349.30 0.1440516
349.40 0.1437919
349.50 0.1444058
349.60 0.1455907
349.70 0.1465872
349.80 0.1468523
349.90 0.1468235
350.00 0.1478664
350.10 0.1511979
350.20 0.1567173
350.30 0.1628844
350.40 0.1677675
350.50 0.1702613
350.60 0.1704502
350.70 0.169094
350.80 0.1669796
350.90 0.1645489
351.00 0.1617272
351.10 0.1579593
351.20 0.1526467
351.30 0.1459246
351.40 0.1390856
351.50 0.1339605
351.60 0.1316243
351.70 0.1316393
351.80 0.1325657
351.90 0.133161
352.00 0.1330749
352.10 0.1325582
352.20 0.1319045
352.30 0.1313693
352.40 0.1314995
352.50 0.1332941
352.60 0.1376559
352.70 0.1444563
352.80 0.1521793
352.90 0.1587662
353.00 0.1631284
353.10 0.1658414
353.20 0.1682577
353.30 0.171128
353.40 0.1742712
353.50 0.1773208
353.60 0.1803525
353.70 0.1836488
353.80 0.187203
353.90 0.1907012
354.00 0.1937337
354.10 0.1957698
354.20 0.1961717
354.30 0.1946858
354.40 0.1919942
354.50 0.1894829
354.60 0.1882078
354.70 0.188118
354.80 0.1883473
354.90 0.1881243
355.00 0.1873046
355.10 0.1861979
355.20 0.1851334
355.30 0.1842629
355.40 0.1836593
355.50 0.1833533
355.60 0.1831629
355.70 0.1825808
355.80 0.1810103
355.90 0.1782604
356.00 0.1747726
356.10 0.1712617
356.20 0.1681039
356.30 0.1650379
356.40 0.1614535
356.50 0.1570583
356.60 0.1523625
356.70 0.1484968
356.80 0.1464253
356.90 0.1462341
357.00 0.1471377
357.10 0.1480861
357.20 0.1483116
357.30 0.1474854
357.40 0.145623
357.50 0.1429811
357.60 0.1399836
357.70 0.1370728
357.80 0.1345308
357.90 0.1324157
358.00 0.1307154
358.10 0.1296159
358.20 0.1295723
358.30 0.1310104
358.40 0.1338986
358.50 0.1375933
358.60 0.1410879
358.70 0.143443
358.80 0.1441768
358.90 0.1434976
359.00 0.1423179
359.10 0.1419119
359.20 0.143214
359.30 0.1461676
359.40 0.14965
359.50 0.1521751
359.60 0.1528996
359.70 0.152146
359.80 0.1510347
359.90 0.150536
360.00 0.1506991
360.10 0.1506538
360.20 0.1493548
360.30 0.1464236
360.40 0.1424695
360.50 0.1387872
360.60 0.1367581
360.70 0.1373013
360.80 0.1404594
360.90 0.1453023
361.00 0.1503834
361.10 0.1545614
361.20 0.1575394
361.30 0.1596428
361.40 0.1611551
361.50 0.1620144
361.60 0.1622066
361.70 0.1621918
361.80 0.1626545
361.90 0.1638103
362.00 0.1651494
362.10 0.1659715
362.20 0.1660303
362.30 0.1656033
362.40 0.1651559
362.50 0.1650769
362.60 0.1654955
362.70 0.1660583
362.80 0.1659925
362.90 0.1647213
363.00 0.1625371
363.10 0.1605148
363.20 0.159647
363.30 0.1601046
363.40 0.1613086
363.50 0.162536
363.60 0.1633841
363.70 0.1638106
363.80 0.1638938
363.90 0.1635988
364.00 0.1627184
364.10 0.1610179
364.20 0.1584732
364.30 0.1554032
364.40 0.152403
364.50 0.1501508
364.60 0.1491466
364.70 0.1494345
364.80 0.1505424
364.90 0.1518396
365.00 0.153112
365.10 0.1547768
365.20 0.1573647
365.30 0.160725
365.40 0.1638322
365.50 0.1654946
365.60 0.1653355
365.70 0.1640779
365.80 0.1628484
365.90 0.162264
366.00 0.162201
366.10 0.1623069
366.20 0.1625578
366.30 0.1632098
366.40 0.1643273
366.50 0.1655257
366.60 0.1661727
366.70 0.165796
366.80 0.1643297
366.90 0.1620784
367.00 0.1595588
367.10 0.1573577
367.20 0.1560079
367.30 0.1558521
367.40 0.1568949
367.50 0.1587723
367.60 0.1609302
367.70 0.1629116
367.80 0.1645455
367.90 0.1659176
368.00 0.1671829
368.10 0.1683773
368.20 0.1693504
368.30 0.169839
368.40 0.169638
368.50 0.1687938
368.60 0.1676851
368.70 0.1668661
368.80 0.1667292
368.90 0.1672662
369.00 0.1681767
369.10 0.1692218
369.20 0.1703874
369.30 0.1716602
369.40 0.1727435
369.50 0.1731306
369.60 0.172544
369.70 0.1712766
369.80 0.1700902
369.90 0.1697841
370.00 0.1707808
370.10 0.1729603
370.20 0.1757955
370.30 0.1786356
370.40 0.18093
370.50 0.182321
370.60 0.1826842
370.70 0.1822257
370.80 0.1814946
370.90 0.1811372
371.00 0.1814774
371.10 0.1822476
371.20 0.18269
371.30 0.1819491
371.40 0.1795494
371.50 0.1757128
371.60 0.1713252
371.70 0.1675235
371.80 0.165176
371.90 0.1646018
372.00 0.165596
372.10 0.16749
372.20 0.1691068
372.30 0.1689665
372.40 0.1659718
372.50 0.1602686
372.60 0.1535049
372.70 0.1480941
372.80 0.1459875
372.90 0.1478201
373.00 0.1528619
373.10 0.1595471
373.20 0.1661218
373.30 0.1711183
373.40 0.1736493
373.50 0.1734725
373.60 0.1708312
373.70 0.1662208
373.80 0.1602844
373.90 0.1538689
374.00 0.1480342
374.10 0.1438697
374.20 0.1422177
374.30 0.143525
374.40 0.1478766
374.50 0.1550262
374.60 0.1643082
374.70 0.1745145
374.80 0.1839718
374.90 0.190965
375.00 0.1943235
375.10 0.1937961
375.20 0.1900112
375.30 0.1841491
375.40 0.1775807
375.50 0.1715788
375.60 0.1670165
375.70 0.1641344
375.80 0.1625547
375.90 0.1615999
376.00 0.1607665
376.10 0.1600983
376.20 0.1602654
376.30 0.1622883
376.40 0.1670398
376.50 0.1748683
376.60 0.1855875
376.70 0.1985915
376.80 0.2127736
376.90 0.2263004
377.00 0.2367636
377.10 0.2420019
377.20 0.2410867
377.30 0.2346802
377.40 0.2245496
377.50 0.2127325
377.60 0.2009565
377.70 0.1904692
377.80 0.1819917
377.90 0.1756809
378.00 0.1712165
378.10 0.1680837
378.20 0.1658757
378.30 0.1643718
378.40 0.1634183
378.50 0.1628899
378.60 0.1628079
378.70 0.1634063
378.80 0.165032
378.90 0.1680734
379.00 0.1730742
379.10 0.1807985
379.20 0.1919119
379.30 0.2063941
379.40 0.2231761
379.50 0.2402939
379.60 0.2553398
379.70 0.2659411
379.80 0.2702966
379.90 0.2677357
380.00 0.2590602
380.10 0.2463107
380.20 0.231991
380.30 0.2182123
380.40 0.2062502
380.50 0.1965737
380.60 0.1890911
380.70 0.1833633
380.80 0.178762
380.90 0.174744
381.00 0.1711194
381.10 0.1680449
381.20 0.1657028
381.30 0.1639985
381.40 0.16265
381.50 0.1615841
381.60 0.1611574
381.70 0.1617308
381.80 0.1630963
381.90 0.1644684
382.00 0.165129
382.10 0.1682468
382.20 0.1811937
382.30 0.2012871
382.40 0.2287963
382.50 0.2677133
382.60 0.3208676
382.70 0.3814093
382.80 0.4282596
382.90 0.4438467
383.00 0.4192727
383.10 0.3805377
383.20 0.3772409
383.30 0.4154154
383.40 0.4787496
383.50 0.5358777
383.60 0.5524189
383.70 0.5120692
383.80 0.4309292
383.90 0.3468689
384.00 0.2912026
384.10 0.2699238
384.20 0.2680844
384.30 0.2699221
384.40 0.27004
384.50 0.2601129
384.60 0.2393958
384.70 0.1851235
384.80 0.1189403
384.90 0.07588033
385.00 0.07972433
385.10 0.1218421
385.20 0.171724
385.30 0.199936
385.40 0.1949486
385.50 0.1713167
385.60 0.1574233
385.70 0.1687369
385.80 0.1953465
385.90 0.219279
386.00 0.2347588
386.10 0.2462398
386.20 0.2539642
386.30 0.2542642
386.40 0.2500843
386.50 0.2507804
386.60 0.2637408
386.70 0.289016
386.80 0.3191512
386.90 0.3375359
387.00 0.3251575
387.10 0.2796035
387.20 0.2256891
387.30 0.1987275
387.40 0.2113365
387.50 0.240824
387.60 0.2528263
387.70 0.2355017
387.80 0.2025033
387.90 0.1684572
388.00 0.1375237
388.10 0.1203223
388.20 0.1410362
388.30 0.2070315
388.40 0.2863355
388.50 0.3391987
388.60 0.3698635
388.70 0.4175611
388.80 0.4945106
388.90 0.557907
389.00 0.5567476
389.10 0.4915338
389.20 0.409586
389.30 0.3530669
389.40 0.3272747
389.50 0.3091855
389.60 0.2734884
389.70 0.2436771
389.80 0.2205968
389.90 0.2373087
390.00 0.2947932
390.10 0.3419389
390.20 0.3705673
390.30 0.3770967
390.40 0.3722615
390.50 0.3895767
390.60 0.4092589
390.70 0.3982876
390.80 0.350583
390.90 0.2913794
391.00 0.2524322
391.10 0.2537737
391.20 0.2960502
391.30 0.3273768
391.40 0.3500578
391.50 0.3532742
391.60 0.3353653
391.70 0.3060516
391.80 0.275054
391.90 0.2495402
392.00 0.2387011
392.10 0.2429692
392.20 0.254376
392.30 0.251853
392.40 0.2455865
392.50 0.2383427
392.60 0.2252823
392.70 0.2271148
392.80 0.2528502
392.90 0.3070275
393.00 0.3819429
393.10 0.4996825
393.20 0.6898022
393.30 0.9031344
393.40 1.038958
393.50 1.015904
393.60 0.8426144
393.70 0.6126484
393.80 0.4257068
393.90 0.3193061
394.00 0.2700253
394.10 0.2442526
394.20 0.2281346
394.30 0.2093898
394.40 0.21082
394.50 0.2320977
394.60 0.2656793
394.70 0.2973797
394.80 0.3309865
394.90 0.3470766
395.00 0.3527023
395.10 0.3516712
395.20 0.3469841
395.30 0.3447738
395.40 0.354144
395.50 0.3571063
395.60 0.3407158
395.70 0.3212369
395.80 0.3042039
395.90 0.2957027
396.00 0.2870665
396.10 0.271971
396.20 0.2575033
396.30 0.2490457
396.40 0.2677451
396.50 0.3318737
396.60 0.4656331
396.70 0.6846561
396.80 0.9514464
396.90 1.170066
397.00 1.235328
397.10 1.114634
397.20 0.8764512
397.30 0.6366789
397.40 0.4694262
397.50 0.3818965
397.60 0.3466989
397.70 0.3376331
397.80 0.3394686
397.90 0.3410105
398.00 0.3309932
398.10 0.3043825
398.20 0.2707205
398.30 0.2521307
398.40 0.2651616
398.50 0.3048839
398.60 0.3501083
398.70 0.3843444
398.80 0.3904385
398.90 0.3851406
399.00 0.3702721
399.10 0.3583538
399.20 0.3667388
399.30 0.393959
399.40 0.4148581
399.50 0.4084811
399.60 0.3799688
399.70 0.3568676
399.80 0.3574674
399.90 0.3668804
400.00 0.3646391
400.10 0.3492747
400.20 0.3380451
400.30 0.3439786
400.40 0.3597573
400.50 0.3668684
400.60 0.358317
400.70 0.3563493
400.80 0.3727276
400.90 0.3954348
401.00 0.4143511
401.10 0.4178284
401.20 0.4093257
401.30 0.388038
401.40 0.3641686
401.50 0.3438074
401.60 0.3224203
401.70 0.2894386
401.80 0.2673037
401.90 0.2655316
402.00 0.2795964
402.10 0.2963772
402.20 0.3033679
402.30 0.2965379
402.40 0.2844299
402.50 0.2832137
402.60 0.3017801
402.70 0.3320826
402.80 0.3538888
402.90 0.3504804
403.00 0.3213153
403.10 0.2789474
403.20 0.2390602
403.30 0.2144006
403.40 0.212682
403.50 0.2349063
403.60 0.2723311
403.70 0.3080603
403.80 0.3389874
403.90 0.3727222
404.00 0.4094594
404.10 0.440766
404.20 0.4533624
404.30 0.443465
404.40 0.4174509
404.50 0.382902
404.60 0.3463041
404.70 0.317105
404.80 0.3023469
404.90 0.2984585
405.00 0.2963531
405.10 0.2948523
405.20 0.303757
405.30 0.3288804
405.40 0.3588598
405.50 0.373971
405.60 0.3680265
405.70 0.3533295
405.80 0.3426184
405.90 0.3376669
406.00 0.330001
406.10 0.3143457
406.20 0.2947778
406.30 0.2811825
406.40 0.2809261
406.50 0.2937511
406.60 0.3072825
406.70 0.3061066
406.80 0.2872242
406.90 0.2634797
407.00 0.2530986
407.10 0.2623753
407.20 0.2726833
407.30 0.2727429
407.40 0.2630689
407.50 0.2399683
407.60 0.2225269
407.70 0.220484
407.80 0.2334212
407.90 0.2580806
408.00 0.2882408
408.10 0.3142991
408.20 0.3280081
408.30 0.3269812
408.40 0.3165262
408.50 0.3042125
408.60 0.2942818
408.70 0.2862519
408.80 0.2791281
408.90 0.2751332
409.00 0.2752975
409.10 0.2743445
409.20 0.2660227
409.30 0.2499794
409.40 0.2347681
409.50 0.2290906
409.60 0.2358046
409.70 0.2540845
409.80 0.2864741
409.90 0.3414678
410.00 0.4278143
410.10 0.5366159
410.20 0.6270251
410.30 0.6452377
410.40 0.5720487
410.50 0.4483535
410.60 0.3428017
410.70 0.2793213
410.80 0.2687515
410.90 0.2764011
411.00 0.2799291
411.10 0.2756689
411.20 0.2664346
411.30 0.2560369
411.40 0.2506014
411.50 0.2530936
411.60 0.237292
411.70 0.1965117
411.80 0.1523976
411.90 0.1204729
412.00 0.1140957
412.10 0.1349022
412.20 0.17277
412.30 0.2106405
412.40 0.2369913
412.50 0.2500059
412.60 0.2540124
412.70 0.2539865
412.80 0.2522653
412.90 0.2487288
413.00 0.2445331
413.10 0.2437786
413.20 0.2501325
413.30 0.2608499
413.40 0.2671286
413.50 0.2625326
413.60 0.2504763
413.70 0.241287
413.80 0.2431151
413.90 0.257442
414.00 0.2800038
414.10 0.3029195
414.20 0.299048
414.30 0.2777799
414.40 0.2466197
414.50 0.2192687
414.60 0.2081091
414.70 0.2147993
414.80 0.2167876
414.90 0.2157915
415.00 0.2231612
415.10 0.2336552
415.20 0.2454998
415.30 0.2661263
415.40 0.2863658
415.50 0.2991999
415.60 0.303361
415.70 0.3019242
415.80 0.3003671
415.90 0.3027877
416.00 0.3046597
416.10 0.3025856
416.20 0.2930939
416.30 0.2791425
416.40 0.2706393
416.50 0.2750902
416.60 0.2775269
416.70 0.2873189
416.80 0.2968953
416.90 0.2966015
417.00 0.2781188
417.10 0.2418052
417.20 0.2168831
417.30 0.2051073
417.40 0.2020701
417.50 0.2103481
417.60 0.2353874
417.70 0.2717054
417.80 0.3024527
417.90 0.3079389
418.00 0.3109892
418.10 0.3213541
418.20 0.3333607
418.30 0.331934
418.40 0.3107376
418.50 0.2809156
418.60 0.2476431
418.70 0.2341253
418.80 0.231667
418.90 0.2277668
419.00 0.2170104
419.10 0.2010711
419.20 0.1837009
419.30 0.1694587
419.40 0.1647895
419.50 0.1755776
419.60 0.1994043
419.70 0.2242544
419.80 0.2396814
419.90 0.2449163
420.00 0.2484792
420.10 0.2567211
420.20 0.2664121
420.30 0.2627006
420.40 0.2449246
420.50 0.2276999
420.60 0.2193659
420.70 0.2203514
420.80 0.218481
420.90 0.2202794
421.00 0.2272057
421.10 0.2340844
421.20 0.2305816
421.30 0.2132784
421.40 0.1942502
421.50 0.1865335
421.60 0.192692
421.70 0.1990532
421.80 0.1915724
421.90 0.1724147
422.00 0.1561761
422.10 0.152985
422.20 0.1585214
422.30 0.1607276
422.40 0.1537183
422.50 0.1409132
422.60 0.126953
422.70 0.1043269
422.80 0.0982557
422.90 0.1082981
423.00 0.1249864
423.10 0.1358758
423.20 0.1338099
423.30 0.1225127
423.40 0.1139369
423.50 0.1091194
423.60 0.1060796
423.70 0.1138576
423.80 0.1280185
423.90 0.1483726
424.00 0.1752845
424.10 0.2032826
424.20 0.22382
424.30 0.2331966
424.40 0.2285128
424.50 0.2166994
424.60 0.2054573
424.70 0.1978502
424.80 0.1883255
424.90 0.1846877
425.00 0.1881626
425.10 0.1921015
425.20 0.1906081
425.30 0.1837493
425.40 0.1775862
425.50 0.1766256
425.60 0.17803
425.70 0.1746175
425.80 0.1638031
425.90 0.1535621
426.00 0.1563685
426.10 0.1750918
426.20 0.1984984
426.30 0.212282
426.40 0.2118166
426.50 0.2047316
426.60 0.2026763
426.70 0.2138557
426.80 0.2400305
426.90 0.2665062
427.00 0.2747209
427.10 0.2769114
427.20 0.2708713
427.30 0.256159
427.40 0.2337296
427.50 0.2079446
427.60 0.1874111
427.70 0.1802984
427.80 0.1840265
427.90 0.1987392
428.00 0.218767
428.10 0.237545
428.20 0.2555488
428.30 0.2742428
428.40 0.2919736
428.50 0.3003944
428.60 0.292062
428.70 0.2676777
428.80 0.2390326
428.90 0.2211386
429.00 0.22106
429.10 0.2270593
429.20 0.237469
429.30 0.2503063
429.40 0.2610634
429.50 0.2679812
429.60 0.271978
429.70 0.2757969
429.80 0.2799725
429.90 0.2784863
430.00 0.2632774
430.10 0.2373588
430.20 0.2186976
430.30 0.2236363
430.40 0.2474218
430.50 0.2681738
430.60 0.2703335
430.70 0.259055
430.80 0.2500624
430.90 0.2506477
431.00 0.2562188
431.10 0.2611187
431.20 0.2653756
431.30 0.2709214
431.40 0.2753635
431.50 0.2735332
431.60 0.2623095
431.70 0.2494539
431.80 0.2467442
431.90 0.2558028
432.00 0.2704105
432.10 0.2790429
432.20 0.2818634
432.30 0.276041
432.40 0.2649971
432.50 0.2582144
432.60 0.2632731
432.70 0.2784123
432.80 0.2940922
432.90 0.3042471
433.00 0.314778
433.10 0.3365817
433.20 0.3639977
433.30 0.3840726
433.40 0.3943981
433.50 0.3970924
433.60 0.4080792
433.70 0.4541276
433.80 0.5462045
433.90 0.698512
434.00 0.8650574
434.10 0.9678542
434.20 0.9498783
434.30 0.8191573
434.40 0.6416188
434.50 0.4913888
434.60 0.4049551
434.70 0.3739532
434.80 0.3689485
434.90 0.365903
435.00 0.3557909
435.10 0.3389293
435.20 0.3184881
435.30 0.2993597
435.40 0.2869344
435.50 0.2825154
435.60 0.2787835
435.70 0.2697758
435.80 0.2603978
435.90 0.2648164
436.00 0.2890314
436.10 0.3180719
436.20 0.3184877
436.30 0.2992225
436.40 0.275833
436.50 0.2690807
436.60 0.2895152
436.70 0.3152424
436.80 0.3224596
436.90 0.3071903
437.00 0.2835032
437.10 0.2677266
437.20 0.2674885
437.30 0.2795816
437.40 0.2949632
437.50 0.3079322
437.60 0.3203018
437.70 0.3345478
437.80 0.3432844
437.90 0.3355834
438.00 0.3125064
438.10 0.2935289
438.20 0.2976442
438.30 0.3255016
438.40 0.3588479
438.50 0.3842049
438.60 0.4006679
438.70 0.4035741
438.80 0.3851928
438.90 0.3501573
439.00 0.3154876
439.10 0.3026089
439.20 0.3176169
439.30 0.3469631
439.40 0.373436
439.50 0.3902404
439.60 0.401309
439.70 0.4105474
439.80 0.4135812
439.90 0.3985483
440.00 0.3755829
440.10 0.3614947
440.20 0.3610109
440.30 0.364745
440.40 0.3523548
440.50 0.3375288
440.60 0.3294529
440.70 0.3315838
440.80 0.3429554
440.90 0.3454805
441.00 0.3444313
441.10 0.3412984
441.20 0.339139
441.30 0.3434651
441.40 0.3580347
441.50 0.3821358
441.60 0.4114416
441.70 0.4405569
441.80 0.4642525
441.90 0.4771858
442.00 0.4753991
442.10 0.4599244
442.20 0.4379737
442.30 0.4183199
442.40 0.4064806
442.50 0.402666
442.60 0.4029195
442.70 0.403576
442.80 0.4046493
442.90 0.4101435
443.00 0.4247098
443.10 0.4475026
443.20 0.4699381
443.30 0.481351
443.40 0.4787003
443.50 0.4688244
443.60 0.4668544
443.70 0.4849627
443.80 0.5044256
443.90 0.5228972
444.00 0.5347854
444.10 0.5354697
444.20 0.5223322
444.30 0.5017802
444.40 0.4892278
444.50 0.4973878
444.60 0.5228064
444.70 0.5501792
444.80 0.568691
444.90 0.5769166
445.00 0.577155
445.10 0.5679916
445.20 0.5457759
445.30 0.5126106
445.40 0.4802109
445.50 0.4639963
445.60 0.4724392
445.70 0.4949427
445.80 0.5162033
445.90 0.5272753
446.00 0.5298523
446.10 0.5295464
446.20 0.5274074
446.30 0.519101
446.40 0.5021274
446.50 0.482569
446.60 0.4746335
446.70 0.4896445
446.80 0.524043
446.90 0.5616584
447.00 0.5895976
447.10 0.6089676
447.20 0.627261
447.30 0.6444142
447.40 0.6519464
447.50 0.6443583
447.60 0.6273001
447.70 0.6149706
447.80 0.6198901
447.90 0.6428498
448.00 0.6627756
448.10 0.6810486
448.20 0.6899202
448.30 0.6837728
448.40 0.6803266
448.50 0.6812325
448.60 0.6818858
448.70 0.6804601
448.80 0.6804681
448.90 0.6848021
449.00 0.6914254
449.10 0.6956423
449.20 0.6941067
449.30 0.6866317
449.40 0.6758471
449.50 0.666065
449.60 0.6620092
449.70 0.6668069
449.80 0.6799358
449.90 0.6982528
450.00 0.7178963
450.10 0.733947
450.20 0.7398313
450.30 0.7292212
450.40 0.702343
450.50 0.6704691
450.60 0.649918
450.70 0.649264
450.80 0.6638009
450.90 0.681412
451.00 0.6922975
451.10 0.693906
451.20 0.6893938
451.30 0.6848985
451.40 0.686308
451.50 0.6962046
451.60 0.7133262
451.70 0.7346868
451.80 0.7579873
451.90 0.7816871
452.00 0.803188
452.10 0.8176687
452.20 0.8204458
452.30 0.810893
452.40 0.7937197
452.50 0.7753043
452.60 0.7594517
452.70 0.7482639
452.80 0.7455842
452.90 0.7547527
453.00 0.7713711
453.10 0.7815354
453.20 0.770793
453.30 0.7371355
453.40 0.6955326
453.50 0.6701723
453.60 0.6808543
453.70 0.7320689
453.80 0.8101211
453.90 0.8906487
454.00 0.9508159
454.10 0.9791506
454.20 0.9783634
454.30 0.9587023
454.40 0.9287134
454.50 0.8934019
454.60 0.8583557
454.70 0.8307717
454.80 0.8143638
454.90 0.8054244
455.00 0.7974572
455.10 0.7866971
455.20 0.7717588
455.30 0.7543407
455.40 0.7424978
455.50 0.7479964
455.60 0.776814
455.70 0.8227464
455.80 0.872138
455.90 0.9138382
456.00 0.9439135
456.10 0.9653122
456.20 0.9846707
456.30 1.007222
456.40 1.03349
456.50 1.060233
456.60 1.084003
456.70 1.102417
456.80 1.11388
456.90 1.119003
457.00 1.122206
457.10 1.129588
457.20 1.14312
457.30 1.155957
457.40 1.155928
457.50 1.137406
457.60 1.109083
457.70 1.087443
457.80 1.080964
457.90 1.083889
458.00 1.086063
458.10 1.082164
458.20 1.068605
458.30 1.037881
458.40 0.9831245
458.50 0.909349
458.60 0.8349984
458.70 0.7790885
458.80 0.7481021
458.90 0.735745
459.00 0.734025
459.10 0.7415844
459.20 0.7590818
459.30 0.7809248
459.40 0.7981166
459.50 0.8087804
459.60 0.8213135
459.70 0.8442438
459.80 0.8749658
459.90 0.9015523
460.00 0.9141357
460.10 0.9135482
460.20 0.909916
460.30 0.9120926
460.40 0.9174178
460.50 0.9128455
460.60 0.8904476
460.70 0.8632342
460.80 0.8600488
460.90 0.8993785
461.00 0.9697788
461.10 1.039576
461.20 1.086113
461.30 1.112828
461.40 1.138579
461.50 1.175393
461.60 1.217577
461.70 1.249895
461.80 1.262883
461.90 1.259823
462.00 1.250935
462.10 1.242785
462.20 1.232549
462.30 1.210131
462.40 1.165081
462.50 1.093755
462.60 1.004173
462.70 0.9140209
462.80 0.8430561
462.90 0.804451
463.00 0.7989797
463.10 0.8163072
463.20 0.84181
463.30 0.8630089
463.40 0.8724836
463.50 0.8686856
463.60 0.8558152
463.70 0.8424833
463.80 0.8365669
463.90 0.8406952
464.00 0.8543876
464.10 0.877411
464.20 0.9082461
464.30 0.9405603
464.40 0.963482
464.50 0.9679591
464.60 0.9542396
464.70 0.9321287
464.80 0.9137581
464.90 0.9055145
465.00 0.9068127
465.10 0.9159905
465.20 0.9341987
465.30 0.9615605
465.40 0.9915765
465.50 1.014048
465.60 1.025011
465.70 1.032032
465.80 1.047865
465.90 1.077734
466.00 1.114511
466.10 1.147129
466.20 1.171179
466.30 1.189575
466.40 1.204465
466.50 1.209137
466.60 1.189113
466.70 1.132734
466.80 1.042782
466.90 0.939203
467.00 0.847211
467.10 0.7805896
467.20 0.7380028
467.30 0.713715
467.40 0.7056684
467.50 0.7132138
467.60 0.7325129
467.70 0.7580697
467.80 0.7847932
467.90 0.8062086
468.00 0.8156536
468.10 0.8138787
468.20 0.8117674
468.30 0.8202123
468.40 0.8397966
468.50 0.8629233
468.60 0.8840617
468.70 0.9036272
468.80 0.9227957
468.90 0.9394487
469.00 0.9513011
469.10 0.9600665
469.20 0.9693608
469.30 0.9790642
469.40 0.9861665
469.50 0.9919488
469.60 1.004115
469.70 1.028841
469.80 1.062521
469.90 1.095739
470.00 1.124438
470.10 1.151743
470.20 1.178029
470.30 1.195031
470.40 1.192842
470.50 1.1718
470.60 1.143835
470.70 1.121291
470.80 1.108983
470.90 1.105816
471.00 1.108236
471.10 1.109431
471.20 1.099285
471.30 1.070802
471.40 1.027141
471.50 0.9797727
471.60 0.9403693
471.70 0.9174951
471.80 0.9168504
471.90 0.9390848
472.00 0.9759757
472.10 1.012925
472.20 1.038698
472.30 1.052507
472.40 1.061503
472.50 1.071118
472.60 1.07884
472.70 1.077732
472.80 1.066332
472.90 1.054481
473.00 1.056815
473.10 1.078681
473.20 1.110764
473.30 1.139091
473.40 1.157185
473.50 1.166424
473.60 1.167711
473.70 1.158871
473.80 1.141506
473.90 1.124293
474.00 1.11678
474.10 1.12277
474.20 1.141111
474.30 1.168912
474.40 1.200628
474.50 1.227207
474.60 1.241092
474.70 1.242879
474.80 1.241378
474.90 1.246171
475.00 1.25994
475.10 1.276903
475.20 1.287714
475.30 1.287786
475.40 1.280826
475.50 1.273213
475.60 1.265337
475.70 1.248749
475.80 1.210267
475.90 1.139242
476.00 1.035466
476.10 0.9146099
476.20 0.8040709
476.30 0.7268451
476.40 0.6813675
476.50 0.6600903
476.60 0.6478416
476.70 0.6281161
476.80 0.6078174
476.90 0.5993264
477.00 0.6043201
477.10 0.6140266
477.20 0.6200427
477.30 0.6253498
477.40 0.6418104
477.50 0.6765379
477.60 0.7228013
477.70 0.7653318
477.80 0.7929602
477.90 0.803966
478.00 0.8021006
478.10 0.7922758
478.20 0.7808924
478.30 0.7765808
478.40 0.7854585
478.50 0.8050725
478.60 0.826724
478.70 0.8447152
478.80 0.8610218
478.90 0.8814856
479.00 0.9087197
479.10 0.939109
479.20 0.9655629
479.30 0.9818712
479.40 0.9863555
479.50 0.9838622
479.60 0.9833025
479.70 0.9911462
479.80 1.006836
479.90 1.024869
480.00 1.040339
480.10 1.050278
480.20 1.04915
480.30 1.027453
480.40 0.9783491
480.50 0.9043797
480.60 0.8174099
480.70 0.7326362
480.80 0.6636794
480.90 0.6206562
481.00 0.6075214
481.10 0.6192943
481.20 0.6441949
481.30 0.6715306
481.40 0.6986402
481.50 0.7290826
481.60 0.76327
481.70 0.794399
481.80 0.8152044
481.90 0.8268146
482.00 0.8388403
482.10 0.8603319
482.20 0.8918081
482.30 0.9254331
482.40 0.9502484
482.50 0.9584517
482.60 0.9503409
482.70 0.9350729
482.80 0.9248343
482.90 0.9247071
483.00 0.9285126
483.10 0.9282771
483.20 0.9279089
483.30 0.9412784
483.40 0.9744504
483.50 1.014709
483.60 1.043233
483.70 1.055791
483.80 1.062861
483.90 1.069805
484.00 1.065348
484.10 1.033526
484.20 0.9733555
484.30 0.9049812
484.40 0.857084
484.50 0.8466635
484.60 0.8659581
484.70 0.8866301
484.80 0.8811897
484.90 0.8442738
485.00 0.7943492
485.10 0.7566945
485.20 0.746838
485.30 0.7662779
485.40 0.8061722
485.50 0.8524097
485.60 0.8930645
485.70 0.933094
485.80 1.008138
485.90 1.172054
486.00 1.444336
486.10 1.756642
486.20 1.968699
486.30 1.967032
486.40 1.758487
486.50 1.459524
486.60 1.196537
486.70 1.025705
486.80 0.9369388
486.90 0.902962
487.00 0.9078014
487.10 0.9416438
487.20 0.9903657
487.30 1.036211
487.40 1.063997
487.50 1.066039
487.60 1.044532
487.70 1.011551
487.80 0.9841513
487.90 0.9749954
488.00 0.9844339
488.10 1.001726
488.20 1.015469
488.30 1.023183
488.40 1.030992
488.50 1.045296
488.60 1.066631
488.70 1.090439
488.80 1.112185
488.90 1.131405
489.00 1.149999
489.10 1.166258
489.20 1.173688
489.30 1.168544
489.40 1.157193
489.50 1.152189
489.60 1.159402
489.70 1.172187
489.80 1.179758
489.90 1.177712
490.00 1.169774
490.10 1.164054
490.20 1.169421
490.30 1.191327
490.40 1.226911
490.50 1.265203
490.60 1.296598
490.70 1.321677
490.80 1.347319
490.90 1.37633
491.00 1.404774
491.10 1.428534
491.20 1.447535
491.30 1.461561
491.40 1.466751
491.50 1.460552
491.60 1.447662
491.70 1.438176
491.80 1.440598
491.90 1.458048
492.00 1.489389
492.10 1.529839
492.20 1.570176
492.30 1.600397
492.40 1.61852
492.50 1.634776
492.60 1.662708
492.70 1.703225
492.80 1.740725
492.90 1.757767
493.00 1.751138
493.10 1.73202
493.20 1.713264
493.30 1.701199
493.40 1.697589
493.50 1.702147
493.60 1.71107
493.70 1.717522
493.80 1.717648
493.90 1.715384
494.00 1.719632
494.10 1.737347
494.20 1.770008
494.30 1.814148
494.40 1.862534
494.50 1.906913
494.60 1.943296
494.70 1.975471
494.80 2.011089
494.90 2.05228
495.00 2.089716
495.10 2.101752
495.20 2.056674
495.30 1.922987
495.40 1.690303
495.50 1.387797
495.60 1.078925
495.70 0.8294806
495.80 0.6748382
495.90 0.6115082
496.00 0.6105299
496.10 0.6364534
496.20 0.66217
496.30 0.6770152
496.40 0.6866177
496.50 0.7044371
496.60 0.7410705
496.70 0.7984919
496.80 0.8684552
496.90 0.9346714
497.00 0.9817523
497.10 1.006826
497.20 1.021907
497.30 1.042448
497.40 1.073752
497.50 1.108142
497.60 1.132211
497.70 1.135953
497.80 1.117913
497.90 1.085374
498.00 1.050234
498.10 1.022901
498.20 1.00976
498.30 1.015153
498.40 1.040838
498.50 1.081073
498.60 1.122502
498.70 1.153883
498.80 1.176359
498.90 1.200356
499.00 1.232099
499.10 1.266514
499.20 1.294259
499.30 1.31242
499.40 1.325762
499.50 1.338384
499.60 1.334657
499.70 1.270402
499.80 1.098483
499.90 0.8177469
500.00 1
500.10 0.8503883
500.20 0.8728285
500.30 0.9234265
500.40 0.8832235
500.50 0.8516631
500.60 0.86826
500.70 0.8462071
500.80 0.8690769
500.90 0.8982201
501.00 1.000076
501.10 0.9678257
501.20 0.9620941
501.30 0.9737321
501.40 0.9678596
501.50 0.9028604
501.60 0.921308
501.70 0.9792621
501.80 0.9891231
501.90 1.034898
502.00 1.050038
502.10 1.121473
502.20 1.134601
502.30 1.093149
502.40 1.091193
502.50 1.082553
502.60 1.085964
502.70 1.107497
502.80 1.13925
502.90 1.107368
503.00 1.087506
503.10 1.068163
503.20 1.183494
503.30 1.185773
503.40 1.164412
503.50 1.263019
503.60 1.311678
503.70 1.204123
503.80 1.214345
503.90 1.267489
504.00 1.245167
504.10 1.2935
504.20 1.370344
504.30 1.351215
504.40 1.391547
504.50 1.448288
504.60 1.502337
504.70 1.576537
504.80 1.586968
504.90 1.41801
505.00 1.281318
505.10 1.241516
505.20 1.277892
505.30 1.296463
505.40 1.3568
505.50 1.387475
505.60 1.288241
505.70 1.249351
505.80 1.302378
505.90 1.345394
506.00 1.362981
506.10 1.367211
506.20 1.437625
506.30 1.416879
506.40 1.416135
506.50 1.406734
506.60 1.38156
506.70 1.382076
506.80 1.406009
506.90 1.458225
507.00 1.416812
507.10 1.355557
507.20 1.41807
507.30 1.383382
507.40 1.371558
507.50 1.50479
507.60 1.556135
507.70 1.44058
507.80 1.449364
507.90 1.549404
508.00 1.541403
508.10 1.410526
508.20 1.350391
508.30 1.378627
508.40 1.37877
508.50 1.442068
508.60 1.538075
508.70 1.518791
508.80 1.499976
508.90 1.482527
509.00 1.38923
509.10 1.421039
509.20 1.564322
509.30 1.583715
509.40 1.541649
509.50 1.471156
509.60 1.35522
509.70 1.323114
509.80 1.459236
509.90 1.543995
510.00 1.531518
510.10 1.483556
510.20 1.425332
510.30 1.426456
510.40 1.447324
510.50 1.412868
510.60 1.360478
510.70 1.407255
510.80 1.404004
510.90 1.408065
511.00 1.434286
511.10 1.434252
511.20 1.406414
511.30 1.417569
511.40 1.497573
511.50 1.552576
511.60 1.620213
511.70 1.684154
511.80 1.71397
511.90 1.613121
512.00 1.55335
512.10 1.519003
512.20 1.517034
512.30 1.546222
512.40 1.53266
512.50 1.43967
512.60 1.433913
512.70 1.428754
512.80 1.388467
512.90 1.411216
513.00 1.40696
513.10 1.360857
513.20 1.502777
513.30 1.707971
513.40 1.699898
513.50 1.600244
513.60 1.605266
513.70 1.698254
513.80 1.826256
513.90 1.80021
514.00 1.685447
514.10 1.660282
514.20 1.653802
514.30 1.615297
514.40 1.60284
514.50 1.549659
514.60 1.499781
514.70 1.460458
514.80 1.545797
514.90 1.63568
515.00 1.624096
515.10 1.566366
515.20 1.566131
515.30 1.482435
515.40 1.34448
515.50 1.353243
515.60 1.414584
515.70 1.513906
515.80 1.73381
515.90 1.866876
516.00 1.904238
516.10 1.968151
516.20 2.084122
516.30 2.069665
516.40 2.018729
516.50 2.082182
516.60 1.973296
516.70 1.539222
516.80 1.063689
516.90 0.7471957
517.00 0.6494988
517.10 0.6592912
517.20 0.6136315
517.30 0.5833548
517.40 0.5589347
517.50 0.5898356
517.60 0.6265513
517.70 0.6439595
517.80 0.629306
517.90 0.6592529
518.00 0.645291
518.10 0.6686322
518.20 0.7077192
518.30 0.7626174
518.40 0.7599632
518.50 0.8353072
518.60 0.9566142
518.70 1.063142
518.80 1.053301
518.90 1.111583
519.00 1.162811
519.10 1.186266
519.20 1.192227
519.30 1.166465
519.40 1.114825
519.50 1.167629
519.60 1.198442
519.70 1.309646
519.80 1.459598
519.90 1.489818
520.00 1.364905
520.10 1.29524
520.20 1.27994
520.30 1.199451
520.40 1.112837
520.50 1.069267
520.60 0.9901891
520.70 0.8488264
520.80 0.8161483
520.90 0.8320192
521.00 0.8728641
521.10 0.9199486
521.20 1.129512
521.30 1.427525
521.40 1.65373
521.50 1.741629
521.60 1.73338
521.70 1.695116
521.80 1.707377
521.90 1.747477
522.00 1.768464
522.10 1.805573
522.20 1.92133
522.30 1.96796
522.40 1.932133
522.50 1.824445
522.60 1.745628
522.70 1.6791
522.80 1.746438
522.90 1.856098
523.00 1.973734
523.10 2.127375
523.20 2.091938
523.30 1.945409
523.40 1.879724
523.50 1.8772
523.60 1.971178
523.70 2.032422
523.80 1.983603
523.90 1.984086
524.00 2.018485
524.10 1.885279
524.20 1.584062
524.30 1.4716
524.40 1.530454
524.50 1.689932
524.60 1.736498
524.70 1.646921
524.80 1.587411
524.90 1.623293
525.00 1.6868
525.10 1.685541
525.20 1.694351
525.30 1.736858
525.40 1.787501
525.50 1.90823
525.60 1.986764
525.70 2.024608
525.80 1.983652
525.90 1.971872
526.00 1.925019
526.10 1.82289
526.20 1.695128
526.30 1.663434
526.40 1.695221
526.50 1.600565
526.60 1.513858
526.70 1.526166
526.80 1.622721
526.90 1.638529
527.00 1.41322
527.10 1.307651
527.20 1.502774
527.30 1.775144
527.40 1.947969
527.50 2.010667
527.60 1.952468
527.70 1.943041
527.80 1.908436
527.90 1.917237
528.00 1.949609
528.10 1.925644
528.20 1.902654
528.30 1.852735
528.40 1.881625
528.50 1.963889
528.60 2.101598
528.70 2.151459
528.80 2.192243
528.90 2.16768
529.00 2.145332
529.10 2.147283
529.20 2.148339
529.30 2.154744
529.40 2.139487
529.50 2.193007
529.60 2.227104
529.70 2.150109
529.80 1.960231
529.90 1.912168
530.00 1.964107
530.10 2.011191
530.20 2.019571
530.30 2.161675
530.40 2.316645
530.50 2.33015
530.60 2.288088
530.70 2.250283
530.80 2.152167
530.90 2.055176
531.00 2.033821
531.10 2.032155
531.20 2.030693
531.30 1.993421
531.40 2.075365
531.50 2.0928
531.60 2.10522
531.70 2.140917
531.80 2.115193
531.90 2.123851
532.00 2.115364
532.10 2.065149
532.20 2.074633
532.30 2.108083
532.40 2.130843
532.50 2.116064
532.60 2.116241
532.70 2.085478
532.80 1.971436
532.90 1.795946
533.00 1.78934
533.10 2.006
533.20 2.13332
533.30 2.062112
533.40 2.046619
533.50 2.074304
533.60 2.097099
533.70 2.115589
533.80 2.118747
533.90 2.137999
534.00 2.107641
534.10 2.102724
534.20 2.11643
534.30 2.146811
534.40 2.22044
534.50 2.267251
534.60 2.21631
534.70 2.122302
534.80 2.098933
534.90 2.17918
535.00 2.322878
535.10 2.337341
535.20 2.455261
535.30 2.577063
535.40 2.625631
535.50 2.648956
535.60 2.612874
535.70 2.552671
535.80 2.503884
535.90 2.373538
536.00 2.216093
536.10 2.131082
536.20 2.15261
536.30 2.273469
536.40 2.299793
536.50 2.232802
536.60 2.229354
536.70 2.30277
536.80 2.349032
536.90 2.329339
537.00 2.297017
537.10 2.255381
537.20 2.091435
537.30 2.049266
537.40 2.207744
537.50 2.443957
537.60 2.572434
537.70 2.506413
537.80 2.457808
537.90 2.477785
538.00 2.584067
538.10 2.724628
538.20 2.741221
538.30 2.663398
538.40 2.621294
538.50 2.611691
538.60 2.607156
538.70 2.686391
538.80 2.672598
538.90 2.69283
539.00 2.725028
539.10 2.668424
539.20 2.65086
539.30 2.630391
539.40 2.553235
539.50 2.547296
539.60 2.50968
539.70 2.385863
539.80 2.275718
539.90 2.429353
540.00 2.69178
540.10 2.85278
540.20 2.876584
540.30 2.898328
540.40 2.884532
540.50 2.791645
540.60 2.628138
540.70 2.431565
540.80 2.466194
540.90 2.658488
541.00 2.600942
541.10 2.446318
541.20 2.420739
541.30 2.467284
541.40 2.539911
541.50 2.627071
541.60 2.788264
541.70 2.876543
541.80 2.795399
541.90 2.76158
542.00 2.844375
542.10 2.913033
542.20 2.89751
542.30 2.850685
542.40 2.800664
542.50 2.797971
542.60 2.757822
542.70 2.799043
542.80 2.962029
542.90 2.962311
543.00 2.734248
543.10 2.563191
543.20 2.522161
543.30 2.597374
543.40 2.671036
543.50 2.652473
543.60 2.685159
543.70 2.895755
543.80 3.018606
543.90 2.926863
544.00 2.952049
544.10 3.12066
544.20 3.2256
544.30 3.326671
544.40 3.361629
544.50 3.306872
544.60 3.131058
544.70 2.764457
544.80 2.293764
544.90 1.850466
545.00 1.543601
545.10 1.423641
545.20 1.313865
545.30 1.253581
545.40 1.29734
545.50 1.343011
545.60 1.364143
545.70 1.394919
545.80 1.417792
545.90 1.404722
546.00 1.390828
546.10 1.402712
546.20 1.437037
546.30 1.499266
546.40 1.573991
546.50 1.701285
546.60 1.753408
546.70 1.849799
546.80 1.957129
546.90 1.935205
547.00 1.807442
547.10 1.743372
547.20 1.70902
547.30 1.781437
547.40 1.852532
547.50 1.822081
547.60 1.748298
547.70 1.740922
547.80 1.749676
547.90 1.734946
548.00 1.709197
548.10 1.764298
548.20 1.882705
548.30 1.975362
548.40 1.958145
548.50 1.991304
548.60 2.059293
548.70 2.049651
548.80 1.955516
548.90 1.885902
549.00 1.893165
549.10 1.973542
549.20 2.038751
549.30 2.062683
549.40 2.024729
549.50 1.971813
549.60 1.877766
549.70 1.780368
549.80 1.654513
549.90 1.505201
550.00 1.404011
550.10 1.320003
550.20 1.249508
550.30 1.200463
550.40 1.241318
550.50 1.331259
550.60 1.298988
550.70 1.263105
550.80 1.264549
550.90 1.256349
551.00 1.261411
551.10 1.25638
551.20 1.243976
551.30 1.202144
551.40 1.149549
551.50 1.102515
551.60 1.077846
551.70 1.062284
551.80 1.068693
551.90 1.132087
552.00 1.107426
552.10 1.076484
552.20 1.082791
552.30 1.075434
552.40 1.09452
552.50 1.054832
552.60 0.9957037
552.70 1.011683
552.80 1.108247
552.90 1.087926
553.00 1.070245
553.10 1.067202
553.20 1.086624
553.30 1.067423
553.40 0.9753023
553.50 0.9245595
553.60 0.9243789
553.70 0.8947828
553.80 0.9082565
553.90 0.9517627
554.00 0.8854647
554.10 0.8399863
554.20 0.8918963
554.30 0.8669522
554.40 0.8559102
554.50 0.8879103
554.60 0.9588937
554.70 0.9247738
554.80 0.9475295
554.90 0.9562477
555.00 0.9378733
555.10 0.9653298
555.20 1.056222
555.30 1.055481
555.40 1.004738
555.50 1.0138
555.60 1.071173
555.70 1.173808
555.80 1.215127
555.90 1.285324
556.00 1.310516
556.10 1.321088
556.20 1.378411
556.30 1.426804
556.40 1.423423
556.50 1.453588
556.60 1.516767
556.70 1.578767
556.80 1.592572
556.90 1.580137
557.00 1.648705
557.10 1.747688
557.20 1.764058
557.30 1.760308
557.40 1.760033
557.50 1.760032
557.60 1.760032
557.70 1.760032
557.80 1.760032
557.90 1.760032
558.00 1.760032
558.10 1.760027
558.20 1.759894
558.30 1.758837
558.40 1.751888
558.50 1.842096
558.60 2.002155
558.70 2.063267
558.80 2.110725
558.90 2.071071
559.00 2.026154
559.10 2.070793
559.20 2.061408
559.30 2.03745
559.40 2.066462
559.50 2.058837
559.60 1.959829
559.70 1.955048
559.80 1.872983
559.90 1.608993
560.00 1.445593
560.10 1.532921
560.20 1.605843
560.30 1.642049
560.40 1.679018
560.50 1.675313
560.60 1.611905
560.70 1.695585
560.80 1.759867
560.90 1.772376
561.00 1.693822
561.10 1.680157
561.20 1.749278
561.30 1.813358
561.40 1.861743
561.50 1.833245
561.60 1.784311
561.70 1.638764
561.80 1.570714
561.90 1.62141
562.00 1.641646
562.10 1.575085
562.20 1.56451
562.30 1.618192
562.40 1.629979
562.50 1.642354
562.60 1.703827
562.70 1.805785
562.80 1.868949
562.90 1.761798
563.00 1.541436
563.10 1.441405
563.20 1.440841
563.30 1.525632
563.40 1.656203
563.50 1.751073
563.60 1.720586
563.70 1.68665
563.80 1.672785
563.90 1.622103
564.00 1.617709
564.10 1.676642
564.20 1.681898
564.30 1.637615
564.40 1.600605
564.50 1.685389
564.60 1.767857
564.70 1.794508
564.80 1.767476
564.90 1.820866
565.00 1.903697
565.10 1.922534
565.20 1.895561
565.30 1.906405
565.40 1.978864
565.50 1.99991
565.60 2.041601
565.70 2.035932
565.80 2.019901
565.90 2.065481
566.00 2.148318
566.10 2.164755
566.20 2.079425
566.30 1.984339
566.40 1.827635
566.50 1.7612
566.60 1.772496
566.70 1.831264
566.80 1.799076
566.90 1.675677
567.00 1.648347
567.10 1.676252
567.20 1.669404
567.30 1.663331
567.40 1.743151
567.50 1.791888
567.60 1.809241
567.70 1.798451
567.80 1.877857
567.90 1.933105
568.00 1.917642
568.10 1.914638
568.20 1.924703
568.30 1.935913
568.40 1.935957
568.50 2.050007
568.60 2.192561
568.70 2.160801
568.80 2.0482
568.90 1.907949
569.00 1.866385
569.10 1.934095
569.20 1.979341
569.30 1.99732
569.40 2.021961
569.50 2.047092
569.60 2.093609
569.70 2.12818
569.80 2.204392
569.90 2.217776
570.00 2.15704
570.10 2.199988
570.20 2.311393
570.30 2.348859
570.40 2.269178
570.50 2.303864
570.60 2.343522
570.70 2.384768
570.80 2.379037
570.90 2.440654
571.00 2.477148
571.10 2.492216
571.20 2.510173
571.30 2.453272
571.40 2.404694
571.50 2.346065
571.60 2.345456
571.70 2.307526
571.80 2.167549
571.90 2.087332
572.00 2.099181
572.10 2.120792
572.20 2.185304
572.30 2.27953
572.40 2.249412
572.50 2.175292
572.60 2.206589
572.70 2.232074
572.80 2.23022
572.90 2.256913
573.00 2.300476
573.10 2.342043
573.20 2.421477
573.30 2.489573
573.40 2.4519
573.50 2.425091
573.60 2.421146
573.70 2.34521
573.80 2.292308
573.90 2.243417
574.00 2.323502
574.10 2.378099
574.20 2.361383
574.30 2.301882
574.40 2.291739
574.50 2.329163
574.60 2.459833
574.70 2.583198
574.80 2.558874
574.90 2.606769
575.00 2.701963
575.10 2.731965
575.20 2.645899
575.30 2.646014
575.40 2.751783
575.50 2.800731
575.60 2.786962
575.70 2.803395
575.80 2.806914
575.90 2.705285
576.00 2.479641
576.10 2.331833
576.20 2.232038
576.30 2.121617
576.40 1.934738
576.50 1.839292
576.60 1.870457
576.70 1.843646
576.80 1.869334
576.90 2.041283
577.00 2.201442
577.10 2.154075
577.20 2.118768
577.30 2.190099
577.40 2.27163
577.50 2.227776
577.60 2.168181
577.70 2.158246
577.80 2.202283
577.90 2.254882
578.00 2.204035
578.10 2.226456
578.20 2.317713
578.30 2.394881
578.40 2.482725
578.50 2.575532
578.60 2.553746
578.70 2.42931
578.80 2.40431
578.90 2.44451
579.00 2.436956
579.10 2.420966
579.20 2.454065
579.30 2.538808
579.40 2.641726
579.50 2.702356
579.60 2.720466
579.70 2.704025
579.80 2.714769
579.90 2.819359
580.00 2.846657
580.10 2.817733
580.20 2.853356
580.30 2.880196
580.40 2.904639
580.50 2.888542
580.60 2.917364
580.70 2.961114
580.80 2.949968
580.90 2.887447
581.00 2.823798
581.10 2.58659
581.20 2.31817
581.30 2.229314
581.40 2.186951
581.50 2.093905
581.60 2.015186
581.70 1.983192
581.80 1.952723
581.90 1.915352
582.00 1.990623
582.10 2.006742
582.20 1.954441
582.30 1.917794
582.40 1.920717
582.50 2.016628
582.60 2.092811
582.70 2.124844
582.80 2.088403
582.90 2.131898
583.00 2.156733
583.10 2.17501
583.20 2.204177
583.30 2.223187
583.40 2.200488
583.50 2.267218
583.60 2.427157
583.70 2.411655
583.80 2.318479
583.90 2.271066
584.00 2.149232
584.10 2.059887
584.20 2.017327
584.30 2.082217
584.40 2.139727
584.50 2.161613
584.60 2.22266
584.70 2.23324
584.80 2.070487
584.90 1.768577
585.00 1.574236
585.10 1.44821
585.20 1.435488
585.30 1.459474
585.40 1.487102
585.50 1.500054
585.60 1.507944
585.70 1.505018
585.80 1.516886
585.90 1.538604
586.00 1.529747
586.10 1.573123
586.20 1.631624
586.30 1.547847
586.40 1.378859
586.50 1.324157
586.60 1.401297
586.70 1.503342
586.80 1.456195
586.90 1.412008
587.00 1.461794
587.10 1.486735
587.20 1.388737
587.30 1.329408
587.40 1.261087
587.50 1.201574
587.60 1.24583
587.70 1.315111
587.80 1.281789
587.90 1.18009
588.00 1.109289
588.10 1.107706
588.20 1.107114
588.30 1.06688
588.40 1.044065
588.50 0.9925377
588.60 0.9430526
588.70 0.9121559
588.80 0.8248835
588.90 0.6607028
589.00 0.5634292
589.10 0.6735551
589.20 0.7538907
589.30 0.6461192
589.40 0.5912907
589.50 0.5733697
589.60 0.5983078
589.70 0.6322366
589.80 0.6527044
589.90 0.5877549
590.00 0.688306
590.10 0.8469576
590.20 0.8921615
590.30 0.9127008
590.40 0.9575338
590.50 0.9648571
590.60 0.9384712
590.70 0.8952191
590.80 0.9002023
590.90 0.9168568
591.00 0.9828248
591.10 1.022428
591.20 1.041192
591.30 1.067921
591.40 1.036857
591.50 1.060618
591.60 1.074189
591.70 1.153954
591.80 1.219837
591.90 1.189768
592.00 1.156767
592.10 1.215611
592.20 1.263037
592.30 1.160179
592.40 1.096887
592.50 1.155801
592.60 1.172893
592.70 1.126951
592.80 1.133843
592.90 1.186626
593.00 1.197272
593.10 1.161925
593.20 1.164153
593.30 1.22172
593.40 1.317962
593.50 1.38672
593.60 1.391484
593.70 1.329777
593.80 1.323374
593.90 1.419838
594.00 1.470183
594.10 1.480322
594.20 1.50056
594.30 1.457783
594.40 1.493871
594.50 1.586341
594.60 1.604024
594.70 1.541567
594.80 1.496658
594.90 1.488242
595.00 1.398848
595.10 1.357621
595.20 1.348125
595.30 1.389109
595.40 1.436341
595.50 1.428411
595.60 1.374852
595.70 1.246477
595.80 1.180731
595.90 1.184763
596.00 1.238755
596.10 1.280326
596.20 1.334013
596.30 1.381837
596.40 1.358108
596.50 1.299709
596.60 1.34195
596.70 1.405174
596.80 1.45211
596.90 1.470973
597.00 1.446391
597.10 1.475667
597.20 1.504914
597.30 1.491071
597.40 1.423585
597.50 1.366582
597.60 1.396269
597.70 1.436922
597.80 1.480755
597.90 1.441591
598.00 1.432203
598.10 1.438475
598.20 1.507382
598.30 1.563926
598.40 1.562685
598.50 1.544811
598.60 1.571909
598.70 1.596774
598.80 1.567424
598.90 1.557271
599.00 1.589486
599.10 1.601488
599.20 1.602184
599.30 1.662886
599.40 1.752131
599.50 1.815796
599.60 1.887092
599.70 1.895793
599.80 1.862209
599.90 1.755759
600.00 1.684451
600.10 1.657725
600.20 1.630179
600.30 1.629932
600.40 1.651632
600.50 1.686217
600.60 1.65607
600.70 1.642818
600.80 1.601036
600.90 1.563878
601.00 1.61533
601.10 1.719071
601.20 1.75474
601.30 1.746243
601.40 1.720849
601.50 1.712102
601.60 1.733389
601.70 1.780138
601.80 1.787394
601.90 1.80751
602.00 1.856274
602.10 1.905129
602.20 1.896659
602.30 1.899362
602.40 1.868366
602.50 1.845708
602.60 1.854381
602.70 1.911242
602.80 1.97523
602.90 1.970517
603.00 1.936936
603.10 1.963423
603.20 1.996643
603.30 1.99842
603.40 2.000366
603.50 1.995301
603.60 1.976197
603.70 1.862371
603.80 1.793556
603.90 1.835594
604.00 1.905266
604.10 1.977177
604.20 2.0258
604.30 2.097604
604.40 2.048542
604.50 2.018827
604.60 2.081009
604.70 2.128957
604.80 2.158483
604.90 2.195522
605.00 2.24226
605.10 2.284597
605.20 2.260838
605.30 2.243369
605.40 2.187733
605.50 2.167999
605.60 2.221623
605.70 2.245497
605.80 2.242592
605.90 2.289363
606.00 2.374953
606.10 2.355859
606.20 2.299085
606.30 2.276442
606.40 2.231628
606.50 2.145112
606.60 2.0758
606.70 2.053575
606.80 2.098648
606.90 2.239939
607.00 2.358898
607.10 2.393599
607.20 2.383145
607.30 2.371333
607.40 2.322239
607.50 2.292185
607.60 2.315039
607.70 2.384061
607.80 2.430419
607.90 2.391964
608.00 2.291491
608.10 2.1402
608.20 2.067462
608.30 2.061712
608.40 2.071466
608.50 2.129465
608.60 2.209828
608.70 2.256798
608.80 2.253127
608.90 2.288991
609.00 2.343101
609.10 2.302242
609.20 2.275748
609.30 2.337047
609.40 2.42364
609.50 2.415275
609.60 2.419728
609.70 2.441704
609.80 2.437936
609.90 2.437858
610.00 2.476369
610.10 2.452882
610.20 2.346481
610.30 2.23843
610.40 2.21936
610.50 2.222316
610.60 2.236312
610.70 2.308733
610.80 2.419861
610.90 2.445088
611.00 2.375414
611.10 2.303204
611.20 2.258465
611.30 2.280534
611.40 2.348038
611.50 2.352105
611.60 2.331257
611.70 2.232748
611.80 2.121532
611.90 2.092391
612.00 2.124413
612.10 2.166031
612.20 2.138911
612.30 2.083227
612.40 2.080114
612.50 2.121123
612.60 2.211682
612.70 2.288062
612.80 2.287535
612.90 2.269941
613.00 2.305302
613.10 2.329692
613.20 2.324145
613.30 2.247698
613.40 2.141211
613.50 2.113943
613.60 2.166192
613.70 2.231582
613.80 2.250269
613.90 2.242779
614.00 2.270459
614.10 2.269122
614.20 2.222174
614.30 2.175354
614.40 2.188621
614.50 2.250733
614.60 2.295594
614.70 2.258028
614.80 2.1014
614.90 1.975971
615.00 1.862219
615.10 1.763282
615.20 1.731301
615.30 1.774705
615.40 1.827601
615.50 1.81014
615.60 1.796847
615.70 1.696477
615.80 1.596984
615.90 1.55797
616.00 1.440723
616.10 1.25239
616.20 1.120036
616.30 1.072221
616.40 1.071254
616.50 1.108952
616.60 1.163027
616.70 1.180319
616.80 1.151689
616.90 1.17942
617.00 1.208962
617.10 1.221261
617.20 1.181158
617.30 1.16533
617.40 1.187528
617.50 1.121262
617.60 1.080272
617.70 1.114077
617.80 1.152107
617.90 1.149894
618.00 1.208466
618.10 1.240584
618.20 1.265585
618.30 1.262168
618.40 1.170375
618.50 1.096886
618.60 1.082378
618.70 1.066499
618.80 1.022377
618.90 1.002027
619.00 0.9967641
619.10 0.9761664
619.20 0.9939381
619.30 1.001584
619.40 1.013408
619.50 1.002526
619.60 1.008328
619.70 1.010728
619.80 0.986391
619.90 1.013645
620.00 1.052644
620.10 1.066487
620.20 1.055045
620.30 1.093699
620.40 1.09491
620.50 1.10981
620.60 1.144961
620.70 1.165893
620.80 1.139519
620.90 1.123361
621.00 1.127453
621.10 1.099489
621.20 1.083954
621.30 1.062665
621.40 1.023679
621.50 1.014297
621.60 1.003008
621.70 0.9880856
621.80 0.9932277
621.90 1.007044
622.00 1.00703
622.10 1.031897
622.20 1.036581
622.30 0.9983512
622.40 0.9300743
622.50 0.9119206
622.60 0.930929
622.70 0.949048
622.80 0.9132161
622.90 0.8843023
623.00 0.9197105
623.10 0.9399164
623.20 0.9556818
623.30 0.969723
623.40 0.9530017
623.50 0.9261941
623.60 0.9854257
623.70 1.040144
623.80 1.054728
623.90 1.043577
624.00 0.9892992
624.10 0.9490702
624.20 0.9783848
624.30 1.052438
624.40 1.041215
624.50 0.9787764
624.60 0.9797795
624.70 1.036965
624.80 1.070258
624.90 1.103829
625.00 1.116879
625.10 1.135987
625.20 1.11713
625.30 1.122253
625.40 1.145681
625.50 1.095031
625.60 1.100298
625.70 1.136057
625.80 1.16746
625.90 1.176675
626.00 1.199235
626.10 1.199373
626.20 1.195062
626.30 1.257975
626.40 1.350089
626.50 1.363325
626.60 1.352836
626.70 1.361221
626.80 1.378074
626.90 1.354801
627.00 1.331007
627.10 1.340642
627.20 1.345789
627.30 1.350197
627.40 1.399311
627.50 1.46609
627.60 1.435289
627.70 1.370039
627.80 1.298623
627.90 1.272775
628.00 1.295052
628.10 1.393028
628.20 1.475869
628.30 1.474567
628.40 1.484787
628.50 1.566342
628.60 1.61619
628.70 1.632301
628.80 1.627817
628.90 1.69623
629.00 1.742133
629.10 1.69701
629.20 1.625117
629.30 1.636048
629.40 1.701148
629.50 1.743969
629.60 1.751587
629.70 1.72942
629.80 1.771714
629.90 1.791853
630.00 1.774082
630.10 1.898897
630.20 2.0445
630.30 2.098806
630.40 1.992682
630.50 1.977913
630.60 2.068925
630.70 2.130763
630.80 2.219205
630.90 2.251402
631.00 2.267908
631.10 2.254344
631.20 2.282538
631.30 2.365876
631.40 2.44841
631.50 2.509396
631.60 2.528327
631.70 2.549833
631.80 2.613515
631.90 2.65542
632.00 2.639804
632.10 2.600787
632.20 2.548262
632.30 2.49044
632.40 2.450813
632.50 2.457157
632.60 2.522091
632.70 2.584625
632.80 2.632596
632.90 2.661475
633.00 2.67008
633.10 2.714139
633.20 2.75141
633.30 2.796964
633.40 2.810584
633.50 2.849047
633.60 2.888963
633.70 2.91265
633.80 2.950371
633.90 2.982879
634.00 3.000916
634.10 3.059085
634.20 3.153114
634.30 3.227774
634.40 3.258813
634.50 3.262885
634.60 3.281231
634.70 3.294031
634.80 3.31047
634.90 3.393081
635.00 3.428867
635.10 3.380879
635.20 3.292418
635.30 3.194403
635.40 3.080116
635.50 2.975713
635.60 2.930431
635.70 2.892518
635.80 2.855103
635.90 2.827463
636.00 2.814604
636.10 2.766032
636.20 2.701635
636.30 2.709862
636.40 2.827351
636.50 2.966303
636.60 3.019802
636.70 2.903652
636.80 2.778631
636.90 2.8011
637.00 2.906816
637.10 2.9725
637.20 2.971239
637.30 2.98762
637.40 3.024647
637.50 3.014911
637.60 2.976992
637.70 2.970712
637.80 2.964603
637.90 2.956101
638.00 2.87879
638.10 2.723121
638.20 2.610886
638.30 2.562824
638.40 2.554214
638.50 2.599664
638.60 2.647678
638.70 2.646842
638.80 2.593769
638.90 2.562647
639.00 2.587342
639.10 2.659875
639.20 2.746549
639.30 2.823538
639.40 2.880516
639.50 2.987083
639.60 3.130816
639.70 3.264152
639.80 3.336028
639.90 3.331276
640.00 3.314962
640.10 3.299664
640.20 3.334751
640.30 3.424882
640.40 3.488684
640.50 3.536537
640.60 3.592004
640.70 3.64403
640.80 3.687162
640.90 3.701264
641.00 3.693673
641.10 3.696683
641.20 3.712071
641.30 3.684378
641.40 3.657231
641.50 3.625137
641.60 3.57697
641.70 3.528505
641.80 3.489171
641.90 3.428719
642.00 3.361724
642.10 3.331495
642.20 3.299326
642.30 3.232805
642.40 3.181095
642.50 3.237976
642.60 3.332754
642.70 3.373105
642.80 3.373145
642.90 3.375621
643.00 3.42695
643.10 3.505829
643.20 3.563617
643.30 3.571092
643.40 3.55988
643.50 3.580105
643.60 3.638744
643.70 3.652829
643.80 3.614812
643.90 3.559338
644.00 3.540509
644.10 3.605225
644.20 3.741211
644.30 3.869151
644.40 3.975992
644.50 4.048075
644.60 4.059423
644.70 3.996363
644.80 3.8655
644.90 3.758042
645.00 3.688246
645.10 3.646586
645.20 3.6843
645.30 3.788089
645.40 3.907103
645.50 3.952913
645.60 3.989451
645.70 4.009841
645.80 4.006923
645.90 4.021242
646.00 4.029407
646.10 4.019024
646.20 3.990107
646.30 3.960599
646.40 3.935364
646.50 3.981374
646.60 4.123648
646.70 4.296597
646.80 4.394605
646.90 4.421429
647.00 4.446413
647.10 4.508722
647.20 4.535447
647.30 4.533197
647.40 4.53341
647.50 4.562657
647.60 4.645901
647.70 4.692092
647.80 4.669047
647.90 4.563701
648.00 4.397473
648.10 4.19862
648.20 4.087524
648.30 4.06164
648.40 4.049853
648.50 3.997868
648.60 3.901731
648.70 3.860516
648.80 3.917305
648.90 4.038389
649.00 4.170803
649.10 4.295947
649.20 4.319417
649.30 4.230343
649.40 4.160006
649.50 4.155529
649.60 4.185921
649.70 4.255642
649.80 4.36417
649.90 4.478108
650.00 4.510292
650.10 4.59751
650.20 4.680661
650.30 4.748103
650.40 4.82571
650.50 4.899435
650.60 4.983931
650.70 5.062592
650.80 5.1151
650.90 5.119783
651.00 5.158774
651.10 5.258642
651.20 5.291103
651.30 5.198157
651.40 5.072522
651.50 4.984522
651.60 4.96976
651.70 5.012936
651.80 5.149507
651.90 5.26991
652.00 5.359243
652.10 5.456784
652.20 5.561148
652.30 5.651745
652.40 5.710624
652.50 5.731417
652.60 5.712288
652.70 5.727148
652.80 5.828829
652.90 5.954242
653.00 6.014
653.10 6.001127
653.20 6.028293
653.30 6.105569
653.40 6.171761
653.50 6.27852
653.60 6.352241
653.70 6.399489
653.80 6.495604
653.90 6.608558
654.00 6.719913
654.10 6.804913
654.20 6.802431
654.30 6.672441
654.40 6.477
654.50 6.246515
654.60 6.029192
654.70 5.895075
654.80 5.821021
654.90 5.730107
655.00 5.598421
655.10 5.413922
655.20 5.227309
655.30 5.130203
655.40 5.137918
655.50 5.204787
655.60 5.232233
655.70 5.294635
655.80 5.392909
655.90 5.48651
656.00 5.632802
656.10 6.033604
656.20 6.989655
656.30 8.31135
656.40 9.299504
656.50 9.130514
656.60 7.811517
656.70 6.129541
656.80 5.028895
656.90 4.670375
657.00 4.631068
657.10 4.617143
657.20 4.492672
657.30 4.33575
657.40 4.271997
657.50 4.322143
657.60 4.45596
657.70 4.587093
657.80 4.622298
657.90 4.519675
658.00 4.333312
658.10 4.191207
658.20 4.162026
658.30 4.228334
658.40 4.385037
658.50 4.534498
658.60 4.659255
658.70 4.782708
658.80 4.902396
658.90 5.022272
659.00 5.052917
659.10 4.999531
659.20 4.949931
659.30 4.831009
659.40 4.643575
659.50 4.446269
659.60 4.313575
659.70 4.277515
659.80 4.302045
659.90 4.362793
660.00 4.405649
660.10 4.381762
660.20 4.331262
660.30 4.354906
660.40 4.419852
660.50 4.460315
660.60 4.440813
660.70 4.392418
660.80 4.364165
660.90 4.389924
661.00 4.396839
661.10 4.409947
661.20 4.4684
661.30 4.564254
661.40 4.646606
661.50 4.631222
661.60 4.606648
661.70 4.537124
661.80 4.418938
661.90 4.273102
662.00 4.145539
662.10 4.095093
662.20 4.061587
662.30 4.018142
662.40 3.959426
662.50 3.890229
662.60 3.771973
662.70 3.60796
662.80 3.46069
662.90 3.464293
663.00 3.610538
663.10 3.796916
663.20 3.952935
663.30 4.050926
663.40 4.062412
663.50 3.948358
663.60 3.741844
663.70 3.511454
663.80 3.324287
663.90 3.269598
664.00 3.33704
664.10 3.429503
664.20 3.535786
664.30 3.637429
664.40 3.739114
664.50 3.793172
664.60 3.810799
664.70 3.82148
664.80 3.796385
664.90 3.689088
665.00 3.486061
665.10 3.223693
665.20 2.968353
665.30 2.777207
665.40 2.692095
665.50 2.706971
665.60 2.784134
665.70 2.842665
665.80 2.86513
665.90 2.881708
666.00 2.878679
666.10 2.91757
666.20 2.965182
666.30 3.021662
666.40 3.103495
666.50 3.15685
666.60 3.223401
666.70 3.313822
666.80 3.407295
666.90 3.438854
667.00 3.435344
667.10 3.450329
667.20 3.476006
667.30 3.508882
667.40 3.486274
667.50 3.443077
667.60 3.413878
667.70 3.419324
667.80 3.443162
667.90 3.412083
668.00 3.307898
668.10 3.100972
668.20 2.806834
668.30 2.552602
668.40 2.451062
668.50 2.482903
668.60 2.550609
668.70 2.621273
668.80 2.683976
668.90 2.73689
669.00 2.755795
669.10 2.772115
669.20 2.758756
669.30 2.713236
669.40 2.714479
669.50 2.737635
669.60 2.752524
669.70 2.805012
669.80 2.881939
669.90 2.934626
670.00 2.941642
670.10 2.941331
670.20 2.953262
670.30 3.000047
670.40 3.079305
670.50 3.130902
670.60 3.15562
670.70 3.179607
670.80 3.223979
670.90 3.281308
671.00 3.288523
671.10 3.25422
671.20 3.199997
671.30 3.155716
671.40 3.09287
671.50 2.952263
671.60 2.747005
671.70 2.545253
671.80 2.395062
671.90 2.273997
672.00 2.200998
672.10 2.191254
672.20 2.245124
672.30 2.311544
672.40 2.362889
672.50 2.394221
672.60 2.45477
672.70 2.533078
672.80 2.555285
672.90 2.570107
673.00 2.605688
673.10 2.642079
673.20 2.644227
673.30 2.613667
673.40 2.600699
673.50 2.629175
673.60 2.651493
673.70 2.701068
673.80 2.764437
673.90 2.818125
674.00 2.86613
674.10 2.887862
674.20 2.913657
674.30 2.956749
674.40 3.016647
674.50 3.046348
674.60 3.040492
674.70 2.968074
674.80 2.804969
674.90 2.621395
675.00 2.496486
675.10 2.452488
675.20 2.48065
675.30 2.54055
675.40 2.588357
675.50 2.62474
675.60 2.672036
675.70 2.704713
675.80 2.74809
675.90 2.784497
676.00 2.773591
676.10 2.759308
676.20 2.776552
676.30 2.846491
676.40 2.944615
676.50 2.997029
676.60 3.058081
676.70 3.142507
676.80 3.177403
676.90 3.189564
677.00 3.198115
677.10 3.196579
677.20 3.197688
677.30 3.214223
677.40 3.242931
677.50 3.27628
677.60 3.347189
677.70 3.40557
677.80 3.429776
677.90 3.410073
678.00 3.36905
678.10 3.277932
678.20 3.101701
678.30 2.918463
678.40 2.727515
678.50 2.570657
678.60 2.493169
678.70 2.491964
678.80 2.535488
678.90 2.575586
679.00 2.624485
679.10 2.669448
679.20 2.698552
679.30 2.727
679.40 2.737388
679.50 2.761306
679.60 2.8246
679.70 2.884472
679.80 2.910631
679.90 2.901689
680.00 2.908849
680.10 2.945982
680.20 3.023011
680.30 3.096864
680.40 3.130819
680.50 3.108539
680.60 3.037298
680.70 2.965362
680.80 2.965852
680.90 3.06298
681.00 3.122738
681.10 3.137351
681.20 3.181417
681.30 3.235298
681.40 3.271702
681.50 3.248829
681.60 3.160452
681.70 3.039876
681.80 2.97584
681.90 2.979883
682.00 3.001214
682.10 3.049441
682.20 3.084909
682.30 3.073557
682.40 3.041081
682.50 3.042556
682.60 3.096323
682.70 3.14794
682.80 3.165539
682.90 3.223706
683.00 3.370787
683.10 3.448568
683.20 3.400505
683.30 3.293746
683.40 3.241333
683.50 3.302775
683.60 3.340628
683.70 3.316266
683.80 3.243273
683.90 3.177233
684.00 3.21339
684.10 3.320401
684.20 3.370702
684.30 3.381844
684.40 3.423345
684.50 3.473318
684.60 3.471556
684.70 3.405572
684.80 3.35409
684.90 3.344882
685.00 3.327553
685.10 3.250125
685.20 3.112893
685.30 3.008348
685.40 2.9795
685.50 2.997647
685.60 3.045087
685.70 3.075873
685.80 3.092667
685.90 3.1186
686.00 3.108091
686.10 3.07667
686.20 3.050021
686.30 3.041289
686.40 3.095255
686.50 3.195529
686.60 3.282568
686.70 3.323932
686.80 3.282351
686.90 3.163161
687.00 3.110149
687.10 3.154328
687.20 3.231376
687.30 3.299442
687.40 3.369096
687.50 3.473738
687.60 3.568038
687.70 3.625339
687.80 3.658667
687.90 3.682872
688.00 3.708298
688.10 3.678457
688.20 3.620543
688.30 3.586878
688.40 3.553324
688.50 3.489499
688.60 3.382978
688.70 3.293872
688.80 3.344641
688.90 3.512031
689.00 3.650314
689.10 3.687511
689.20 3.608677
689.30 3.534245
689.40 3.574177
689.50 3.687207
689.60 3.792567
689.70 3.822571
689.80 3.785853
689.90 3.757886
690.00 3.728562
690.10 3.61331
690.20 3.447688
690.30 3.369663
690.40 3.447901
690.50 3.616195
690.60 3.794694
690.70 3.956589
690.80 4.079133
690.90 4.20029
691.00 4.273968
691.10 4.247734
691.20 4.20377
691.30 4.205109
691.40 4.308526
691.50 4.38176
691.60 4.367176
691.70 4.281363
691.80 4.08072
691.90 3.814667
692.00 3.577935
692.10 3.517913
692.20 3.661435
692.30 3.922756
692.40 4.190639
692.50 4.426613
692.60 4.573664
692.70 4.57618
692.80 4.518307
692.90 4.474975
693.00 4.517159
693.10 4.636068
693.20 4.782583
693.30 4.899461
693.40 4.962523
693.50 4.971386
693.60 4.939709
693.70 4.935673
693.80 4.983071
693.90 5.022996
694.00 5.051225
694.10 5.080864
694.20 5.163699
694.30 5.348033
694.40 5.557757
694.50 5.714524
694.60 5.830259
694.70 5.932726
694.80 6.035371
694.90 6.148953
695.00 6.203931
695.10 6.190599
695.20 6.064614
695.30 5.871607
695.40 5.685242
695.50 5.554792
695.60 5.539242
695.70 5.562698
695.80 5.61325
695.90 5.632891
696.00 5.623912
696.10 5.608678
696.20 5.611839
696.30 5.682247
696.40 5.779756
696.50 5.888891
696.60 5.994336
696.70 6.064692
696.80 6.096287
696.90 6.110788
697.00 6.103139
697.10 6.045073
697.20 5.971713
697.30 5.90801
697.40 5.913932
697.50 6.007431
697.60 6.16489
697.70 6.333277
697.80 6.454111
697.90 6.531228
698.00 6.574736
698.10 6.566484
698.20 6.533489
698.30 6.553583
698.40 6.64794
698.50 6.758063
698.60 6.794492
698.70 6.761245
698.80 6.736032
698.90 6.694799
699.00 6.644163
699.10 6.53941
699.20 6.411611
699.30 6.37825
699.40 6.403814
699.50 6.442619
699.60 6.519114
699.70 6.606254
699.80 6.671401
699.90 6.689592
700.00 6.652453
700.10 6.651328
700.20 6.724601
700.30 6.836685
700.40 6.892745
700.50 6.824598
700.60 6.702891
700.70 6.691689
700.80 6.833497
700.90 7.039825
701.00 7.155803
701.10 7.149426
701.20 7.14847
701.30 7.281929
701.40 7.523221
701.50 7.674452
701.60 7.668336
701.70 7.576001
701.80 7.511452
701.90 7.541616
702.00 7.654582
702.10 7.831499
702.20 7.991951
702.30 7.97144
702.40 7.714071
702.50 7.385868
702.60 7.217911
702.70 7.333419
702.80 7.662458
702.90 8.129899
703.00 8.599022
703.10 8.839337
703.20 8.819922
703.30 8.710116
703.40 8.673421
703.50 8.84492
703.60 9.191573
703.70 9.531883
703.80 9.681134
703.90 9.645444
704.00 9.591681
704.10 9.678443
704.20 9.913222
704.30 10.15085
704.40 10.27711
704.50 10.3199
704.60 10.35048
704.70 10.40152
704.80 10.45585
704.90 10.47915
705.00 10.4584
705.10 10.40444
705.20 10.3458
705.30 10.12678
705.40 9.365868
705.50 7.963283
705.60 6.277476
705.70 4.959448
705.80 4.407049
705.90 4.403456
706.00 4.471679
706.10 4.353742
706.20 4.131647
706.30 4.003027
706.40 4.087618
706.50 4.294356
706.60 4.487437
706.70 4.619069
706.80 4.693188
706.90 4.792095
707.00 4.920626
707.10 5.035909
707.20 5.160622
707.30 5.284803
707.40 5.397814
707.50 5.44919
707.60 5.413559
707.70 5.388178
707.80 5.428945
707.90 5.504104
708.00 5.581016
708.10 5.670216
708.20 5.751532
708.30 5.799707
708.40 5.855323
708.50 5.921037
708.60 5.913405
708.70 5.685346
708.80 5.102143
708.90 4.265677
709.00 3.503154
709.10 3.093544
709.20 3.074695
709.30 3.21726
709.40 3.315377
709.50 3.285375
709.60 3.207609
709.70 3.198447
709.80 3.280892
709.90 3.410154
710.00 3.509185
710.10 3.571321
710.20 3.597749
710.30 3.587832
710.40 3.568382
710.50 3.58373
710.60 3.671402
710.70 3.825546
710.80 4.03646
710.90 4.267245
711.00 4.457691
711.10 4.608961
711.20 4.727575
711.30 4.797366
711.40 4.79899
711.50 4.728466
711.60 4.655379
711.70 4.623727
711.80 4.661177
711.90 4.798995
712.00 4.995079
712.10 5.182609
712.20 5.328017
712.30 5.377719
712.40 5.276511
712.50 4.932904
712.60 4.25372
712.70 3.412421
712.80 2.736337
712.90 2.433206
713.00 2.483208
713.10 2.634579
713.20 2.670869
713.30 2.589223
713.40 2.520793
713.50 2.53534
713.60 2.615405
713.70 2.710318
713.80 2.779935
713.90 2.780106
714.00 2.759708
714.10 2.791656
714.20 2.894757
714.30 3.050684
714.40 3.180873
714.50 3.227179
714.60 3.211912
714.70 3.204415
714.80 3.230016
714.90 3.295243
715.00 3.360652
715.10 3.388505
715.20 3.413723
715.30 3.466136
715.40 3.553357
715.50 3.696563
715.60 3.852488
715.70 3.948008
715.80 3.918108
715.90 3.764147
716.00 3.562344
716.10 3.397739
716.20 3.357288
716.30 3.41011
716.40 3.474656
716.50 3.497168
716.60 3.488324
716.70 3.513234
716.80 3.558275
716.90 3.596493
717.00 3.655993
717.10 3.739849
717.20 3.871088
717.30 3.999483
717.40 4.056098
717.50 4.054951
717.60 4.02005
717.70 3.996343
717.80 4.00672
717.90 4.059007
718.00 4.145957
718.10 4.244428
718.20 4.331847
718.30 4.397776
718.40 4.487424
718.50 4.608934
718.60 4.735692
718.70 4.832548
718.80 4.875852
718.90 4.911247
719.00 4.962007
719.10 4.986536
719.20 4.980962
719.30 4.977639
719.40 5.000105
719.50 5.033186
719.60 4.991785
719.70 4.817909
719.80 4.523225
719.90 4.227294
720.00 4.092543
720.10 4.096455
720.20 4.132636
720.30 4.145884
720.40 4.117975
720.50 4.107625
720.60 4.141581
720.70 4.147269
720.80 4.188576
720.90 4.301837
721.00 4.399712
721.10 4.446172
721.20 4.47602
721.30 4.559848
721.40 4.670719
721.50 4.731709
721.60 4.751047
721.70 4.809863
721.80 4.928562
721.90 5.020671
722.00 5.060373
722.10 5.077237
722.20 5.113078
722.30 5.18862
722.40 5.291447
722.50 5.440162
722.60 5.574164
722.70 5.674016
722.80 5.772747
722.90 5.818335
723.00 5.77765
723.10 5.64275
723.20 5.458051
723.30 5.362299
723.40 5.435125
723.50 5.633357
723.60 5.84707
723.70 5.991518
723.80 6.061233
723.90 6.10435
724.00 6.112015
724.10 6.111108
724.20 6.139969
724.30 6.131741
724.40 6.219237
724.50 6.387214
724.60 6.543941
724.70 6.647945
724.80 6.666149
724.90 6.79607
725.00 7.000421
725.10 7.115854
725.20 7.105879
725.30 7.035254
725.40 7.014404
725.50 7.11196
725.60 7.276151
725.70 7.400553
725.80 7.434693
725.90 7.403717
726.00 7.385261
726.10 7.439446
726.20 7.562485
726.30 7.734466
726.40 7.934688
726.50 8.064506
726.60 8.092702
726.70 8.084477
726.80 8.11457
726.90 8.190953
727.00 8.158936
727.10 7.89574
727.20 7.518103
727.30 7.313292
727.40 7.437314
727.50 7.759785
727.60 8.046018
727.70 8.188889
727.80 8.143456
727.90 7.993902
728.00 7.818027
728.10 7.758468
728.20 7.915841
728.30 8.094205
728.40 8.226229
728.50 8.360309
728.60 8.49957
728.70 8.670245
728.80 8.763036
728.90 8.769728
729.00 8.86202
729.10 8.974078
729.20 9.027435
729.30 9.039866
729.40 9.041718
729.50 9.101192
729.60 9.229861
729.70 9.396752
729.80 9.524096
729.90 9.57237
730.00 9.542934
730.10 9.507133
730.20 9.632917
730.30 9.862424
730.40 10.00442
730.50 10.03182
730.60 10.03738
730.70 10.09246
730.80 10.19573
730.90 10.32259
731.00 10.41542
731.10 10.42529
731.20 10.40532
731.30 10.46914
731.40 10.64252
731.50 10.82246
731.60 10.96608
731.70 11.05111
731.80 11.09505
731.90 11.11557
732.00 11.05012
732.10 11.03107
732.20 11.14821
732.30 11.30085
732.40 11.37352
732.50 11.30174
732.60 11.1152
732.70 10.89489
732.80 10.76945
732.90 10.93644
733.00 11.33942
733.10 11.6917
733.20 11.80134
733.30 11.70862
733.40 11.6814
733.50 11.81279
733.60 12.00055
733.70 12.19201
733.80 12.35309
733.90 12.49204
734.00 12.64723
734.10 12.72927
734.20 12.74809
734.30 12.70026
734.40 12.36227
734.50 11.88334
734.60 11.6416
734.70 11.70552
734.80 11.94533
734.90 12.18001
735.00 12.36358
735.10 12.50897
735.20 12.59304
735.30 12.6388
735.40 12.66028
735.50 12.60287
735.60 12.43631
735.70 12.24284
735.80 12.15402
735.90 12.29064
736.00 12.56369
736.10 12.77832
736.20 12.85846
736.30 12.82789
736.40 12.85625
736.50 12.9952
736.60 13.1474
736.70 13.27857
736.80 13.36947
736.90 13.44688
737.00 13.60969
737.10 13.77821
737.20 13.79076
737.30 13.662
737.40 13.51006
737.50 13.43363
737.60 13.42158
737.70 13.42656
737.80 13.49891
737.90 13.65042
738.00 13.8089
738.10 13.90393
738.20 13.90257
738.30 13.83374
738.40 13.78864
738.50 13.8425
738.60 13.96712
738.70 14.08301
738.80 14.16618
738.90 14.25293
739.00 14.35741
739.10 14.42977
739.20 14.39473
739.30 14.213
739.40 13.96184
739.50 13.77079
739.60 13.71711
739.70 13.81238
739.80 13.97843
739.90 14.11035
740.00 14.15036
740.10 14.15329
740.20 14.22795
740.30 14.36711
740.40 14.45204
740.50 14.34812
740.60 14.07151
740.70 13.78577
740.80 13.68626
740.90 13.83325
741.00 14.08163
741.10 14.32592
741.20 14.47727
741.30 14.51985
741.40 14.55068
741.50 14.60163
741.60 14.62601
741.70 14.5266
741.80 14.28976
741.90 14.02588
742.00 13.91292
742.10 13.98186
742.20 14.1217
742.30 14.26984
742.40 14.37518
742.50 14.45196
742.60 14.53757
742.70 14.60998
742.80 14.67932
742.90 14.76919
743.00 14.85141
743.10 14.91078
743.20 14.93918
743.30 14.89762
743.40 14.76606
743.50 14.58094
743.60 14.34848
743.70 14.21038
743.80 14.3446
743.90 14.66058
744.00 14.98064
744.10 15.11362
744.20 14.97079
744.30 14.66877
744.40 14.46708
744.50 14.44638
744.60 14.4843
744.70 14.49103
744.80 14.42619
744.90 14.3377
745.00 14.30517
745.10 14.39535
745.20 14.57667
745.30 14.73004
745.40 14.80023
745.50 14.74696
745.60 14.6185
745.70 14.55951
745.80 14.60219
745.90 14.6829
746.00 14.74115
746.10 14.74561
746.20 14.74093
746.30 14.76342
746.40 14.79901
746.50 14.8535
746.60 14.92731
746.70 14.97668
746.80 14.97344
746.90 14.98489
747.00 15.11784
747.10 15.37901
747.20 15.56982
747.30 15.45085
747.40 15.1001
747.50 14.8241
747.60 14.7591
747.70 14.9403
747.80 15.21602
747.90 15.33422
748.00 15.29333
748.10 15.18116
748.20 15.06093
748.30 15.10477
748.40 15.33059
748.50 15.50469
748.60 15.5296
748.70 15.39239
748.80 15.17754
748.90 15.07272
749.00 15.12573
749.10 15.25691
749.20 15.36498
749.30 15.3714
749.40 15.24486
749.50 15.0381
749.60 14.89366
749.70 14.92931
749.80 15.17518
749.90 15.56726
750.00 15.94468
750.10 16.15019
750.20 16.17555
750.30 16.12162
750.40 16.09167
750.50 16.09885
750.60 16.03283
750.70 15.81201
750.80 15.59383
750.90 15.64265
751.00 15.99953
751.10 16.40867
751.20 16.55196
751.30 16.38207
751.40 16.12715
751.50 16.06119
751.60 16.22453
751.70 16.43563
751.80 16.52242
751.90 16.42789
752.00 16.21591
752.10 16.00121
752.20 15.97627
752.30 16.17023
752.40 16.40921
752.50 16.52902
752.60 16.32969
752.70 15.8524
752.80 15.43469
752.90 15.29764
753.00 15.48875
753.10 15.89233
753.20 16.31214
753.30 16.6298
753.40 16.70226
753.50 16.50109
753.60 16.27446
753.70 16.27296
753.80 16.53929
753.90 16.93471
754.00 17.27545
754.10 17.4752
754.20 17.52085
754.30 17.43308
754.40 17.37083
754.50 17.4041
754.60 17.46055
754.70 17.47172
754.80 17.35763
754.90 17.21892
755.00 17.22351
755.10 17.355
755.20 17.47257
755.30 17.48234
755.40 17.40097
755.50 17.29858
755.60 17.2503
755.70 17.27687
755.80 17.36047
755.90 17.48005
756.00 17.59681
756.10 17.67351
756.20 17.65278
756.30 17.52154
756.40 17.36576
756.50 17.22837
756.60 17.03413
756.70 16.77196
756.80 16.52101
756.90 16.3579
757.00 16.40509
757.10 16.73183
757.20 17.23147
757.30 17.72769
757.40 18.0654
757.50 18.13376
757.60 17.9593
757.70 17.71861
757.80 17.50729
757.90 17.35652
758.00 17.37196
758.10 17.62845
758.20 18.03872
758.30 18.41262
758.40 18.60577
758.50 18.60745
758.60 18.50123
758.70 18.2285
758.80 17.53667
758.90 16.27882
759.00 14.52946
759.10 12.76067
759.20 11.58404
759.30 11.2457
759.40 11.61431
759.50 12.18189
759.60 12.52725
759.70 12.59652
759.80 12.602
759.90 12.78895
760.00 13.13167
760.10 13.31894
760.20 13.09387
760.30 12.693
760.40 12.59656
760.50 12.78409
760.60 12.97553
760.70 13.0823
760.80 13.07166
760.90 12.98521
761.00 12.90303
761.10 12.93679
761.20 13.25834
761.30 13.89338
761.40 14.49273
761.50 14.72338
761.60 14.63234
761.70 14.50408
761.80 14.67862
761.90 15.12269
762.00 15.49038
762.10 15.53621
762.20 15.32945
762.30 15.08129
762.40 14.93473
762.50 14.9489
762.60 14.81497
762.70 14.2282
762.80 13.21256
762.90 11.95886
763.00 10.89579
763.10 10.24422
763.20 9.981891
763.30 10.11387
763.40 10.49342
763.50 10.79113
763.60 10.82071
763.70 10.72835
763.80 10.70062
763.90 10.83699
764.00 10.90867
764.10 10.72689
764.20 10.64322
764.30 10.85449
764.40 11.05444
764.50 11.04085
764.60 10.85739
764.70 10.74634
764.80 10.94927
764.90 11.14057
765.00 10.98875
765.10 10.69481
765.20 10.48682
765.30 10.47704
765.40 10.51307
765.50 10.29012
765.60 9.973252
765.70 9.824046
765.80 9.839278
765.90 9.838194
766.00 9.44017
766.10 8.601254
766.20 7.59292
766.30 6.581102
766.40 5.584242
766.50 4.553157
766.60 3.664893
766.70 3.281982
766.80 3.554954
766.90 4.334676
767.00 5.218512
767.10 5.830161
767.20 6.126153
767.30 6.221375
767.40 6.29717
767.50 6.484712
767.60 6.764402
767.70 7.070513
767.80 7.33548
767.90 7.521149
768.00 7.663045
768.10 7.827738
768.20 8.021517
768.30 8.178503
768.40 8.266397
768.50 8.290013
768.60 8.284307
768.70 8.321187
768.80 8.410466
768.90 8.505055
769.00 8.551948
769.10 8.532753
769.20 8.491394
769.30 8.423818
769.40 8.278939
769.50 8.00285
769.60 7.560698
769.70 6.896361
769.80 5.975143
769.90 4.937976
770.00 4.113356
770.10 3.844794
770.20 4.259094
770.30 5.147122
770.40 6.086265
770.50 6.792879
770.60 7.176888
770.70 7.319651
770.80 7.422994
770.90 7.599636
771.00 7.879413
771.10 8.225774
771.20 8.569614
771.30 8.842387
771.40 8.973024
771.50 8.972915
771.60 8.919464
771.70 8.864206
771.80 8.908569
771.90 9.05849
772.00 9.145043
772.10 9.217556
772.20 9.370522
772.30 9.544908
772.40 9.684117
772.50 9.791783
772.60 9.940857
772.70 10.14791
772.80 10.38219
772.90 10.57998
773.00 10.7098
773.10 10.77453
773.20 10.78951
773.30 10.81765
773.40 10.89642
773.50 11.01505
773.60 11.11935
773.70 11.1823
773.80 11.23739
773.90 11.34435
774.00 11.52296
774.10 11.6453
774.20 11.57732
774.30 11.30004
774.40 10.86761
774.50 10.40954
774.60 10.03754
774.70 9.810008
774.80 9.678851
774.90 9.498918
775.00 9.211205
775.10 8.875275
775.20 8.597645
775.30 8.51652
775.40 8.633966
775.50 8.792542
775.60 8.954457
775.70 9.101778
775.80 9.12555
775.90 9.075319
776.00 9.107025
776.10 9.241772
776.20 9.374084
776.30 9.382565
776.40 9.277661
776.50 9.168218
776.60 9.166534
776.70 9.349271
776.80 9.646444
776.90 9.915817
777.00 10.07708
777.10 10.12915
777.20 10.15073
777.30 10.21963
777.40 10.32063
777.50 10.41616
777.60 10.49406
777.70 10.52859
777.80 10.55038
777.90 10.58374
778.00 10.58638
778.10 10.52302
778.20 10.35782
778.30 10.07646
778.40 9.745566
778.50 9.42485
778.60 9.218001
778.70 9.207884
778.80 9.326501
778.90 9.493323
779.00 9.651422
779.10 9.804593
779.20 10.01369
779.30 10.24433
779.40 10.39206
779.50 10.47143
779.60 10.53407
779.70 10.54991
779.80 10.47413
779.90 10.27845
780.00 10.04487
780.10 9.828109
780.20 9.734429
780.30 9.960806
780.40 10.4777
780.50 11.07141
780.60 11.55865
780.70 11.84551
780.80 11.98668
780.90 12.07296
781.00 12.03744
781.10 11.90183
781.20 11.81745
781.30 11.84852
781.40 11.98508
781.50 12.18457
781.60 12.38656
781.70 12.52604
781.80 12.59346
781.90 12.58228
782.00 12.45794
782.10 12.19463
782.20 11.82767
782.30 11.49539
782.40 11.31161
782.50 11.24438
782.60 11.24825
782.70 11.23612
782.80 11.09388
782.90 10.78615
783.00 10.33339
783.10 9.949273
783.20 9.859697
783.30 10.02574
783.40 10.30015
783.50 10.56863
783.60 10.77586
783.70 10.90304
783.80 10.95092
783.90 10.95507
784.00 10.98734
784.10 11.05048
784.20 11.07266
784.30 11.08061
784.40 11.15865
784.50 11.32931
784.60 11.56028
784.70 11.75184
784.80 11.84727
784.90 11.84234
785.00 11.78559
785.10 11.7769
785.20 11.77492
785.30 11.79291
785.40 11.9105
785.50 11.99145
785.60 11.96592
785.70 11.94885
785.80 11.98704
785.90 12.10336
786.00 12.21321
786.10 12.17063
786.20 11.95211
786.30 11.66924
786.40 11.51108
786.50 11.4825
786.60 11.5519
786.70 11.7211
786.80 11.85124
786.90 11.93128
787.00 11.98925
787.10 11.98006
787.20 11.9214
787.30 11.81259
787.40 11.73404
787.50 11.77509
787.60 11.95668
787.70 12.2687
787.80 12.55373
787.90 12.70215
788.00 12.77549
788.10 12.83001
788.20 12.95075
788.30 13.1382
788.40 13.26722
788.50 13.32296
788.60 13.30191
788.70 13.2338
788.80 13.25747
788.90 13.40067
789.00 13.60869
789.10 13.75493
789.20 13.74498
789.30 13.67832
789.40 13.6568
789.50 13.69175
789.60 13.72669
789.70 13.69087
789.80 13.55275
789.90 13.33735
790.00 13.10371
790.10 12.90357
790.20 12.80973
790.30 12.87825
790.40 13.08908
790.50 13.33984
790.60 13.49962
790.70 13.42049
790.80 13.07733
790.90 12.61621
791.00 12.19057
791.10 11.9598
791.20 11.92548
791.30 11.97185
791.40 12.12605
791.50 12.35124
791.60 12.53917
791.70 12.6436
791.80 12.61071
791.90 12.49185
792.00 12.40384
792.10 12.42797
792.20 12.52076
792.30 12.62865
792.40 12.77757
792.50 12.88028
792.60 12.88041
792.70 12.86618
792.80 12.89033
792.90 12.98988
793.00 13.17373
793.10 13.40348
793.20 13.67734
793.30 13.96414
793.40 14.15751
793.50 14.25201
793.60 14.28479
793.70 14.24246
793.80 14.15568
793.90 14.02685
794.00 13.82749
794.10 13.56794
794.20 13.31377
794.30 13.19939
794.40 13.30608
794.50 13.53801
794.60 13.66341
794.70 13.46378
794.80 12.9869
794.90 12.57089
795.00 12.49523
795.10 12.83809
795.20 13.41067
795.30 13.94832
795.40 14.34927
795.50 14.57344
795.60 14.66865
795.70 14.72674
795.80 14.75934
795.90 14.77254
796.00 14.70372
796.10 14.47723
796.20 14.22446
796.30 14.12349
796.40 14.24273
796.50 14.5684
796.60 14.87061
796.70 14.93626
796.80 14.89905
796.90 14.94827
797.00 15.12489
797.10 15.33845
797.20 15.45122
797.30 15.47003
797.40 15.47124
797.50 15.43698
797.60 15.33165
797.70 15.20445
797.80 15.13618
797.90 15.1459
798.00 15.18406
798.10 15.17508
798.20 15.05693
798.30 14.87558
798.40 14.75785
798.50 14.74677
798.60 14.76466
798.70 14.71735
798.80 14.57948
798.90 14.42716
799.00 14.3837
799.10 14.53735
799.20 14.85466
799.30 15.18001
799.40 15.39419
799.50 15.41035
799.60 15.20881
799.70 14.9645
799.80 14.83734
799.90 14.85962
800.00 15.00261
800.10 15.18892
800.20 15.35419
800.30 15.49008
800.40 15.5907
800.50 15.63482
800.60 15.6574
800.70 15.71388
800.80 15.80096
800.90 15.88283
801.00 15.96218
801.10 16.05153
801.20 16.15538
801.30 16.27883
801.40 16.41311
801.50 16.54454
801.60 16.62854
801.70 16.65977
801.80 16.67016
801.90 16.69091
802.00 16.76309
802.10 16.80111
802.20 16.70846
802.30 16.56179
802.40 16.49788
802.50 16.58798
802.60 16.76987
802.70 16.9253
802.80 17.04379
802.90 17.14821
803.00 17.23472
803.10 17.33547
803.20 17.45512
803.30 17.56645
803.40 17.62814
803.50 17.63798
803.60 17.63001
803.70 17.58619
803.80 17.51868
803.90 17.48989
804.00 17.52142
804.10 17.58731
804.20 17.66144
804.30 17.76062
804.40 17.88939
804.50 18.02214
804.60 18.11154
804.70 18.05437
804.80 17.88678
804.90 17.80329
805.00 17.90906
805.10 18.20583
805.20 18.62968
805.30 19.01841
805.40 19.23662
805.50 19.31955
805.60 19.33393
805.70 19.29307
805.80 19.24852
805.90 19.24809
806.00 19.30986
806.10 19.42828
806.20 19.58289
806.30 19.70045
806.40 19.6511
806.50 19.44739
806.60 19.28665
806.70 19.24524
806.80 19.25101
806.90 19.2468
807.00 19.1877
807.10 19.10469
807.20 19.10892
807.30 19.24263
807.40 19.45368
807.50 19.67793
807.60 19.83569
807.70 19.87186
807.80 19.88223
807.90 19.95859
808.00 20.05154
808.10 20.10623
808.20 20.13546
808.30 20.20144
808.40 20.3259
808.50 20.46194
808.60 20.57664
808.70 20.63998
808.80 20.62474
808.90 20.57273
809.00 20.54248
809.10 20.58297
809.20 20.72352
809.30 20.86689
809.40 20.9029
809.50 20.83415
809.60 20.71813
809.70 20.62698
809.80 20.60786
809.90 20.63462
810.00 20.65463
810.10 20.67532
810.20 20.70639
810.30 20.71076
810.40 20.67241
810.50 20.60398
810.60 20.54995
810.70 20.57706
810.80 20.73232
810.90 20.99941
811.00 21.23556
811.10 21.31062
811.20 21.28455
811.30 21.27702
811.40 21.3348
811.50 21.39103
811.60 21.26262
811.70 20.92484
811.80 20.59233
811.90 20.50805
812.00 20.76224
812.10 21.1939
812.20 21.57843
812.30 21.77923
812.40 21.80491
812.50 21.80216
812.60 21.86009
812.70 21.97065
812.80 22.08847
812.90 22.15942
813.00 22.16181
813.10 22.11795
813.20 22.07848
813.30 22.06098
813.40 22.06583
813.50 22.11274
813.60 22.17591
813.70 22.24847
813.80 22.38753
813.90 22.55512
814.00 22.64735
814.10 22.64066
814.20 22.50209
814.30 22.2531
814.40 22.02404
814.50 21.89885
814.60 21.89122
814.70 21.95357
814.80 22.01325
814.90 22.01059
815.00 21.94228
815.10 21.94464
815.20 22.07429
815.30 22.17293
815.40 22.159
815.50 22.08654
815.60 22.00015
815.70 21.95869
815.80 21.96383
815.90 21.9301
816.00 21.83121
816.10 21.68018
816.20 21.5126
816.30 21.42787
816.40 21.48938
816.50 21.68076
816.60 21.97728
816.70 22.29677
816.80 22.50149
816.90 22.53766
817.00 22.4196
817.10 22.2426
817.20 22.14056
817.30 22.10869
817.40 22.13331
817.50 22.16513
817.60 22.03154
817.70 21.70487
817.80 21.31005
817.90 20.91687
818.00 20.52337
818.10 19.82028
818.20 18.41422
818.30 16.36304
818.40 14.23086
818.50 12.9406
818.60 13.09494
818.70 14.5466
818.80 16.51265
818.90 18.05673
819.00 18.85934
819.10 19.06708
819.20 18.72094
819.30 17.70223
819.40 15.97853
819.50 13.84434
819.60 12.08903
819.70 11.45983
819.80 12.093
819.90 13.6328
820.00 15.40232
820.10 16.85708
820.20 17.96575
820.30 18.84682
820.40 19.47027
820.50 19.80376
820.60 19.81785
820.70 19.59793
820.80 19.40364
820.90 19.40367
821.00 19.65742
821.10 20.04715
821.20 20.36911
821.30 20.53596
821.40 20.54118
821.50 20.47804
821.60 20.4617
821.70 20.49228
821.80 20.52194
821.90 20.54277
822.00 20.57058
822.10 20.6344
822.20 20.75603
822.30 20.87728
822.40 20.99177
822.50 21.18587
822.60 21.39612
822.70 21.5195
822.80 21.57206
822.90 21.57355
823.00 21.64699
823.10 21.88499
823.20 22.08777
823.30 22.07386
823.40 21.83012
823.50 21.49186
823.60 21.34866
823.70 21.48457
823.80 21.79061
823.90 22.17038
824.00 22.50521
824.10 22.71785
824.20 22.75997
824.30 22.63922
824.40 22.4209
824.50 22.2547
824.60 22.31876
824.70 22.60691
824.80 23.0046
824.90 23.34972
825.00 23.47628
825.10 23.29283
825.20 22.86432
825.30 22.40204
825.40 22.03852
825.50 21.7697
825.60 21.50642
825.70 21.18119
825.80 20.90873
825.90 20.90714
826.00 21.27075
826.10 21.84481
826.20 22.33731
826.30 22.59384
826.40 22.68325
826.50 22.73752
826.60 22.85541
826.70 22.98587
826.80 23.00166
826.90 22.91604
827.00 22.74717
827.10 22.45015
827.20 21.99364
827.30 21.43897
827.40 20.97251
827.50 20.7683
827.60 20.84331
827.70 21.02692
827.80 21.21662
827.90 21.43734
828.00 21.59513
828.10 21.59137
828.20 21.44204
828.30 21.22745
828.40 21.0542
828.50 21.04012
828.60 21.19797
828.70 21.26491
828.80 21.06534
828.90 20.69918
829.00 20.20375
829.10 19.7762
829.20 19.70446
829.30 19.87349
829.40 20.07443
829.50 20.20424
829.60 20.21815
829.70 20.27848
829.80 20.44982
829.90 20.60116
830.00 20.09962
830.10 19.93101
830.20 19.7624
830.30 19.49881
830.40 19.23523
830.50 19.04494
830.60 18.85465
830.70 19.05986
830.80 19.26507
830.90 19.63545
831.00 20.00584
831.10 20.16668
831.20 20.32753
831.30 20.20399
831.40 20.08045
831.50 20.13746
831.60 20.19447
831.70 20.34742
831.80 20.50036
831.90 20.682
832.00 20.86364
832.10 20.83743
832.20 20.81121
832.30 20.90015
832.40 20.9891
832.50 20.97853
832.60 20.96797
832.70 20.50205
832.80 20.03612
832.90 19.88042
833.00 19.72471
833.10 20.21548
833.20 20.70626
833.30 20.91389
833.40 21.12153
833.50 20.66369
833.60 20.20586
833.70 19.99802
833.80 19.79018
833.90 20.08038
834.00 20.37057
834.10 20.65015
834.20 20.92973
834.30 21.005
834.40 21.08026
834.50 20.86731
834.60 20.65435
834.70 20.33396
834.80 20.01356
834.90 19.92396
835.00 19.83436
835.10 20.0589
835.20 20.28343
835.30 20.31702
835.40 20.35061
835.50 20.32936
835.60 20.3081
835.70 20.49416
835.80 20.68022
835.90 20.7393
836.00 20.79837
836.10 20.86354
836.20 20.9287
836.30 20.73571
836.40 20.54272
836.50 20.3759
836.60 20.20909
836.70 20.44156
836.80 20.67403
836.90 21.05929
837.00 21.44454
837.10 21.48925
837.20 21.53397
837.30 21.20357
837.40 20.87317
837.50 20.30347
837.60 19.73378
837.70 19.51462
837.80 19.29546
837.90 19.39919
838.00 19.50291
838.10 19.7012
838.20 19.89949
838.30 19.69752
838.40 19.49555
838.50 19.3179
838.60 19.14025
838.70 18.82432
838.80 18.50839
838.90 18.16507
839.00 17.82174
839.10 18.26106
839.20 18.70037
839.30 19.14428
839.40 19.58819
839.50 19.59067
839.60 19.59314
839.70 19.57331
839.80 19.55348
839.90 19.87304
840.00 20.19261
840.10 20.12578
840.20 20.25389
840.30 20.46987
840.40 20.6783
840.50 20.83114
840.60 20.98602
840.70 21.14095
840.80 21.28543
840.90 21.3792
841.00 21.32933
841.10 21.31465
841.20 21.12325
841.30 20.81897
841.40 20.68009
841.50 20.73914
841.60 20.87756
841.70 21.2662
841.80 21.73575
841.90 21.61407
842.00 21.17883
842.10 20.52564
842.20 20.00328
842.30 19.68725
842.40 19.82409
842.50 19.95107
842.60 19.80135
842.70 19.60683
842.80 19.32299
842.90 19.15875
843.00 19.18891
843.10 19.42948
843.20 19.62988
843.30 19.0139
843.40 18.15512
843.50 16.86694
843.60 15.5489
843.70 14.49382
843.80 14.73305
843.90 15.03742
844.00 15.91424
844.10 16.78952
844.20 16.96063
844.30 16.45759
844.40 15.70167
844.50 14.70997
844.60 13.81223
844.70 13.70292
844.80 13.79747
844.90 14.19977
845.00 14.58716
845.10 14.75353
845.20 14.22325
845.30 13.59842
845.40 12.76766
845.50 12.01713
845.60 11.779
845.70 11.77384
845.80 11.8452
845.90 12.10248
846.00 12.35035
846.10 12.52016
846.20 12.67372
846.30 12.88056
846.40 13.01318
846.50 12.89898
846.60 12.46811
846.70 12.04923
846.80 11.93054
846.90 11.96419
847.00 12.11351
847.10 12.08205
847.20 11.96085
847.30 11.97766
847.40 12.09471
847.50 12.32717
847.60 12.5327
847.70 12.79413
847.80 13.06099
847.90 13.14747
848.00 13.12389
848.10 13.13742
848.20 13.15009
848.30 13.14473
848.40 13.22903
848.50 13.36397
848.60 13.55358
848.70 13.78183
848.80 13.95122
848.90 13.93785
849.00 13.9079
849.10 14.10878
849.20 14.38161
849.30 14.56021
849.40 14.53906
849.50 14.42282
849.60 14.12848
849.70 13.84323
849.80 13.6009
849.90 13.37419
850.00 13.43637
850.10 13.77072
850.20 14.1153
850.30 14.21973
850.40 14.22587
850.50 13.97232
850.60 13.71035
850.70 13.36034
850.80 12.96717
850.90 12.67657
851.00 12.91738
851.10 13.22161
851.20 13.53141
851.30 13.79212
851.40 13.75551
851.50 13.52236
851.60 13.26606
851.70 12.9765
851.80 12.6588
851.90 12.42119
852.00 12.27369
852.10 12.29982
852.20 12.36722
852.30 12.43206
852.40 12.65134
852.50 12.94475
852.60 13.30175
852.70 13.59961
852.80 13.84096
852.90 14.00117
853.00 14.08708
853.10 14.18343
853.20 14.2925
853.30 14.43145
853.40 14.58481
853.50 14.70199
853.60 14.76059
853.70 14.74821
853.80 14.71378
853.90 14.75857
854.00 14.8715
854.10 14.92831
854.20 14.76509
854.30 14.60005
854.40 14.52092
854.50 14.57696
854.60 14.74369
854.70 15.10346
854.80 15.42102
854.90 15.60213
855.00 15.79547
855.10 16.0173
855.20 16.2009
855.30 16.35467
855.40 16.46178
855.50 16.57826
855.60 16.61634
855.70 16.59903
855.80 16.50717
855.90 16.3332
856.00 16.07404
856.10 15.65631
856.20 15.24515
856.30 15.2508
856.40 15.38648
856.50 15.6657
856.60 16.0451
856.70 16.41919
856.80 16.57424
856.90 16.68993
857.00 16.59406
857.10 16.41927
857.20 16.13435
857.30 15.91933
857.40 15.80743
857.50 15.88849
857.60 16.00665
857.70 16.20626
857.80 16.39012
857.90 16.66448
858.00 16.86983
858.10 16.8558
858.20 16.66661
858.30 16.53724
858.40 16.56044
858.50 16.55274
858.60 16.53097
858.70 16.60432
858.80 16.76314
858.90 16.98008
859.00 17.14825
859.10 17.12964
859.20 17.05744
859.30 16.97164
859.40 16.89193
859.50 16.89805
859.60 17.06917
859.70 17.24629
859.80 17.34217
859.90 17.40253
860.00 17.44511
860.10 17.51303
860.20 17.64886
860.30 17.86637
860.40 18.03841
860.50 17.97986
860.60 17.80423
860.70 17.80329
860.80 17.97059
860.90 18.10908
861.00 18.15477
861.10 18.07698
861.20 17.70661
861.30 17.33191
861.40 17.10803
861.50 16.9499
861.60 16.92014
861.70 16.90548
861.80 16.8285
861.90 16.72796
862.00 16.64028
862.10 16.76891
862.20 16.94057
862.30 17.12357
862.40 17.21586
862.50 17.11335
862.60 16.86469
862.70 16.66954
862.80 16.79903
862.90 16.98013
863.00 16.95884
863.10 16.86437
863.20 16.77033
863.30 16.78738
863.40 16.87549
863.50 17.10364
863.60 17.2833
863.70 17.22415
863.80 17.16302
863.90 17.19272
864.00 17.22171
864.10 17.25536
864.20 17.46522
864.30 17.68395
864.40 17.83074
864.50 17.92869
864.60 17.83585
864.70 17.55378
864.80 17.27753
864.90 17.26492
865.00 17.35629
865.10 17.54682
865.20 17.66963
865.30 17.74385
865.40 17.90234
865.50 18.11369
865.60 18.29739
865.70 18.46501
865.80 18.48318
865.90 18.44437
866.00 18.3106
866.10 18.03623
866.20 17.69051
866.30 17.38895
866.40 17.1324
866.50 17.32835
866.60 17.6051
866.70 18.01444
866.80 18.43038
866.90 18.69901
867.00 18.68349
867.10 18.66461
867.20 18.55695
867.30 18.37933
867.40 18.44157
867.50 18.52647
867.60 18.56472
867.70 18.67739
867.80 18.82534
867.90 19.10964
868.00 19.33458
868.10 19.32551
868.20 19.10712
868.30 18.80645
868.40 18.68668
868.50 18.71121
868.60 18.87047
868.70 18.89283
868.80 18.53552
868.90 18.09925
869.00 17.65856
869.10 17.3201
869.20 16.93477
869.30 16.54807
869.40 16.16256
869.50 15.81372
869.60 15.60972
869.70 15.65008
869.80 15.83505
869.90 15.98774
870.00 16.19716
870.10 16.46861
870.20 16.73186
870.30 16.94167
870.40 17.17414
870.50 17.36156
870.60 17.56289
870.70 17.71257
870.80 17.84898
870.90 17.63799
871.00 17.32897
871.10 16.92081
871.20 16.5561
871.30 16.3477
871.40 16.39491
871.50 16.39941
871.60 16.43612
871.70 16.51899
871.80 16.47695
871.90 16.45347
872.00 16.50409
872.10 16.69725
872.20 16.88348
872.30 17.02088
872.40 17.14729
872.50 17.24613
872.60 17.35395
872.70 17.61441
872.80 18.1228
872.90 18.6265
873.00 18.94577
873.10 19.18454
873.20 18.99214
873.30 18.65693
873.40 18.31999
873.50 18.16518
873.60 18.03971
873.70 17.99436
873.80 17.91138
873.90 17.88877
874.00 17.98245
874.10 18.25385
874.20 18.71086
874.30 19.1148
874.40 19.40638
874.50 19.72052
874.60 20.01506
874.70 20.1312
874.80 19.86509
874.90 19.35724
875.00 18.84897
875.10 18.66534
875.20 18.60365
875.30 19.07662
875.40 19.55712
875.50 19.90747
875.60 19.95852
875.70 19.86411
875.80 19.85562
875.90 19.99587
876.00 20.36757
876.10 20.67348
876.20 20.90849
876.30 20.9428
876.40 20.74578
876.50 20.22679
876.60 19.75611
876.70 19.54133
876.80 19.41748
876.90 19.48159
877.00 19.84079
877.10 20.45203
877.20 21.21945
877.30 21.92719
877.40 22.33088
877.50 22.72063
877.60 23.08592
877.70 23.21857
877.80 22.98154
877.90 22.28383
878.00 21.59745
878.10 21.05539
878.20 20.59528
878.30 20.77234
878.40 21.10685
878.50 21.39941
878.60 21.51023
878.70 21.61397
878.80 21.74059
878.90 21.86646
879.00 22.05467
879.10 22.2007
879.20 22.41667
879.30 22.61886
879.40 22.67698
879.50 22.47633
879.60 22.32598
879.70 22.55766
879.80 22.79488
879.90 22.89522
880.00 22.61075
880.10 22.06016
880.20 21.08555
880.30 20.11645
880.40 19.68362
880.50 19.51567
880.60 19.71245
880.70 19.92038
880.80 20.07426
880.90 20.33222
881.00 20.57588
881.10 20.92058
881.20 21.44343
881.30 22.30337
881.40 23.10428
881.50 23.77281
881.60 24.2049
881.70 24.54758
881.80 24.56959
881.90 24.57213
882.00 24.59803
882.10 24.3453
882.20 23.74553
882.30 22.76717
882.40 21.82264
882.50 21.16072
882.60 20.5847
882.70 20.57022
882.80 20.83408
882.90 21.29576
883.00 21.90068
883.10 22.51812
883.20 23.12327
883.30 23.68084
883.40 23.99384
883.50 24.19395
883.60 24.24921
883.70 24.24919
883.80 24.28855
883.90 24.37744
884.00 24.52659
884.10 24.71403
884.20 24.82095
884.30 24.83288
884.40 24.55673
884.50 24.17601
884.60 23.59944
884.70 22.98628
884.80 22.4772
884.90 22.03889
885.00 21.848
885.10 22.08535
885.20 22.72147
885.30 23.7314
885.40 24.72552
885.50 25.33714
885.60 25.64897
885.70 25.23378
885.80 24.49062
885.90 23.44393
886.00 21.92654
886.10 20.46628
886.20 19.36869
886.30 18.41151
886.40 18.30782
886.50 18.67474
886.60 19.38169
886.70 20.04058
886.80 20.52368
886.90 20.17712
887.00 19.62863
887.10 18.65915
887.20 17.7216
887.30 16.8501
887.40 16.32606
887.50 16.0503
887.60 16.52588
887.70 17.12737
887.80 17.90537
887.90 18.65806
888.00 19.30821
888.10 19.6736
888.20 19.90028
888.30 19.74761
888.40 19.48061
888.50 18.87492
888.60 18.35987
888.70 18.24578
888.80 18.50592
888.90 18.90046
889.00 19.4174
889.10 19.96857
889.20 20.20256
889.30 20.26986
889.40 20.21144
889.50 20.01616
889.60 19.64207
889.70 19.15359
889.80 18.78607
889.90 18.79445
890.00 18.89953
890.10 19.53581
890.20 20.26403
890.30 20.81717
890.40 21.14468
890.50 21.54845
890.60 21.90257
890.70 22.13979
890.80 22.09461
890.90 21.97422
891.00 21.70046
891.10 21.34994
891.20 21.07265
891.30 20.95614
891.40 20.86596
891.50 21.17369
891.60 21.42674
891.70 21.59859
891.80 21.79824
891.90 21.99157
892.00 22.00386
892.10 21.94381
892.20 21.87183
892.30 21.83405
892.40 21.62029
892.50 21.40028
892.60 21.25865
892.70 21.22005
892.80 21.23224
892.90 21.44271
893.00 21.66026
893.10 21.99196
893.20 22.39339
893.30 22.86511
893.40 23.32103
893.50 23.71863
893.60 23.69184
893.70 23.46077
893.80 22.71473
893.90 21.87615
894.00 21.01135
894.10 20.45796
894.20 20.07913
894.30 20.16485
894.40 20.28606
894.50 20.19589
894.60 20.14668
894.70 20.30513
894.80 20.51559
894.90 20.793
895.00 21.10988
895.10 21.37292
895.20 21.3212
895.30 21.26157
895.40 21.06213
895.50 20.92732
895.60 21.01543
895.70 21.4374
895.80 21.85353
895.90 21.99427
896.00 22.05294
896.10 22.01423
896.20 22.01891
896.30 22.03666
896.40 21.96856
896.50 21.84809
896.60 21.76793
896.70 21.68493
896.80 21.52158
896.90 21.6202
897.00 21.82915
897.10 22.02353
897.20 22.1785
897.30 22.29293
897.40 22.42352
897.50 22.58692
897.60 22.75192
897.70 22.99589
897.80 23.31427
897.90 23.5064
898.00 23.31513
898.10 23.14207
898.20 22.97247
898.30 22.87058
898.40 23.05064
898.50 23.61064
898.60 24.19698
898.70 24.52405
898.80 24.69778
898.90 24.68589
899.00 24.623
899.10 24.37847
899.20 24.15464
899.30 23.9929
899.40 23.94918
899.50 23.93304
899.60 23.85434
899.70 23.63292
899.80 23.38082
899.90 23.11762
900.00 22.82859
900.10 22.64241
900.20 22.60707
900.30 23.4311
900.40 24.40458
900.50 25.1246
900.60 25.62821
900.70 26.04624
900.80 26.03201
900.90 25.83125
901.00 25.32547
901.10 24.91487
901.20 24.73371
901.30 24.71588
901.40 24.78695
901.50 24.97986
901.60 25.1681
901.70 25.01929
901.80 24.71589
901.90 24.26284
902.00 23.9556
902.10 23.6032
902.20 23.14745
902.30 22.7542
902.40 22.54802
902.50 22.40751
902.60 22.29681
902.70 22.18089
902.80 22.13891
902.90 22.15251
903.00 22.3158
903.10 22.81946
903.20 23.30998
903.30 23.5713
903.40 23.82494
903.50 24.25808
903.60 24.74835
903.70 25.14137
903.80 25.32904
903.90 25.48981
904.00 25.69357
904.10 25.81434
904.20 25.58064
904.30 25.23687
904.40 24.9568
904.50 24.93679
904.60 25.01192
904.70 25.39259
904.80 25.78109
904.90 26.04176
905.00 26.15951
905.10 26.14788
905.20 25.90753
905.30 25.59275
905.40 25.20687
905.50 24.84255
905.60 24.60221
905.70 24.45012
905.80 24.30239
905.90 24.15618
906.00 24.01234
906.10 23.91189
906.20 23.83967
906.30 24.04087
906.40 24.18769
906.50 24.2227
906.60 24.35339
906.70 24.44734
906.80 24.36618
906.90 24.20801
907.00 23.95838
907.10 23.7912
907.20 23.90994
907.30 24.15632
907.40 24.35251
907.50 24.4807
907.60 24.60773
907.70 24.77258
907.80 25.05653
907.90 25.46831
908.00 25.76904
908.10 26.02173
908.20 26.15951
908.30 26.18999
908.40 25.89538
908.50 25.6395
908.60 25.62582
908.70 25.45873
908.80 25.2705
908.90 25.08215
909.00 24.94598
909.10 25.06833
909.20 25.24749
909.30 25.53162
909.40 25.78045
909.50 25.99565
909.60 26.11314
909.70 26.25673
909.80 26.49178
909.90 26.7849
910.00 27.07956
910.10 27.25125
910.20 27.24445
910.30 27.12777
910.40 27.0541
910.50 26.92833
910.60 26.78855
910.70 26.57947
910.80 26.34266
910.90 26.24989
911.00 26.30897
911.10 26.4467
911.20 26.64419
911.30 26.85185
911.40 27.12917
911.50 27.34965
911.60 27.35347
911.70 27.32898
911.80 27.30061
911.90 27.2891
912.00 27.26077
912.10 27.28175
912.20 27.29263
912.30 27.302
912.40 27.31931
912.50 27.31567
912.60 27.23842
912.70 27.22418
912.80 27.36256
912.90 27.49502
913.00 27.60243
913.10 27.79615
913.20 27.93918
913.30 28.02149
913.40 28.1158
913.50 28.27102
913.60 28.45119
913.70 28.30985
913.80 27.96758
913.90 27.51564
914.00 26.91094
914.10 26.25176
914.20 26.0237
914.30 26.02119
914.40 26.45856
914.50 26.97178
914.60 27.50325
914.70 27.75459
914.80 27.79996
914.90 27.58312
915.00 27.28817
915.10 27.00622
915.20 26.8579
915.30 27.03594
915.40 27.30283
915.50 27.78348
915.60 28.40894
915.70 29.03464
915.80 29.45299
915.90 29.6961
916.00 29.37496
916.10 29
916.20 28.65016
916.30 28.37962
916.40 28.1629
916.50 28.07834
916.60 28.04512
916.70 28.37185
916.80 28.75106
916.90 28.93432
917.00 28.81999
917.10 28.69293
917.20 28.71637
917.30 28.783
917.40 28.69158
917.50 28.58884
917.60 28.48804
917.70 28.31496
917.80 28.25869
917.90 28.38527
918.00 28.51189
918.10 28.567
918.20 28.59633
918.30 28.61584
918.40 28.57335
918.50 28.42666
918.60 28.23649
918.70 28.09931
918.80 28.27004
918.90 28.66516
919.00 29.44994
919.10 30.00767
919.20 30.16683
919.30 29.93885
919.40 29.56844
919.50 29.10913
919.60 28.79326
919.70 29.01352
919.80 29.35484
919.90 29.79426
920.00 30.02369
920.10 30.06841
920.20 29.94793
920.30 29.89707
920.40 30.05321
920.50 30.14086
920.60 29.97334
920.70 29.57349
920.80 29.04476
920.90 28.37114
921.00 27.72374
921.10 27.26117
921.20 26.90407
921.30 26.96399
921.40 27.30379
921.50 27.7589
921.60 28.18701
921.70 28.58254
921.80 28.92982
921.90 29.20737
922.00 28.97025
922.10 28.55649
922.20 28.27773
922.30 28.15833
922.40 28.0084
922.50 27.80127
922.60 27.61455
922.70 27.68741
922.80 27.72858
922.90 27.8485
923.00 27.93081
923.10 27.82494
923.20 27.40587
923.30 26.96784
923.40 26.64323
923.50 26.35112
923.60 26.32233
923.70 26.36691
923.80 26.41976
923.90 26.50611
924.00 26.58799
924.10 26.69453
924.20 26.92418
924.30 27.69828
924.40 28.4082
924.50 28.74466
924.60 28.38561
924.70 27.86104
924.80 27.19833
924.90 26.69413
925.00 26.40058
925.10 26.11809
925.20 25.92968
925.30 25.98603
925.40 26.07447
925.50 26.32352
925.60 26.63005
925.70 27.30161
925.80 27.92391
925.90 28.39495
926.00 28.64053
926.10 28.72271
926.20 28.54638
926.30 28.32671
926.40 28.09539
926.50 27.98808
926.60 28.16483
926.70 28.33341
926.80 28.51588
926.90 28.71461
927.00 28.88117
927.10 28.78379
927.20 28.60994
927.30 28.33895
927.40 28.08735
927.50 27.76359
927.60 27.35961
927.70 26.96067
927.80 26.70916
927.90 26.51597
928.00 26.28918
928.10 26.07484
928.20 26.0688
928.30 26.47431
928.40 26.89233
928.50 27.14314
928.60 27.2841
928.70 27.18306
928.80 27.05655
928.90 26.8669
929.00 26.63539
929.10 26.42102
929.20 26.31778
929.30 26.25424
929.40 26.3368
929.50 26.48423
929.60 26.65576
929.70 26.68657
929.80 26.59508
929.90 26.29229
930.00 25.90877
930.10 25.42017
930.20 25.23343
930.30 25.39034
930.40 25.4076
930.50 25.5192
930.60 25.75213
930.70 25.8903
930.80 25.76263
930.90 25.67763
931.00 25.7841
931.10 25.9289
931.20 26.30792
931.30 26.78879
931.40 27.1996
931.50 27.57905
931.60 27.74832
931.70 27.36466
931.80 26.93418
931.90 26.50063
932.00 26.34271
932.10 26.38523
932.20 26.56488
932.30 26.75608
932.40 26.93714
932.50 27.09176
932.60 27.10423
932.70 26.97207
932.80 26.84973
932.90 26.77665
933.00 26.75998
933.10 26.87705
933.20 27.00588
933.30 27.10557
933.40 26.9994
933.50 26.91577
933.60 26.90407
933.70 26.96527
933.80 27.08044
933.90 27.12484
934.00 27.16242
934.10 27.24069
934.20 27.29383
934.30 27.24708
934.40 27.12469
934.50 27.03128
934.60 27.19457
934.70 27.34784
934.80 27.31464
934.90 27.14853
935.00 26.9146
935.10 26.74156
935.20 26.57448
935.30 26.51998
935.40 26.51478
935.50 26.54444
935.60 26.63736
935.70 26.73439
935.80 26.79602
935.90 26.77007
936.00 26.78694
936.10 26.99371
936.20 27.27132
936.30 27.52262
936.40 27.62261
936.50 27.54209
936.60 27.45455
936.70 27.24772
936.80 26.96611
936.90 26.72366
937.00 26.58118
937.10 26.44734
937.20 26.11478
937.30 26.02285
937.40 26.00345
937.50 26.22671
937.60 26.5093
937.70 26.75272
937.80 26.8928
937.90 26.96753
938.00 27.10944
938.10 27.12095
938.20 27.06168
938.30 26.82418
938.40 26.72506
938.50 26.70883
938.60 26.8337
938.70 26.92375
938.80 26.98912
938.90 27.01374
939.00 27.04155
939.10 27.12892
939.20 27.27066
939.30 27.3909
939.40 27.44183
939.50 27.40292
939.60 27.26129
939.70 27.04484
939.80 26.7577
939.90 26.51245
940.00 26.35528
940.10 26.28795
940.20 26.45275
940.30 26.68094
940.40 26.845
940.50 26.86369
940.60 26.86981
940.70 27.02308
940.80 27.27897
940.90 27.56372
941.00 27.83505
941.10 28.02073
941.20 28.11427
941.30 27.97301
941.40 27.66882
941.50 27.32064
941.60 27.01388
941.70 26.77517
941.80 26.78058
941.90 26.97816
942.00 27.23518
942.10 27.39275
942.20 27.38245
942.30 27.37201
942.40 27.41903
942.50 27.46377
942.60 27.52606
942.70 27.62841
942.80 27.72415
942.90 27.73125
943.00 27.68496
943.10 27.71145
943.20 28.00996
943.30 28.35949
943.40 28.5667
943.50 28.67298
943.60 28.71059
943.70 28.6707
943.80 28.48139
943.90 28.23151
944.00 27.957
944.10 27.80582
944.20 27.69036
944.30 27.58092
944.40 27.51392
944.50 27.34971
944.60 27.1201
944.70 26.91131
944.80 26.93258
944.90 27.03956
945.00 27.15885
945.10 27.25762
945.20 27.38861
945.30 27.50984
945.40 27.70171
945.50 27.87364
945.60 28.0434
945.70 28.06691
945.80 28.03769
945.90 27.8584
946.00 27.77599
946.10 27.77133
946.20 27.84191
946.30 27.9687
946.40 28.25242
946.50 28.58185
946.60 28.81664
946.70 28.68803
946.80 28.6546
946.90 28.66975
947.00 28.7304
947.10 28.79079
947.20 28.83333
947.30 28.8875
947.40 28.90216
947.50 28.94019
947.60 28.96771
947.70 29.00378
947.80 29.08021
947.90 29.28269
948.00 29.50929
948.10 29.65335
948.20 29.69447
948.30 29.66891
948.40 29.59677
948.50 29.53261
948.60 29.6246
948.70 29.74315
948.80 29.82772
948.90 29.78421
949.00 29.85565
949.10 29.99906
949.20 30.15218
949.30 30.2102
949.40 30.06205
949.50 29.84527
949.60 29.59196
949.70 29.29537
949.80 29.22553
949.90 29.27222
950.00 29.46553
950.10 29.62694
950.20 29.79827
950.30 29.87249
950.40 29.88965
950.50 29.62899
950.60 29.43662
950.70 29.28545
950.80 29.24594
950.90 29.28652
951.00 29.39339
951.10 29.54938
951.20 29.66959
951.30 29.6894
951.40 29.61399
951.50 29.50176
951.60 29.36923
951.70 29.36619
951.80 29.35624
951.90 29.36001
952.00 29.40603
952.10 29.50114
952.20 29.57166
952.30 29.66456
952.40 29.90645
952.50 30.18561
952.60 30.4613
952.70 30.70897
952.80 30.79115
952.90 30.78081
953.00 30.79185
953.10 30.84316
953.20 30.85716
953.30 30.73103
953.40 30.55633
953.50 30.37979
953.60 30.26241
953.70 30.14596
953.80 29.93157
953.90 29.71631
954.00 29.65007
954.10 29.82692
954.20 30.06167
954.30 30.2006
954.40 30.25541
954.50 30.26261
954.60 30.07589
954.70 29.72872
954.80 29.46681
954.90 29.43952
955.00 29.57761
955.10 29.8344
955.20 30.10884
955.30 30.36678
955.40 30.51659
955.50 30.61557
955.60 30.74575
955.70 30.85839
955.80 30.95951
955.90 31.05097
956.00 31.16147
956.10 31.25084
956.20 31.28138
956.30 31.20484
956.40 31.06576
956.50 30.77347
956.60 30.61266
956.70 30.6642
956.80 30.85301
956.90 31.08299
957.00 31.10747
957.10 31.01405
957.20 30.90631
957.30 30.9066
957.40 30.75842
957.50 30.52554
957.60 30.22829
957.70 30.02751
957.80 29.86568
957.90 29.84554
958.00 29.91048
958.10 30.20216
958.20 30.44832
958.30 30.64756
958.40 30.71231
958.50 30.63279
958.60 30.5233
958.70 30.40893
958.80 30.23045
958.90 29.92513
959.00 29.70016
959.10 29.51236
959.20 29.3657
959.30 29.35826
959.40 29.43206
959.50 29.51045
959.60 29.41598
959.70 28.96807
959.80 28.43687
959.90 27.84432
960.00 27.27138
960.10 27.07645
960.20 27.05824
960.30 27.38413
960.40 27.99084
960.50 28.74128
960.60 29.42105
960.70 29.9401
960.80 30.21387
960.90 30.37162
961.00 30.45247
961.10 30.35936
961.20 30.18095
961.30 29.98084
961.40 29.7993
961.50 29.68328
961.60 29.57997
961.70 29.62083
961.80 29.7616
961.90 30.16793
962.00 30.38692
962.10 30.562
962.20 30.68307
962.30 30.70942
962.40 30.59616
962.50 30.59319
962.60 30.69409
962.70 30.96959
962.80 31.05503
962.90 31.08156
963.00 30.98118
963.10 30.83875
963.20 30.63909
963.30 30.49739
963.40 30.35068
963.50 30.12118
963.60 29.52101
963.70 28.72753
963.80 27.48639
963.90 26.39136
964.00 25.52596
964.10 25.16213
964.20 25.51598
964.30 26.48884
964.40 27.52771
964.50 28.48825
964.60 28.84122
964.70 28.73605
964.80 28.50578
964.90 28.18907
965.00 28.11996
965.10 28.15492
965.20 28.34451
965.30 28.60642
965.40 28.94003
965.50 29.29246
965.60 29.633
965.70 29.85472
965.80 29.95961
965.90 30.07867
966.00 30.23357
966.10 30.40783
966.20 30.60773
966.30 30.82325
966.40 31.01859
966.50 31.11039
966.60 31.15259
966.70 31.12914
966.80 30.94823
966.90 30.75321
967.00 30.70133
967.10 30.71894
967.20 30.71656
967.30 30.49242
967.40 29.93781
967.50 29.22753
967.60 28.29766
967.70 27.6965
967.80 27.37942
967.90 27.54433
968.00 28.20276
968.10 29.20878
968.20 29.90201
968.30 30.41718
968.40 30.5083
968.50 30.41399
968.60 30.26626
968.70 30.03653
968.80 29.72004
968.90 29.30665
969.00 28.94752
969.10 28.76153
969.20 28.9765
969.30 29.48114
969.40 30.09606
969.50 30.82241
969.60 31.32127
969.70 31.66781
969.80 31.85402
969.90 31.91952
970.00 31.95331
970.10 31.83738
970.20 31.6714
970.30 31.42738
970.40 30.9136
970.50 30.21041
970.60 29.32898
970.70 28.63089
970.80 28.2682
970.90 28.38743
971.00 28.86855
971.10 29.97435
971.20 30.80411
971.30 31.54083
971.40 32.04314
971.50 32.31832
971.60 32.4722
971.70 32.51114
971.80 32.423
971.90 32.14694
972.00 31.87493
972.10 31.58827
972.20 31.29275
972.30 31.24248
972.40 31.29529
972.50 31.37265
972.60 31.30114
972.70 31.02259
972.80 30.47215
972.90 29.74886
973.00 28.77197
973.10 28.36872
973.20 28.25852
973.30 28.65534
973.40 29.20368
973.50 29.74127
973.60 30.15504
973.70 30.44049
973.80 30.4435
973.90 30.43298
974.00 30.4157
974.10 30.39921
974.20 30.1791
974.30 29.81684
974.40 29.36534
974.50 28.93591
974.60 28.66935
974.70 28.5835
974.80 28.66826
974.90 29.23062
975.00 29.7624
975.10 30.18993
975.20 30.42388
975.30 30.59639
975.40 30.77866
975.50 30.86638
975.60 30.93643
975.70 30.88865
975.80 30.90189
975.90 30.96369
976.00 31.17774
976.10 31.3362
976.20 31.3552
976.30 31.32573
976.40 31.35457
976.50 31.5349
976.60 31.63075
976.70 31.71331
976.80 31.7
976.90 31.34249
977.00 30.83628
977.10 30.29066
977.20 29.89391
977.30 29.723
977.40 29.74704
977.50 29.9801
977.60 30.61985
977.70 31.04328
977.80 31.37123
977.90 31.52817
978.00 31.49646
978.10 31.26145
978.20 30.69756
978.30 29.90041
978.40 28.751
978.50 27.93917
978.60 27.33673
978.70 27.25945
978.80 27.46776
978.90 27.7322
979.00 28.16422
979.10 28.77291
979.20 29.64223
979.30 30.44064
979.40 31.21982
979.50 31.88304
979.60 32.24441
979.70 32.42854
979.80 32.29504
979.90 32.10372
980.00 32.03695
980.10 32.08192
980.20 32.15237
980.30 32.17184
980.40 32.12612
980.50 32.05892
980.60 31.98453
980.70 31.92904
980.80 31.87584
980.90 31.84181
981.00 31.87301
981.10 31.98988
981.20 31.98168
981.30 31.92335
981.40 31.80463
981.50 31.66484
981.60 31.46325
981.70 31.21804
981.80 31.14718
981.90 31.32139
982.00 31.41959
982.10 31.49779
982.20 31.42986
982.30 31.42708
982.40 31.43859
982.50 31.49321
982.60 31.59174
982.70 31.74108
982.80 31.8337
982.90 31.8528
983.00 31.71052
983.10 31.57029
983.20 31.4334
983.30 31.32216
983.40 31.22191
983.50 31.10167
983.60 31.00784
983.70 30.9325
983.80 30.8428
983.90 30.79639
984.00 30.82782
984.10 31.07048
984.20 31.27658
984.30 31.4462
984.40 31.57283
984.50 31.62277
984.60 31.67997
984.70 31.69356
984.80 31.75947
984.90 31.82532
985.00 31.81397
985.10 31.72504
985.20 31.5036
985.30 31.30887
985.40 31.22508
985.50 31.27568
985.60 31.47485
985.70 31.78783
985.80 31.98425
985.90 32.09489
986.00 32.04028
986.10 31.96193
986.20 31.89497
986.30 31.87252
986.40 31.90929
986.50 32.04059
986.60 32.08565
986.70 32.07669
986.80 31.82651
986.90 31.58201
987.00 31.34288
987.10 31.17775
987.20 31.24224
987.30 31.57183
987.40 31.89437
987.50 32.20567
987.60 32.36484
987.70 32.36634
987.80 32.25636
987.90 32.00043
988.00 31.80174
988.10 31.63739
988.20 31.53592
988.30 31.60303
988.40 31.89011
988.50 32.11022
988.60 32.32205
988.70 32.5016
988.80 32.56114
988.90 32.5628
989.00 32.49559
989.10 32.39331
989.20 32.26334
989.30 32.00551
989.40 31.67073
989.50 31.1442
989.60 30.22423
989.70 29.10579
989.80 27.73387
989.90 26.6539
990.00 25.91695
990.10 25.43837
990.20 25.10649
990.30 24.76483
990.40 24.13817
990.50 23.36954
990.60 22.44525
990.70 21.80697
990.80 21.28529
990.90 20.91193
991.00 20.78884
991.10 20.95106
991.20 21.08462
991.30 21.17917
991.40 21.06509
991.50 20.7731
991.60 20.4649
991.70 20.22018
991.80 20.30669
991.90 20.71957
992.00 21.20243
992.10 21.74371
992.20 22.09229
992.30 22.05799
992.40 21.82602
992.50 21.34092
992.60 21.08459
992.70 21.14024
992.80 21.5139
992.90 22.15084
993.00 22.94521
993.10 23.5188
993.20 23.97725
993.30 24.16935
993.40 23.95196
993.50 23.68212
993.60 23.55516
993.70 23.8791
993.80 24.59482
993.90 25.26423
994.00 25.98126
994.10 26.64263
994.20 26.96734
994.30 27.11207
994.40 26.98231
994.50 26.74709
994.60 26.55155
994.70 26.49739
994.80 26.5831
994.90 26.91758
995.00 27.33161
995.10 27.75595
995.20 28.11678
995.30 28.35533
995.40 28.58351
995.50 28.66219
995.60 28.49593
995.70 27.93193
995.80 27.48666
995.90 27.08858
996.00 26.86411
996.10 26.81478
996.20 26.8794
996.30 27.13886
996.40 27.67352
996.50 28.4109
996.60 28.96192
996.70 29.40147
996.80 29.39737
996.90 28.73513
997.00 27.77725
997.10 26.48717
997.20 25.4769
997.30 24.75093
997.40 24.39132
997.50 24.39352
997.60 24.88501
997.70 25.36575
997.80 25.88444
997.90 26.44371
998.00 26.89857
998.10 27.31952
998.20 27.58834
998.30 27.59678
998.40 27.13067
998.50 26.65408
998.60 26.17364
998.70 25.78045
998.80 25.60137
998.90 25.53691
999.00 25.64012
999.10 25.69504
999.20 25.66391
999.30 25.74924
999.40 25.95696
999.50 26.36517
999.60 26.45719
999.70 26.42691
999.80 26.31347
999.90 26.44948
1000.00 26.84688
1000.10 27.3105
1000.20 27.87549
1000.30 28.49896
1000.40 28.91691
1000.50 29.21168
1000.60 29.26167
1000.70 28.97579
1000.80 28.51857
1000.90 27.98069
1001.00 27.40123
1001.10 26.76303
1001.20 26.49834
1001.30 26.45797
1001.40 26.87695
1001.50 27.44235
1001.60 28.04936
1001.70 28.65631
1001.80 29.11012
1001.90 29.3008
1002.00 29.28841
1002.10 29.08924
1002.20 28.70007
1002.30 28.67629
1002.40 28.82174
1002.50 29.15483
1002.60 29.33236
1002.70 29.40953
1002.80 29.44903
1002.90 29.35379
1003.00 28.98745
1003.10 28.69728
1003.20 28.4697
1003.30 28.34518
1003.40 28.07675
1003.50 27.76281
1003.60 27.45504
1003.70 27.21196
1003.80 27.01012
1003.90 27.06889
1004.00 27.31642
1004.10 27.97835
1004.20 28.65133
1004.30 29.32889
1004.40 29.93603
1004.50 30.31555
1004.60 30.37219
1004.70 30.19209
1004.80 29.85228
1004.90 29.28427
1005.00 28.52065
1005.10 27.64787
1005.20 26.65854
1005.30 25.81721
1005.40 25.10676
1005.50 24.62009
1005.60 24.38746
1005.70 24.49914
1005.80 24.74255
1005.90 25.09829
1006.00 25.62837
1006.10 26.05334
1006.20 26.34245
1006.30 26.52013
1006.40 26.55923
1006.50 26.58466
1006.60 26.86974
1006.70 27.31655
1006.80 28.04831
1006.90 28.55802
1007.00 28.95377
1007.10 29.1961
1007.20 29.111
1007.30 28.79714
1007.40 28.62053
1007.50 28.62412
1007.60 28.9832
1007.70 29.35177
1007.80 29.73622
1007.90 30.1249
1008.00 30.29161
1008.10 30.33572
1008.20 30.34191
1008.30 30.38577
1008.40 30.3969
1008.50 30.4954
1008.60 30.63877
1008.70 30.85649
1008.80 30.66412
1008.90 30.24988
1009.00 29.74335
1009.10 29.27997
1009.20 28.89622
1009.30 28.74379
1009.40 28.76752
1009.50 29.14499
1009.60 29.60902
1009.70 30.09443
1009.80 30.58731
1009.90 31.10914
1010.00 31.64715
1010.10 32.12105
1010.20 32.55609
1010.30 32.96633
1010.40 33.08457
1010.50 33.027
1010.60 32.7008
1010.70 32.32761
1010.80 31.92689
1010.90 31.43396
1011.00 30.89246
1011.10 30.25747
1011.20 29.75243
1011.30 29.29882
1011.40 28.95621
1011.50 28.74346
1011.60 28.55914
1011.70 28.43143
1011.80 28.30973
1011.90 28.21166
1012.00 28.43292
1012.10 28.87641
1012.20 29.82531
1012.30 30.54994
1012.40 31.15556
1012.50 31.5539
1012.60 31.70757
1012.70 31.54353
1012.80 31.50632
1012.90 31.48073
1013.00 31.65304
1013.10 31.71377
1013.20 31.71327
1013.30 31.5059
1013.40 30.861
1013.50 29.94076
1013.60 29.08629
1013.70 28.27284
1013.80 27.58918
1013.90 27.28637
1014.00 27.24204
1014.10 27.61753
1014.20 28.16825
1014.30 28.80385
1014.40 29.3545
1014.50 29.62117
1014.60 29.48058
1014.70 29.2701
1014.80 28.98261
1014.90 28.58833
1015.00 28.78889
1015.10 29.30483
1015.20 30.10385
1015.30 30.72791
1015.40 30.9561
1015.50 30.89133
1015.60 30.54354
1015.70 29.65466
1015.80 29.05677
1015.90 28.59672
1016.00 28.39016
1016.10 28.44146
1016.20 28.70963
1016.30 29.02531
1016.40 29.29245
1016.50 29.36156
1016.60 29.58229
1016.70 29.88038
1016.80 30.2805
1016.90 30.21271
1017.00 29.93085
1017.10 29.63267
1017.20 29.40053
1017.30 29.30049
1017.40 29.572
1017.50 30.12327
1017.60 31.13172
1017.70 31.44787
1017.80 31.45385
1017.90 31.16799
1018.00 30.70899
1018.10 30.15865
1018.20 29.56955
1018.30 29.08073
1018.40 28.84109
1018.50 28.5959
1018.60 28.35256
1018.70 28.16126
1018.80 28.29869
1018.90 28.73659
1019.00 29.24033
1019.10 29.82351
1019.20 30.31302
1019.30 30.51445
1019.40 30.54641
1019.50 30.43217
1019.60 30.40701
1019.70 30.4536
1019.80 30.45691
1019.90 30.38155
1020.00 30.21311
1020.10 30.09373
1020.20 30.0035
1020.30 29.992
1020.40 30.1281
1020.50 30.2943
1020.60 30.50791
1020.70 30.76478
1020.80 30.97408
1020.90 31.04556
1021.00 30.99641
1021.10 30.85962
1021.20 30.6366
1021.30 30.27962
1021.40 29.77197
1021.50 29.28393
1021.60 28.89273
1021.70 28.50137
1021.80 28.12599
1021.90 27.79372
1022.00 27.55526
1022.10 27.39071
1022.20 27.32739
1022.30 27.71453
1022.40 28.40858
1022.50 29.12056
1022.60 29.7332
1022.70 30.02319
1022.80 30.15571
1022.90 30.16413
1023.00 30.06651
1023.10 29.842
1023.20 29.54359
1023.30 29.28537
1023.40 29.19807
1023.50 29.46644
1023.60 29.80167
1023.70 30.20654
1023.80 30.65284
1023.90 31.04451
1024.00 31.35818
1024.10 31.50779
1024.20 31.64104
1024.30 31.85809
1024.40 31.9522
1024.50 31.8655
1024.60 31.27712
1024.70 30.84134
1024.80 30.49998
1024.90 30.30758
1025.00 30.08017
1025.10 29.75544
1025.20 29.40894
1025.30 29.02299
1025.40 28.68475
1025.50 28.64377
1025.60 28.77726
1025.70 29.19886
1025.80 29.20745
1025.90 28.8666
1026.00 28.30111
1026.10 27.62478
1026.20 26.9799
1026.30 26.57661
1026.40 26.3742
1026.50 26.55946
1026.60 27.2297
1026.70 28.08691
1026.80 29.05264
1026.90 29.87153
1027.00 30.39482
1027.10 30.69866
1027.20 30.71003
1027.30 30.38092
1027.40 29.97914
1027.50 29.53308
1027.60 29.12713
1027.70 28.95073
1027.80 28.93903
1027.90 28.84505
1028.00 28.72658
1028.10 28.43639
1028.20 28.02851
1028.30 27.55407
1028.40 27.09194
1028.50 27.11592
1028.60 27.51079
1028.70 28.04665
1028.80 28.77904
1028.90 29.68698
1029.00 30.26052
1029.10 30.49291
1029.20 30.21306
1029.30 29.92845
1029.40 29.69214
1029.50 29.46193
1029.60 29.38908
1029.70 29.49657
1029.80 29.61691
1029.90 29.65642
1030.00 29.5082
1030.10 29.32786
1030.20 29.15752
1030.30 29.03656
1030.40 29.14855
1030.50 29.56731
1030.60 30.01193
1030.70 30.50236
1030.80 30.76028
1030.90 30.69367
1031.00 30.50077
1031.10 30.18853
1031.20 30.16516
1031.30 30.38954
1031.40 30.58981
1031.50 30.72643
1031.60 30.69432
1031.70 30.44972
1031.80 30.08334
1031.90 29.55146
1032.00 29.32375
1032.10 29.29085
1032.20 29.30423
1032.30 29.21346
1032.40 28.91022
1032.50 28.82391
1032.60 28.83134
1032.70 29.05116
1032.80 29.62085
1032.90 30.30744
1033.00 31.12099
1033.10 31.8421
1033.20 32.37015
1033.30 32.59877
1033.40 32.50003
1033.50 31.97846
1033.60 31.30598
1033.70 30.50121
1033.80 29.59146
1033.90 28.95211
1034.00 28.63416
1034.10 28.32663
1034.20 28.08966
1034.30 27.91287
1034.40 27.63004
1034.50 27.28994
1034.60 26.95435
1034.70 27.22858
1034.80 27.80617
1034.90 28.39126
1035.00 28.83982
1035.10 28.91401
1035.20 29.01918
1035.30 29.09169
1035.40 29.20219
1035.50 29.40515
1035.60 29.61821
1035.70 29.89236
1035.80 30.25132
1035.90 30.66511
1036.00 31.01407
1036.10 31.36928
1036.20 31.84126
1036.30 32.11793
1036.40 32.24745
1036.50 32.22678
1036.60 32.18126
1036.70 32.15569
1036.80 32.20931
1036.90 32.32678
1037.00 32.58019
1037.10 32.93069
1037.20 33.30257
1037.30 33.64941
1037.40 33.74693
1037.50 33.65822
1037.60 33.38516
1037.70 32.88291
1037.80 32.017
1037.90 31.14077
1038.00 30.259
1038.10 29.46196
1038.20 29.14609
1038.30 29.18934
1038.40 29.44077
1038.50 29.96982
1038.60 30.72173
1038.70 31.15518
1038.80 31.38893
1038.90 31.38204
1039.00 31.25554
1039.10 31.07949
1039.20 30.84821
1039.30 30.61702
1039.40 30.39059
1039.50 30.10626
1039.60 29.7728
1039.70 29.37465
1039.80 29.27078
1039.90 29.32243
1040.00 29.60036
1040.10 30.15966
1040.20 30.85528
1040.30 31.41167
1040.40 31.86411
1040.50 32.18034
1040.60 32.46461
1040.70 32.68715
1040.80 32.80772
1040.90 32.71194
1041.00 32.51179
1041.10 32.25551
1041.20 31.77511
1041.30 31.02045
1041.40 30.5954
1041.50 30.33287
1041.60 30.34533
1041.70 30.91539
1041.80 31.74315
1041.90 32.54374
1042.00 33.0539
1042.10 33.16095
1042.20 33.0798
1042.30 32.77392
1042.40 32.13629
1042.50 31.37971
1042.60 30.56961
1042.70 29.80808
1042.80 29.18941
1042.90 28.81542
1043.00 28.75216
1043.10 29.09173
1043.20 30.05935
1043.30 31.07072
1043.40 32.03071
1043.50 32.84014
1043.60 33.15718
1043.70 33.12273
1043.80 33.09299
1043.90 33.01739
1044.00 33.0005
1044.10 32.99321
1044.20 33.0014
1044.30 33.0272
1044.40 33.06642
1044.50 33.0502
1044.60 32.96111
1044.70 32.80167
1044.80 32.78263
1044.90 33.05159
1045.00 33.49674
1045.10 34.03057
1045.20 34.55184
1045.30 35.00618
1045.40 35.35872
1045.50 35.48263
1045.60 35.51362
1045.70 35.37168
1045.80 35.05777
1045.90 34.4549
1046.00 33.8112
1046.10 33.17211
1046.20 32.64331
1046.30 32.34732
1046.40 32.21623
1046.50 31.96175
1046.60 31.69634
1046.70 31.32961
1046.80 30.85652
1046.90 30.38101
1047.00 30.00455
1047.10 29.90152
1047.20 29.99008
1047.30 30.09903
1047.40 30.29507
1047.50 30.55691
1047.60 30.71929
1047.70 30.84055
1047.80 30.95511
1047.90 30.94991
1048.00 30.89651
1048.10 30.93475
1048.20 31.17536
1048.30 31.65235
1048.40 31.99462
1048.50 32.31629
1048.60 32.62101
1048.70 32.71687
1048.80 32.73485
1048.90 32.75326
1049.00 32.86735
1049.10 32.98313
1049.20 33.03075
1049.30 33.07315
1049.40 33.09864
1049.50 32.72254
1049.60 32.09939
1049.70 31.35973
1049.80 30.76758
1049.90 30.54827
1050.00 30.59321
1050.10 30.91347
1050.20 31.57616
1050.30 32.01979
1050.40 32.30097
1050.50 32.37853
1050.60 32.28901
1050.70 32.16479
1050.80 32.06096
1050.90 31.98411
1051.00 31.99153
1051.10 31.78384
1051.20 31.39872
1051.30 30.79683
1051.40 30.34489
1051.50 30.04363
1051.60 29.82708
1051.70 29.79351
1051.80 30.00015
1051.90 30.16895
1052.00 30.27424
1052.10 30.26449
1052.20 30.37255
1052.30 30.52935
1052.40 30.71739
1052.50 31.05376
1052.60 31.63029
1052.70 32.13571
1052.80 32.57923
1052.90 32.92736
1053.00 33.00939
1053.10 32.8956
1053.20 32.61963
1053.30 32.47975
1053.40 32.55238
1053.50 32.58179
1053.60 32.65985
1053.70 32.72197
1053.80 32.63205
1053.90 32.42818
1054.00 32.18697
1054.10 32.15974
1054.20 32.36185
1054.30 32.45155
1054.40 32.50098
1054.50 32.40757
1054.60 32.23318
1054.70 31.91985
1054.80 31.45354
1054.90 31.2888
1055.00 31.3874
1055.10 31.55629
1055.20 31.88168
1055.30 32.30638
1055.40 32.46643
1055.50 32.38935
1055.60 32.07458
1055.70 31.63511
1055.80 31.1538
1055.90 30.63412
1056.00 30.19578
1056.10 29.84169
1056.20 29.62841
1056.30 29.55944
1056.40 29.68842
1056.50 29.89306
1056.60 30.15655
1056.70 30.44214
1056.80 30.63375
1056.90 30.68437
1057.00 30.74086
1057.10 30.78832
1057.20 30.86529
1057.30 31.0237
1057.40 31.23918
1057.50 31.53057
1057.60 31.79447
1057.70 31.95768
1057.80 32.0731
1057.90 32.11999
1058.00 32.112
1058.10 32.15525
1058.20 32.22436
1058.30 32.29195
1058.40 32.00974
1058.50 31.50485
1058.60 30.96487
1058.70 30.46321
1058.80 30.1658
1058.90 30.08274
1059.00 30.14891
1059.10 30.3506
1059.20 30.52393
1059.30 30.69622
1059.40 30.84377
1059.50 31.07752
1059.60 31.43275
1059.70 31.72372
1059.80 31.90857
1059.90 31.83838
1060.00 31.64161
1060.10 31.41905
1060.20 31.17216
1060.30 30.97107
1060.40 30.77371
1060.50 30.57813
1060.60 30.34514
1060.70 30.08836
1060.80 29.943
1060.90 29.84537
1061.00 29.80273
1061.10 29.96476
1061.20 30.33007
1061.30 30.75041
1061.40 31.21188
1061.50 31.59267
1061.60 31.71245
1061.70 31.69875
1061.80 31.55825
1061.90 31.27642
1062.00 31.00837
1062.10 30.88934
1062.20 30.90643
1062.30 30.94593
1062.40 30.98428
1062.50 31.12705
1062.60 31.45562
1062.70 31.96838
1062.80 32.50056
1062.90 32.96467
1063.00 33.18909
1063.10 33.14732
1063.20 33.07826
1063.30 32.88666
1063.40 32.56754
1063.50 32.37463
1063.60 32.30376
1063.70 32.36029
1063.80 32.5374
1063.90 32.83283
1064.00 33.11654
1064.10 33.38262
1064.20 33.55697
1064.30 33.60127
1064.40 33.57801
1064.50 33.49076
1064.60 33.43311
1064.70 33.39104
1064.80 33.33349
1064.90 33.28097
1065.00 33.29854
1065.10 33.20361
1065.20 33.02497
1065.30 32.78002
1065.40 32.4278
1065.50 32.00007
1065.60 31.57822
1065.70 31.31864
1065.80 31.27681
1065.90 31.20736
1066.00 31.14466
1066.10 31.12317
1066.20 30.75579
1066.30 30.21254
1066.40 29.75995
1066.50 29.55538
1066.60 29.69912
1066.70 29.83148
1066.80 30.00637
1066.90 30.17321
1067.00 30.21568
1067.10 30.24112
1067.20 30.30543
1067.30 30.61799
1067.40 31.19228
1067.50 31.64297
1067.60 32.04896
1067.70 32.39568
1067.80 32.64999
1067.90 32.8417
1068.00 33.00171
1068.10 33.22112
1068.20 33.41412
1068.30 33.436
1068.40 33.47791
1068.50 33.58668
1068.60 33.66881
1068.70 33.69337
1068.80 33.71897
1068.90 33.65173
1069.00 33.54129
1069.10 33.44786
1069.20 33.43861
1069.30 33.48269
1069.40 33.30221
1069.50 33.00366
1069.60 32.65102
1069.70 32.51066
1069.80 32.47865
1069.90 32.39834
1070.00 32.40737
1070.10 32.48102
1070.20 32.43713
1070.30 32.30139
1070.40 32.03068
1070.50 32.0337
1070.60 32.17876
1070.70 32.33349
1070.80 32.41642
1070.90 32.40712
1071.00 32.48022
1071.10 32.45911
1071.20 32.32984
1071.30 32.50015
1071.40 32.8501
1071.50 33.28479
1071.60 33.54012
1071.70 33.52152
1071.80 33.5469
1071.90 33.51602
1072.00 33.4841
1072.10 33.43304
1072.20 33.37317
1072.30 33.30238
1072.40 33.00629
1072.50 32.5381
1072.60 32.10235
1072.70 31.80934
1072.80 31.86757
1072.90 31.99118
1073.00 32.18365
1073.10 32.43655
1073.20 32.42549
1073.30 32.23827
1073.40 32.13803
1073.50 32.05205
1073.60 32.07185
1073.70 32.19533
1073.80 32.45724
1073.90 32.82576
1074.00 33.22846
1074.10 33.63786
1074.20 33.95641
1074.30 34.07962
1074.40 33.98453
1074.50 33.8868
1074.60 33.73504
1074.70 33.60802
1074.80 33.42636
1074.90 33.24654
1075.00 33.17692
1075.10 33.17401
1075.20 32.98081
1075.30 32.81539
1075.40 32.67234
1075.50 32.50239
1075.60 32.55055
1075.70 32.78238
1075.80 33.13832
1075.90 33.46601
1076.00 33.67241
1076.10 33.84065
1076.20 33.83077
1076.30 33.71829
1076.40 33.69493
1076.50 33.70938
1076.60 33.77879
1076.70 33.90975
1076.80 34.03583
1076.90 34.05963
1077.00 34.04538
1077.10 34.02159
1077.20 33.96384
1077.30 33.84399
1077.40 33.68306
1077.50 33.43747
1077.60 33.07893
1077.70 32.74207
1077.80 32.5736
1077.90 32.75976
1078.00 32.97128
1078.10 33.22024
1078.20 33.47376
1078.30 33.57915
1078.40 33.62257
1078.50 33.55191
1078.60 33.45006
1078.70 33.29139
1078.80 33.18453
1078.90 33.0041
1079.00 32.69119
1079.10 32.37796
1079.20 32.11165
1079.30 31.89145
1079.40 31.68807
1079.50 31.63137
1079.60 31.68326
1079.70 31.93917
1079.80 32.26764
1079.90 32.49546
1080.00 32.69768
1080.10 32.90544
1080.20 33.09361
1080.30 33.22028
1080.40 33.2944
1080.50 33.3317
1080.60 33.48646
1080.70 33.68706
1080.80 33.87345
1080.90 34.00042
1081.00 34.05513
1081.10 34.08167
1081.20 34.08168
1081.30 34.05677
1081.40 34.02408
1081.50 34.08958
1081.60 34.22213
1081.70 34.41556
1081.80 34.46494
1081.90 34.43313
1082.00 34.39269
1082.10 34.20144
1082.20 33.85475
1082.30 33.55762
1082.40 33.2845
1082.50 33.0667
1082.60 33.0404
1082.70 33.05631
1082.80 33.09127
1082.90 33.18705
1083.00 33.34289
1083.10 33.52055
1083.20 33.74046
1083.30 34.00869
1083.40 33.92512
1083.50 33.76146
1083.60 33.61621
1083.70 33.52484
1083.80 33.39121
1083.90 33.39255
1084.00 33.55841
1084.10 33.75545
1084.20 33.81025
1084.30 33.8254
1084.40 33.80059
1084.50 33.57035
1084.60 33.2019
1084.70 32.94351
1084.80 32.77665
1084.90 32.85559
1085.00 33.0495
1085.10 33.35218
1085.20 33.73054
1085.30 33.69938
1085.40 33.4429
1085.50 33.28589
1085.60 33.36717
1085.70 33.72129
1085.80 34.01255
1085.90 34.32623
1086.00 34.61971
1086.10 34.79532
1086.20 34.94935
1086.30 35.10386
1086.40 35.14724
1086.50 34.99132
1086.60 34.85653
1086.70 34.66366
1086.80 34.41591
1086.90 34.33607
1087.00 34.43984
1087.10 34.64491
1087.20 34.82255
1087.30 34.817
1087.40 34.72029
1087.50 34.4437
1087.60 33.92714
1087.70 33.73747
1087.80 33.76901
1087.90 33.96276
1088.00 34.07255
1088.10 34.01094
1088.20 33.99898
1088.30 33.92879
1088.40 33.80635
1088.50 33.8031
1088.60 33.91277
1088.70 34.18221
1088.80 34.27096
1088.90 34.1416
1089.00 34.02667
1089.10 34.00267
1089.20 34.06834
1089.30 33.94656
1089.40 33.76808
1089.50 33.61038
1089.60 33.70118
1089.70 33.90508
1089.80 34.12336
1089.90 34.42839
1090.00 34.81287
1090.10 35.06142
1090.20 35.17985
1090.30 35.1664
1090.40 35.20871
1090.50 35.20248
1090.60 35.10354
1090.70 34.82904
1090.80 34.50133
1090.90 34.27216
1091.00 34.03699
1091.10 33.68896
1091.20 33.55154
1091.30 33.61766
1091.40 33.82177
1091.50 34.21616
1091.60 34.74738
1091.70 35.12598
1091.80 35.36506
1091.90 35.45226
1092.00 35.4292
1092.10 35.29241
1092.20 35.08594
1092.30 34.95634
1092.40 34.97048
1092.50 35.00244
1092.60 35.02354
1092.70 34.92428
1092.80 34.83447
1092.90 34.757
1093.00 34.72375
1093.10 34.67017
1093.20 34.60583
1093.30 34.52757
1093.40 34.44986
1093.50 34.35031
1093.60 34.16664
1093.70 33.95721
1093.80 33.7585
1093.90 33.96194
1094.00 34.36948
1094.10 34.77806
1094.20 35.09505
1094.30 35.17848
1094.40 34.99853
1094.50 34.58536
1094.60 33.9626
1094.70 33.7965
1094.80 33.78937
1094.90 33.82227
1095.00 34.05031
1095.10 34.44342
1095.20 34.89895
1095.30 35.36248
1095.40 35.8345
1095.50 35.90557
1095.60 35.79322
1095.70 35.6424
1095.80 35.54038
1095.90 35.44535
1096.00 35.32732
1096.10 35.31934
1096.20 35.39216
1096.30 35.42007
1096.40 35.43165
1096.50 35.45094
1096.60 35.33713
1096.70 35.10362
1096.80 34.7596
1096.90 34.27203
1097.00 33.63967
1097.10 33.27941
1097.20 33.05394
1097.30 32.89192
1097.40 33.01718
1097.50 33.31363
1097.60 33.68786
1097.70 34.02009
1097.80 34.28884
1097.90 34.45798
1098.00 34.6007
1098.10 34.81183
1098.20 34.92002
1098.30 34.81596
1098.40 34.54933
1098.50 34.20243
1098.60 33.95983
1098.70 33.83509
1098.80 33.78841
1098.90 33.78711
1099.00 33.88923
1099.10 34.01501
1099.20 34.18479
1099.30 34.46415
1099.40 34.8723
1099.50 35.09137
1099.60 35.14979
1099.70 34.98307
1099.80 34.83799
1099.90 34.71203
1100.00 34.63574
1100.10 34.57403
1100.20 34.46459
1100.30 34.32048
1100.40 34.1177
1100.50 33.84635
1100.60 33.7609
1100.70 33.83428
1100.80 34.01727
1100.90 34.24768
1101.00 34.42355
1101.10 34.55378
1101.20 34.60194
1101.30 34.63933
1101.40 34.79082
1101.50 34.98608
1101.60 35.22884
1101.70 35.13581
1101.80 34.8474
1101.90 34.40778
1102.00 33.814
1102.10 33.3094
1102.20 32.86972
1102.30 32.46217
1102.40 31.99588
1102.50 32.23766
1102.60 32.80076
1102.70 33.38646
1102.80 33.95498
1102.90 34.37674
1103.00 34.51837
1103.10 34.37421
1103.20 34.13936
1103.30 33.6322
1103.40 32.97065
1103.50 32.31876
1103.60 31.95977
1103.70 31.91682
1103.80 32.03645
1103.90 32.4026
1104.00 32.84332
1104.10 32.93121
1104.20 32.99351
1104.30 33.17353
1104.40 33.36806
1104.50 33.45233
1104.60 33.49366
1104.70 33.59842
1104.80 33.62232
1104.90 33.44485
1105.00 33.27107
1105.10 33.25222
1105.20 32.9982
1105.30 32.46093
1105.40 31.95256
1105.50 31.57884
1105.60 31.43081
1105.70 31.48294
1105.80 31.69475
1105.90 32.05717
1106.00 32.28655
1106.10 32.37845
1106.20 32.45231
1106.30 32.45806
1106.40 32.46281
1106.50 32.51231
1106.60 32.56726
1106.70 32.60572
1106.80 32.31077
1106.90 31.91711
1107.00 31.60506
1107.10 31.49088
1107.20 31.54921
1107.30 31.63825
1107.40 31.8947
1107.50 32.36385
1107.60 32.47289
1107.70 32.4076
1107.80 32.28251
1107.90 32.32777
1108.00 32.50007
1108.10 32.73878
1108.20 33.0373
1108.30 33.40576
1108.40 33.61044
1108.50 33.77691
1108.60 33.94101
1108.70 34.03096
1108.80 33.92852
1108.90 33.86272
1109.00 33.77665
1109.10 33.61632
1109.20 33.5272
1109.30 33.58669
1109.40 33.8045
1109.50 34.06313
1109.60 34.28142
1109.70 34.4233
1109.80 34.50875
1109.90 34.46642
1110.00 34.31731
1110.10 34.0371
1110.20 33.597
1110.30 33.04329
1110.40 32.50582
1110.50 32.08482
1110.60 31.84679
1110.70 32.00502
1110.80 32.13489
1110.90 32.28344
1111.00 32.40267
1111.10 32.29431
1111.20 32.1292
1111.30 31.93512
1111.40 31.78867
1111.50 31.81093
1111.60 31.89007
1111.70 32.02
1111.80 32.14697
1111.90 32.17658
1112.00 32.11082
1112.10 32.03206
1112.20 31.99311
1112.30 31.99339
1112.40 32.09059
1112.50 32.30739
1112.60 32.63521
1112.70 32.90888
1112.80 33.2287
1112.90 33.58858
1113.00 33.86422
1113.10 33.97593
1113.20 34.10437
1113.30 34.17012
1113.40 34.18955
1113.50 34.0873
1113.60 33.80519
1113.70 33.34906
1113.80 32.88574
1113.90 32.71788
1114.00 32.62145
1114.10 32.68549
1114.20 32.91726
1114.30 33.31661
1114.40 33.80994
1114.50 34.36773
1114.60 34.70601
1114.70 34.70289
1114.80 34.6643
1114.90 34.53599
1115.00 34.25308
1115.10 33.99807
1115.20 33.93586
1115.30 34.16606
1115.40 34.21494
1115.50 34.11818
1115.60 33.97954
1115.70 33.7695
1115.80 33.58806
1115.90 33.63814
1116.00 33.75004
1116.10 33.80406
1116.20 33.86774
1116.30 33.97249
1116.40 34.02898
1116.50 33.96039
1116.60 33.89845
1116.70 33.79371
1116.80 33.64336
1116.90 33.3483
1117.00 33.03288
1117.10 32.70159
1117.20 32.39655
1117.30 32.10099
1117.40 31.90187
1117.50 31.72969
1117.60 31.59678
1117.70 31.66924
1117.80 31.87682
1117.90 32.18411
1118.00 32.55861
1118.10 32.92424
1118.20 33.27866
1118.30 33.54262
1118.40 33.78857
1118.50 34.03214
1118.60 34.37738
1118.70 34.56761
1118.80 34.38223
1118.90 34.17198
1119.00 33.90166
1119.10 33.6434
1119.20 33.39927
1119.30 33.13342
1119.40 32.95681
1119.50 32.86848
1119.60 32.89663
1119.70 32.9666
1119.80 33.09276
1119.90 33.21642
1120.00 33.31055
1120.10 33.36203
1120.20 33.35363
1120.30 33.24618
1120.40 33.17442
1120.50 33.30046
1120.60 33.65312
1120.70 33.92342
1120.80 34.07006
1120.90 33.96428
1121.00 33.89343
1121.10 33.81713
1121.20 33.75248
1121.30 33.58238
1121.40 33.4627
1121.50 33.3725
1121.60 33.42523
1121.70 33.4469
1121.80 33.40561
1121.90 33.29277
1122.00 33.21975
1122.10 33.29309
1122.20 33.36652
1122.30 33.36334
1122.40 33.38486
1122.50 33.6088
1122.60 33.68796
1122.70 33.84952
1122.80 33.98896
1122.90 34.24935
1123.00 34.40397
1123.10 34.36878
1123.20 34.20278
1123.30 34.11641
1123.40 33.88652
1123.50 33.5234
1123.60 32.92068
1123.70 32.80786
1123.80 32.97197
1123.90 33.31008
1124.00 33.56226
1124.10 33.77371
1124.20 33.99359
1124.30 34.19886
1124.40 34.37492
1124.50 34.47204
1124.60 34.52116
1124.70 34.47495
1124.80 34.24528
1124.90 34.20343
1125.00 34.01133
1125.10 33.70245
1125.20 32.96974
1125.30 32.39304
1125.40 32.16827
1125.50 32.49855
1125.60 32.93126
1125.70 33.4097
1125.80 33.60485
1125.90 33.88013
1126.00 34.0404
1126.10 34.06279
1126.20 33.99996
1126.30 33.96866
1126.40 33.98824
1126.50 34.01703
1126.60 34.0831
1126.70 34.17719
1126.80 34.34943
1126.90 34.51837
1127.00 34.65529
1127.10 34.71536
1127.20 34.71084
1127.30 34.61429
1127.40 34.54972
1127.50 34.52439
1127.60 34.51122
1127.70 34.40902
1127.80 34.18026
1127.90 34.06682
1128.00 34.01019
1128.10 34.05169
1128.20 34.08244
1128.30 34.10699
1128.40 34.23103
1128.50 34.34591
1128.60 34.48001
1128.70 34.48717
1128.80 34.52992
1128.90 34.48387
1129.00 34.43048
1129.10 34.38625
1129.20 34.30375
1129.30 34.26655
1129.40 34.28699
1129.50 34.36828
1129.60 34.54669
1129.70 34.69675
1129.80 34.79933
1129.90 34.88979
1130.00 34.83947
1130.10 34.93564
1130.20 34.65195
1130.30 34.28368
1130.40 33.87473
1130.50 33.53175
1130.60 33.24065
1130.70 32.99387
1130.80 32.85783
1130.90 32.87886
1131.00 33.02648
1131.10 33.10624
1131.20 33.2167
1131.30 33.39786
1131.40 33.60764
1131.50 33.75431
1131.60 33.88423
1131.70 34.01133
1131.80 34.08745
1131.90 34.12397
1132.00 34.10781
1132.10 34.09125
1132.20 34.04673
1132.30 33.99659
1132.40 33.93619
1132.50 33.91101
1132.60 33.84529
1132.70 33.79887
1132.80 33.76122
1132.90 33.74211
1133.00 33.75218
1133.10 33.69832
1133.20 33.60545
1133.30 33.49515
1133.40 33.4149
1133.50 33.35534
1133.60 33.19066
1133.70 33.06074
1133.80 32.92717
1133.90 32.73267
1134.00 32.51253
1134.10 32.27845
1134.20 32.11799
1134.30 31.86848
1134.40 31.60811
1134.50 31.43937
1134.60 31.42627
1134.70 31.5674
1134.80 31.87086
1134.90 32.62326
1135.00 33.35935
1135.10 33.82252
1135.20 33.67416
1135.30 33.49016
1135.40 33.20302
1135.50 32.88525
1135.60 32.66291
1135.70 32.52322
1135.80 32.46317
1135.90 32.30759
1136.00 32.08166
1136.10 31.97467
1136.20 32.15534
1136.30 32.40218
1136.40 32.42687
1136.50 32.20882
1136.60 32.03315
1136.70 31.81983
1136.80 31.55979
1136.90 31.23948
1137.00 30.95199
1137.10 30.71163
1137.20 30.57896
1137.30 30.38039
1137.40 30.10406
1137.50 29.70286
1137.60 29.19263
1137.70 28.38168
1137.80 27.38924
1137.90 26.62705
1138.00 25.40603
1138.10 24.03307
1138.20 22.53368
1138.30 21.76228
1138.40 21.5225
1138.50 21.61488
1138.60 21.91979
1138.70 23.0406
1138.80 24.62514
1138.90 26.05364
1139.00 26.92005
1139.10 27.59313
1139.20 28.39273
1139.30 28.6813
1139.40 28.71353
1139.50 28.68738
1139.60 28.52647
1139.70 28.24521
1139.80 27.77236
1139.90 27.11835
1140.00 26.17912
1140.10 25.00369
1140.20 23.93967
1140.30 22.45319
1140.40 20.8709
1140.50 19.2178
1140.60 18.65546
1140.70 18.70318
1140.80 18.83041
1140.90 19.77636
1141.00 21.27332
1141.10 23.18372
1141.20 24.84529
1141.30 26.15901
1141.40 27.27281
1141.50 28.31375
1141.60 29.03459
1141.70 29.54553
1141.80 30.22029
1141.90 30.64107
1142.00 30.99108
1142.10 31.31024
1142.20 31.5486
1142.30 31.69975
1142.40 31.6788
1142.50 31.72468
1142.60 31.83059
1142.70 32.02866
1142.80 32.18185
1142.90 32.30533
1143.00 32.38546
1143.10 32.542
1143.20 32.62565
1143.30 32.69101
1143.40 32.71009
1143.50 32.71159
1143.60 32.71496
1143.70 32.78015
1143.80 32.7767
1143.90 32.63484
1144.00 32.48558
1144.10 32.29428
1144.20 32.3047
1144.30 32.31411
1144.40 32.36937
1144.50 32.43158
1144.60 32.43974
1144.70 32.43898
1144.80 32.47498
1144.90 32.5549
1145.00 32.71283
1145.10 32.82928
1145.20 32.91988
1145.30 32.93496
1145.40 33.00034
1145.50 33.04632
1145.60 33.06178
1145.70 33.05544
1145.80 33.06411
1145.90 33.14958
1146.00 33.28862
1146.10 33.45599
1146.20 33.6349
1146.30 33.73982
1146.40 33.86178
1146.50 33.98919
1146.60 34.18442
1146.70 34.30307
1146.80 34.26969
1146.90 34.1662
1147.00 34.19553
1147.10 34.14236
1147.20 34.0523
1147.30 33.83
1147.40 33.73398
1147.50 33.71157
1147.60 33.67222
1147.70 33.62637
1147.80 33.58909
1147.90 33.64887
1148.00 33.75807
1148.10 33.81675
1148.20 33.8814
1148.30 33.99995
1148.40 33.93331
1148.50 33.84703
1148.60 33.6871
1148.70 33.71964
1148.80 33.87752
1148.90 34.11687
1149.00 34.29198
1149.10 34.42645
1149.20 34.35237
1149.30 34.4173
1149.40 34.36012
1149.50 34.3594
1149.60 34.2208
1149.70 34.22376
1149.80 34.25371
1149.90 34.29409
1150.00 34.24407
1150.10 34.11504
1150.20 33.96948
1150.30 33.90093
1150.40 33.85007
1150.50 33.91639
1150.60 33.92219
1150.70 34.00264
1150.80 34.14508
1150.90 34.28463
1151.00 34.35756
1151.10 34.35965
1151.20 34.32099
1151.30 34.26849
1151.40 34.18342
1151.50 34.08958
1151.60 34.04894
1151.70 34.02344
1151.80 34.01535
1151.90 33.93089
1152.00 33.8627
1152.10 33.86249
1152.20 33.99538
1152.30 33.94196
1152.40 33.77471
1152.50 33.43929
1152.60 33.20291
1152.70 33.07308
1152.80 33.10987
1152.90 33.10049
1153.00 33.09202
1153.10 33.0866
1153.20 33.15567
1153.30 33.21498
1153.40 33.25054
1153.50 33.24528
1153.60 33.34435
1153.70 33.5057
1153.80 33.67853
1153.90 33.83782
1154.00 34.00083
1154.10 34.16294
1154.20 34.25621
1154.30 34.27033
1154.40 34.09777
1154.50 33.98583
1154.60 33.75369
1154.70 33.48363
1154.80 33.23728
1154.90 33.18569
1155.00 33.23413
1155.10 33.31445
1155.20 33.44619
1155.30 33.59177
1155.40 33.68072
1155.50 33.75654
1155.60 33.82686
1155.70 33.96874
1155.80 34.04133
1155.90 34.04318
1156.00 33.97589
1156.10 34.01412
1156.20 34.06323
1156.30 34.10397
1156.40 34.07634
1156.50 34.0454
1156.60 34.03015
1156.70 34.0578
1156.80 34.04618
1156.90 33.93728
1157.00 33.69182
1157.10 33.51432
1157.20 33.43604
1157.30 33.50886
1157.40 33.5505
1157.50 33.59947
1157.60 33.61743
1157.70 33.6015
1157.80 33.60145
1157.90 33.61591
1158.00 33.64913
1158.10 33.66962
1158.20 33.68769
1158.30 33.7271
1158.40 33.7972
1158.50 33.83468
1158.60 33.77258
1158.70 33.70102
1158.80 33.56699
1158.90 33.4165
1159.00 33.25348
1159.10 32.9523
1159.20 32.59293
1159.30 32.22796
1159.40 31.93552
1159.50 31.67734
1159.60 31.47614
1159.70 31.30081
1159.80 31.40072
1159.90 31.72831
1160.00 31.98646
1160.10 32.27326
1160.20 32.54911
1160.30 32.81479
1160.40 32.91888
1160.50 32.92715
1160.60 32.87565
1160.70 32.62993
1160.80 32.17582
1160.90 31.56338
1161.00 31.16547
1161.10 31.1536
1161.20 31.4648
1161.30 31.60636
1161.40 32.08556
1161.50 32.68194
1161.60 33.37582
1161.70 33.74882
1161.80 33.85029
1161.90 33.74147
1162.00 33.61056
1162.10 33.41581
1162.20 33.31272
1162.30 33.21411
1162.40 33.21352
1162.50 33.32531
1162.60 33.38246
1162.70 33.49561
1162.80 33.59737
1162.90 33.67873
1163.00 33.73762
1163.10 33.79032
1163.20 33.8638
1163.30 33.8923
1163.40 33.82663
1163.50 33.61896
1163.60 33.41402
1163.70 33.00176
1163.80 32.4423
1163.90 31.89972
1164.00 31.57712
1164.10 31.5006
1164.20 31.38428
1164.30 31.69122
1164.40 32.15405
1164.50 32.74351
1164.60 33.13673
1164.70 33.36769
1164.80 33.41904
1164.90 33.46739
1165.00 33.41809
1165.10 33.25123
1165.20 33.14459
1165.30 32.99119
1165.40 32.80612
1165.50 32.60886
1165.60 32.51082
1165.70 32.49669
1165.80 32.53041
1165.90 32.5656
1166.00 32.6734
1166.10 32.88016
1166.20 33.07552
1166.30 33.24956
1166.40 33.31684
1166.50 33.46873
1166.60 33.567
1166.70 33.58924
1166.80 33.59668
1166.90 33.47644
1167.00 33.30139
1167.10 33.07942
1167.20 32.88672
1167.30 32.72868
1167.40 32.64415
1167.50 32.57387
1167.60 32.51741
1167.70 32.46931
1167.80 32.43636
1167.90 32.45187
1168.00 32.44368
1168.10 32.4371
1168.20 32.30574
1168.30 32.07615
1168.40 31.79431
1168.50 31.36019
1168.60 30.79176
1168.70 30.05324
1168.80 29.09845
1168.90 27.63282
1169.00 25.66221
1169.10 23.97737
1169.20 22.93549
1169.30 22.63519
1169.40 21.963
1169.50 22.66306
1169.60 24.08381
1169.70 25.8854
1169.80 27.34299
1169.90 28.59989
1170.00 29.68369
1170.10 30.64125
1170.20 31.34447
1170.30 31.79032
1170.40 32.31794
1170.50 32.68578
1170.60 32.82822
1170.70 32.97307
1170.80 33.01418
1170.90 32.99922
1171.00 32.97812
1171.10 32.99217
1171.20 33.02098
1171.30 33.0301
1171.40 32.99857
1171.50 32.95974
1171.60 32.95335
1171.70 32.99184
1171.80 32.95689
1171.90 32.8167
1172.00 32.61981
1172.10 32.49032
1172.20 32.43704
1172.30 32.42341
1172.40 32.44351
1172.50 32.4894
1172.60 32.5732
1172.70 32.69562
1172.80 32.85875
1172.90 32.99689
1173.00 33.09844
1173.10 33.155
1173.20 33.14526
1173.30 33.20778
1173.40 33.12939
1173.50 33.00352
1173.60 32.84957
1173.70 32.73594
1173.80 32.69561
1173.90 32.70413
1174.00 32.71171
1174.10 32.773
1174.20 32.90023
1174.30 33.03285
1174.40 33.18964
1174.50 33.2429
1174.60 33.28782
1174.70 33.21012
1174.80 33.09536
1174.90 32.9976
1175.00 32.8521
1175.10 32.64895
1175.20 32.37336
1175.30 32.13897
1175.40 31.94303
1175.50 31.86477
1175.60 31.79136
1175.70 31.80295
1175.80 31.86169
1175.90 31.99319
1176.00 31.9913
1176.10 31.87613
1176.20 31.74028
1176.30 31.57112
1176.40 31.36873
1176.50 31.11797
1176.60 30.59536
1176.70 29.81373
1176.80 28.78587
1176.90 27.6238
1177.00 25.94437
1177.10 23.79047
1177.20 21.75379
1177.30 20.24504
1177.40 19.17876
1177.50 17.92902
1177.60 18.23359
1177.70 19.2602
1177.80 20.87256
1177.90 22.40559
1178.00 24.03954
1178.10 25.74684
1178.20 27.22132
1178.30 28.20583
1178.40 28.78674
1178.50 29.47413
1178.60 30.02825
1178.70 30.44571
1178.80 30.87328
1178.90 31.26757
1179.00 31.58395
1179.10 31.83157
1179.20 31.96503
1179.30 32.01536
1179.40 32.00383
1179.50 32.00384
1179.60 31.97484
1179.70 31.98894
1179.80 32.0124
1179.90 32.09258
1180.00 32.12502
1180.10 32.09218
1180.20 32.1239
1180.30 32.23339
1180.40 32.4262
1180.50 32.54618
1180.60 32.58651
1180.70 32.5499
1180.80 32.55036
1180.90 32.53163
1181.00 32.49193
1181.10 32.4414
1181.20 32.39713
1181.30 32.34617
1181.40 32.2827
1181.50 32.21186
1181.60 32.17711
1181.70 32.13529
1181.80 32.14017
1181.90 32.19269
1182.00 32.30805
1182.10 32.42737
1182.20 32.54846
1182.30 32.57923
1182.40 32.58717
1182.50 32.4225
1182.60 32.12223
1182.70 31.85672
1182.80 31.49924
1182.90 31.17372
1183.00 30.82619
1183.10 30.76362
1183.20 30.84874
1183.30 31.04984
1183.40 31.21226
1183.50 31.35284
1183.60 31.43146
1183.70 31.55507
1183.80 31.59907
1183.90 31.63125
1184.00 31.55886
1184.10 31.73076
1184.20 32.07215
1184.30 32.47872
1184.40 32.70869
1184.50 32.78036
1184.60 32.69636
1184.70 32.56786
1184.80 32.33202
1184.90 31.98715
1185.00 31.7076
1185.10 31.5441
1185.20 31.51993
1185.30 31.47352
1185.40 31.58562
1185.50 31.80801
1185.60 32.03717
1185.70 32.15483
1185.80 32.22856
1185.90 32.28113
1186.00 32.36804
1186.10 32.45425
1186.20 32.47548
1186.30 32.44524
1186.40 32.38122
1186.50 32.33779
1186.60 32.35796
1186.70 32.29613
1186.80 32.12592
1186.90 31.93379
1187.00 31.83687
1187.10 31.80792
1187.20 31.81742
1187.30 31.85148
1187.40 31.96063
1187.50 32.18536
1187.60 32.33617
1187.70 32.40949
1187.80 32.24232
1187.90 32.09428
1188.00 31.68588
1188.10 31.11466
1188.20 30.60847
1188.30 29.81645
1188.40 28.88981
1188.50 27.88046
1188.60 27.51063
1188.70 27.67355
1188.80 28.26199
1188.90 28.77413
1189.00 29.52595
1189.10 30.40164
1189.20 31.22143
1189.30 31.56463
1189.40 31.57957
1189.50 31.58523
1189.60 31.61344
1189.70 31.68232
1189.80 31.82686
1189.90 31.97958
1190.00 32.11309
1190.10 32.22511
1190.20 32.30862
1190.30 32.30816
1190.40 32.17
1190.50 32.02642
1190.60 31.85677
1190.70 31.74207
1190.80 31.60698
1190.90 31.68342
1191.00 31.84682
1191.10 32.00429
1191.20 32.08412
1191.30 32.14133
1191.40 32.21231
1191.50 32.29257
1191.60 32.34576
1191.70 32.3681
1191.80 32.41175
1191.90 32.47293
1192.00 32.51535
1192.10 32.5022
1192.20 32.42264
1192.30 32.30045
1192.40 32.1949
1192.50 32.10125
1192.60 32.03159
1192.70 31.99066
1192.80 31.99742
1192.90 32.05778
1193.00 32.14607
1193.10 32.20669
1193.20 32.23649
1193.30 32.24137
1193.40 32.25914
1193.50 32.13724
1193.60 31.87965
1193.70 31.63246
1193.80 31.37181
1193.90 31.11678
1194.00 30.8603
1194.10 30.68593
1194.20 30.62465
1194.30 30.69812
1194.40 30.69306
1194.50 30.65114
1194.60 30.54854
1194.70 30.52625
1194.80 30.33405
1194.90 29.99808
1195.00 29.61105
1195.10 29.48445
1195.20 29.56319
1195.30 29.7303
1195.40 29.9665
1195.50 30.31007
1195.60 30.72074
1195.70 31.01228
1195.80 31.09465
1195.90 30.82435
1196.00 30.68819
1196.10 30.51067
1196.20 30.33626
1196.30 30.14418
1196.40 30.04846
1196.50 30.01537
1196.60 30.02616
1196.70 30.05189
1196.80 30.08337
1196.90 30.10934
1197.00 29.91367
1197.10 29.43588
1197.20 28.68221
1197.30 28.05203
1197.40 27.36405
1197.50 26.67094
1197.60 25.84078
1197.70 25.85798
1197.80 26.23075
1197.90 26.72851
1198.00 27.17193
1198.10 27.61186
1198.20 28.06719
1198.30 28.51275
1198.40 28.91368
1198.50 29.33859
1198.60 29.65412
1198.70 29.85043
1198.80 29.79986
1198.90 29.90553
1199.00 29.68365
1199.10 29.31877
1199.20 28.91461
1199.30 28.67078
1199.40 28.55551
1199.50 28.53305
1199.60 28.53092
1199.70 28.61183
1199.80 28.78276
1199.90 28.90178
1200.00 28.96084
