# Version 2.1 - nm, norm@500 to 1, cut digits
# Wavelength(nm)  Flambda(ergs/cm^s/s/nm)
300.00 0.00772435
300.10 0.01024366
300.20 0.01178907
300.30 0.01244247
300.40 0.01262778
300.50 0.0126907
300.60 0.01274801
300.70 0.01280186
300.80 0.01285579
300.90 0.01291485
301.00 0.0129841
301.10 0.01306578
301.20 0.01315803
301.30 0.01325667
301.40 0.01335789
301.50 0.01345969
301.60 0.01356155
301.70 0.01366345
301.80 0.01376536
301.90 0.01386728
302.00 0.0139692
302.10 0.01407112
302.20 0.01417305
302.30 0.01427498
302.40 0.01437692
302.50 0.01447889
302.60 0.0145809
302.70 0.01468336
302.80 0.01478777
302.90 0.01489704
303.00 0.01501433
303.10 0.01514106
303.20 0.01527581
303.30 0.01541542
303.40 0.01555698
303.50 0.01569899
303.60 0.01584104
303.70 0.01598312
303.80 0.01612521
303.90 0.01626731
304.00 0.0164094
304.10 0.0165515
304.20 0.0166936
304.30 0.01683567
304.40 0.01697771
304.50 0.01711967
304.60 0.01726148
304.70 0.01740195
304.80 0.01753643
304.90 0.01765606
305.00 0.01775114
305.10 0.01781738
305.20 0.01785906
305.30 0.0178859
305.40 0.01790675
305.50 0.01792625
305.60 0.01794561
305.70 0.01796489
305.80 0.01798413
305.90 0.01800335
306.00 0.01802257
306.10 0.01804179
306.20 0.01806101
306.30 0.01808022
306.40 0.01809944
306.50 0.01811866
306.60 0.01813788
306.70 0.0181571
306.80 0.01817634
306.90 0.01819561
307.00 0.01821493
307.10 0.01823431
307.20 0.01825375
307.30 0.01827321
307.40 0.0182927
307.50 0.01831218
307.60 0.01833167
307.70 0.01835115
307.80 0.01837064
307.90 0.01839012
308.00 0.01840961
308.10 0.01842909
308.20 0.01844859
308.30 0.01846812
308.40 0.01848776
308.50 0.0185076
308.60 0.01852779
308.70 0.01855135
308.80 0.01858991
308.90 0.01866563
309.00 0.01880278
309.10 0.01901213
309.20 0.01928293
309.30 0.01959088
309.40 0.01991382
309.50 0.02024014
309.60 0.0205668
309.70 0.02089367
309.80 0.02122064
309.90 0.02154766
310.00 0.02187468
310.10 0.0222017
310.20 0.02252871
310.30 0.02285569
310.40 0.02318255
310.50 0.02350922
310.60 0.02383553
310.70 0.02415845
310.80 0.0244663
310.90 0.0247368
311.00 0.02494554
311.10 0.02508169
311.20 0.02515608
311.30 0.02519312
311.40 0.02521508
311.50 0.02523365
311.60 0.02525188
311.70 0.02526989
311.80 0.02528781
311.90 0.02530569
312.00 0.02532355
312.10 0.02534142
312.20 0.02535929
312.30 0.02537722
312.40 0.02539527
312.50 0.02541358
312.60 0.02543232
312.70 0.02545525
312.80 0.0254968
312.90 0.02558447
313.00 0.02574842
313.10 0.02600203
313.20 0.02633191
313.30 0.02670792
313.40 0.02710254
313.50 0.02750136
313.60 0.02790061
313.70 0.02830011
313.80 0.02869974
313.90 0.02909942
314.00 0.02949911
314.10 0.0298988
314.20 0.0302985
314.30 0.03069823
314.40 0.03109805
314.50 0.03149805
314.60 0.03189835
314.70 0.03230157
314.80 0.03271774
314.90 0.03316603
315.00 0.03366741
315.10 0.0342312
315.20 0.03484808
315.30 0.03549707
315.40 0.03615902
315.50 0.0368239
315.60 0.03748907
315.70 0.03815441
315.80 0.03881985
315.90 0.03948532
316.00 0.04015079
316.10 0.04081627
316.20 0.04148172
316.30 0.04214704
316.40 0.04281203
316.50 0.04347638
316.60 0.04413963
316.70 0.04479214
316.80 0.04539703
316.90 0.04588388
317.00 0.04617556
317.10 0.04623785
317.20 0.04610496
317.30 0.04585405
317.40 0.0455555
317.50 0.04524622
317.60 0.04493584
317.70 0.04462482
317.80 0.04431347
317.90 0.04400199
318.00 0.04369048
318.10 0.04337897
318.20 0.04306748
318.30 0.0427561
318.40 0.04244496
318.50 0.04213432
318.60 0.04182451
318.70 0.04152293
318.80 0.0412578
318.90 0.04108303
319.00 0.04105765
319.10 0.04120788
319.20 0.04150751
319.30 0.04189749
319.40 0.04232393
319.50 0.04275859
319.60 0.04319409
319.70 0.04363008
319.80 0.04406632
319.90 0.04450266
320.00 0.04493903
320.10 0.04537539
320.20 0.04581175
320.30 0.04624806
320.40 0.04668429
320.50 0.04712033
320.60 0.04755607
320.70 0.04798876
320.80 0.04840797
320.90 0.04879376
321.00 0.0491243
321.10 0.04938989
321.20 0.04960022
321.30 0.04977714
321.40 0.04994057
321.50 0.05010097
321.60 0.05026105
321.70 0.05042095
321.80 0.05058076
321.90 0.05074053
322.00 0.05090029
322.10 0.05106005
322.20 0.05121985
322.30 0.05137977
322.40 0.05154004
322.50 0.05170097
322.60 0.05186304
322.70 0.05203621
322.80 0.05225863
322.90 0.05260312
323.00 0.05314943
323.10 0.05393297
323.20 0.05491834
323.30 0.05602577
323.40 0.05718246
323.50 0.05835025
323.60 0.05951917
323.70 0.06068876
323.80 0.06185868
323.90 0.06302874
324.00 0.06419884
324.10 0.06536893
324.20 0.06653901
324.30 0.06770908
324.40 0.06887909
324.50 0.07004899
324.60 0.07121871
324.70 0.07238662
324.80 0.07354654
324.90 0.07468662
325.00 0.07579392
325.10 0.07686269
325.20 0.07789867
325.30 0.07891482
325.40 0.07992297
325.50 0.08092932
325.60 0.08193548
325.70 0.08294153
325.80 0.08394753
325.90 0.08495351
326.00 0.08595949
326.10 0.08696546
326.20 0.08797144
326.30 0.08897747
326.40 0.08998362
326.50 0.09099001
326.60 0.09199678
326.70 0.09300745
326.80 0.09403536
326.90 0.09510601
327.00 0.09624732
327.10 0.09747168
327.20 0.09876671
327.30 0.1001045
327.40 0.1014595
327.50 0.1028184
327.60 0.1041777
327.70 0.1055372
327.80 0.1068968
327.90 0.1082565
328.00 0.1096162
328.10 0.1109759
328.20 0.1123356
328.30 0.1136949
328.40 0.1150536
328.50 0.1164109
328.60 0.1177659
328.70 0.119098
328.80 0.120329
328.90 0.1213092
329.00 0.1218749
329.10 0.1219532
329.20 0.1216169
329.30 0.1210299
329.40 0.1203417
329.50 0.1196306
329.60 0.1189173
329.70 0.1182026
329.80 0.1174872
329.90 0.1167715
330.00 0.1160557
330.10 0.11534
330.20 0.1146243
330.30 0.1139088
330.40 0.1131938
330.50 0.1124798
330.60 0.1117676
330.70 0.1110723
330.80 0.110452
330.90 0.1100177
331.00 0.109891
331.10 0.1101258
331.20 0.1106682
331.30 0.1113965
331.40 0.1121999
331.50 0.1130202
331.60 0.1138423
331.70 0.1146654
331.80 0.1154889
331.90 0.1163127
332.00 0.1171366
332.10 0.1179604
332.20 0.1187842
332.30 0.1196079
332.40 0.1204312
332.50 0.1212539
332.60 0.1220756
332.70 0.1228865
332.80 0.1236498
332.90 0.1242954
333.00 0.1247463
333.10 0.1249683
333.20 0.1249956
333.30 0.1249051
333.40 0.1247671
333.50 0.1246184
333.60 0.1244686
333.70 0.1243181
333.80 0.1241673
333.90 0.1240164
334.00 0.1238655
334.10 0.1237149
334.20 0.1235654
334.30 0.1234173
334.40 0.1232707
334.50 0.1231252
334.60 0.123103
334.70 0.1234812
334.80 0.1243692
334.90 0.1252805
335.00 0.1252855
335.10 0.1241338
335.20 0.1232988
335.30 0.1255279
335.40 0.1327228
335.50 0.1437823
335.60 0.1544896
335.70 0.1599598
335.80 0.1577855
335.90 0.149228
336.00 0.1378733
336.10 0.1274184
336.20 0.1204477
336.30 0.1180525
336.40 0.1193717
336.50 0.1216989
336.60 0.1221085
336.70 0.1198843
336.80 0.1174294
336.90 0.1183782
337.00 0.1244777
337.10 0.133877
337.20 0.1421826
337.30 0.1454738
337.40 0.1430537
337.50 0.1378818
337.60 0.134311
337.70 0.1348588
337.80 0.138729
337.90 0.1432708
338.00 0.1464552
338.10 0.1477207
338.20 0.1467726
338.30 0.1426525
338.40 0.1350413
338.50 0.126183
338.60 0.1205353
338.70 0.1215717
338.80 0.1285458
338.90 0.13673
339.00 0.1412153
339.10 0.140929
339.20 0.1392933
339.30 0.1408538
339.40 0.1470882
339.50 0.1554443
339.60 0.1620931
339.70 0.1651395
339.80 0.1651071
339.90 0.1630456
340.00 0.1593741
340.10 0.154529
340.20 0.1495175
340.30 0.145108
340.40 0.1407973
340.50 0.1353465
340.60 0.1284645
340.70 0.1215023
340.80 0.11639
340.90 0.1142263
341.00 0.1149397
341.10 0.1178598
341.20 0.1222111
341.30 0.1270816
341.40 0.1313975
341.50 0.1343369
341.60 0.1358123
341.70 0.136508
341.80 0.1373553
341.90 0.1388421
342.00 0.1405786
342.10 0.1413739
342.20 0.1399615
342.30 0.1360673
342.40 0.1309829
342.50 0.1269144
342.60 0.1255025
342.70 0.126802
342.80 0.1294944
342.90 0.1319292
343.00 0.1331389
343.10 0.1332729
343.20 0.1332393
343.30 0.1338187
343.40 0.1349817
343.50 0.1360501
343.60 0.1364137
343.70 0.1359059
343.80 0.1346576
343.90 0.1329765
344.00 0.1314233
344.10 0.1306465
344.20 0.1308164
344.30 0.1313407
344.40 0.1313862
344.50 0.1306781
344.60 0.1297249
344.70 0.1293749
344.80 0.1302763
344.90 0.1326569
345.00 0.136393
345.10 0.1411006
345.20 0.1461559
345.30 0.1506979
345.40 0.1537662
345.50 0.154762
345.60 0.1539451
345.70 0.1523904
345.80 0.1512522
345.90 0.1509584
346.00 0.1510189
346.10 0.1504571
346.20 0.1484933
346.30 0.1451601
346.40 0.1415003
346.50 0.1389609
346.60 0.1382439
346.70 0.1386968
346.80 0.1389201
346.90 0.137907
347.00 0.1355633
347.10 0.1325145
347.20 0.1297977
347.30 0.1285687
347.40 0.1295625
347.50 0.1325152
347.60 0.1362869
347.70 0.1397367
347.80 0.1424838
347.90 0.1448969
348.00 0.1475042
348.10 0.1503969
348.20 0.153037
348.30 0.1546108
348.40 0.1546873
348.50 0.1535947
348.60 0.1520828
348.70 0.1506409
348.80 0.1492686
348.90 0.1478128
349.00 0.1462851
349.10 0.1448212
349.20 0.1435421
349.30 0.1426202
349.40 0.1423631
349.50 0.142967
349.60 0.1441347
349.70 0.1451201
349.80 0.1453895
349.90 0.1453735
350.00 0.1464144
350.10 0.1497077
350.20 0.1551531
350.30 0.1612347
350.40 0.1660515
350.50 0.1685151
350.60 0.1687066
350.70 0.1673722
350.80 0.165285
350.90 0.16288
351.00 0.1600847
351.10 0.156355
351.20 0.1511044
351.30 0.1444679
351.40 0.1377183
351.50 0.1326572
351.60 0.1303421
351.70 0.1303433
351.80 0.1312449
351.90 0.1318248
352.00 0.131738
352.10 0.131231
352.20 0.1305927
352.30 0.130075
352.40 0.1302162
352.50 0.1319988
352.60 0.1363102
352.70 0.143023
352.80 0.1506454
352.90 0.1571516
353.00 0.1614702
353.10 0.1641657
353.20 0.1665672
353.30 0.1694132
353.40 0.1725259
353.50 0.1755458
353.60 0.1785473
353.70 0.1818079
353.80 0.1853204
353.90 0.1887753
354.00 0.1917688
354.10 0.1937785
354.20 0.1941773
354.30 0.1927165
354.40 0.1900674
354.50 0.1875935
354.60 0.1863339
354.70 0.1862395
354.80 0.186459
354.90 0.1862344
355.00 0.1854237
355.10 0.184331
355.20 0.1832799
355.30 0.1824192
355.40 0.1818202
355.50 0.1815128
355.60 0.1813175
355.70 0.1807352
355.80 0.1791788
355.90 0.1764603
356.00 0.1730137
356.10 0.169542
356.20 0.1664156
356.30 0.1633783
356.40 0.1598314
356.50 0.1554887
356.60 0.1508525
356.70 0.1470355
356.80 0.1449858
356.90 0.1447877
357.00 0.1456683
357.10 0.146594
357.20 0.1468091
357.30 0.1459891
357.40 0.1441484
357.50 0.1415395
357.60 0.1385795
357.70 0.1357043
357.80 0.1331925
357.90 0.1311029
358.00 0.1294246
358.10 0.1283412
358.20 0.1283003
358.30 0.1297202
358.40 0.1325685
358.50 0.1362112
358.60 0.1396576
358.70 0.141983
358.80 0.1427135
358.90 0.1420537
359.00 0.1409013
359.10 0.1405094
359.20 0.141797
359.30 0.1447085
359.40 0.1481399
359.50 0.1506293
359.60 0.1513472
359.70 0.1506096
359.80 0.1495176
359.90 0.1490248
360.00 0.1491794
360.10 0.1491266
360.20 0.1478397
360.30 0.1449478
360.40 0.1410517
360.50 0.1374259
360.60 0.1354299
360.70 0.1359682
360.80 0.1390826
360.90 0.1438579
361.00 0.1488705
361.10 0.1529964
361.20 0.1559418
361.30 0.1580256
361.40 0.1595253
361.50 0.1603804
361.60 0.1605772
361.70 0.1605688
361.80 0.1610286
361.90 0.162169
362.00 0.1634888
362.10 0.1642999
362.20 0.1643599
362.30 0.1639415
362.40 0.1635023
362.50 0.1634241
362.60 0.163834
362.70 0.1643845
362.80 0.1643162
362.90 0.1630625
363.00 0.1609111
363.10 0.1589196
363.20 0.1580642
363.30 0.1585131
363.40 0.1596971
363.50 0.1609048
363.60 0.1617397
363.70 0.162159
363.80 0.1622391
363.90 0.1619447
364.00 0.1610722
364.10 0.1593911
364.20 0.1568785
364.30 0.1538491
364.40 0.1508892
364.50 0.1486666
364.60 0.1476739
364.70 0.1479553
364.80 0.1490468
364.90 0.150328
365.00 0.1515879
365.10 0.1532355
365.20 0.1557913
365.30 0.159106
365.40 0.1621704
365.50 0.1638121
365.60 0.1636605
365.70 0.1624268
365.80 0.161219
365.90 0.1606445
366.00 0.1605825
366.10 0.1606871
366.20 0.1609351
366.30 0.1615776
366.40 0.1626776
366.50 0.1638561
366.60 0.1644906
366.70 0.1641167
366.80 0.1626698
366.90 0.1604499
367.00 0.157966
367.10 0.1557963
367.20 0.1544656
367.30 0.1543117
367.40 0.1553391
367.50 0.1571901
367.60 0.1593193
367.70 0.1612761
367.80 0.1628919
367.90 0.1642499
368.00 0.1655017
368.10 0.1666821
368.20 0.167643
368.30 0.1681257
368.40 0.1679289
368.50 0.1670988
368.60 0.1660083
368.70 0.165203
368.80 0.165069
368.90 0.1655988
369.00 0.166497
369.10 0.1675282
369.20 0.1686782
369.30 0.1699331
369.40 0.1710009
369.50 0.1713833
369.60 0.1708079
369.70 0.1695634
369.80 0.1683994
369.90 0.1681024
370.00 0.1690883
370.10 0.1712389
370.20 0.1740354
370.30 0.1768371
370.40 0.1791018
370.50 0.1804771
370.60 0.1808401
370.70 0.1803933
370.80 0.1796767
370.90 0.1793255
371.00 0.179658
371.10 0.1804108
371.20 0.1808389
371.30 0.1801008
371.40 0.1777298
371.50 0.1739446
371.60 0.1696177
371.70 0.1658677
371.80 0.1635494
371.90 0.1629763
372.00 0.1639464
372.10 0.1658012
372.20 0.1673817
372.30 0.1672325
372.40 0.1642748
372.50 0.1586535
372.60 0.151991
372.70 0.1466627
372.80 0.1445891
372.90 0.1463954
373.00 0.1513635
373.10 0.1579516
373.20 0.1644321
373.30 0.1693584
373.40 0.1718549
373.50 0.1716812
373.60 0.1690758
373.70 0.1645272
373.80 0.1586703
373.90 0.1523415
374.00 0.146587
374.10 0.1424816
374.20 0.1408564
374.30 0.1421521
374.40 0.1464521
374.50 0.1535123
374.60 0.1626748
374.70 0.1727473
374.80 0.18208
374.90 0.1889826
375.00 0.1923013
375.10 0.1917879
375.20 0.1880607
375.30 0.1822824
375.40 0.1758034
375.50 0.1698788
375.60 0.1653697
375.70 0.1625153
375.80 0.1609461
375.90 0.1599973
376.00 0.1591753
376.10 0.1585241
376.20 0.1587041
376.30 0.1607194
376.40 0.1654286
376.50 0.1731733
376.60 0.1837681
376.70 0.1966129
376.80 0.2106144
376.90 0.2239642
377.00 0.2342888
377.10 0.2394594
377.20 0.2385609
377.30 0.2322449
377.40 0.2222513
377.50 0.210588
377.60 0.1989586
377.70 0.1885948
377.80 0.18021
377.90 0.1739612
378.00 0.1695354
378.10 0.1664266
378.20 0.1642347
378.30 0.1627417
378.40 0.1617961
378.50 0.1612744
378.60 0.1611982
378.70 0.1617988
378.80 0.1634187
378.90 0.1664414
379.00 0.1714027
379.10 0.1790537
379.20 0.1900472
379.30 0.2043595
379.40 0.2209344
379.50 0.2378345
379.60 0.2526857
379.70 0.2631495
379.80 0.2674508
379.90 0.2649289
380.00 0.2563735
380.10 0.2437945
380.20 0.2296589
380.30 0.2160485
380.40 0.2042229
380.50 0.1946478
380.60 0.1872359
380.70 0.181557
380.80 0.1769933
380.90 0.1730103
381.00 0.1694202
381.10 0.166376
381.20 0.1640564
381.30 0.1623677
381.40 0.1610321
381.50 0.1599773
381.60 0.1595743
381.70 0.1602029
381.80 0.1616724
381.90 0.1632273
382.00 0.1641937
382.10 0.1677107
382.20 0.1808937
382.30 0.1977093
382.40 0.2183757
382.50 0.2514923
382.60 0.3058802
382.70 0.3774013
382.80 0.4403903
382.90 0.4687538
383.00 0.4441982
383.10 0.3957739
383.20 0.3880181
383.30 0.4306406
383.40 0.5041999
383.50 0.5698689
383.60 0.5865782
383.70 0.5372524
383.80 0.4439668
383.90 0.351015
384.00 0.289622
384.10 0.2617477
384.20 0.2530673
384.30 0.2546916
384.40 0.2643159
384.50 0.2645032
384.60 0.2465851
384.70 0.1798651
384.80 0.09504121
384.90 0.03736304
385.00 0.03539795
385.10 0.07875409
385.20 0.1327613
385.30 0.1650651
385.40 0.1630055
385.50 0.1414905
385.60 0.1293453
385.70 0.1420982
385.80 0.1708313
385.90 0.1995599
386.00 0.2234263
386.10 0.2444287
386.20 0.2581567
386.30 0.2589041
386.40 0.2522498
386.50 0.2515563
386.60 0.265588
386.70 0.2930108
386.80 0.3249163
386.90 0.3435569
387.00 0.3287523
387.10 0.2780677
387.20 0.2180813
387.30 0.1858028
387.40 0.1935385
387.50 0.2179382
387.60 0.2266333
387.70 0.2111447
387.80 0.1847797
387.90 0.157648
388.00 0.1305243
388.10 0.1160935
388.20 0.1430102
388.30 0.2184226
388.40 0.304456
388.50 0.3557568
388.60 0.3777256
388.70 0.4164361
388.80 0.4891624
388.90 0.5518315
389.00 0.5492811
389.10 0.4816978
389.20 0.4005609
389.30 0.3502792
389.40 0.3327864
389.50 0.3181452
389.60 0.275915
389.70 0.2388599
389.80 0.206338
389.90 0.2180433
390.00 0.2759445
390.10 0.3214666
390.20 0.3532784
390.30 0.3671343
390.40 0.3689134
390.50 0.3960979
390.60 0.4241387
390.70 0.4142258
390.80 0.3589596
390.90 0.2881113
391.00 0.2403601
391.10 0.2406807
391.20 0.2899238
391.30 0.3221452
391.40 0.3448386
391.50 0.3478804
391.60 0.330024
391.70 0.3026632
391.80 0.2769243
391.90 0.2595504
392.00 0.2579357
392.10 0.2683465
392.20 0.2797906
392.30 0.2683403
392.40 0.2528097
392.50 0.24009
392.60 0.2225173
392.70 0.2216165
392.80 0.2444132
392.90 0.2984401
393.00 0.3775938
393.10 0.5085326
393.20 0.7234212
393.30 0.9619714
393.40 1.113886
393.50 1.094661
393.60 0.9139938
393.70 0.668495
393.80 0.4621302
393.90 0.3364933
394.00 0.2704681
394.10 0.2321754
394.20 0.2093266
394.30 0.1859469
394.40 0.190081
394.50 0.2192102
394.60 0.2622639
394.70 0.301174
394.80 0.342428
394.90 0.3618126
395.00 0.3687846
395.10 0.3673197
395.20 0.3598387
395.30 0.3533115
395.40 0.3601202
395.50 0.3595985
395.60 0.3398809
395.70 0.3250448
395.80 0.3180806
395.90 0.3177088
396.00 0.3073184
396.10 0.283189
396.20 0.2625612
396.30 0.2535094
396.40 0.2760892
396.50 0.3443776
396.60 0.4840313
396.70 0.716375
396.80 1.003
396.90 1.23931
397.00 1.3095
397.10 1.17707
397.20 0.9158777
397.30 0.6523934
397.40 0.4676338
397.50 0.3711152
397.60 0.3341492
397.70 0.3266465
397.80 0.3295786
397.90 0.3305709
398.00 0.318937
398.10 0.2894753
398.20 0.2511308
398.30 0.2283458
398.40 0.2428161
398.50 0.2920793
398.60 0.3507939
398.70 0.3954495
398.80 0.4016418
398.90 0.393527
399.00 0.3756021
399.10 0.3606473
399.20 0.3647888
399.30 0.3859175
399.40 0.4003296
399.50 0.3904491
399.60 0.3635232
399.70 0.347429
399.80 0.3579582
399.90 0.37367
400.00 0.3704072
400.10 0.3485783
400.20 0.3314685
400.30 0.3373231
400.40 0.3589741
400.50 0.372806
400.60 0.3662901
400.70 0.3632912
400.80 0.3764108
400.90 0.3926669
401.00 0.4058323
401.10 0.4071903
401.20 0.402763
401.30 0.3866486
401.40 0.3653354
401.50 0.3441852
401.60 0.3197528
401.70 0.2811227
401.80 0.2574449
401.90 0.2581098
402.00 0.2748951
402.10 0.2914372
402.20 0.2948054
402.30 0.283873
402.40 0.2709821
402.50 0.2732083
402.60 0.2965152
402.70 0.3297173
402.80 0.3528217
402.90 0.3516482
403.00 0.3262903
403.10 0.2862858
403.20 0.2445904
403.30 0.2151372
403.40 0.2093729
403.50 0.2304926
403.60 0.2686335
403.70 0.30375
403.80 0.3333235
403.90 0.3674191
404.00 0.4063071
404.10 0.4400577
404.20 0.4524688
404.30 0.4397864
404.40 0.4123527
404.50 0.381293
404.60 0.3517035
404.70 0.3284564
404.80 0.3161143
404.90 0.3123979
405.00 0.3103612
405.10 0.3092131
405.20 0.3176724
405.30 0.3401994
405.40 0.3645771
405.50 0.3716067
405.60 0.358188
405.70 0.340429
405.80 0.3312318
405.90 0.3293447
406.00 0.3226884
406.10 0.3051517
406.20 0.2828777
406.30 0.2678318
406.40 0.2675156
406.50 0.2811739
406.60 0.2956305
406.70 0.2955794
406.80 0.2793858
406.90 0.2611321
407.00 0.2587149
407.10 0.2755395
407.20 0.2869647
407.30 0.2826765
407.40 0.2683422
407.50 0.2401763
407.60 0.2199131
407.70 0.2160923
407.80 0.227078
407.90 0.2510276
408.00 0.2833125
408.10 0.3131652
408.20 0.3293831
408.30 0.3275108
408.40 0.3134538
408.50 0.2965852
408.60 0.2825031
408.70 0.2717163
408.80 0.2643174
408.90 0.2630258
409.00 0.267065
409.10 0.2678792
409.20 0.2578991
409.30 0.2383205
409.40 0.2206782
409.50 0.2147733
409.60 0.2227672
409.70 0.2432283
409.80 0.2791234
409.90 0.3395973
410.00 0.4334825
410.10 0.5508946
410.20 0.6486927
410.30 0.6706336
410.40 0.5972235
410.50 0.4716664
410.60 0.3646507
410.70 0.2949612
410.80 0.2790367
410.90 0.2817398
411.00 0.281987
411.10 0.2769997
411.20 0.2681457
411.30 0.2569477
411.40 0.249129
411.50 0.2496923
411.60 0.2288192
411.70 0.1818134
411.80 0.1358895
411.90 0.1044811
412.00 0.09768221
412.10 0.1158723
412.20 0.1507597
412.30 0.1872694
412.40 0.214777
412.50 0.2308583
412.60 0.238597
412.70 0.2418221
412.80 0.2421175
412.90 0.2395362
413.00 0.2363566
413.10 0.2376715
413.20 0.2470886
413.30 0.2607627
413.40 0.2688112
413.50 0.2644525
413.60 0.2513243
413.70 0.2401946
413.80 0.239665
413.90 0.2517267
414.00 0.2729523
414.10 0.2966029
414.20 0.290777
414.30 0.2693037
414.40 0.2397132
414.50 0.2153724
414.60 0.2087918
414.70 0.2213227
414.80 0.2245757
414.90 0.2221607
415.00 0.2289477
415.10 0.2364628
415.20 0.2413021
415.30 0.2551921
415.40 0.2710444
415.50 0.2844532
415.60 0.294805
415.70 0.302293
415.80 0.3078949
415.90 0.3126091
416.00 0.3106745
416.10 0.3016008
416.20 0.2847828
416.30 0.2647253
416.40 0.2524527
416.50 0.2565622
416.60 0.2583637
416.70 0.27202
416.80 0.2882449
416.90 0.2935052
417.00 0.2759106
417.10 0.2355388
417.20 0.209785
417.30 0.1990023
417.40 0.1957002
417.50 0.2032991
417.60 0.231248
417.70 0.275158
417.80 0.3140605
417.90 0.3205747
418.00 0.3213388
418.10 0.3271907
418.20 0.3332425
418.30 0.3251164
418.40 0.2971945
418.50 0.2612409
418.60 0.2190216
418.70 0.199993
418.80 0.1964552
418.90 0.1953711
419.00 0.1888898
419.10 0.175828
419.20 0.1590416
419.30 0.1448712
419.40 0.1421835
419.50 0.1576033
419.60 0.1869559
419.70 0.2154531
419.80 0.2317973
419.90 0.2365596
420.00 0.2407969
420.10 0.2522168
420.20 0.2666188
420.30 0.2652593
420.40 0.2478163
420.50 0.2326628
420.60 0.2286388
420.70 0.2344406
420.80 0.2336187
420.90 0.2350134
421.00 0.2401296
421.10 0.2420757
421.20 0.2293522
421.30 0.2005249
421.40 0.1724569
421.50 0.160677
421.60 0.1674398
421.70 0.1764223
421.80 0.1711724
421.90 0.1534607
422.00 0.1391265
422.10 0.1395622
422.20 0.1501413
422.30 0.156941
422.40 0.1525798
422.50 0.1409574
422.60 0.1279674
422.70 0.1028844
422.80 0.09646144
422.90 0.1061799
423.00 0.1210358
423.10 0.1293035
423.20 0.1254926
423.30 0.1138021
423.40 0.1053744
423.50 0.09766763
423.60 0.08851005
423.70 0.09353069
423.80 0.109035
423.90 0.1327652
424.00 0.1622037
424.10 0.1904066
424.20 0.2096711
424.30 0.2184912
424.40 0.2134188
424.50 0.201423
424.60 0.1901382
424.70 0.181971
424.80 0.1691529
424.90 0.1624665
425.00 0.1648035
425.10 0.1691539
425.20 0.1687864
425.30 0.1631075
425.40 0.1581893
425.50 0.1586639
425.60 0.1614846
425.70 0.1593804
425.80 0.1503479
425.90 0.1432494
426.00 0.1504282
426.10 0.1731094
426.20 0.1985015
426.30 0.2119682
426.40 0.2089922
426.50 0.1973563
426.60 0.1902996
426.70 0.1996629
426.80 0.2298115
426.90 0.2619416
427.00 0.2711034
427.10 0.2734246
427.20 0.2669699
427.30 0.2520397
427.40 0.2298462
427.50 0.2042741
427.60 0.1826002
427.70 0.1719008
427.80 0.1692169
427.90 0.1789515
428.00 0.1981008
428.10 0.2200608
428.20 0.2446512
428.30 0.2712212
428.40 0.2945572
428.50 0.3028183
428.60 0.2893209
428.70 0.2592402
428.80 0.2290159
428.90 0.2152832
429.00 0.2231046
429.10 0.2342621
429.20 0.2460771
429.30 0.2574678
429.40 0.2650994
429.50 0.2684266
429.60 0.2681755
429.70 0.2670053
429.80 0.2671727
429.90 0.2644186
430.00 0.2498369
430.10 0.2240116
430.20 0.2040341
430.30 0.2076797
430.40 0.2317188
430.50 0.254127
430.60 0.2584372
430.70 0.249597
430.80 0.2435351
430.90 0.247275
431.00 0.2556831
431.10 0.262823
431.20 0.2687222
431.30 0.2753149
431.40 0.2802582
431.50 0.2787262
431.60 0.2667038
431.70 0.2515281
431.80 0.2456086
431.90 0.2509082
432.00 0.2623249
432.10 0.2685051
432.20 0.2713623
432.30 0.2660242
432.40 0.2542549
432.50 0.246391
432.60 0.2523925
432.70 0.2711547
432.80 0.2909412
432.90 0.3036158
433.00 0.3158028
433.10 0.3404509
433.20 0.3701413
433.30 0.3902079
433.40 0.4003513
433.50 0.4032751
433.60 0.4152867
433.70 0.4642334
433.80 0.5586489
433.90 0.7180765
434.00 0.893447
434.10 1.000738
434.20 0.9789189
434.30 0.8373721
434.40 0.6470121
434.50 0.4861734
434.60 0.3926764
434.70 0.3579763
434.80 0.3528345
434.90 0.3535079
435.00 0.3497334
435.10 0.3390314
435.20 0.3220802
435.30 0.3030454
435.40 0.2883138
435.50 0.2808331
435.60 0.2738407
435.70 0.2620571
435.80 0.2515859
435.90 0.2580007
436.00 0.2871078
436.10 0.321085
436.20 0.3201512
436.30 0.2972276
436.40 0.2687265
436.50 0.2574846
436.60 0.2780631
436.70 0.3067188
436.80 0.3156507
436.90 0.2984042
437.00 0.2702268
437.10 0.2509758
437.20 0.2512485
437.30 0.2680494
437.40 0.2898373
437.50 0.3080619
437.60 0.3236351
437.70 0.339785
437.80 0.3493082
437.90 0.340801
438.00 0.3153222
438.10 0.2944566
438.20 0.299022
438.30 0.3288298
438.40 0.3619336
438.50 0.3838913
438.60 0.3971932
438.70 0.3993083
438.80 0.3812699
438.90 0.346
439.00 0.3099504
439.10 0.2968009
439.20 0.314481
439.30 0.3483726
439.40 0.3783464
439.50 0.3951028
439.60 0.4026623
439.70 0.4075897
439.80 0.4079954
439.90 0.3903836
440.00 0.3657315
440.10 0.3518777
440.20 0.3532102
440.30 0.3587318
440.40 0.3434366
440.50 0.3253061
440.60 0.3151705
440.70 0.3171603
440.80 0.3309965
440.90 0.3340399
441.00 0.3331502
441.10 0.3290559
441.20 0.3246875
441.30 0.3273116
441.40 0.3427913
441.50 0.3709757
441.60 0.4061062
441.70 0.4404197
441.80 0.4670127
441.90 0.4801622
442.00 0.4763261
442.10 0.4572067
442.20 0.4308504
442.30 0.4069875
442.40 0.3921335
442.50 0.3871022
442.60 0.3877208
442.70 0.3896913
442.80 0.3924924
442.90 0.3997864
443.00 0.4160073
443.10 0.4402034
443.20 0.4641443
443.30 0.4778659
443.40 0.4784063
443.50 0.4709565
443.60 0.4698196
443.70 0.4884891
443.80 0.5042488
443.90 0.5179153
444.00 0.5257275
444.10 0.5239088
444.20 0.5090065
444.30 0.4863788
444.40 0.472272
444.50 0.4818709
444.60 0.5122591
444.70 0.5451884
444.80 0.5664541
444.90 0.5735776
445.00 0.5700356
445.10 0.5557528
445.20 0.527892
445.30 0.4901364
445.40 0.4568131
445.50 0.4448058
445.60 0.4613726
445.70 0.4911341
445.80 0.5159217
445.90 0.5271482
446.00 0.5286862
446.10 0.5272125
446.20 0.5228277
446.30 0.5100608
446.40 0.4871279
446.50 0.4627519
446.60 0.4540104
446.70 0.4729299
446.80 0.5133528
446.90 0.5549346
447.00 0.5826074
447.10 0.5991498
447.20 0.615398
447.30 0.632902
447.40 0.6426241
447.50 0.6383864
447.60 0.625793
447.70 0.6187495
447.80 0.6285546
447.90 0.6543747
448.00 0.67152
448.10 0.6869338
448.20 0.6933451
448.30 0.682717
448.40 0.67645
448.50 0.676038
448.60 0.6758155
448.70 0.673144
448.80 0.6714944
448.90 0.6743109
449.00 0.6803245
449.10 0.6853004
449.20 0.6855616
449.30 0.6799409
449.40 0.6701716
449.50 0.6602075
449.60 0.654924
449.70 0.6580779
449.80 0.6698447
449.90 0.687426
450.00 0.7071129
450.10 0.7242442
450.20 0.732088
450.30 0.7227528
450.40 0.6943859
450.50 0.6584795
450.60 0.634592
450.70 0.6341001
450.80 0.6516159
450.90 0.6721972
451.00 0.6846215
451.10 0.6871489
451.20 0.6833266
451.30 0.6782019
451.40 0.6773186
451.50 0.6852453
451.60 0.7032
451.70 0.7281973
451.80 0.7555186
451.90 0.7815904
452.00 0.8037373
452.10 0.8178279
452.20 0.8193531
452.30 0.8075655
452.40 0.787495
452.50 0.7662388
452.60 0.7482139
452.70 0.7361195
452.80 0.7346507
452.90 0.7475446
453.00 0.7693056
453.10 0.7834851
453.20 0.7729266
453.30 0.7346778
453.40 0.6857705
453.50 0.6548415
453.60 0.6659161
453.70 0.7245016
453.80 0.8136825
453.90 0.9040558
454.00 0.9693352
454.10 0.9975906
454.20 0.9932539
454.30 0.96866
454.40 0.933752
454.50 0.8945194
454.60 0.8576223
454.70 0.8309442
454.80 0.8177035
454.90 0.8124809
455.00 0.8070452
455.10 0.7965978
455.20 0.7788116
455.30 0.7550436
455.40 0.7353509
455.50 0.7356427
455.60 0.7648931
455.70 0.8157439
455.80 0.8703617
455.90 0.9145132
456.00 0.9444724
456.10 0.9653976
456.20 0.9857758
456.30 1.01111
456.40 1.041018
456.50 1.070949
456.60 1.096386
456.70 1.114786
456.80 1.125531
456.90 1.130395
457.00 1.13369
457.10 1.140216
457.20 1.151276
457.30 1.160951
457.40 1.158492
457.50 1.139023
457.60 1.111527
457.70 1.09272
457.80 1.090455
457.90 1.097153
458.00 1.101195
458.10 1.097252
458.20 1.082356
458.30 1.049077
458.40 0.9901854
458.50 0.9113038
458.60 0.8329606
458.70 0.7760229
458.80 0.7464553
458.90 0.734996
459.00 0.7313102
459.10 0.7354562
459.20 0.7517505
459.30 0.7757477
459.40 0.7954703
459.50 0.8056636
459.60 0.8152728
459.70 0.8366567
459.80 0.8697786
459.90 0.9012628
460.00 0.9174876
460.10 0.9169484
460.20 0.9106487
460.30 0.9101834
460.40 0.9147701
460.50 0.9109228
460.60 0.8891384
460.70 0.8620297
460.80 0.8595328
460.90 0.9004766
461.00 0.9716106
461.10 1.039342
461.20 1.08217
461.30 1.107331
461.40 1.136178
461.50 1.179495
461.60 1.228215
461.70 1.264714
461.80 1.279176
461.90 1.275754
462.00 1.265759
462.10 1.256354
462.20 1.244204
462.30 1.217886
462.40 1.166761
462.50 1.089544
462.60 0.9974633
462.70 0.9089477
462.80 0.841536
462.90 0.8058383
463.00 0.8014872
463.10 0.8179604
463.20 0.8408696
463.30 0.8588572
463.40 0.8662022
463.50 0.8619292
463.60 0.8491975
463.70 0.8357447
463.80 0.8299707
463.90 0.8355771
464.00 0.8524925
464.10 0.8798789
464.20 0.9149975
464.30 0.9504621
464.40 0.9750661
464.50 0.9801308
464.60 0.9662248
464.70 0.9427974
464.80 0.9216387
464.90 0.9099328
465.00 0.9088072
465.10 0.9177261
465.20 0.9373795
465.30 0.9663907
465.40 0.996989
465.50 1.018756
465.60 1.028398
465.70 1.034367
465.80 1.050038
465.90 1.080586
466.00 1.118475
466.10 1.152474
466.20 1.178103
466.30 1.197579
466.40 1.211665
466.50 1.212603
466.60 1.186388
466.70 1.123239
466.80 1.028065
466.90 0.9223679
467.00 0.8316523
467.10 0.7682658
467.20 0.7284685
467.30 0.7051758
467.40 0.6971656
467.50 0.7055033
467.60 0.7270269
467.70 0.7557648
467.80 0.7861046
467.90 0.8111419
468.00 0.8231791
468.10 0.8218142
468.20 0.8180391
468.30 0.8240854
468.40 0.841534
468.50 0.8622354
468.60 0.8795082
468.70 0.8941304
468.80 0.9094191
468.90 0.9252914
469.00 0.9397684
469.10 0.953305
469.20 0.9677196
469.30 0.9809299
469.40 0.9885032
469.50 0.9923838
469.60 1.003206
469.70 1.029899
469.80 1.068769
469.90 1.107876
470.00 1.140866
470.10 1.170301
470.20 1.196989
470.30 1.21328
470.40 1.209992
470.50 1.188481
470.60 1.161552
470.70 1.141372
470.80 1.131462
470.90 1.128985
471.00 1.129164
471.10 1.12537
471.20 1.109271
471.30 1.076035
471.40 1.029388
471.50 0.9793896
471.60 0.9362737
471.70 0.9093137
471.80 0.9065095
471.90 0.9297156
472.00 0.9694216
472.10 1.008576
472.20 1.034413
472.30 1.046303
472.40 1.052764
472.50 1.060625
472.60 1.0679
472.70 1.067105
472.80 1.055686
472.90 1.043105
473.00 1.045002
473.10 1.068391
473.20 1.104948
473.30 1.140198
473.40 1.165817
473.50 1.180709
473.60 1.183492
473.70 1.170935
473.80 1.145917
473.90 1.120586
474.00 1.108258
474.10 1.114536
474.20 1.137243
474.30 1.170721
474.40 1.20681
474.50 1.23532
474.60 1.249163
474.70 1.250116
474.80 1.247931
474.90 1.252521
475.00 1.266444
475.10 1.283619
475.20 1.294271
475.30 1.293545
475.40 1.285385
475.50 1.276854
475.60 1.26913
475.70 1.25413
475.80 1.218068
475.90 1.148908
476.00 1.045491
476.10 0.9240209
476.20 0.8133731
476.30 0.7370608
476.40 0.6906825
476.50 0.6675084
476.60 0.6531803
476.70 0.6293982
476.80 0.6046434
476.90 0.5928768
477.00 0.5959744
477.10 0.6050244
477.20 0.6115654
477.30 0.6186193
477.40 0.6377004
477.50 0.6749511
477.60 0.7227493
477.70 0.7659948
477.80 0.7946451
477.90 0.8072858
478.00 0.8058837
478.10 0.7930377
478.20 0.7753587
478.30 0.7651195
478.40 0.7725313
478.50 0.7955949
478.60 0.8220301
478.70 0.8425749
478.80 0.8592577
478.90 0.8809359
479.00 0.9122668
479.10 0.9481512
479.20 0.9782801
479.30 0.9948573
479.40 0.9971159
479.50 0.9916892
479.60 0.9884941
479.70 0.9939326
479.80 1.007169
479.90 1.023092
480.00 1.038113
480.10 1.050758
480.20 1.055257
480.30 1.039105
480.40 0.9916693
480.50 0.914193
480.60 0.8208081
480.70 0.7300032
480.80 0.656415
480.90 0.6088418
481.00 0.5904494
481.10 0.5977423
481.20 0.6210925
481.30 0.6501752
481.40 0.6809405
481.50 0.715831
481.60 0.7550648
481.70 0.7913022
481.80 0.815923
481.90 0.8291632
482.00 0.8412403
482.10 0.8623086
482.20 0.8931523
482.30 0.9257227
482.40 0.9493738
482.50 0.9568714
482.60 0.948329
482.70 0.9323292
482.80 0.9214772
482.90 0.9221467
483.00 0.9283195
483.10 0.9305149
483.20 0.9317545
483.30 0.9471164
483.40 0.9839392
483.50 1.027968
483.60 1.057045
483.70 1.065717
483.80 1.066689
483.90 1.068261
484.00 1.059949
484.10 1.024578
484.20 0.9600535
484.30 0.8870907
484.40 0.8363492
484.50 0.8266065
484.60 0.8499735
484.70 0.8756972
484.80 0.8733843
484.90 0.8367056
485.00 0.7857837
485.10 0.748506
485.20 0.7416206
485.30 0.7656765
485.40 0.810076
485.50 0.8601233
485.60 0.9046209
485.70 0.949115
485.80 1.029465
485.90 1.200744
486.00 1.484255
486.10 1.810644
486.20 2.033738
486.30 2.033231
486.40 1.814653
486.50 1.499492
486.60 1.220264
486.70 1.036092
486.80 0.9375073
486.90 0.8982031
487.00 0.9035659
487.10 0.9432123
487.20 0.9996061
487.30 1.05061
487.40 1.078593
487.50 1.076717
487.60 1.049955
487.70 1.012812
487.80 0.9833087
487.90 0.9740728
488.00 0.984935
488.10 1.00397
488.20 1.018406
488.30 1.025582
488.40 1.033066
488.50 1.048685
488.60 1.072609
488.70 1.098604
488.80 1.121423
488.90 1.141796
489.00 1.162905
489.10 1.182218
489.20 1.190709
489.30 1.183237
489.40 1.16786
489.50 1.160418
489.60 1.168424
489.70 1.184084
489.80 1.194498
489.90 1.193979
490.00 1.185778
490.10 1.177905
490.20 1.179982
490.30 1.199262
490.40 1.234223
490.50 1.273184
490.60 1.30449
490.70 1.327753
490.80 1.351174
490.90 1.379765
491.00 1.410377
491.10 1.437843
491.20 1.460719
491.30 1.47817
491.40 1.486084
491.50 1.481289
491.60 1.467769
491.70 1.455852
491.80 1.455599
491.90 1.472156
492.00 1.505492
492.10 1.550319
492.20 1.595678
492.30 1.629672
492.40 1.649513
492.50 1.666444
492.60 1.696113
492.70 1.740184
492.80 1.780857
492.90 1.797463
493.00 1.786116
493.10 1.760478
493.20 1.73619
493.30 1.720607
493.40 1.715488
493.50 1.72056
493.60 1.731396
493.70 1.739469
493.80 1.739704
493.90 1.736654
494.00 1.740765
494.10 1.759564
494.20 1.793823
494.30 1.839436
494.40 1.889517
494.50 1.936659
494.60 1.977198
494.70 2.014131
494.80 2.053652
494.90 2.09696
495.00 2.135011
495.10 2.146709
495.20 2.099393
495.30 1.959408
495.40 1.715745
495.50 1.400275
495.60 1.080588
495.70 0.8246532
495.80 0.6671206
495.90 0.6028979
496.00 0.6024336
496.10 0.6302915
496.20 0.6587886
496.30 0.6758937
496.40 0.6859492
496.50 0.7023494
496.60 0.7371178
496.70 0.7940519
496.80 0.8653245
496.90 0.9330565
497.00 0.9801542
497.10 1.004448
497.20 1.020625
497.30 1.045494
497.40 1.082501
497.50 1.120658
497.60 1.144728
497.70 1.145133
497.80 1.121888
497.90 1.08414
498.00 1.0459
498.10 1.018815
498.20 1.008463
498.30 1.016933
498.40 1.044162
498.50 1.084123
498.60 1.124291
498.70 1.154393
498.80 1.176254
498.90 1.200629
499.00 1.233892
499.10 1.27126
499.20 1.303532
499.30 1.327074
499.40 1.344912
499.50 1.359416
499.60 1.354461
499.70 1.286756
499.80 1.110633
499.90 0.8260672
500.00 1
500.10 0.8318094
500.20 0.8715236
500.30 0.9431458
500.40 0.8856387
500.50 0.8373954
500.60 0.8545225
500.70 0.820727
500.80 0.8558053
500.90 0.9131747
501.00 1.022704
501.10 0.9714099
501.20 0.9594958
501.30 0.9724044
501.40 0.9668833
501.50 0.9067532
501.60 0.9297042
501.70 0.9842603
501.80 0.9915813
501.90 1.030606
502.00 1.044659
502.10 1.138037
502.20 1.144394
502.30 1.096161
502.40 1.109884
502.50 1.10639
502.60 1.086666
502.70 1.103234
502.80 1.132079
502.90 1.099307
503.00 1.077388
503.10 1.054261
503.20 1.183176
503.30 1.17929
503.40 1.148527
503.50 1.272108
503.60 1.332163
503.70 1.211177
503.80 1.212816
503.90 1.281196
504.00 1.260911
504.10 1.319615
504.20 1.405362
504.30 1.372915
504.40 1.417021
504.50 1.478035
504.60 1.521222
504.70 1.603788
504.80 1.632123
504.90 1.430941
505.00 1.278574
505.10 1.251179
505.20 1.297728
505.30 1.311378
505.40 1.374077
505.50 1.412206
505.60 1.299673
505.70 1.258097
505.80 1.323578
505.90 1.35691
506.00 1.36083
506.10 1.37703
506.20 1.478516
506.30 1.444652
506.40 1.417442
506.50 1.418846
506.60 1.413022
506.70 1.416087
506.80 1.418292
506.90 1.478813
507.00 1.426568
507.10 1.347448
507.20 1.438295
507.30 1.405003
507.40 1.377686
507.50 1.523934
507.60 1.570915
507.70 1.444004
507.80 1.458609
507.90 1.55441
508.00 1.560954
508.10 1.432302
508.20 1.362368
508.30 1.388641
508.40 1.417861
508.50 1.500702
508.60 1.563482
508.70 1.5227
508.80 1.496888
508.90 1.491612
509.00 1.408549
509.10 1.430303
509.20 1.569655
509.30 1.599053
509.40 1.567098
509.50 1.497763
509.60 1.37034
509.70 1.313999
509.80 1.477619
509.90 1.570167
510.00 1.572736
510.10 1.518287
510.20 1.450406
510.30 1.460098
510.40 1.483843
510.50 1.432272
510.60 1.380289
510.70 1.436141
510.80 1.416547
510.90 1.42187
511.00 1.456197
511.10 1.448627
511.20 1.422054
511.30 1.436974
511.40 1.517991
511.50 1.57073
511.60 1.638248
511.70 1.699759
511.80 1.73779
511.90 1.639446
512.00 1.575748
512.10 1.536871
512.20 1.543822
512.30 1.577175
512.40 1.559239
512.50 1.456114
512.60 1.457936
512.70 1.449537
512.80 1.402002
512.90 1.437207
513.00 1.425609
513.10 1.363086
513.20 1.523673
513.30 1.742134
513.40 1.718479
513.50 1.621089
513.60 1.626065
513.70 1.732294
513.80 1.874695
513.90 1.834622
514.00 1.702624
514.10 1.70219
514.20 1.688445
514.30 1.640202
514.40 1.631175
514.50 1.566679
514.60 1.518739
514.70 1.486446
514.80 1.585904
514.90 1.675206
515.00 1.662951
515.10 1.600657
515.20 1.597475
515.30 1.504492
515.40 1.35948
515.50 1.378288
515.60 1.454911
515.70 1.526973
515.80 1.747861
515.90 1.900552
516.00 1.9369
516.10 2.008515
516.20 2.130268
516.30 2.103785
516.40 2.054153
516.50 2.12579
516.60 2.01389
516.70 1.558449
516.80 1.077802
516.90 0.7593478
517.00 0.6638023
517.10 0.6677327
517.20 0.6242773
517.30 0.591631
517.40 0.5547067
517.50 0.5850464
517.60 0.6070313
517.70 0.6201036
517.80 0.6122439
517.90 0.6387336
518.00 0.6305112
518.10 0.6710175
518.20 0.7103257
518.30 0.7721014
518.40 0.7686257
518.50 0.8415221
518.60 0.9518561
518.70 1.046425
518.80 1.030858
518.90 1.105668
519.00 1.164031
519.10 1.191998
519.20 1.201962
519.30 1.172311
519.40 1.106366
519.50 1.165019
519.60 1.19761
519.70 1.32322
519.80 1.482323
519.90 1.507184
520.00 1.379207
520.10 1.317935
520.20 1.307684
520.30 1.198221
520.40 1.097776
520.50 1.075808
520.60 1.013011
520.70 0.8461319
520.80 0.8033452
520.90 0.8218399
521.00 0.8730864
521.10 0.919548
521.20 1.128544
521.30 1.422397
521.40 1.645941
521.50 1.754556
521.60 1.760563
521.70 1.717919
521.80 1.728247
521.90 1.77666
522.00 1.789671
522.10 1.836153
522.20 1.960939
522.30 2.010103
522.40 1.980421
522.50 1.838422
522.60 1.749193
522.70 1.685791
522.80 1.766671
522.90 1.889054
523.00 2.006317
523.10 2.167154
523.20 2.119827
523.30 1.960341
523.40 1.904032
523.50 1.927724
523.60 2.004603
523.70 2.059445
523.80 2.007276
523.90 2.003558
524.00 2.033724
524.10 1.910991
524.20 1.591801
524.30 1.468904
524.40 1.537861
524.50 1.705613
524.60 1.756812
524.70 1.660479
524.80 1.600145
524.90 1.618609
525.00 1.682858
525.10 1.703891
525.20 1.72598
525.30 1.758728
525.40 1.784946
525.50 1.922985
525.60 2.041514
525.70 2.082261
525.80 1.9972
525.90 1.974998
526.00 1.939513
526.10 1.847267
526.20 1.70524
526.30 1.678281
526.40 1.721668
526.50 1.611078
526.60 1.511661
526.70 1.535337
526.80 1.631081
526.90 1.658603
527.00 1.424553
527.10 1.316144
527.20 1.512838
527.30 1.801762
527.40 1.982362
527.50 2.049812
527.60 1.977308
527.70 1.965709
527.80 1.921359
527.90 1.937661
528.00 1.966724
528.10 1.949201
528.20 1.937203
528.30 1.869964
528.40 1.890481
528.50 1.994471
528.60 2.150586
528.70 2.193495
528.80 2.216936
528.90 2.202347
529.00 2.186184
529.10 2.19051
529.20 2.204614
529.30 2.203492
529.40 2.171896
529.50 2.225107
529.60 2.264605
529.70 2.179344
529.80 1.96322
529.90 1.923254
530.00 2.008469
530.10 2.046042
530.20 2.032469
530.30 2.180966
530.40 2.355061
530.50 2.366104
530.60 2.316559
530.70 2.260739
530.80 2.175071
530.90 2.088344
531.00 2.060682
531.10 2.064936
531.20 2.066554
531.30 2.018973
531.40 2.113674
531.50 2.130724
531.60 2.127012
531.70 2.165084
531.80 2.146241
531.90 2.159776
532.00 2.1532
532.10 2.088006
532.20 2.096006
532.30 2.126101
532.40 2.163352
532.50 2.153773
532.60 2.143503
532.70 2.107853
532.80 2.002831
532.90 1.826781
533.00 1.82833
533.10 2.059419
533.20 2.179574
533.30 2.076153
533.40 2.060189
533.50 2.097632
533.60 2.133526
533.70 2.166013
533.80 2.156512
533.90 2.166147
534.00 2.129334
534.10 2.128417
534.20 2.144346
534.30 2.193487
534.40 2.277193
534.50 2.319229
534.60 2.246798
534.70 2.156432
534.80 2.130217
534.90 2.218986
535.00 2.381199
535.10 2.381014
535.20 2.484486
535.30 2.604407
535.40 2.669547
535.50 2.701558
535.60 2.663094
535.70 2.591075
535.80 2.542963
535.90 2.413039
536.00 2.253431
536.10 2.144672
536.20 2.163337
536.30 2.304443
536.40 2.33241
536.50 2.248229
536.60 2.261604
536.70 2.350841
536.80 2.390917
536.90 2.356917
537.00 2.326384
537.10 2.302789
537.20 2.119798
537.30 2.054175
537.40 2.231272
537.50 2.504784
537.60 2.638892
537.70 2.540425
537.80 2.472795
537.90 2.499834
538.00 2.619407
538.10 2.780892
538.20 2.803296
538.30 2.715281
538.40 2.660972
538.50 2.656027
538.60 2.653915
538.70 2.739468
538.80 2.709877
538.90 2.734365
539.00 2.76924
539.10 2.706626
539.20 2.692565
539.30 2.687513
539.40 2.599504
539.50 2.602634
539.60 2.559388
539.70 2.414961
539.80 2.287771
539.90 2.462733
540.00 2.743287
540.10 2.903151
540.20 2.92019
540.30 2.940079
540.40 2.932766
540.50 2.858019
540.60 2.70004
540.70 2.476566
540.80 2.509527
540.90 2.725398
541.00 2.659718
541.10 2.496581
541.20 2.463098
541.30 2.504983
541.40 2.580152
541.50 2.671753
541.60 2.837503
541.70 2.941394
541.80 2.85816
541.90 2.801837
542.00 2.886453
542.10 2.97549
542.20 2.967136
542.30 2.914386
542.40 2.853422
542.50 2.844299
542.60 2.799778
542.70 2.851554
542.80 3.028573
542.90 3.033415
543.00 2.792891
543.10 2.609809
543.20 2.562658
543.30 2.662258
543.40 2.744607
543.50 2.711211
543.60 2.743124
543.70 2.970543
543.80 3.097881
543.90 2.985221
544.00 3.010422
544.10 3.192899
544.20 3.287603
544.30 3.402527
544.40 3.441316
544.50 3.379235
544.60 3.195072
544.70 2.820478
544.80 2.328593
544.90 1.866805
545.00 1.552759
545.10 1.433723
545.20 1.322501
545.30 1.259219
545.40 1.296596
545.50 1.34043
545.60 1.374102
545.70 1.42101
545.80 1.434785
545.90 1.410971
546.00 1.397119
546.10 1.405367
546.20 1.442433
546.30 1.483143
546.40 1.565474
546.50 1.718634
546.60 1.780663
546.70 1.864297
546.80 1.967743
546.90 1.950039
547.00 1.824082
547.10 1.756337
547.20 1.706624
547.30 1.793979
547.40 1.889022
547.50 1.852549
547.60 1.746416
547.70 1.74255
547.80 1.752273
547.90 1.738965
548.00 1.705574
548.10 1.772832
548.20 1.906601
548.30 2.009783
548.40 1.969402
548.50 2.000222
548.60 2.081823
548.70 2.072705
548.80 1.961292
548.90 1.889726
549.00 1.901512
549.10 1.994573
549.20 2.059079
549.30 2.07104
549.40 2.024684
549.50 1.971507
549.60 1.8634
549.70 1.772143
549.80 1.660028
549.90 1.509259
550.00 1.404855
550.10 1.310281
550.20 1.231606
550.30 1.174901
550.40 1.215242
550.50 1.322529
550.60 1.29764
550.70 1.25635
550.80 1.253744
550.90 1.245021
551.00 1.242163
551.10 1.235658
551.20 1.23078
551.30 1.178882
551.40 1.129385
551.50 1.076637
551.60 1.041429
551.70 1.020397
551.80 1.047988
551.90 1.119626
552.00 1.084793
552.10 1.053814
552.20 1.062266
552.30 1.04687
552.40 1.062106
552.50 1.023275
552.60 0.9601186
552.70 0.9878701
552.80 1.091961
552.90 1.065732
553.00 1.046313
553.10 1.041649
553.20 1.074086
553.30 1.060638
553.40 0.9465985
553.50 0.8767202
553.60 0.8964644
553.70 0.8812914
553.80 0.8965482
553.90 0.9361743
554.00 0.8572322
554.10 0.8131835
554.20 0.8696685
554.30 0.8446733
554.40 0.8271661
554.50 0.8543701
554.60 0.9472782
554.70 0.9172988
554.80 0.9403778
554.90 0.9434933
555.00 0.9115144
555.10 0.9370954
555.20 1.052282
555.30 1.037347
555.40 0.9676481
555.50 0.9822502
555.60 1.049131
555.70 1.155534
555.80 1.179674
555.90 1.259725
556.00 1.289717
556.10 1.30291
556.20 1.368074
556.30 1.420166
556.40 1.408411
556.50 1.434413
556.60 1.49626
556.70 1.5815
556.80 1.604421
556.90 1.590333
557.00 1.65098
557.10 1.751543
557.20 1.770939
557.30 1.766965
557.40 1.766641
557.50 1.766641
557.60 1.766641
557.70 1.766641
557.80 1.766641
557.90 1.766641
558.00 1.766641
558.10 1.766636
558.20 1.766466
558.30 1.765439
558.40 1.759199
558.50 1.851058
558.60 2.005666
558.70 2.072414
558.80 2.131596
558.90 2.093507
559.00 2.05972
559.10 2.10259
559.20 2.080895
559.30 2.054199
559.40 2.095849
559.50 2.081868
559.60 1.968823
559.70 1.970649
559.80 1.892035
559.90 1.611775
560.00 1.435663
560.10 1.529384
560.20 1.608
560.30 1.636765
560.40 1.674066
560.50 1.684395
560.60 1.621893
560.70 1.721498
560.80 1.79098
560.90 1.798555
561.00 1.704561
561.10 1.694731
561.20 1.767802
561.30 1.829627
561.40 1.874274
561.50 1.846833
561.60 1.810072
561.70 1.649433
561.80 1.561561
561.90 1.6218
562.00 1.660644
562.10 1.583333
562.20 1.565377
562.30 1.629318
562.40 1.638164
562.50 1.643842
562.60 1.713972
562.70 1.824152
562.80 1.883822
562.90 1.759419
563.00 1.526901
563.10 1.453045
563.20 1.457419
563.30 1.541408
563.40 1.666533
563.50 1.763465
563.60 1.730971
563.70 1.69053
563.80 1.672411
563.90 1.615289
564.00 1.607395
564.10 1.67967
564.20 1.696295
564.30 1.650597
564.40 1.604483
564.50 1.704628
564.60 1.799972
564.70 1.822628
564.80 1.77868
564.90 1.827084
565.00 1.909357
565.10 1.935383
565.20 1.905805
565.30 1.90476
565.40 1.980973
565.50 2.013561
565.60 2.066922
565.70 2.063913
565.80 2.038843
565.90 2.081238
566.00 2.159583
566.10 2.182345
566.20 2.107277
566.30 2.011786
566.40 1.834906
566.50 1.76107
566.60 1.777184
566.70 1.838386
566.80 1.802108
566.90 1.67686
567.00 1.652849
567.10 1.678376
567.20 1.66416
567.30 1.658628
567.40 1.762711
567.50 1.815002
567.60 1.825235
567.70 1.800578
567.80 1.893435
567.90 1.959274
568.00 1.925161
568.10 1.909903
568.20 1.92487
568.30 1.945417
568.40 1.941127
568.50 2.05468
568.60 2.223414
568.70 2.193254
568.80 2.067469
568.90 1.900688
569.00 1.853411
569.10 1.937015
569.20 1.977049
569.30 1.994226
569.40 2.025318
569.50 2.070715
569.60 2.126238
569.70 2.166252
569.80 2.241293
569.90 2.249823
570.00 2.179795
570.10 2.227222
570.20 2.347467
570.30 2.401905
570.40 2.319991
570.50 2.329134
570.60 2.355778
570.70 2.415035
570.80 2.413087
570.90 2.473059
571.00 2.521993
571.10 2.53463
571.20 2.542507
571.30 2.472585
571.40 2.432158
571.50 2.375009
571.60 2.370849
571.70 2.33386
571.80 2.176145
571.90 2.086173
572.00 2.105299
572.10 2.140859
572.20 2.209871
572.30 2.305281
572.40 2.260528
572.50 2.176587
572.60 2.205903
572.70 2.236609
572.80 2.243413
572.90 2.280987
573.00 2.325937
573.10 2.367346
573.20 2.440323
573.30 2.513315
573.40 2.474391
573.50 2.451222
573.60 2.444135
573.70 2.36278
573.80 2.301972
573.90 2.244577
574.00 2.350709
574.10 2.408401
574.20 2.359772
574.30 2.289755
574.40 2.289214
574.50 2.317511
574.60 2.461337
574.70 2.613623
574.80 2.580173
574.90 2.636195
575.00 2.756892
575.10 2.77362
575.20 2.657515
575.30 2.662878
575.40 2.791861
575.50 2.846443
575.60 2.82606
575.70 2.840907
575.80 2.83123
575.90 2.725029
576.00 2.503636
576.10 2.369003
576.20 2.269744
576.30 2.155208
576.40 1.948403
576.50 1.840456
576.60 1.87205
576.70 1.829859
576.80 1.852427
576.90 2.042999
577.00 2.220174
577.10 2.162516
577.20 2.129025
577.30 2.226245
577.40 2.307763
577.50 2.250331
577.60 2.169684
577.70 2.16599
577.80 2.213967
577.90 2.270877
578.00 2.206526
578.10 2.221928
578.20 2.328669
578.30 2.434434
578.40 2.539745
578.50 2.62373
578.60 2.582317
578.70 2.443941
578.80 2.42297
578.90 2.469162
579.00 2.453261
579.10 2.439802
579.20 2.469931
579.30 2.548231
579.40 2.649402
579.50 2.722987
579.60 2.730878
579.70 2.707465
579.80 2.726948
579.90 2.853407
580.00 2.872736
580.10 2.831605
580.20 2.874363
580.30 2.912433
580.40 2.932568
580.50 2.908205
580.60 2.951949
580.70 3.010361
580.80 2.987014
580.90 2.911519
581.00 2.85738
581.10 2.600342
581.20 2.31592
581.30 2.23698
581.40 2.198273
581.50 2.108913
581.60 2.019263
581.70 1.978705
581.80 1.943051
581.90 1.918946
582.00 2.017349
582.10 2.01595
582.20 1.945351
582.30 1.920643
582.40 1.921615
582.50 2.034726
582.60 2.12016
582.70 2.13833
582.80 2.091665
582.90 2.161519
583.00 2.179873
583.10 2.178162
583.20 2.206147
583.30 2.234462
583.40 2.189766
583.50 2.256275
583.60 2.455414
583.70 2.454698
583.80 2.362333
583.90 2.310409
584.00 2.167138
584.10 2.05844
584.20 2.015671
584.30 2.09069
584.40 2.140405
584.50 2.153729
584.60 2.23274
584.70 2.261831
584.80 2.080018
584.90 1.743262
585.00 1.547521
585.10 1.424271
585.20 1.419331
585.30 1.451545
585.40 1.478546
585.50 1.488835
585.60 1.498161
585.70 1.496669
585.80 1.514507
585.90 1.545915
586.00 1.536383
586.10 1.595738
586.20 1.645843
586.30 1.553801
586.40 1.378649
586.50 1.320863
586.60 1.398625
586.70 1.512945
586.80 1.457416
586.90 1.391477
587.00 1.453105
587.10 1.502727
587.20 1.407935
587.30 1.345138
587.40 1.274357
587.50 1.203084
587.60 1.253023
587.70 1.337113
587.80 1.299791
587.90 1.191366
588.00 1.111023
588.10 1.109259
588.20 1.097971
588.30 1.051219
588.40 1.040033
588.50 0.9959576
588.60 0.9539158
588.70 0.9233481
588.80 0.819237
588.90 0.6264
589.00 0.5071819
589.10 0.6665863
589.20 0.7830443
589.30 0.6380142
589.40 0.5581336
589.50 0.5452382
589.60 0.6047564
589.70 0.6644799
589.80 0.6819202
589.90 0.6042713
590.00 0.6888142
590.10 0.8420456
590.20 0.8668365
590.30 0.9059465
590.40 0.9738466
590.50 0.9824291
590.60 0.9391515
590.70 0.8665411
590.80 0.8833315
590.90 0.9127273
591.00 0.9763442
591.10 1.00469
591.20 1.034917
591.30 1.078577
591.40 1.039237
591.50 1.057768
591.60 1.069545
591.70 1.160617
591.80 1.22899
591.90 1.175984
592.00 1.136913
592.10 1.213746
592.20 1.270743
592.30 1.147023
592.40 1.081276
592.50 1.164005
592.60 1.17391
592.70 1.125845
592.80 1.142081
592.90 1.201927
593.00 1.205581
593.10 1.156227
593.20 1.16162
593.30 1.221628
593.40 1.320596
593.50 1.403079
593.60 1.402687
593.70 1.308286
593.80 1.284122
593.90 1.404022
594.00 1.476617
594.10 1.482531
594.20 1.506346
594.30 1.458642
594.40 1.492398
594.50 1.5924
594.60 1.61297
594.70 1.536589
594.80 1.478972
594.90 1.48502
595.00 1.388317
595.10 1.341141
595.20 1.347402
595.30 1.415041
595.40 1.454116
595.50 1.428466
595.60 1.36837
595.70 1.220583
595.80 1.156407
595.90 1.175038
596.00 1.239569
596.10 1.280842
596.20 1.341765
596.30 1.389543
596.40 1.366761
596.50 1.299822
596.60 1.337708
596.70 1.400205
596.80 1.442852
596.90 1.465327
597.00 1.442517
597.10 1.47739
597.20 1.518443
597.30 1.508202
597.40 1.435355
597.50 1.373243
597.60 1.404481
597.70 1.441913
597.80 1.487812
597.90 1.440281
598.00 1.420143
598.10 1.411523
598.20 1.498718
598.30 1.561636
598.40 1.557119
598.50 1.542351
598.60 1.575956
598.70 1.612612
598.80 1.569842
598.90 1.551554
599.00 1.580446
599.10 1.592074
599.20 1.587854
599.30 1.652376
599.40 1.750799
599.50 1.832021
599.60 1.904917
599.70 1.910539
599.80 1.874197
599.90 1.753555
600.00 1.674374
600.10 1.645573
600.20 1.622483
600.30 1.632387
600.40 1.653335
600.50 1.687986
600.60 1.658571
600.70 1.640045
600.80 1.579826
600.90 1.538192
601.00 1.604687
601.10 1.719102
601.20 1.75628
601.30 1.747428
601.40 1.718335
601.50 1.705755
601.60 1.727139
601.70 1.779262
601.80 1.781708
601.90 1.79978
602.00 1.858886
602.10 1.926942
602.20 1.91743
602.30 1.913999
602.40 1.866187
602.50 1.839079
602.60 1.854843
602.70 1.919041
602.80 1.985977
602.90 1.975426
603.00 1.927909
603.10 1.958571
603.20 1.997311
603.30 2.005209
603.40 1.995549
603.50 1.983731
603.60 1.97468
603.70 1.860087
603.80 1.795555
603.90 1.850245
604.00 1.916706
604.10 1.984933
604.20 2.033119
604.30 2.102671
604.40 2.047527
604.50 2.018199
604.60 2.093018
604.70 2.126371
604.80 2.133735
604.90 2.181236
605.00 2.260436
605.10 2.301731
605.20 2.262109
605.30 2.255125
605.40 2.214401
605.50 2.18867
605.60 2.237035
605.70 2.251531
605.80 2.245752
605.90 2.299003
606.00 2.399255
606.10 2.379626
606.20 2.31957
606.30 2.295951
606.40 2.248499
606.50 2.162446
606.60 2.097537
606.70 2.066447
606.80 2.098031
606.90 2.239362
607.00 2.367589
607.10 2.404818
607.20 2.388223
607.30 2.388229
607.40 2.337693
607.50 2.304623
607.60 2.327932
607.70 2.40538
607.80 2.454897
607.90 2.414514
608.00 2.314254
608.10 2.152059
608.20 2.072143
608.30 2.059218
608.40 2.063619
608.50 2.135775
608.60 2.230058
608.70 2.271176
608.80 2.256319
608.90 2.297246
609.00 2.368207
609.10 2.322955
609.20 2.284973
609.30 2.336348
609.40 2.438681
609.50 2.432569
609.60 2.43224
609.70 2.456527
609.80 2.445611
609.90 2.446402
610.00 2.499747
610.10 2.47536
610.20 2.35453
610.30 2.236407
610.40 2.236696
610.50 2.239328
610.60 2.251554
610.70 2.326313
610.80 2.443941
610.90 2.459593
611.00 2.378168
611.10 2.30541
611.20 2.263048
611.30 2.282895
611.40 2.354911
611.50 2.357947
611.60 2.337828
611.70 2.23687
611.80 2.12365
611.90 2.085596
612.00 2.114444
612.10 2.163499
612.20 2.144169
612.30 2.093365
612.40 2.090059
612.50 2.119844
612.60 2.20862
612.70 2.290424
612.80 2.302316
612.90 2.289091
613.00 2.300847
613.10 2.314229
613.20 2.330065
613.30 2.252097
613.40 2.129211
613.50 2.103534
613.60 2.169971
613.70 2.242532
613.80 2.264719
613.90 2.261752
614.00 2.28058
614.10 2.264846
614.20 2.207423
614.30 2.162497
614.40 2.179368
614.50 2.241756
614.60 2.288161
614.70 2.241997
614.80 2.060744
614.90 1.938113
615.00 1.835725
615.10 1.756598
615.20 1.731856
615.30 1.769354
615.40 1.815816
615.50 1.803443
615.60 1.808514
615.70 1.694567
615.80 1.577086
615.90 1.545962
616.00 1.437093
616.10 1.243827
616.20 1.112585
616.30 1.072527
616.40 1.075578
616.50 1.110251
616.60 1.164111
616.70 1.185108
616.80 1.155008
616.90 1.185186
617.00 1.206239
617.10 1.22415
617.20 1.174857
617.30 1.14495
617.40 1.170702
617.50 1.101603
617.60 1.057471
617.70 1.106947
617.80 1.153646
617.90 1.14243
618.00 1.205264
618.10 1.24684
618.20 1.283813
618.30 1.272215
618.40 1.161648
618.50 1.089181
618.60 1.076367
618.70 1.057494
618.80 1.003925
618.90 0.9831856
619.00 0.9852826
619.10 0.9666548
619.20 0.9904234
619.30 0.989779
619.40 0.9975061
619.50 0.9938829
619.60 1.007335
619.70 1.008371
619.80 0.9877833
619.90 1.01437
620.00 1.044067
620.10 1.053088
620.20 1.049231
620.30 1.095391
620.40 1.085703
620.50 1.101138
620.60 1.148869
620.70 1.171032
620.80 1.13507
620.90 1.109482
621.00 1.118323
621.10 1.08666
621.20 1.068006
621.30 1.061946
621.40 1.019678
621.50 0.9983922
621.60 0.9883036
621.70 0.9829884
621.80 1.00006
621.90 1.011462
622.00 1.000769
622.10 1.032407
622.20 1.037223
622.30 0.9993938
622.40 0.9280834
622.50 0.9170512
622.60 0.935583
622.70 0.9476009
622.80 0.9059709
622.90 0.8730316
623.00 0.9166897
623.10 0.9409962
623.20 0.9602188
623.30 0.9831401
623.40 0.9536251
623.50 0.9104493
623.60 0.9795631
623.70 1.039776
623.80 1.059708
623.90 1.068317
624.00 1.009065
624.10 0.9445498
624.20 0.9724963
624.30 1.065013
624.40 1.051076
624.50 0.9730302
624.60 0.9677529
624.70 1.027927
624.80 1.069926
624.90 1.108602
625.00 1.117795
625.10 1.135638
625.20 1.11309
625.30 1.117661
625.40 1.140334
625.50 1.0873
625.60 1.096374
625.70 1.132762
625.80 1.166138
625.90 1.160003
626.00 1.17486
626.10 1.172412
626.20 1.169367
626.30 1.249229
626.40 1.34738
626.50 1.355717
626.60 1.342918
626.70 1.359426
626.80 1.392703
626.90 1.368974
627.00 1.338499
627.10 1.340164
627.20 1.334963
627.30 1.329708
627.40 1.376591
627.50 1.459011
627.60 1.434032
627.70 1.362795
627.80 1.286181
627.90 1.265982
628.00 1.290188
628.10 1.392429
628.20 1.480819
628.30 1.472542
628.40 1.477308
628.50 1.568564
628.60 1.622838
628.70 1.630812
628.80 1.618007
628.90 1.707139
629.00 1.76272
629.10 1.699598
629.20 1.611124
629.30 1.621279
629.40 1.700504
629.50 1.749893
629.60 1.752589
629.70 1.720992
629.80 1.769726
629.90 1.769572
630.00 1.725547
630.10 1.850113
630.20 2.065977
630.30 2.198421
630.40 2.037197
630.50 1.972233
630.60 2.047027
630.70 2.120778
630.80 2.232853
630.90 2.269413
631.00 2.284579
631.10 2.261698
631.20 2.287125
631.30 2.373287
631.40 2.46144
631.50 2.531522
631.60 2.548766
631.70 2.569005
631.80 2.642733
631.90 2.683705
632.00 2.657635
632.10 2.615368
632.20 2.568283
632.30 2.514094
632.40 2.471069
632.50 2.475103
632.60 2.540806
632.70 2.609966
632.80 2.658907
632.90 2.686695
633.00 2.693677
633.10 2.745995
633.20 2.797881
633.30 2.8426
633.40 2.850303
633.50 2.883356
633.60 2.921703
633.70 2.947679
633.80 2.993051
633.90 3.031769
634.00 3.048686
634.10 3.099346
634.20 3.183322
634.30 3.261038
634.40 3.309868
634.50 3.320077
634.60 3.335234
634.70 3.342278
634.80 3.350525
634.90 3.441851
635.00 3.48207
635.10 3.42819
635.20 3.339562
635.30 3.245312
635.40 3.121749
635.50 3.002739
635.60 2.957079
635.70 2.916027
635.80 2.880288
635.90 2.867678
636.00 2.86426
636.10 2.799097
636.20 2.708545
636.30 2.70342
636.40 2.840621
636.50 3.015662
636.60 3.087006
636.70 2.965328
636.80 2.805348
636.90 2.81712
637.00 2.939632
637.10 3.010558
637.20 2.998457
637.30 3.015585
637.40 3.072403
637.50 3.069497
637.60 3.019436
637.70 3.004798
637.80 2.999461
637.90 2.9958
638.00 2.91694
638.10 2.757867
638.20 2.654621
638.30 2.607677
638.40 2.588208
638.50 2.625138
638.60 2.671975
638.70 2.674698
638.80 2.627428
638.90 2.594522
639.00 2.615322
639.10 2.684844
639.20 2.775125
639.30 2.86059
639.40 2.91272
639.50 3.021317
639.60 3.178327
639.70 3.321064
639.80 3.393455
639.90 3.376581
640.00 3.354997
640.10 3.340177
640.20 3.37702
640.30 3.475202
640.40 3.534453
640.50 3.577343
640.60 3.632953
640.70 3.688462
640.80 3.732843
640.90 3.744082
641.00 3.736793
641.10 3.736219
641.20 3.752733
641.30 3.727475
641.40 3.704382
641.50 3.673759
641.60 3.623805
641.70 3.567518
641.80 3.523864
641.90 3.46021
642.00 3.389075
642.10 3.357382
642.20 3.327704
642.30 3.259184
642.40 3.201302
642.50 3.261845
642.60 3.362872
642.70 3.403729
642.80 3.399371
642.90 3.397613
643.00 3.457912
643.10 3.546951
643.20 3.601948
643.30 3.606959
643.40 3.596294
643.50 3.620257
643.60 3.682578
643.70 3.694342
643.80 3.655834
643.90 3.598072
644.00 3.582575
644.10 3.652662
644.20 3.784915
644.30 3.906901
644.40 4.020963
644.50 4.103521
644.60 4.111495
644.70 4.041567
644.80 3.904425
644.90 3.792929
645.00 3.723462
645.10 3.692732
645.20 3.735088
645.30 3.825498
645.40 3.938169
645.50 3.98335
645.60 4.031887
645.70 4.054382
645.80 4.049273
645.90 4.064887
646.00 4.069372
646.10 4.05247
646.20 4.026976
646.30 4.006385
646.40 3.989031
646.50 4.037025
646.60 4.180462
646.70 4.360143
646.80 4.452972
646.90 4.469107
647.00 4.496997
647.10 4.571182
647.20 4.602379
647.30 4.586933
647.40 4.579143
647.50 4.618844
647.60 4.720911
647.70 4.770676
647.80 4.744959
647.90 4.630804
648.00 4.456299
648.10 4.248927
648.20 4.140511
648.30 4.118891
648.40 4.108264
648.50 4.061767
648.60 3.962634
648.70 3.908352
648.80 3.962286
648.90 4.094374
649.00 4.238281
649.10 4.364963
649.20 4.381882
649.30 4.292378
649.40 4.225121
649.50 4.226892
649.60 4.258048
649.70 4.329158
649.80 4.446422
649.90 4.566649
650.00 4.589656
650.10 4.693235
650.20 4.788594
650.30 4.849145
650.40 4.916846
650.50 4.986936
650.60 5.082967
650.70 5.16495
650.80 5.213517
650.90 5.22568
651.00 5.273314
651.10 5.379605
651.20 5.41728
651.30 5.312372
651.40 5.178858
651.50 5.085634
651.60 5.071534
651.70 5.118835
651.80 5.26934
651.90 5.402331
652.00 5.495189
652.10 5.598778
652.20 5.699648
652.30 5.784283
652.40 5.849255
652.50 5.883289
652.60 5.866871
652.70 5.876658
652.80 5.98777
652.90 6.123229
653.00 6.179646
653.10 6.154072
653.20 6.176232
653.30 6.263951
653.40 6.345976
653.50 6.470092
653.60 6.539556
653.70 6.577519
653.80 6.68515
653.90 6.80573
654.00 6.915506
654.10 7.009056
654.20 7.014028
654.30 6.874454
654.40 6.661589
654.50 6.418574
654.60 6.196049
654.70 6.05616
654.80 5.970528
654.90 5.876847
655.00 5.756814
655.10 5.568113
655.20 5.361285
655.30 5.256591
655.40 5.268193
655.50 5.340839
655.60 5.360345
655.70 5.427182
655.80 5.535653
655.90 5.622251
656.00 5.768305
656.10 6.210913
656.20 7.24657
656.30 8.672843
656.40 9.749449
656.50 9.57221
656.60 8.150138
656.70 6.32547
656.80 5.140339
656.90 4.759804
657.00 4.722168
657.10 4.711631
657.20 4.579221
657.30 4.416857
657.40 4.342328
657.50 4.395914
657.60 4.54274
657.70 4.680688
657.80 4.712775
657.90 4.59389
658.00 4.402647
658.10 4.262593
658.20 4.228028
658.30 4.281651
658.40 4.44255
658.50 4.609158
658.60 4.750907
658.70 4.881674
658.80 5.003449
658.90 5.12967
659.00 5.158675
659.10 5.103652
659.20 5.055428
659.30 4.928439
659.40 4.729291
659.50 4.52233
659.60 4.387341
659.70 4.353385
659.80 4.3723
659.90 4.43436
660.00 4.47714
660.10 4.454654
660.20 4.406004
660.30 4.430267
660.40 4.498385
660.50 4.538328
660.60 4.522429
660.70 4.475199
660.80 4.439025
660.90 4.463887
661.00 4.473184
661.10 4.493473
661.20 4.556756
661.30 4.65565
661.40 4.737408
661.50 4.718473
661.60 4.704971
661.70 4.633104
661.80 4.505308
661.90 4.356894
662.00 4.220649
662.10 4.162417
662.20 4.130234
662.30 4.087118
662.40 4.023184
662.50 3.95314
662.60 3.8404
662.70 3.672607
662.80 3.507632
662.90 3.507138
663.00 3.669165
663.10 3.867512
663.20 4.033662
663.30 4.133835
663.40 4.132008
663.50 4.003258
663.60 3.790048
663.70 3.563399
663.80 3.369543
663.90 3.303299
664.00 3.372543
664.10 3.468506
664.20 3.582689
664.30 3.687269
664.40 3.792855
664.50 3.848979
664.60 3.870038
664.70 3.883006
664.80 3.852066
664.90 3.73634
665.00 3.525902
665.10 3.260013
665.20 2.99951
665.30 2.805015
665.40 2.72068
665.50 2.728195
665.60 2.801534
665.70 2.866675
665.80 2.898658
665.90 2.917266
666.00 2.905821
666.10 2.949182
666.20 3.002336
666.30 3.05862
666.40 3.138989
666.50 3.193349
666.60 3.265508
666.70 3.363888
666.80 3.46764
666.90 3.495076
667.00 3.482047
667.10 3.496623
667.20 3.523593
667.30 3.563073
667.40 3.540148
667.50 3.496577
667.60 3.467649
667.70 3.475837
667.80 3.501671
667.90 3.464752
668.00 3.35244
668.10 3.13732
668.20 2.834429
668.30 2.574148
668.40 2.475534
668.50 2.5136
668.60 2.581453
668.70 2.649961
668.80 2.717366
668.90 2.77559
669.00 2.795343
669.10 2.812701
669.20 2.799223
669.30 2.751426
669.40 2.756862
669.50 2.783142
669.60 2.792309
669.70 2.844872
669.80 2.928871
669.90 2.981713
670.00 2.979901
670.10 2.974948
670.20 2.985421
670.30 3.030268
670.40 3.116252
670.50 3.176774
670.60 3.203945
670.70 3.22755
670.80 3.276714
670.90 3.348191
671.00 3.354806
671.10 3.308606
671.20 3.247153
671.30 3.19855
671.40 3.136313
671.50 2.999648
671.60 2.792363
671.70 2.588831
671.80 2.431756
671.90 2.300836
672.00 2.223992
672.10 2.212897
672.20 2.267996
672.30 2.340656
672.40 2.397476
672.50 2.424815
672.60 2.484169
672.70 2.562374
672.80 2.574802
672.90 2.585997
673.00 2.634749
673.10 2.682573
673.20 2.679184
673.30 2.636586
673.40 2.617115
673.50 2.651076
673.60 2.681089
673.70 2.742
673.80 2.81228
673.90 2.860787
674.00 2.905465
674.10 2.929309
674.20 2.958392
674.30 3.008583
674.40 3.075117
674.50 3.09779
674.60 3.080056
674.70 3.005467
674.80 2.841921
674.90 2.656662
675.00 2.526103
675.10 2.472349
675.20 2.504935
675.30 2.573162
675.40 2.624804
675.50 2.655622
675.60 2.705605
675.70 2.746133
675.80 2.788841
675.90 2.825242
676.00 2.81627
676.10 2.798853
676.20 2.808055
676.30 2.879304
676.40 2.989991
676.50 3.044331
676.60 3.105815
676.70 3.195876
676.80 3.229958
676.90 3.241898
677.00 3.254973
677.10 3.25711
677.20 3.256538
677.30 3.271726
677.40 3.295101
677.50 3.328843
677.60 3.414518
677.70 3.477448
677.80 3.5007
677.90 3.479733
678.00 3.436477
678.10 3.342115
678.20 3.159751
678.30 2.978179
678.40 2.78193
678.50 2.614545
678.60 2.532751
678.70 2.527924
678.80 2.565877
678.90 2.596983
679.00 2.649798
679.10 2.703768
679.20 2.733549
679.30 2.764994
679.40 2.77899
679.50 2.806123
679.60 2.870356
679.70 2.930932
679.80 2.956437
679.90 2.946597
680.00 2.962069
680.10 3.005619
680.20 3.083428
680.30 3.160583
680.40 3.194964
680.50 3.166663
680.60 3.089197
680.70 3.011962
680.80 3.015815
680.90 3.128124
681.00 3.191424
681.10 3.205749
681.20 3.252748
681.30 3.30528
681.40 3.341246
681.50 3.31505
681.60 3.2238
681.70 3.100015
681.80 3.037887
681.90 3.039884
682.00 3.059761
682.10 3.115205
682.20 3.152646
682.30 3.134789
682.40 3.0996
682.50 3.10384
682.60 3.160831
682.70 3.207918
682.80 3.215466
682.90 3.275916
683.00 3.446777
683.10 3.537832
683.20 3.475676
683.30 3.35665
683.40 3.303642
683.50 3.376999
683.60 3.417759
683.70 3.388552
683.80 3.311495
683.90 3.239653
684.00 3.280399
684.10 3.389637
684.20 3.434968
684.30 3.440959
684.40 3.487905
684.50 3.549829
684.60 3.554451
684.70 3.48619
684.80 3.42504
684.90 3.419366
685.00 3.409058
685.10 3.330711
685.20 3.184304
685.30 3.071328
685.40 3.043392
685.50 3.061423
685.60 3.107569
685.70 3.135532
685.80 3.152693
685.90 3.188598
686.00 3.182448
686.10 3.143499
686.20 3.107457
686.30 3.093408
686.40 3.144053
686.50 3.238595
686.60 3.33227
686.70 3.397487
686.80 3.375891
686.90 3.235373
687.00 3.159356
687.10 3.218371
687.20 3.311662
687.30 3.377788
687.40 3.439041
687.50 3.544332
687.60 3.640425
687.70 3.697573
687.80 3.737271
687.90 3.765314
688.00 3.797479
688.10 3.764707
688.20 3.701717
688.30 3.673166
688.40 3.641588
688.50 3.578671
688.60 3.460525
688.70 3.35953
688.80 3.415137
688.90 3.596132
689.00 3.745323
689.10 3.786061
689.20 3.69004
689.30 3.595392
689.40 3.640015
689.50 3.768836
689.60 3.887429
689.70 3.919282
689.80 3.876113
689.90 3.844259
690.00 3.813766
690.10 3.70034
690.20 3.536746
690.30 3.446159
690.40 3.515253
690.50 3.69036
690.60 3.878251
690.70 4.047373
690.80 4.170103
690.90 4.295452
691.00 4.378372
691.10 4.35967
691.20 4.318591
691.30 4.310387
691.40 4.407295
691.50 4.485596
691.60 4.476555
691.70 4.385893
691.80 4.17951
691.90 3.910116
692.00 3.666634
692.10 3.606157
692.20 3.755287
692.30 4.015144
692.40 4.280991
692.50 4.53248
692.60 4.705638
692.70 4.71295
692.80 4.644035
692.90 4.587575
693.00 4.626358
693.10 4.748082
693.20 4.899068
693.30 5.028912
693.40 5.098201
693.50 5.104123
693.60 5.068007
693.70 5.061194
693.80 5.108084
693.90 5.151688
694.00 5.185746
694.10 5.219008
694.20 5.310339
694.30 5.50703
694.40 5.720622
694.50 5.879818
694.60 6.002987
694.70 6.108308
694.80 6.21551
694.90 6.342337
695.00 6.40692
695.10 6.390597
695.20 6.241869
695.30 6.033876
695.40 5.841183
695.50 5.70547
695.60 5.69032
695.70 5.709941
695.80 5.763962
695.90 5.790148
696.00 5.791035
696.10 5.779509
696.20 5.780744
696.30 5.851917
696.40 5.951568
696.50 6.06667
696.60 6.179915
696.70 6.259323
696.80 6.297263
696.90 6.309659
697.00 6.293912
697.10 6.225254
697.20 6.147442
697.30 6.079551
697.40 6.082666
697.50 6.186678
697.60 6.362168
697.70 6.54017
697.80 6.658971
697.90 6.73844
698.00 6.78697
698.10 6.782209
698.20 6.746129
698.30 6.761756
698.40 6.862624
698.50 6.983515
698.60 7.022586
698.70 6.979397
698.80 6.947999
698.90 6.907307
699.00 6.864516
699.10 6.760284
699.20 6.624029
699.30 6.588217
699.40 6.606831
699.50 6.636176
699.60 6.71605
699.70 6.811442
699.80 6.880171
699.90 6.902808
700.00 6.868937
700.10 6.869004
700.20 6.943923
700.30 7.054703
700.40 7.11816
700.50 7.058525
700.60 6.930852
700.70 6.915116
700.80 7.061188
700.90 7.277028
701.00 7.399866
701.10 7.390876
701.20 7.386679
701.30 7.523181
701.40 7.780406
701.50 7.945158
701.60 7.933365
701.70 7.829715
701.80 7.763728
701.90 7.797586
702.00 7.913978
702.10 8.096443
702.20 8.270229
702.30 8.25598
702.40 7.984197
702.50 7.636521
702.60 7.457216
702.70 7.579773
702.80 7.923287
702.90 8.411697
703.00 8.913894
703.10 9.166908
703.20 9.134413
703.30 9.01447
703.40 8.980993
703.50 9.168546
703.60 9.540713
703.70 9.896737
703.80 10.04874
703.90 10.00489
704.00 9.936107
704.10 10.02408
704.20 10.27586
704.30 10.52848
704.40 10.66612
704.50 10.71277
704.60 10.73999
704.70 10.79183
704.80 10.85023
704.90 10.87717
705.00 10.85355
705.10 10.7911
705.20 10.72793
705.30 10.50439
705.40 9.711456
705.50 8.233688
705.60 6.455233
705.70 5.068283
705.80 4.482804
705.90 4.473402
706.00 4.535514
706.10 4.409351
706.20 4.183167
706.30 4.058804
706.40 4.154859
706.50 4.366324
706.60 4.557385
706.70 4.689273
706.80 4.762914
706.90 4.868951
707.00 5.011613
707.10 5.135291
707.20 5.261187
707.30 5.382585
707.40 5.500571
707.50 5.560266
707.60 5.525217
707.70 5.497617
707.80 5.541014
707.90 5.623305
708.00 5.709793
708.10 5.80801
708.20 5.88526
708.30 5.927119
708.40 5.984972
708.50 6.059524
708.60 6.059078
708.70 5.821756
708.80 5.212569
708.90 4.342359
709.00 3.548924
709.10 3.123446
709.20 3.103685
709.30 3.250342
709.40 3.354339
709.50 3.324368
709.60 3.244519
709.70 3.237403
709.80 3.320426
709.90 3.448655
710.00 3.545724
710.10 3.610864
710.20 3.643242
710.30 3.638572
710.40 3.619464
710.50 3.629881
710.60 3.716621
710.70 3.878906
710.80 4.105991
710.90 4.352699
711.00 4.548605
711.10 4.699626
711.20 4.822453
711.30 4.899881
711.40 4.904172
711.50 4.824605
711.60 4.745009
711.70 4.714763
711.80 4.755475
711.90 4.896345
712.00 5.096259
712.10 5.293919
712.20 5.448886
712.30 5.498892
712.40 5.395893
712.50 5.050212
712.60 4.349969
712.70 3.473623
712.80 2.7696
712.90 2.448636
713.00 2.497532
713.10 2.656621
713.20 2.696172
713.30 2.6129
713.40 2.541332
713.50 2.550911
713.60 2.629247
713.70 2.734501
713.80 2.822313
713.90 2.827155
714.00 2.801912
714.10 2.831711
714.20 2.932611
714.30 3.090217
714.40 3.225003
714.50 3.271861
714.60 3.253133
714.70 3.244388
714.80 3.270056
714.90 3.342129
715.00 3.416311
715.10 3.443959
715.20 3.466567
715.30 3.520262
715.40 3.609558
715.50 3.756894
715.60 3.919157
715.70 4.012381
715.80 3.978598
715.90 3.824775
716.00 3.617934
716.10 3.443078
716.20 3.398398
716.30 3.459915
716.40 3.535849
716.50 3.556135
716.60 3.5362
716.70 3.559077
716.80 3.608642
716.90 3.650226
717.00 3.712285
717.10 3.794481
717.20 3.934227
717.30 4.074024
717.40 4.135535
717.50 4.137386
717.60 4.098574
717.70 4.073428
717.80 4.081922
717.90 4.132201
718.00 4.217167
718.10 4.315451
718.20 4.411344
718.30 4.48168
718.40 4.576092
718.50 4.701731
718.60 4.833076
718.70 4.940182
718.80 4.992727
718.90 5.031776
719.00 5.079468
719.10 5.096173
719.20 5.083443
719.30 5.08089
719.40 5.111453
719.50 5.150165
719.60 5.100757
719.70 4.913237
719.80 4.601882
719.90 4.289338
720.00 4.157442
720.10 4.172841
720.20 4.209741
720.30 4.220332
720.40 4.186846
720.50 4.17497
720.60 4.215607
720.70 4.218237
720.80 4.260217
720.90 4.383546
721.00 4.491186
721.10 4.5422
721.20 4.569792
721.30 4.651363
721.40 4.764598
721.50 4.829327
721.60 4.85094
721.70 4.916522
721.80 5.041432
721.90 5.136775
722.00 5.179251
722.10 5.195731
722.20 5.232804
722.30 5.310922
722.40 5.419174
722.50 5.579188
722.60 5.716078
722.70 5.816277
722.80 5.922043
722.90 5.969524
723.00 5.924874
723.10 5.783917
723.20 5.585258
723.30 5.477828
723.40 5.554439
723.50 5.771128
723.60 6.005024
723.70 6.157312
723.80 6.229649
723.90 6.280697
724.00 6.290524
724.10 6.280312
724.20 6.306397
724.30 6.307694
724.40 6.403413
724.50 6.581497
724.60 6.746887
724.70 6.836468
724.80 6.848658
724.90 7.006826
725.00 7.229875
725.10 7.349784
725.20 7.33201
725.30 7.250109
725.40 7.233159
725.50 7.337474
725.60 7.508637
725.70 7.643063
725.80 7.678948
725.90 7.645467
726.00 7.62406
726.10 7.677078
726.20 7.806532
726.30 7.99301
726.40 8.208292
726.50 8.333951
726.60 8.35297
726.70 8.351829
726.80 8.391967
726.90 8.471455
727.00 8.436088
727.10 8.160659
727.20 7.764631
727.30 7.547237
727.40 7.680823
727.50 8.02567
727.60 8.316391
727.70 8.452445
727.80 8.404697
727.90 8.254979
728.00 8.073318
728.10 8.002709
728.20 8.161379
728.30 8.363572
728.40 8.517647
728.50 8.649131
728.60 8.77451
728.70 8.951393
728.80 9.06427
728.90 9.080844
729.00 9.178986
729.10 9.295971
729.20 9.352086
729.30 9.364085
729.40 9.365788
729.50 9.429244
729.60 9.564264
729.70 9.736318
729.80 9.868252
729.90 9.927585
730.00 9.900316
730.10 9.85216
730.20 9.98479
730.30 10.23955
730.40 10.39132
730.50 10.41545
730.60 10.42991
730.70 10.49445
730.80 10.59215
730.90 10.71442
731.00 10.81616
731.10 10.84223
731.20 10.82395
731.30 10.88271
731.40 11.06772
731.50 11.26888
731.60 11.40843
731.70 11.47686
731.80 11.53391
731.90 11.58271
732.00 11.52153
732.10 11.48671
732.20 11.60037
732.30 11.76665
732.40 11.8511
732.50 11.77414
732.60 11.57979
732.70 11.35907
732.80 11.22052
732.90 11.37872
733.00 11.80198
733.10 12.18105
733.20 12.30135
733.30 12.2048
733.40 12.17865
733.50 12.3254
733.60 12.52815
733.70 12.72607
733.80 12.89399
733.90 13.05027
734.00 13.22842
734.10 13.30042
734.20 13.28701
734.30 13.24401
734.40 12.90969
734.50 12.38876
734.60 12.11863
734.70 12.19819
734.80 12.45878
734.90 12.70775
735.00 12.90298
735.10 13.06
735.20 13.15096
735.30 13.18825
735.40 13.20175
735.50 13.14356
735.60 12.97184
735.70 12.77229
735.80 12.6749
735.90 12.81932
736.00 13.12062
736.10 13.35728
736.20 13.44737
736.30 13.40993
736.40 13.42795
736.50 13.57312
736.60 13.74094
736.70 13.89215
736.80 13.98892
736.90 14.05329
737.00 14.20862
737.10 14.3808
737.20 14.4037
737.30 14.28043
737.40 14.11741
737.50 14.02758
737.60 14.01622
737.70 14.01831
737.80 14.08948
737.90 14.24923
738.00 14.42349
738.10 14.54067
738.20 14.54664
738.30 14.46359
738.40 14.40322
738.50 14.45812
738.60 14.59957
738.70 14.72791
738.80 14.81101
738.90 14.89852
739.00 15.01267
739.10 15.09325
739.20 15.05054
739.30 14.84706
739.40 14.57521
739.50 14.37565
739.60 14.32918
739.70 14.43385
739.80 14.60217
739.90 14.7437
740.00 14.79809
740.10 14.80843
740.20 14.88788
740.30 15.02324
740.40 15.10667
740.50 15.00644
740.60 14.71222
740.70 14.3953
740.80 14.27857
740.90 14.43621
741.00 14.71402
741.10 14.98655
741.20 15.15453
741.30 15.20068
741.40 15.22794
741.50 15.277
741.60 15.29903
741.70 15.19198
741.80 14.94171
741.90 14.65384
742.00 14.52412
742.10 14.59147
742.20 14.73945
742.30 14.9093
742.40 15.03505
742.50 15.11606
742.60 15.20483
742.70 15.28158
742.80 15.35534
742.90 15.45285
743.00 15.52475
743.10 15.57078
743.20 15.60608
743.30 15.56916
743.40 15.43158
743.50 15.23767
743.60 14.99104
743.70 14.84908
743.80 14.99036
743.90 15.31772
744.00 15.65382
744.10 15.7953
744.20 15.65912
744.30 15.3505
744.40 15.12468
744.50 15.08524
744.60 15.11852
744.70 15.12675
744.80 15.07017
744.90 14.98804
745.00 14.9493
745.10 15.03874
745.20 15.22276
745.30 15.37904
745.40 15.45591
745.50 15.39781
745.60 15.25958
745.70 15.19743
745.80 15.24467
745.90 15.33369
746.00 15.39625
746.10 15.40657
746.20 15.40906
746.30 15.43077
746.40 15.46913
746.50 15.53186
746.60 15.60699
746.70 15.65159
746.80 15.63808
746.90 15.64837
747.00 15.80515
747.10 16.09291
747.20 16.29697
747.30 16.16162
747.40 15.77433
747.50 15.4757
747.60 15.40108
747.70 15.59864
747.80 15.90487
747.90 16.02839
748.00 15.97852
748.10 15.86473
748.20 15.74328
748.30 15.79995
748.40 16.04682
748.50 16.21871
748.60 16.24003
748.70 16.10323
748.80 15.88085
748.90 15.77186
749.00 15.83327
749.10 15.97936
749.20 16.09323
749.30 16.09152
749.40 15.94516
749.50 15.71879
749.60 15.57116
749.70 15.61765
749.80 15.877
749.90 16.28456
750.00 16.68032
750.10 16.90385
750.20 16.94234
750.30 16.88887
750.40 16.85222
750.50 16.85695
750.60 16.78793
750.70 16.55055
750.80 16.31284
750.90 16.36673
751.00 16.75293
751.10 17.19051
751.20 17.34287
751.30 17.15793
751.40 16.87877
751.50 16.80375
751.60 16.97784
751.70 17.20961
751.80 17.30367
751.90 17.19662
752.00 16.9683
752.10 16.74194
752.20 16.73213
752.30 16.95049
752.40 17.18975
752.50 17.29921
752.60 17.07487
752.70 16.56487
752.80 16.13779
752.90 16.00389
753.00 16.21358
753.10 16.65122
753.20 17.09709
753.30 17.43516
753.40 17.51175
753.50 17.29067
753.60 17.04885
753.70 17.05167
753.80 17.33629
753.90 17.75244
754.00 18.10868
754.10 18.32404
754.20 18.37856
754.30 18.28959
754.40 18.22659
754.50 18.26078
754.60 18.32039
754.70 18.33092
754.80 18.20071
754.90 18.0474
755.00 18.05612
755.10 18.20434
755.20 18.33265
755.30 18.3356
755.40 18.24061
755.50 18.1317
755.60 18.08296
755.70 18.11698
755.80 18.21496
755.90 18.3444
756.00 18.46854
756.10 18.55437
756.20 18.53778
756.30 18.39704
756.40 18.22293
756.50 18.07056
756.60 17.8601
756.70 17.57892
756.80 17.31003
756.90 17.13612
757.00 17.19656
757.10 17.54963
757.20 18.06512
757.30 18.57593
757.40 18.93308
757.50 19.02352
757.60 18.85303
757.70 18.58926
757.80 18.36002
757.90 18.21161
758.00 18.2332
758.10 18.49998
758.20 18.92786
758.30 19.32991
758.40 19.55317
758.50 19.56111
758.60 19.44089
758.70 19.13485
758.80 18.38355
758.90 17.04451
759.00 15.1798
759.10 13.2861
759.20 12.0234
759.30 11.65467
759.40 12.03868
759.50 12.64178
759.60 13.0223
759.70 13.10586
759.80 13.10924
759.90 13.28753
760.00 13.61851
760.10 13.82471
760.20 13.63524
760.30 13.23436
760.40 13.11287
760.50 13.28276
760.60 13.48546
760.70 13.62096
760.80 13.62199
760.90 13.52608
761.00 13.43008
761.10 13.47641
761.20 13.83197
761.30 14.51311
761.40 15.1499
761.50 15.37931
761.60 15.28043
761.70 15.15167
761.80 15.33354
761.90 15.80285
762.00 16.18834
762.10 16.23478
762.20 16.02458
762.30 15.75896
762.40 15.58324
762.50 15.58248
762.60 15.43489
762.70 14.8138
762.80 13.73181
762.90 12.38688
763.00 11.25386
763.10 10.56838
763.20 10.2955
763.30 10.43886
763.40 10.84888
763.50 11.18086
763.60 11.21961
763.70 11.11192
763.80 11.07074
763.90 11.21212
764.00 11.28817
764.10 11.09736
764.20 11.01025
764.30 11.23073
764.40 11.43442
764.50 11.40905
764.60 11.21744
764.70 11.1124
764.80 11.32267
764.90 11.50308
765.00 11.33122
765.10 11.02748
765.20 10.81329
765.30 10.79686
765.40 10.82217
765.50 10.57967
765.60 10.24149
765.70 10.06748
765.80 10.05469
765.90 10.02162
766.00 9.585073
766.10 8.706844
766.20 7.655619
766.30 6.607526
766.40 5.590599
766.50 4.550404
766.60 3.670082
766.70 3.302524
766.80 3.581533
766.90 4.369963
767.00 5.262168
767.10 5.875031
767.20 6.177296
767.30 6.284346
767.40 6.373108
767.50 6.577964
767.60 6.878701
767.70 7.205943
767.80 7.486383
767.90 7.678434
768.00 7.82782
768.10 8.012203
768.20 8.227273
768.30 8.391566
768.40 8.479685
768.50 8.501472
768.60 8.494282
768.70 8.535955
768.80 8.633138
768.90 8.733062
769.00 8.771941
769.10 8.738359
769.20 8.693619
769.30 8.616864
769.40 8.449193
769.50 8.149827
769.60 7.681481
769.70 6.985983
769.80 6.031737
769.90 4.969338
770.00 4.137126
770.10 3.874849
770.20 4.300577
770.30 5.200531
770.40 6.153978
770.50 6.882548
770.60 7.295465
770.70 7.46383
770.80 7.58525
770.90 7.773085
771.00 8.066133
771.10 8.432412
771.20 8.794152
771.30 9.083056
771.40 9.22943
771.50 9.245541
771.60 9.205003
771.70 9.139935
771.80 9.164641
771.90 9.329287
772.00 9.440684
772.10 9.522198
772.20 9.687851
772.30 9.876154
772.40 10.0217
772.50 10.12747
772.60 10.27654
772.70 10.49251
772.80 10.744
772.90 10.96104
773.00 11.10889
773.10 11.18373
773.20 11.19658
773.30 11.21809
773.40 11.29365
773.50 11.4211
773.60 11.54146
773.70 11.61345
773.80 11.668
773.90 11.78037
774.00 11.97684
774.10 12.11177
774.20 12.03423
774.30 11.72834
774.40 11.26948
774.50 10.79505
774.60 10.40322
774.70 10.15678
774.80 10.01921
774.90 9.83477
775.00 9.548719
775.10 9.207799
775.20 8.892539
775.30 8.782418
775.40 8.907901
775.50 9.081783
775.60 9.25099
775.70 9.406837
775.80 9.427927
775.90 9.363961
776.00 9.395301
776.10 9.534335
776.20 9.667152
776.30 9.676004
776.40 9.573048
776.50 9.470555
776.60 9.477407
776.70 9.671968
776.80 9.988098
776.90 10.27247
777.00 10.43911
777.10 10.49678
777.20 10.52559
777.30 10.59984
777.40 10.70584
777.50 10.80327
777.60 10.88188
777.70 10.91917
777.80 10.94764
777.90 10.98688
778.00 10.98487
778.10 10.91041
778.20 10.73268
778.30 10.43432
778.40 10.08941
778.50 9.755686
778.60 9.533633
778.70 9.523157
778.80 9.657225
778.90 9.837959
779.00 10.00433
779.10 10.16073
779.20 10.37093
779.30 10.61257
779.40 10.76292
779.50 10.83212
779.60 10.90177
779.70 10.93139
779.80 10.85756
779.90 10.65589
780.00 10.41149
780.10 10.17867
780.20 10.07601
780.30 10.3096
780.40 10.85308
780.50 11.48981
780.60 12.01924
780.70 12.32575
780.80 12.46638
780.90 12.55886
781.00 12.5291
781.10 12.38676
781.20 12.29933
781.30 12.33793
781.40 12.48232
781.50 12.68374
781.60 12.88738
781.70 13.03498
781.80 13.11735
781.90 13.11255
782.00 12.97896
782.10 12.69215
782.20 12.29863
782.30 11.955
782.40 11.76397
782.50 11.68915
782.60 11.69407
782.70 11.67491
782.80 11.51397
782.90 11.19157
783.00 10.7188
783.10 10.30916
783.20 10.21225
783.30 10.38615
783.40 10.67708
783.50 10.96907
783.60 11.18989
783.70 11.31985
783.80 11.36574
783.90 11.36338
784.00 11.39552
784.10 11.46002
784.20 11.47698
784.30 11.48944
784.40 11.58274
784.50 11.77133
784.60 12.02724
784.70 12.24017
784.80 12.34497
784.90 12.33377
785.00 12.27145
785.10 12.27016
785.20 12.26478
785.30 12.27862
785.40 12.39045
785.50 12.45384
785.60 12.42404
785.70 12.41327
785.80 12.46233
785.90 12.59827
786.00 12.71973
786.10 12.66498
786.20 12.41275
786.30 12.1076
786.40 11.95856
786.50 11.94712
786.60 12.02478
786.70 12.19345
786.80 12.32133
786.90 12.40496
787.00 12.45391
787.10 12.42973
787.20 12.37314
787.30 12.26706
787.40 12.18948
787.50 12.23472
787.60 12.42251
787.70 12.75573
787.80 13.06495
787.90 13.21203
788.00 13.274
788.10 13.3298
788.20 13.46853
788.30 13.6817
788.40 13.81887
788.50 13.87853
788.60 13.86662
788.70 13.79847
788.80 13.82252
788.90 13.96846
789.00 14.18082
789.10 14.33639
789.20 14.33456
789.30 14.26927
789.40 14.24388
789.50 14.2805
789.60 14.31383
789.70 14.27001
789.80 14.12236
789.90 13.88646
790.00 13.63169
790.10 13.41736
790.20 13.31798
790.30 13.39626
790.40 13.62209
790.50 13.88593
790.60 14.05579
790.70 13.97188
790.80 13.60697
790.90 13.11631
791.00 12.65863
791.10 12.41008
791.20 12.38723
791.30 12.44834
791.40 12.6069
791.50 12.84248
791.60 13.03744
791.70 13.14625
791.80 13.12243
791.90 13.00152
792.00 12.89769
792.10 12.90753
792.20 12.99526
792.30 13.11089
792.40 13.28744
792.50 13.41668
792.60 13.41911
792.70 13.39406
792.80 13.41074
792.90 13.51649
793.00 13.71803
793.10 13.959
793.20 14.23278
793.30 14.52162
793.40 14.73225
793.50 14.8595
793.60 14.91335
793.70 14.86504
793.80 14.76176
793.90 14.61639
794.00 14.39623
794.10 14.10892
794.20 13.8291
794.30 13.70538
794.40 13.82186
794.50 14.07515
794.60 14.22041
794.70 14.01628
794.80 13.50266
794.90 13.05132
795.00 12.96745
795.10 13.32589
795.20 13.93762
795.30 14.52458
795.40 14.95856
795.50 15.19991
795.60 15.30406
795.70 15.36183
795.80 15.39819
795.90 15.42534
796.00 15.35422
796.10 15.10206
796.20 14.82258
796.30 14.70936
796.40 14.83992
796.50 15.18467
796.60 15.4939
796.70 15.57063
796.80 15.55478
796.90 15.61768
797.00 15.80337
797.10 16.02373
797.20 16.14089
797.30 16.16703
797.40 16.169
797.50 16.11898
797.60 15.99193
797.70 15.85268
797.80 15.78734
797.90 15.80777
798.00 15.84749
798.10 15.82995
798.20 15.70062
798.30 15.50838
798.40 15.38514
798.50 15.36967
798.60 15.37988
798.70 15.33021
798.80 15.1955
798.90 15.03768
799.00 14.98473
799.10 15.14072
799.20 15.45939
799.30 15.78644
799.40 16.02665
799.50 16.07089
799.60 15.8769
799.70 15.62086
799.80 15.46582
799.90 15.48299
800.00 15.65449
800.10 15.86056
800.20 16.02965
800.30 16.174
800.40 16.28282
800.50 16.32785
800.60 16.352
800.70 16.41614
800.80 16.51161
800.90 16.59409
801.00 16.67262
801.10 16.76852
801.20 16.88063
801.30 17.01355
801.40 17.15829
801.50 17.29691
801.60 17.38737
801.70 17.42331
801.80 17.43411
801.90 17.45887
802.00 17.53825
802.10 17.57249
802.20 17.46852
802.30 17.31276
802.40 17.2498
802.50 17.34816
802.60 17.52585
802.70 17.68014
802.80 17.83147
802.90 17.97774
803.00 18.07509
803.10 18.16417
803.20 18.27559
803.30 18.39045
803.40 18.46229
803.50 18.48003
803.60 18.47469
803.70 18.42678
803.80 18.34978
803.90 18.31171
804.00 18.34479
804.10 18.42073
804.20 18.50275
804.30 18.61584
804.40 18.75724
804.50 18.89277
804.60 18.98687
804.70 18.92446
804.80 18.74719
804.90 18.6762
805.00 18.80069
805.10 19.10287
805.20 19.53739
805.30 19.94795
805.40 20.18409
805.50 20.28381
805.60 20.31082
805.70 20.27166
805.80 20.22862
805.90 20.22874
806.00 20.2854
806.10 20.40112
806.20 20.5608
806.30 20.69006
806.40 20.64523
806.50 20.42953
806.60 20.26023
806.70 20.21665
806.80 20.21566
806.90 20.20953
807.00 20.14972
807.10 20.06006
807.20 20.06236
807.30 20.20367
807.40 20.43143
807.50 20.67841
807.60 20.84936
807.70 20.88428
807.80 20.89278
807.90 20.97367
808.00 21.07262
808.10 21.12398
808.20 21.14782
808.30 21.22378
808.40 21.36388
808.50 21.50904
808.60 21.63232
808.70 21.7036
808.80 21.68939
808.90 21.63616
809.00 21.60447
809.10 21.64499
809.20 21.79776
809.30 21.9563
809.40 21.99212
809.50 21.91112
809.60 21.78458
809.70 21.68916
809.80 21.67675
809.90 21.71593
810.00 21.73719
810.10 21.75255
810.20 21.77792
810.30 21.77069
810.40 21.72264
810.50 21.6537
810.60 21.60286
810.70 21.63505
810.80 21.802
810.90 22.08768
811.00 22.34151
811.10 22.42827
811.20 22.40979
811.30 22.40733
811.40 22.46918
811.50 22.52874
811.60 22.3931
811.70 22.03182
811.80 21.67445
811.90 21.57991
812.00 21.84187
812.10 22.2979
812.20 22.71498
812.30 22.9353
812.40 22.9625
812.50 22.95872
812.60 23.02239
812.70 23.14706
812.80 23.27611
812.90 23.3458
813.00 23.33963
813.10 23.28831
813.20 23.24961
813.30 23.23419
813.40 23.23762
813.50 23.28713
813.60 23.35698
813.70 23.44161
813.80 23.59436
813.90 23.76361
814.00 23.84819
814.10 23.84041
814.20 23.70527
814.30 23.45329
814.40 23.21748
814.50 23.0881
814.60 23.06995
814.70 23.11602
814.80 23.17786
814.90 23.18686
815.00 23.12067
815.10 23.13275
815.20 23.27604
815.30 23.37317
815.40 23.34806
815.50 23.27003
815.60 23.184
815.70 23.13908
815.80 23.13616
815.90 23.09402
816.00 22.9932
816.10 22.8399
816.20 22.65919
816.30 22.56276
816.40 22.62759
816.50 22.83486
816.60 23.15418
816.70 23.50241
816.80 23.73053
816.90 23.76484
817.00 23.62396
817.10 23.42707
817.20 23.31649
817.30 23.28029
817.40 23.30962
817.50 23.3549
817.60 23.21644
817.70 22.8565
817.80 22.42706
817.90 22.00741
818.00 21.58675
818.10 20.83957
818.20 19.34503
818.30 17.16484
818.40 14.91115
818.50 13.55727
818.60 13.72415
818.70 15.25883
818.80 17.33818
818.90 18.96952
819.00 19.82059
819.10 20.04172
819.20 19.66769
819.30 18.58413
819.40 16.76664
819.50 14.51696
819.60 12.66598
819.70 12.00192
819.80 12.66274
819.90 14.2823
820.00 16.15152
820.10 17.68544
820.20 18.8541
820.30 19.78577
820.40 20.44338
820.50 20.8024
820.60 20.82911
820.70 20.603
820.80 20.40166
820.90 20.3993
821.00 20.6619
821.10 21.07761
821.20 21.42767
821.30 21.60955
821.40 21.61537
821.50 21.55022
821.60 21.53808
821.70 21.57392
821.80 21.60125
821.90 21.61204
822.00 21.63485
822.10 21.71284
822.20 21.85674
822.30 21.98517
822.40 22.09991
822.50 22.30401
822.60 22.52424
822.70 22.65256
822.80 22.71201
822.90 22.72129
823.00 22.81094
823.10 23.0685
823.20 23.27015
823.30 23.24078
823.40 22.97642
823.50 22.61918
823.60 22.47985
823.70 22.63469
823.80 22.96233
823.90 23.36533
824.00 23.71728
824.10 23.93756
824.20 23.97682
824.30 23.84984
824.40 23.62871
824.50 23.46103
824.60 23.52829
824.70 23.82776
824.80 24.23626
824.90 24.5905
825.00 24.73243
825.10 24.5452
825.20 24.08204
825.30 23.58782
825.40 23.20396
825.50 22.91627
825.60 22.635
825.70 22.29018
825.80 21.99823
825.90 21.99551
826.00 22.39568
826.10 23.02137
826.20 23.54068
826.30 23.80008
826.40 23.8884
826.50 23.94608
826.60 24.08118
826.70 24.2244
826.80 24.2224
826.90 24.10862
827.00 23.9205
827.10 23.60831
827.20 23.13037
827.30 22.54455
827.40 22.05696
827.50 21.85669
827.60 21.94967
827.70 22.14819
827.80 22.34016
827.90 22.55033
828.00 22.69391
828.10 22.68361
828.20 22.54543
828.30 22.34703
828.40 22.16536
828.50 22.14019
828.60 22.31011
828.70 22.38888
828.80 22.18053
828.90 21.77239
829.00 21.21334
829.10 20.74167
829.20 20.66284
829.30 20.85904
829.40 21.10431
829.50 21.26432
829.60 21.28653
829.70 21.34032
829.80 21.49896
829.90 21.64866
830.00 21.15007
830.10 20.97218
830.20 20.79429
830.30 20.52167
830.40 20.24905
830.50 20.02222
830.60 19.79539
830.70 20.01673
830.80 20.23806
830.90 20.6406
831.00 21.04314
831.10 21.2209
831.20 21.39866
831.30 21.26828
831.40 21.13791
831.50 21.20101
831.60 21.26411
831.70 21.39882
831.80 21.53354
831.90 21.74997
832.00 21.9664
832.10 21.91812
832.20 21.86984
832.30 21.96588
832.40 22.06192
832.50 22.04875
832.60 22.03558
832.70 21.55379
832.80 21.072
832.90 20.92076
833.00 20.76952
833.10 21.2644
833.20 21.75928
833.30 22.01756
833.40 22.27584
833.50 21.78102
833.60 21.2862
833.70 21.04781
833.80 20.80941
833.90 21.12464
834.00 21.43987
834.10 21.74159
834.20 22.04331
834.30 22.12178
834.40 22.20026
834.50 21.9517
834.60 21.70314
834.70 21.37751
834.80 21.05189
834.90 20.97104
835.00 20.89019
835.10 21.10776
835.20 21.32533
835.30 21.36338
835.40 21.40142
835.50 21.38098
835.60 21.36054
835.70 21.56629
835.80 21.77204
835.90 21.83072
836.00 21.8894
836.10 21.95621
836.20 22.02302
836.30 21.82077
836.40 21.61852
836.50 21.44203
836.60 21.26553
836.70 21.50825
836.80 21.75096
836.90 22.15512
837.00 22.55928
837.10 22.59977
837.20 22.64026
837.30 22.3129
837.40 21.98554
837.50 21.35993
837.60 20.73433
837.70 20.49458
837.80 20.25484
837.90 20.36145
838.00 20.46805
838.10 20.69154
838.20 20.91503
838.30 20.69723
838.40 20.47943
838.50 20.2913
838.60 20.10317
838.70 19.78601
838.80 19.46886
838.90 19.07369
839.00 18.67853
839.10 19.14308
839.20 19.60764
839.30 20.08055
839.40 20.55345
839.50 20.54221
839.60 20.53097
839.70 20.49728
839.80 20.4636
839.90 20.82437
840.00 21.18515
840.10 21.03107
840.20 21.14563
840.30 21.41758
840.40 21.68552
840.50 21.87361
840.60 22.06369
840.70 22.25348
840.80 22.42505
840.90 22.52506
841.00 22.46612
841.10 22.4563
841.20 22.22882
841.30 21.88267
841.40 21.73685
841.50 21.71983
841.60 21.82594
841.70 22.30433
841.80 22.88749
841.90 22.79466
842.00 22.39677
842.10 21.66368
842.20 21.02354
842.30 20.67735
842.40 20.83515
842.50 20.9628
842.60 20.77513
842.70 20.57783
842.80 20.23496
842.90 19.98093
843.00 20.00581
843.10 20.3365
843.20 20.60334
843.30 19.99196
843.40 19.21579
843.50 17.8141
843.60 16.34041
843.70 15.25334
843.80 15.36284
843.90 15.55981
844.00 16.58634
844.10 17.61338
844.20 17.79358
844.30 17.37238
844.40 16.58314
844.50 15.448
844.60 14.44587
844.70 14.32698
844.80 14.38432
844.90 14.88184
845.00 15.36844
845.10 15.53698
845.20 15.01922
845.30 14.36881
845.40 13.41137
845.50 12.5566
845.60 12.33434
845.70 12.28885
845.80 12.35154
845.90 12.61488
846.00 12.86835
846.10 13.0385
846.20 13.19261
846.30 13.4551
846.40 13.66684
846.50 13.53712
846.60 13.03533
846.70 12.54907
846.80 12.40162
846.90 12.43689
847.00 12.63623
847.10 12.59395
847.20 12.42705
847.30 12.41296
847.40 12.53282
847.50 12.82171
847.60 13.07782
847.70 13.38877
847.80 13.68047
847.90 13.73114
848.00 13.68126
848.10 13.68096
848.20 13.7145
848.30 13.73208
848.40 13.83661
848.50 13.97255
848.60 14.18209
848.70 14.43659
848.80 14.6068
848.90 14.55102
849.00 14.47919
849.10 14.70014
849.20 14.99273
849.30 15.18214
849.40 15.19807
849.50 15.07791
849.60 14.77981
849.70 14.50527
849.80 14.2453
849.90 13.97237
850.00 14.0691
850.10 14.44337
850.20 14.82257
850.30 14.92219
850.40 14.89244
850.50 14.6151
850.60 14.39627
850.70 14.04289
850.80 13.60126
850.90 13.31056
851.00 13.53099
851.10 13.83068
851.20 14.19279
851.30 14.51281
851.40 14.45022
851.50 14.19956
851.60 13.91386
851.70 13.5955
851.80 13.24313
851.90 12.96728
852.00 12.79626
852.10 12.84462
852.20 12.90794
852.30 12.96506
852.40 13.14669
852.50 13.43085
852.60 13.84094
852.70 14.18489
852.80 14.47234
852.90 14.68517
853.00 14.78657
853.10 14.88492
853.20 15.00425
853.30 15.16209
853.40 15.3367
853.50 15.45898
853.60 15.50367
853.70 15.45594
853.80 15.41072
853.90 15.46933
854.00 15.62179
854.10 15.70448
854.20 15.48961
854.30 15.27461
854.40 15.16673
854.50 15.20218
854.60 15.38655
854.70 15.79108
854.80 16.13217
854.90 16.30686
855.00 16.51873
855.10 16.77591
855.20 16.99714
855.30 17.17773
855.40 17.31494
855.50 17.46508
855.60 17.49475
855.70 17.44456
855.80 17.32075
855.90 17.18535
856.00 16.92478
856.10 16.43958
856.20 15.96758
856.30 15.97253
856.40 16.08207
856.50 16.38437
856.60 16.78265
856.70 17.1752
856.80 17.3846
856.90 17.53914
857.00 17.44538
857.10 17.27854
857.20 16.95008
857.30 16.68884
857.40 16.57012
857.50 16.64719
857.60 16.77556
857.70 16.99286
857.80 17.17641
857.90 17.50588
858.00 17.78004
858.10 17.74508
858.20 17.51286
858.30 17.36223
858.40 17.39546
858.50 17.37804
858.60 17.33666
858.70 17.40639
858.80 17.59163
858.90 17.84897
859.00 18.03721
859.10 18.01998
859.20 17.94916
859.30 17.8594
859.40 17.77923
859.50 17.81431
859.60 17.99365
859.70 18.18017
859.80 18.27766
859.90 18.33242
860.00 18.36677
860.10 18.4437
860.20 18.61545
860.30 18.88389
860.40 19.08773
860.50 18.99575
860.60 18.75436
860.70 18.73537
860.80 18.91919
860.90 19.07061
861.00 19.14994
861.10 19.05512
861.20 18.61623
861.30 18.18141
861.40 17.91397
861.50 17.70308
861.60 17.68009
861.70 17.69377
861.80 17.61899
861.90 17.45009
862.00 17.29731
862.10 17.44145
862.20 17.63695
862.30 17.86631
862.40 18.02662
862.50 17.9145
862.60 17.61159
862.70 17.38732
862.80 17.59446
862.90 17.85484
863.00 17.83031
863.10 17.70934
863.20 17.5897
863.30 17.5539
863.40 17.61938
863.50 17.89926
863.60 18.12118
863.70 18.01943
863.80 17.93472
863.90 17.97514
864.00 18.04175
864.10 18.11677
864.20 18.35902
864.30 18.58483
864.40 18.74795
864.50 18.89328
864.60 18.77507
864.70 18.45999
864.80 18.15742
864.90 18.15804
865.00 18.27946
865.10 18.51873
865.20 18.6403
865.30 18.69174
865.40 18.8276
865.50 19.03204
865.60 19.22982
865.70 19.41324
865.80 19.4236
865.90 19.39288
866.00 19.24301
866.10 18.97705
866.20 18.61402
866.30 18.23115
866.40 17.89964
866.50 18.12382
866.60 18.38805
866.70 18.84798
866.80 19.36011
866.90 19.66337
867.00 19.65334
867.10 19.64693
867.20 19.49355
867.30 19.23417
867.40 19.32031
867.50 19.46465
867.60 19.53749
867.70 19.63638
867.80 19.786
867.90 20.12615
868.00 20.38405
868.10 20.34794
868.20 20.11036
868.30 19.75318
868.40 19.56892
868.50 19.58245
868.60 19.80335
868.70 19.84715
868.80 19.41118
868.90 18.9613
869.00 18.49803
869.10 18.10449
869.20 17.65434
869.30 17.21867
869.40 16.78939
869.50 16.38151
869.60 16.1254
869.70 16.20335
869.80 16.39276
869.90 16.54091
870.00 16.75444
870.10 17.04751
870.20 17.33836
870.30 17.56598
870.40 17.82707
870.50 18.04975
870.60 18.29144
870.70 18.50219
870.80 18.69847
870.90 18.44905
871.00 18.11576
871.10 17.64004
871.20 17.19492
871.30 16.96667
871.40 17.01128
871.50 16.98843
871.60 17.04165
871.70 17.17795
871.80 17.12897
871.90 17.07281
872.00 17.12944
872.10 17.34453
872.20 17.54308
872.30 17.66533
872.40 17.76957
872.50 17.84158
872.60 17.94149
872.70 18.25876
872.80 18.79852
872.90 19.32425
873.00 19.71767
873.10 20.06958
873.20 19.84985
873.30 19.5115
873.40 19.16995
873.50 18.97603
873.60 18.82591
873.70 18.76333
873.80 18.63964
873.90 18.59156
874.00 18.68172
874.10 19.01814
874.20 19.5251
874.30 19.95972
874.40 20.23646
874.50 20.53903
874.60 20.88475
874.70 21.08742
874.80 20.76256
874.90 20.20062
875.00 19.64351
875.10 19.35806
875.20 19.19306
875.30 19.75717
875.40 20.30419
875.50 20.68928
875.60 20.8038
875.70 20.71555
875.80 20.64782
875.90 20.76517
876.00 21.19363
876.10 21.51847
876.20 21.7763
876.30 21.89783
876.40 21.69555
876.50 21.11848
876.60 20.6117
876.70 20.39054
876.80 20.24693
876.90 20.31292
877.00 20.59418
877.10 21.23174
877.20 22.0965
877.30 22.87655
877.40 23.29504
877.50 23.72988
877.60 24.17316
877.70 24.39749
877.80 24.09959
877.90 23.39179
878.00 22.69588
878.10 22.05401
878.20 21.46004
878.30 21.70358
878.40 22.05566
878.50 22.35238
878.60 22.48421
878.70 22.60271
878.80 22.74416
878.90 22.88442
879.00 23.10227
879.10 23.2493
879.20 23.49564
879.30 23.74231
879.40 23.78698
879.50 23.4953
879.60 23.27966
879.70 23.56581
879.80 23.82138
879.90 23.92338
880.00 23.72692
880.10 23.14209
880.20 22.07446
880.30 21.04281
880.40 20.58525
880.50 20.32539
880.60 20.57509
880.70 20.80929
880.80 20.97197
880.90 21.21884
881.00 21.44345
881.10 21.7379
881.20 22.21414
881.30 23.1823
881.40 24.12989
881.50 24.88894
881.60 25.41684
881.70 25.8236
881.80 25.78779
881.90 25.73105
882.00 25.77754
882.10 25.60459
882.20 24.9353
882.30 23.87915
882.40 22.86746
882.50 22.101
882.60 21.38868
882.70 21.38167
882.80 21.59475
882.90 22.09521
883.00 22.7484
883.10 23.41972
883.20 24.10311
883.30 24.72997
883.40 25.07014
883.50 25.34109
883.60 25.40525
883.70 25.38182
883.80 25.40866
883.90 25.49171
884.00 25.652
884.10 25.8493
884.20 25.92506
884.30 25.90768
884.40 25.6784
884.50 25.29066
884.60 24.67427
884.70 24.01903
884.80 23.44307
884.90 22.90856
885.00 22.66707
885.10 22.7984
885.20 23.4935
885.30 24.5803
885.40 25.62756
885.50 26.3649
885.60 26.85084
885.70 26.39052
885.80 25.7052
885.90 24.5857
886.00 22.96161
886.10 21.41884
886.20 20.22386
886.30 19.13929
886.40 19.10495
886.50 19.39595
886.60 20.17672
886.70 20.96151
886.80 21.49097
886.90 21.14877
887.00 20.657
887.10 19.593
887.20 18.61241
887.30 17.707
887.40 16.98999
887.50 16.63144
887.60 17.13231
887.70 17.74369
887.80 18.59848
887.90 19.40867
888.00 20.09688
888.10 20.55177
888.20 20.80567
888.30 20.69544
888.40 20.46823
888.50 19.74449
888.60 19.12185
888.70 19.02002
888.80 19.23708
888.90 19.64941
889.00 20.22742
889.10 20.84493
889.20 21.09355
889.30 21.17748
889.40 21.10416
889.50 20.92462
889.60 20.4943
889.70 19.93098
889.80 19.53497
889.90 19.5319
890.00 19.57815
890.10 20.33238
890.20 21.11592
890.30 21.6602
890.40 22.00562
890.50 22.45063
890.60 22.90263
890.70 23.23677
890.80 23.19498
890.90 23.0924
891.00 22.77303
891.10 22.36616
891.20 22.05695
891.30 21.87275
891.40 21.69219
891.50 22.06166
891.60 22.33731
891.70 22.50136
891.80 22.74715
891.90 22.97993
892.00 23.00281
892.10 22.94038
892.20 22.86805
892.30 22.84991
892.40 22.58373
892.50 22.31521
892.60 22.15886
892.70 22.11681
892.80 22.13796
892.90 22.38492
893.00 22.59957
893.10 22.95737
893.20 23.34113
893.30 23.82387
893.40 24.33325
893.50 24.76491
893.60 24.79428
893.70 24.6764
893.80 23.86371
893.90 23.02002
894.00 22.14332
894.10 21.44604
894.20 20.98651
894.30 21.10194
894.40 21.22291
894.50 21.05503
894.60 20.9543
894.70 21.14228
894.80 21.34918
894.90 21.64784
895.00 22.06496
895.10 22.43615
895.20 22.3831
895.30 22.34546
895.40 22.10119
895.50 21.8523
895.60 21.91883
895.70 22.41223
895.80 22.88299
895.90 23.01852
896.00 23.10179
896.10 23.04564
896.20 23.04912
896.30 23.06836
896.40 22.98582
896.50 22.83807
896.60 22.79062
896.70 22.77761
896.80 22.61701
896.90 22.66773
897.00 22.87417
897.10 23.05021
897.20 23.17004
897.30 23.27688
897.40 23.43753
897.50 23.63103
897.60 23.78866
897.70 24.06102
897.80 24.43453
897.90 24.62934
898.00 24.39225
898.10 24.23797
898.20 24.05315
898.30 23.89158
898.40 24.13016
898.50 24.68249
898.60 25.26987
898.70 25.6369
898.80 25.85077
898.90 25.84956
899.00 25.86432
899.10 25.62106
899.20 25.34851
899.30 25.16617
899.40 25.09947
899.50 25.05288
899.60 24.94998
899.70 24.69502
899.80 24.40023
899.90 24.12128
900.00 23.79917
900.10 23.51436
900.20 23.42416
900.30 24.41364
900.40 25.48654
900.50 26.23721
900.60 26.78825
900.70 27.20834
900.80 27.27582
900.90 27.1153
901.00 26.54174
901.10 26.11012
901.20 25.94734
901.30 25.84816
901.40 25.88091
901.50 26.10534
901.60 26.31926
901.70 26.2097
901.80 25.96824
901.90 25.47046
902.00 25.08844
902.10 24.65019
902.20 24.12591
902.30 23.68905
902.40 23.4641
902.50 23.30563
902.60 23.16941
902.70 23.0023
902.80 22.93711
902.90 22.9243
903.00 23.12853
903.10 23.71513
903.20 24.25622
903.30 24.49523
903.40 24.74153
903.50 25.23618
903.60 25.81322
903.70 26.24943
903.80 26.44046
903.90 26.60692
904.00 26.86546
904.10 27.03923
904.20 26.73674
904.30 26.36904
904.40 26.0839
904.50 26.02326
904.60 26.0815
904.70 26.51784
904.80 26.93004
904.90 27.19643
905.00 27.33953
905.10 27.29105
905.20 27.09795
905.30 26.8101
905.40 26.38048
905.50 25.95797
905.60 25.6968
905.70 25.52763
905.80 25.36941
905.90 25.19294
906.00 25.01814
906.10 24.87403
906.20 24.75722
906.30 25.02221
906.40 25.21217
906.50 25.24858
906.60 25.44536
906.70 25.5879
906.80 25.51836
906.90 25.3539
907.00 25.04208
907.10 24.81717
907.20 24.97432
907.30 25.21033
907.40 25.37924
907.50 25.51033
907.60 25.65189
907.70 25.81837
907.80 26.11833
907.90 26.59521
908.00 26.90807
908.10 27.15257
908.20 27.36434
908.30 27.43168
908.40 27.04571
908.50 26.71868
908.60 26.74601
908.70 26.59292
908.80 26.40387
908.90 26.2458
909.00 26.16018
909.10 26.29102
909.20 26.43558
909.30 26.72931
909.40 26.96379
909.50 27.15616
909.60 27.26972
909.70 27.41264
909.80 27.66268
909.90 27.98368
910.00 28.32039
910.10 28.51242
910.20 28.46867
910.30 28.34737
910.40 28.28026
910.50 28.20102
910.60 28.1142
910.70 27.8968
910.80 27.61539
910.90 27.5145
911.00 27.50298
911.10 27.60749
911.20 27.80191
911.30 28.01238
911.40 28.34447
911.50 28.61861
911.60 28.60523
911.70 28.62403
911.80 28.63402
911.90 28.60228
912.00 28.5473
912.10 28.53694
912.20 28.4994
912.30 28.48144
912.40 28.51015
912.50 28.50265
912.60 28.42514
912.70 28.43435
912.80 28.62648
912.90 28.80014
913.00 28.92821
913.10 29.14895
913.20 29.29548
913.30 29.33837
913.40 29.39972
913.50 29.56647
913.60 29.77007
913.70 29.61182
913.80 29.28627
913.90 28.80971
914.00 28.19344
914.10 27.51271
914.20 27.17114
914.30 27.08827
914.40 27.5581
914.50 28.06964
914.60 28.64973
914.70 28.9912
914.80 29.03669
914.90 28.84593
915.00 28.56536
915.10 28.2339
915.20 28.03627
915.30 28.25217
915.40 28.46897
915.50 28.98419
915.60 29.67441
915.70 30.36417
915.80 30.87965
915.90 31.21774
916.00 30.79895
916.10 30.38267
916.20 30.00098
916.30 29.72337
916.40 29.52137
916.50 29.39271
916.60 29.29458
916.70 29.68298
916.80 30.1117
916.90 30.27756
917.00 30.1724
917.10 30.05051
917.20 30.10022
917.30 30.19675
917.40 30.07764
917.50 29.95143
917.60 29.83007
917.70 29.61915
917.80 29.57619
917.90 29.74257
918.00 29.90047
918.10 29.9466
918.20 29.94993
918.30 29.95604
918.40 29.92567
918.50 29.73847
918.60 29.50714
918.70 29.35742
918.80 29.5138
918.90 29.89605
919.00 30.83151
919.10 31.46678
919.20 31.5419
919.30 31.35484
919.40 30.96387
919.50 30.41869
919.60 30.05837
919.70 30.36237
919.80 30.68813
919.90 31.16602
920.00 31.46364
920.10 31.50022
920.20 31.34695
920.30 31.30308
920.40 31.54045
920.50 31.67415
920.60 31.4664
920.70 31.04895
920.80 30.44676
920.90 29.74731
921.00 29.10403
921.10 28.57089
921.20 28.05964
921.30 28.11631
921.40 28.45109
921.50 28.9428
921.60 29.45632
921.70 29.92745
921.80 30.36233
921.90 30.7248
922.00 30.40417
922.10 29.93217
922.20 29.65263
922.30 29.55765
922.40 29.41456
922.50 29.15459
922.60 28.90818
922.70 29.02073
922.80 29.07663
922.90 29.24644
923.00 29.43831
923.10 29.35788
923.20 28.89031
923.30 28.41847
923.40 28.02808
923.50 27.58622
923.60 27.52373
923.70 27.56847
923.80 27.62193
923.90 27.71579
924.00 27.80075
924.10 27.85184
924.20 28.00669
924.30 28.93579
924.40 29.81199
924.50 30.15966
924.60 29.82943
924.70 29.30922
924.80 28.54911
924.90 27.97115
925.00 27.664
925.10 27.31211
925.20 27.09406
925.30 27.13607
925.40 27.22372
925.50 27.45399
925.60 27.7199
925.70 28.50119
925.80 29.21557
925.90 29.72286
926.00 30.10247
926.10 30.24956
926.20 30.05319
926.30 29.80716
926.40 29.49851
926.50 29.2923
926.60 29.48534
926.70 29.63532
926.80 29.80369
926.90 30.06484
927.00 30.29538
927.10 30.20665
927.20 30.06845
927.30 29.79612
927.40 29.54879
927.50 29.19678
927.60 28.7334
927.70 28.27947
927.80 28.02035
927.90 27.83085
928.00 27.57571
928.10 27.27423
928.20 27.2722
928.30 27.69184
928.40 28.11968
928.50 28.40713
928.60 28.5953
928.70 28.48364
928.80 28.41929
928.90 28.25913
929.00 27.99241
929.10 27.74914
929.20 27.63718
929.30 27.57465
929.40 27.69044
929.50 27.84689
929.60 28.03974
929.70 28.08632
929.80 27.96349
929.90 27.65276
930.00 27.26227
930.10 26.69489
930.20 26.44556
930.30 26.63409
930.40 26.64409
930.50 26.76705
930.60 27.05184
930.70 27.20732
930.80 26.9914
930.90 26.82806
931.00 26.9071
931.10 27.00933
931.20 27.44481
931.30 28.0577
931.40 28.58603
931.50 29.061
931.60 29.3549
931.70 28.86915
931.80 28.32438
931.90 27.79943
932.00 27.66442
932.10 27.74664
932.20 27.96091
932.30 28.19179
932.40 28.41092
932.50 28.58862
932.60 28.56501
932.70 28.39849
932.80 28.25141
932.90 28.16063
933.00 28.12269
933.10 28.27819
933.20 28.47801
933.30 28.6487
933.40 28.52817
933.50 28.42151
933.60 28.41003
933.70 28.48418
933.80 28.59123
933.90 28.61197
934.00 28.63843
934.10 28.72904
934.20 28.78241
934.30 28.75266
934.40 28.63054
934.50 28.53189
934.60 28.69431
934.70 28.84832
934.80 28.79127
934.90 28.61227
935.00 28.34102
935.10 28.14708
935.20 27.96005
935.30 27.9244
935.40 27.91697
935.50 27.95416
935.60 28.077
935.70 28.19984
935.80 28.27446
935.90 28.21222
936.00 28.18592
936.10 28.42965
936.20 28.7488
936.30 29.02536
936.40 29.09513
936.50 29.04521
936.60 28.98178
936.70 28.77502
936.80 28.50172
936.90 28.27592
937.00 28.17466
937.10 28.0809
937.20 27.71271
937.30 27.52473
937.40 27.43256
937.50 27.67359
937.60 27.95772
937.70 28.18738
937.80 28.30699
937.90 28.37075
938.00 28.5171
938.10 28.55953
938.20 28.5278
938.30 28.24717
938.40 28.07958
938.50 28.02982
938.60 28.18369
938.70 28.30626
938.80 28.38802
938.90 28.41083
939.00 28.43621
939.10 28.54997
939.20 28.71653
939.30 28.85115
939.40 28.89918
939.50 28.87364
939.60 28.69979
939.70 28.44965
939.80 28.14187
939.90 27.89617
940.00 27.68173
940.10 27.55928
940.20 27.75879
940.30 28.02249
940.40 28.20047
940.50 28.18235
940.60 28.14676
940.70 28.31629
940.80 28.60816
940.90 28.92546
941.00 29.21734
941.10 29.46031
941.20 29.5823
941.30 29.39225
941.40 29.07094
941.50 28.69012
941.60 28.33784
941.70 28.04617
941.80 28.09399
941.90 28.31145
942.00 28.57687
942.10 28.71194
942.20 28.68278
942.30 28.65455
942.40 28.70592
942.50 28.76133
942.60 28.8406
942.70 28.97948
942.80 29.11314
942.90 29.12081
943.00 29.02539
943.10 29.02957
943.20 29.40981
943.30 29.84151
943.40 30.07917
943.50 30.205
943.60 30.27607
943.70 30.22942
943.80 30.0532
943.90 29.82083
944.00 29.54568
944.10 29.38532
944.20 29.27513
944.30 29.1663
944.40 29.08609
944.50 28.8748
944.60 28.55973
944.70 28.26232
944.80 28.2869
944.90 28.4014
945.00 28.53027
945.10 28.63256
945.20 28.75893
945.30 28.87149
945.40 29.08593
945.50 29.28703
945.60 29.4801
945.70 29.52094
945.80 29.50548
945.90 29.27707
946.00 29.14652
946.10 29.12451
946.20 29.19448
946.30 29.29704
946.40 29.62335
946.50 30.07404
946.60 30.44201
946.70 30.30392
946.80 30.23483
946.90 30.22125
947.00 30.2702
947.10 30.31452
947.20 30.33568
947.30 30.3859
947.40 30.40257
947.50 30.45133
947.60 30.47431
947.70 30.50431
947.80 30.58806
947.90 30.79619
948.00 31.03861
948.10 31.19482
948.20 31.25912
948.30 31.22106
948.40 31.10928
948.50 31.00384
948.60 31.12141
948.70 31.30455
948.80 31.4438
948.90 31.39276
949.00 31.42843
949.10 31.56638
949.20 31.7567
949.30 31.86479
949.40 31.68047
949.50 31.44514
949.60 31.17637
949.70 30.84241
949.80 30.67697
949.90 30.68102
950.00 30.90646
950.10 31.10725
950.20 31.31157
950.30 31.4207
950.40 31.4797
950.50 31.15416
950.60 30.91244
950.70 30.7279
950.80 30.69152
950.90 30.71198
951.00 30.82408
951.10 31.01855
951.20 31.18266
951.30 31.20753
951.40 31.15153
951.50 31.06155
951.60 30.93733
951.70 30.92218
951.80 30.89811
951.90 30.88288
952.00 30.90305
952.10 30.99563
952.20 31.04372
952.30 31.11131
952.40 31.38908
952.50 31.68161
952.60 31.96582
952.70 32.23039
952.80 32.36466
952.90 32.36472
953.00 32.37291
953.10 32.42051
953.20 32.4174
953.30 32.28687
953.40 32.11128
953.50 31.92977
953.60 31.81785
953.70 31.70574
953.80 31.45676
953.90 31.19137
954.00 31.13648
954.10 31.36657
954.20 31.64701
954.30 31.79395
954.40 31.85409
954.50 31.84838
954.60 31.5891
954.70 31.18073
954.80 30.89648
954.90 30.86496
955.00 30.97927
955.10 31.26664
955.20 31.58851
955.30 31.88874
955.40 32.0364
955.50 32.13205
955.60 32.26795
955.70 32.38098
955.80 32.47721
955.90 32.56478
956.00 32.69388
956.10 32.80466
956.20 32.82821
956.30 32.80402
956.40 32.70132
956.50 32.36882
956.60 32.13616
956.70 32.1945
956.80 32.42029
956.90 32.67605
957.00 32.65265
957.10 32.52318
957.20 32.38887
957.30 32.40611
957.40 32.32036
957.50 32.11561
957.60 31.79438
957.70 31.55923
957.80 31.38548
957.90 31.33776
958.00 31.36758
958.10 31.71347
958.20 31.98713
958.30 32.19514
958.40 32.23782
958.50 32.15968
958.60 32.04408
958.70 31.95546
958.80 31.81457
958.90 31.48751
959.00 31.25243
959.10 31.06478
959.20 30.92952
959.30 30.86423
959.40 30.91466
959.50 31.02798
959.60 30.99261
959.70 30.46087
959.80 29.87001
959.90 29.22701
960.00 28.60623
960.10 28.293
960.20 28.22856
960.30 28.60367
960.40 29.1931
960.50 29.98318
960.60 30.77448
960.70 31.42826
960.80 31.72944
960.90 31.94135
961.00 32.06248
961.10 31.9474
961.20 31.76384
961.30 31.54707
961.40 31.33391
961.50 31.18171
961.60 31.04967
961.70 31.03021
961.80 31.11235
961.90 31.57423
962.00 31.83613
962.10 32.03397
962.20 32.17556
962.30 32.25452
962.40 32.13763
962.50 32.10153
962.60 32.15619
962.70 32.45485
962.80 32.58271
962.90 32.64484
963.00 32.53587
963.10 32.3893
963.20 32.16468
963.30 32.01692
963.40 31.86801
963.50 31.60092
963.60 31.00801
963.70 30.21422
963.80 28.77399
963.90 27.496
964.00 26.54922
964.10 26.14371
964.20 26.3149
964.30 27.37644
964.40 28.61132
964.50 29.77961
964.60 30.07506
964.70 30.01872
964.80 29.82342
964.90 29.476
965.00 29.34528
965.10 29.37447
965.20 29.59253
965.30 29.87471
965.40 30.25415
965.50 30.65755
965.60 31.0433
965.70 31.26603
965.80 31.36816
965.90 31.48806
966.00 31.65171
966.10 31.83447
966.20 32.05243
966.30 32.30857
966.40 32.547
966.50 32.63418
966.60 32.70048
966.70 32.68198
966.80 32.4479
966.90 32.19415
967.00 32.13787
967.10 32.18886
967.20 32.22235
967.30 31.94235
967.40 31.38075
967.50 30.64774
967.60 29.58453
967.70 28.83687
967.80 28.49929
967.90 28.6803
968.00 29.26303
968.10 30.34541
968.20 31.17082
968.30 31.82771
968.40 31.87124
968.50 31.82952
968.60 31.7176
968.70 31.50287
968.80 31.21998
968.90 30.79822
969.00 30.34522
969.10 30.03844
969.20 30.31186
969.30 30.81193
969.40 31.42753
969.50 32.21567
969.60 32.81432
969.70 33.19701
969.80 33.39876
969.90 33.50251
970.00 33.55548
970.10 33.45299
970.20 33.29946
970.30 33.02837
970.40 32.55163
970.50 31.8064
970.60 30.7725
970.70 29.91515
970.80 29.54077
970.90 29.58713
971.00 29.94467
971.10 31.1945
971.20 32.15895
971.30 33.00083
971.40 33.53465
971.50 33.88919
971.60 34.06629
971.70 34.13391
971.80 34.09672
971.90 33.79225
972.00 33.50005
972.10 33.19432
972.20 32.87682
972.30 32.76836
972.40 32.80426
972.50 32.91357
972.60 32.8849
972.70 32.55249
972.80 31.97733
972.90 31.24823
973.00 30.16675
973.10 29.59882
973.20 29.42221
973.30 29.9375
973.40 30.54168
973.50 31.12971
973.60 31.61739
973.70 31.99759
973.80 31.97603
973.90 31.94
974.00 31.89838
974.10 31.87098
974.20 31.67913
974.30 31.28071
974.40 30.74805
974.50 30.24456
974.60 29.97603
974.70 29.82174
974.80 29.8353
974.90 30.5224
975.00 31.17477
975.10 31.68278
975.20 31.93224
975.30 32.13109
975.40 32.33671
975.50 32.42653
975.60 32.50101
975.70 32.40919
975.80 32.40059
975.90 32.46091
976.00 32.73977
976.10 32.97302
976.20 33.00864
976.30 32.95089
976.40 32.94638
976.50 33.16096
976.60 33.26702
976.70 33.35239
976.80 33.30075
976.90 32.97474
977.00 32.43508
977.10 31.80215
977.20 31.32228
977.30 31.17187
977.40 31.14251
977.50 31.29495
977.60 32.02147
977.70 32.54316
977.80 32.93887
977.90 33.11868
978.00 33.15857
978.10 32.90403
978.20 32.30576
978.30 31.50945
978.40 30.21166
978.50 29.20347
978.60 28.44455
978.70 28.41717
978.80 28.59705
978.90 28.86856
979.00 29.32507
979.10 29.93076
979.20 30.9024
979.30 31.79671
979.40 32.66831
979.50 33.36816
979.60 33.85652
979.70 34.10386
979.80 33.91624
979.90 33.67851
980.00 33.61107
980.10 33.681
980.20 33.77276
980.30 33.79308
980.40 33.75822
980.50 33.70028
980.60 33.6305
980.70 33.58469
980.80 33.54144
980.90 33.49844
981.00 33.5083
981.10 33.64262
981.20 33.65523
981.30 33.61398
981.40 33.47901
981.50 33.37983
981.60 33.19485
981.70 32.90509
981.80 32.75742
981.90 32.95507
982.00 33.07384
982.10 33.17411
982.20 33.06664
982.30 33.04782
982.40 33.04998
982.50 33.10692
982.60 33.19893
982.70 33.36096
982.80 33.48331
982.90 33.54143
983.00 33.37119
983.10 33.2197
983.20 33.07882
983.30 32.97496
983.40 32.86147
983.50 32.71893
983.60 32.60775
983.70 32.519
983.80 32.41353
983.90 32.30868
984.00 32.28083
984.10 32.55067
984.20 32.79213
984.30 32.98229
984.40 33.12738
984.50 33.21907
984.60 33.31907
984.70 33.32901
984.80 33.38205
984.90 33.43252
985.00 33.44972
985.10 33.37086
985.20 33.10322
985.30 32.86596
985.40 32.7872
985.50 32.83331
985.60 33.00014
985.70 33.32499
985.80 33.57329
985.90 33.73254
986.00 33.65972
986.10 33.56862
986.20 33.49329
986.30 33.46451
986.40 33.48699
986.50 33.6427
986.60 33.72262
986.70 33.75095
986.80 33.43732
986.90 33.17261
987.00 32.91971
987.10 32.7357
987.20 32.74444
987.30 33.12705
987.40 33.51176
987.50 33.87871
987.60 34.02999
987.70 34.07013
987.80 33.97886
987.90 33.6745
988.00 33.45869
988.10 33.29435
988.20 33.15952
988.30 33.15961
988.40 33.47259
988.50 33.70106
988.60 33.91717
988.70 34.08292
988.80 34.18258
988.90 34.19769
989.00 34.12267
989.10 34.02766
989.20 33.89337
989.30 33.64196
989.40 33.3244
989.50 32.73
989.60 31.82255
989.70 30.66595
989.80 29.11647
989.90 27.83455
990.00 27.04265
990.10 26.54545
990.20 26.16652
990.30 25.77247
990.40 25.14921
990.50 24.37706
990.60 23.37053
990.70 22.63601
990.80 22.07127
990.90 21.63772
991.00 21.39905
991.10 21.5703
991.20 21.73335
991.30 21.85198
991.40 21.66545
991.50 21.37989
991.60 21.07987
991.70 20.80756
991.80 20.80905
991.90 21.27823
992.00 21.82015
992.10 22.40946
992.20 22.72082
992.30 22.75484
992.40 22.55591
992.50 21.97647
992.60 21.60987
992.70 21.68631
992.80 22.10239
992.90 22.73519
993.00 23.59856
993.10 24.25212
993.20 24.77243
993.30 24.91504
993.40 24.76609
993.50 24.54133
993.60 24.39325
993.70 24.63527
993.80 25.43948
993.90 26.15732
994.00 26.91426
994.10 27.58604
994.20 28.01857
994.30 28.21068
994.40 28.0308
994.50 27.77935
994.60 27.58774
994.70 27.51348
994.80 27.55974
994.90 27.95824
995.00 28.41039
995.10 28.86513
995.20 29.2419
995.30 29.50801
995.40 29.75472
995.50 29.88446
995.60 29.80611
995.70 29.1606
995.80 28.64374
995.90 28.18514
996.00 27.97509
996.10 27.88926
996.20 27.96874
996.30 28.25746
996.40 28.7653
996.50 29.56321
996.60 30.19901
996.70 30.73284
996.80 30.62443
996.90 30.05494
997.00 29.11287
997.10 27.66373
997.20 26.47927
997.30 25.70086
997.40 25.2524
997.50 25.11171
997.60 25.67126
997.70 26.18133
997.80 26.73164
997.90 27.34344
998.00 27.86472
998.10 28.3373
998.20 28.68772
998.30 28.81806
998.40 28.27141
998.50 27.72015
998.60 27.17488
998.70 26.75846
998.80 26.49258
998.90 26.38931
999.00 26.53394
999.10 26.64147
999.20 26.62978
999.30 26.69185
999.40 26.86149
999.50 27.31276
999.60 27.45696
999.70 27.44429
999.80 27.28402
999.90 27.37173
1000.00 27.83069
1000.10 28.33644
1000.20 28.91942
1000.30 29.58479
1000.40 30.08729
1000.50 30.44704
1000.60 30.47787
1000.70 30.23983
1000.80 29.75578
1000.90 29.17046
1001.00 28.56469
1001.10 27.88103
1001.20 27.51455
1001.30 27.37692
1001.40 27.90099
1001.50 28.47677
1001.60 29.11234
1001.70 29.78455
1001.80 30.3258
1001.90 30.48841
1002.00 30.49011
1002.10 30.32468
1002.20 29.89156
1002.30 29.78522
1002.40 29.89764
1002.50 30.29534
1002.60 30.52606
1002.70 30.61544
1002.80 30.71861
1002.90 30.71375
1003.00 30.32607
1003.10 29.96013
1003.20 29.66035
1003.30 29.51394
1003.40 29.2569
1003.50 28.93408
1003.60 28.59524
1003.70 28.31255
1003.80 28.0965
1003.90 28.08255
1004.00 28.2609
1004.10 29.02795
1004.20 29.76885
1004.30 30.51473
1004.40 31.20958
1004.50 31.70401
1004.60 31.74284
1004.70 31.56297
1004.80 31.24279
1004.90 30.59272
1005.00 29.82863
1005.10 28.92783
1005.20 27.84139
1005.30 26.89306
1005.40 26.12962
1005.50 25.55303
1005.60 25.19545
1005.70 25.33402
1005.80 25.53332
1005.90 25.85637
1006.00 26.43207
1006.10 26.91186
1006.20 27.20012
1006.30 27.3766
1006.40 27.44148
1006.50 27.48939
1006.60 27.74891
1006.70 28.16974
1006.80 28.99848
1006.90 29.59111
1007.00 30.02231
1007.10 30.31017
1007.20 30.34225
1007.30 30.04734
1007.40 29.80351
1007.50 29.71725
1007.60 30.13939
1007.70 30.51835
1007.80 30.91072
1007.90 31.33603
1008.00 31.58575
1008.10 31.66205
1008.20 31.66339
1008.30 31.6969
1008.40 31.68799
1008.50 31.75677
1008.60 31.87538
1008.70 32.11713
1008.80 32.01098
1008.90 31.59171
1009.00 31.02797
1009.10 30.51663
1009.20 30.12357
1009.30 29.90216
1009.40 29.85989
1009.50 30.32425
1009.60 30.8133
1009.70 31.33355
1009.80 31.8582
1009.90 32.39921
1010.00 32.96397
1010.10 33.47113
1010.20 33.94368
1010.30 34.37102
1010.40 34.6029
1010.50 34.61066
1010.60 34.24601
1010.70 33.86168
1010.80 33.4359
1010.90 32.90378
1011.00 32.32535
1011.10 31.61565
1011.20 31.05299
1011.30 30.55709
1011.40 30.21354
1011.50 29.94971
1011.60 29.72574
1011.70 29.57919
1011.80 29.44124
1011.90 29.34047
1012.00 29.49218
1012.10 29.87241
1012.20 30.97766
1012.30 31.82631
1012.40 32.503
1012.50 32.93858
1012.60 33.17259
1012.70 32.95771
1012.80 32.89062
1012.90 32.83418
1013.00 33.05677
1013.10 33.14818
1013.20 33.15531
1013.30 32.92812
1013.40 32.32572
1013.50 31.33135
1013.60 30.39907
1013.70 29.51449
1013.80 28.82048
1013.90 28.38016
1014.00 28.2317
1014.10 28.67166
1014.20 29.22119
1014.30 29.89133
1014.40 30.54248
1014.50 30.94721
1014.60 30.76916
1014.70 30.5598
1014.80 30.28021
1014.90 29.85837
1015.00 29.92959
1015.10 30.44778
1015.20 31.40141
1015.30 32.16987
1015.40 32.3756
1015.50 32.36864
1015.60 32.11256
1015.70 31.08779
1015.80 30.35576
1015.90 29.81096
1016.00 29.59253
1016.10 29.56715
1016.20 29.8514
1016.30 30.23198
1016.40 30.56805
1016.50 30.6227
1016.60 30.80944
1016.70 31.08598
1016.80 31.53388
1016.90 31.56254
1017.00 31.28346
1017.10 30.95453
1017.20 30.70295
1017.30 30.64877
1017.40 30.84787
1017.50 31.3199
1017.60 32.44329
1017.70 32.91678
1017.80 32.94272
1017.90 32.59434
1018.00 32.15442
1018.10 31.5857
1018.20 30.89547
1018.30 30.29279
1018.40 30.04022
1018.50 29.79568
1018.60 29.55845
1018.70 29.353
1018.80 29.42056
1018.90 29.91607
1019.00 30.47091
1019.10 31.08993
1019.20 31.57278
1019.30 31.82433
1019.40 31.88033
1019.50 31.72249
1019.60 31.6706
1019.70 31.72062
1019.80 31.73865
1019.90 31.68355
1020.00 31.49406
1020.10 31.36588
1020.20 31.27867
1020.30 31.30699
1020.40 31.43873
1020.50 31.61577
1020.60 31.85203
1020.70 32.12769
1020.80 32.33413
1020.90 32.42573
1021.00 32.40165
1021.10 32.24791
1021.20 32.06583
1021.30 31.70369
1021.40 31.12492
1021.50 30.56825
1021.60 30.15274
1021.70 29.73193
1021.80 29.32186
1021.90 28.97004
1022.00 28.68346
1022.10 28.48745
1022.20 28.41598
1022.30 28.73278
1022.40 29.48486
1022.50 30.3041
1022.60 31.02879
1022.70 31.29103
1022.80 31.43991
1022.90 31.46309
1023.00 31.3404
1023.10 31.11829
1023.20 30.79158
1023.30 30.46982
1023.40 30.31104
1023.50 30.65856
1023.60 31.02875
1023.70 31.45921
1023.80 31.94399
1023.90 32.41523
1024.00 32.77596
1024.10 32.90901
1024.20 33.01848
1024.30 33.24707
1024.40 33.42755
1024.50 33.44291
1024.60 32.7461
1024.70 32.22387
1024.80 31.83038
1024.90 31.65153
1025.00 31.43132
1025.10 31.07343
1025.20 30.69763
1025.30 30.28705
1025.40 29.95009
1025.50 29.8397
1025.60 29.9265
1025.70 30.44168
1025.80 30.57414
1025.90 30.2099
1026.00 29.56509
1026.10 28.84636
1026.20 28.17332
1026.30 27.65976
1026.40 27.35084
1026.50 27.60032
1026.60 28.24339
1026.70 29.14988
1026.80 30.23911
1026.90 31.1702
1027.00 31.68187
1027.10 32.05148
1027.20 32.13335
1027.30 31.72746
1027.40 31.3203
1027.50 30.8627
1027.60 30.43102
1027.70 30.20752
1027.80 30.21867
1027.90 30.13274
1028.00 30.01822
1028.10 29.65811
1028.20 29.22842
1028.30 28.73123
1028.40 28.22361
1028.50 28.1468
1028.60 28.59826
1028.70 29.18322
1028.80 29.91223
1028.90 30.88651
1029.00 31.62283
1029.10 31.98025
1029.20 31.60565
1029.30 31.28933
1029.40 31.04056
1029.50 30.77212
1029.60 30.63616
1029.70 30.75304
1029.80 30.93235
1029.90 31.03105
1030.00 30.86544
1030.10 30.64881
1030.20 30.44861
1030.30 30.29353
1030.40 30.34862
1030.50 30.83577
1030.60 31.35097
1030.70 31.91375
1030.80 32.13949
1030.90 32.11402
1031.00 31.93501
1031.10 31.55456
1031.20 31.44158
1031.30 31.67747
1031.40 31.91664
1031.50 32.09256
1031.60 32.02365
1031.70 31.81032
1031.80 31.46586
1031.90 30.87208
1032.00 30.5529
1032.10 30.51001
1032.20 30.57112
1032.30 30.53262
1032.40 30.19311
1032.50 30.06935
1032.60 30.04636
1032.70 30.33581
1032.80 30.8704
1032.90 31.57387
1033.00 32.47647
1033.10 33.28941
1033.20 33.82561
1033.30 34.12822
1033.40 34.10205
1033.50 33.46399
1033.60 32.79613
1033.70 31.96434
1033.80 30.951
1033.90 30.16934
1034.00 29.84334
1034.10 29.51463
1034.20 29.24907
1034.30 29.05837
1034.40 28.79412
1034.50 28.47453
1034.60 28.13357
1034.70 28.31905
1034.80 28.94098
1034.90 29.61683
1035.00 30.14653
1035.10 30.1432
1035.20 30.24826
1035.30 30.3432
1035.40 30.49682
1035.50 30.69145
1035.60 30.90143
1035.70 31.17913
1035.80 31.53551
1035.90 31.97032
1036.00 32.32518
1036.10 32.69106
1036.20 33.21618
1036.30 33.59026
1036.40 33.76899
1036.50 33.73781
1036.60 33.68794
1036.70 33.66759
1036.80 33.71774
1036.90 33.8289
1037.00 34.13451
1037.10 34.49481
1037.20 34.87702
1037.30 35.25574
1037.40 35.41481
1037.50 35.30596
1037.60 35.04051
1037.70 34.57144
1037.80 33.58574
1037.90 32.62788
1038.00 31.67587
1038.10 30.81839
1038.20 30.37852
1038.30 30.45062
1038.40 30.72801
1038.50 31.23252
1038.60 32.0538
1038.70 32.57543
1038.80 32.87396
1038.90 32.82091
1039.00 32.71396
1039.10 32.53704
1039.20 32.28402
1039.30 32.03388
1039.40 31.78702
1039.50 31.49258
1039.60 31.15274
1039.70 30.72427
1039.80 30.53799
1039.90 30.55614
1040.00 30.86239
1040.10 31.41754
1040.20 32.16901
1040.30 32.78107
1040.40 33.29366
1040.50 33.60845
1040.60 33.93825
1040.70 34.19682
1040.80 34.32297
1040.90 34.25705
1041.00 34.04041
1041.10 33.80806
1041.20 33.37984
1041.30 32.56499
1041.40 32.04619
1041.50 31.71765
1041.60 31.75445
1041.70 32.23301
1041.80 33.07771
1041.90 33.9809
1042.00 34.60582
1042.10 34.6552
1042.20 34.63751
1042.30 34.39991
1042.40 33.69157
1042.50 32.88094
1042.60 31.99492
1042.70 31.1455
1042.80 30.43141
1042.90 30.06549
1043.00 29.91821
1043.10 30.18072
1043.20 31.3435
1043.30 32.44216
1043.40 33.45052
1043.50 34.30449
1043.60 34.73494
1043.70 34.66673
1043.80 34.62328
1043.90 34.55208
1044.00 34.56264
1044.10 34.55571
1044.20 34.5625
1044.30 34.59237
1044.40 34.62896
1044.50 34.58494
1044.60 34.46542
1044.70 34.29046
1044.80 34.31793
1044.90 34.59992
1045.00 35.06447
1045.10 35.66439
1045.20 36.22067
1045.30 36.68518
1045.40 37.0507
1045.50 37.20804
1045.60 37.22829
1045.70 37.13649
1045.80 36.86439
1045.90 36.17604
1046.00 35.49462
1046.10 34.81751
1046.20 34.24873
1046.30 33.90253
1046.40 33.78834
1046.50 33.52233
1046.60 33.24356
1046.70 32.82195
1046.80 32.29694
1046.90 31.77346
1047.00 31.3551
1047.10 31.19202
1047.20 31.30253
1047.30 31.40144
1047.40 31.56931
1047.50 31.83453
1047.60 32.02081
1047.70 32.16238
1047.80 32.29647
1047.90 32.33785
1048.00 32.31071
1048.10 32.34683
1048.20 32.56815
1048.30 33.12775
1048.40 33.50883
1048.50 33.85797
1048.60 34.17459
1048.70 34.33585
1048.80 34.38772
1048.90 34.41837
1049.00 34.53979
1049.10 34.66431
1049.20 34.70093
1049.30 34.73075
1049.40 34.732
1049.50 34.39688
1049.60 33.73608
1049.70 32.87222
1049.80 32.15562
1049.90 31.97276
1050.00 31.98025
1050.10 32.23564
1050.20 32.97768
1050.30 33.52401
1050.40 33.84954
1050.50 33.90517
1050.60 33.82417
1050.70 33.69273
1050.80 33.57684
1050.90 33.4868
1051.00 33.51322
1051.10 33.3594
1051.20 32.986
1051.30 32.29647
1051.40 31.75947
1051.50 31.43653
1051.60 31.17541
1051.70 31.06609
1051.80 31.29648
1051.90 31.51374
1052.00 31.6586
1052.10 31.64002
1052.20 31.73203
1052.30 31.89517
1052.40 32.07331
1052.50 32.37192
1052.60 33.01279
1052.70 33.59469
1052.80 34.11177
1052.90 34.48413
1053.00 34.66025
1053.10 34.5771
1053.20 34.245
1053.30 34.04853
1053.40 34.15479
1053.50 34.18785
1053.60 34.26763
1053.70 34.32097
1053.80 34.26621
1053.90 34.06406
1054.00 33.78128
1054.10 33.70032
1054.20 33.94306
1054.30 34.05692
1054.40 34.12733
1054.50 33.98939
1054.60 33.86081
1054.70 33.57148
1054.80 33.05144
1054.90 32.80397
1055.00 32.93136
1055.10 33.10821
1055.20 33.40005
1055.30 33.82499
1055.40 34.05256
1055.50 34.024
1055.60 33.65102
1055.70 33.20386
1055.80 32.69646
1055.90 32.12285
1056.00 31.63
1056.10 31.26156
1056.20 31.00001
1056.30 30.87642
1056.40 31.03317
1056.50 31.2427
1056.60 31.53096
1056.70 31.86605
1056.80 32.11609
1056.90 32.16516
1057.00 32.21749
1057.10 32.26003
1057.20 32.34896
1057.30 32.49371
1057.40 32.71192
1057.50 33.03976
1057.60 33.34706
1057.70 33.51175
1057.80 33.63769
1057.90 33.70178
1058.00 33.69059
1058.10 33.72383
1058.20 33.78438
1058.30 33.85963
1058.40 33.62802
1058.50 33.07994
1058.60 32.46376
1058.70 31.88619
1058.80 31.60385
1058.90 31.48882
1059.00 31.52469
1059.10 31.75533
1059.20 31.95961
1059.30 32.1614
1059.40 32.31211
1059.50 32.53458
1059.60 32.9266
1059.70 33.28722
1059.80 33.53793
1059.90 33.4224
1060.00 33.22366
1060.10 33.00023
1060.20 32.73102
1060.30 32.49046
1060.40 32.2561
1060.50 32.04288
1060.60 31.79171
1060.70 31.50399
1060.80 31.34127
1060.90 31.24499
1061.00 31.20125
1061.10 31.31677
1061.20 31.72116
1061.30 32.18659
1061.40 32.68688
1061.50 33.07391
1061.60 33.22301
1061.70 33.21211
1061.80 33.02283
1061.90 32.73056
1062.00 32.45892
1062.10 32.3488
1062.20 32.36415
1062.30 32.41553
1062.40 32.41617
1062.50 32.53961
1062.60 32.93039
1062.70 33.4722
1062.80 34.04091
1062.90 34.5638
1063.00 34.87036
1063.10 34.79516
1063.20 34.73669
1063.30 34.55442
1063.40 34.19577
1063.50 33.93158
1063.60 33.83932
1063.70 33.90531
1063.80 34.08249
1063.90 34.4269
1064.00 34.75548
1064.10 35.0575
1064.20 35.22804
1064.30 35.31258
1064.40 35.31331
1064.50 35.21807
1064.60 35.1398
1064.70 35.08179
1064.80 35.00839
1064.90 34.94659
1065.00 34.98313
1065.10 34.90398
1065.20 34.71563
1065.30 34.43361
1065.40 34.08927
1065.50 33.63938
1065.60 33.14179
1065.70 32.78087
1065.80 32.73109
1065.90 32.65307
1066.00 32.58519
1066.10 32.56944
1066.20 32.253
1066.30 31.68834
1066.40 31.16375
1066.50 30.86264
1066.60 31.06072
1066.70 31.19934
1066.80 31.3714
1066.90 31.52761
1067.00 31.60319
1067.10 31.65356
1067.20 31.70249
1067.30 31.96036
1067.40 32.5918
1067.50 33.0897
1067.60 33.54219
1067.70 33.90382
1067.80 34.22059
1067.90 34.46042
1068.00 34.64543
1068.10 34.87602
1068.20 35.07273
1068.30 35.04099
1068.40 35.03241
1068.50 35.11436
1068.60 35.20764
1068.70 35.23096
1068.80 35.25147
1068.90 35.21018
1069.00 35.10657
1069.10 35.00324
1069.20 34.98072
1069.30 35.03346
1069.40 34.88561
1069.50 34.59869
1069.60 34.21864
1069.70 34.05508
1069.80 34.04732
1069.90 33.95415
1070.00 33.93418
1070.10 34.00379
1070.20 33.98607
1070.30 33.87331
1070.40 33.5736
1070.50 33.50245
1070.60 33.63383
1070.70 33.79875
1070.80 33.88476
1070.90 33.83722
1071.00 33.9507
1071.10 33.97642
1071.20 33.85331
1071.30 33.98553
1071.40 34.35174
1071.50 34.86378
1071.60 35.20071
1071.70 35.15174
1071.80 35.17446
1071.90 35.14358
1072.00 35.11313
1072.10 35.04796
1072.20 34.96757
1072.30 34.89673
1072.40 34.63698
1072.50 34.13254
1072.60 33.61303
1072.70 33.23117
1072.80 33.35211
1072.90 33.46044
1073.00 33.63857
1073.10 33.91553
1073.20 33.95914
1073.30 33.74889
1073.40 33.64478
1073.50 33.56631
1073.60 33.642
1073.70 33.74552
1073.80 33.98912
1073.90 34.38933
1074.00 34.82765
1074.10 35.27072
1074.20 35.62247
1074.30 35.78814
1074.40 35.64705
1074.50 35.55095
1074.60 35.4173
1074.70 35.31832
1074.80 35.13588
1074.90 34.95818
1075.00 34.91868
1075.10 34.94805
1075.20 34.71299
1075.30 34.49779
1075.40 34.30323
1075.50 34.07511
1075.60 34.04821
1075.70 34.27102
1075.80 34.67637
1075.90 35.02533
1076.00 35.20156
1076.10 35.39544
1076.20 35.42784
1076.30 35.31425
1076.40 35.29269
1076.50 35.31718
1076.60 35.41639
1076.70 35.56913
1076.80 35.71408
1076.90 35.73232
1077.00 35.71278
1077.10 35.67727
1077.20 35.63768
1077.30 35.53034
1077.40 35.36773
1077.50 35.13996
1077.60 34.75555
1077.70 34.34746
1077.80 34.09119
1077.90 34.33831
1078.00 34.57762
1078.10 34.84542
1078.20 35.11432
1078.30 35.26769
1078.40 35.33409
1078.50 35.24552
1078.60 35.11695
1078.70 34.90583
1078.80 34.80271
1078.90 34.62893
1079.00 34.27004
1079.10 33.90088
1079.20 33.59704
1079.30 33.35529
1079.40 33.1237
1079.50 33.10025
1079.60 33.14622
1079.70 33.38463
1079.80 33.72682
1079.90 33.97303
1080.00 34.19222
1080.10 34.4199
1080.20 34.63615
1080.30 34.7691
1080.40 34.8447
1080.50 34.88514
1080.60 35.08999
1080.70 35.31918
1080.80 35.51671
1080.90 35.63344
1081.00 35.70429
1081.10 35.73558
1081.20 35.73249
1081.30 35.70021
1081.40 35.65884
1081.50 35.71066
1081.60 35.8373
1081.70 36.05332
1081.80 36.12914
1081.90 36.09122
1082.00 36.06459
1082.10 35.9036
1082.20 35.5191
1082.30 35.19361
1082.40 34.89927
1082.50 34.68531
1082.60 34.63497
1082.70 34.64917
1082.80 34.67996
1082.90 34.75524
1083.00 34.91833
1083.10 35.11022
1083.20 35.35438
1083.30 35.65867
1083.40 35.62217
1083.50 35.4846
1083.60 35.35652
1083.70 35.28353
1083.80 35.16068
1083.90 35.14342
1084.00 35.27107
1084.10 35.4473
1084.20 35.49353
1084.30 35.49757
1084.40 35.45313
1084.50 35.22121
1084.60 34.79635
1084.70 34.49243
1084.80 34.28065
1084.90 34.41911
1085.00 34.60334
1085.10 34.90948
1085.20 35.34103
1085.30 35.37301
1085.40 35.08492
1085.50 34.86981
1085.60 34.90314
1085.70 35.32571
1085.80 35.64467
1085.90 35.98295
1086.00 36.29465
1086.10 36.48981
1086.20 36.65334
1086.30 36.83604
1086.40 36.92241
1086.50 36.72632
1086.60 36.5922
1086.70 36.40558
1086.80 36.14575
1086.90 36.0061
1087.00 36.11242
1087.10 36.36817
1087.20 36.59163
1087.30 36.55347
1087.40 36.4784
1087.50 36.22283
1087.60 35.63155
1087.70 35.34127
1087.80 35.34642
1087.90 35.59451
1088.00 35.74388
1088.10 35.65222
1088.20 35.64091
1088.30 35.57453
1088.40 35.4374
1088.50 35.39566
1088.60 35.49469
1088.70 35.82857
1088.80 35.99651
1088.90 35.85863
1089.00 35.70539
1089.10 35.63221
1089.20 35.68396
1089.30 35.54379
1089.40 35.35121
1089.50 35.1842
1089.60 35.26618
1089.70 35.51135
1089.80 35.75027
1089.90 36.05298
1090.00 36.46506
1090.10 36.78129
1090.20 36.95715
1090.30 36.94291
1090.40 36.99632
1090.50 36.98052
1090.60 36.86664
1090.70 36.58903
1090.80 36.23512
1090.90 36.00214
1091.00 35.75514
1091.10 35.35467
1091.20 35.13036
1091.30 35.18052
1091.40 35.40696
1091.50 35.79316
1091.60 36.37383
1091.70 36.81084
1091.80 37.11424
1091.90 37.19546
1092.00 37.18595
1092.10 37.0357
1092.20 36.7792
1092.30 36.60001
1092.40 36.61919
1092.50 36.67347
1092.60 36.72055
1092.70 36.60101
1092.80 36.48247
1092.90 36.37786
1093.00 36.33529
1093.10 36.29107
1093.20 36.23162
1093.30 36.14823
1093.40 36.05834
1093.50 35.94063
1093.60 35.72891
1093.70 35.49017
1093.80 35.26478
1093.90 35.4438
1094.00 35.91092
1094.10 36.39998
1094.20 36.78711
1094.30 36.83517
1094.40 36.70003
1094.50 36.32416
1094.60 35.65376
1094.70 35.38811
1094.80 35.34956
1094.90 35.34567
1095.00 35.51854
1095.10 35.92809
1095.20 36.41867
1095.30 36.91522
1095.40 37.41765
1095.50 37.56449
1095.60 37.47604
1095.70 37.32249
1095.80 37.22704
1095.90 37.14046
1096.00 36.98379
1096.10 36.93328
1096.20 36.99854
1096.30 37.02838
1096.40 37.04146
1096.50 37.07047
1096.60 36.98803
1096.70 36.73125
1096.80 36.38023
1096.90 35.89797
1097.00 35.21526
1097.10 34.79211
1097.20 34.52926
1097.30 34.35078
1097.40 34.40518
1097.50 34.7017
1097.60 35.12607
1097.70 35.51753
1097.80 35.81843
1097.90 36.0091
1098.00 36.17443
1098.10 36.43037
1098.20 36.62829
1098.30 36.52568
1098.40 36.2039
1098.50 35.79622
1098.60 35.5364
1098.70 35.40485
1098.80 35.3592
1098.90 35.37963
1099.00 35.47258
1099.10 35.6005
1099.20 35.7693
1099.30 36.03537
1099.40 36.47965
1099.50 36.75579
1099.60 36.87028
1099.70 36.66653
1099.80 36.50147
1099.90 36.36319
1100.00 36.29233
1100.10 36.24559
1100.20 36.13215
1100.30 35.99085
1100.40 35.79046
1100.50 35.49466
1100.60 35.35848
1100.70 35.42142
1100.80 35.63978
1100.90 35.87833
1101.00 36.04227
1101.10 36.19061
1101.20 36.27667
1101.30 36.34899
1101.40 36.4834
1101.50 36.65195
1101.60 36.89851
1101.70 36.86551
1101.80 36.55592
1101.90 36.08122
1102.00 35.47272
1102.10 34.99074
1102.20 34.54862
1102.30 34.12982
1102.40 33.63419
1102.50 33.7734
1102.60 34.36729
1102.70 35.00375
1102.80 35.59884
1102.90 35.98314
1103.00 36.1426
1103.10 36.01644
1103.20 35.7489
1103.30 35.30891
1103.40 34.65166
1103.50 33.94572
1103.60 33.51354
1103.70 33.53383
1103.80 33.63665
1103.90 33.97229
1104.00 34.41675
1104.10 34.51301
1104.20 34.58601
1104.30 34.81791
1104.40 35.09294
1104.50 35.21564
1104.60 35.24518
1104.70 35.32353
1104.80 35.29284
1104.90 35.06748
1105.00 34.86309
1105.10 34.87833
1105.20 34.71934
1105.30 34.16215
1105.40 33.57229
1105.50 33.09916
1105.60 32.95133
1105.70 32.96998
1105.80 33.18399
1105.90 33.61772
1106.00 33.88893
1106.10 33.96602
1106.20 34.03721
1106.30 34.05388
1106.40 34.06821
1106.50 34.11359
1106.60 34.15276
1106.70 34.16666
1106.80 33.8864
1106.90 33.46571
1107.00 33.11402
1107.10 32.94944
1107.20 33.03366
1107.30 33.09369
1107.40 33.33309
1107.50 33.8694
1107.60 34.06499
1107.70 34.01699
1107.80 33.85022
1107.90 33.84797
1108.00 34.02062
1108.10 34.2671
1108.20 34.58486
1108.30 35.00699
1108.40 35.25715
1108.50 35.4575
1108.60 35.65747
1108.70 35.78652
1108.80 35.64575
1108.90 35.55658
1109.00 35.44778
1109.10 35.23517
1109.20 35.08933
1109.30 35.14464
1109.40 35.42334
1109.50 35.72984
1109.60 35.98
1109.70 36.14689
1109.80 36.25835
1109.90 36.18609
1110.00 36.04862
1110.10 35.74964
1110.20 35.22812
1110.30 34.60658
1110.40 34.00552
1110.50 33.51188
1110.60 33.19048
1110.70 33.43213
1110.80 33.58082
1110.90 33.72639
1111.00 33.82519
1111.10 33.74154
1111.20 33.57766
1111.30 33.36429
1111.40 33.19444
1111.50 33.25962
1111.60 33.37473
1111.70 33.54199
1111.80 33.71156
1111.90 33.77309
1112.00 33.6976
1112.10 33.58998
1112.20 33.52333
1112.30 33.51396
1112.40 33.58474
1112.50 33.78556
1112.60 34.15024
1112.70 34.43728
1112.80 34.78562
1112.90 35.19762
1113.00 35.53544
1113.10 35.63854
1113.20 35.78293
1113.30 35.86933
1113.40 35.8941
1113.50 35.81358
1113.60 35.49547
1113.70 34.92858
1113.80 34.36085
1113.90 34.20594
1114.00 34.09684
1114.10 34.14073
1114.20 34.4265
1114.30 34.86169
1114.40 35.40672
1114.50 36.05343
1114.60 36.50722
1114.70 36.48345
1114.80 36.42501
1114.90 36.28441
1115.00 35.91676
1115.10 35.54326
1115.20 35.42003
1115.30 35.7158
1115.40 35.82004
1115.50 35.72459
1115.60 35.59076
1115.70 35.41778
1115.80 35.2823
1115.90 35.37556
1116.00 35.51728
1116.10 35.58082
1116.20 35.62484
1116.30 35.7254
1116.40 35.78963
1116.50 35.74783
1116.60 35.70252
1116.70 35.58827
1116.80 35.40652
1116.90 35.03011
1117.00 34.68357
1117.10 34.3126
1117.20 33.95198
1117.30 33.60364
1117.40 33.38526
1117.50 33.13989
1117.60 32.9432
1117.70 33.04118
1117.80 33.28538
1117.90 33.65572
1118.00 34.12125
1118.10 34.5535
1118.20 34.93119
1118.30 35.18687
1118.40 35.43084
1118.50 35.72396
1118.60 36.15203
1118.70 36.36422
1118.80 36.16576
1118.90 35.9431
1119.00 35.63488
1119.10 35.33691
1119.20 35.05471
1119.30 34.74493
1119.40 34.52739
1119.50 34.38814
1119.60 34.42089
1119.70 34.5042
1119.80 34.63622
1119.90 34.76278
1120.00 34.84892
1120.10 34.89811
1120.20 34.86882
1120.30 34.70546
1120.40 34.57471
1120.50 34.70019
1120.60 35.15028
1120.70 35.52149
1120.80 35.77497
1120.90 35.66855
1121.00 35.60414
1121.10 35.52686
1121.20 35.46142
1121.30 35.25508
1121.40 35.09263
1121.50 34.97004
1121.60 35.04247
1121.70 35.10049
1121.80 35.09252
1121.90 34.98359
1122.00 34.8973
1122.10 34.95867
1122.20 35.0212
1122.30 34.98312
1122.40 34.98004
1122.50 35.25976
1122.60 35.35608
1122.70 35.51006
1122.80 35.63158
1122.90 35.91984
1123.00 36.14746
1123.10 36.17223
1123.20 35.99048
1123.30 35.94054
1123.40 35.76568
1123.50 35.40024
1123.60 34.69256
1123.70 34.41126
1123.80 34.52271
1123.90 34.8852
1124.00 35.17267
1124.10 35.41471
1124.20 35.66471
1124.30 35.91179
1124.40 36.13085
1124.50 36.23676
1124.60 36.29776
1124.70 36.27593
1124.80 35.99834
1124.90 35.97378
1125.00 35.81828
1125.10 35.4987
1125.20 34.61429
1125.30 33.84846
1125.40 33.54323
1125.50 33.98745
1125.60 34.52125
1125.70 35.08197
1125.80 35.28724
1125.90 35.61999
1126.00 35.85252
1126.10 35.87666
1126.20 35.7808
1126.30 35.71246
1126.40 35.71669
1126.50 35.73759
1126.60 35.78897
1126.70 35.87506
1126.80 36.06919
1126.90 36.27128
1127.00 36.44331
1127.10 36.50795
1127.20 36.5052
1127.30 36.42243
1127.40 36.37942
1127.50 36.38673
1127.60 36.40459
1127.70 36.29958
1127.80 36.02485
1127.90 35.8468
1128.00 35.73295
1128.10 35.75799
1128.20 35.77711
1128.30 35.79729
1128.40 35.95454
1128.50 36.09614
1128.60 36.25459
1128.70 36.23763
1128.80 36.26549
1128.90 36.21611
1129.00 36.15371
1129.10 36.10066
1129.20 36.01366
1129.30 35.99576
1129.40 36.06543
1129.50 36.17108
1129.60 36.35981
1129.70 36.50695
1129.80 36.59386
1129.90 36.67044
1130.00 36.55163
1130.10 36.62329
1130.20 36.36465
1130.30 35.98857
1130.40 35.5545
1130.50 35.17945
1130.60 34.86294
1130.70 34.60986
1130.80 34.43935
1130.90 34.41344
1131.00 34.567
1131.10 34.62805
1131.20 34.71576
1131.30 34.9016
1131.40 35.12619
1131.50 35.29603
1131.60 35.44282
1131.70 35.58533
1131.80 35.68447
1131.90 35.74024
1132.00 35.72319
1132.10 35.718
1132.20 35.68848
1132.30 35.64689
1132.40 35.58743
1132.50 35.55859
1132.60 35.47375
1132.70 35.41396
1132.80 35.36172
1132.90 35.33788
1133.00 35.35706
1133.10 35.32283
1133.20 35.24747
1133.30 35.13929
1133.40 35.06169
1133.50 35.0022
1133.60 34.80037
1133.70 34.64511
1133.80 34.48666
1133.90 34.24334
1134.00 33.9653
1134.10 33.67502
1134.20 33.48839
1134.30 33.19148
1134.40 32.86687
1134.50 32.66345
1134.60 32.6792
1134.70 32.82829
1134.80 33.11952
1134.90 34.01488
1135.00 34.91769
1135.10 35.58281
1135.20 35.42275
1135.30 35.21384
1135.40 34.91517
1135.50 34.56495
1135.60 34.32529
1135.70 34.16912
1135.80 34.11057
1135.90 33.93307
1136.00 33.61183
1136.10 33.39465
1136.20 33.57771
1136.30 33.87305
1136.40 33.97484
1136.50 33.74328
1136.60 33.5645
1136.70 33.35305
1136.80 33.07354
1136.90 32.70711
1137.00 32.36769
1137.10 32.08635
1137.20 31.9557
1137.30 31.77279
1137.40 31.52221
1137.50 31.08824
1137.60 30.54303
1137.70 29.73623
1137.80 28.67707
1137.90 27.91688
1138.00 26.75738
1138.10 25.41058
1138.20 23.88542
1138.30 22.9884
1138.40 22.66795
1138.50 22.84789
1138.60 23.0684
1138.70 23.99953
1138.80 25.59729
1138.90 27.05338
1139.00 28.02009
1139.10 28.7081
1139.20 29.54892
1139.30 29.94553
1139.40 30.01234
1139.50 29.98302
1139.60 29.85435
1139.70 29.59579
1139.80 29.05847
1139.90 28.36614
1140.00 27.4252
1140.10 26.14305
1140.20 25.053
1140.30 23.5951
1140.40 22.00111
1140.50 20.30946
1140.60 19.56685
1140.70 19.62309
1140.80 19.84235
1140.90 20.68032
1141.00 22.0556
1141.10 24.03061
1141.20 25.77908
1141.30 27.22377
1141.40 28.37184
1141.50 29.45747
1141.60 30.26471
1141.70 30.77645
1141.80 31.49459
1141.90 31.99183
1142.00 32.4006
1142.10 32.75842
1142.20 33.05067
1142.30 33.2421
1142.40 33.19455
1142.50 33.21746
1142.60 33.29271
1142.70 33.50306
1142.80 33.65811
1142.90 33.78735
1143.00 33.8549
1143.10 34.0207
1143.20 34.12311
1143.30 34.20439
1143.40 34.22401
1143.50 34.22206
1143.60 34.22278
1143.70 34.29979
1143.80 34.32712
1143.90 34.2339
1144.00 34.13064
1144.10 33.94964
1144.20 33.94428
1144.30 33.94226
1144.40 34.00359
1144.50 34.07093
1144.60 34.06357
1144.70 34.04195
1144.80 34.05594
1144.90 34.12478
1145.00 34.30461
1145.10 34.43776
1145.20 34.54862
1145.30 34.55127
1145.40 34.62213
1145.50 34.67604
1145.60 34.68586
1145.70 34.66498
1145.80 34.65715
1145.90 34.75699
1146.00 34.9356
1146.10 35.12685
1146.20 35.32159
1146.30 35.41283
1146.40 35.52519
1146.50 35.64245
1146.60 35.85122
1146.70 35.97585
1146.80 35.96843
1146.90 35.8661
1147.00 35.93789
1147.10 35.9378
1147.20 35.88754
1147.30 35.65584
1147.40 35.51644
1147.50 35.44393
1147.60 35.36441
1147.70 35.27355
1147.80 35.18996
1147.90 35.22867
1148.00 35.33704
1148.10 35.40152
1148.20 35.47832
1148.30 35.62725
1148.40 35.61522
1148.50 35.58321
1148.60 35.4497
1148.70 35.46583
1148.80 35.60554
1148.90 35.86242
1149.00 36.05259
1149.10 36.20727
1149.20 36.0756
1149.30 36.14076
1149.40 36.09965
1149.50 36.12859
1149.60 35.9737
1149.70 35.94209
1149.80 35.94731
1149.90 35.96779
1150.00 35.90596
1150.10 35.75587
1150.20 35.58768
1150.30 35.51266
1150.40 35.45291
1150.50 35.55305
1150.60 35.56468
1150.70 35.64121
1150.80 35.80301
1150.90 35.9618
1151.00 36.06272
1151.10 36.0637
1151.20 36.0039
1151.30 35.93983
1151.40 35.83857
1151.50 35.72695
1151.60 35.67835
1151.70 35.64283
1151.80 35.62997
1151.90 35.51449
1152.00 35.41324
1152.10 35.40894
1152.20 35.58171
1152.30 35.59239
1152.40 35.44196
1152.50 35.05779
1152.60 34.75026
1152.70 34.56508
1152.80 34.61367
1152.90 34.60054
1153.00 34.58794
1153.10 34.5851
1153.20 34.68166
1153.30 34.76971
1153.40 34.82022
1153.50 34.81476
1153.60 34.90001
1153.70 35.07243
1153.80 35.26556
1153.90 35.43332
1154.00 35.60202
1154.10 35.76741
1154.20 35.87749
1154.30 35.91878
1154.40 35.70457
1154.50 35.58375
1154.60 35.35848
1154.70 35.07783
1154.80 34.82678
1154.90 34.745
1155.00 34.80237
1155.10 34.90942
1155.20 35.05011
1155.30 35.1933
1155.40 35.25948
1155.50 35.31486
1155.60 35.37017
1155.70 35.52249
1155.80 35.59732
1155.90 35.61078
1156.00 35.53284
1156.10 35.59418
1156.20 35.66489
1156.30 35.72019
1156.40 35.68173
1156.50 35.63129
1156.60 35.60146
1156.70 35.63345
1156.80 35.64938
1156.90 35.57164
1157.00 35.29936
1157.10 35.09763
1157.20 34.98225
1157.30 35.07908
1157.40 35.13851
1157.50 35.20426
1157.60 35.22449
1157.70 35.19641
1157.80 35.18032
1157.90 35.18305
1158.00 35.21709
1158.10 35.23588
1158.20 35.25316
1158.30 35.29817
1158.40 35.38965
1158.50 35.45271
1158.60 35.37396
1158.70 35.27967
1158.80 35.13108
1158.90 34.95926
1159.00 34.76971
1159.10 34.46157
1159.20 34.0912
1159.30 33.70993
1159.40 33.41234
1159.50 33.14878
1159.60 32.96624
1159.70 32.76559
1159.80 32.80441
1159.90 33.16576
1160.00 33.439
1160.10 33.73705
1160.20 34.0187
1160.30 34.28531
1160.40 34.41037
1160.50 34.41975
1160.60 34.33713
1160.70 34.12246
1160.80 33.71468
1160.90 33.08131
1161.00 32.65685
1161.10 32.56829
1161.20 32.9448
1161.30 33.08764
1161.40 33.524
1161.50 34.12646
1161.60 34.8656
1161.70 35.3319
1161.80 35.46079
1161.90 35.28463
1162.00 35.12654
1162.10 34.91675
1162.20 34.82753
1162.30 34.72562
1162.40 34.70898
1162.50 34.85294
1162.60 34.92417
1162.70 35.04405
1162.80 35.14934
1162.90 35.22843
1163.00 35.28611
1163.10 35.33647
1163.20 35.41148
1163.30 35.46488
1163.40 35.41602
1163.50 35.16328
1163.60 34.95344
1163.70 34.56329
1163.80 33.96057
1163.90 33.36661
1164.00 32.96404
1164.10 32.91396
1164.20 32.82592
1164.30 33.08554
1164.40 33.53708
1164.50 34.17188
1164.60 34.62559
1164.70 34.9129
1164.80 34.9416
1164.90 34.99516
1165.00 34.96376
1165.10 34.76465
1165.20 34.64524
1165.30 34.48509
1165.40 34.28102
1165.50 34.05992
1165.60 33.92512
1165.70 33.90229
1165.80 33.95293
1165.90 33.97405
1166.00 34.07168
1166.10 34.3096
1166.20 34.53854
1166.30 34.74877
1166.40 34.80815
1166.50 34.98124
1166.60 35.10776
1166.70 35.12555
1166.80 35.11959
1166.90 35.00397
1167.00 34.8209
1167.10 34.57478
1167.20 34.35279
1167.30 34.1717
1167.40 34.09296
1167.50 34.02874
1167.60 33.97646
1167.70 33.93461
1167.80 33.90735
1167.90 33.92227
1168.00 33.90488
1168.10 33.88917
1168.20 33.76652
1168.30 33.51386
1168.40 33.18501
1168.50 32.7389
1168.60 32.14672
1168.70 31.30677
1168.80 30.33266
1168.90 28.91384
1169.00 26.77084
1169.10 24.93116
1169.20 23.65089
1169.30 23.42192
1169.40 22.72622
1169.50 23.18948
1169.60 24.58198
1169.70 26.5325
1169.80 28.13985
1169.90 29.52069
1170.00 30.64693
1170.10 31.71984
1170.20 32.57152
1170.30 33.05479
1170.40 33.6627
1170.50 34.13172
1170.60 34.28454
1170.70 34.43524
1170.80 34.50013
1170.90 34.48635
1171.00 34.45928
1171.10 34.47222
1171.20 34.50311
1171.30 34.51161
1171.40 34.47074
1171.50 34.42458
1171.60 34.42157
1171.70 34.48576
1171.80 34.48621
1171.90 34.33821
1172.00 34.113
1172.10 33.94637
1172.20 33.88727
1172.30 33.88552
1172.40 33.90724
1172.50 33.95899
1172.60 34.06391
1172.70 34.20018
1172.80 34.37053
1172.90 34.50596
1173.00 34.60194
1173.10 34.65884
1173.20 34.62469
1173.30 34.68466
1173.40 34.62213
1173.50 34.49157
1173.60 34.3198
1173.70 34.18329
1173.80 34.14372
1173.90 34.17615
1174.00 34.18684
1174.10 34.24797
1174.20 34.40425
1174.30 34.5629
1174.40 34.7425
1174.50 34.77842
1174.60 34.80864
1174.70 34.73217
1174.80 34.60334
1174.90 34.49401
1175.00 34.3497
1175.10 34.13222
1175.20 33.81257
1175.30 33.52978
1175.40 33.2868
1175.50 33.21026
1175.60 33.12393
1175.70 33.11148
1175.80 33.1641
1175.90 33.31913
1176.00 33.35812
1176.10 33.23828
1176.20 33.08682
1176.30 32.91082
1176.40 32.69378
1176.50 32.41013
1176.60 31.8917
1176.70 31.10759
1176.80 29.96331
1176.90 28.79483
1177.00 27.17606
1177.10 24.87994
1177.20 22.70472
1177.30 20.98858
1177.40 19.90281
1177.50 18.5997
1177.60 18.59331
1177.70 19.50961
1177.80 21.28338
1177.90 22.88696
1178.00 24.57879
1178.10 26.35856
1178.20 27.97641
1178.30 29.16784
1178.40 29.7828
1178.50 30.55164
1178.60 31.20479
1178.70 31.67011
1178.80 32.14586
1178.90 32.59721
1179.00 32.94162
1179.10 33.18868
1179.20 33.34838
1179.30 33.42327
1179.40 33.40297
1179.50 33.40638
1179.60 33.38461
1179.70 33.42323
1179.80 33.46795
1179.90 33.56194
1180.00 33.59389
1180.10 33.54082
1180.20 33.5415
1180.30 33.64602
1180.40 33.86499
1180.50 34.02415
1180.60 34.08965
1180.70 34.0429
1180.80 34.05331
1180.90 34.04702
1181.00 34.01174
1181.10 33.96149
1181.20 33.91667
1181.30 33.86413
1181.40 33.79563
1181.50 33.72037
1181.60 33.69409
1181.70 33.65916
1181.80 33.65656
1181.90 33.70576
1182.00 33.84184
1182.10 33.97807
1182.20 34.111
1182.30 34.11949
1182.40 34.13054
1182.50 33.99129
1182.60 33.65718
1182.70 33.36368
1182.80 32.99029
1182.90 32.66271
1183.00 32.30906
1183.10 32.19073
1183.20 32.23989
1183.30 32.46298
1183.40 32.64137
1183.50 32.79612
1183.60 32.8597
1183.70 32.99719
1183.80 33.06526
1183.90 33.11481
1184.00 33.02651
1184.10 33.15055
1184.20 33.51197
1184.30 33.96897
1184.40 34.2649
1184.50 34.35881
1184.60 34.22913
1184.70 34.10255
1184.80 33.8751
1184.90 33.4922
1185.00 33.17319
1185.10 32.95516
1185.20 32.9347
1185.30 32.87939
1185.40 32.96186
1185.50 33.19834
1185.60 33.44757
1185.70 33.59551
1185.80 33.69502
1185.90 33.76315
1186.00 33.86949
1186.10 33.96946
1186.20 33.98125
1186.30 33.93536
1186.40 33.86008
1186.50 33.81072
1186.60 33.84864
1186.70 33.81529
1186.80 33.63067
1186.90 33.41346
1187.00 33.28305
1187.10 33.24354
1187.20 33.26085
1187.30 33.28351
1187.40 33.3897
1187.50 33.65846
1187.60 33.85283
1187.70 33.97972
1187.80 33.76908
1187.90 33.61228
1188.00 33.22899
1188.10 32.60851
1188.20 32.06341
1188.30 31.27847
1188.40 30.32491
1188.50 29.25626
1188.60 28.72904
1188.70 28.79833
1188.80 29.49519
1188.90 30.02069
1189.00 30.75439
1189.10 31.65903
1189.20 32.54263
1189.30 33.01181
1189.40 33.01533
1189.50 32.99708
1189.60 33.00278
1189.70 33.06687
1189.80 33.23418
1189.90 33.41491
1190.00 33.56912
1190.10 33.68773
1190.20 33.7994
1190.30 33.83011
1190.40 33.6676
1190.50 33.50086
1190.60 33.31146
1190.70 33.19851
1190.80 33.05993
1190.90 33.10519
1191.00 33.27303
1191.10 33.43885
1191.20 33.52679
1191.30 33.59016
1191.40 33.67024
1191.50 33.77312
1191.60 33.85065
1191.70 33.88474
1191.80 33.94349
1191.90 34.01744
1192.00 34.06548
1192.10 34.04364
1192.20 33.96406
1192.30 33.82407
1192.40 33.70274
1192.50 33.59807
1192.60 33.52754
1192.70 33.49861
1192.80 33.501
1192.90 33.55353
1193.00 33.64573
1193.10 33.70733
1193.20 33.74206
1193.30 33.74084
1193.40 33.76288
1193.50 33.66356
1193.60 33.37364
1193.70 33.09199
1193.80 32.80887
1193.90 32.53659
1194.00 32.2655
1194.10 32.05257
1194.20 31.95819
1194.30 32.05384
1194.40 32.05696
1194.50 32.02793
1194.60 31.9138
1194.70 31.91355
1194.80 31.76555
1194.90 31.41364
1195.00 30.98775
1195.10 30.78757
1195.20 30.86177
1195.30 31.07101
1195.40 31.30024
1195.50 31.64318
1195.60 32.08169
1195.70 32.42524
1195.80 32.58681
1195.90 32.25268
1196.00 32.09933
1196.10 31.91004
1196.20 31.72416
1196.30 31.5148
1196.40 31.38715
1196.50 31.34732
1196.60 31.37077
1196.70 31.40054
1196.80 31.43134
1196.90 31.45219
1197.00 31.28996
1197.10 30.86316
1197.20 30.03666
1197.30 29.3789
1197.40 28.67102
1197.50 27.96008
1197.60 27.07083
1197.70 26.91832
1197.80 27.27209
1197.90 27.81923
1198.00 28.28478
1198.10 28.74132
1198.20 29.2141
1198.30 29.69421
1198.40 30.13678
1198.50 30.60942
1198.60 30.96088
1198.70 31.20861
1198.80 31.10954
1198.90 31.21297
1199.00 31.03177
1199.10 30.65032
1199.20 30.20904
1199.30 29.91137
1199.40 29.77392
1199.50 29.77114
1199.60 29.75563
1199.70 29.82514
1199.80 30.02153
1199.90 30.16099
1200.00 30.24825
