# Version 2.1 - nm, norm@500 to 1, cut digits
# Wavelength(nm)  Flambda(ergs/cm^s/s/nm)
300.00 0.007523992
300.10 0.009971083
300.20 0.01147547
300.30 0.01211572
300.40 0.01230137
300.50 0.01236668
300.60 0.01242493
300.70 0.01247866
300.80 0.01253177
300.90 0.01258951
301.00 0.01265704
301.10 0.01273664
301.20 0.0128265
301.30 0.01292258
301.40 0.01302119
301.50 0.01312039
301.60 0.01321967
301.70 0.01331899
301.80 0.01341833
301.90 0.01351768
302.00 0.01361703
302.10 0.01371638
302.20 0.01381574
302.30 0.0139151
302.40 0.01401448
302.50 0.01411389
302.60 0.01421336
302.70 0.01431327
302.80 0.01441511
302.90 0.01452167
303.00 0.01463602
303.10 0.01475954
303.20 0.01489084
303.30 0.01502688
303.40 0.01516483
303.50 0.01530323
303.60 0.01544169
303.70 0.01558018
303.80 0.01571869
303.90 0.0158572
304.00 0.01599572
304.10 0.01613423
304.20 0.01627274
304.30 0.01641123
304.40 0.01654967
304.50 0.01668801
304.60 0.01682617
304.70 0.01696297
304.80 0.01709389
304.90 0.01721036
305.00 0.01730299
305.10 0.01736761
305.20 0.01740839
305.30 0.01743472
305.40 0.01745517
305.50 0.01747426
305.60 0.01749317
305.70 0.01751198
305.80 0.01753074
305.90 0.01754948
306.00 0.01756821
306.10 0.01758695
306.20 0.01760568
306.30 0.01762441
306.40 0.01764315
306.50 0.01766188
306.60 0.01768062
306.70 0.01769936
306.80 0.01771811
306.90 0.01773689
307.00 0.01775572
307.10 0.01777462
307.20 0.01779356
307.30 0.01781254
307.40 0.01783153
307.50 0.01785052
307.60 0.01786952
307.70 0.01788851
307.80 0.01790751
307.90 0.0179265
308.00 0.01794549
308.10 0.01796449
308.20 0.01798349
308.30 0.01800255
308.40 0.01802174
308.50 0.01804118
308.60 0.01806106
308.70 0.01808436
308.80 0.01812235
308.90 0.01819652
309.00 0.01833035
309.10 0.01853429
309.20 0.01879789
309.30 0.01909767
309.40 0.01941215
309.50 0.01973004
309.60 0.02004837
309.70 0.02036695
309.80 0.02068567
309.90 0.02100443
310.00 0.02132321
310.10 0.02164199
310.20 0.02196075
310.30 0.02227947
310.40 0.02259805
310.50 0.02291638
310.60 0.02323427
310.70 0.02354872
310.80 0.02384839
310.90 0.02411171
311.00 0.02431504
311.10 0.0244479
311.20 0.02452078
311.30 0.02455729
311.40 0.02457903
311.50 0.02459734
311.60 0.0246152
311.70 0.02463281
311.80 0.02465029
311.90 0.02466772
312.00 0.02468513
312.10 0.02470255
312.20 0.02471998
312.30 0.02473747
312.40 0.02475512
312.50 0.0247731
312.60 0.02479161
312.70 0.02481437
312.80 0.02485537
312.90 0.02494129
313.00 0.02510128
313.10 0.02534831
313.20 0.02566943
313.30 0.02603545
313.40 0.02641973
313.50 0.02680824
313.60 0.0271973
313.70 0.02758667
313.80 0.02797621
313.90 0.02836581
314.00 0.02875542
314.10 0.02914504
314.20 0.02953466
314.30 0.02992433
314.40 0.03031411
314.50 0.03070411
314.60 0.03109449
314.70 0.03148783
314.80 0.03189386
314.90 0.03233116
315.00 0.03282002
315.10 0.03336947
315.20 0.03397049
315.30 0.03460277
315.40 0.03524775
315.50 0.03589569
315.60 0.036544
315.70 0.03719254
315.80 0.03784118
315.90 0.03848987
316.00 0.03913858
316.10 0.03978728
316.20 0.04043594
316.30 0.04108444
316.40 0.04173253
316.50 0.0423798
316.60 0.04302569
316.70 0.04366072
316.80 0.04424906
316.90 0.0447225
317.00 0.04500637
317.10 0.04506754
317.20 0.04493915
317.30 0.04469586
317.40 0.04440587
317.50 0.04410503
317.60 0.0438028
317.70 0.04349975
317.80 0.0431963
317.90 0.04289268
318.00 0.04258902
318.10 0.04228537
318.20 0.04198174
318.30 0.04167824
318.40 0.04137505
318.50 0.04107249
318.60 0.04077098
318.70 0.04047779
318.80 0.04022034
318.90 0.04005085
319.00 0.04002647
319.10 0.04017256
319.20 0.04046376
319.30 0.04084291
319.40 0.04125781
319.50 0.04168102
319.60 0.04210529
319.70 0.04253019
319.80 0.0429554
319.90 0.04338073
320.00 0.04380609
320.10 0.04423146
320.20 0.04465681
320.30 0.04508212
320.40 0.04550731
320.50 0.04593226
320.60 0.04635683
320.70 0.04677833
320.80 0.0471866
320.90 0.04756234
321.00 0.04788441
321.10 0.04814344
321.20 0.04834879
321.30 0.04852162
321.40 0.04868122
321.50 0.04883775
321.60 0.04899389
321.70 0.0491498
321.80 0.04930559
321.90 0.04946134
322.00 0.04961707
322.10 0.04977281
322.20 0.04992858
322.30 0.05008453
322.40 0.05024089
322.50 0.0503981
322.60 0.05055674
322.70 0.05072662
322.80 0.05094477
322.90 0.05128176
323.00 0.05181478
323.10 0.05257808
323.20 0.05353743
323.30 0.0546156
323.40 0.05574206
323.50 0.05687975
323.60 0.05801886
323.70 0.05915882
323.80 0.06029921
323.90 0.06143976
324.00 0.06258036
324.10 0.06372095
324.20 0.06486154
324.30 0.0660021
324.40 0.06714259
324.50 0.06828294
324.60 0.06942306
324.70 0.07056136
324.80 0.07169181
324.90 0.07280296
325.00 0.07388227
325.10 0.07492417
325.20 0.07593422
325.30 0.07692497
325.40 0.07790788
325.50 0.07888897
325.60 0.07986982
325.70 0.08085053
325.80 0.08183118
325.90 0.0828118
326.00 0.08379241
326.10 0.08477302
326.20 0.08575365
326.30 0.08673433
326.40 0.08771517
326.50 0.0886963
326.60 0.08967793
326.70 0.09066349
326.80 0.09166595
326.90 0.09271002
327.00 0.09382273
327.10 0.09501606
327.20 0.09627802
327.30 0.09758159
327.40 0.09890206
327.50 0.1002265
327.60 0.1015514
327.70 0.1028766
327.80 0.1042019
327.90 0.1055273
328.00 0.1068528
328.10 0.1081782
328.20 0.1095035
328.30 0.1108285
328.40 0.1121526
328.50 0.113475
328.60 0.1147945
328.70 0.1160909
328.80 0.1172881
328.90 0.1182412
329.00 0.1187916
329.10 0.1188689
329.20 0.1185435
329.30 0.117974
329.40 0.1173054
329.50 0.1166136
329.60 0.1159189
329.70 0.1152225
329.80 0.1145252
329.90 0.1138276
330.00 0.1131299
330.10 0.1124322
330.20 0.1117346
330.30 0.1110372
330.40 0.1103404
330.50 0.109645
330.60 0.1089517
330.70 0.1082755
330.80 0.1076729
330.90 0.1072514
331.00 0.1071286
331.10 0.1073568
331.20 0.1078837
331.30 0.1085916
331.40 0.1093731
331.50 0.1101718
331.60 0.1109726
331.70 0.1117747
331.80 0.1125774
331.90 0.1133804
332.00 0.1141835
332.10 0.1149866
332.20 0.1157896
332.30 0.1165925
332.40 0.1173949
332.50 0.1181966
332.60 0.1189968
332.70 0.1197863
332.80 0.1205291
332.90 0.1211573
333.00 0.1215963
333.10 0.1218132
333.20 0.1218409
333.30 0.121754
333.40 0.1216205
333.50 0.1214762
333.60 0.1213305
333.70 0.121184
333.80 0.121037
333.90 0.1208899
334.00 0.1207428
334.10 0.1205961
334.20 0.1204508
334.30 0.1203073
334.40 0.1201656
334.50 0.1200253
334.60 0.1200045
334.70 0.1203714
334.80 0.1212324
334.90 0.1221187
335.00 0.1221333
335.10 0.1210355
335.20 0.12025
335.30 0.1224315
335.40 0.1294152
335.50 0.1401322
335.60 0.1505014
335.70 0.1557969
335.80 0.1536896
335.90 0.1453993
336.00 0.1343954
336.10 0.1242562
336.20 0.117485
336.30 0.115141
336.40 0.1163949
336.50 0.1186324
336.60 0.1190256
336.70 0.1168816
336.80 0.1145219
336.90 0.1154574
337.00 0.1213749
337.10 0.1304827
337.20 0.1385314
337.30 0.1417296
337.40 0.1394029
337.50 0.1344129
337.60 0.1309685
337.70 0.1315041
337.80 0.1352498
337.90 0.1396429
338.00 0.1427203
338.10 0.1439379
338.20 0.1430107
338.30 0.139013
338.40 0.131639
338.50 0.1230612
338.60 0.1175918
338.70 0.1185911
338.80 0.1253382
338.90 0.1332629
339.00 0.1376183
339.10 0.1373659
339.20 0.1358119
339.30 0.1373489
339.40 0.1434032
339.50 0.151506
339.60 0.1579536
339.70 0.160912
339.80 0.1608855
339.90 0.1588878
340.00 0.1553238
340.10 0.1506163
340.20 0.1457404
340.30 0.1414414
340.40 0.1372353
340.50 0.1319274
340.60 0.125239
340.70 0.1184788
340.80 0.1135146
340.90 0.1114102
341.00 0.1120969
341.10 0.1149259
341.20 0.1191457
341.30 0.1238721
341.40 0.1280648
341.50 0.1309266
341.60 0.1323711
341.70 0.1330583
341.80 0.1338874
341.90 0.1353298
342.00 0.1370084
342.10 0.1377723
342.20 0.1363985
342.30 0.1326231
342.40 0.1276968
342.50 0.1237538
342.60 0.1223819
342.70 0.1236347
342.80 0.1262379
342.90 0.1285954
343.00 0.1297708
343.10 0.1299071
343.20 0.1298811
343.30 0.1304464
343.40 0.1315741
343.50 0.1326083
343.60 0.1329592
343.70 0.132466
343.80 0.1312558
343.90 0.1296262
344.00 0.1281199
344.10 0.1273642
344.20 0.1275242
344.30 0.128028
344.40 0.1280706
344.50 0.1273871
344.60 0.1264698
344.70 0.1261398
344.80 0.1270237
344.90 0.1293421
345.00 0.1329742
345.10 0.1375475
345.20 0.142457
345.30 0.1468683
345.40 0.1498513
345.50 0.1508262
345.60 0.1500436
345.70 0.1485427
345.80 0.14744
345.90 0.1471497
346.00 0.1471991
346.10 0.1466448
346.20 0.1447337
346.30 0.1414983
346.40 0.1379473
346.50 0.1354795
346.60 0.1347739
346.70 0.1351998
346.80 0.1354043
346.90 0.1344144
347.00 0.1321395
347.10 0.1291852
347.20 0.126555
347.30 0.1253671
347.40 0.126333
347.50 0.1291975
347.60 0.1328583
347.70 0.1362115
347.80 0.1388872
347.90 0.1412402
348.00 0.1437795
348.10 0.1465919
348.20 0.1491563
348.30 0.1506858
348.40 0.1507633
348.50 0.1497065
348.60 0.1482408
348.70 0.1468398
348.80 0.1455042
348.90 0.1440872
349.00 0.1426009
349.10 0.1411775
349.20 0.1399345
349.30 0.1390389
349.40 0.1387882
349.50 0.1393725
349.60 0.1405045
349.70 0.1414637
349.80 0.1417345
349.90 0.1417335
350.00 0.1427579
350.10 0.1459625
350.20 0.151249
350.30 0.1571499
350.40 0.1618252
350.50 0.1642204
350.60 0.1644124
350.70 0.163121
350.80 0.1610935
350.90 0.1587506
351.00 0.1560237
351.10 0.1523885
351.20 0.1472804
351.30 0.1408324
351.40 0.1342773
351.50 0.1293583
351.60 0.127099
351.70 0.1270843
351.80 0.1279451
351.90 0.1284994
352.00 0.128413
352.10 0.1279241
352.20 0.1273121
352.30 0.1268215
352.40 0.1269733
352.50 0.128718
352.60 0.1329129
352.70 0.139434
352.80 0.1468373
352.90 0.1531626
353.00 0.1573723
353.10 0.160011
353.20 0.162363
353.30 0.1651423
353.40 0.1681778
353.50 0.1711226
353.60 0.1740487
353.70 0.177224
353.80 0.1806409
353.90 0.1839991
354.00 0.1869071
354.10 0.1888592
354.20 0.1892492
354.30 0.1878369
354.40 0.1852725
354.50 0.1828752
354.60 0.1816506
354.70 0.181552
354.80 0.1817574
354.90 0.1815341
355.00 0.1807447
355.10 0.179683
355.20 0.1786615
355.30 0.1778237
355.40 0.1772382
355.50 0.1769333
355.60 0.176735
355.70 0.1761604
355.80 0.1746414
355.90 0.1719959
356.00 0.1686435
356.10 0.1652639
356.20 0.162216
356.30 0.159253
356.40 0.1557973
356.50 0.1515737
356.60 0.1470691
356.70 0.1433599
356.80 0.1413631
356.90 0.1411597
357.00 0.1420019
357.10 0.1428891
357.20 0.1430893
357.30 0.1422875
357.40 0.1404968
357.50 0.1379611
357.60 0.1350844
357.70 0.1322892
357.80 0.1298463
357.90 0.1278143
358.00 0.1261839
358.10 0.1251338
358.20 0.1250967
358.30 0.1264763
358.40 0.12924
358.50 0.1327737
358.60 0.1361178
358.70 0.1383776
358.80 0.1390942
358.90 0.1384657
359.00 0.1373602
359.10 0.1369899
359.20 0.1382434
359.30 0.141067
359.40 0.1443931
359.50 0.1468079
359.60 0.1475084
359.70 0.1467993
359.80 0.1457442
359.90 0.1452647
360.00 0.1454076
360.10 0.1453469
360.20 0.1440913
360.30 0.1412839
360.40 0.1375073
360.50 0.1339957
360.60 0.1320648
360.70 0.1325901
360.80 0.135612
360.90 0.1402449
361.00 0.1451107
361.10 0.1491206
361.20 0.1519888
361.30 0.1540215
361.40 0.1554865
361.50 0.1563251
361.60 0.1565246
361.70 0.1565237
361.80 0.1569739
361.90 0.1580809
362.00 0.1593608
362.10 0.1601482
362.20 0.1602088
362.30 0.1598061
362.40 0.159382
362.50 0.1593059
362.60 0.1597002
362.70 0.1602292
362.80 0.160159
362.90 0.1589422
363.00 0.1568579
363.10 0.1549288
363.20 0.1540992
363.30 0.154532
363.40 0.1556769
363.50 0.1568457
363.60 0.157654
363.70 0.1580595
363.80 0.1581348
363.90 0.1578451
364.00 0.1569935
364.10 0.1553575
364.20 0.152916
364.30 0.1499744
364.40 0.1471008
364.50 0.1449425
364.60 0.1439766
364.70 0.1442467
364.80 0.1453044
364.90 0.1465499
365.00 0.1477782
365.10 0.1493837
365.20 0.151868
365.30 0.1550853
365.40 0.1580588
365.50 0.1596545
365.60 0.1595136
365.70 0.158324
365.80 0.1571575
365.90 0.1566023
366.00 0.1565423
366.10 0.1566441
366.20 0.1568852
366.30 0.1575082
366.40 0.1585731
366.50 0.1597126
366.60 0.1603243
366.70 0.1599587
366.80 0.1585536
366.90 0.1563999
367.00 0.1539909
367.10 0.1518867
367.20 0.1505961
367.30 0.1504463
367.40 0.1514423
367.50 0.1532378
367.60 0.1553048
367.70 0.1572071
367.80 0.1587801
367.90 0.1601034
368.00 0.1613227
368.10 0.1624709
368.20 0.1634047
368.30 0.1638741
368.40 0.1636849
368.50 0.1628822
368.60 0.1618275
368.70 0.1610487
368.80 0.16092
368.90 0.1614343
369.00 0.1623061
369.10 0.1633075
369.20 0.1644238
369.30 0.1656412
369.40 0.1666766
369.50 0.1670485
369.60 0.1664938
369.70 0.1652924
369.80 0.1641699
369.90 0.1638876
370.00 0.1648476
370.10 0.1669357
370.20 0.1696498
370.30 0.1723694
370.40 0.1745692
370.50 0.1759077
370.60 0.1762656
370.70 0.1758384
370.80 0.1751481
370.90 0.1748087
371.00 0.1751279
371.10 0.1758506
371.20 0.1762563
371.30 0.1755317
371.40 0.1732256
371.50 0.1695509
371.60 0.1653524
371.70 0.1617128
371.80 0.1594595
371.90 0.1588955
372.00 0.1598249
372.10 0.1616093
372.20 0.1631268
372.30 0.1629693
372.40 0.1600943
372.50 0.1546433
372.60 0.1481876
372.70 0.1430264
372.80 0.1410189
372.90 0.1427705
373.00 0.1475863
373.10 0.1539734
373.20 0.1602579
373.30 0.1650367
373.40 0.1674596
373.50 0.1672917
373.60 0.164763
373.70 0.1603472
373.80 0.1546612
373.90 0.1485179
374.00 0.1429337
374.10 0.1389519
374.20 0.1373795
374.30 0.1386443
374.40 0.1428267
374.50 0.1496883
374.60 0.158589
374.70 0.168371
374.80 0.1774339
374.90 0.1841387
375.00 0.1873665
375.10 0.1868762
375.20 0.183266
375.30 0.1776623
375.40 0.1713742
375.50 0.1656187
375.60 0.161232
375.70 0.1584482
375.80 0.1569123
375.90 0.1559833
376.00 0.1551855
376.10 0.1545628
376.20 0.1547551
376.30 0.1567343
376.40 0.161331
376.50 0.1688743
376.60 0.1791821
376.70 0.1916697
376.80 0.2052737
376.90 0.2182387
377.00 0.228264
377.10 0.2332866
377.20 0.2324195
377.30 0.2262932
377.40 0.2165927
377.50 0.2052644
377.60 0.1939613
377.70 0.1838801
377.80 0.1757157
377.90 0.1696231
378.00 0.1653017
378.10 0.1622628
378.20 0.160119
378.30 0.1586589
378.40 0.157735
378.50 0.1572282
378.60 0.1571598
378.70 0.1577547
378.80 0.1593459
378.90 0.1623062
379.00 0.1671547
379.10 0.1746176
379.20 0.1853239
379.30 0.1992467
379.40 0.2153586
379.50 0.231779
379.60 0.246205
379.70 0.2563686
379.80 0.2605494
379.90 0.2581066
380.00 0.2498053
380.10 0.237593
380.20 0.2238609
380.30 0.2106286
380.40 0.1991204
380.50 0.1897918
380.60 0.1825619
380.70 0.1770162
380.80 0.1725578
380.90 0.1686689
381.00 0.1651672
381.10 0.1621993
381.20 0.1599369
381.30 0.158289
381.40 0.1569864
381.50 0.1559587
381.60 0.1555884
381.70 0.156272
381.80 0.1578408
381.90 0.1595846
382.00 0.1608888
382.10 0.1644485
382.20 0.175853
382.30 0.1839096
382.40 0.188864
382.50 0.2078211
382.60 0.2618078
382.70 0.3528817
382.80 0.4473556
382.90 0.5025574
383.00 0.4846497
383.10 0.4268668
383.20 0.4148871
383.30 0.465394
383.40 0.5541455
383.50 0.6303763
383.60 0.6433755
383.70 0.5769549
383.80 0.4641147
383.90 0.358435
384.00 0.2884684
384.10 0.2481144
384.20 0.2250344
384.30 0.2238245
384.40 0.2487608
384.50 0.2682528
384.60 0.2580571
384.70 0.1764487
384.80 0.06688499
384.90 0
385.00 0
385.10 0.01280806
385.20 0.06404104
385.30 0.09830055
385.40 0.1041981
385.50 0.093926
385.60 0.09067247
385.70 0.1063401
385.80 0.1346276
385.90 0.1660684
386.00 0.2000276
386.10 0.2353801
386.20 0.259327
386.30 0.2612888
386.40 0.2503666
386.50 0.2472073
386.60 0.2638644
386.70 0.2968448
386.80 0.3341295
386.90 0.3556863
387.00 0.3396333
387.10 0.2833707
387.20 0.2154273
387.30 0.1744896
387.40 0.1722858
387.50 0.1854359
387.60 0.1861808
387.70 0.1725414
387.80 0.1581035
387.90 0.1460225
388.00 0.130391
388.10 0.1243735
388.20 0.1612257
388.30 0.2476298
388.40 0.3380288
388.50 0.3799715
388.60 0.3821311
388.70 0.4030768
388.80 0.4692755
388.90 0.5339277
389.00 0.5330681
389.10 0.4647811
389.20 0.3869825
389.30 0.3474128
389.40 0.3416749
389.50 0.3290084
389.60 0.2736608
389.70 0.22183
389.80 0.1732967
389.90 0.17437
390.00 0.2276083
390.10 0.2684381
390.20 0.3060489
390.30 0.3356531
390.40 0.3543888
390.50 0.4002705
390.60 0.4421035
390.70 0.4351113
390.80 0.37078
390.90 0.2836826
391.00 0.2207074
391.10 0.2139982
391.20 0.2664529
391.30 0.297698
391.40 0.3205847
391.50 0.3250219
391.60 0.3099884
391.70 0.289286
391.80 0.2763505
391.90 0.2770304
392.00 0.2943473
392.10 0.3166976
392.20 0.3274726
392.30 0.2998691
392.40 0.2653511
392.50 0.2395165
392.60 0.21341
392.70 0.207353
392.80 0.223686
392.90 0.2755726
393.00 0.3659181
393.10 0.5314076
393.20 0.8031389
393.30 1.097201
393.40 1.281414
393.50 1.263464
393.60 1.058245
393.70 0.7742895
393.80 0.5276421
393.90 0.3666533
394.00 0.2705646
394.10 0.2073381
394.20 0.1676527
394.30 0.1345046
394.40 0.1430081
394.50 0.1867793
394.60 0.2480586
394.70 0.301971
394.80 0.3563551
394.90 0.381688
395.00 0.3910246
395.10 0.3887667
395.20 0.3759434
395.30 0.3607725
395.40 0.3619902
395.50 0.3592542
395.60 0.3424686
395.70 0.3412907
395.80 0.3513372
395.90 0.3595476
396.00 0.3402763
396.10 0.2968299
396.20 0.2633159
396.30 0.2532669
396.40 0.2836128
396.50 0.3619512
396.60 0.5173774
396.70 0.7802075
396.80 1.108569
396.90 1.379964
397.00 1.458962
397.10 1.303054
397.20 0.9965687
397.30 0.6844929
397.40 0.4617889
397.50 0.3450147
397.60 0.304882
397.70 0.3032878
397.80 0.311555
397.90 0.3134238
398.00 0.299969
398.10 0.2673237
398.20 0.2234762
398.30 0.1953254
398.40 0.2122005
398.50 0.2759559
398.60 0.3548914
398.70 0.4137924
398.80 0.4186485
398.90 0.4037934
399.00 0.3794953
399.10 0.359232
399.20 0.3558366
399.30 0.3651557
399.40 0.3666314
399.50 0.3499842
399.60 0.3271922
399.70 0.3254307
399.80 0.3538539
399.90 0.3801178
400.00 0.3747524
400.10 0.3417501
400.20 0.3143073
400.30 0.3193169
400.40 0.3503145
400.50 0.3758483
400.60 0.3741377
400.70 0.3692454
400.80 0.3753456
400.90 0.3801321
401.00 0.3833176
401.10 0.3809172
401.20 0.3827088
401.30 0.3762245
401.40 0.3611078
401.50 0.3398535
401.60 0.3109339
401.70 0.2655645
401.80 0.2417429
401.90 0.247716
402.00 0.2689502
402.10 0.2843957
402.20 0.2816895
402.30 0.2653402
402.40 0.2531872
402.50 0.2618284
402.60 0.291061
402.70 0.3248896
402.80 0.3455446
402.90 0.3452792
403.00 0.3264782
403.10 0.2930658
403.20 0.2513684
403.30 0.2152153
403.40 0.2016401
403.50 0.2182592
403.60 0.254628
403.70 0.2869917
403.80 0.3135504
403.90 0.3475986
404.00 0.3898136
404.10 0.4280632
404.20 0.441692
404.30 0.4269915
404.40 0.4008567
404.50 0.3801036
404.60 0.3662072
404.70 0.3541567
404.80 0.3436056
404.90 0.3366991
405.00 0.3330477
405.10 0.33296
405.20 0.3412113
405.30 0.3581875
405.40 0.3708136
405.50 0.362532
405.60 0.3359787
405.70 0.3128552
405.80 0.3060628
405.90 0.3096773
406.00 0.3061128
406.10 0.2874319
406.20 0.2622943
406.30 0.2457743
406.40 0.246028
406.50 0.261631
406.60 0.2782524
406.70 0.2809254
406.80 0.2701447
406.90 0.2615622
407.00 0.2717013
407.10 0.298847
407.20 0.3103492
407.30 0.2977538
407.40 0.274909
407.50 0.2396751
407.60 0.2158977
407.70 0.208925
407.80 0.2156195
407.90 0.2373765
408.00 0.2727041
408.10 0.3089298
408.20 0.3296781
408.30 0.3267168
408.40 0.3064714
408.50 0.2812429
408.60 0.2594505
408.70 0.2438842
408.80 0.2361843
408.90 0.23888
409.00 0.2480455
409.10 0.251176
409.20 0.2399337
409.30 0.2175426
409.40 0.1978299
409.50 0.1909211
409.60 0.1993615
409.70 0.2236789
409.80 0.2689691
409.90 0.3445121
410.00 0.4570035
410.10 0.5926061
410.20 0.7030433
410.30 0.7284209
410.40 0.6505641
410.50 0.5181225
410.60 0.4054275
410.70 0.3247792
410.80 0.2977933
410.90 0.2898264
411.00 0.2833544
411.10 0.2773757
411.20 0.2699255
411.30 0.2575455
411.40 0.2449151
411.50 0.2412677
411.60 0.2157512
411.70 0.1668217
411.80 0.1255751
411.90 0.09907635
412.00 0.09068048
412.10 0.09958493
412.20 0.1228504
412.30 0.1514397
412.40 0.1775979
412.50 0.1976796
412.60 0.2116505
412.70 0.2204028
412.80 0.2237606
412.90 0.22215
413.00 0.2200438
413.10 0.2243507
413.20 0.2384179
413.30 0.2565279
413.40 0.2673036
413.50 0.263539
413.60 0.2489073
413.70 0.2345027
413.80 0.2295501
413.90 0.236713
414.00 0.2536777
414.10 0.2757044
414.20 0.2669551
414.30 0.2467588
414.40 0.2220855
414.50 0.2052593
414.60 0.2089243
414.70 0.2336866
414.80 0.2429289
414.90 0.240207
415.00 0.243713
415.10 0.242444
415.20 0.2324534
415.30 0.2314678
415.40 0.2371253
415.50 0.2508533
415.60 0.2734633
415.70 0.298937
415.80 0.3184681
415.90 0.3268462
416.00 0.3178455
416.10 0.2968857
416.20 0.2682605
416.30 0.237987
416.40 0.2177574
416.50 0.2182982
416.60 0.2189082
416.70 0.2398517
416.80 0.2683174
416.90 0.283697
417.00 0.2690595
417.10 0.225331
417.20 0.1997569
417.30 0.1904733
417.40 0.1858373
417.50 0.1912922
417.60 0.2229293
417.70 0.2781203
417.80 0.3295089
417.90 0.3391018
418.00 0.336718
418.10 0.3344187
418.20 0.3287038
418.30 0.3070315
418.40 0.2660951
418.50 0.2195411
418.60 0.1657678
418.70 0.1412854
418.80 0.1400252
418.90 0.148172
419.00 0.1532779
419.10 0.1480929
419.20 0.132961
419.30 0.1174435
419.40 0.1155668
419.50 0.1358838
419.60 0.1712951
419.70 0.2026504
419.80 0.2180746
419.90 0.2212244
420.00 0.2268218
420.10 0.2433281
420.20 0.2641559
420.30 0.2661345
420.40 0.250575
420.50 0.2409605
420.60 0.246096
420.70 0.2611411
420.80 0.2637061
420.90 0.2646691
421.00 0.2651901
421.10 0.2562401
421.20 0.2260719
421.30 0.1779384
421.40 0.1362453
421.50 0.119598
421.60 0.1284934
421.70 0.1421245
421.80 0.1405651
421.90 0.1250787
422.00 0.1133864
422.10 0.1192606
422.20 0.1382774
422.30 0.1533532
422.40 0.1532426
422.50 0.1414746
422.60 0.1270174
422.70 0.09782397
422.80 0.09074558
422.90 0.09927755
423.00 0.1098732
423.10 0.1127582
423.20 0.1059453
423.30 0.09430206
423.40 0.08683952
423.50 0.07613923
423.60 0.06018834
423.70 0.06304646
423.80 0.08201505
423.90 0.1108453
424.00 0.1418194
424.10 0.1661322
424.20 0.1789402
424.30 0.1837067
424.40 0.1774795
424.50 0.1663469
424.60 0.1561197
424.70 0.147386
424.80 0.1303777
424.90 0.1204719
425.00 0.1230469
425.10 0.1300153
425.20 0.1322891
425.30 0.1276954
425.40 0.1228896
425.50 0.124081
425.60 0.1291795
425.70 0.1311686
425.80 0.1282566
425.90 0.1291812
426.00 0.1445926
426.10 0.172807
426.20 0.1996002
426.30 0.2111051
426.40 0.2035964
426.50 0.1847273
426.60 0.1692862
426.70 0.1739569
426.80 0.2070834
426.90 0.2456402
427.00 0.2569621
427.10 0.260459
427.20 0.2541429
427.30 0.2395129
427.40 0.2185224
427.50 0.1942049
427.60 0.1710029
427.70 0.1535675
427.80 0.1391232
427.90 0.138957
428.00 0.1553593
428.10 0.1829107
428.20 0.2201599
428.30 0.2617286
428.40 0.2948532
428.50 0.3013504
428.60 0.2765695
428.70 0.235031
428.80 0.2023979
428.90 0.1980249
429.00 0.2223556
429.10 0.2461513
429.20 0.2627627
429.30 0.2718826
429.40 0.2734516
429.50 0.270081
429.60 0.2621944
429.70 0.251553
429.80 0.2430883
429.90 0.2366466
430.00 0.2235111
430.10 0.2002872
430.20 0.1806687
430.30 0.182906
430.40 0.2065676
430.50 0.2312998
430.60 0.2400386
430.70 0.236154
430.80 0.2343453
430.90 0.2413121
431.00 0.2524497
431.10 0.2623271
431.20 0.2707081
431.30 0.2787029
431.40 0.2835329
431.50 0.2810312
431.60 0.2667348
431.70 0.2474593
431.80 0.2357471
431.90 0.2340532
432.00 0.2399806
432.10 0.2440826
432.20 0.250232
432.30 0.2492912
432.40 0.2388826
432.50 0.2296168
432.60 0.2352308
432.70 0.2568708
432.80 0.2811466
432.90 0.2976923
433.00 0.313456
433.10 0.3426933
433.20 0.375232
433.30 0.3947591
433.40 0.4043462
433.50 0.407837
433.60 0.4216913
433.70 0.4756549
433.80 0.57803
433.90 0.7556075
434.00 0.9530235
434.10 1.073128
434.20 1.045494
434.30 0.8818525
434.40 0.6641595
434.50 0.480602
434.60 0.3723031
434.70 0.3300535
434.80 0.3243363
434.90 0.3314067
435.00 0.3382958
435.10 0.3374086
435.20 0.3255221
435.30 0.3062062
435.40 0.2878667
435.50 0.2763626
435.60 0.2664797
435.70 0.2540043
435.80 0.2454341
435.90 0.2559208
436.00 0.2895209
436.10 0.3255221
436.20 0.3190421
436.30 0.2891082
436.40 0.2534388
436.50 0.2365297
436.60 0.2571361
436.70 0.2899851
436.80 0.3027827
436.90 0.2850416
437.00 0.2520318
437.10 0.2277236
437.20 0.2275991
437.30 0.2502198
437.40 0.2809908
437.50 0.3069266
437.60 0.3272192
437.70 0.3461951
437.80 0.3573824
437.90 0.348773
438.00 0.3208985
438.10 0.2975358
438.20 0.3016074
438.30 0.3315662
438.40 0.3608112
438.50 0.3744733
438.60 0.3810661
438.70 0.3825927
438.80 0.3684805
438.90 0.3371686
439.00 0.3021204
439.10 0.2892465
439.20 0.3097785
439.30 0.3488497
439.40 0.3825043
439.50 0.3972407
439.60 0.3968868
439.70 0.3927055
439.80 0.3880067
439.90 0.3684366
440.00 0.3445251
440.10 0.3331085
440.20 0.3370314
440.30 0.3434335
440.40 0.3226528
440.50 0.2980819
440.60 0.2831985
440.70 0.2839843
440.80 0.3020489
440.90 0.3099428
441.00 0.3145445
441.10 0.3127923
441.20 0.3057877
441.30 0.3041926
441.40 0.3195471
441.50 0.3544809
441.60 0.4009126
441.70 0.4456788
441.80 0.4774268
441.90 0.4890859
442.00 0.4784146
442.10 0.449743
442.20 0.4139368
442.30 0.3827126
442.40 0.3633749
442.50 0.3564799
442.60 0.357031
442.70 0.3603521
442.80 0.3661064
442.90 0.3777546
443.00 0.3985727
443.10 0.4261152
443.20 0.4520582
443.30 0.4680481
443.40 0.4722259
443.50 0.4680503
443.60 0.46828
443.70 0.4873732
443.80 0.498135
443.90 0.5049298
444.00 0.5065068
444.10 0.5008106
444.20 0.4836465
444.30 0.4585834
444.40 0.4425212
444.50 0.4540324
444.60 0.4912975
444.70 0.5319967
444.80 0.5568789
444.90 0.5620814
445.00 0.5530562
445.10 0.5318502
445.20 0.4969008
445.30 0.4540263
445.40 0.4206989
445.50 0.4151125
445.60 0.4425134
445.70 0.4817847
445.80 0.5114217
445.90 0.5231856
446.00 0.5234949
446.10 0.5203849
446.20 0.512844
446.30 0.4939904
446.40 0.4630697
446.50 0.4324306
446.60 0.4229104
446.70 0.4471347
446.80 0.4952012
446.90 0.5412434
447.00 0.567496
447.10 0.5791405
447.20 0.5916947
447.30 0.6092771
447.40 0.6225884
447.50 0.6247955
447.60 0.6210043
447.70 0.6234276
447.80 0.6402131
447.90 0.6677868
448.00 0.6783076
448.10 0.6867048
448.20 0.6878828
448.30 0.6716539
448.40 0.6628599
448.50 0.6619775
448.60 0.661641
448.70 0.6579668
448.80 0.6539445
448.90 0.6536913
449.00 0.6580627
449.10 0.6650235
449.20 0.670813
449.30 0.6713055
449.40 0.6645899
449.50 0.6529594
449.60 0.6424208
449.70 0.6396409
449.80 0.6472434
449.90 0.6629628
450.00 0.6826297
450.10 0.7017264
450.20 0.7134166
450.30 0.7071665
450.40 0.6772149
450.50 0.6349404
450.60 0.6051751
450.70 0.6041322
450.80 0.6254913
450.90 0.6499747
451.00 0.6646392
451.10 0.6694971
451.20 0.6682661
451.30 0.6629754
451.40 0.6577705
451.50 0.6607477
451.60 0.6779712
451.70 0.7069351
451.80 0.7392879
451.90 0.7687287
452.00 0.7928067
452.10 0.8079795
452.20 0.8090886
452.30 0.7949413
452.40 0.7716169
452.50 0.7477449
452.60 0.728321
452.70 0.716193
452.80 0.7168705
452.90 0.7349145
453.00 0.7640779
453.10 0.7848594
453.20 0.7757363
453.30 0.7310417
453.40 0.6699262
453.50 0.6282186
453.60 0.6379145
453.70 0.7072997
453.80 0.8145683
453.90 0.9216239
454.00 0.9957204
454.10 1.023615
454.20 1.012433
454.30 0.9781614
454.40 0.9335593
454.50 0.8867304
454.60 0.8461362
454.70 0.8203803
454.80 0.811553
454.90 0.8117395
455.00 0.8106296
455.10 0.802358
455.20 0.7831558
455.30 0.7530178
455.40 0.7235958
455.50 0.7161571
455.60 0.7446571
455.70 0.8011332
455.80 0.8618932
455.90 0.9076943
456.00 0.9351597
456.10 0.9537337
456.20 0.9756366
456.30 1.006723
456.40 1.044412
456.50 1.081361
456.60 1.11098
456.70 1.130415
456.80 1.140807
456.90 1.145878
457.00 1.149488
457.10 1.153948
457.20 1.159664
457.30 1.16328
457.40 1.157382
457.50 1.137948
457.60 1.112631
457.70 1.096961
457.80 1.098122
457.90 1.107687
458.00 1.113552
458.10 1.110691
458.20 1.096168
458.30 1.061297
458.40 0.9970204
458.50 0.9093335
458.60 0.8226974
458.70 0.7624162
458.80 0.7346611
458.90 0.7251284
459.00 0.7186953
459.10 0.7170737
459.20 0.7307295
459.30 0.75783
459.40 0.7820761
459.50 0.7925199
459.60 0.7982837
459.70 0.817569
459.80 0.8549142
459.90 0.8950772
460.00 0.9180376
460.10 0.917605
460.20 0.9057078
460.30 0.8987323
460.40 0.8996214
460.50 0.8946858
460.60 0.8722916
460.70 0.8447553
460.80 0.8438176
460.90 0.8885942
461.00 0.9626321
461.10 1.029012
461.20 1.067607
461.30 1.091112
461.40 1.124796
461.50 1.17806
461.60 1.236986
461.70 1.279948
461.80 1.296059
461.90 1.291042
462.00 1.278923
462.10 1.268513
462.20 1.255221
462.30 1.224353
462.40 1.164368
462.50 1.078195
462.60 0.9827508
462.70 0.897365
462.80 0.8351335
462.90 0.8022199
463.00 0.7972663
463.10 0.8107536
463.20 0.8292942
463.30 0.842936
463.40 0.8479155
463.50 0.8437543
463.60 0.8319572
463.70 0.8188206
463.80 0.8133017
463.90 0.8207249
464.00 0.8420467
464.10 0.8760201
464.20 0.9182024
464.30 0.9593498
464.40 0.9874964
464.50 0.9945888
464.60 0.9818421
464.70 0.9580886
464.80 0.9342282
464.90 0.9181492
465.00 0.9131813
465.10 0.9204355
465.20 0.9402142
465.30 0.9693326
465.40 0.9985377
465.50 1.017558
465.60 1.024662
465.70 1.030056
465.80 1.047863
465.90 1.082291
466.00 1.124002
466.10 1.160593
466.20 1.187281
466.30 1.205961
466.40 1.216411
466.50 1.210081
466.60 1.173911
466.70 1.100819
466.80 0.9985032
466.90 0.8900445
467.00 0.8007339
467.10 0.7410691
467.20 0.7049847
467.30 0.684469
467.40 0.679433
467.50 0.6922764
467.60 0.7194083
467.70 0.7533303
467.80 0.7879453
467.90 0.8168917
468.00 0.8319991
468.10 0.8312465
468.20 0.8251067
468.30 0.8273815
468.40 0.8413015
468.50 0.8578755
468.60 0.8680821
468.70 0.8728531
468.80 0.8794948
468.90 0.8924717
469.00 0.9109994
469.10 0.932897
469.20 0.9559824
469.30 0.9747012
469.40 0.9827593
469.50 0.9833136
469.60 0.9913761
469.70 1.02046
469.80 1.067707
469.90 1.117518
470.00 1.158551
470.10 1.190726
470.20 1.215729
470.30 1.229105
470.40 1.224686
470.50 1.205007
470.60 1.182223
470.70 1.166899
470.80 1.160789
470.90 1.159159
471.00 1.155689
471.10 1.144045
471.20 1.118856
471.30 1.078748
471.40 1.027799
471.50 0.9732901
471.60 0.9235959
471.70 0.8900854
471.80 0.8845672
471.90 0.909693
472.00 0.9527426
472.10 0.9929566
472.20 1.016595
472.30 1.024717
472.40 1.028238
472.50 1.035125
472.60 1.04299
472.70 1.043251
472.80 1.032262
472.90 1.019162
473.00 1.02053
473.10 1.045426
473.20 1.08772
473.30 1.133389
473.40 1.171505
473.50 1.195959
473.60 1.200391
473.70 1.179736
473.80 1.14016
473.90 1.100905
474.00 1.081838
474.10 1.090522
474.20 1.121513
474.30 1.16382
474.40 1.205633
474.50 1.236249
474.60 1.250168
474.70 1.250743
474.80 1.248244
474.90 1.252418
475.00 1.265826
475.10 1.282727
475.20 1.293544
475.30 1.29335
475.40 1.285895
475.50 1.278032
475.60 1.270961
475.70 1.257018
475.80 1.222657
475.90 1.155364
476.00 1.053257
476.10 0.9325008
476.20 0.8225803
476.30 0.7469476
476.40 0.6982278
476.50 0.6712351
476.60 0.6530909
476.70 0.623643
476.80 0.5926976
476.90 0.5754598
477.00 0.574272
477.10 0.5814084
477.20 0.5898272
477.30 0.6026752
477.40 0.6293072
477.50 0.6724914
477.60 0.7225204
477.70 0.7650624
477.80 0.7926798
477.90 0.8050279
478.00 0.8016021
478.10 0.7815831
478.20 0.7521118
478.30 0.7314077
478.40 0.7363671
478.50 0.7658877
478.60 0.8018773
478.70 0.828704
478.80 0.8474424
478.90 0.8710994
479.00 0.9079065
479.10 0.9514821
479.20 0.987377
479.30 1.005509
479.40 1.005986
479.50 0.9972936
479.60 0.9901563
479.70 0.990766
479.80 0.9985826
479.90 1.010214
480.00 1.024831
480.10 1.043285
480.20 1.05888
480.30 1.053375
480.40 1.009039
480.50 0.9247497
480.60 0.8193198
480.70 0.7182132
480.80 0.638324
480.90 0.5852317
481.00 0.5593454
481.10 0.5592261
481.20 0.5796127
481.30 0.6117572
481.40 0.6494176
481.50 0.6923437
481.60 0.7394196
481.70 0.7821118
481.80 0.810317
481.90 0.8241307
482.00 0.8355376
482.10 0.8560663
482.20 0.8858802
482.30 0.9161034
482.40 0.9371509
482.50 0.9435557
482.60 0.9353989
482.70 0.9198868
482.80 0.9095716
482.90 0.9123002
483.00 0.9221063
483.10 0.9273566
483.20 0.9300838
483.30 0.9476207
483.40 0.9896387
483.50 1.039782
483.60 1.070607
483.70 1.074171
483.80 1.066079
483.90 1.05929
484.00 1.045077
484.10 1.004591
484.20 0.9337776
484.30 0.8540482
484.40 0.7991834
484.50 0.7906634
484.60 0.8201351
484.70 0.853178
484.80 0.8556904
484.90 0.820683
485.00 0.7706587
485.10 0.7362996
485.20 0.7350632
485.30 0.7659244
485.40 0.8162949
485.50 0.8710939
485.60 0.9202087
485.70 0.9703935
485.80 1.059617
485.90 1.247529
486.00 1.559185
486.10 1.920431
486.20 2.169522
486.30 2.170547
486.40 1.927385
486.50 1.574538
486.60 1.259669
486.70 1.048875
486.80 0.9327396
486.90 0.8844975
487.00 0.8903307
487.10 0.9384845
487.20 1.00609
487.30 1.064483
487.40 1.092768
487.50 1.085867
487.60 1.052971
487.70 1.011645
487.80 0.9804761
487.90 0.9714344
488.00 0.983566
488.10 1.003564
488.20 1.017205
488.30 1.022393
488.40 1.029726
488.50 1.049266
488.60 1.079436
488.70 1.109849
488.80 1.13366
488.90 1.154325
489.00 1.178153
489.10 1.201814
489.20 1.212151
489.30 1.201323
489.40 1.179409
489.50 1.167077
489.60 1.174892
489.70 1.194299
489.80 1.209733
489.90 1.213266
490.00 1.206732
490.10 1.197258
490.20 1.194924
490.30 1.209432
490.40 1.241863
490.50 1.280649
490.60 1.311582
490.70 1.33205
490.80 1.35129
490.90 1.377902
491.00 1.411192
491.10 1.445202
491.20 1.475953
491.30 1.50066
491.40 1.51425
491.50 1.512368
491.60 1.497684
491.70 1.480912
491.80 1.475079
491.90 1.489295
492.00 1.525555
492.10 1.577493
492.20 1.631201
492.30 1.671898
492.40 1.695481
492.50 1.7143
492.60 1.746793
492.70 1.795849
492.80 1.840658
492.90 1.855727
493.00 1.835988
493.10 1.798818
493.20 1.764394
493.30 1.742291
493.40 1.73496
493.50 1.742381
493.60 1.758657
493.70 1.771784
493.80 1.774211
493.90 1.771339
494.00 1.776101
494.10 1.796985
494.20 1.833649
494.30 1.881107
494.40 1.933527
494.50 1.985582
494.60 2.034423
494.70 2.081074
494.80 2.128029
494.90 2.17416
495.00 2.211265
495.10 2.220286
495.20 2.168076
495.30 2.017683
495.40 1.756501
495.50 1.420013
495.60 1.082174
495.70 0.8146465
495.80 0.6510773
495.90 0.5835735
496.00 0.5815385
496.10 0.6101945
496.20 0.6419258
496.30 0.6628932
496.40 0.6747681
496.50 0.6898875
496.60 0.7220405
496.70 0.7779876
496.80 0.8510435
496.90 0.9214183
497.00 0.9693848
497.10 0.9930627
497.20 1.010302
497.30 1.039854
497.40 1.083206
497.50 1.125448
497.60 1.149344
497.70 1.146297
497.80 1.118258
497.90 1.076023
498.00 1.035107
498.10 1.008
498.20 0.9997969
498.30 1.011308
498.40 1.041478
498.50 1.083783
498.60 1.125165
498.70 1.154747
498.80 1.174438
498.90 1.196096
499.00 1.227991
499.10 1.267473
499.20 1.306105
499.30 1.338382
499.40 1.36358
499.50 1.381149
499.60 1.374905
499.70 1.303629
499.80 1.123702
499.90 0.8358386
500.00 1
500.10 0.8009134
500.20 0.8641674
500.30 0.9651604
500.40 0.8768474
500.50 0.8048777
500.60 0.8253588
500.70 0.7702038
500.80 0.8271955
500.90 0.9407301
501.00 1.063244
501.10 0.9816137
501.20 0.9513842
501.30 0.9612927
501.40 0.9620222
501.50 0.908275
501.60 0.9295626
501.70 0.9782818
501.80 0.9863236
501.90 1.015275
502.00 1.03849
502.10 1.158323
502.20 1.151603
502.30 1.089649
502.40 1.132572
502.50 1.142815
502.60 1.083258
502.70 1.088209
502.80 1.110128
502.90 1.081642
503.00 1.063918
503.10 1.037617
503.20 1.177936
503.30 1.158171
503.40 1.110243
503.50 1.265367
503.60 1.351005
503.70 1.227678
503.80 1.212253
503.90 1.299603
504.00 1.2874
504.10 1.352985
504.20 1.452272
504.30 1.402998
504.40 1.453172
504.50 1.512061
504.60 1.537518
504.70 1.639009
504.80 1.695387
504.90 1.444628
505.00 1.270709
505.10 1.263597
505.20 1.327322
505.30 1.333003
505.40 1.391048
505.50 1.431624
505.60 1.310222
505.70 1.273712
505.80 1.35754
505.90 1.365166
506.00 1.345359
506.10 1.385254
506.20 1.539601
506.30 1.491866
506.40 1.409432
506.50 1.424715
506.60 1.45718
506.70 1.465937
506.80 1.429179
506.90 1.506788
507.00 1.443134
507.10 1.332512
507.20 1.46795
507.30 1.437
507.40 1.387286
507.50 1.560842
507.60 1.596694
507.70 1.450653
507.80 1.471701
507.90 1.560528
508.00 1.595142
508.10 1.471306
508.20 1.379951
508.30 1.400766
508.40 1.482777
508.50 1.594346
508.60 1.592036
508.70 1.525665
508.80 1.4899
508.90 1.499867
509.00 1.440319
509.10 1.436963
509.20 1.562858
509.30 1.618819
509.40 1.611646
509.50 1.541813
509.60 1.398283
509.70 1.305682
509.80 1.515067
509.90 1.619401
510.00 1.637593
510.10 1.558803
510.20 1.479923
510.30 1.507882
510.40 1.533682
510.50 1.458314
510.60 1.409881
510.70 1.470508
510.80 1.424247
510.90 1.445562
511.00 1.500368
511.10 1.471399
511.20 1.450447
511.30 1.48034
511.40 1.550882
511.50 1.593948
511.60 1.672735
511.70 1.732224
511.80 1.769251
511.90 1.681701
512.00 1.614811
512.10 1.56732
512.20 1.592851
512.30 1.639628
512.40 1.611015
512.50 1.488849
512.60 1.495643
512.70 1.48236
512.80 1.424374
512.90 1.47114
513.00 1.448594
513.10 1.369382
513.20 1.557658
513.30 1.797298
513.40 1.750646
513.50 1.654441
513.60 1.658464
513.70 1.785333
513.80 1.952453
513.90 1.890411
514.00 1.728004
514.10 1.759783
514.20 1.732361
514.30 1.678246
514.40 1.676867
514.50 1.596443
514.60 1.549222
514.70 1.526165
514.80 1.647436
514.90 1.733643
515.00 1.715296
515.10 1.647088
515.20 1.646163
515.30 1.542836
515.40 1.386371
515.50 1.419489
515.60 1.51982
515.70 1.547347
515.80 1.771879
515.90 1.96288
516.00 1.986592
516.10 2.068393
516.20 2.207491
516.30 2.162684
516.40 2.117191
516.50 2.198732
516.60 2.078716
516.70 1.585662
516.80 1.099285
516.90 0.7720267
517.00 0.6821916
517.10 0.6728085
517.20 0.6373913
517.30 0.6082917
517.40 0.5493538
517.50 0.5752425
517.60 0.5748817
517.70 0.5759595
517.80 0.5813173
517.90 0.602695
518.00 0.6048719
518.10 0.671478
518.20 0.7083839
518.30 0.77792
518.40 0.7738987
518.50 0.8441931
518.60 0.9433339
518.70 1.011208
518.80 0.9875659
518.90 1.092368
519.00 1.159858
519.10 1.196817
519.20 1.216851
519.30 1.1727
519.40 1.081028
519.50 1.154442
519.60 1.193687
519.70 1.342055
519.80 1.506347
519.90 1.513812
520.00 1.378907
520.10 1.333547
520.20 1.338949
520.30 1.19067
520.40 1.074625
520.50 1.090215
520.60 1.049416
520.70 0.8379592
520.80 0.7857313
520.90 0.8083653
521.00 0.8660575
521.10 0.9082996
521.20 1.123632
521.30 1.408353
521.40 1.620805
521.50 1.760161
521.60 1.794049
521.70 1.75159
521.80 1.759953
521.90 1.825092
522.00 1.828496
522.10 1.884623
522.20 2.014462
522.30 2.06231
522.40 2.047808
522.50 1.855243
522.60 1.755627
522.70 1.702608
522.80 1.798968
522.90 1.928415
523.00 2.047707
523.10 2.225479
523.20 2.159352
523.30 1.974932
523.40 1.940775
523.50 2.014012
523.60 2.053504
523.70 2.089681
523.80 2.03847
523.90 2.031062
524.00 2.048814
524.10 1.941721
524.20 1.604311
524.30 1.462015
524.40 1.543042
524.50 1.715722
524.60 1.778825
524.70 1.6733
524.80 1.612538
524.90 1.598881
525.00 1.664375
525.10 1.719278
525.20 1.767647
525.30 1.794479
525.40 1.78754
525.50 1.938962
525.60 2.12467
525.70 2.176708
525.80 2.017209
525.90 1.972172
526.00 1.957233
526.10 1.878741
526.20 1.716162
526.30 1.703391
526.40 1.761831
526.50 1.620441
526.60 1.501652
526.70 1.546104
526.80 1.636256
526.90 1.680242
527.00 1.44461
527.10 1.337971
527.20 1.523518
527.30 1.834694
527.40 2.025668
527.50 2.10783
527.60 2.020384
527.70 2.000721
527.80 1.938071
527.90 1.968068
528.00 1.984731
528.10 1.974978
528.20 1.979328
528.30 1.896204
528.40 1.907282
528.50 2.0406
528.60 2.22053
528.70 2.257111
528.80 2.254362
528.90 2.259224
529.00 2.249948
529.10 2.256653
529.20 2.297943
529.30 2.281747
529.40 2.218183
529.50 2.27037
529.60 2.321835
529.70 2.229897
529.80 1.965067
529.90 1.933807
530.00 2.082802
530.10 2.107406
530.20 2.054572
530.30 2.206108
530.40 2.415107
530.50 2.426926
530.60 2.361126
530.70 2.271941
530.80 2.204861
530.90 2.136601
531.00 2.098875
531.10 2.109609
531.20 2.113936
531.30 2.055926
531.40 2.166116
531.50 2.175693
531.60 2.146821
531.70 2.19607
531.80 2.195012
531.90 2.20753
532.00 2.203391
532.10 2.125336
532.20 2.125984
532.30 2.144742
532.40 2.212557
532.50 2.217638
532.60 2.185134
532.70 2.131317
532.80 2.045906
532.90 1.879986
533.00 1.892729
533.10 2.142612
533.20 2.249237
533.30 2.101157
533.40 2.080164
533.50 2.121875
533.60 2.181956
533.70 2.235567
533.80 2.205762
533.90 2.201964
534.00 2.16537
534.10 2.169456
534.20 2.181427
534.30 2.268345
534.40 2.372598
534.50 2.404788
534.60 2.298303
534.70 2.217286
534.80 2.173025
534.90 2.274369
535.00 2.470197
535.10 2.458377
535.20 2.535822
535.30 2.645015
535.40 2.739102
535.50 2.788929
535.60 2.74305
535.70 2.649919
535.80 2.599493
535.90 2.471177
536.00 2.311087
536.10 2.165323
536.20 2.17565
536.30 2.345001
536.40 2.37019
536.50 2.264165
536.60 2.302066
536.70 2.41277
536.80 2.435773
536.90 2.381494
537.00 2.355503
537.10 2.367544
537.20 2.160134
537.30 2.054782
537.40 2.257995
537.50 2.596266
537.60 2.735453
537.70 2.577195
537.80 2.48138
537.90 2.535904
538.00 2.680415
538.10 2.867192
538.20 2.895715
538.30 2.792602
538.40 2.72136
538.50 2.722192
538.60 2.720549
538.70 2.805177
538.80 2.75411
538.90 2.789777
539.00 2.833444
539.10 2.765537
539.20 2.749598
539.30 2.76345
539.40 2.670329
539.50 2.696648
539.60 2.642341
539.70 2.458465
539.80 2.309464
539.90 2.523635
540.00 2.824088
540.10 2.982711
540.20 2.997271
540.30 3.009405
540.40 3.009608
540.50 2.968689
540.60 2.818324
540.70 2.55545
540.80 2.589008
540.90 2.827861
541.00 2.742163
541.10 2.564519
541.20 2.526087
541.30 2.565842
541.40 2.639328
541.50 2.737205
541.60 2.905742
541.70 3.041967
541.80 2.965602
541.90 2.869368
542.00 2.944797
542.10 3.071198
542.20 3.080453
542.30 3.023696
542.40 2.941745
542.50 2.92241
542.60 2.874863
542.70 2.9373
542.80 3.123182
542.90 3.138095
543.00 2.881258
543.10 2.677034
543.20 2.621721
543.30 2.761587
543.40 2.859811
543.50 2.803905
543.60 2.833265
543.70 3.082887
543.80 3.219129
543.90 3.084187
544.00 3.109515
544.10 3.309067
544.20 3.388689
544.30 3.528176
544.40 3.565635
544.50 3.490531
544.60 3.303636
544.70 2.92608
544.80 2.396427
544.90 1.902478
545.00 1.569581
545.10 1.429476
545.20 1.316436
545.30 1.257357
545.40 1.278368
545.50 1.323363
545.60 1.378897
545.70 1.449905
545.80 1.449681
545.90 1.414232
546.00 1.40705
546.10 1.41873
546.20 1.463812
546.30 1.458217
546.40 1.550484
546.50 1.737869
546.60 1.817464
546.70 1.873259
546.80 1.97202
546.90 1.966746
547.00 1.84587
547.10 1.763545
547.20 1.685392
547.30 1.793322
547.40 1.931336
547.50 1.892231
547.60 1.735709
547.70 1.731215
547.80 1.745139
547.90 1.739115
548.00 1.693027
548.10 1.776569
548.20 1.931635
548.30 2.048719
548.40 1.968155
548.50 1.998552
548.60 2.103125
548.70 2.093708
548.80 1.953291
548.90 1.880363
549.00 1.898944
549.10 2.007221
549.20 2.07488
549.30 2.064878
549.40 2.008035
549.50 1.962064
549.60 1.827514
549.70 1.736151
549.80 1.656049
549.90 1.515269
550.00 1.398068
550.10 1.278519
550.20 1.183873
550.30 1.121345
550.40 1.154871
550.50 1.286556
550.60 1.280078
550.70 1.229911
550.80 1.21773
550.90 1.209417
551.00 1.189478
551.10 1.178792
551.20 1.184788
551.30 1.114369
551.40 1.073986
551.50 1.019634
551.60 0.9705744
551.70 0.9433593
551.80 1.003331
551.90 1.081113
552.00 1.03305
552.10 1.000468
552.20 1.007172
552.30 0.9815424
552.40 0.9898328
552.50 0.9534939
552.60 0.8924185
552.70 0.9395038
552.80 1.052434
552.90 1.01404
553.00 0.984378
553.10 0.9816921
553.20 1.042766
553.30 1.041642
553.40 0.8872764
553.50 0.7831765
553.60 0.8328932
553.70 0.8512536
553.80 0.8700967
553.90 0.8955671
554.00 0.7991898
554.10 0.7622632
554.20 0.8235961
554.30 0.7960833
554.40 0.7694281
554.50 0.7875146
554.60 0.9102973
554.70 0.8885644
554.80 0.9122025
554.90 0.911173
555.00 0.8574177
555.10 0.8771338
555.20 1.029216
555.30 0.9936546
555.40 0.8940862
555.50 0.9143826
555.60 0.9970478
555.70 1.111131
555.80 1.104897
555.90 1.194257
556.00 1.236866
556.10 1.264166
556.20 1.337607
556.30 1.391317
556.40 1.366852
556.50 1.393256
556.60 1.45172
556.70 1.57438
556.80 1.609945
556.90 1.592098
557.00 1.639587
557.10 1.744322
557.20 1.768809
557.30 1.764418
557.40 1.764006
557.50 1.764006
557.60 1.764006
557.70 1.764006
557.80 1.764006
557.90 1.764006
558.00 1.764006
558.10 1.764003
558.20 1.763758
558.30 1.762778
558.40 1.757811
558.50 1.852813
558.60 1.999886
558.70 2.077997
558.80 2.152083
558.90 2.112083
559.00 2.099518
559.10 2.136503
559.20 2.097244
559.30 2.074018
559.40 2.135553
559.50 2.104925
559.60 1.974438
559.70 1.982964
559.80 1.904667
559.90 1.59996
560.00 1.405672
560.10 1.503825
560.20 1.601324
560.30 1.621551
560.40 1.659728
560.50 1.693542
560.60 1.632166
560.70 1.751264
560.80 1.829086
560.90 1.830227
561.00 1.717834
561.10 1.724087
561.20 1.794411
561.30 1.840455
561.40 1.879711
561.50 1.860119
561.60 1.845262
561.70 1.665191
561.80 1.537921
561.90 1.606519
562.00 1.677216
562.10 1.586566
562.20 1.559878
562.30 1.642329
562.40 1.644005
562.50 1.634482
562.60 1.716178
562.70 1.835055
562.80 1.883727
562.90 1.733179
563.00 1.496998
563.10 1.472623
563.20 1.474405
563.30 1.549689
563.40 1.671651
563.50 1.779941
563.60 1.742283
563.70 1.679741
563.80 1.646625
563.90 1.589501
564.00 1.57965
564.10 1.665474
564.20 1.697991
564.30 1.658376
564.40 1.606242
564.50 1.727981
564.60 1.843174
564.70 1.854899
564.80 1.787413
564.90 1.827433
565.00 1.902514
565.10 1.940129
565.20 1.916577
565.30 1.900071
565.40 1.975196
565.50 2.025357
565.60 2.096329
565.70 2.107391
565.80 2.065016
565.90 2.100061
566.00 2.165062
566.10 2.192077
566.20 2.136807
566.30 2.048403
566.40 1.844637
566.50 1.751276
566.60 1.774525
566.70 1.841622
566.80 1.80326
566.90 1.674018
567.00 1.654301
567.10 1.670755
567.20 1.644788
567.30 1.646091
567.40 1.790825
567.50 1.846896
567.60 1.842424
567.70 1.797169
567.80 1.91324
567.90 1.998118
568.00 1.92976
568.10 1.886155
568.20 1.908428
568.30 1.954601
568.40 1.950282
568.50 2.053614
568.60 2.257748
568.70 2.239056
568.80 2.097826
568.90 1.889619
569.00 1.835326
569.10 1.934002
569.20 1.963424
569.30 1.981457
569.40 2.028166
569.50 2.107765
569.60 2.168543
569.70 2.214196
569.80 2.285303
569.90 2.293818
570.00 2.217104
570.10 2.272975
570.20 2.403603
570.30 2.477232
570.40 2.392463
570.50 2.360738
570.60 2.374142
570.70 2.464232
570.80 2.467928
570.90 2.523992
571.00 2.596602
571.10 2.604114
571.20 2.588482
571.30 2.494079
571.40 2.463103
571.50 2.403685
571.60 2.391702
571.70 2.364769
571.80 2.191075
571.90 2.080565
572.00 2.102786
572.10 2.161894
572.20 2.244027
572.30 2.337041
572.40 2.270156
572.50 2.173279
572.60 2.198465
572.70 2.23842
572.80 2.258841
572.90 2.308267
573.00 2.354782
573.10 2.399921
573.20 2.455139
573.30 2.538644
573.40 2.511932
573.50 2.495359
573.60 2.475467
573.70 2.382582
573.80 2.309707
573.90 2.233096
574.00 2.377035
574.10 2.441611
574.20 2.337005
574.30 2.251339
574.40 2.271347
574.50 2.285001
574.60 2.450872
574.70 2.648554
574.80 2.607435
574.90 2.667398
575.00 2.827665
575.10 2.827354
575.20 2.670192
575.30 2.680399
575.40 2.839366
575.50 2.910568
575.60 2.88234
575.70 2.889771
575.80 2.856115
575.90 2.745661
576.00 2.533351
576.10 2.412161
576.20 2.314727
576.30 2.197759
576.40 1.966249
576.50 1.84239
576.60 1.87279
576.70 1.802173
576.80 1.819191
576.90 2.03019
577.00 2.228157
577.10 2.16041
577.20 2.12836
577.30 2.266573
577.40 2.348418
577.50 2.277262
577.60 2.163236
577.70 2.167469
577.80 2.217163
577.90 2.278062
578.00 2.202148
578.10 2.211579
578.20 2.346172
578.30 2.496216
578.40 2.61875
578.50 2.686945
578.60 2.624501
578.70 2.470366
578.80 2.444851
578.90 2.502207
579.00 2.477698
579.10 2.473938
579.20 2.495397
579.30 2.55097
579.40 2.645153
579.50 2.750732
579.60 2.741055
579.70 2.705893
579.80 2.73841
579.90 2.89532
580.00 2.906832
580.10 2.851861
580.20 2.900957
580.30 2.952616
580.40 2.962808
580.50 2.934264
580.60 3.008389
580.70 3.090723
580.80 3.046858
580.90 2.951097
581.00 2.909797
581.10 2.622766
581.20 2.309305
581.30 2.239098
581.40 2.20737
581.50 2.129527
581.60 2.02336
581.70 1.969016
581.80 1.930226
581.90 1.931773
582.00 2.056578
582.10 2.019314
582.20 1.920058
582.30 1.923689
582.40 1.920225
582.50 2.051986
582.60 2.155046
582.70 2.154415
582.80 2.097359
582.90 2.206008
583.00 2.211173
583.10 2.181006
583.20 2.209002
583.30 2.253745
583.40 2.176182
583.50 2.232847
583.60 2.477661
583.70 2.504745
583.80 2.42258
583.90 2.359931
584.00 2.179022
584.10 2.041289
584.20 2.011653
584.30 2.109958
584.40 2.143429
584.50 2.136472
584.60 2.237285
584.70 2.297968
584.80 2.082292
584.90 1.694509
585.00 1.503351
585.10 1.384502
585.20 1.384676
585.30 1.432622
585.40 1.465586
585.50 1.473343
585.60 1.487139
585.70 1.479838
585.80 1.502105
585.90 1.558454
586.00 1.553745
586.10 1.628335
586.20 1.648513
586.30 1.545062
586.40 1.371327
586.50 1.30953
586.60 1.385511
586.70 1.514485
586.80 1.447611
586.90 1.354664
587.00 1.438563
587.10 1.524362
587.20 1.432902
587.30 1.363618
587.40 1.296958
587.50 1.206303
587.60 1.265968
587.70 1.376512
587.80 1.335581
587.90 1.214209
588.00 1.11415
588.10 1.103837
588.20 1.070125
588.30 1.016034
588.40 1.030043
588.50 1.002683
588.60 0.9664661
588.70 0.932031
588.80 0.8070844
588.90 0.5856672
589.00 0.4318885
589.10 0.6582932
589.20 0.8365796
589.30 0.6468904
589.40 0.5303642
589.50 0.5144693
589.60 0.6251056
589.70 0.7190088
589.80 0.7355019
589.90 0.647653
590.00 0.6997707
590.10 0.8276785
590.20 0.8166684
590.30 0.8907666
590.40 0.997783
590.50 1.010576
590.60 0.9404429
590.70 0.8221349
590.80 0.8625631
590.90 0.909708
591.00 0.9571064
591.10 0.9692826
591.20 1.028584
591.30 1.09814
591.40 1.042228
591.50 1.048866
591.60 1.060928
591.70 1.168776
591.80 1.238224
591.90 1.147165
592.00 1.098266
592.10 1.204813
592.20 1.273997
592.30 1.12468
592.40 1.060455
592.50 1.170828
592.60 1.171101
592.70 1.131179
592.80 1.158321
592.90 1.223365
593.00 1.215937
593.10 1.149277
593.20 1.161037
593.30 1.221963
593.40 1.318713
593.50 1.419472
593.60 1.411097
593.70 1.262178
593.80 1.203394
593.90 1.364087
594.00 1.478733
594.10 1.474771
594.20 1.499541
594.30 1.452885
594.40 1.484591
594.50 1.596026
594.60 1.619563
594.70 1.522242
594.80 1.443641
594.90 1.478839
595.00 1.374214
595.10 1.307994
595.20 1.336695
595.30 1.448896
595.40 1.469917
595.50 1.409618
595.60 1.34699
595.70 1.183576
595.80 1.128465
595.90 1.165731
596.00 1.23636
596.10 1.274743
596.20 1.34578
596.30 1.383726
596.40 1.368679
596.50 1.303021
596.60 1.333112
596.70 1.386569
596.80 1.417787
596.90 1.440638
597.00 1.420481
597.10 1.462731
597.20 1.524507
597.30 1.517671
597.40 1.437123
597.50 1.37798
597.60 1.418295
597.70 1.448356
597.80 1.488808
597.90 1.427261
598.00 1.390191
598.10 1.355237
598.20 1.475834
598.30 1.549393
598.40 1.53579
598.50 1.524366
598.60 1.573511
598.70 1.633579
598.80 1.568392
598.90 1.533769
599.00 1.551327
599.10 1.564527
599.20 1.555502
599.30 1.625269
599.40 1.729802
599.50 1.838581
599.60 1.915657
599.70 1.918269
599.80 1.874618
599.90 1.738306
600.00 1.652948
600.10 1.620651
600.20 1.60226
600.30 1.631876
600.40 1.655098
600.50 1.6846
600.60 1.654225
600.70 1.623369
600.80 1.535764
600.90 1.486514
601.00 1.571144
601.10 1.697195
601.20 1.741635
601.30 1.741658
601.40 1.705612
601.50 1.679372
601.60 1.702764
601.70 1.768397
601.80 1.766177
601.90 1.777498
602.00 1.849673
602.10 1.945173
602.20 1.933327
602.30 1.919184
602.40 1.846153
602.50 1.819815
602.60 1.84998
602.70 1.919244
602.80 1.984636
602.90 1.965799
603.00 1.892402
603.10 1.923175
603.20 1.973904
603.30 1.998998
603.40 1.975594
603.50 1.95508
603.60 1.960322
603.70 1.845315
603.80 1.785612
603.90 1.858717
604.00 1.918877
604.10 1.979541
604.20 2.028922
604.30 2.096667
604.40 2.037123
604.50 2.010749
604.60 2.104193
604.70 2.108911
604.80 2.080439
604.90 2.147563
605.00 2.282294
605.10 2.316359
605.20 2.247845
605.30 2.257253
605.40 2.244135
605.50 2.209557
605.60 2.247734
605.70 2.248105
605.80 2.238807
605.90 2.294215
606.00 2.416356
606.10 2.399861
606.20 2.341343
606.30 2.316553
606.40 2.264952
606.50 2.184027
606.60 2.124913
606.70 2.078667
606.80 2.09097
606.90 2.233859
607.00 2.374904
607.10 2.411651
607.20 2.382076
607.30 2.400067
607.40 2.347539
607.50 2.310188
607.60 2.334821
607.70 2.427653
607.80 2.481045
607.90 2.439818
608.00 2.336923
608.10 2.158241
608.20 2.066696
608.30 2.041299
608.40 2.043574
608.50 2.140824
608.60 2.256192
608.70 2.283561
608.80 2.250336
608.90 2.295616
609.00 2.386576
609.10 2.340589
609.20 2.288031
609.30 2.31807
609.40 2.445953
609.50 2.446302
609.60 2.43461
609.70 2.461143
609.80 2.442705
609.90 2.44475
610.00 2.518413
610.10 2.49663
610.20 2.356047
610.30 2.217689
610.40 2.245828
610.50 2.250669
610.60 2.268465
610.70 2.346665
610.80 2.466239
610.90 2.462754
611.00 2.361616
611.10 2.29332
611.20 2.260752
611.30 2.273331
611.40 2.347256
611.50 2.348466
611.60 2.32886
611.70 2.225923
611.80 2.112758
611.90 2.062435
612.00 2.089253
612.10 2.148805
612.20 2.139433
612.30 2.09595
612.40 2.094209
612.50 2.103892
612.60 2.180532
612.70 2.269216
612.80 2.304219
612.90 2.300928
613.00 2.274205
613.10 2.268708
613.20 2.315991
613.30 2.238538
613.40 2.096392
613.50 2.0741
613.60 2.160206
613.70 2.243325
613.80 2.274458
613.90 2.275301
614.00 2.274576
614.10 2.235583
614.20 2.158138
614.30 2.11422
614.40 2.142898
614.50 2.208469
614.60 2.257098
614.70 2.194605
614.80 1.974025
614.90 1.854393
615.00 1.774293
615.10 1.73114
615.20 1.713764
615.30 1.739789
615.40 1.777637
615.50 1.777706
615.60 1.814193
615.70 1.682307
615.80 1.540032
615.90 1.516374
616.00 1.422537
616.10 1.22697
616.20 1.100485
616.30 1.074431
616.40 1.08611
616.50 1.116009
616.60 1.162226
616.70 1.185642
616.80 1.157492
616.90 1.191249
617.00 1.193874
617.10 1.223011
617.20 1.162267
617.30 1.106981
617.40 1.13221
617.50 1.062507
617.60 1.019334
617.70 1.093314
617.80 1.148532
617.90 1.125653
618.00 1.193852
618.10 1.24451
618.20 1.29615
618.30 1.27461
618.40 1.149509
618.50 1.084922
618.60 1.069443
618.70 1.040653
618.80 0.965299
618.90 0.9400134
619.00 0.9569253
619.10 0.9452449
619.20 0.976891
619.30 0.9625374
619.40 0.9621294
619.50 0.9746309
619.60 1.003463
619.70 1.007049
619.80 0.9936827
619.90 1.012613
620.00 1.020567
620.10 1.023396
620.20 1.040768
620.30 1.097052
620.40 1.06439
620.50 1.078877
620.60 1.148707
620.70 1.171926
620.80 1.123329
620.90 1.085328
621.00 1.101481
621.10 1.066477
621.20 1.043241
621.30 1.063993
621.40 1.015324
621.50 0.9702939
621.60 0.963354
621.70 0.9715401
621.80 1.005288
621.90 1.01276
622.00 0.9861437
622.10 1.034374
622.20 1.041043
622.30 1.001334
622.40 0.9268039
622.50 0.9262251
622.60 0.9395418
622.70 0.9353266
622.80 0.8858918
622.90 0.855293
623.00 0.9159462
623.10 0.9459083
623.20 0.9663174
623.30 1.003908
623.40 0.9548869
623.50 0.8869895
623.60 0.9677766
623.70 1.038604
623.80 1.065435
623.90 1.100186
624.00 1.040837
624.10 0.9452316
624.20 0.9686998
624.30 1.076878
624.40 1.057271
624.50 0.9642694
624.60 0.9486534
624.70 1.009105
624.80 1.062877
624.90 1.111102
625.00 1.113195
625.10 1.124908
625.20 1.101833
625.30 1.109568
625.40 1.132061
625.50 1.080662
625.60 1.094059
625.70 1.129115
625.80 1.163119
625.90 1.132193
626.00 1.13063
626.10 1.119968
626.20 1.118983
626.30 1.225127
626.40 1.329234
626.50 1.334347
626.60 1.320904
626.70 1.349926
626.80 1.406316
626.90 1.381348
627.00 1.344423
627.10 1.334062
627.20 1.306078
627.30 1.285957
627.40 1.332232
627.50 1.441329
627.60 1.425679
627.70 1.34832
627.80 1.271477
627.90 1.259208
628.00 1.281623
628.10 1.384596
628.20 1.47978
628.30 1.458631
628.40 1.455688
628.50 1.563345
628.60 1.62511
628.70 1.613612
628.80 1.593613
628.90 1.721799
629.00 1.790832
629.10 1.696186
629.20 1.582398
629.30 1.596769
629.40 1.695955
629.50 1.751216
629.60 1.746743
629.70 1.715944
629.80 1.778817
629.90 1.732846
630.00 1.636196
630.10 1.748565
630.20 2.087185
630.30 2.3508
630.40 2.109751
630.50 1.968816
630.60 2.005072
630.70 2.09677
630.80 2.246209
630.90 2.290945
631.00 2.30097
631.10 2.263896
631.20 2.288759
631.30 2.376127
631.40 2.47203
631.50 2.554245
631.60 2.566003
631.70 2.588425
631.80 2.680521
631.90 2.716711
632.00 2.671518
632.10 2.632634
632.20 2.594963
632.30 2.540596
632.40 2.493124
632.50 2.497634
632.60 2.564596
632.70 2.639075
632.80 2.687476
632.90 2.716089
633.00 2.725174
633.10 2.787301
633.20 2.859908
633.30 2.900151
633.40 2.902246
633.50 2.930103
633.60 2.965637
633.70 2.994352
633.80 3.051851
633.90 3.103737
634.00 3.119808
634.10 3.15898
634.20 3.221778
634.30 3.298819
634.40 3.376684
634.50 3.399722
634.60 3.412163
634.70 3.412597
634.80 3.40742
634.90 3.509599
635.00 3.557838
635.10 3.4972
635.20 3.407138
635.30 3.316298
635.40 3.180512
635.50 3.042483
635.60 2.995041
635.70 2.945028
635.80 2.909624
635.90 2.919111
636.00 2.933385
636.10 2.851706
636.20 2.728985
636.30 2.695451
636.40 2.849874
636.50 3.078812
636.60 3.178548
636.70 3.052607
636.80 2.839869
636.90 2.831696
637.00 2.980021
637.10 3.061573
637.20 3.034671
637.30 3.054796
637.40 3.143742
637.50 3.148346
637.60 3.079037
637.70 3.052204
637.80 3.048669
637.90 3.052321
638.00 2.971063
638.10 2.81186
638.20 2.721895
638.30 2.674863
638.40 2.63967
638.50 2.663674
638.60 2.705486
638.70 2.711337
638.80 2.677498
638.90 2.641451
639.00 2.654498
639.10 2.715752
639.20 2.813992
639.30 2.917528
639.40 2.96185
639.50 3.07065
639.60 3.246308
639.70 3.405017
639.80 3.480552
639.90 3.441622
640.00 3.411176
640.10 3.399248
640.20 3.436158
640.30 3.544689
640.40 3.596195
640.50 3.636603
640.60 3.696109
640.70 3.752682
640.80 3.79258
640.90 3.793983
641.00 3.787429
641.10 3.779721
641.20 3.795988
641.30 3.781032
641.40 3.770522
641.50 3.742975
641.60 3.686631
641.70 3.611977
641.80 3.562623
641.90 3.497524
642.00 3.419988
642.10 3.384894
642.20 3.358959
642.30 3.287444
642.40 3.220914
642.50 3.282696
642.60 3.390273
642.70 3.432924
642.80 3.425739
642.90 3.420476
643.00 3.492818
643.10 3.598555
643.20 3.646101
643.30 3.645207
643.40 3.634617
643.50 3.66257
643.60 3.731724
643.70 3.741964
643.80 3.706174
643.90 3.648509
644.00 3.636681
644.10 3.709821
644.20 3.828238
644.30 3.94191
644.40 4.073456
644.50 4.175092
644.60 4.176669
644.70 4.094463
644.80 3.951431
644.90 3.831726
645.00 3.759464
645.10 3.751174
645.20 3.805114
645.30 3.870787
645.40 3.968011
645.50 4.014009
645.60 4.079344
645.70 4.101406
645.80 4.093479
645.90 4.115618
646.00 4.116533
646.10 4.087769
646.20 4.066844
646.30 4.060864
646.40 4.062946
646.50 4.114727
646.60 4.253257
646.70 4.435335
646.80 4.519017
646.90 4.522931
647.00 4.56056
647.10 4.647304
647.20 4.682458
647.30 4.653192
647.40 4.642262
647.50 4.699277
647.60 4.822756
647.70 4.874557
647.80 4.84653
647.90 4.719579
648.00 4.52757
648.10 4.305949
648.20 4.205681
648.30 4.194294
648.40 4.185811
648.50 4.14857
648.60 4.04315
648.70 3.968776
648.80 4.020524
648.90 4.172162
649.00 4.333508
649.10 4.455755
649.20 4.460119
649.30 4.377036
649.40 4.32018
649.50 4.334634
649.60 4.369252
649.70 4.442115
649.80 4.570477
649.90 4.696037
650.00 4.705587
650.10 4.834252
650.20 4.949947
650.30 5.005382
650.40 5.062888
650.50 5.125972
650.60 5.234772
650.70 5.319709
650.80 5.363693
650.90 5.394122
651.00 5.458015
651.10 5.574697
651.20 5.622074
651.30 5.497072
651.40 5.348259
651.50 5.245091
651.60 5.233472
651.70 5.293415
651.80 5.468032
651.90 5.623866
652.00 5.722872
652.10 5.833884
652.20 5.928174
652.30 6.002375
652.40 6.076345
652.50 6.128592
652.60 6.119752
652.70 6.132886
652.80 6.268216
652.90 6.419363
653.00 6.466574
653.10 6.423607
653.20 6.437448
653.30 6.535716
653.40 6.63792
653.50 6.787122
653.60 6.854887
653.70 6.884705
653.80 7.01867
653.90 7.155016
654.00 7.258091
654.10 7.361885
654.20 7.383191
654.30 7.234112
654.40 6.988483
654.50 6.719073
654.60 6.487196
654.70 6.336238
654.80 6.227537
654.90 6.128608
655.00 6.031913
655.10 5.839022
655.20 5.599931
655.30 5.482322
655.40 5.498268
655.50 5.573939
655.60 5.577237
655.70 5.655004
655.80 5.786371
655.90 5.863823
656.00 6.009328
656.10 6.534182
656.20 7.748601
656.30 9.41354
656.40 10.67671
656.50 10.47561
656.60 8.83425
656.70 6.717477
656.80 5.35357
656.90 4.916464
657.00 4.876148
657.10 4.870291
657.20 4.728645
657.30 4.560859
657.40 4.465855
657.50 4.51932
657.60 4.685089
657.70 4.836476
657.80 4.865512
657.90 4.716285
658.00 4.510002
658.10 4.370681
658.20 4.327704
658.30 4.36343
658.40 4.531425
658.50 4.727036
658.60 4.899666
658.70 5.043064
658.80 5.166986
658.90 5.297695
659.00 5.323422
659.10 5.271753
659.20 5.228153
659.30 5.089881
659.40 4.87054
659.50 4.644729
659.60 4.505612
659.70 4.47992
659.80 4.495507
659.90 4.556301
660.00 4.591618
660.10 4.572847
660.20 4.533429
660.30 4.560769
660.40 4.633616
660.50 4.66949
660.60 4.658256
660.70 4.612119
660.80 4.558401
660.90 4.578728
661.00 4.59471
661.10 4.630423
661.20 4.7023
661.30 4.805224
661.40 4.884223
661.50 4.863047
661.60 4.86725
661.70 4.789351
661.80 4.64829
661.90 4.500364
662.00 4.348618
662.10 4.270676
662.20 4.240756
662.30 4.201023
662.40 4.131848
662.50 4.059384
662.60 3.951159
662.70 3.776105
662.80 3.583774
662.90 3.577569
663.00 3.765508
663.10 3.983565
663.20 4.168002
663.30 4.271169
663.40 4.246931
663.50 4.096252
663.60 3.872473
663.70 3.650401
663.80 3.442032
663.90 3.356781
664.00 3.432426
664.10 3.536708
664.20 3.664978
664.30 3.772155
664.40 3.879248
664.50 3.937964
664.60 3.96341
664.70 3.979961
664.80 3.940508
664.90 3.81442
665.00 3.597655
665.10 3.327363
665.20 3.054283
665.30 2.848771
665.40 2.762838
665.50 2.760724
665.60 2.830292
665.70 2.906616
665.80 2.954827
665.90 2.975269
666.00 2.949602
666.10 2.999485
666.20 3.063748
666.30 3.121881
666.40 3.196208
666.50 3.25286
666.60 3.335815
666.70 3.447701
666.80 3.566465
666.90 3.587671
667.00 3.564505
667.10 3.579266
667.20 3.607193
667.30 3.652312
667.40 3.624981
667.50 3.58229
667.60 3.556796
667.70 3.573303
667.80 3.60747
667.90 3.565157
668.00 3.438375
668.10 3.206401
668.20 2.884786
668.30 2.610552
668.40 2.51466
668.50 2.562064
668.60 2.632612
668.70 2.6961
668.80 2.768404
668.90 2.839539
669.00 2.867319
669.10 2.884216
669.20 2.865593
669.30 2.812745
669.40 2.823307
669.50 2.855378
669.60 2.860352
669.70 2.917408
669.80 3.01328
669.90 3.061949
670.00 3.045218
670.10 3.034222
670.20 3.044463
670.30 3.084466
670.40 3.177509
670.50 3.251995
670.60 3.282816
670.70 3.306843
670.80 3.363097
670.90 3.45728
671.00 3.462593
671.10 3.397867
671.20 3.328648
671.30 3.272221
671.40 3.208976
671.50 3.079182
671.60 2.870573
671.70 2.665903
671.80 2.496191
671.90 2.349995
672.00 2.268417
672.10 2.256841
672.20 2.313596
672.30 2.395767
672.40 2.461096
672.50 2.480983
672.60 2.536492
672.70 2.612232
672.80 2.611623
672.90 2.620685
673.00 2.689597
673.10 2.752085
673.20 2.739029
673.30 2.682505
673.40 2.65827
673.50 2.699243
673.60 2.7357
673.70 2.809415
673.80 2.891587
673.90 2.936466
674.00 2.975798
674.10 3.001549
674.20 3.034513
674.30 3.098341
674.40 3.179259
674.50 3.191268
674.60 3.151168
674.70 3.069969
674.80 2.905124
674.90 2.718895
675.00 2.580174
675.10 2.510629
675.20 2.552185
675.30 2.635375
675.40 2.696514
675.50 2.72028
675.60 2.772748
675.70 2.825864
675.80 2.865864
675.90 2.89745
676.00 2.890306
676.10 2.868432
676.20 2.865902
676.30 2.941512
676.40 3.07235
676.50 3.131694
676.60 3.195448
676.70 3.292104
676.80 3.323978
676.90 3.336429
677.00 3.357771
677.10 3.368196
677.20 3.366581
677.30 3.379684
677.40 3.391827
677.50 3.426089
677.60 3.539875
677.70 3.612254
677.80 3.629934
677.90 3.60706
678.00 3.563399
678.10 3.466677
678.20 3.271813
678.30 3.083644
678.40 2.875489
678.50 2.694677
678.60 2.610635
678.70 2.5994
678.80 2.624816
678.90 2.639813
679.00 2.701096
679.10 2.772846
679.20 2.802511
679.30 2.835785
679.40 2.854917
679.50 2.888689
679.60 2.953854
679.70 3.013814
679.80 3.037794
679.90 3.028852
680.00 3.061039
680.10 3.113845
680.20 3.187218
680.30 3.268217
680.40 3.304196
680.50 3.267997
680.60 3.183846
680.70 3.101503
680.80 3.10927
680.90 3.241847
681.00 3.315611
681.10 3.334168
681.20 3.384643
681.30 3.432246
681.40 3.46461
681.50 3.43129
681.60 3.333807
681.70 3.205099
681.80 3.149046
681.90 3.149356
682.00 3.169968
682.10 3.236144
682.20 3.271843
682.30 3.24406
682.40 3.206474
682.50 3.214661
682.60 3.275859
682.70 3.317313
682.80 3.312673
682.90 3.375642
683.00 3.576311
683.10 3.681628
683.20 3.59533
683.30 3.464308
683.40 3.418108
683.50 3.512468
683.60 3.55924
683.70 3.51974
683.80 3.43614
683.90 3.359822
684.00 3.408891
684.10 3.517254
684.20 3.555898
684.30 3.554824
684.40 3.608971
684.50 3.689967
684.60 3.704107
684.70 3.634581
684.80 3.558047
684.90 3.557275
685.00 3.556748
685.10 3.476372
685.20 3.313644
685.30 3.182377
685.40 3.154686
685.50 3.173472
685.60 3.220613
685.70 3.244744
685.80 3.26206
685.90 3.314765
686.00 3.314513
686.10 3.264861
686.20 3.21912
686.30 3.200813
686.40 3.248351
686.50 3.329849
686.60 3.430958
686.70 3.537111
686.80 3.546143
686.90 3.369713
687.00 3.251784
687.10 3.332018
687.20 3.454436
687.30 3.521025
687.40 3.572489
687.50 3.682328
687.60 3.779679
687.70 3.831422
687.80 3.881616
687.90 3.914178
688.00 3.951603
688.10 3.915018
688.20 3.85052
688.30 3.832898
688.40 3.803107
688.50 3.740373
688.60 3.603212
688.70 3.486156
688.80 3.550922
688.90 3.751377
689.00 3.913498
689.10 3.956204
689.20 3.832907
689.30 3.711472
689.40 3.767741
689.50 3.91904
689.60 4.056359
689.70 4.093114
689.80 4.040639
689.90 4.002179
690.00 3.968099
690.10 3.858551
690.20 3.697657
690.30 3.581643
690.40 3.635062
690.50 3.823508
690.60 4.027344
690.70 4.211635
690.80 4.340872
690.90 4.473456
691.00 4.566808
691.10 4.559478
691.20 4.523274
691.30 4.502272
691.40 4.583088
691.50 4.667011
691.60 4.672514
691.70 4.57436
691.80 4.358189
691.90 4.07826
692.00 3.818285
692.10 3.758061
692.20 3.922998
692.30 4.187287
692.40 4.451553
692.50 4.721612
692.60 4.931821
692.70 4.953193
692.80 4.87255
692.90 4.794858
693.00 4.824549
693.10 4.94718
693.20 5.107535
693.30 5.265922
693.40 5.351006
693.50 5.353205
693.60 5.30829
693.70 5.294675
693.80 5.336256
693.90 5.38234
694.00 5.42621
694.10 5.469777
694.20 5.582914
694.30 5.804174
694.40 6.024206
694.50 6.191637
694.60 6.331118
694.70 6.443471
694.80 6.559621
694.90 6.705257
695.00 6.785864
695.10 6.762483
695.20 6.573772
695.30 6.340277
695.40 6.132652
695.50 5.985469
695.60 5.970872
695.70 5.98754
695.80 6.043852
695.90 6.075869
696.00 6.094998
696.10 6.095006
696.20 6.099115
696.30 6.171318
696.40 6.272839
696.50 6.399304
696.60 6.525817
696.70 6.620338
696.80 6.671295
696.90 6.681003
697.00 6.648113
697.10 6.557623
697.20 6.467985
697.30 6.39009
697.40 6.389625
697.50 6.514573
697.60 6.724687
697.70 6.925658
697.80 7.046511
697.90 7.131962
698.00 7.183584
698.10 7.178136
698.20 7.136825
698.30 7.149199
698.40 7.261151
698.50 7.396633
698.60 7.43957
698.70 7.382886
698.80 7.342109
698.90 7.301306
699.00 7.267756
699.10 7.16538
699.20 7.018871
699.30 6.977389
699.40 6.984802
699.50 6.999469
699.60 7.087407
699.70 7.198734
699.80 7.270261
699.90 7.295129
700.00 7.263427
700.10 7.268817
700.20 7.353287
700.30 7.463196
700.40 7.535869
700.50 7.486766
700.60 7.348336
700.70 7.330514
700.80 7.489761
700.90 7.722615
701.00 7.857116
701.10 7.843677
701.20 7.834715
701.30 7.972504
701.40 8.249721
701.50 8.440626
701.60 8.42806
701.70 8.310294
701.80 8.242672
701.90 8.281737
702.00 8.406458
702.10 8.600789
702.20 8.792664
702.30 8.784906
702.40 8.490523
702.50 8.111347
702.60 7.914711
702.70 8.047419
702.80 8.419739
702.90 8.953096
703.00 9.513753
703.10 9.786888
703.20 9.729416
703.30 9.590235
703.40 9.563745
703.50 9.781435
703.60 10.20232
703.70 10.58926
703.80 10.74895
703.90 10.69373
704.00 10.59684
704.10 10.68548
704.20 10.96239
704.30 11.23845
704.40 11.40037
704.50 11.45818
704.60 11.48141
704.70 11.5339
704.80 11.59901
704.90 11.63217
705.00 11.60445
705.10 11.53442
705.20 11.46766
705.30 11.23129
705.40 10.37194
705.50 8.745904
705.60 6.788
705.70 5.266112
705.80 4.609382
705.90 4.587576
706.00 4.642989
706.10 4.500116
706.20 4.265765
706.30 4.15015
706.40 4.264964
706.50 4.481007
706.60 4.667288
706.70 4.804718
706.80 4.883992
706.90 5.000757
707.00 5.165255
707.10 5.304322
707.20 5.432444
707.30 5.548759
707.40 5.673106
707.50 5.745051
707.60 5.710909
707.70 5.67926
707.80 5.728786
707.90 5.827094
708.00 5.929376
708.10 6.036163
708.20 6.10584
708.30 6.144031
708.40 6.210695
708.50 6.301998
708.60 6.313326
708.70 6.056351
708.80 5.401983
708.90 4.479512
709.00 3.634359
709.10 3.177245
709.20 3.151134
709.30 3.302714
709.40 3.417606
709.50 3.3907
709.60 3.309932
709.70 3.305654
709.80 3.387392
709.90 3.513312
710.00 3.60664
710.10 3.675621
710.20 3.718558
710.30 3.72426
710.40 3.709083
710.50 3.713321
710.60 3.798688
710.70 3.973548
710.80 4.225372
710.90 4.498086
711.00 4.704508
711.10 4.857166
711.20 4.986803
711.30 5.073534
711.40 5.080129
711.50 4.988314
711.60 4.900846
711.70 4.872314
711.80 4.918744
711.90 5.064687
712.00 5.271158
712.10 5.487057
712.20 5.655979
712.30 5.706531
712.40 5.603225
712.50 5.254625
712.60 4.51851
712.70 3.582746
712.80 2.83252
712.90 2.482952
713.00 2.527438
713.10 2.697783
713.20 2.745128
713.30 2.66071
713.40 2.583504
713.50 2.583504
713.60 2.660019
713.70 2.784715
713.80 2.900789
713.90 2.911218
714.00 2.878624
714.10 2.90734
714.20 3.005592
714.30 3.165136
714.40 3.305686
714.50 3.351941
714.60 3.327044
714.70 3.3168
714.80 3.34597
714.90 3.42937
715.00 3.513997
715.10 3.540238
715.20 3.561827
715.30 3.61969
715.40 3.712889
715.50 3.867206
715.60 4.04164
715.70 4.130952
715.80 4.088264
715.90 3.933757
716.00 3.720111
716.10 3.529622
716.20 3.475082
716.30 3.548482
716.40 3.64363
716.50 3.662443
716.60 3.626043
716.70 3.645297
716.80 3.701433
716.90 3.746668
717.00 3.812333
717.10 3.893824
717.20 4.047738
717.30 4.205076
717.40 4.273277
717.50 4.278203
717.60 4.233606
717.70 4.209764
717.80 4.219427
717.90 4.266776
718.00 4.34782
718.10 4.448624
718.20 4.559842
718.30 4.637037
718.40 4.737832
718.50 4.869314
718.60 5.009875
718.70 5.133989
718.80 5.203303
718.90 5.251471
719.00 5.294067
719.10 5.298741
719.20 5.273763
719.30 5.271456
719.40 5.317191
719.50 5.366045
719.60 5.302494
719.70 5.088344
719.80 4.746978
719.90 4.406835
720.00 4.277753
720.10 4.308826
720.20 4.347309
720.30 4.358741
720.40 4.318598
720.50 4.302891
720.60 4.352804
720.70 4.351857
720.80 4.395809
720.90 4.532325
721.00 4.653126
721.10 4.715737
721.20 4.74449
721.30 4.821322
721.40 4.93588
721.50 5.005966
721.60 5.034556
721.70 5.112169
721.80 5.243002
721.90 5.342389
722.00 5.389396
722.10 5.406973
722.20 5.451328
722.30 5.536436
722.40 5.654281
722.50 5.831623
722.60 5.971571
722.70 6.074873
722.80 6.196336
722.90 6.248784
723.00 6.196242
723.10 6.042918
723.20 5.821787
723.30 5.696107
723.40 5.776427
723.50 6.022919
723.60 6.292501
723.70 6.461206
723.80 6.543481
723.90 6.609643
724.00 6.624103
724.10 6.601034
724.20 6.616438
724.30 6.634728
724.40 6.743453
724.50 6.93735
724.60 7.125054
724.70 7.193164
724.80 7.199635
724.90 7.403996
725.00 7.655161
725.10 7.792467
725.20 7.769755
725.30 7.665488
725.40 7.648493
725.50 7.76139
725.60 7.947176
725.70 8.10405
725.80 8.146789
725.90 8.109319
726.00 8.078778
726.10 8.127058
726.20 8.272442
726.30 8.49252
726.40 8.73776
726.50 8.85572
726.60 8.859339
726.70 8.873457
726.80 8.932734
726.90 9.013614
727.00 8.966841
727.10 8.667236
727.20 8.234066
727.30 7.985852
727.40 8.130648
727.50 8.52464
727.60 8.842077
727.70 8.979316
727.80 8.932173
727.90 8.770104
728.00 8.575929
728.10 8.493826
728.20 8.647991
728.30 8.886096
728.40 9.078228
728.50 9.206253
728.60 9.31311
728.70 9.497738
728.80 9.643646
728.90 9.687254
729.00 9.797517
729.10 9.919562
729.20 9.979151
729.30 9.992779
729.40 10.00069
729.50 10.07623
729.60 10.2278
729.70 10.41565
729.80 10.55966
729.90 10.63458
730.00 10.60324
730.10 10.53569
730.20 10.68787
730.30 10.99008
730.40 11.16382
730.50 11.18592
730.60 11.21364
730.70 11.29668
730.80 11.39306
730.90 11.51248
731.00 11.63048
731.10 11.68365
731.20 11.66434
731.30 11.71046
731.40 11.91434
731.50 12.15616
731.60 12.29322
731.70 12.33492
731.80 12.41378
731.90 12.51349
732.00 12.47797
732.10 12.42757
732.20 12.52903
732.30 12.71321
732.40 12.81892
732.50 12.73678
732.60 12.53085
732.70 12.30965
732.80 12.15411
732.90 12.30272
733.00 12.75494
733.10 13.1702
733.20 13.30733
733.30 13.20919
733.40 13.18782
733.50 13.36235
733.60 13.59647
733.70 13.81303
733.80 13.99893
733.90 14.19171
734.00 14.40695
734.10 14.46428
734.20 14.40181
734.30 14.35416
734.40 14.02216
734.50 13.42941
734.60 13.0985
734.70 13.19753
734.80 13.48904
734.90 13.76539
735.00 13.98836
735.10 14.1703
735.20 14.27831
735.30 14.30422
735.40 14.30367
735.50 14.23854
735.60 14.04897
735.70 13.83403
735.80 13.72683
735.90 13.89462
736.00 14.2504
736.10 14.52663
736.20 14.63566
736.30 14.59405
736.40 14.60483
736.50 14.76852
736.60 14.96531
736.70 15.14954
736.80 15.26141
736.90 15.31072
737.00 15.4548
737.10 15.63304
737.20 15.67193
737.30 15.55414
737.40 15.36261
737.50 15.23211
737.60 15.21122
737.70 15.21107
737.80 15.28762
737.90 15.46788
738.00 15.66982
738.10 15.82286
738.20 15.83992
738.30 15.73647
738.40 15.65589
738.50 15.71242
738.60 15.88139
738.70 16.03111
738.80 16.11722
738.90 16.21682
739.00 16.3588
739.10 16.46027
739.20 16.4011
739.30 16.14756
739.40 15.82473
739.50 15.59735
739.60 15.55632
739.70 15.67459
739.80 15.85021
739.90 16.01851
740.00 16.10812
740.10 16.14202
740.20 16.23811
740.30 16.36573
740.40 16.43745
740.50 16.32832
740.60 15.98612
740.70 15.60911
740.80 15.46182
740.90 15.63525
741.00 15.97102
741.10 16.30458
741.20 16.50863
741.30 16.56119
741.40 16.58086
741.50 16.63242
741.60 16.65787
741.70 16.53478
741.80 16.24365
741.90 15.89535
742.00 15.72486
742.10 15.78839
742.20 15.95922
742.30 16.17469
742.40 16.34123
742.50 16.43732
742.60 16.53894
742.70 16.62797
742.80 16.70883
742.90 16.81482
743.00 16.86662
743.10 16.89098
743.20 16.94172
743.30 16.91864
743.40 16.77476
743.50 16.55201
743.60 16.25714
743.70 16.09437
743.80 16.24714
743.90 16.6119
744.00 16.9973
744.10 17.15354
744.20 17.01782
744.30 16.69615
744.40 16.42545
744.50 16.34356
744.60 16.35974
744.70 16.36573
744.80 16.32471
744.90 16.25822
745.00 16.21323
745.10 16.30489
745.20 16.50034
745.30 16.67014
745.40 16.75907
745.50 16.68677
745.60 16.52758
745.70 16.45665
745.80 16.50926
745.90 16.61024
746.00 16.6776
746.10 16.70177
746.20 16.72504
746.30 16.75386
746.40 16.80518
746.50 16.88296
746.60 16.95619
746.70 16.98908
746.80 16.95384
746.90 16.96173
747.00 17.16571
747.10 17.50608
747.20 17.73621
747.30 17.57342
747.40 17.11278
747.50 16.75966
747.60 16.66647
747.70 16.8983
747.80 17.26427
747.90 17.40488
748.00 17.34148
748.10 17.22152
748.20 17.10011
748.30 17.18416
748.40 17.47386
748.50 17.64927
748.60 17.66211
748.70 17.51912
748.80 17.27981
748.90 17.16515
749.00 17.246
749.10 17.42219
749.20 17.54748
749.30 17.52545
749.40 17.33354
749.50 17.06513
749.60 16.91289
749.70 16.98595
749.80 17.2775
749.90 17.71869
750.00 18.15139
750.10 18.41079
750.20 18.47461
750.30 18.42135
750.40 18.37151
750.50 18.36598
750.60 18.28049
750.70 18.00898
750.80 17.74194
750.90 17.8145
751.00 18.26309
751.10 18.75613
751.20 18.92748
751.30 18.71814
751.40 18.39168
751.50 18.29258
751.60 18.47914
751.70 18.75139
751.80 18.86545
751.90 18.73159
752.00 18.46722
752.10 18.22316
752.20 18.24265
752.30 18.50382
752.40 18.7462
752.50 18.83729
752.60 18.57794
752.70 18.02017
752.80 17.56407
752.90 17.42145
753.00 17.66139
753.10 18.17146
753.20 18.6802
753.30 19.05243
753.40 19.1243
753.50 18.86527
753.60 18.6003
753.70 18.61648
753.80 18.94152
753.90 19.40282
754.00 19.79751
754.10 20.04647
754.20 20.11309
754.30 20.02164
754.40 19.95997
754.50 19.99842
754.60 20.0649
754.70 20.0686
754.80 19.90215
754.90 19.71687
755.00 19.72606
755.10 19.90044
755.20 20.05695
755.30 20.06056
755.40 19.94615
755.50 19.82317
755.60 19.76961
755.70 19.81883
755.80 19.9447
755.90 20.09189
756.00 20.23142
756.10 20.33527
756.20 20.32802
756.30 20.17199
756.40 19.96216
756.50 19.77607
756.60 19.53354
756.70 19.21806
756.80 18.91124
756.90 18.70834
757.00 18.7876
757.10 19.19393
757.20 19.75622
757.30 20.31134
757.40 20.70206
757.50 20.82534
757.60 20.6653
757.70 20.35712
757.80 20.08151
757.90 19.92753
758.00 19.96204
758.10 20.2622
758.20 20.74304
758.30 21.21055
758.40 21.49304
758.50 21.50736
758.60 21.34845
758.70 20.96836
758.80 20.09094
758.90 18.57002
759.00 16.45424
759.10 14.30095
759.20 12.86047
759.30 12.42644
759.40 12.83403
759.50 13.50325
759.60 13.95405
759.70 14.06464
759.80 14.06574
759.90 14.23494
760.00 14.54629
760.10 14.7783
760.20 14.64375
760.30 14.24261
760.40 14.08682
760.50 14.23749
760.60 14.46628
760.70 14.65275
760.80 14.6722
760.90 14.55902
761.00 14.44331
761.10 14.5161
761.20 14.92866
761.30 15.68494
761.40 16.39236
761.50 16.63655
761.60 16.53551
761.70 16.40967
761.80 16.60232
761.90 17.10716
762.00 17.52199
762.10 17.57097
762.20 17.34593
762.30 17.04522
762.40 16.82137
762.50 16.79231
762.60 16.61498
762.70 15.91832
762.80 14.69822
762.90 13.18011
763.00 11.91235
763.10 11.15596
763.20 10.86557
763.30 11.0337
763.40 11.50283
763.50 11.90031
763.60 11.95419
763.70 11.81814
763.80 11.75386
763.90 11.90178
764.00 11.98565
764.10 11.77583
764.20 11.67253
764.30 11.90469
764.40 12.11635
764.50 12.07206
764.60 11.86123
764.70 11.75591
764.80 11.97494
764.90 12.13685
765.00 11.93079
765.10 11.61122
765.20 11.38336
765.30 11.35374
765.40 11.35975
765.50 11.07377
765.60 10.68445
765.70 10.45943
765.80 10.39428
765.90 10.29895
766.00 9.787179
766.10 8.84054
766.20 7.723484
766.30 6.621799
766.40 5.582781
766.50 4.543718
766.60 3.691748
766.70 3.359066
766.80 3.641386
766.90 4.426362
767.00 5.321265
767.10 5.936205
767.20 6.253144
767.30 6.380316
767.40 6.490506
767.50 6.726196
767.60 7.067041
767.70 7.436009
767.80 7.743376
767.90 7.946034
768.00 8.110794
768.10 8.329719
768.20 8.578727
768.30 8.752786
768.40 8.843474
768.50 8.868337
768.60 8.864016
768.70 8.915573
768.80 9.026383
768.90 9.133936
769.00 9.153611
769.10 9.091498
769.20 9.039418
769.30 8.943198
769.40 8.729751
769.50 8.383964
769.60 7.868928
769.70 7.121182
769.80 6.113959
769.90 5.017166
770.00 4.181665
770.10 3.933551
770.20 4.371577
770.30 5.278674
770.40 6.250152
770.50 7.018622
770.60 7.488318
770.70 7.709605
770.80 7.864462
770.90 8.072608
771.00 8.39587
771.10 8.79846
771.20 9.186854
771.30 9.504471
771.40 9.685656
771.50 9.739801
771.60 9.726959
771.70 9.650975
771.80 9.648948
771.90 9.833647
772.00 9.985487
772.10 10.09181
772.20 10.28907
772.30 10.50436
772.40 10.65334
772.50 10.7545
772.60 10.91095
772.70 11.14867
772.80 11.43359
772.90 11.68577
773.00 11.86415
773.10 11.95451
773.20 11.96458
773.30 11.97655
773.40 12.05102
773.50 12.20038
773.60 12.35079
773.70 12.43906
773.80 12.49698
773.90 12.62237
774.00 12.84862
774.10 13.00331
774.20 12.90989
774.30 12.55336
774.40 12.04246
774.50 11.53283
774.60 11.10205
774.70 10.81773
774.80 10.66391
774.90 10.47258
775.00 10.19479
775.10 9.846737
775.20 9.460636
775.30 9.282844
775.40 9.411202
775.50 9.62255
775.60 9.816919
775.70 9.99156
775.80 10.00816
775.90 9.921832
776.00 9.95438
776.10 10.10259
776.20 10.24034
776.30 10.25
776.40 10.14597
776.50 10.05472
776.60 10.07953
776.70 10.29712
776.80 10.65111
776.90 10.96754
777.00 11.14367
777.10 11.20933
777.20 11.2514
777.30 11.33755
777.40 11.45836
777.50 11.56136
777.60 11.63654
777.70 11.67672
777.80 11.71516
777.90 11.76148
778.00 11.75306
778.10 11.66257
778.20 11.46475
778.30 11.13703
778.40 10.76413
778.50 10.40582
778.60 10.15762
778.70 10.14546
778.80 10.30502
778.90 10.50714
779.00 10.68928
779.10 10.85365
779.20 11.05845
779.30 11.30942
779.40 11.46995
779.50 11.53959
779.60 11.63347
779.70 11.68648
779.80 11.60487
779.90 11.37765
780.00 11.09718
780.10 10.82268
780.20 10.705
780.30 10.96195
780.40 11.56991
780.50 12.30666
780.60 12.93291
780.70 13.28927
780.80 13.43456
780.90 13.53303
781.00 13.50615
781.10 13.34682
781.20 13.24511
781.30 13.29665
781.40 13.47074
781.50 13.68988
781.60 13.9013
781.70 14.06241
781.80 14.16844
781.90 14.1728
782.00 14.02194
782.10 13.69727
782.20 13.2474
782.30 12.85568
782.40 12.64077
782.50 12.56541
782.60 12.59335
782.70 12.5751
782.80 12.36945
782.90 12.00232
783.00 11.48408
783.10 11.02271
783.20 10.90824
783.30 11.09736
783.40 11.42483
783.50 11.76596
783.60 12.01359
783.70 12.14768
783.80 12.19079
783.90 12.18164
784.00 12.21774
784.10 12.28502
784.20 12.29283
784.30 12.31297
784.40 12.43255
784.50 12.65409
784.60 12.96028
784.70 13.22165
784.80 13.34748
784.90 13.31957
785.00 13.23926
785.10 13.24338
785.20 13.23284
785.30 13.25443
785.40 13.36396
785.50 13.38793
785.60 13.34723
785.70 13.34741
785.80 13.41738
785.90 13.59783
786.00 13.74047
786.10 13.65611
786.20 13.34382
786.30 13.0011
786.40 12.85916
786.50 12.87155
786.60 12.96303
786.70 13.123
786.80 13.24603
786.90 13.33984
787.00 13.37409
787.10 13.32488
787.20 13.26692
787.30 13.15755
787.40 13.07649
787.50 13.13045
787.60 13.33683
787.70 13.71642
787.80 14.08042
787.90 14.24203
788.00 14.2917
788.10 14.34483
788.20 14.50606
788.30 14.75525
788.40 14.91119
788.50 14.98912
788.60 14.99916
788.70 14.93389
788.80 14.95497
788.90 15.10349
789.00 15.32623
789.10 15.50051
789.20 15.51728
789.30 15.45693
789.40 15.42704
789.50 15.47266
789.60 15.50091
789.70 15.4292
789.80 15.25202
789.90 14.97078
790.00 14.66848
790.10 14.4205
790.20 14.3091
790.30 14.40942
790.40 14.6736
790.50 14.97265
790.60 15.16895
790.70 15.08436
790.80 14.68036
790.90 14.11956
791.00 13.57952
791.10 13.27748
791.20 13.26071
791.30 13.35716
791.40 13.55057
791.50 13.82519
791.60 14.03836
791.70 14.14283
791.80 14.12042
791.90 13.99029
792.00 13.85351
792.10 13.83611
792.20 13.92459
792.30 14.06549
792.40 14.28787
792.50 14.45607
792.60 14.46738
792.70 14.43145
792.80 14.43703
792.90 14.55093
793.00 14.77964
793.10 15.04379
793.20 15.32668
793.30 15.62749
793.40 15.87757
793.50 16.06711
793.60 16.15691
793.70 16.09992
793.80 15.97223
793.90 15.80071
794.00 15.53616
794.10 15.17857
794.20 14.83223
794.30 14.68146
794.40 14.82027
794.50 15.12385
794.60 15.30819
794.70 15.08855
794.80 14.49634
794.90 13.96851
795.00 13.86593
795.10 14.26106
795.20 14.95944
795.30 15.65683
795.40 16.16795
795.50 16.44585
795.60 16.56608
795.70 16.62225
795.80 16.66813
795.90 16.72133
796.00 16.63658
796.10 16.32777
796.20 15.98987
796.30 15.84276
796.40 15.99422
796.50 16.38585
796.60 16.72359
796.70 16.83958
796.80 16.87039
796.90 16.95154
797.00 17.15047
797.10 17.38805
797.20 17.52585
797.30 17.57535
797.40 17.57114
797.50 17.47316
797.60 17.28813
797.70 17.11721
797.80 17.05436
797.90 17.0926
798.00 17.13481
798.10 17.10438
798.20 16.95978
798.30 16.75111
798.40 16.61464
798.50 16.58291
798.60 16.57119
798.70 16.51166
798.80 16.37949
798.90 16.21316
799.00 16.15289
799.10 16.32741
799.20 16.65893
799.30 16.99725
799.40 17.29082
799.50 17.37949
799.60 17.18823
799.70 16.91358
799.80 16.71401
799.90 16.72095
800.00 16.94412
800.10 17.187
800.20 17.36478
800.30 17.5281
800.40 17.6555
800.50 17.70756
800.60 17.739
800.70 17.81827
800.80 17.9321
800.90 18.02327
801.00 18.106
801.10 18.21174
801.20 18.33423
801.30 18.48419
801.40 18.65222
801.50 18.80836
801.60 18.91265
801.70 18.96118
801.80 18.97993
801.90 19.01799
802.00 19.11421
802.10 19.14308
802.20 19.01852
802.30 18.84693
802.40 18.78823
802.50 18.90947
802.60 19.0928
802.70 19.25683
802.80 19.46949
802.90 19.68292
803.00 19.79572
803.10 19.86886
803.20 19.97071
803.30 20.09345
803.40 20.18131
803.50 20.2117
803.60 20.21144
803.70 20.15752
803.80 20.06865
803.90 20.01648
804.00 20.04581
804.10 20.13199
804.20 20.22778
804.30 20.3707
804.40 20.54401
804.50 20.69627
804.60 20.80356
804.70 20.7314
804.80 20.53491
804.90 20.47721
805.00 20.6329
805.10 20.9603
805.20 21.4324
805.30 21.89963
805.40 22.18536
805.50 22.3204
805.60 22.36618
805.70 22.32771
805.80 22.28444
805.90 22.28327
806.00 22.33501
806.10 22.45446
806.20 22.62861
806.30 22.77602
806.40 22.7328
806.50 22.4933
806.60 22.30545
806.70 22.25954
806.80 22.26166
806.90 22.26098
807.00 22.19702
807.10 22.09125
807.20 22.08499
807.30 22.24448
807.40 22.52171
807.50 22.82779
807.60 23.02812
807.70 23.06282
807.80 23.0715
807.90 23.16414
808.00 23.2782
808.10 23.32786
808.20 23.34869
808.30 23.44895
808.40 23.62033
808.50 23.78622
808.60 23.93005
808.70 24.01508
808.80 23.99504
808.90 23.93138
809.00 23.89296
809.10 23.93497
809.20 24.11421
809.30 24.30675
809.40 24.35218
809.50 24.25592
809.60 24.10898
809.70 23.99725
809.80 23.9856
809.90 24.04176
810.00 24.06797
810.10 24.07673
810.20 24.09441
810.30 24.0704
810.40 24.00679
810.50 23.93598
810.60 23.89262
810.70 23.94189
810.80 24.14271
810.90 24.47468
811.00 24.76742
811.10 24.87629
811.20 24.86966
811.30 24.87871
811.40 24.95918
811.50 25.03279
811.60 24.88104
811.70 24.4693
811.80 24.05939
811.90 23.94902
812.00 24.24187
812.10 24.7629
812.20 25.25242
812.30 25.50883
812.40 25.53094
812.50 25.51702
812.60 25.58959
812.70 25.74859
812.80 25.91101
812.90 25.98694
813.00 25.96802
813.10 25.90129
813.20 25.85765
813.30 25.84364
813.40 25.8492
813.50 25.90643
813.60 25.99093
813.70 26.10116
813.80 26.28193
813.90 26.46817
814.00 26.561
814.10 26.55456
814.20 26.40493
814.30 26.12113
814.40 25.85097
814.50 25.70248
814.60 25.66912
814.70 25.6967
814.80 25.76862
814.90 25.79721
815.00 25.72424
815.10 25.74054
815.20 25.91198
815.30 26.02923
815.40 26.00655
815.50 25.92444
815.60 25.8305
815.70 25.77051
815.80 25.75237
815.90 25.70168
816.00 25.60024
816.10 25.43901
816.20 25.23248
816.30 25.11673
816.40 25.19717
816.50 25.44823
816.60 25.81668
816.70 26.21589
816.80 26.48525
816.90 26.52539
817.00 26.35905
817.10 26.13404
817.20 26.00676
817.30 25.95881
817.40 25.98826
817.50 26.0476
817.60 25.90041
817.70 25.48569
817.80 24.98796
817.90 24.50514
818.00 24.01044
818.10 23.14732
818.20 21.45497
818.30 18.99047
818.40 16.45329
818.50 14.94796
818.60 15.14742
818.70 16.87614
818.80 19.21775
818.90 21.05336
819.00 22.01348
819.10 22.25955
819.20 21.82279
819.30 20.59662
819.40 18.56437
819.50 16.04118
819.60 13.95988
819.70 13.21155
819.80 13.94529
819.90 15.75286
820.00 17.83708
820.10 19.54298
820.20 20.84583
820.30 21.89224
820.40 22.63904
820.50 23.05801
820.60 23.09439
820.70 22.8292
820.80 22.58644
820.90 22.56403
821.00 22.84645
821.10 23.32644
821.20 23.74915
821.30 23.97454
821.40 23.98607
821.50 23.90957
821.60 23.89396
821.70 23.93653
821.80 23.96595
821.90 23.97072
822.00 23.99819
822.10 24.11445
822.20 24.31018
822.30 24.4596
822.40 24.57922
822.50 24.80543
822.60 25.05004
822.70 25.19416
822.80 25.26909
822.90 25.29422
823.00 25.42096
823.10 25.72994
823.20 25.94584
823.30 25.88971
823.40 25.57145
823.50 25.15978
823.60 25.01637
823.70 25.20845
823.80 25.58818
823.90 26.04782
824.00 26.44579
824.10 26.69493
824.20 26.7393
824.30 26.6013
824.40 26.36239
824.50 26.17322
824.60 26.23394
824.70 26.55883
824.80 27.01184
824.90 27.40919
825.00 27.5844
825.10 27.3756
825.20 26.82444
825.30 26.24363
825.40 25.80127
825.50 25.46646
825.60 25.14549
825.70 24.76346
825.80 24.43847
825.90 24.43927
826.00 24.91299
826.10 25.6447
826.20 26.23013
826.30 26.50862
826.40 26.60439
826.50 26.67153
826.60 26.83378
826.70 27.00402
826.80 26.98208
826.90 26.81993
827.00 26.58576
827.10 26.22265
827.20 25.67742
827.30 25.01633
827.40 24.48274
827.50 24.2851
827.60 24.40769
827.70 24.63789
827.80 24.84976
827.90 25.05497
828.00 25.17356
828.10 25.14719
828.20 25.01925
828.30 24.82987
828.40 24.61487
828.50 24.5526
828.60 24.72957
828.70 24.83744
828.80 24.64081
828.90 24.17311
829.00 23.48962
829.10 22.9083
829.20 22.77645
829.30 23.00076
829.40 23.33752
829.50 23.57579
829.60 23.63114
829.70 23.67812
829.80 23.81573
829.90 23.96435
830.00 23.50269
830.10 23.28684
830.20 23.07099
830.30 22.76436
830.40 22.45773
830.50 22.15722
830.60 21.85672
830.70 22.10765
830.80 22.35858
830.90 22.83433
831.00 23.31009
831.10 23.52311
831.20 23.73614
831.30 23.59622
831.40 23.45631
831.50 23.52156
831.60 23.5868
831.70 23.69681
831.80 23.80681
831.90 24.09867
832.00 24.39052
832.10 24.30689
832.20 24.22326
832.30 24.34261
832.40 24.46195
832.50 24.44987
832.60 24.43778
832.70 23.9094
832.80 23.38102
832.90 23.21505
833.00 23.04909
833.10 23.57861
833.20 24.10814
833.30 24.47595
833.40 24.84377
833.50 24.2586
833.60 23.67343
833.70 23.36716
833.80 23.06089
833.90 23.42441
834.00 23.78793
834.10 24.13795
834.20 24.48798
834.30 24.59063
834.40 24.69328
834.50 24.37986
834.60 24.06645
834.70 23.70463
834.80 23.34281
834.90 23.28197
835.00 23.22112
835.10 23.4332
835.20 23.64528
835.30 23.69154
835.40 23.7378
835.50 23.71686
835.60 23.69592
835.70 23.92697
835.80 24.15803
835.90 24.23755
836.00 24.31706
836.10 24.39159
836.20 24.46612
836.30 24.23293
836.40 23.99973
836.50 23.79452
836.60 23.5893
836.70 23.8578
836.80 24.12631
836.90 24.58639
837.00 25.04648
837.10 25.10925
837.20 25.17203
837.30 24.81638
837.40 24.46073
837.50 23.70586
837.60 22.95099
837.70 22.66862
837.80 22.38625
837.90 22.50935
838.00 22.63245
838.10 22.90904
838.20 23.18564
838.30 22.94726
838.40 22.70888
838.50 22.48771
838.60 22.26654
838.70 21.93126
838.80 21.59598
838.90 21.08894
839.00 20.5819
839.10 21.10269
839.20 21.62347
839.30 22.15983
839.40 22.69619
839.50 22.65616
839.60 22.61613
839.70 22.55756
839.80 22.499
839.90 22.93698
840.00 23.37496
840.10 23.09295
840.20 23.18537
840.30 23.56616
840.40 23.94852
840.50 24.20392
840.60 24.46072
840.70 24.71696
840.80 24.94489
840.90 25.06106
841.00 24.98181
841.10 24.96517
841.20 24.6473
841.30 24.21633
841.40 24.05707
841.50 23.91827
841.60 23.99612
841.70 24.65376
841.80 25.43528
841.90 25.38711
842.00 25.08258
842.10 24.20861
842.20 23.32345
842.30 22.90433
842.40 23.11008
842.50 23.25104
842.60 22.99686
842.70 22.79066
842.80 22.33037
842.90 21.88604
843.00 21.88895
843.10 22.3987
843.20 22.79512
843.30 22.18761
843.40 21.55656
843.50 19.90671
843.60 18.08617
843.70 16.9051
843.80 16.73676
843.90 16.72252
844.00 18.05899
844.10 19.3973
844.20 19.60047
844.30 19.35397
844.40 18.5065
844.50 17.09118
844.60 15.88275
844.70 15.73443
844.80 15.69933
844.90 16.36926
845.00 17.05479
845.10 17.22436
845.20 16.73727
845.30 16.0485
845.40 14.84028
845.50 13.75904
845.60 13.54768
845.70 13.41969
845.80 13.46381
845.90 13.72792
846.00 13.9838
846.10 14.15767
846.20 14.31688
846.30 14.68873
846.40 15.0559
846.50 14.89831
846.60 14.27609
846.70 13.68235
846.80 13.47638
846.90 13.48101
847.00 13.75399
847.10 13.71983
847.20 13.49715
847.30 13.41771
847.40 13.52722
847.50 13.9128
847.60 14.26075
847.70 14.66967
847.80 15.02285
847.90 15.01885
848.00 14.91707
848.10 14.8873
848.20 14.95971
848.30 15.02237
848.40 15.16763
848.50 15.31008
848.60 15.56175
848.70 15.86948
848.80 16.0422
848.90 15.91495
849.00 15.77825
849.10 16.05133
849.20 16.38686
849.30 16.60315
849.40 16.70351
849.50 16.58699
849.60 16.27151
849.70 16.00093
849.80 15.69438
849.90 15.33046
850.00 15.49025
850.10 15.92264
850.20 16.33961
850.30 16.43782
850.40 16.36592
850.50 16.05424
850.60 15.90107
850.70 15.52432
850.80 14.99041
850.90 14.70827
851.00 14.88652
851.10 15.16867
851.20 15.63475
851.30 16.07373
851.40 15.9595
851.50 15.679
851.60 15.33958
851.70 14.965
851.80 14.55322
851.90 14.20635
852.00 13.97569
852.10 14.05464
852.20 14.11046
852.30 14.15399
852.40 14.25926
852.50 14.51627
852.60 15.0312
852.70 15.47664
852.80 15.86199
852.90 16.19086
853.00 16.33189
853.10 16.43098
853.20 16.56779
853.30 16.7637
853.40 16.97783
853.50 17.10778
853.60 17.1391
853.70 17.03868
853.80 16.97031
853.90 17.04279
854.00 17.26358
854.10 17.40317
854.20 17.10279
854.30 16.80416
854.40 16.64808
854.50 16.63742
854.60 16.84284
854.70 17.32994
854.80 17.72679
854.90 17.89945
855.00 18.14514
855.10 18.47085
855.20 18.77324
855.30 19.01549
855.40 19.21388
855.50 19.42567
855.60 19.43771
855.70 19.3406
855.80 19.17075
855.90 19.09974
856.00 18.81944
856.10 18.19488
856.20 17.6047
856.30 17.60721
856.40 17.66274
856.50 18.01275
856.60 18.45102
856.70 18.88248
856.80 19.20689
856.90 19.4449
857.00 19.35603
857.10 19.21262
857.20 18.80986
857.30 18.45575
857.40 18.31756
857.50 18.38188
857.60 18.51969
857.70 18.76509
857.80 18.95191
857.90 19.39195
858.00 19.80955
858.10 19.74309
858.20 19.41631
858.30 19.20972
858.40 19.25768
858.50 19.2308
858.60 19.16603
858.70 19.22435
858.80 19.45181
858.90 19.77849
859.00 20.0005
859.10 19.98556
859.20 19.9233
859.30 19.82916
859.40 19.74886
859.50 19.84393
859.60 20.0465
859.70 20.25233
859.80 20.357
859.90 20.41144
860.00 20.43353
860.10 20.52055
860.20 20.75599
860.30 21.10969
860.40 21.35758
860.50 21.2106
860.60 20.88309
860.70 20.86349
860.80 21.07741
860.90 21.24815
861.00 21.38556
861.10 21.25182
861.20 20.68233
861.30 20.13165
861.40 19.77099
861.50 19.44595
861.60 19.42773
861.70 19.48808
861.80 19.40658
861.90 19.10528
862.00 18.83541
862.10 19.01909
862.20 19.26097
862.30 19.57852
862.40 19.8716
862.50 19.74334
862.60 19.32008
862.70 19.02954
862.80 19.38756
862.90 19.79479
863.00 19.75401
863.10 19.58163
863.20 19.41583
863.30 19.2844
863.40 19.30839
863.50 19.69148
863.60 20.00788
863.70 19.83523
863.80 19.70185
863.90 19.75582
864.00 19.89092
864.10 20.04426
864.20 20.34258
864.30 20.5862
864.40 20.79512
864.50 21.03771
864.60 20.87244
864.70 20.48914
864.80 20.14591
864.90 20.17067
865.00 20.32958
865.10 20.65254
865.20 20.79249
865.30 20.8224
865.40 20.92054
865.50 21.10955
865.60 21.33734
865.70 21.55333
865.80 21.54671
865.90 21.52915
866.00 21.34429
866.10 21.08839
866.20 20.68836
866.30 20.14329
866.40 19.66634
866.50 19.95318
866.60 20.20955
866.70 20.78069
866.80 21.48169
866.90 21.85311
867.00 21.84941
867.10 21.85328
867.20 21.59539
867.30 21.1868
867.40 21.3314
867.50 21.60063
867.60 21.73969
867.70 21.79973
867.80 21.94254
867.90 22.38356
868.00 22.71491
868.10 22.63577
868.20 22.38411
868.30 21.93935
868.40 21.61393
868.50 21.57187
868.60 21.90111
868.70 22.00973
868.80 21.43999
868.90 20.9541
869.00 20.43081
869.10 19.91083
869.20 19.33273
869.30 18.80629
869.40 18.29388
869.50 17.77017
869.60 17.39142
869.70 17.51831
869.80 17.72637
869.90 17.88265
870.00 18.10661
870.10 18.42902
870.20 18.7669
870.30 19.03334
870.40 19.35337
870.50 19.65319
870.60 19.98349
870.70 20.32865
870.80 20.64995
870.90 20.31957
871.00 19.9378
871.10 19.3335
871.20 18.7267
871.30 18.44329
871.40 18.47317
871.50 18.40792
871.60 18.5051
871.70 18.73405
871.80 18.65905
871.90 18.52646
872.00 18.59091
872.10 18.85517
872.20 19.08433
872.30 19.181
872.40 19.25063
872.50 19.2787
872.60 19.36036
872.70 19.78408
872.80 20.40325
872.90 20.99318
873.00 21.54338
873.10 22.1177
873.20 21.841
873.30 21.48591
873.40 21.12609
873.50 20.84274
873.60 20.63211
873.70 20.53798
873.80 20.35327
873.90 20.27162
874.00 20.34716
874.10 20.80006
874.20 21.40792
874.30 21.90993
874.40 22.17534
874.50 22.46753
874.60 22.91791
874.70 23.29791
874.80 22.86775
874.90 22.18499
875.00 21.52454
875.10 21.03448
875.20 20.66016
875.30 21.4032
875.40 22.09176
875.50 22.55355
875.60 22.81097
875.70 22.76206
875.80 22.57995
875.90 22.62968
876.00 23.15721
876.10 23.53287
876.20 23.84511
876.30 24.13666
876.40 23.92846
876.50 23.23301
876.60 22.64024
876.70 22.38922
876.80 22.18706
876.90 22.24644
877.00 22.37598
877.10 23.06571
877.20 24.13896
877.30 25.08052
877.40 25.54935
877.50 26.08045
877.60 26.68404
877.70 27.11739
877.80 26.73646
877.90 25.99484
878.00 25.25373
878.10 24.3913
878.20 23.51888
878.30 23.88539
878.40 24.27977
878.50 24.59093
878.60 24.77568
878.70 24.9295
878.80 25.08556
878.90 25.24004
879.00 25.50772
879.10 25.66751
879.20 25.98409
879.30 26.33375
879.40 26.36933
879.50 25.91021
879.60 25.5663
879.70 25.9642
879.80 26.27807
879.90 26.40652
880.00 26.40002
880.10 25.75734
880.20 24.47007
880.30 23.27497
880.40 22.73487
880.50 22.26405
880.60 22.59478
880.70 22.89939
880.80 23.09986
880.90 23.32631
881.00 23.525
881.10 23.75359
881.20 24.14851
881.30 25.33318
881.40 26.58022
881.50 27.53327
881.60 28.25947
881.70 28.79966
881.80 28.65784
881.90 28.49506
882.00 28.589
882.10 28.58693
882.20 27.7957
882.30 26.57344
882.40 25.40817
882.50 24.40476
882.60 23.40089
882.70 23.40001
882.80 23.50729
882.90 24.0778
883.00 24.83141
883.10 25.61755
883.20 26.46888
883.30 27.25373
883.40 27.65917
883.50 28.07256
883.60 28.15879
883.70 28.09726
883.80 28.10173
883.90 28.17554
884.00 28.34485
884.10 28.54406
884.20 28.57131
884.30 28.51787
884.40 28.3968
884.50 27.99879
884.60 27.28545
884.70 26.53413
884.80 25.81193
884.90 25.08074
885.00 24.73623
885.10 24.64567
885.20 25.4295
885.30 26.69963
885.40 27.89121
885.50 28.89916
885.60 29.76027
885.70 29.23065
885.80 28.63479
885.90 27.35168
886.00 25.49671
886.10 23.75587
886.20 22.31464
886.30 20.92537
886.40 20.98778
886.50 21.1232
886.60 22.04379
886.70 23.12062
886.80 23.77782
886.90 23.44502
887.00 23.0613
887.10 21.79456
887.20 20.68146
887.30 19.66171
887.40 18.56229
887.50 18.04022
887.60 18.59516
887.70 19.22687
887.80 20.24187
887.90 21.18677
888.00 21.97214
888.10 22.62532
888.20 22.95432
888.30 22.9227
888.40 22.77021
888.50 21.81667
888.60 20.96936
888.70 20.87322
888.80 20.99772
888.90 21.44565
889.00 22.16816
889.10 22.92041
889.20 23.19325
889.30 23.3231
889.40 23.22783
889.50 23.08142
889.60 22.54843
889.70 21.82344
889.80 21.33755
889.90 21.2888
890.00 21.20984
890.10 22.19377
890.20 23.11997
890.30 23.68873
890.40 24.09153
890.50 24.62227
890.60 25.26149
890.70 25.79478
890.80 25.76085
890.90 25.69248
891.00 25.28746
891.10 24.76498
891.20 24.37102
891.30 24.03777
891.40 23.67606
891.50 24.17779
891.60 24.53473
891.70 24.7169
891.80 25.04542
891.90 25.34294
892.00 25.39782
892.10 25.35634
892.20 25.29718
892.30 25.31717
892.40 24.94619
892.50 24.56229
892.60 24.35624
892.70 24.29752
892.80 24.32032
892.90 24.62203
893.00 24.8331
893.10 25.25092
893.20 25.62945
893.30 26.15849
893.40 26.79364
893.50 27.31513
893.60 27.46572
893.70 27.57492
893.80 26.6208
893.90 25.71643
894.00 24.77228
894.10 23.77744
894.20 23.1422
894.30 23.31855
894.40 23.45283
894.50 23.14122
894.60 22.927
894.70 23.15777
894.80 23.3878
894.90 23.75107
895.00 24.37008
895.10 24.95994
895.20 24.90752
895.30 24.90532
895.40 24.56606
895.50 24.09287
895.60 24.11218
895.70 24.75874
895.80 25.35362
895.90 25.49136
896.00 25.62993
896.10 25.5434
896.20 25.52443
896.30 25.52463
896.40 25.41208
896.50 25.22649
896.60 25.25343
896.70 25.37002
896.80 25.20862
896.90 25.14434
897.00 25.32183
897.10 25.47799
897.20 25.55603
897.30 25.66132
897.40 25.87381
897.50 26.12415
897.60 26.28448
897.70 26.63247
897.80 27.13346
897.90 27.3594
898.00 27.03374
898.10 26.8833
898.20 26.63672
898.30 26.33952
898.40 26.67862
898.50 27.24285
898.60 27.84958
898.70 28.3173
898.80 28.64755
898.90 28.68055
899.00 28.83341
899.10 28.58338
899.20 28.20516
899.30 27.96542
899.40 27.84287
899.50 27.72507
899.60 27.56194
899.70 27.24993
899.80 26.88026
899.90 26.56502
900.00 26.16262
900.10 25.66504
900.20 25.44813
900.30 26.7599
900.40 28.04152
900.50 28.87514
900.60 29.54755
900.70 29.99271
900.80 30.21794
900.90 30.14883
901.00 29.44652
901.10 28.94458
901.20 28.79992
901.30 28.56041
901.40 28.54376
901.50 28.83263
901.60 29.09032
901.70 29.0525
901.80 28.93324
901.90 28.34345
902.00 27.80554
902.10 27.19605
902.20 26.53407
902.30 26.00304
902.40 25.72623
902.50 25.50853
902.60 25.29897
902.70 25.02151
902.80 24.90181
902.90 24.83283
903.00 25.11233
903.10 25.86656
903.20 26.52478
903.30 26.74556
903.40 26.99647
903.50 27.62472
903.60 28.38065
903.70 28.90798
903.80 29.11632
903.90 29.31197
904.00 29.69093
904.10 29.99172
904.20 29.57631
904.30 29.1548
904.40 28.84256
904.50 28.67968
904.60 28.6842
904.70 29.22815
904.80 29.70135
904.90 29.99918
905.00 30.21689
905.10 30.11572
905.20 29.98703
905.30 29.73161
905.40 29.21201
905.50 28.67609
905.60 28.37574
905.70 28.16385
905.80 27.97709
905.90 27.74414
906.00 27.51205
906.10 27.28956
906.20 27.09338
906.30 27.49373
906.40 27.79536
906.50 27.8604
906.60 28.15566
906.70 28.35709
906.80 28.28708
906.90 28.10164
907.00 27.66764
907.10 27.31785
907.20 27.5368
907.30 27.76904
907.40 27.90953
907.50 28.05792
907.60 28.23513
907.70 28.41553
907.80 28.73667
907.90 29.33752
908.00 29.71741
908.10 29.99467
908.20 30.36566
908.30 30.50999
908.40 29.92962
908.50 29.43375
908.60 29.52271
908.70 29.41668
908.80 29.24161
908.90 29.13591
909.00 29.12814
909.10 29.24673
909.20 29.31111
909.30 29.6246
909.40 29.84835
909.50 30.01535
909.60 30.13921
909.70 30.29272
909.80 30.56727
909.90 30.92508
910.00 31.32966
910.10 31.5724
910.20 31.47258
910.30 31.34026
910.40 31.27756
910.50 31.27476
910.60 31.26874
910.70 31.00917
910.80 30.636
910.90 30.52357
911.00 30.40061
911.10 30.46259
911.20 30.67083
911.30 30.90843
911.40 31.35863
911.50 31.75464
911.60 31.71433
911.70 31.78983
911.80 31.84105
911.90 31.75703
912.00 31.64942
912.10 31.59087
912.20 31.48229
912.30 31.432
912.40 31.48453
912.50 31.46536
912.60 31.38269
912.70 31.43121
912.80 31.72499
912.90 31.9834
913.00 32.16268
913.10 32.43382
913.20 32.5827
913.30 32.56426
913.40 32.58257
913.50 32.7799
913.60 33.0215
913.70 32.81198
913.80 32.5068
913.90 31.96356
914.00 31.30755
914.10 30.58259
914.20 30.01226
914.30 29.74829
914.40 30.2796
914.50 30.79402
914.60 31.47883
914.70 32.02384
914.80 32.09648
914.90 31.9458
915.00 31.68773
915.10 31.25139
915.20 30.93401
915.30 31.21324
915.40 31.3623
915.50 31.97253
915.60 32.82616
915.70 33.66616
915.80 34.37157
915.90 34.91464
916.00 34.31574
916.10 33.80648
916.20 33.34875
916.30 33.02496
916.40 32.81533
916.50 32.59853
916.60 32.38394
916.70 32.90665
916.80 33.44553
916.90 33.58815
917.00 33.51444
917.10 33.42396
917.20 33.52475
917.30 33.66457
917.40 33.47014
917.50 33.27603
917.60 33.09644
917.70 32.81173
917.80 32.79509
917.90 33.04067
918.00 33.25974
918.10 33.29474
918.20 33.26542
918.30 33.26147
918.40 33.26584
918.50 33.00439
918.60 32.6743
918.70 32.48585
918.80 32.62298
918.90 32.96326
919.00 34.18829
919.10 35.0366
919.20 35.01715
919.30 34.90386
919.40 34.47169
919.50 33.72735
919.60 33.21873
919.70 33.65016
919.80 33.9443
919.90 34.49969
920.00 34.95715
920.10 35.01096
920.20 34.78808
920.30 34.73346
920.40 35.11439
920.50 35.34806
920.60 35.0706
920.70 34.62573
920.80 33.8886
920.90 33.10048
921.00 32.41148
921.10 31.71298
921.20 30.90378
921.30 30.96856
921.40 31.29535
921.50 31.84761
921.60 32.51323
921.70 33.12412
921.80 33.72321
921.90 34.25409
922.00 33.77327
922.10 33.1897
922.20 32.91377
922.30 32.86744
922.40 32.73077
922.50 32.35748
922.60 31.98772
922.70 32.18036
922.80 32.28346
922.90 32.56744
923.00 32.97525
923.10 32.93792
923.20 32.33809
923.30 31.75955
923.40 31.21567
923.50 30.49447
923.60 30.38652
923.70 30.45238
923.80 30.51786
923.90 30.61987
924.00 30.70214
924.10 30.64029
924.20 30.64008
924.30 31.86506
924.40 33.09219
924.50 33.49098
924.60 33.22595
924.70 32.72913
924.80 31.78102
924.90 31.03083
925.00 30.67463
925.10 30.19539
925.20 29.92936
925.30 29.93651
925.40 30.01546
925.50 30.21039
925.60 30.40257
925.70 31.4137
925.80 32.33764
925.90 32.94408
926.00 33.57156
926.10 33.83344
926.20 33.57738
926.30 33.266
926.40 32.80329
926.50 32.39775
926.60 32.62121
926.70 32.7792
926.80 32.96457
926.90 33.35815
927.00 33.71398
927.10 33.63579
927.20 33.55688
927.30 33.27174
927.40 33.01182
927.50 32.58246
927.60 31.98416
927.70 31.4112
927.80 31.12082
927.90 30.90979
928.00 30.58613
928.10 30.12837
928.20 30.14841
928.30 30.59868
928.40 31.05318
928.50 31.43636
928.60 31.74854
928.70 31.62955
928.80 31.66626
928.90 31.54033
929.00 31.20693
929.10 30.90894
929.20 30.76717
929.30 30.68894
929.40 30.863
929.50 31.0343
929.60 31.26494
929.70 31.3604
929.80 31.20125
929.90 30.87588
930.00 30.47382
930.10 29.75345
930.20 29.33879
930.30 29.54473
930.40 29.54934
930.50 29.70811
930.60 30.09436
930.70 30.29104
930.80 29.91688
930.90 29.60296
931.00 29.63063
931.10 29.65935
931.20 30.21512
931.30 31.09634
931.40 31.86429
931.50 32.51142
931.60 33.04479
931.70 32.35215
931.80 31.58242
931.90 30.88331
932.00 30.79797
932.10 30.97576
932.20 31.26249
932.30 31.56022
932.40 31.84384
932.50 32.05185
932.60 31.93113
932.70 31.68674
932.80 31.49095
932.90 31.37299
933.00 31.29623
933.10 31.53234
933.20 31.87353
933.30 32.18552
933.40 32.05113
933.50 31.91515
933.60 31.90139
933.70 31.9857
933.80 32.0656
933.90 32.05721
934.00 32.08103
934.10 32.19877
934.20 32.24404
934.30 32.23979
934.40 32.1266
934.50 32.02859
934.60 32.1677
934.70 32.30588
934.80 32.22224
934.90 32.04849
935.00 31.72455
935.10 31.48338
935.20 31.2498
935.30 31.23829
935.40 31.2183
935.50 31.26033
935.60 31.431
935.70 31.59533
935.80 31.68901
935.90 31.57836
936.00 31.48861
936.10 31.82366
936.20 32.24117
936.30 32.58454
936.40 32.59535
936.50 32.59659
936.60 32.56978
936.70 32.37171
936.80 32.12785
936.90 31.93771
937.00 31.89652
937.10 31.86016
937.20 31.41807
937.30 31.03945
937.40 30.80652
937.50 31.0688
937.60 31.34382
937.70 31.53774
937.80 31.61731
937.90 31.6625
938.00 31.81168
938.10 31.91279
938.20 31.93656
938.30 31.58357
938.40 31.29042
938.50 31.18346
938.60 31.39174
938.70 31.57811
938.80 31.68958
938.90 31.71525
939.00 31.74239
939.10 31.91719
939.20 32.13679
939.30 32.30448
939.40 32.34866
939.50 32.35357
939.60 32.11948
939.70 31.78712
939.80 31.42455
939.90 31.17168
940.00 30.86132
940.10 30.64377
940.20 30.91171
940.30 31.23758
940.40 31.43928
940.50 31.36478
940.60 31.26713
940.70 31.48429
940.80 31.85968
940.90 32.25179
941.00 32.58647
941.10 32.93549
941.20 33.10782
941.30 32.8144
941.40 32.45507
941.50 32.0084
941.60 31.55753
941.70 31.14856
941.80 31.26093
941.90 31.50314
942.00 31.7683
942.10 31.85688
942.20 31.8063
942.30 31.75959
942.40 31.81984
942.50 31.8936
942.60 32.00398
942.70 32.20068
942.80 32.39449
942.90 32.40247
943.00 32.24015
943.10 32.23087
943.20 32.78439
943.30 33.38432
943.40 33.69472
943.50 33.85574
943.60 33.99033
943.70 33.92539
943.80 33.7713
943.90 33.57158
944.00 33.28197
944.10 33.08021
944.20 32.95658
944.30 32.84403
944.40 32.73479
944.50 32.43271
944.60 31.96616
944.70 31.51061
944.80 31.54909
944.90 31.67606
945.00 31.82198
945.10 31.94344
945.20 32.07337
945.30 32.18074
945.40 32.42387
945.50 32.66571
945.60 32.88744
945.70 32.96497
945.80 32.9811
945.90 32.65563
946.00 32.41827
946.10 32.34861
946.20 32.4245
946.30 32.49154
946.40 32.91477
946.50 33.59769
946.60 34.22683
946.70 34.07735
946.80 33.94301
946.90 33.87439
947.00 33.90827
947.10 33.93102
947.20 33.92106
947.30 33.96041
947.40 33.97965
947.50 34.04986
947.60 34.07535
947.70 34.10485
947.80 34.20305
947.90 34.4085
948.00 34.66824
948.10 34.85827
948.20 34.98453
948.30 34.93227
948.40 34.75755
948.50 34.58637
948.60 34.75906
948.70 35.05304
948.80 35.28329
948.90 35.21883
949.00 35.18621
949.10 35.31536
949.20 35.57872
949.30 35.78992
949.40 35.53943
949.50 35.25723
949.60 34.94846
949.70 34.53423
949.80 34.17687
949.90 34.09605
950.00 34.39417
950.10 34.68209
950.20 34.9522
950.30 35.13749
950.40 35.28992
950.50 34.85023
950.60 34.50557
950.70 34.24909
950.80 34.21804
950.90 34.20038
951.00 34.32216
951.10 34.58515
951.20 34.82997
951.30 34.86364
951.40 34.84257
951.50 34.79374
951.60 34.67853
951.70 34.62745
951.80 34.56416
951.90 34.49898
952.00 34.45414
952.10 34.52956
952.20 34.54253
952.30 34.56812
952.40 34.92747
952.50 35.26584
952.60 35.58729
952.70 35.89808
952.80 36.14959
952.90 36.18275
953.00 36.1753
953.10 36.20117
953.20 36.15316
953.30 36.01111
953.40 35.83331
953.50 35.63234
953.60 35.50932
953.70 35.38286
953.80 35.07226
953.90 34.72253
954.00 34.70098
954.10 35.01625
954.20 35.36405
954.30 35.50945
954.40 35.57383
954.50 35.53575
954.60 35.13894
954.70 34.6281
954.80 34.32026
954.90 34.2885
955.00 34.35464
955.10 34.70218
955.20 35.11381
955.30 35.49275
955.40 35.6363
955.50 35.73205
955.60 35.88287
955.70 36.01301
955.80 36.12
955.90 36.22256
956.00 36.39724
956.10 36.56016
956.20 36.56681
956.30 36.62508
956.40 36.57465
956.50 36.16589
956.60 35.7952
956.70 35.86126
956.80 36.16419
956.90 36.47616
957.00 36.37235
957.10 36.18514
957.20 36.01161
957.30 36.05905
957.40 36.08734
957.50 35.93019
957.60 35.55601
957.70 35.24129
957.80 35.03458
957.90 34.91993
958.00 34.86273
958.10 35.30182
958.20 35.63489
958.30 35.86696
958.40 35.87382
958.50 35.81099
958.60 35.69994
958.70 35.66008
958.80 35.59257
958.90 35.21277
959.00 34.9262
959.10 34.70564
959.20 34.5865
959.30 34.4197
959.40 34.43661
959.50 34.63116
959.60 34.7328
959.70 34.05966
959.80 33.33769
959.90 32.58387
960.00 31.85644
960.10 31.28895
960.20 31.11659
960.30 31.59805
960.40 32.16344
960.50 33.03975
960.60 34.05653
960.70 34.98837
960.80 35.35008
960.90 35.66776
961.00 35.87028
961.10 35.71578
961.20 35.5275
961.30 35.28167
961.40 35.00595
961.50 34.77683
961.60 34.58185
961.70 34.43728
961.80 34.39425
961.90 34.96845
962.00 35.34592
962.10 35.61811
962.20 35.80964
962.30 35.99676
962.40 35.87861
962.50 35.76286
962.60 35.70642
962.70 36.02925
962.80 36.23453
962.90 36.36286
963.00 36.24435
963.10 36.09968
963.20 35.83845
963.30 35.6614
963.40 35.48946
963.50 35.1304
963.60 34.54905
963.70 33.75584
963.80 31.90806
963.90 30.22868
964.00 29.08394
964.10 28.59908
964.20 28.39945
964.30 29.63117
964.40 31.27951
964.50 32.88624
964.60 33.0849
964.70 33.1368
964.80 33.02624
964.90 32.62956
965.00 32.37492
965.10 32.39887
965.20 32.67952
965.30 33.00369
965.40 33.47064
965.50 33.97005
965.60 34.44036
965.70 34.67006
965.80 34.78721
965.90 34.92743
966.00 35.12175
966.10 35.33284
966.20 35.59702
966.30 35.93338
966.40 36.25705
966.50 36.32763
966.60 36.42509
966.70 36.40327
966.80 36.06476
966.90 35.70009
967.00 35.63541
967.10 35.75218
967.20 35.85747
967.30 35.46762
967.40 34.89746
967.50 34.12868
967.60 32.7944
967.70 31.7175
967.80 31.30321
967.90 31.51588
968.00 31.93744
968.10 33.16451
968.20 34.29054
968.30 35.27264
968.40 35.24302
968.50 35.29652
968.60 35.24573
968.70 35.0421
968.80 34.80796
968.90 34.35139
969.00 33.71382
969.10 33.16355
969.20 33.55885
969.30 34.06552
969.40 34.6934
969.50 35.60954
969.60 36.41849
969.70 36.88664
969.80 37.11548
969.90 37.29373
970.00 37.38215
970.10 37.32129
970.20 37.20855
970.30 36.88586
970.40 36.48306
970.50 35.65673
970.60 34.30596
970.70 33.09981
970.80 32.66995
970.90 32.56776
971.00 32.6608
971.10 34.18572
971.20 35.45065
971.30 36.53381
971.40 37.15522
971.50 37.69416
971.60 37.94151
971.70 38.06598
971.80 38.13315
971.90 37.77539
972.00 37.43048
972.10 37.07689
972.20 36.7124
972.30 36.47523
972.40 36.46204
972.50 36.63233
972.60 36.69843
972.70 36.26367
972.80 35.63283
972.90 34.8951
973.00 33.6132
973.10 32.68948
973.20 32.34852
973.30 33.09021
973.40 33.81157
973.50 34.50551
973.60 35.14501
973.70 35.72262
973.80 35.66145
973.90 35.57559
974.00 35.48816
974.10 35.43863
974.20 35.30612
974.30 34.83701
974.40 34.12343
974.50 33.44635
974.60 33.15085
974.70 32.86747
974.80 32.73957
974.90 33.66834
975.00 34.56
975.10 35.23108
975.20 35.51762
975.30 35.77673
975.40 36.03182
975.50 36.14945
975.60 36.25743
975.70 36.09816
975.80 36.04505
975.90 36.10027
976.00 36.50176
976.10 36.87884
976.20 36.94424
976.30 36.81828
976.40 36.73143
976.50 37.00336
976.60 37.15306
976.70 37.26644
976.80 37.15075
976.90 36.9032
977.00 36.31257
977.10 35.4847
977.20 34.79825
977.30 34.65159
977.40 34.52799
977.50 34.52186
977.60 35.41954
977.70 36.15464
977.80 36.70466
977.90 36.93399
978.00 37.11694
978.10 36.82213
978.20 36.15085
978.30 35.36051
978.40 33.77166
978.50 32.34817
978.60 31.24866
978.70 31.30321
978.80 31.41677
978.90 31.70057
979.00 32.209
979.10 32.80554
979.20 33.97339
979.30 35.08727
979.40 36.17149
979.50 36.95653
979.60 37.69757
979.70 38.07398
979.80 37.79102
979.90 37.47599
980.00 37.41625
980.10 37.53658
980.20 37.67048
980.30 37.69319
980.40 37.68214
980.50 37.64568
980.60 37.58347
980.70 37.55046
980.80 37.52003
980.90 37.46
981.00 37.42716
981.10 37.59849
981.20 37.67407
981.30 37.68914
981.40 37.52108
981.50 37.47446
981.60 37.29638
981.70 36.90429
981.80 36.58642
981.90 36.80909
982.00 36.98881
982.10 37.15417
982.20 36.98434
982.30 36.92991
982.40 36.90989
982.50 36.96872
982.60 37.04455
982.70 37.22657
982.80 37.41003
982.90 37.55141
983.00 37.33043
983.10 37.14571
983.20 36.98638
983.30 36.89674
983.40 36.76597
983.50 36.58783
983.60 36.43753
983.70 36.3131
983.80 36.17119
983.90 35.96239
984.00 35.82633
984.10 36.15526
984.20 36.47208
984.30 36.70832
984.40 36.88173
984.50 37.04479
984.60 37.21672
984.70 37.23601
984.80 37.27878
984.90 37.30723
985.00 37.37528
985.10 37.31244
985.20 36.94668
985.30 36.61361
985.40 36.53318
985.50 36.57805
985.60 36.68543
985.70 37.03396
985.80 37.38379
985.90 37.64126
986.00 37.53633
986.10 37.42383
986.20 37.33541
986.30 37.2955
986.40 37.28838
986.50 37.48997
986.60 37.65151
986.70 37.76853
986.80 37.33687
986.90 37.01674
987.00 36.72129
987.10 36.48684
987.20 36.36429
987.30 36.82747
987.40 37.35774
987.50 37.86208
987.60 38.0226
987.70 38.15389
987.80 38.11621
987.90 37.71076
988.00 37.43298
988.10 37.24233
988.20 37.03822
988.30 36.90001
988.40 37.2601
988.50 37.53517
988.60 37.78985
988.70 37.94458
988.80 38.12602
988.90 38.16877
989.00 38.06685
989.10 37.97121
989.20 37.81356
989.30 37.56563
989.40 37.27568
989.50 36.53291
989.60 35.63987
989.70 34.4
989.80 32.48126
989.90 30.76025
990.00 29.82027
990.10 29.27672
990.20 28.79264
990.30 28.28009
990.40 27.65232
990.50 26.86621
990.60 25.67874
990.70 24.7094
990.80 24.01747
990.90 23.45966
991.00 22.98618
991.10 23.172
991.20 23.41168
991.30 23.59563
991.40 23.26478
991.50 22.97111
991.60 22.66831
991.70 22.33417
991.80 22.15075
991.90 22.71587
992.00 23.40324
992.10 24.11476
992.20 24.36869
992.30 24.54123
992.40 24.41474
992.50 23.64689
992.60 23.04169
992.70 23.13712
992.80 23.64579
992.90 24.27251
993.00 25.28099
993.10 26.13185
993.20 26.81451
993.30 26.87077
993.40 26.85583
993.50 26.71814
993.60 26.52131
993.70 26.57269
993.80 27.52722
993.90 28.38637
994.00 29.26472
994.10 29.98367
994.20 30.64526
994.30 30.94662
994.40 30.66689
994.50 30.3775
994.60 30.19017
994.70 30.07758
994.80 30.04088
994.90 30.56209
995.00 31.09505
995.10 31.61569
995.20 32.03494
995.30 32.3749
995.40 32.67426
995.50 32.91463
995.60 33.02938
995.70 32.23822
995.80 31.54894
995.90 30.93932
996.00 30.73685
996.10 30.5636
996.20 30.65921
996.30 31.0158
996.40 31.47725
996.50 32.40207
996.60 33.24803
996.70 34.0139
996.80 33.71505
996.90 33.32025
997.00 32.4047
997.10 30.61914
997.20 29.04328
997.30 28.11444
997.40 27.47703
997.50 27.02673
997.60 27.70254
997.70 28.28816
997.80 28.91633
997.90 29.64502
998.00 30.31572
998.10 30.90825
998.20 31.42915
998.30 31.81944
998.40 31.12922
998.50 30.40703
998.60 29.71152
998.70 29.2411
998.80 28.80318
998.90 28.62312
999.00 28.84276
999.10 29.04726
999.20 29.06958
999.30 29.07947
999.40 29.16144
999.50 29.68737
999.60 29.95648
999.70 30.00255
999.80 29.75066
999.90 29.71532
1000.00 30.26713
1000.10 30.88348
1000.20 31.53004
1000.30 32.3026
1000.40 33.0003
1000.50 33.51918
1000.60 33.52952
1000.70 33.40832
1000.80 32.89238
1000.90 32.19628
1001.00 31.51537
1001.10 30.72508
1001.20 30.12305
1001.30 29.75175
1001.40 30.46954
1001.50 31.0834
1001.60 31.79335
1001.70 32.6149
1001.80 33.35601
1001.90 33.48779
1002.00 33.5057
1002.10 33.40701
1002.20 32.88943
1002.30 32.59943
1002.40 32.62327
1002.50 33.15113
1002.60 33.51351
1002.70 33.65489
1002.80 33.86887
1002.90 34.0295
1003.00 33.59198
1003.10 33.07871
1003.20 32.63696
1003.30 32.43883
1003.40 32.19561
1003.50 31.84593
1003.60 31.43117
1003.70 31.05231
1003.80 30.80019
1003.90 30.64036
1004.00 30.6726
1004.10 31.64817
1004.20 32.542
1004.30 33.44055
1004.40 34.32448
1004.50 35.07436
1004.60 35.10994
1004.70 34.9375
1004.80 34.67161
1004.90 33.85949
1005.00 33.07543
1005.10 32.10138
1005.20 30.79567
1005.30 29.5963
1005.40 28.68722
1005.50 27.91242
1005.60 27.27603
1005.70 27.44986
1005.80 27.57947
1005.90 27.85207
1006.00 28.53321
1006.10 29.14414
1006.20 29.45518
1006.30 29.62444
1006.40 29.73773
1006.50 29.83261
1006.60 30.03898
1006.70 30.39973
1006.80 31.42555
1006.90 32.2207
1007.00 32.7614
1007.10 33.13668
1007.20 33.39939
1007.30 33.14043
1007.40 32.75811
1007.50 32.47951
1007.60 33.02349
1007.70 33.44623
1007.80 33.87576
1007.90 34.37766
1008.00 34.79776
1008.10 34.9451
1008.20 34.9418
1008.30 34.95834
1008.40 34.91743
1008.50 34.92923
1008.60 34.99776
1008.70 35.27362
1008.80 35.34045
1008.90 34.91631
1009.00 34.21241
1009.10 33.56925
1009.20 33.12728
1009.30 32.75104
1009.40 32.55349
1009.50 33.18341
1009.60 33.73746
1009.70 34.34266
1009.80 34.95854
1009.90 35.56897
1010.00 36.21863
1010.10 36.83021
1010.20 37.41748
1010.30 37.89824
1010.40 38.35886
1010.50 38.50258
1010.60 38.05536
1010.70 37.63391
1010.80 37.14189
1010.90 36.52615
1011.00 35.87314
1011.10 35.01215
1011.20 34.30433
1011.30 33.69333
1011.40 33.33522
1011.50 32.96835
1011.60 32.66349
1011.70 32.46854
1011.80 32.28523
1011.90 32.17265
1012.00 32.18136
1012.10 32.42439
1012.20 33.84825
1012.30 34.99444
1012.40 35.86239
1012.50 36.40171
1012.60 36.83118
1012.70 36.5557
1012.80 36.40095
1012.90 36.25397
1013.00 36.5501
1013.10 36.69942
1013.20 36.71972
1013.30 36.4477
1013.40 35.94291
1013.50 34.81621
1013.60 33.67866
1013.70 32.59383
1013.80 31.8358
1013.90 31.10776
1014.00 30.73132
1014.10 31.30152
1014.20 31.8648
1014.30 32.61887
1014.40 33.48771
1014.50 34.19807
1014.60 33.97088
1014.70 33.74158
1014.80 33.46007
1014.90 32.98446
1015.00 32.78358
1015.10 33.28758
1015.20 34.56788
1015.30 35.66865
1015.40 35.87839
1015.50 35.97257
1015.60 35.899
1015.70 34.60203
1015.80 33.5664
1015.90 32.81675
1016.00 32.56567
1016.10 32.38276
1016.20 32.69298
1016.30 33.21278
1016.40 33.69916
1016.50 33.73876
1016.60 33.85701
1016.70 34.0877
1016.80 34.63203
1016.90 34.88307
1017.00 34.63947
1017.10 34.22649
1017.20 33.89995
1017.30 33.91413
1017.40 33.98008
1017.50 34.29572
1017.60 35.65733
1017.70 36.51206
1017.80 36.64404
1017.90 36.15513
1018.00 35.7142
1018.10 35.07152
1018.20 34.17864
1018.30 33.34333
1018.40 33.05272
1018.50 32.79063
1018.60 32.54868
1018.70 32.30949
1018.80 32.22332
1018.90 32.81661
1019.00 33.49395
1019.10 34.20358
1019.20 34.68715
1019.30 35.05608
1019.40 35.18202
1019.50 34.94565
1019.60 34.82947
1019.70 34.87454
1019.80 34.9246
1019.90 34.91875
1020.00 34.69401
1020.10 34.539
1020.20 34.4486
1020.30 34.5562
1020.40 34.68535
1020.50 34.89159
1020.60 35.18111
1020.70 35.49935
1020.80 35.7046
1020.90 35.84061
1021.00 35.87716
1021.10 35.68921
1021.20 35.5676
1021.30 35.1753
1021.40 34.43051
1021.50 33.70922
1021.60 33.21887
1021.70 32.73055
1021.80 32.24308
1021.90 31.84384
1022.00 31.45715
1022.10 31.1948
1022.20 31.11882
1022.30 31.28739
1022.40 32.14314
1022.50 33.20159
1022.60 34.18408
1022.70 34.41752
1022.80 34.60746
1022.90 34.67248
1023.00 34.50218
1023.10 34.28748
1023.20 33.9081
1023.30 33.45391
1023.40 33.13099
1023.50 33.61571
1023.60 34.08076
1023.70 34.58422
1023.80 35.15387
1023.90 35.77636
1024.00 36.22463
1024.10 36.33392
1024.20 36.4111
1024.30 36.6769
1024.40 37.02995
1024.50 37.26148
1024.60 36.35911
1024.70 35.64559
1024.80 35.12662
1024.90 34.96317
1025.00 34.75329
1025.10 34.3268
1025.20 33.86994
1025.30 33.38994
1025.40 33.04879
1025.50 32.79967
1025.60 32.78801
1025.70 33.48346
1025.80 33.88896
1025.90 33.50797
1026.00 32.67798
1026.10 31.84093
1026.20 31.08261
1026.30 30.33953
1026.40 29.80189
1026.50 30.1799
1026.60 30.76114
1026.70 31.7545
1026.80 33.11385
1026.90 34.31579
1027.00 34.85525
1027.10 35.36787
1027.20 35.61899
1027.30 35.07731
1027.40 34.64723
1027.50 34.15547
1027.60 33.65332
1027.70 33.30134
1027.80 33.32203
1027.90 33.25661
1028.00 33.1591
1028.10 32.66545
1028.20 32.18635
1028.30 31.64076
1028.40 31.03743
1028.50 30.72723
1028.60 31.25566
1028.70 31.97108
1028.80 32.7308
1028.90 33.86516
1029.00 34.94691
1029.10 35.58489
1029.20 35.03495
1029.30 34.63609
1029.40 34.34184
1029.50 34.00405
1029.60 33.74377
1029.70 33.87525
1029.80 34.15357
1029.90 34.35454
1030.00 34.14367
1030.10 33.85785
1030.20 33.60353
1030.30 33.39137
1030.40 33.32881
1030.50 33.94193
1030.60 34.62416
1030.70 35.3507
1030.80 35.51395
1030.90 35.5711
1031.00 35.42463
1031.10 34.91224
1031.20 34.6022
1031.30 34.83753
1031.40 35.17038
1031.50 35.44815
1031.60 35.31628
1031.70 35.15634
1031.80 34.85043
1031.90 34.13204
1032.00 33.60943
1032.10 33.52298
1032.20 33.68187
1032.30 33.75989
1032.40 33.36022
1032.50 33.13149
1032.60 33.01585
1032.70 33.44412
1032.80 33.92345
1032.90 34.67593
1033.00 35.77887
1033.10 36.80704
1033.20 37.39211
1033.30 37.85886
1033.40 38.01233
1033.50 37.15073
1033.60 36.45411
1033.70 35.53417
1033.80 34.29025
1033.90 33.18987
1034.00 32.80841
1034.10 32.44778
1034.20 32.13111
1034.30 31.90512
1034.40 31.66534
1034.50 31.38
1034.60 31.033
1034.70 31.01853
1034.80 31.70627
1034.90 32.58406
1035.00 33.31747
1035.10 33.19423
1035.20 33.27418
1035.30 33.39003
1035.40 33.62756
1035.50 33.82015
1035.60 34.03917
1035.70 34.33274
1035.80 34.68615
1035.90 35.16662
1036.00 35.55765
1036.10 35.9683
1036.20 36.60997
1036.30 37.18825
1036.40 37.47717
1036.50 37.42631
1036.60 37.36869
1036.70 37.36026
1036.80 37.40358
1036.90 37.49642
1037.00 37.9071
1037.10 38.29909
1037.20 38.71425
1037.30 39.16629
1037.40 39.47126
1037.50 39.34527
1037.60 39.08279
1037.70 38.68059
1037.80 37.45416
1037.90 36.29875
1038.00 35.1726
1038.10 34.16989
1038.20 33.43554
1038.30 33.515
1038.40 33.84985
1038.50 34.30578
1038.60 35.26346
1038.70 35.99413
1038.80 36.46193
1038.90 36.33262
1039.00 36.25951
1039.10 36.07659
1039.20 35.77784
1039.30 35.48613
1039.40 35.19225
1039.50 34.87228
1039.60 34.51708
1039.70 34.03381
1039.80 33.68201
1039.90 33.63143
1040.00 33.99637
1040.10 34.52963
1040.20 35.37914
1040.30 36.12511
1040.40 36.79009
1040.50 37.12546
1040.60 37.54834
1040.70 37.88207
1040.80 38.02534
1040.90 38.03732
1041.00 37.80568
1041.10 37.59988
1041.20 37.26575
1041.30 36.32624
1041.40 35.58571
1041.50 35.08688
1041.60 35.17021
1041.70 35.46078
1041.80 36.33076
1041.90 37.47116
1042.00 38.38483
1042.10 38.37159
1042.20 38.45452
1042.30 38.3374
1042.40 37.47594
1042.50 36.55048
1042.60 35.50709
1042.70 34.46043
1042.80 33.52127
1042.90 33.13415
1043.00 32.81447
1043.10 32.89559
1043.20 34.44156
1043.30 35.76055
1043.40 36.91077
1043.50 37.87802
1043.60 38.58005
1043.70 38.4945
1043.80 38.41421
1043.90 38.33792
1044.00 38.3913
1044.10 38.38643
1044.20 38.39176
1044.30 38.42755
1044.40 38.45881
1044.50 38.35859
1044.60 38.17435
1044.70 37.96483
1044.80 38.08434
1044.90 38.38135
1045.00 38.86569
1045.10 39.60723
1045.20 40.26118
1045.30 40.77702
1045.40 41.19153
1045.50 41.45455
1045.60 41.48553
1045.70 41.50394
1045.80 41.336
1045.90 40.47837
1046.00 39.70234
1046.10 38.92834
1046.20 38.24597
1046.30 37.74401
1046.40 37.60432
1046.50 37.30743
1046.60 36.99271
1046.70 36.45374
1046.80 35.82814
1046.90 35.21225
1047.00 34.70197
1047.10 34.38837
1047.20 34.51064
1047.30 34.59919
1047.40 34.72055
1047.50 35.00344
1047.60 35.24901
1047.70 35.44256
1047.80 35.61364
1047.90 35.74556
1048.00 35.76897
1048.10 35.79306
1048.20 35.95377
1048.30 36.66303
1048.40 37.15512
1048.50 37.59267
1048.60 37.94443
1048.70 38.24347
1048.80 38.37209
1048.90 38.42382
1049.00 38.54782
1049.10 38.67979
1049.20 38.70375
1049.30 38.71723
1049.40 38.66998
1049.50 38.42877
1049.60 37.70891
1049.70 36.57449
1049.80 35.56934
1049.90 35.4173
1050.00 35.36986
1050.10 35.49873
1050.20 36.40001
1050.30 37.16542
1050.40 37.59452
1050.50 37.60854
1050.60 37.54998
1050.70 37.40923
1050.80 37.26929
1050.90 37.15044
1051.00 37.2074
1051.10 37.16022
1051.20 36.81406
1051.30 35.94291
1051.40 35.21058
1051.50 34.81691
1051.60 34.47418
1051.70 34.21634
1051.80 34.49116
1051.90 34.80156
1052.00 35.02392
1052.10 34.98656
1052.20 35.03544
1052.30 35.20084
1052.40 35.37156
1052.50 35.60465
1052.60 36.38315
1052.70 37.14867
1052.80 37.84516
1052.90 38.2743
1053.00 38.64042
1053.10 38.62283
1053.20 38.16841
1053.30 37.83305
1053.40 37.97844
1053.50 38.04152
1053.60 38.14253
1053.70 38.18735
1053.80 38.20608
1053.90 38.0142
1054.00 37.64133
1054.10 37.42748
1054.20 37.7213
1054.30 37.9061
1054.40 38.04723
1054.50 37.83533
1054.60 37.77435
1054.70 37.51364
1054.80 36.87228
1054.90 36.42587
1055.00 36.57412
1055.10 36.7904
1055.20 37.04245
1055.30 37.47977
1055.40 37.85069
1055.50 37.9386
1055.60 37.44807
1055.70 36.97182
1055.80 36.39853
1055.90 35.70845
1056.00 35.08874
1056.10 34.67711
1056.20 34.31441
1056.30 34.07124
1056.40 34.27691
1056.50 34.49312
1056.60 34.82768
1056.70 35.26793
1056.80 35.64718
1056.90 35.70705
1057.00 35.74592
1057.10 35.77759
1057.20 35.89958
1057.30 36.03041
1057.40 36.2659
1057.50 36.67211
1057.60 37.07118
1057.70 37.24554
1057.80 37.38621
1057.90 37.48288
1058.00 37.46811
1058.10 37.48188
1058.20 37.52345
1058.30 37.60786
1058.40 37.48929
1058.50 36.86979
1058.60 36.08989
1058.70 35.34436
1058.80 35.08037
1058.90 34.89809
1059.00 34.86496
1059.10 35.14887
1059.20 35.4127
1059.30 35.6704
1059.40 35.83999
1059.50 36.05021
1059.60 36.5221
1059.70 37.0272
1059.80 37.4176
1059.90 37.20727
1060.00 36.99194
1060.10 36.75554
1060.20 36.44313
1060.30 36.12891
1060.40 35.82639
1060.50 35.57362
1060.60 35.28489
1060.70 34.93235
1060.80 34.71165
1060.90 34.59504
1061.00 34.54405
1061.10 34.56191
1061.20 35.03703
1061.30 35.60365
1061.40 36.19139
1061.50 36.59825
1061.60 36.83143
1061.70 36.85332
1061.80 36.57293
1061.90 36.26215
1062.00 35.98623
1062.10 35.8764
1062.20 35.86053
1062.30 35.91801
1062.40 35.85454
1062.50 35.9476
1062.60 36.47921
1062.70 37.09178
1062.80 37.74545
1062.90 38.39941
1063.00 38.89941
1063.10 38.78306
1063.20 38.72757
1063.30 38.55288
1063.40 38.11402
1063.50 37.70845
1063.60 37.57182
1063.70 37.66175
1063.80 37.83509
1063.90 38.27122
1064.00 38.69614
1064.10 39.07925
1064.20 39.2459
1064.30 39.40617
1064.40 39.45214
1064.50 39.34098
1064.60 39.22483
1064.70 39.13673
1064.80 39.03658
1064.90 38.95723
1065.00 39.03006
1065.10 38.99566
1065.20 38.80267
1065.30 38.43359
1065.40 38.08036
1065.50 37.56383
1065.60 36.90543
1065.70 36.32743
1065.80 36.25037
1065.90 36.15605
1066.00 36.0758
1066.10 36.05926
1066.20 35.84848
1066.30 35.24838
1066.40 34.567
1066.50 34.04428
1066.60 34.32483
1066.70 34.49025
1066.80 34.66655
1066.90 34.80019
1067.00 34.93175
1067.10 35.02129
1067.20 35.03933
1067.30 35.17978
1067.40 35.91827
1067.50 36.5454
1067.60 37.12678
1067.70 37.5389
1067.80 37.98643
1067.90 38.33085
1068.00 38.57147
1068.10 38.83039
1068.20 39.04343
1068.30 38.96198
1068.40 38.90592
1068.50 38.97528
1068.60 39.11472
1068.70 39.15925
1068.80 39.16524
1068.90 39.16568
1069.00 39.06554
1069.10 38.93276
1069.20 38.86607
1069.30 38.91515
1069.40 38.82492
1069.50 38.55787
1069.60 38.09961
1069.70 37.83928
1069.80 37.82939
1069.90 37.71005
1070.00 37.62993
1070.10 37.68274
1070.20 37.70769
1070.30 37.63577
1070.40 37.28627
1070.50 37.06724
1070.60 37.17024
1070.70 37.38733
1070.80 37.52359
1070.90 37.43773
1071.00 37.60871
1071.10 37.70975
1071.20 37.59183
1071.30 37.62959
1071.40 38.00486
1071.50 38.67264
1071.60 39.19251
1071.70 39.10878
1071.80 39.11078
1071.90 39.07021
1072.00 39.03763
1072.10 38.94976
1072.20 38.83289
1072.30 38.74924
1072.40 38.5564
1072.50 37.97604
1072.60 37.28347
1072.70 36.70486
1072.80 36.94434
1072.90 37.04938
1073.00 37.22473
1073.10 37.56355
1073.20 37.74478
1073.30 37.51672
1073.40 37.3723
1073.50 37.26864
1073.60 37.42624
1073.70 37.49392
1073.80 37.7003
1073.90 38.17116
1074.00 38.68198
1074.10 39.19012
1074.20 39.61419
1074.30 39.88857
1074.40 39.68216
1074.50 39.58291
1074.60 39.47955
1074.70 39.43657
1074.80 39.27437
1074.90 39.12419
1075.00 39.14304
1075.10 39.22614
1075.20 38.90341
1075.30 38.5717
1075.40 38.25634
1075.50 37.91113
1075.60 37.71699
1075.70 37.90178
1075.80 38.41974
1075.90 38.84347
1076.00 38.99304
1076.10 39.22938
1076.20 39.34925
1076.30 39.23592
1076.40 39.20852
1076.50 39.24269
1076.60 39.39224
1076.70 39.57637
1076.80 39.74637
1076.90 39.76479
1077.00 39.75026
1077.10 39.70102
1077.20 39.69537
1077.30 39.61275
1077.40 39.44064
1077.50 39.24186
1077.60 38.80341
1077.70 38.25058
1077.80 37.80561
1077.90 38.15917
1078.00 38.46643
1078.10 38.78084
1078.20 39.07589
1078.30 39.3204
1078.40 39.42961
1078.50 39.31833
1078.60 39.15776
1078.70 38.85901
1078.80 38.73836
1078.90 38.55584
1079.00 38.09231
1079.10 37.60404
1079.20 37.21712
1079.30 36.92476
1079.40 36.63085
1079.50 36.66572
1079.60 36.71189
1079.70 36.91279
1079.80 37.28129
1079.90 37.57236
1080.00 37.83331
1080.10 38.10099
1080.20 38.37158
1080.30 38.519
1080.40 38.6013
1080.50 38.65505
1080.60 38.96551
1080.70 39.26355
1080.80 39.49461
1080.90 39.59447
1081.00 39.69541
1081.10 39.73471
1081.20 39.72552
1081.30 39.68392
1081.40 39.63284
1081.50 39.6562
1081.60 39.76611
1081.70 40.03357
1081.80 40.18331
1081.90 40.15646
1082.00 40.15457
1082.10 40.05996
1082.20 39.60495
1082.30 39.21111
1082.40 38.86206
1082.50 38.64604
1082.60 38.53051
1082.70 38.5268
1082.80 38.55215
1082.90 38.59093
1083.00 38.77524
1083.10 39.00179
1083.20 39.29008
1083.30 39.65754
1083.40 39.74143
1083.50 39.68158
1083.60 39.58568
1083.70 39.54029
1083.80 39.43756
1083.90 39.38
1084.00 39.41984
1084.10 39.54559
1084.20 39.57581
1084.30 39.55793
1084.40 39.47423
1084.50 39.25337
1084.60 38.73454
1084.70 38.32201
1084.80 37.99187
1084.90 38.22782
1085.00 38.39497
1085.10 38.70519
1085.20 39.23791
1085.30 39.43336
1085.40 39.12248
1085.50 38.78569
1085.60 38.68452
1085.70 39.21042
1085.80 39.5913
1085.90 39.98416
1086.00 40.34238
1086.10 40.59978
1086.20 40.80504
1086.30 41.04878
1086.40 41.23088
1086.50 40.96466
1086.60 40.81021
1086.70 40.61742
1086.80 40.32782
1086.90 40.06893
1087.00 40.17661
1087.10 40.54282
1087.20 40.87288
1087.30 40.78609
1087.40 40.73744
1087.50 40.52065
1087.60 39.78658
1087.70 39.27743
1087.80 39.20721
1087.90 39.5693
1088.00 39.82091
1088.10 39.69647
1088.20 39.66879
1088.30 39.59739
1088.40 39.42803
1088.50 39.30536
1088.60 39.37595
1088.70 39.83024
1088.80 40.16129
1088.90 40.01707
1089.00 39.78369
1089.10 39.60379
1089.20 39.61802
1089.30 39.45569
1089.40 39.25216
1089.50 39.0754
1089.60 39.1193
1089.70 39.4268
1089.80 39.72222
1089.90 40.03763
1090.00 40.51486
1090.10 40.97269
1090.20 41.27636
1090.30 41.26522
1090.40 41.33263
1090.50 41.28997
1090.60 41.1362
1090.70 40.8566
1090.80 40.45261
1090.90 40.18577
1091.00 39.88881
1091.10 39.37203
1091.20 38.95642
1091.30 38.95283
1091.40 39.22266
1091.50 39.58543
1091.60 40.25601
1091.70 40.82496
1091.80 41.27712
1091.90 41.35577
1092.00 41.38515
1092.10 41.22528
1092.20 40.87946
1092.30 40.60259
1092.40 40.62719
1092.50 40.72762
1092.60 40.82749
1092.70 40.67488
1092.80 40.50981
1092.90 40.36131
1093.00 40.29973
1093.10 40.26617
1093.20 40.20863
1093.30 40.11187
1093.40 39.9983
1093.50 39.84799
1093.60 39.59902
1093.70 39.32277
1093.80 39.05904
1093.90 39.15601
1094.00 39.7049
1094.10 40.34893
1094.20 40.88639
1094.30 40.86679
1094.40 40.80228
1094.50 40.49713
1094.60 39.73383
1094.70 39.24608
1094.80 39.12022
1094.90 39.06928
1095.00 39.14548
1095.10 39.60074
1095.20 40.17059
1095.30 40.74073
1095.40 41.29947
1095.50 41.61578
1095.60 41.59823
1095.70 41.4371
1095.80 41.34196
1095.90 41.25857
1096.00 41.03922
1096.10 40.9105
1096.20 40.96521
1096.30 41.00362
1096.40 41.02441
1096.50 41.06945
1096.60 41.05027
1096.70 40.74615
1096.80 40.36622
1096.90 39.8902
1097.00 39.10487
1097.10 38.52896
1097.20 38.15988
1097.30 37.9561
1097.40 37.87208
1097.50 38.16883
1097.60 38.69378
1097.70 39.20387
1097.80 39.57082
1097.90 39.82365
1098.00 40.05589
1098.10 40.40319
1098.20 40.77021
1098.30 40.66388
1098.40 40.22919
1098.50 39.70988
1098.60 39.4246
1098.70 39.27285
1098.80 39.215
1098.90 39.27044
1099.00 39.34104
1099.10 39.46978
1099.20 39.63879
1099.30 39.87436
1099.40 40.38208
1099.50 40.78371
1099.60 41.0323
1099.70 40.7734
1099.80 40.57562
1099.90 40.4185
1100.00 40.35404
1100.10 40.32598
1100.20 40.19471
1100.30 40.04601
1100.40 39.84249
1100.50 39.49543
1100.60 39.24785
1100.70 39.276
1100.80 39.56743
1100.90 39.83371
1101.00 39.98808
1101.10 40.16969
1101.20 40.32729
1101.30 40.47258
1101.40 40.59062
1101.50 40.72104
1101.60 40.96297
1101.70 41.04673
1101.80 40.695
1101.90 40.134
1102.00 39.48701
1102.10 39.04186
1102.20 38.59234
1102.30 38.14781
1102.40 37.60242
1102.50 37.50213
1102.60 38.11741
1102.70 38.87028
1102.80 39.54822
1102.90 39.88447
1103.00 40.1036
1103.10 40.05315
1103.20 39.72967
1103.30 39.4116
1103.40 38.75414
1103.50 37.91363
1103.60 37.28448
1103.70 37.3853
1103.80 37.46063
1103.90 37.72398
1104.00 38.17241
1104.10 38.32063
1104.20 38.44952
1104.30 38.78171
1104.40 39.19708
1104.50 39.38055
1104.60 39.39463
1104.70 39.42679
1104.80 39.29874
1104.90 39.00937
1105.00 38.7725
1105.10 38.84358
1105.20 38.85718
1105.30 38.2497
1105.40 37.47871
1105.50 36.78235
1105.60 36.62483
1105.70 36.56117
1105.80 36.75585
1105.90 37.3212
1106.00 37.69648
1106.10 37.76718
1106.20 37.83323
1106.30 37.87255
1106.40 37.90927
1106.50 37.95175
1106.60 37.96336
1106.70 37.92242
1106.80 37.68368
1106.90 37.22237
1107.00 36.7805
1107.10 36.48717
1107.20 36.5996
1107.30 36.61095
1107.40 36.81492
1107.50 37.47701
1107.60 37.86896
1107.70 37.88411
1107.80 37.64882
1107.90 37.54953
1108.00 37.71606
1108.10 37.96882
1108.20 38.31172
1108.30 38.83695
1108.40 39.19731
1108.50 39.48456
1108.60 39.76403
1108.70 39.98611
1108.80 39.78867
1108.90 39.64577
1109.00 39.48427
1109.10 39.16393
1109.20 38.89555
1109.30 38.92958
1109.40 39.32602
1109.50 39.7264
1109.60 40.03972
1109.70 40.26345
1109.80 40.4399
1109.90 40.31239
1110.00 40.19293
1110.10 39.8563
1110.20 39.1627
1110.30 38.40222
1110.40 37.66861
1110.50 37.01668
1110.60 36.50002
1110.70 36.88356
1110.80 37.08296
1110.90 37.23288
1111.00 37.2856
1111.10 37.24859
1111.20 37.08551
1111.30 36.83431
1111.40 36.61466
1111.50 36.75838
1111.60 36.94103
1111.70 37.17578
1111.80 37.43332
1111.90 37.57864
1112.00 37.50393
1112.10 37.33819
1112.20 37.21042
1112.30 37.17781
1112.40 37.19121
1112.50 37.34921
1112.60 37.78787
1112.70 38.12091
1112.80 38.54247
1112.90 39.06826
1113.00 39.54445
1113.10 39.64536
1113.20 39.80777
1113.30 39.92559
1113.40 39.95288
1113.50 39.91311
1113.60 39.52456
1113.70 38.72724
1113.80 37.93907
1113.90 37.78939
1114.00 37.67775
1114.10 37.6899
1114.20 38.09551
1114.30 38.60438
1114.40 39.25099
1114.50 40.06987
1114.60 40.76047
1114.70 40.71135
1114.80 40.58869
1114.90 40.40495
1115.00 39.8507
1115.10 39.2379
1115.20 38.98494
1115.30 39.41378
1115.40 39.6575
1115.50 39.60065
1115.60 39.48874
1115.70 39.39303
1115.80 39.34836
1115.90 39.50191
1116.00 39.67537
1116.10 39.74018
1116.20 39.74171
1116.30 39.82887
1116.40 39.91034
1116.50 39.92801
1116.60 39.91405
1116.70 39.79711
1116.80 39.57443
1116.90 39.05062
1117.00 38.63274
1117.10 38.17105
1117.20 37.6849
1117.30 37.21393
1117.40 36.93359
1117.50 36.55033
1117.60 36.23367
1117.70 36.38983
1117.80 36.69277
1117.90 37.17324
1118.00 37.8152
1118.10 38.38918
1118.20 38.82068
1118.30 39.08747
1118.40 39.35602
1118.50 39.76993
1118.60 40.35631
1118.70 40.61029
1118.80 40.37732
1118.90 40.12151
1119.00 39.7454
1119.10 39.37541
1119.20 39.02063
1119.30 38.62843
1119.40 38.32244
1119.50 38.06978
1119.60 38.10121
1119.70 38.1921
1119.80 38.31432
1119.90 38.42704
1120.00 38.48646
1120.10 38.52214
1120.20 38.4576
1120.30 38.21682
1120.40 37.99994
1120.50 38.12038
1120.60 38.75895
1120.70 39.33332
1120.80 39.81346
1120.90 39.70945
1121.00 39.64291
1121.10 39.55316
1121.20 39.47184
1121.30 39.20863
1121.40 38.9738
1121.50 38.79841
1121.60 38.89022
1121.70 38.99563
1121.80 39.03459
1121.90 38.92258
1122.00 38.80343
1122.10 38.8167
1122.20 38.84257
1122.30 38.74265
1122.40 38.68988
1122.50 39.07447
1122.60 39.26189
1122.70 39.46104
1122.80 39.60907
1122.90 39.97011
1123.00 40.34894
1123.10 40.50695
1123.20 40.27173
1123.30 40.23535
1123.40 40.11817
1123.50 39.71772
1123.60 38.84931
1123.70 38.25665
1123.80 38.27229
1123.90 38.68539
1124.00 39.04975
1124.10 39.36167
1124.20 39.67175
1124.30 39.99765
1124.40 40.299
1124.50 40.42939
1124.60 40.52497
1124.70 40.56713
1124.80 40.20775
1124.90 40.16832
1125.00 40.04404
1125.10 39.66416
1125.20 38.53836
1125.30 37.458
1125.40 37.03838
1125.50 37.70614
1125.60 38.4327
1125.70 39.14511
1125.80 39.38019
1125.90 39.8029
1126.00 40.16068
1126.10 40.17072
1126.20 40.01133
1126.30 39.86982
1126.40 39.84034
1126.50 39.84686
1126.60 39.86967
1126.70 39.94035
1126.80 40.16438
1126.90 40.41319
1127.00 40.63741
1127.10 40.70571
1127.20 40.71002
1127.30 40.66269
1127.40 40.66671
1127.50 40.73327
1127.60 40.80663
1127.70 40.69237
1127.80 40.34323
1127.90 40.04999
1128.00 39.83322
1128.10 39.82372
1128.20 39.81669
1128.30 39.82576
1128.40 40.04683
1128.50 40.24372
1128.60 40.45163
1128.70 40.39642
1128.80 40.38752
1128.90 40.32871
1129.00 40.24101
1129.10 40.15602
1129.20 40.04799
1129.30 40.05666
1129.40 40.23143
1129.50 40.39872
1129.60 40.61614
1129.70 40.76688
1129.80 40.84412
1129.90 40.91486
1130.00 40.68371
1130.10 40.67971
1130.20 40.46241
1130.30 40.06745
1130.40 39.579
1130.50 39.13174
1130.60 38.7544
1130.70 38.48124
1130.80 38.23656
1130.90 38.1044
1131.00 38.25618
1131.10 38.28743
1131.20 38.33584
1131.30 38.5356
1131.40 38.7908
1131.50 39.01078
1131.60 39.1948
1131.70 39.36738
1131.80 39.5137
1131.90 39.61068
1132.00 39.59953
1132.10 39.6182
1132.20 39.62115
1132.30 39.59808
1132.40 39.54694
1132.50 39.51559
1132.60 39.39545
1132.70 39.30299
1132.80 39.21536
1132.90 39.17785
1133.00 39.2101
1133.10 39.21177
1133.20 39.16819
1133.30 39.05669
1133.40 38.97306
1133.50 38.90122
1133.60 38.61899
1133.70 38.39681
1133.80 38.17256
1133.90 37.81528
1134.00 37.40803
1134.10 36.99277
1134.20 36.73944
1134.30 36.37807
1134.40 35.96562
1134.50 35.73047
1134.60 35.84387
1134.70 36.04208
1134.80 36.333
1134.90 37.48523
1135.00 38.68094
1135.10 39.72281
1135.20 39.56547
1135.30 39.31264
1135.40 39.00178
1135.50 38.5917
1135.60 38.28065
1135.70 38.04469
1135.80 37.93888
1135.90 37.72614
1136.00 37.27043
1136.10 36.88251
1136.20 37.08658
1136.30 37.46307
1136.40 37.71423
1136.50 37.47137
1136.60 37.27774
1136.70 37.06308
1136.80 36.73738
1136.90 36.27504
1137.00 35.82737
1137.10 35.45833
1137.20 35.31471
1137.30 35.14648
1137.40 34.93449
1137.50 34.43098
1137.60 33.82505
1137.70 33.05009
1137.80 31.89216
1137.90 31.09469
1138.00 30.03903
1138.10 28.72867
1138.20 27.14432
1138.30 25.95656
1138.40 25.41436
1138.50 25.74337
1138.60 25.83698
1138.70 26.39062
1138.80 28.01402
1138.90 29.53581
1139.00 30.74095
1139.10 31.50777
1139.20 32.42492
1139.30 33.05531
1139.40 33.21817
1139.50 33.17561
1139.60 33.10129
1139.70 32.88194
1139.80 32.21428
1139.90 31.45085
1140.00 30.52629
1140.10 29.04579
1140.20 27.86189
1140.30 26.43997
1140.40 24.79768
1140.50 23.01095
1140.60 21.83768
1140.70 21.82048
1140.80 22.2357
1140.90 22.8816
1141.00 24.01353
1141.10 26.11247
1141.20 28.04644
1141.30 29.78301
1141.40 31.03828
1141.50 32.25365
1141.60 33.28921
1141.70 33.86393
1141.80 34.66025
1141.90 35.31386
1142.00 35.84446
1142.10 36.28009
1142.20 36.68177
1142.30 36.95895
1142.40 36.86452
1142.50 36.83817
1142.60 36.84573
1142.70 37.08007
1142.80 37.24928
1142.90 37.40184
1143.00 37.45638
1143.10 37.62586
1143.20 37.75437
1143.30 37.85713
1143.40 37.87845
1143.50 37.87444
1143.60 37.8741
1143.70 37.96269
1143.80 38.03724
1143.90 38.03378
1144.00 38.02461
1144.10 37.89027
1144.20 37.86958
1144.30 37.86357
1144.40 37.94384
1144.50 38.02795
1144.60 37.99673
1144.70 37.9281
1144.80 37.88918
1144.90 37.92548
1145.00 38.14871
1145.10 38.32241
1145.20 38.48187
1145.30 38.4644
1145.40 38.53542
1145.50 38.59541
1145.60 38.58505
1145.70 38.52902
1145.80 38.48142
1145.90 38.59883
1146.00 38.84724
1146.10 39.08205
1146.20 39.30345
1146.30 39.37079
1146.40 39.4632
1146.50 39.55894
1146.60 39.79152
1146.70 39.93765
1146.80 39.99861
1146.90 39.91845
1147.00 40.04994
1147.10 40.13488
1147.20 40.14325
1147.30 39.90131
1147.40 39.68717
1147.50 39.52406
1147.60 39.38266
1147.70 39.22362
1147.80 39.0691
1147.90 39.07014
1148.00 39.16415
1148.10 39.22985
1148.20 39.32875
1148.30 39.52332
1148.40 39.61401
1148.50 39.68169
1148.60 39.61021
1148.70 39.60321
1148.80 39.71151
1148.90 40.00211
1149.00 40.22994
1149.10 40.43471
1149.20 40.2052
1149.30 40.24114
1149.40 40.20838
1149.50 40.26778
1149.60 40.09362
1149.70 39.99926
1149.80 39.95971
1149.90 39.94815
1150.00 39.87675
1150.10 39.70409
1150.20 39.49474
1150.30 39.39318
1150.40 39.30142
1150.50 39.45535
1150.60 39.48658
1150.70 39.55972
1150.80 39.76114
1150.90 39.96369
1151.00 40.12892
1151.10 40.13827
1151.20 40.04048
1151.30 39.95399
1151.40 39.82321
1151.50 39.67203
1151.60 39.59207
1151.70 39.52047
1151.80 39.48703
1151.90 39.32122
1152.00 39.16468
1152.10 39.16379
1152.20 39.39495
1152.30 39.52133
1152.40 39.3947
1152.50 38.9213
1152.60 38.48005
1152.70 38.18903
1152.80 38.25226
1152.90 38.23647
1153.00 38.22078
1153.10 38.23405
1153.20 38.37468
1153.30 38.5098
1153.40 38.57935
1153.50 38.57248
1153.60 38.62418
1153.70 38.80962
1153.80 39.04552
1153.90 39.24036
1154.00 39.43002
1154.10 39.60898
1154.20 39.76048
1154.30 39.86756
1154.40 39.59568
1154.50 39.4582
1154.60 39.25334
1154.70 38.955
1154.80 38.6878
1154.90 38.52984
1155.00 38.58375
1155.10 38.73686
1155.20 38.89168
1155.30 39.0257
1155.40 39.04764
1155.50 39.06372
1155.60 39.09096
1155.70 39.26605
1155.80 39.35972
1155.90 39.41389
1156.00 39.33929
1156.10 39.43819
1156.20 39.54307
1156.30 39.61516
1156.40 39.55843
1156.50 39.4774
1156.60 39.4269
1156.70 39.47218
1156.80 39.53989
1156.90 39.52553
1157.00 39.20038
1157.10 38.94163
1157.20 38.73872
1157.30 38.86559
1157.40 38.96114
1157.50 39.06073
1157.60 39.08513
1157.70 39.03568
1157.80 38.99062
1157.90 38.97328
1158.00 39.01459
1158.10 39.03849
1158.20 39.06291
1158.30 39.12457
1158.40 39.25216
1158.50 39.36137
1158.60 39.24596
1158.70 39.09887
1158.80 38.91673
1158.90 38.69906
1159.00 38.45455
1159.10 38.13619
1159.20 37.75013
1159.30 37.33122
1159.40 37.00385
1159.50 36.70857
1159.60 36.54457
1159.70 36.29516
1159.80 36.20054
1159.90 36.61178
1160.00 36.92394
1160.10 37.25203
1160.20 37.55204
1160.30 37.82753
1160.40 38.00966
1160.50 38.03799
1160.60 37.90255
1160.70 37.74857
1160.80 37.44172
1160.90 36.76895
1161.00 36.27188
1161.10 35.99197
1161.20 36.46054
1161.30 36.63504
1161.40 36.99903
1161.50 37.62699
1161.60 38.46449
1161.70 39.13693
1161.80 39.34834
1161.90 39.05109
1162.00 38.83318
1162.10 38.59106
1162.20 38.51798
1162.30 38.40651
1162.40 38.35018
1162.50 38.54834
1162.60 38.65799
1162.70 38.79903
1162.80 38.92003
1162.90 39.00757
1163.00 39.07789
1163.10 39.13813
1163.20 39.22306
1163.30 39.3258
1163.40 39.31365
1163.50 38.97468
1163.60 38.73704
1163.70 38.3829
1163.80 37.68083
1163.90 36.96707
1164.00 36.37702
1164.10 36.34847
1164.20 36.32548
1164.30 36.49021
1164.40 36.91444
1164.50 37.64038
1164.60 38.23029
1164.70 38.65195
1164.80 38.65891
1164.90 38.73175
1165.00 38.74969
1165.10 38.4983
1165.20 38.34331
1165.30 38.16193
1165.40 37.91313
1165.50 37.63772
1165.60 37.41804
1165.70 37.36403
1165.80 37.44953
1165.90 37.45998
1166.00 37.55171
1166.10 37.8639
1166.20 38.17204
1166.30 38.46792
1166.40 38.52761
1166.50 38.73361
1166.60 38.90959
1166.70 38.91304
1166.80 38.87051
1166.90 38.75958
1167.00 38.55888
1167.10 38.26703
1167.20 37.98836
1167.30 37.7616
1167.40 37.69449
1167.50 37.64063
1167.60 37.5944
1167.70 37.55746
1167.80 37.53257
1167.90 37.53494
1168.00 37.49104
1168.10 37.44694
1168.20 37.33655
1168.30 37.03689
1168.40 36.60764
1168.50 36.13013
1168.60 35.48801
1168.70 34.4342
1168.80 33.39147
1168.90 32.06107
1169.00 29.56203
1169.10 27.358
1169.20 25.51556
1169.30 25.31867
1169.40 24.61832
1169.50 24.60455
1169.60 25.9159
1169.70 28.17699
1169.80 30.13637
1169.90 31.82437
1170.00 33.08477
1170.10 34.41313
1170.20 35.59855
1170.30 36.19244
1170.40 36.96379
1170.50 37.64548
1170.60 37.83829
1170.70 38.0054
1170.80 38.12507
1170.90 38.12234
1171.00 38.07929
1171.10 38.07921
1171.20 38.10331
1171.30 38.11125
1171.40 38.06185
1171.50 38.01157
1171.60 38.02134
1171.70 38.12569
1171.80 38.18897
1171.90 38.02041
1172.00 37.74301
1172.10 37.50342
1172.20 37.43193
1172.30 37.45497
1172.40 37.48253
1172.50 37.54777
1172.60 37.69456
1172.70 37.85758
1172.80 38.03966
1172.90 38.16899
1173.00 38.25892
1173.10 38.32366
1173.20 38.25329
1173.30 38.29675
1173.40 38.2611
1173.50 38.11657
1173.60 37.90377
1173.70 37.71402
1173.80 37.66593
1173.90 37.74621
1174.00 37.77442
1174.10 37.84404
1174.20 38.06433
1174.30 38.28197
1174.40 38.51307
1174.50 38.52565
1174.60 38.53423
1174.70 38.47386
1174.80 38.33231
1174.90 38.20453
1175.00 38.06599
1175.10 37.82459
1175.20 37.42526
1175.30 37.05165
1175.40 36.71874
1175.50 36.64332
1175.60 36.53619
1175.70 36.47673
1175.80 36.51754
1175.90 36.69717
1176.00 36.80181
1176.10 36.66027
1176.20 36.45885
1176.30 36.24957
1176.40 35.98452
1176.50 35.62131
1176.60 35.10924
1176.70 34.32851
1176.80 32.95113
1176.90 31.72601
1177.00 30.20968
1177.10 27.60858
1177.20 25.10099
1177.30 22.88992
1177.40 21.67299
1177.50 20.2724
1177.60 19.61
1177.70 20.25496
1177.80 22.35124
1177.90 24.1538
1178.00 26.01431
1178.10 27.9716
1178.20 29.89771
1178.30 31.54808
1178.40 32.28122
1178.50 33.22458
1178.60 34.09341
1178.70 34.67964
1178.80 35.26058
1178.90 35.83403
1179.00 36.24454
1179.10 36.50109
1179.20 36.72277
1179.30 36.85945
1179.40 36.82721
1179.50 36.83514
1179.60 36.82683
1179.70 36.91073
1179.80 36.99493
1179.90 37.11092
1180.00 37.1412
1180.10 37.06351
1180.20 37.01617
1180.30 37.12176
1180.40 37.39761
1180.50 37.6412
1180.60 37.76569
1180.70 37.70146
1180.80 37.71945
1180.90 37.72663
1181.00 37.69072
1181.10 37.63505
1181.20 37.58286
1181.30 37.52255
1181.40 37.44288
1181.50 37.3582
1181.60 37.34591
1181.70 37.32913
1181.80 37.31818
1181.90 37.36549
1182.00 37.54155
1182.10 37.7117
1182.20 37.86835
1182.30 37.8376
1182.40 37.84915
1182.50 37.76345
1182.60 37.36554
1182.70 37.00064
1182.80 36.58423
1182.90 36.24059
1183.00 35.87467
1183.10 35.63812
1183.20 35.60452
1183.30 35.87293
1183.40 36.09248
1183.50 36.28559
1183.60 36.32634
1183.70 36.47794
1183.80 36.58454
1183.90 36.65379
1184.00 36.54752
1184.10 36.57834
1184.20 36.97694
1184.30 37.54208
1184.40 37.9895
1184.50 38.15165
1184.60 37.95156
1184.70 37.82935
1184.80 37.62427
1184.90 37.16999
1185.00 36.76987
1185.10 36.43505
1185.20 36.40591
1185.30 36.33071
1185.40 36.34447
1185.50 36.59629
1185.60 36.88293
1185.70 37.09624
1185.80 37.25354
1185.90 37.35751
1186.00 37.50133
1186.10 37.62734
1186.20 37.62631
1186.30 37.56451
1186.40 37.48372
1186.50 37.43552
1186.60 37.50178
1186.70 37.52205
1186.80 37.3093
1186.90 37.03742
1187.00 36.82891
1187.10 36.7556
1187.20 36.78045
1187.30 36.77968
1187.40 36.87635
1187.50 37.23178
1187.60 37.52071
1187.70 37.76598
1187.80 37.48647
1187.90 37.30927
1188.00 36.9857
1188.10 36.27648
1188.20 35.62495
1188.30 34.83415
1188.40 33.81254
1188.50 32.61014
1188.60 31.73104
1188.70 31.55802
1188.80 32.44767
1188.90 33.03597
1189.00 33.75853
1189.10 34.74281
1189.20 35.76327
1189.30 36.5161
1189.40 36.53527
1189.50 36.4886
1189.60 36.46526
1189.70 36.5356
1189.80 36.75032
1189.90 36.98521
1190.00 37.17887
1190.10 37.30324
1190.20 37.45555
1190.30 37.53662
1190.40 37.31828
1190.50 37.09803
1190.60 36.86316
1190.70 36.74278
1190.80 36.59482
1190.90 36.56549
1191.00 36.72828
1191.10 36.91397
1191.20 37.03051
1191.30 37.11936
1191.40 37.22327
1191.50 37.36867
1191.60 37.49336
1191.70 37.55024
1191.80 37.63415
1191.90 37.72788
1192.00 37.78215
1192.10 37.75155
1192.20 37.68366
1192.30 37.52083
1192.40 37.36851
1192.50 37.23839
1192.60 37.16221
1192.70 37.15488
1192.80 37.1494
1192.90 37.1848
1193.00 37.28225
1193.10 37.34807
1193.20 37.39648
1193.30 37.38941
1193.40 37.41842
1193.50 37.36914
1193.60 37.02345
1193.70 36.66389
1193.80 36.32197
1193.90 36.00181
1194.00 35.69312
1194.10 35.398
1194.20 35.22759
1194.30 35.35833
1194.40 35.38521
1194.50 35.39123
1194.60 35.265
1194.70 35.29237
1194.80 35.2243
1194.90 34.83309
1195.00 34.31943
1195.10 33.95023
1195.20 33.98872
1195.30 34.27724
1195.40 34.50594
1195.50 34.85643
1195.60 35.3631
1195.70 35.82403
1195.80 36.16731
1195.90 35.73815
1196.00 35.54221
1196.10 35.3231
1196.20 35.10601
1196.30 34.85864
1196.40 34.66027
1196.50 34.59842
1196.60 34.64228
1196.70 34.67815
1196.80 34.70505
1196.90 34.71013
1197.00 34.61431
1197.10 34.30224
1197.20 33.33948
1197.30 32.59713
1197.40 31.82257
1197.50 31.04892
1197.60 30.05325
1197.70 29.53331
1197.80 29.8168
1197.90 30.45961
1198.00 30.98742
1198.10 31.49447
1198.20 32.01036
1198.30 32.55962
1198.40 33.08797
1198.50 33.65825
1198.60 34.10286
1198.70 34.48042
1198.80 34.32311
1198.90 34.40962
1199.00 34.31249
1199.10 33.90428
1199.20 33.38156
1199.30 32.95925
1199.40 32.75629
1199.50 32.78049
1199.60 32.74123
1199.70 32.78763
1199.80 33.03396
1199.90 33.22208
1200.00 33.37642
