# Version 2.1 - nm, norm@500 to 1, cut digits
# Wavelength(nm)  Flambda(ergs/cm^s/s/nm)
300.00 0.007395266
300.10 0.009801012
300.20 0.01127974
300.30 0.01190874
300.40 0.01209082
300.50 0.01215471
300.60 0.01221178
300.70 0.01226449
300.80 0.01231665
300.90 0.01237339
301.00 0.01243976
301.10 0.01251799
301.20 0.01260631
301.30 0.01270075
301.40 0.01279767
301.50 0.01289517
301.60 0.01299274
301.70 0.01309036
301.80 0.01318799
301.90 0.01328564
302.00 0.01338329
302.10 0.01348093
302.20 0.01357858
302.30 0.01367624
302.40 0.01377391
302.50 0.01387161
302.60 0.01396937
302.70 0.01406757
302.80 0.01416765
302.90 0.01427238
303.00 0.01438477
303.10 0.01450616
303.20 0.01463522
303.30 0.01476892
303.40 0.01490451
303.50 0.01504054
303.60 0.01517662
303.70 0.01531273
303.80 0.01544886
303.90 0.015585
304.00 0.01572114
304.10 0.01585728
304.20 0.01599341
304.30 0.01612952
304.40 0.01626559
304.50 0.01640155
304.60 0.01653735
304.70 0.01667181
304.80 0.0168005
304.90 0.01691498
305.00 0.01700602
305.10 0.01706953
305.20 0.0171096
305.30 0.01713546
305.40 0.01715555
305.50 0.0171743
305.60 0.01719289
305.70 0.01721138
305.80 0.01722981
305.90 0.01724823
306.00 0.01726664
306.10 0.01728506
306.20 0.01730347
306.30 0.01732188
306.40 0.01734029
306.50 0.01735871
306.60 0.01737712
306.70 0.01739554
306.80 0.01741396
306.90 0.01743242
307.00 0.01745093
307.10 0.0174695
307.20 0.01748812
307.30 0.01750678
307.40 0.01752544
307.50 0.01754411
307.60 0.01756278
307.70 0.01758144
307.80 0.01760011
307.90 0.01761878
308.00 0.01763745
308.10 0.01765612
308.20 0.0176748
308.30 0.01769352
308.40 0.01771238
308.50 0.01773148
308.60 0.017751
308.70 0.01777388
308.80 0.01781119
308.90 0.01788405
309.00 0.01801558
309.10 0.01821602
309.20 0.01847513
309.30 0.0187698
309.40 0.0190789
309.50 0.01939135
309.60 0.01970422
309.70 0.02001734
309.80 0.02033058
309.90 0.02064388
310.00 0.02095718
310.10 0.02127049
310.20 0.02158378
310.30 0.02189703
310.40 0.02221015
310.50 0.02252302
310.60 0.02283546
310.70 0.02314454
310.80 0.02343911
310.90 0.02369793
311.00 0.02389778
311.10 0.02402835
311.20 0.02409995
311.30 0.02413581
311.40 0.02415715
311.50 0.02417512
311.60 0.02419267
311.70 0.02420998
311.80 0.02422715
311.90 0.02424428
312.00 0.0242614
312.10 0.02427851
312.20 0.02429564
312.30 0.02431284
312.40 0.02433018
312.50 0.02434784
312.60 0.02436601
312.70 0.02438835
312.80 0.02442861
312.90 0.02451302
313.00 0.02467025
313.10 0.02491306
313.20 0.0252287
313.30 0.02558848
313.40 0.02596618
313.50 0.02634805
313.60 0.02673044
313.70 0.02711313
313.80 0.02749598
313.90 0.02787889
314.00 0.02826182
314.10 0.02864475
314.20 0.02902768
314.30 0.02941066
314.40 0.02979375
314.50 0.03017705
314.60 0.03056071
314.70 0.03094727
314.80 0.03134631
314.90 0.03177608
315.00 0.03225654
315.10 0.03279657
315.20 0.0333873
315.30 0.03400875
315.40 0.03464268
315.50 0.03527951
315.60 0.0359167
315.70 0.0365541
315.80 0.03719162
315.90 0.03782917
316.00 0.03846674
316.10 0.0391043
316.20 0.03974183
316.30 0.0403792
316.40 0.04101618
316.50 0.04165237
316.60 0.04228722
316.70 0.04291143
316.80 0.04348977
316.90 0.04395516
317.00 0.04423419
317.10 0.04429428
317.20 0.04416801
317.30 0.04392879
317.40 0.04364371
317.50 0.04334798
317.60 0.04305091
317.70 0.04275306
317.80 0.04245481
317.90 0.0421564
318.00 0.04185796
318.10 0.04155951
318.20 0.0412611
318.30 0.0409628
318.40 0.04066481
318.50 0.04036742
318.60 0.04007106
318.70 0.03978284
318.80 0.03952973
318.90 0.03936308
319.00 0.0393391
319.10 0.0394827
319.20 0.03976897
319.30 0.04014169
319.40 0.04054953
319.50 0.04096551
319.60 0.04138252
319.70 0.04180013
319.80 0.04221804
319.90 0.04263608
320.00 0.04305414
320.10 0.0434722
320.20 0.04389025
320.30 0.04430826
320.40 0.04472615
320.50 0.04514382
320.60 0.04556111
320.70 0.04597539
320.80 0.04637669
320.90 0.046746
321.00 0.04706256
321.10 0.04731713
321.20 0.04751893
321.30 0.04768876
321.40 0.04784561
321.50 0.04799944
321.60 0.04815289
321.70 0.04830612
321.80 0.04845923
321.90 0.04861231
322.00 0.04876537
322.10 0.04891843
322.20 0.04907153
322.30 0.04922479
322.40 0.04937846
322.50 0.04953295
322.60 0.04968882
322.70 0.04985569
322.80 0.05007
322.90 0.05040111
323.00 0.05092494
323.10 0.05167519
323.20 0.05261815
323.30 0.05367792
323.40 0.05478512
323.50 0.05590333
323.60 0.05702292
323.70 0.05814332
323.80 0.05926414
323.90 0.06038511
324.00 0.06150613
324.10 0.06262714
324.20 0.06374815
324.30 0.06486913
324.40 0.06599005
324.50 0.06711083
324.60 0.06823139
324.70 0.06935016
324.80 0.07046122
324.90 0.07155332
325.00 0.0726141
325.10 0.07363811
325.20 0.07463081
325.30 0.07560454
325.40 0.07657056
325.50 0.0775348
325.60 0.07849881
325.70 0.07946269
325.80 0.0804265
325.90 0.08139028
326.00 0.08235406
326.10 0.08331784
326.20 0.08428164
326.30 0.08524549
326.40 0.08620948
326.50 0.08717376
326.60 0.08813852
326.70 0.08910713
326.80 0.09009236
326.90 0.09111847
327.00 0.09221206
327.10 0.09338492
327.20 0.09462526
327.30 0.09590648
327.40 0.09720432
327.50 0.09850601
327.60 0.09980818
327.70 0.1011106
327.80 0.1024132
327.90 0.1037159
328.00 0.1050186
328.10 0.1063212
328.20 0.1076238
328.30 0.1089261
328.40 0.1102275
328.50 0.1115272
328.60 0.1128242
328.70 0.1140985
328.80 0.1152753
328.90 0.1162122
329.00 0.1167532
329.10 0.1168292
329.20 0.1165092
329.30 0.1159493
329.40 0.1152919
329.50 0.114612
329.60 0.1139291
329.70 0.1132447
329.80 0.1125594
329.90 0.1118737
330.00 0.111188
330.10 0.1105022
330.20 0.1098166
330.30 0.1091311
330.40 0.1084463
330.50 0.1077628
330.60 0.1070813
330.70 0.1064167
330.80 0.1058243
330.90 0.1054098
331.00 0.1052891
331.10 0.1055134
331.20 0.1060314
331.30 0.1067273
331.40 0.1074955
331.50 0.1082805
331.60 0.1090676
331.70 0.109856
331.80 0.110645
331.90 0.1114342
332.00 0.1122235
332.10 0.1130128
332.20 0.113802
332.30 0.1145911
332.40 0.1153798
332.50 0.1161677
332.60 0.1169543
332.70 0.1177302
332.80 0.1184604
332.90 0.1190779
333.00 0.1195095
333.10 0.1197226
333.20 0.1197497
333.30 0.1196642
333.40 0.1195329
333.50 0.119391
333.60 0.1192478
333.70 0.1191038
333.80 0.1189593
333.90 0.1188148
334.00 0.1186702
334.10 0.118526
334.20 0.1183832
334.30 0.118242
334.40 0.1181027
334.50 0.1179647
334.60 0.1179442
334.70 0.1183049
334.80 0.1191515
334.90 0.1200227
335.00 0.1200364
335.10 0.1189555
335.20 0.1181813
335.30 0.1203247
335.40 0.1271908
335.50 0.1377286
335.60 0.1479251
335.70 0.1531324
335.80 0.1510604
335.90 0.1429085
336.00 0.1320886
336.10 0.1221195
336.20 0.1154627
336.30 0.1131597
336.40 0.1143945
336.50 0.1165959
336.60 0.1169828
336.70 0.1148738
336.80 0.112552
336.90 0.1134707
337.00 0.1192887
337.10 0.1282444
337.20 0.1361585
337.30 0.1393026
337.40 0.1370134
337.50 0.1321051
337.60 0.128717
337.70 0.1292433
337.80 0.1329268
337.90 0.1372471
338.00 0.1402737
338.10 0.1414716
338.20 0.1405605
338.30 0.13663
338.40 0.1293792
338.50 0.1209443
338.60 0.1155661
338.70 0.116549
338.80 0.1231842
338.90 0.1309769
339.00 0.1352588
339.10 0.1350087
339.20 0.1334783
339.30 0.1349877
339.40 0.1409399
339.50 0.1489068
339.60 0.1552462
339.70 0.1581548
339.80 0.1581283
339.90 0.156164
340.00 0.1526601
340.10 0.1480321
340.20 0.1432393
340.30 0.1390141
340.40 0.1348805
340.50 0.1296633
340.60 0.1230882
340.70 0.116442
340.80 0.1115616
340.90 0.1094929
341.00 0.1101685
341.10 0.1129503
341.20 0.1170993
341.30 0.1217462
341.40 0.125868
341.50 0.1286809
341.60 0.1301002
341.70 0.1307749
341.80 0.1315895
341.90 0.1330077
342.00 0.1346586
342.10 0.1354102
342.20 0.1340597
342.30 0.1303476
342.40 0.1255036
342.50 0.1216266
342.60 0.1202778
342.70 0.1215102
342.80 0.1240704
342.90 0.1263886
343.00 0.127544
343.10 0.1276776
343.20 0.1276515
343.30 0.1282071
343.40 0.1293159
343.50 0.1303329
343.60 0.1306781
343.70 0.1301932
343.80 0.1290033
343.90 0.1274009
344.00 0.1259199
344.10 0.1251771
344.20 0.1253348
344.30 0.1258305
344.40 0.1258725
344.50 0.1252001
344.60 0.1242977
344.70 0.1239725
344.80 0.1248409
344.90 0.1271196
345.00 0.1306902
345.10 0.1351861
345.20 0.1400128
345.30 0.1443495
345.40 0.147282
345.50 0.1482398
345.60 0.1474696
345.70 0.1459933
345.80 0.144909
345.90 0.1446241
346.00 0.1446733
346.10 0.144129
346.20 0.1422505
346.30 0.1390696
346.40 0.1355782
346.50 0.1331523
346.60 0.1324592
346.70 0.132879
346.80 0.133081
346.90 0.1321083
347.00 0.1298717
347.10 0.1269668
347.20 0.1243804
347.30 0.1232121
347.40 0.1241616
347.50 0.126978
347.60 0.1305772
347.70 0.1338735
347.80 0.1365034
347.90 0.138816
348.00 0.1413119
348.10 0.1440766
348.20 0.1465977
348.30 0.1481012
348.40 0.1481772
348.50 0.1471379
348.60 0.1456968
348.70 0.1443195
348.80 0.1430066
348.90 0.1416138
349.00 0.1401528
349.10 0.1387536
349.20 0.1375316
349.30 0.1366512
349.40 0.1364048
349.50 0.1369793
349.60 0.1380924
349.70 0.1390352
349.80 0.1393008
349.90 0.1392987
350.00 0.1403048
350.10 0.1434548
350.20 0.1486521
350.30 0.1544538
350.40 0.1590504
350.50 0.161405
350.60 0.1615933
350.70 0.1603234
350.80 0.1583301
350.90 0.1560273
351.00 0.1533474
351.10 0.1497745
351.20 0.1447533
351.30 0.1384145
351.40 0.13197
351.50 0.1271344
351.60 0.124914
351.70 0.1249007
351.80 0.1257481
351.90 0.1262937
352.00 0.126209
352.10 0.1257281
352.20 0.1251259
352.30 0.1246426
352.40 0.1247907
352.50 0.1265049
352.60 0.1306284
352.70 0.1370392
352.80 0.1443175
352.90 0.1505355
353.00 0.154673
353.10 0.1572655
353.20 0.1595763
353.30 0.1623075
353.40 0.1652908
353.50 0.168185
353.60 0.1710608
353.70 0.1741819
353.80 0.1775407
353.90 0.180842
354.00 0.1837008
354.10 0.18562
354.20 0.1860031
354.30 0.1846142
354.40 0.1820925
354.50 0.1797352
354.60 0.1785313
354.70 0.178435
354.80 0.1786375
354.90 0.1784183
355.00 0.1776424
355.10 0.1765987
355.20 0.1755945
355.30 0.174771
355.40 0.1741957
355.50 0.1738964
355.60 0.1737021
355.70 0.1731379
355.80 0.1716451
355.90 0.1690447
356.00 0.1657493
356.10 0.1624273
356.20 0.1594318
356.30 0.1565198
356.40 0.1531233
356.50 0.1489715
356.60 0.1445431
356.70 0.1408967
356.80 0.138934
356.90 0.1387349
357.00 0.1395639
357.10 0.140437
357.20 0.1406345
357.30 0.1398466
357.40 0.1380864
357.50 0.1355937
357.60 0.1327657
357.70 0.1300179
357.80 0.1276166
357.90 0.125619
358.00 0.1240162
358.10 0.1229837
358.20 0.122947
358.30 0.1243032
358.40 0.1270205
358.50 0.1304948
358.60 0.1337827
358.70 0.1360042
358.80 0.1367082
358.90 0.1360894
359.00 0.1350015
359.10 0.1346366
359.20 0.1358687
359.30 0.138645
359.40 0.1419155
359.50 0.1442897
359.60 0.1449781
359.70 0.1442804
359.80 0.1432427
359.90 0.1427714
360.00 0.1429124
360.10 0.1428534
360.20 0.1416195
360.30 0.1388595
360.40 0.1351461
360.50 0.131693
360.60 0.1297941
360.70 0.1303103
360.80 0.1332814
360.90 0.1378365
361.00 0.1426203
361.10 0.1465623
361.20 0.1493814
361.30 0.1513792
361.40 0.1528188
361.50 0.1536426
361.60 0.1538381
361.70 0.1538367
361.80 0.154279
361.90 0.1553674
362.00 0.1566258
362.10 0.1573999
362.20 0.1574593
362.30 0.1570631
362.40 0.156646
362.50 0.1565712
362.60 0.1569591
362.70 0.1574796
362.80 0.1574109
362.90 0.1562146
363.00 0.1541651
363.10 0.1522682
363.20 0.1514524
363.30 0.1518782
363.40 0.1530042
363.50 0.1541535
363.60 0.1549484
363.70 0.1553472
363.80 0.1554214
363.90 0.1551369
364.00 0.1543
364.10 0.1526919
364.20 0.1502916
364.30 0.1473997
364.40 0.1445746
364.50 0.1424526
364.60 0.1415032
364.70 0.141769
364.80 0.142809
364.90 0.1440334
365.00 0.1452406
365.10 0.1468185
365.20 0.1492608
365.30 0.1524239
365.40 0.1553474
365.50 0.156916
365.60 0.1567771
365.70 0.1556069
365.80 0.1544596
365.90 0.1539135
366.00 0.1538545
366.10 0.1539546
366.20 0.1541916
366.30 0.1548042
366.40 0.1558513
366.50 0.156972
366.60 0.1575738
366.70 0.1572145
366.80 0.1558331
366.90 0.1537156
367.00 0.151347
367.10 0.1492781
367.20 0.1480091
367.30 0.1478619
367.40 0.1488412
367.50 0.1506065
367.60 0.1526388
367.70 0.1545088
367.80 0.156055
367.90 0.1573556
368.00 0.158554
368.10 0.1596827
368.20 0.1606007
368.30 0.1610621
368.40 0.1608759
368.50 0.1600866
368.60 0.1590493
368.70 0.1582834
368.80 0.1581568
368.90 0.1586624
369.00 0.1595195
369.10 0.160504
369.20 0.1616015
369.30 0.1627985
369.40 0.1638165
369.50 0.1641821
369.60 0.1636365
369.70 0.1624548
369.80 0.1613506
369.90 0.1610726
370.00 0.1620162
370.10 0.1640691
370.20 0.1667375
370.30 0.1694113
370.40 0.1715739
370.50 0.1728896
370.60 0.173241
370.70 0.1728206
370.80 0.1721414
370.90 0.1718077
371.00 0.1721217
371.10 0.172833
371.20 0.1732326
371.30 0.1725207
371.40 0.1702539
371.50 0.1666411
371.60 0.1625132
371.70 0.1589349
371.80 0.1567197
371.90 0.1561659
372.00 0.1570805
372.10 0.1588361
372.20 0.1603293
372.30 0.1601754
372.40 0.1573491
372.50 0.1519896
372.60 0.1456417
372.70 0.1405667
372.80 0.1385925
372.90 0.1403147
373.00 0.1450499
373.10 0.1513301
373.20 0.1575091
373.30 0.1622077
373.40 0.1645898
373.50 0.1644247
373.60 0.1619385
373.70 0.1575972
373.80 0.152007
373.90 0.1459672
374.00 0.1404769
374.10 0.136562
374.20 0.1350156
374.30 0.1362586
374.40 0.1403699
374.50 0.1471153
374.60 0.1558656
374.70 0.1654825
374.80 0.1743924
374.90 0.1809839
375.00 0.1841569
375.10 0.1836742
375.20 0.1801242
375.30 0.1746145
375.40 0.1684322
375.50 0.162774
375.60 0.158462
375.70 0.1557261
375.80 0.154217
375.90 0.1533043
376.00 0.1525198
376.10 0.1519069
376.20 0.1520946
376.30 0.1540388
376.40 0.1585561
376.50 0.1659704
376.60 0.1761028
376.70 0.1883785
376.80 0.2017524
376.90 0.2144986
377.00 0.2243547
377.10 0.2292924
377.20 0.2284395
377.30 0.2224161
377.40 0.212879
377.50 0.201742
377.60 0.1906304
377.70 0.1807207
377.80 0.1726957
377.90 0.1667078
378.00 0.1624611
378.10 0.159475
378.20 0.1573686
378.30 0.1559339
378.40 0.1550261
378.50 0.1545278
378.60 0.1544602
378.70 0.1550441
378.80 0.1566071
378.90 0.1595155
379.00 0.1642798
379.10 0.1716143
379.20 0.1821376
379.30 0.1958235
379.40 0.2116623
379.50 0.2278049
379.60 0.2419871
379.70 0.2519791
379.80 0.256089
379.90 0.2536869
380.00 0.2455252
380.10 0.2335188
380.20 0.2200188
380.30 0.207011
380.40 0.1956989
380.50 0.18653
380.60 0.1794246
380.70 0.1739748
380.80 0.1695937
380.90 0.1657721
381.00 0.1623306
381.10 0.1594137
381.20 0.1571903
381.30 0.1555708
381.40 0.1542906
381.50 0.1532805
381.60 0.1529148
381.70 0.1535813
381.80 0.1551128
381.90 0.1568093
382.00 0.1580636
382.10 0.1611156
382.20 0.1701777
382.30 0.1729255
382.40 0.1697266
382.50 0.1809479
382.60 0.2331378
382.70 0.3314417
382.80 0.4391261
382.90 0.5063934
383.00 0.4952124
383.10 0.4398141
383.20 0.4291826
383.30 0.4827571
383.40 0.5749636
383.50 0.6516874
383.60 0.66054
383.70 0.5874166
383.80 0.4693685
383.90 0.3615132
384.00 0.2894818
384.10 0.2436998
384.20 0.2133234
384.30 0.2088247
384.40 0.2378331
384.50 0.2655551
384.60 0.2608822
384.70 0.1803533
384.80 0.06882608
384.90 0
385.00 0
385.10 0
385.20 0.03865618
385.30 0.06983671
385.40 0.08135145
385.50 0.08146866
385.60 0.08620618
385.70 0.103261
385.80 0.1279301
385.90 0.1554408
386.00 0.1888579
386.10 0.227141
386.20 0.2545397
386.30 0.2577288
386.40 0.2460182
386.50 0.2425748
386.60 0.261077
386.70 0.2973802
386.80 0.3379693
386.90 0.361945
387.00 0.347276
387.10 0.2913216
387.20 0.2224885
387.30 0.1791374
387.40 0.1728206
387.50 0.1808662
387.60 0.1776299
387.70 0.1636
387.80 0.1532442
387.90 0.1483323
388.00 0.1401692
388.10 0.1395793
388.20 0.1789048
388.30 0.2647835
388.40 0.3511791
388.50 0.385201
388.60 0.3774881
388.70 0.3912856
388.80 0.4564466
388.90 0.5246558
389.00 0.5275475
389.10 0.4612776
389.20 0.3855215
389.30 0.3489223
389.40 0.344672
389.50 0.3293616
389.60 0.268386
389.70 0.2100664
389.80 0.1568105
389.90 0.1529712
390.00 0.2003335
390.10 0.2381353
390.20 0.2778348
390.30 0.3150146
390.40 0.3437979
390.50 0.3970908
390.60 0.4427413
390.70 0.4372711
390.80 0.3728503
390.90 0.2833329
391.00 0.2153546
391.10 0.2022591
391.20 0.2488466
391.30 0.2780444
391.40 0.3011284
391.50 0.3069942
391.60 0.2945243
391.70 0.2782174
391.80 0.2723029
391.90 0.2821632
392.00 0.3082591
392.10 0.335804
392.20 0.3459553
392.30 0.3126393
392.40 0.2694828
392.50 0.2362374
392.60 0.2065689
392.70 0.1982951
392.80 0.2113639
392.90 0.2613071
393.00 0.3592419
393.10 0.5468464
393.20 0.8500428
393.30 1.173238
393.40 1.372194
393.50 1.349736
393.60 1.125466
393.70 0.81799
393.80 0.5517367
393.90 0.3770398
394.00 0.2699612
394.10 0.1956444
394.20 0.146074
394.30 0.1085284
394.40 0.1186353
394.50 0.1684545
394.60 0.2374085
394.70 0.2983659
394.80 0.3569515
394.90 0.3844903
395.00 0.3946894
395.10 0.3921472
395.20 0.3771612
395.30 0.3582936
395.40 0.3569419
395.50 0.3568696
395.60 0.3482468
395.70 0.3558451
395.80 0.3706163
395.90 0.3767882
396.00 0.3498044
396.10 0.2971236
396.20 0.2574811
396.30 0.2468451
396.40 0.2802984
396.50 0.3642636
396.60 0.5300093
396.70 0.8102712
396.80 1.16037
396.90 1.448909
397.00 1.532176
397.10 1.365872
397.20 1.038888
397.30 0.7029369
397.40 0.4596654
397.50 0.3308262
397.60 0.2886235
397.70 0.2914083
397.80 0.3045789
397.90 0.3086571
398.00 0.2956048
398.10 0.2632834
398.20 0.2195379
398.30 0.1909066
398.40 0.208229
398.50 0.2748348
398.60 0.3576809
398.70 0.4181865
398.80 0.4217141
398.90 0.403521
399.00 0.3763935
399.10 0.3540918
399.20 0.3475783
399.30 0.3515468
399.40 0.3471028
399.50 0.3275222
399.60 0.3073009
399.70 0.3124458
399.80 0.3478946
399.90 0.377744
400.00 0.3714491
400.10 0.3346131
400.20 0.3035552
400.30 0.307736
400.40 0.3410743
400.50 0.370259
400.60 0.3709221
400.70 0.3652796
400.80 0.3681966
400.90 0.3693596
401.00 0.3695337
401.10 0.3659517
401.20 0.369115
401.30 0.3663082
401.40 0.3544861
401.50 0.3338122
401.60 0.3035631
401.70 0.2581816
401.80 0.2363336
401.90 0.2450434
402.00 0.2676763
402.10 0.2823789
402.20 0.277999
402.30 0.2612514
402.40 0.2508322
402.50 0.2617154
402.60 0.2911058
402.70 0.3220306
402.80 0.3386357
402.90 0.3365567
403.00 0.3197522
403.10 0.2901608
403.20 0.2506881
403.30 0.2135608
403.40 0.1968771
403.50 0.2100053
403.60 0.2432699
403.70 0.2731735
403.80 0.2980571
403.90 0.3315303
404.00 0.3745613
404.10 0.414437
404.20 0.4295206
404.30 0.4163349
404.40 0.3939139
404.50 0.380551
404.60 0.3752246
404.70 0.3677612
404.80 0.355624
404.90 0.3443799
405.00 0.3384166
405.10 0.3389701
405.20 0.3478545
405.30 0.3625748
405.40 0.3701095
405.50 0.3560336
405.60 0.3250713
405.70 0.2999084
405.80 0.2933372
405.90 0.298581
406.00 0.2969965
406.10 0.2797153
406.20 0.2552169
406.30 0.2390891
406.40 0.2400288
406.50 0.2565504
406.60 0.2741584
406.70 0.2781909
406.80 0.2697387
406.90 0.26454
407.00 0.277941
407.10 0.3063193
407.20 0.3163088
407.30 0.3001869
407.40 0.2739475
407.50 0.2376876
407.60 0.2139911
407.70 0.2062057
407.80 0.2110819
407.90 0.2315983
408.00 0.2675136
408.10 0.3055524
408.20 0.3275686
408.30 0.3240573
408.40 0.3014631
408.50 0.2730971
408.60 0.2485987
408.70 0.2316347
408.80 0.2238861
408.90 0.2271297
409.00 0.2366743
409.10 0.2401283
409.20 0.2298208
409.30 0.2088725
409.40 0.1896328
409.50 0.1814332
409.60 0.1885968
409.70 0.2148263
409.80 0.2668183
409.90 0.3527377
410.00 0.4765359
410.10 0.6212719
410.20 0.7360107
410.30 0.7599098
410.40 0.6765637
410.50 0.5378532
410.60 0.4199462
410.70 0.3353899
410.80 0.3035162
410.90 0.2905028
411.00 0.280929
411.10 0.2746408
411.20 0.2680513
411.30 0.2553378
411.40 0.2406032
411.50 0.2350059
411.60 0.2115548
411.70 0.1693027
411.80 0.1357159
411.90 0.1136489
412.00 0.1036769
412.10 0.1057058
412.20 0.1203612
412.30 0.1424332
412.40 0.1657884
412.50 0.1860613
412.60 0.2015379
412.70 0.2116252
412.80 0.2153428
412.90 0.2133163
413.00 0.2109833
413.10 0.2160124
413.20 0.2315226
413.30 0.2510356
413.40 0.2628031
413.50 0.2595884
413.60 0.244898
413.70 0.2296684
413.80 0.223171
413.90 0.2280146
414.00 0.2418941
414.10 0.2607383
414.20 0.2510926
414.30 0.2323381
414.40 0.2108446
414.50 0.1982371
414.60 0.2070769
414.70 0.2374668
414.80 0.2516619
414.90 0.2504426
415.00 0.2508109
415.10 0.2435803
415.20 0.2266071
415.30 0.2183653
415.40 0.2188564
415.50 0.2323539
415.60 0.260361
415.70 0.2939544
415.80 0.3195967
415.90 0.3292934
416.00 0.3178665
416.10 0.2932147
416.20 0.2611424
416.30 0.2272876
416.40 0.202651
416.50 0.1990164
416.60 0.1989296
416.70 0.2229171
416.80 0.2564418
416.90 0.2759498
417.00 0.2635427
417.10 0.2215908
417.20 0.1972562
417.30 0.1883656
417.40 0.1829048
417.50 0.1873162
417.60 0.2194905
417.70 0.2771269
417.80 0.3312419
417.90 0.3425902
418.00 0.3393492
418.10 0.3337443
418.20 0.3228711
418.30 0.2951343
418.40 0.2486727
418.50 0.1985045
418.60 0.1443418
418.70 0.1219225
418.80 0.1253846
418.90 0.1404844
419.00 0.1529007
419.10 0.152586
419.20 0.1383053
419.30 0.1207301
419.40 0.1164268
419.50 0.1353343
419.60 0.1696916
419.70 0.1992648
419.80 0.2125334
419.90 0.2146434
420.00 0.2209356
420.10 0.2388928
420.20 0.2605368
420.30 0.2630216
420.40 0.2489703
420.50 0.2425217
420.60 0.2519879
420.70 0.2710312
420.80 0.2764105
420.90 0.2778037
421.00 0.2758039
421.10 0.2613704
421.20 0.2241546
421.30 0.1700252
421.40 0.1253604
421.50 0.1088947
421.60 0.1195447
421.70 0.1349526
421.80 0.1344571
421.90 0.1193312
422.00 0.1078898
422.10 0.1150086
422.20 0.1368862
422.30 0.1552272
422.40 0.1562606
422.50 0.1423891
422.60 0.1245265
422.70 0.09396828
422.80 0.08670554
422.90 0.09449839
423.00 0.1028868
423.10 0.1032046
423.20 0.09512121
423.30 0.08368366
423.40 0.07671916
423.50 0.0664299
423.60 0.05131184
423.70 0.05566028
423.80 0.07685634
423.90 0.1070345
424.00 0.1365786
424.10 0.15651
424.20 0.1639229
424.30 0.1648157
424.40 0.1576488
424.50 0.1474977
424.60 0.1382534
424.70 0.129502
424.80 0.112471
424.90 0.1034665
425.00 0.1081009
425.10 0.1174177
425.20 0.1208961
425.30 0.1157103
425.40 0.1093068
425.50 0.1094793
425.60 0.1153643
425.70 0.1202184
425.80 0.1216463
425.90 0.1270941
426.00 0.1456125
426.10 0.1745828
426.20 0.2002743
426.30 0.2100336
426.40 0.2008421
426.50 0.1800875
426.60 0.1622285
426.70 0.164376
426.80 0.1955894
426.90 0.2336398
427.00 0.2460035
427.10 0.2503732
427.20 0.2445614
427.30 0.2305138
427.40 0.2105772
427.50 0.1873347
427.60 0.1638416
427.70 0.1435883
427.80 0.1246047
427.90 0.1200085
428.00 0.1344158
428.10 0.1639019
428.20 0.2065147
428.30 0.2544097
428.40 0.2911392
428.50 0.2961215
428.60 0.2658582
428.70 0.2191799
428.80 0.1857684
428.90 0.1859118
429.00 0.2177306
429.10 0.248669
429.20 0.268938
429.30 0.2777526
429.40 0.2770564
429.50 0.2712829
429.60 0.2607489
429.70 0.2463118
429.80 0.2335616
429.90 0.2246007
430.00 0.212162
430.10 0.1917391
430.20 0.1743574
430.30 0.176749
430.40 0.1995054
430.50 0.224441
430.60 0.2352178
430.70 0.2337818
430.80 0.2330707
430.90 0.2395659
431.00 0.2498032
431.10 0.2592913
431.20 0.2676947
431.30 0.2754545
431.40 0.2793442
431.50 0.2753578
431.60 0.2596386
431.70 0.2389373
431.80 0.2250542
431.90 0.2205611
432.00 0.224623
432.10 0.229815
432.20 0.2397586
432.30 0.2432452
432.40 0.2354387
432.50 0.226124
432.60 0.2301278
432.70 0.2502672
432.80 0.2742059
432.90 0.2917694
433.00 0.3092374
433.10 0.3395896
433.20 0.3721231
433.30 0.3910378
433.40 0.4001591
433.50 0.4038235
433.60 0.4182555
433.70 0.4740078
433.80 0.5827442
433.90 0.7719156
434.00 0.9830798
434.10 1.112175
434.20 1.083296
434.30 0.9088983
434.40 0.6769046
434.50 0.4813851
434.60 0.3656735
434.70 0.3199563
434.80 0.3138194
434.90 0.3229395
435.00 0.3330882
435.10 0.3348946
435.20 0.3241455
435.30 0.3045713
435.40 0.2853321
435.50 0.2733004
435.60 0.2644059
435.70 0.2548567
435.80 0.249971
435.90 0.2623609
436.00 0.294251
436.10 0.3255964
436.20 0.3146375
436.30 0.2816675
436.40 0.2448047
436.50 0.2277297
436.60 0.2483921
436.70 0.2822516
436.80 0.2972678
436.90 0.2817091
437.00 0.2492933
437.10 0.2238961
437.20 0.2225007
437.30 0.2451323
437.40 0.2771621
437.50 0.3045221
437.60 0.325753
437.70 0.3454308
437.80 0.3576264
437.90 0.3501539
438.00 0.3228256
438.10 0.299028
438.20 0.3017735
438.30 0.3293132
438.40 0.3548366
438.50 0.3640614
438.60 0.3674005
438.70 0.3691083
438.80 0.3587296
438.90 0.3321102
439.00 0.3001042
439.10 0.287951
439.20 0.3080628
439.30 0.3468224
439.40 0.3800097
439.50 0.3927868
439.60 0.3885415
439.70 0.380078
439.80 0.3731325
439.90 0.3547562
440.00 0.3337875
440.10 0.3244563
440.20 0.3283605
440.30 0.3328813
440.40 0.3097894
440.50 0.282598
440.60 0.2654516
440.70 0.2653823
440.80 0.2850272
440.90 0.2978276
441.00 0.3084029
441.10 0.3105452
441.20 0.3035757
441.30 0.2996058
441.40 0.3136389
441.50 0.350627
441.60 0.4018501
441.70 0.4513289
441.80 0.4849765
441.90 0.4947038
442.00 0.479187
442.10 0.4448381
442.20 0.4045571
442.30 0.3709544
442.40 0.3508125
442.50 0.343507
442.60 0.3433441
442.70 0.3461134
442.80 0.3525799
442.90 0.3666138
443.00 0.3904789
443.10 0.4200102
443.20 0.4461212
443.30 0.4613055
443.40 0.4649556
443.50 0.4609791
443.60 0.461572
443.70 0.4804042
443.80 0.4908385
443.90 0.4966998
444.00 0.4968903
444.10 0.490074
444.20 0.4724759
444.30 0.4472868
444.40 0.4311253
444.50 0.4429377
444.60 0.4812597
444.70 0.5231451
444.80 0.5483297
444.90 0.5529108
445.00 0.5429973
445.10 0.5211826
445.20 0.4861984
445.30 0.444072
445.40 0.4121976
445.50 0.408185
445.60 0.4366162
445.70 0.4764825
445.80 0.5064582
445.90 0.5182434
446.00 0.5182235
446.10 0.5146427
446.20 0.5066514
446.30 0.4873049
446.40 0.4558406
446.50 0.4248769
446.60 0.4155113
446.70 0.440208
446.80 0.4885729
446.90 0.5343052
447.00 0.5595204
447.10 0.5696852
447.20 0.5808912
447.30 0.5979122
447.40 0.6119848
447.50 0.6165618
447.60 0.6162968
447.70 0.6218821
447.80 0.6395903
447.90 0.6650684
448.00 0.6721127
448.10 0.6768608
448.20 0.6759417
448.30 0.660002
448.40 0.6524039
448.50 0.652664
448.60 0.6531538
448.70 0.6499727
448.80 0.6457474
448.90 0.6444757
449.00 0.6481044
449.10 0.6562744
449.20 0.6656096
449.30 0.6701734
449.40 0.6653621
449.50 0.6521382
449.60 0.6374734
449.70 0.6303152
449.80 0.6350436
449.90 0.6495814
450.00 0.669106
450.10 0.6888995
450.20 0.7021318
450.30 0.6973561
450.40 0.667305
450.50 0.623106
450.60 0.5912538
450.70 0.5895752
450.80 0.6115015
450.90 0.636601
451.00 0.6518857
451.10 0.6582427
451.20 0.6590803
451.30 0.654556
451.40 0.6477422
451.50 0.6480034
451.60 0.6634482
451.70 0.6920491
451.80 0.7245964
451.90 0.7544764
452.00 0.7796765
452.10 0.7964866
452.20 0.7988029
452.30 0.7850237
452.40 0.7619296
452.50 0.7389634
452.60 0.7210198
452.70 0.7102622
452.80 0.7118112
452.90 0.7305129
453.00 0.7608099
453.10 0.7833643
453.20 0.7755331
453.30 0.7298952
453.40 0.6650967
453.50 0.6188847
453.60 0.6264045
453.70 0.6977302
453.80 0.8100747
453.90 0.9225413
454.00 0.9997846
454.10 1.027553
454.20 1.013545
454.30 0.9750881
454.40 0.926388
454.50 0.876654
454.60 0.8347506
454.70 0.8088981
454.80 0.800465
454.90 0.8011391
455.00 0.800854
455.10 0.7941995
455.20 0.7772459
455.30 0.748922
455.40 0.7197315
455.50 0.7110318
455.60 0.7381583
455.70 0.7941365
455.80 0.8545541
455.90 0.8988156
456.00 0.9236273
456.10 0.9402263
456.20 0.9625493
456.30 0.996507
456.40 1.038226
456.50 1.078914
456.60 1.111027
456.70 1.131578
456.80 1.142408
456.90 1.147942
457.00 1.151753
457.10 1.155133
457.20 1.158327
457.30 1.159502
457.40 1.15302
457.50 1.134836
457.60 1.110793
457.70 1.094791
457.80 1.094076
457.90 1.101704
458.00 1.107005
458.10 1.105342
458.20 1.093038
458.30 1.0599
458.40 0.9952346
458.50 0.9045265
458.60 0.813794
458.70 0.7508981
458.80 0.7230656
458.90 0.7144017
459.00 0.7075197
459.10 0.7039458
459.20 0.7160388
459.30 0.7434356
459.40 0.7691712
459.50 0.7805446
459.60 0.7860706
459.70 0.8052426
459.80 0.844254
459.90 0.8877427
460.00 0.9135214
460.10 0.9132028
460.20 0.8985655
460.30 0.8877845
460.40 0.8855558
460.50 0.878538
460.60 0.8547154
460.70 0.8265139
460.80 0.8262375
460.90 0.8729839
461.00 0.9492894
461.10 1.017123
461.20 1.05619
461.30 1.080001
461.40 1.114831
461.50 1.170407
461.60 1.23208
461.70 1.276882
461.80 1.293019
461.90 1.286713
462.00 1.273594
462.10 1.263575
462.20 1.251382
462.30 1.220578
462.40 1.158991
462.50 1.071024
462.60 0.9753637
462.70 0.8911261
462.80 0.8294444
462.90 0.7951752
463.00 0.7876348
463.10 0.7988334
463.20 0.8162017
463.30 0.829696
463.40 0.8352272
463.50 0.831984
463.60 0.8210994
463.70 0.8085664
463.80 0.8032599
463.90 0.8107427
464.00 0.8324898
464.10 0.8677076
464.20 0.9118683
464.30 0.955144
464.40 0.9850825
464.50 0.99369
464.60 0.9824257
464.70 0.9599776
464.80 0.9368068
464.90 0.9205405
465.00 0.9146148
465.10 0.9204197
465.20 0.938451
465.30 0.9655587
465.40 0.9925633
465.50 1.009644
465.60 1.015907
465.70 1.022281
465.80 1.042824
465.90 1.080657
466.00 1.124978
466.10 1.162386
466.20 1.188016
466.30 1.204423
466.40 1.212114
466.50 1.202922
466.60 1.164075
466.70 1.088903
466.80 0.9853574
466.90 0.8762492
467.00 0.7863789
467.10 0.7262924
467.20 0.6906578
467.30 0.6721412
467.40 0.6705594
467.50 0.6873356
467.60 0.7175645
467.70 0.7529005
467.80 0.7875335
467.90 0.8162089
468.00 0.8314494
468.10 0.8308917
468.20 0.824326
468.30 0.8255815
468.40 0.8384121
468.50 0.8536282
468.60 0.8611777
468.70 0.8617123
468.80 0.8640702
468.90 0.8749233
469.00 0.8942918
469.10 0.918763
469.20 0.9442783
469.30 0.9642732
469.40 0.9723795
469.50 0.9720759
469.60 0.9790781
469.70 1.008215
469.80 1.05778
469.90 1.111622
470.00 1.155943
470.10 1.188416
470.20 1.211105
470.30 1.222267
470.40 1.218079
470.50 1.200988
470.60 1.181278
470.70 1.168017
470.80 1.162775
470.90 1.161135
471.00 1.156785
471.10 1.143439
471.20 1.116439
471.30 1.075171
471.40 1.023365
471.50 0.9672912
471.60 0.9153225
471.70 0.8801468
471.80 0.874542
471.90 0.9003144
472.00 0.9429659
472.10 0.981091
472.20 1.002097
472.30 1.008777
472.40 1.012785
472.50 1.0213
472.60 1.030621
472.70 1.031662
472.80 1.021126
472.90 1.008417
473.00 1.009813
473.10 1.034349
473.20 1.076919
473.30 1.124643
473.40 1.166221
473.50 1.193393
473.60 1.197455
473.70 1.172803
473.80 1.127541
473.90 1.084049
474.00 1.064252
474.10 1.07533
474.20 1.109593
474.30 1.153975
474.40 1.196245
474.50 1.226657
474.60 1.240728
474.70 1.24189
474.80 1.239753
474.90 1.243561
475.00 1.256136
475.10 1.272535
475.20 1.28391
475.30 1.285516
475.40 1.280483
475.50 1.274455
475.60 1.26762
475.70 1.252392
475.80 1.216414
475.90 1.148544
476.00 1.047322
476.10 0.928099
476.20 0.8190938
476.30 0.7430457
476.40 0.6931382
476.50 0.6645812
476.60 0.64493
476.70 0.6145764
476.80 0.5827613
476.90 0.5639399
477.00 0.5606513
477.10 0.5666138
477.20 0.5764383
477.30 0.5933997
477.40 0.6249525
477.50 0.6714165
477.60 0.7219522
477.70 0.7628563
477.80 0.7880575
477.90 0.7979414
478.00 0.7916293
478.10 0.767655
478.20 0.7335284
478.30 0.7091694
478.40 0.7133194
478.50 0.7452324
478.60 0.7852586
478.70 0.8155873
478.80 0.8361726
478.90 0.8604884
479.00 0.8979072
479.10 0.9426358
479.20 0.9800465
479.30 0.9997068
479.40 1.001421
479.50 0.9932168
479.60 0.985289
479.70 0.9837101
479.80 0.9887082
479.90 0.9983112
480.00 1.012972
480.10 1.034103
480.20 1.054278
480.30 1.052923
480.40 1.009527
480.50 0.922115
480.60 0.8117087
480.70 0.707173
480.80 0.6266076
480.90 0.5738007
481.00 0.5470868
481.10 0.5451656
481.20 0.5645814
481.30 0.5977888
481.40 0.6380495
481.50 0.6837287
481.60 0.7325421
481.70 0.7753604
481.80 0.8022824
481.90 0.8145027
482.00 0.8251763
482.10 0.8458367
482.20 0.87554
482.30 0.9047223
482.40 0.9245107
482.50 0.9306286
482.60 0.9234423
482.70 0.9095135
482.80 0.9007931
482.90 0.9048969
483.00 0.9155563
483.10 0.9207852
483.20 0.922852
483.30 0.9400723
483.40 0.9829718
483.50 1.034868
483.60 1.066923
483.70 1.070088
483.80 1.060183
483.90 1.051358
484.00 1.035769
484.10 0.9943649
484.20 0.9224254
484.30 0.8413153
484.40 0.7855256
484.50 0.7771235
484.60 0.8075534
484.70 0.8417953
484.80 0.8456514
484.90 0.8126029
485.00 0.7653449
485.10 0.7339521
485.20 0.7349645
485.30 0.7669876
485.40 0.8177709
485.50 0.8727083
485.60 0.92187
485.70 0.9725114
485.80 1.064841
485.90 1.262351
486.00 1.591994
486.10 1.975142
486.20 2.23967
486.30 2.240713
486.40 1.982144
486.50 1.607016
486.60 1.272553
486.70 1.049073
486.80 0.9262124
486.90 0.87499
487.00 0.8804136
487.10 0.9300066
487.20 0.9997157
487.30 1.059596
487.40 1.08834
487.50 1.081521
487.60 1.049123
487.70 1.0088
487.80 0.9785104
487.90 0.969627
488.00 0.981078
488.10 0.9996575
488.20 1.01142
488.30 1.015183
488.40 1.022961
488.50 1.045312
488.60 1.079124
488.70 1.111575
488.80 1.134974
488.90 1.154262
489.00 1.177653
489.10 1.202163
489.20 1.213419
489.30 1.202266
489.40 1.178573
489.50 1.163938
489.60 1.170266
489.70 1.189862
489.80 1.207063
489.90 1.213102
490.00 1.208831
490.10 1.200586
490.20 1.197982
490.30 1.210924
490.40 1.241409
490.50 1.278887
490.60 1.30921
490.70 1.328797
490.80 1.346328
490.90 1.371333
491.00 1.404685
491.10 1.44096
491.20 1.475253
491.30 1.503472
491.40 1.519796
491.50 1.519359
491.60 1.504307
491.70 1.485483
491.80 1.477197
491.90 1.490301
492.00 1.52751
492.10 1.581763
492.20 1.638067
492.30 1.681005
492.40 1.706235
492.50 1.726088
492.60 1.759258
492.70 1.80892
492.80 1.853896
492.90 1.867792
493.00 1.845217
493.10 1.804282
493.20 1.766311
493.30 1.741875
493.40 1.734209
493.50 1.743589
493.60 1.763339
493.70 1.779853
493.80 1.784498
493.90 1.78283
494.00 1.788528
494.10 1.810402
494.20 1.847807
494.30 1.895586
494.40 1.948557
494.50 2.00252
494.60 2.055057
494.70 2.106036
494.80 2.155837
494.90 2.202082
495.00 2.237175
495.10 2.243581
495.20 2.188817
495.30 2.035125
495.40 1.768908
495.50 1.426002
495.60 1.081918
495.70 0.8096271
495.80 0.6427544
495.90 0.5724547
496.00 0.5677031
496.10 0.594435
496.20 0.6259655
496.30 0.6483504
496.40 0.6619868
496.50 0.6780072
496.60 0.7101115
496.70 0.765812
496.80 0.8391217
496.90 0.9103223
497.00 0.9590997
497.10 0.9829359
497.20 0.9995942
497.30 1.02826
497.40 1.070897
497.50 1.112777
497.60 1.136832
497.70 1.134853
497.80 1.108856
497.90 1.068876
498.00 1.029178
498.10 1.001521
498.20 0.9917035
498.30 1.002362
498.40 1.033867
498.50 1.079406
498.60 1.124016
498.70 1.154751
498.80 1.172763
498.90 1.190854
499.00 1.219296
499.10 1.257357
499.20 1.29715
499.30 1.332034
499.40 1.359469
499.50 1.377946
499.60 1.371804
499.70 1.300937
499.80 1.122145
499.90 0.8355596
500.00 1
500.10 0.7920122
500.20 0.8575371
500.30 0.9614893
500.40 0.8626462
500.50 0.7878878
500.60 0.8115364
500.70 0.7483633
500.80 0.8136475
500.90 0.9515929
501.00 1.078744
501.10 0.988008
501.20 0.945656
501.30 0.9506371
501.40 0.9586795
501.50 0.9050333
501.60 0.9174092
501.70 0.9653951
501.80 0.9773602
501.90 1.003694
502.00 1.038902
502.10 1.157515
502.20 1.14651
502.30 1.078382
502.40 1.131564
502.50 1.150267
502.60 1.07873
502.70 1.077727
502.80 1.095159
502.90 1.072565
503.00 1.062803
503.10 1.037553
503.20 1.172044
503.30 1.142407
503.40 1.088408
503.50 1.244647
503.60 1.344065
503.70 1.237667
503.80 1.214379
503.90 1.301769
504.00 1.296399
504.10 1.355267
504.20 1.457482
504.30 1.408288
504.40 1.460207
504.50 1.510312
504.60 1.529977
504.70 1.642065
504.80 1.705319
504.90 1.44338
505.00 1.267043
505.10 1.265186
505.20 1.333777
505.30 1.337277
505.40 1.386663
505.50 1.420626
505.60 1.307134
505.70 1.279767
505.80 1.366596
505.90 1.358982
506.00 1.332212
506.10 1.382002
506.20 1.553155
506.30 1.508204
506.40 1.400285
506.50 1.416165
506.60 1.464846
506.70 1.476033
506.80 1.425566
506.90 1.51229
507.00 1.450533
507.10 1.328021
507.20 1.474865
507.30 1.444147
507.40 1.390605
507.50 1.577681
507.60 1.607416
507.70 1.455309
507.80 1.476703
507.90 1.564088
508.00 1.609243
508.10 1.485908
508.20 1.384438
508.30 1.402623
508.40 1.503169
508.50 1.619841
508.60 1.590431
508.70 1.524658
508.80 1.487269
508.90 1.497768
509.00 1.450444
509.10 1.433165
509.20 1.549447
509.30 1.621517
509.40 1.627514
509.50 1.555565
509.60 1.411372
509.70 1.311853
509.80 1.533682
509.90 1.639645
510.00 1.654636
510.10 1.557553
510.20 1.479391
510.30 1.517009
510.40 1.541539
510.50 1.462663
510.60 1.416569
510.70 1.469803
510.80 1.417243
510.90 1.45598
511.00 1.522499
511.10 1.47942
511.20 1.46292
511.30 1.504641
511.40 1.561385
511.50 1.596332
511.60 1.688373
511.70 1.750397
511.80 1.774173
511.90 1.693405
512.00 1.629033
512.10 1.578789
512.20 1.612438
512.30 1.668686
512.40 1.634526
512.50 1.504271
512.60 1.505949
512.70 1.491978
512.80 1.432082
512.90 1.47431
513.00 1.449975
513.10 1.374411
513.20 1.568463
513.30 1.815131
513.40 1.764048
513.50 1.665109
513.60 1.668689
513.70 1.799855
513.80 1.974822
513.90 1.907238
514.00 1.734509
514.10 1.76852
514.20 1.735708
514.30 1.68838
514.40 1.691507
514.50 1.609264
514.60 1.559921
514.70 1.537005
514.80 1.663203
514.90 1.746985
515.00 1.721584
515.10 1.653131
515.20 1.6596
515.30 1.557844
515.40 1.398102
515.50 1.433003
515.60 1.538167
515.70 1.553997
515.80 1.782392
515.90 1.989655
516.00 2.000574
516.10 2.083015
516.20 2.234024
516.30 2.184022
516.40 2.142605
516.50 2.224374
516.60 2.097649
516.70 1.590635
516.80 1.10551
516.90 0.7696095
517.00 0.6829493
517.10 0.6665349
517.20 0.6369781
517.30 0.6149912
517.40 0.5482723
517.50 0.5696653
517.60 0.5654761
517.70 0.5592043
517.80 0.5688991
517.90 0.5890613
518.00 0.5955094
518.10 0.6677078
518.20 0.7020389
518.30 0.7703712
518.40 0.7662711
518.50 0.8381318
518.60 0.9404075
518.70 0.9940854
518.80 0.969252
518.90 1.085172
519.00 1.153336
519.10 1.19471
519.20 1.220346
519.30 1.164704
519.40 1.064093
519.50 1.146097
519.60 1.190524
519.70 1.345269
519.80 1.50261
519.90 1.49756
520.00 1.357706
520.10 1.31954
520.20 1.336457
520.30 1.184122
520.40 1.069657
520.50 1.098687
520.60 1.060136
520.70 0.833119
520.80 0.7838648
520.90 0.8071454
521.00 0.8583169
521.10 0.8970094
521.20 1.120102
521.30 1.400325
521.40 1.604621
521.50 1.750035
521.60 1.795577
521.70 1.758848
521.80 1.767543
521.90 1.840085
522.00 1.844045
522.10 1.898048
522.20 2.021188
522.30 2.063912
522.40 2.058042
522.50 1.857484
522.60 1.76112
522.70 1.714975
522.80 1.809098
522.90 1.928456
523.00 2.050701
523.10 2.239041
523.20 2.168546
523.30 1.97269
523.40 1.949333
523.50 2.042515
523.60 2.065851
523.70 2.08956
523.80 2.042925
523.90 2.037681
524.00 2.047326
524.10 1.942417
524.20 1.608592
524.30 1.458335
524.40 1.538582
524.50 1.705613
524.60 1.776308
524.70 1.669713
524.80 1.609507
524.90 1.584193
525.00 1.650791
525.10 1.712105
525.20 1.771226
525.30 1.805204
525.40 1.796042
525.50 1.938236
525.60 2.143739
525.70 2.205277
525.80 2.023042
525.90 1.966039
526.00 1.957567
526.10 1.880899
526.20 1.715391
526.30 1.712707
526.40 1.772413
526.50 1.617948
526.60 1.494639
526.70 1.546819
526.80 1.631875
526.90 1.678475
527.00 1.453675
527.10 1.352695
527.20 1.523227
527.30 1.836558
527.40 2.028764
527.50 2.121572
527.60 2.037001
527.70 2.011503
527.80 1.940799
527.90 1.974581
528.00 1.982596
528.10 1.973144
528.20 1.9808
528.30 1.904314
528.40 1.916232
528.50 2.051861
528.60 2.233439
528.70 2.272665
528.80 2.265654
528.90 2.278793
529.00 2.267485
529.10 2.272777
529.20 2.3267
529.30 2.304836
529.40 2.228273
529.50 2.279977
529.60 2.337576
529.70 2.249693
529.80 1.965271
529.90 1.932287
530.00 2.1076
530.10 2.131415
530.20 2.064343
530.30 2.210147
530.40 2.43325
530.50 2.449298
530.60 2.374485
530.70 2.272264
530.80 2.209016
530.90 2.147214
531.00 2.106731
531.10 2.115905
531.20 2.119105
531.30 2.064117
531.40 2.174362
531.50 2.175507
531.60 2.141082
531.70 2.200264
531.80 2.208674
531.90 2.212765
532.00 2.209102
532.10 2.13821
532.20 2.132365
532.30 2.14221
532.40 2.224708
532.50 2.240189
532.60 2.196911
532.70 2.128157
532.80 2.052348
532.90 1.900254
533.00 1.914349
533.10 2.165141
533.20 2.265949
533.30 2.11196
533.40 2.086097
533.50 2.119235
533.60 2.188226
533.70 2.245613
533.80 2.210866
533.90 2.206429
534.00 2.178947
534.10 2.182594
534.20 2.186461
534.30 2.289764
534.40 2.404006
534.50 2.432426
534.60 2.317165
534.70 2.24148
534.80 2.180251
534.90 2.284065
535.00 2.493548
535.10 2.488872
535.20 2.556261
535.30 2.656027
535.40 2.760877
535.50 2.818911
535.60 2.767113
535.70 2.666144
535.80 2.612133
535.90 2.484698
536.00 2.326041
536.10 2.171411
536.20 2.176583
536.30 2.350277
536.40 2.36962
536.50 2.263198
536.60 2.305019
536.70 2.41767
536.80 2.430324
536.90 2.372477
537.00 2.348709
537.10 2.377238
537.20 2.169365
537.30 2.051514
537.40 2.257896
537.50 2.617905
537.60 2.75593
537.70 2.575054
537.80 2.47366
537.90 2.550095
538.00 2.70429
538.10 2.890249
538.20 2.917413
538.30 2.811495
538.40 2.738486
538.50 2.738966
538.60 2.734713
538.70 2.808844
538.80 2.754906
538.90 2.796568
539.00 2.847318
539.10 2.782047
539.20 2.759293
539.30 2.773036
539.40 2.689472
539.50 2.729721
539.60 2.670468
539.70 2.470037
539.80 2.320257
539.90 2.550374
540.00 2.848135
540.10 3.007246
540.20 3.028657
540.30 3.034214
540.40 3.033646
540.50 3.004978
540.60 2.855866
540.70 2.58595
540.80 2.623048
540.90 2.854261
541.00 2.756412
541.10 2.574232
541.20 2.542023
541.30 2.586322
541.40 2.653706
541.50 2.751598
541.60 2.917912
541.70 3.07043
541.80 3.00404
541.90 2.892289
542.00 2.954367
542.10 3.097072
542.20 3.116743
542.30 3.063005
542.40 2.973543
542.50 2.952228
542.60 2.906408
542.70 2.965189
542.80 3.142655
542.90 3.163157
543.00 2.903821
543.10 2.691399
543.20 2.635055
543.30 2.7862
543.40 2.890683
543.50 2.830606
543.60 2.859801
543.70 3.111882
543.80 3.251037
543.90 3.119635
544.00 3.145697
544.10 3.346103
544.20 3.423014
544.30 3.571024
544.40 3.600642
544.50 3.520938
544.60 3.342403
544.70 2.972328
544.80 2.427782
544.90 1.922218
545.00 1.577536
545.10 1.411498
545.20 1.296614
545.30 1.246133
545.40 1.258837
545.50 1.307651
545.60 1.36952
545.70 1.445304
545.80 1.443409
545.90 1.409659
546.00 1.408779
546.10 1.42975
546.20 1.480663
546.30 1.452603
546.40 1.545691
546.50 1.736017
546.60 1.820572
546.70 1.863061
546.80 1.963392
546.90 1.96652
547.00 1.848458
547.10 1.753927
547.20 1.664
547.30 1.774503
547.40 1.927589
547.50 1.894152
547.60 1.726736
547.70 1.716675
547.80 1.733848
547.90 1.734144
548.00 1.684514
548.10 1.76912
548.20 1.927447
548.30 2.046265
548.40 1.951943
548.50 1.985003
548.60 2.096894
548.70 2.085935
548.80 1.936012
548.90 1.863668
549.00 1.884283
549.10 1.992136
549.20 2.065244
549.30 2.047028
549.40 1.989683
549.50 1.951585
549.60 1.806766
549.70 1.707076
549.80 1.644168
549.90 1.516226
550.00 1.388656
550.10 1.254517
550.20 1.152812
550.30 1.094743
550.40 1.121063
550.50 1.257127
550.60 1.261779
550.70 1.208873
550.80 1.190446
550.90 1.183013
551.00 1.154763
551.10 1.141506
551.20 1.148568
551.30 1.070334
551.40 1.03631
551.50 0.9885366
551.60 0.9385834
551.70 0.9116302
551.80 0.9780533
551.90 1.051394
552.00 1.002861
552.10 0.967922
552.20 0.9692388
552.30 0.9432199
552.40 0.9501807
552.50 0.9161066
552.60 0.8636485
552.70 0.915697
552.80 1.027986
552.90 0.9838727
553.00 0.9440831
553.10 0.9458096
553.20 1.021882
553.30 1.027028
553.40 0.8564261
553.50 0.7405444
553.60 0.7967193
553.70 0.8329669
553.80 0.8530647
553.90 0.8685319
554.00 0.7700541
554.10 0.7380401
554.20 0.7990128
554.30 0.7694017
554.40 0.7418837
554.50 0.7557665
554.60 0.8821248
554.70 0.8638069
554.80 0.8870697
554.90 0.8886005
555.00 0.8295553
555.10 0.8459549
555.20 1.00591
555.30 0.9668024
555.40 0.860459
555.50 0.8793561
555.60 0.9660172
555.70 1.083084
555.80 1.0667
555.90 1.153192
556.00 1.204291
556.10 1.244557
556.20 1.316123
556.30 1.366252
556.40 1.338982
556.50 1.37204
556.60 1.428419
556.70 1.560512
556.80 1.597472
556.90 1.578431
557.00 1.622721
557.10 1.730229
557.20 1.756641
557.30 1.752045
557.40 1.7516
557.50 1.751599
557.60 1.751599
557.70 1.751599
557.80 1.751599
557.90 1.751599
558.00 1.751599
558.10 1.751597
558.20 1.751319
558.30 1.750342
558.40 1.745789
558.50 1.84272
558.60 1.989003
558.70 2.071488
558.80 2.147304
558.90 2.10418
559.00 2.10014
559.10 2.132372
559.20 2.08878
559.30 2.073401
559.40 2.140719
559.50 2.100959
559.60 1.97041
559.70 1.976185
559.80 1.892027
559.90 1.581535
560.00 1.385477
560.10 1.480682
560.20 1.591141
560.30 1.611231
560.40 1.650829
560.50 1.692761
560.60 1.630863
560.70 1.750032
560.80 1.83046
560.90 1.831213
561.00 1.719222
561.10 1.738431
561.20 1.799294
561.30 1.830386
561.40 1.869248
561.50 1.857848
561.60 1.850741
561.70 1.669012
561.80 1.523923
561.90 1.588568
562.00 1.669907
562.10 1.578554
562.20 1.552531
562.30 1.642015
562.40 1.638838
562.50 1.620372
562.60 1.704144
562.70 1.822849
562.80 1.863741
562.90 1.707325
563.00 1.484768
563.10 1.47925
563.20 1.470153
563.30 1.536864
563.40 1.664018
563.50 1.782277
563.60 1.74108
563.70 1.66213
563.80 1.617134
563.90 1.569257
564.00 1.562961
564.10 1.645624
564.20 1.679508
564.30 1.648262
564.40 1.601925
564.50 1.727369
564.60 1.847919
564.70 1.852808
564.80 1.78204
564.90 1.82029
565.00 1.888763
565.10 1.928176
565.20 1.914223
565.30 1.8977
565.40 1.967236
565.50 2.021078
565.60 2.095274
565.70 2.117435
565.80 2.067559
565.90 2.100316
566.00 2.158458
566.10 2.181139
566.20 2.133506
566.30 2.053099
566.40 1.846685
566.50 1.74089
566.60 1.765464
566.70 1.836424
566.80 1.801072
566.90 1.66843
567.00 1.649396
567.10 1.660199
567.20 1.631106
567.30 1.639227
567.40 1.796094
567.50 1.851421
567.60 1.839766
567.70 1.791216
567.80 1.914989
567.90 2.006398
568.00 1.924738
568.10 1.865949
568.20 1.889807
568.30 1.952796
568.40 1.95504
568.50 2.047323
568.60 2.254378
568.70 2.24567
568.80 2.105929
568.90 1.888634
569.00 1.834797
569.10 1.927293
569.20 1.951738
569.30 1.971799
569.40 2.027349
569.50 2.116999
569.60 2.171706
569.70 2.216128
569.80 2.285218
569.90 2.300843
570.00 2.228933
570.10 2.288427
570.20 2.418759
570.30 2.489763
570.40 2.405252
570.50 2.364047
570.60 2.380674
570.70 2.479441
570.80 2.484014
570.90 2.538673
571.00 2.620268
571.10 2.625221
571.20 2.598014
571.30 2.494024
571.40 2.461701
571.50 2.397391
571.60 2.381733
571.70 2.365242
571.80 2.198584
571.90 2.077527
572.00 2.092017
572.10 2.15754
572.20 2.249347
572.30 2.339353
572.40 2.266868
572.50 2.168814
572.60 2.192619
572.70 2.236461
572.80 2.259565
572.90 2.308377
573.00 2.355032
573.10 2.404187
573.20 2.447736
573.30 2.537095
573.40 2.525463
573.50 2.51082
573.60 2.481053
573.70 2.382283
573.80 2.306762
573.90 2.219781
574.00 2.371004
574.10 2.438751
574.20 2.314336
574.30 2.225237
574.40 2.256168
574.50 2.26612
574.60 2.438905
574.70 2.648348
574.80 2.611526
574.90 2.663468
575.00 2.832234
575.10 2.8317
575.20 2.670165
575.30 2.678361
575.40 2.838894
575.50 2.922058
575.60 2.894266
575.70 2.895231
575.80 2.853652
575.90 2.744393
576.00 2.535154
576.10 2.409992
576.20 2.314614
576.30 2.201207
576.40 1.967933
576.50 1.843121
576.60 1.872747
576.70 1.790696
576.80 1.80466
576.90 2.012932
577.00 2.21179
577.10 2.146693
577.20 2.113122
577.30 2.261919
577.40 2.344921
577.50 2.277687
577.60 2.156039
577.70 2.16074
577.80 2.205569
577.90 2.264336
578.00 2.19407
578.10 2.207669
578.20 2.352855
578.30 2.512873
578.40 2.629957
578.50 2.693041
578.60 2.634965
578.70 2.482908
578.80 2.446513
578.90 2.507482
579.00 2.485173
579.10 2.489636
579.20 2.506324
579.30 2.543912
579.40 2.63258
579.50 2.756078
579.60 2.740195
579.70 2.702006
579.80 2.73725
579.90 2.89795
580.00 2.911832
580.10 2.85898
580.20 2.905937
580.30 2.957006
580.40 2.961432
580.50 2.939732
580.60 3.028442
580.70 3.11762
580.80 3.066775
580.90 2.96557
581.00 2.924279
581.10 2.62948
581.20 2.305085
581.30 2.231015
581.40 2.202174
581.50 2.131998
581.60 2.022769
581.70 1.965026
581.80 1.930888
581.90 1.942868
582.00 2.064231
582.10 2.011317
582.20 1.905335
582.30 1.924062
582.40 1.916801
582.50 2.046012
582.60 2.157473
582.70 2.155872
582.80 2.100781
582.90 2.216195
583.00 2.215934
583.10 2.182406
583.20 2.212324
583.30 2.260638
583.40 2.176075
583.50 2.223286
583.60 2.465842
583.70 2.502664
583.80 2.431453
583.90 2.363106
584.00 2.167673
584.10 2.024069
584.20 2.009978
584.30 2.121091
584.40 2.147438
584.50 2.128776
584.60 2.228983
584.70 2.299614
584.80 2.071585
584.90 1.674224
585.00 1.490588
585.10 1.372039
585.20 1.366266
585.30 1.420979
585.40 1.462358
585.50 1.471377
585.60 1.488803
585.70 1.472812
585.80 1.492023
585.90 1.562935
586.00 1.564127
586.10 1.633298
586.20 1.63068
586.30 1.525431
586.40 1.361989
586.50 1.300554
586.60 1.374917
586.70 1.504406
586.80 1.434486
586.90 1.340144
587.00 1.433294
587.10 1.526453
587.20 1.433561
587.30 1.362264
587.40 1.304228
587.50 1.20673
587.60 1.26965
587.70 1.389964
587.80 1.3508
587.90 1.223452
588.00 1.113902
588.10 1.09399
588.20 1.050458
588.30 0.998478
588.40 1.025032
588.50 1.004704
588.60 0.9640974
588.70 0.9267563
588.80 0.8033753
588.90 0.5892603
589.00 0.4252226
589.10 0.6570081
589.20 0.8588117
589.30 0.6732636
589.40 0.547758
589.50 0.5172862
589.60 0.6375041
589.70 0.7352155
589.80 0.7559469
589.90 0.6745164
590.00 0.7119869
590.10 0.8178249
590.20 0.7951364
590.30 0.8828174
590.40 1.000798
590.50 1.016061
590.60 0.9393111
590.70 0.8105257
590.80 0.8615326
590.90 0.9116726
591.00 0.9436752
591.10 0.9528966
591.20 1.028927
591.30 1.10425
591.40 1.041017
591.50 1.042103
591.60 1.057409
591.70 1.168219
591.80 1.235209
591.90 1.133481
592.00 1.081759
592.10 1.197371
592.20 1.266878
592.30 1.117454
592.40 1.057785
592.50 1.165797
592.60 1.165871
592.70 1.138768
592.80 1.164567
592.90 1.224694
593.00 1.214944
593.10 1.148616
593.20 1.162999
593.30 1.221443
593.40 1.312264
593.50 1.4151
593.60 1.404334
593.70 1.238467
593.80 1.164376
593.90 1.339343
594.00 1.47206
594.10 1.463082
594.20 1.48333
594.30 1.443828
594.40 1.477009
594.50 1.591522
594.60 1.614438
594.70 1.512753
594.80 1.428333
594.90 1.476766
595.00 1.373173
595.10 1.293017
595.20 1.323872
595.30 1.449361
595.40 1.462696
595.50 1.387589
595.60 1.330971
595.70 1.177076
595.80 1.130371
595.90 1.167516
596.00 1.230979
596.10 1.266893
596.20 1.338464
596.30 1.36545
596.40 1.357617
596.50 1.305775
596.60 1.333166
596.70 1.378062
596.80 1.402607
596.90 1.420347
597.00 1.39995
597.10 1.442598
597.20 1.511553
597.30 1.503952
597.40 1.421986
597.50 1.37321
597.60 1.422177
597.70 1.449043
597.80 1.479299
597.90 1.412239
598.00 1.371186
598.10 1.32896
598.20 1.462352
598.30 1.53832
598.40 1.518418
598.50 1.506007
598.60 1.563694
598.70 1.633873
598.80 1.561882
598.90 1.520668
599.00 1.530172
599.10 1.545634
599.20 1.537651
599.30 1.607481
599.40 1.706124
599.50 1.822133
599.60 1.903261
599.70 1.906831
599.80 1.857549
599.90 1.722734
600.00 1.641794
600.10 1.609067
600.20 1.589578
600.30 1.627831
600.40 1.654847
600.50 1.678231
600.60 1.644906
600.70 1.607569
600.80 1.515011
600.90 1.463053
601.00 1.547162
601.10 1.67182
601.20 1.722692
601.30 1.733332
601.40 1.693953
601.50 1.656858
601.60 1.682967
601.70 1.756966
601.80 1.756659
601.90 1.763509
602.00 1.835603
602.10 1.934698
602.20 1.921737
602.30 1.904727
602.40 1.826333
602.50 1.806208
602.60 1.842593
602.70 1.908045
602.80 1.967781
602.90 1.947886
603.00 1.864505
603.10 1.889518
603.20 1.945892
603.30 1.981337
603.40 1.959073
603.50 1.939367
603.60 1.947017
603.70 1.832008
603.80 1.771638
603.90 1.849265
604.00 1.906666
604.10 1.962999
604.20 2.014288
604.30 2.083514
604.40 2.026563
604.50 2.002227
604.60 2.099247
604.70 2.091856
604.80 2.054518
604.90 2.130579
605.00 2.282609
605.10 2.309052
605.20 2.23021
605.30 2.244313
605.40 2.241027
605.50 2.204303
605.60 2.23908
605.70 2.236884
605.80 2.227173
605.90 2.27582
606.00 2.402918
606.10 2.39013
606.20 2.336743
606.30 2.312302
606.40 2.260045
606.50 2.184041
606.60 2.125521
606.70 2.0752
606.80 2.084906
606.90 2.22991
607.00 2.372454
607.10 2.404552
607.20 2.368099
607.30 2.389648
607.40 2.33773
607.50 2.300363
607.60 2.325552
607.70 2.42376
607.80 2.47683
607.90 2.437465
608.00 2.33138
608.10 2.148689
608.20 2.053523
608.30 2.023778
608.40 2.031304
608.50 2.137615
608.60 2.257813
608.70 2.277752
608.80 2.239568
608.90 2.283227
609.00 2.373039
609.10 2.331919
609.20 2.279057
609.30 2.299275
609.40 2.434195
609.50 2.43812
609.60 2.4202
609.70 2.446006
609.80 2.429047
609.90 2.430888
610.00 2.50694
610.10 2.490194
610.20 2.347348
610.30 2.199364
610.40 2.231828
610.50 2.240356
610.60 2.266949
610.70 2.345662
610.80 2.458422
610.90 2.446769
611.00 2.338702
611.10 2.275861
611.20 2.251219
611.30 2.258946
611.40 2.32883
611.50 2.328976
611.60 2.308616
611.70 2.206333
611.80 2.095752
611.90 2.044183
612.00 2.073957
612.10 2.135752
612.20 2.126941
612.30 2.084672
612.40 2.084632
612.50 2.08705
612.60 2.151755
612.70 2.24053
612.80 2.285277
612.90 2.287344
613.00 2.250239
613.10 2.23852
613.20 2.291042
613.30 2.216662
613.40 2.075391
613.50 2.054424
613.60 2.142475
613.70 2.228274
613.80 2.265142
613.90 2.263491
614.00 2.25235
614.10 2.20673
614.20 2.12086
614.30 2.075044
614.40 2.112206
614.50 2.18141
614.60 2.23094
614.70 2.161349
614.80 1.930342
614.90 1.81047
615.00 1.739876
615.10 1.709574
615.20 1.690421
615.30 1.712138
615.40 1.749279
615.50 1.75578
615.60 1.802565
615.70 1.669051
615.80 1.523578
615.90 1.498099
616.00 1.410074
616.10 1.218599
616.20 1.095671
616.30 1.074786
616.40 1.090823
616.50 1.119782
616.60 1.157966
616.70 1.179252
616.80 1.154711
616.90 1.188578
617.00 1.182651
617.10 1.217185
617.20 1.155745
617.30 1.0907
617.40 1.110469
617.50 1.044147
617.60 1.006354
617.70 1.086261
617.80 1.138479
617.90 1.114982
618.00 1.184036
618.10 1.231887
618.20 1.283255
618.30 1.262049
618.40 1.147225
618.50 1.089884
618.60 1.068604
618.70 1.033105
618.80 0.9458006
618.90 0.9153916
619.00 0.9391228
619.10 0.9328778
619.20 0.9653883
619.30 0.9477985
619.40 0.943913
619.50 0.9639601
619.60 0.9995443
619.70 1.008739
619.80 0.9977034
619.90 1.008133
620.00 1.003956
620.10 1.006753
620.20 1.038501
620.30 1.096186
620.40 1.052288
620.50 1.064522
620.60 1.141096
620.70 1.164136
620.80 1.114912
620.90 1.076246
621.00 1.093934
621.10 1.060177
621.20 1.036086
621.30 1.065611
621.40 1.014471
621.50 0.9599486
621.60 0.9555501
621.70 0.9653605
621.80 1.000419
621.90 1.007001
622.00 0.9774478
622.10 1.034926
622.20 1.043789
622.30 1.001433
622.40 0.9273742
622.50 0.9288304
622.60 0.9370581
622.70 0.9223763
622.80 0.8722547
622.90 0.850036
623.00 0.9181222
623.10 0.949209
623.20 0.9663615
623.30 1.007741
623.40 0.954436
623.50 0.8816428
623.60 0.9619622
623.70 1.036744
623.80 1.064021
623.90 1.100734
624.00 1.048578
624.10 0.9516971
624.20 0.9715418
624.30 1.071324
624.40 1.048398
624.50 0.9604301
624.60 0.9422321
624.70 0.9994083
624.80 1.054664
624.90 1.106314
625.00 1.105834
625.10 1.112792
625.20 1.094287
625.30 1.105946
625.40 1.129176
625.50 1.082675
625.60 1.095627
625.70 1.128628
625.80 1.160438
625.90 1.123063
626.00 1.113505
626.10 1.09716
626.20 1.096866
626.30 1.208833
626.40 1.31113
626.50 1.319397
626.60 1.308126
626.70 1.339362
626.80 1.399519
626.90 1.374729
627.00 1.340043
627.10 1.326984
627.20 1.286764
627.30 1.263033
627.40 1.312205
627.50 1.430737
627.60 1.418327
627.70 1.342197
627.80 1.271587
627.90 1.25984
628.00 1.277488
628.10 1.375801
628.20 1.47123
628.30 1.445358
628.40 1.441193
628.50 1.554314
628.60 1.618524
628.70 1.595632
628.80 1.5793
628.90 1.723108
629.00 1.793678
629.10 1.687888
629.20 1.568332
629.30 1.589191
629.40 1.6913
629.50 1.743724
629.60 1.738594
629.70 1.722476
629.80 1.792071
629.90 1.722506
630.00 1.602047
630.10 1.697927
630.20 2.076128
630.30 2.383427
630.40 2.132184
630.50 1.974847
630.60 1.988687
630.70 2.083861
630.80 2.242874
630.90 2.290846
631.00 2.297259
631.10 2.257624
631.20 2.285517
631.30 2.370041
631.40 2.466817
631.50 2.549948
631.60 2.557703
631.70 2.584744
631.80 2.684123
631.90 2.716075
632.00 2.663701
632.10 2.633661
632.20 2.598535
632.30 2.538162
632.40 2.490934
632.50 2.499641
632.60 2.566895
632.70 2.638075
632.80 2.68442
632.90 2.71569
633.00 2.729959
633.10 2.791602
633.20 2.866975
633.30 2.903442
633.40 2.907746
633.50 2.937369
633.60 2.97165
633.70 3.000848
633.80 3.062103
633.90 3.120441
634.00 3.136451
634.10 3.173402
634.20 3.226656
634.30 3.298466
634.40 3.384172
634.50 3.41315
634.60 3.427714
634.70 3.42875
634.80 3.419312
634.90 3.521912
635.00 3.573611
635.10 3.513321
635.20 3.421143
635.30 3.328622
635.40 3.191959
635.50 3.052648
635.60 3.003151
635.70 2.947065
635.80 2.910126
635.90 2.923625
636.00 2.944709
636.10 2.868252
636.20 2.746137
636.30 2.697787
636.40 2.842086
636.50 3.082638
636.60 3.192683
636.70 3.069351
636.80 2.84387
636.90 2.827679
637.00 2.982746
637.10 3.070024
637.20 3.041566
637.30 3.063283
637.40 3.160267
637.50 3.163941
637.60 3.090062
637.70 3.061373
637.80 3.058875
637.90 3.064118
638.00 2.982551
638.10 2.82741
638.20 2.738905
638.30 2.690144
638.40 2.652704
638.50 2.674056
638.60 2.712174
638.70 2.71706
638.80 2.690115
638.90 2.652537
639.00 2.662304
639.10 2.718673
639.20 2.821145
639.30 2.933513
639.40 2.976153
639.50 3.082337
639.60 3.260721
639.70 3.424919
639.80 3.503855
639.90 3.456438
640.00 3.422531
640.10 3.413182
640.20 3.447594
640.30 3.556916
640.40 3.60641
640.50 3.651292
640.60 3.715196
640.70 3.767933
640.80 3.800959
640.90 3.794793
641.00 3.788408
641.10 3.777973
641.20 3.79263
641.30 3.78554
641.40 3.783496
641.50 3.757115
641.60 3.695748
641.70 3.611607
641.80 3.562039
641.90 3.49938
642.00 3.419828
642.10 3.38276
642.20 3.357985
642.30 3.285592
642.40 3.217153
642.50 3.27485
642.60 3.381288
642.70 3.425552
642.80 3.421683
642.90 3.418927
643.00 3.492607
643.10 3.603102
643.20 3.646292
643.30 3.64216
643.40 3.630428
643.50 3.657421
643.60 3.729461
643.70 3.741204
643.80 3.709584
643.90 3.655305
644.00 3.642849
644.10 3.712228
644.20 3.820757
644.30 3.933487
644.40 4.074149
644.50 4.182382
644.60 4.181281
644.70 4.094627
644.80 3.953678
644.90 3.830423
645.00 3.754734
645.10 3.757179
645.20 3.818054
645.30 3.87444
645.40 3.962658
645.50 4.009884
645.60 4.07767
645.70 4.096385
645.80 4.088087
645.90 4.115483
646.00 4.117535
646.10 4.084749
646.20 4.064501
646.30 4.063282
646.40 4.076875
646.50 4.130057
646.60 4.261326
646.70 4.436783
646.80 4.517501
646.90 4.522775
647.00 4.567725
647.10 4.652087
647.20 4.685524
647.30 4.659773
647.40 4.65636
647.50 4.718134
647.60 4.839307
647.70 4.888252
647.80 4.861169
647.90 4.731403
648.00 4.53066
648.10 4.304338
648.20 4.209458
648.30 4.203655
648.40 4.196499
648.50 4.162433
648.60 4.053401
648.70 3.974347
648.80 4.02804
648.90 4.187071
649.00 4.352617
649.10 4.46807
649.20 4.467276
649.30 4.391539
649.40 4.341794
649.50 4.362891
649.60 4.401869
649.70 4.475524
649.80 4.60357
649.90 4.726082
650.00 4.73337
650.10 4.867722
650.20 4.989856
650.30 5.049424
650.40 5.109251
650.50 5.169268
650.60 5.276995
650.70 5.361525
650.80 5.405878
650.90 5.446176
651.00 5.516546
651.10 5.636773
651.20 5.688063
651.30 5.556477
651.40 5.401117
651.50 5.294121
651.60 5.284641
651.70 5.352985
651.80 5.535788
651.90 5.700657
652.00 5.802213
652.10 5.91346
652.20 6.005891
652.30 6.077181
652.40 6.152535
652.50 6.206156
652.60 6.201815
652.70 6.226752
652.80 6.3776
652.90 6.533158
653.00 6.574896
653.10 6.530027
653.20 6.54147
653.30 6.637301
653.40 6.73991
653.50 6.893976
653.60 6.966934
653.70 7.000768
653.80 7.148749
653.90 7.292505
654.00 7.390109
654.10 7.493738
654.20 7.523498
654.30 7.377328
654.40 7.118624
654.50 6.835685
654.60 6.598834
654.70 6.442817
654.80 6.324436
654.90 6.223182
655.00 6.135965
655.10 5.943126
655.20 5.694896
655.30 5.572373
655.40 5.587287
655.50 5.658939
655.60 5.655871
655.70 5.740522
655.80 5.883343
655.90 5.960209
656.00 6.106354
656.10 6.668395
656.20 7.981716
656.30 9.781179
656.40 11.13815
656.50 10.91896
656.60 9.164189
656.70 6.905784
656.80 5.450905
656.90 4.977675
657.00 4.931253
657.10 4.925744
657.20 4.785097
657.30 4.619259
657.40 4.516234
657.50 4.564909
657.60 4.734126
657.70 4.890952
657.80 4.921049
657.90 4.759529
658.00 4.541699
658.10 4.399855
658.20 4.354829
658.30 4.388112
658.40 4.558934
658.50 4.764064
658.60 4.94821
658.70 5.096116
658.80 5.220468
658.90 5.347717
659.00 5.371688
659.10 5.325834
659.20 5.285671
659.30 5.145972
659.40 4.919832
659.50 4.685754
659.60 4.54446
659.70 4.524342
659.80 4.543782
659.90 4.601422
660.00 4.628576
660.10 4.612185
660.20 4.580728
660.30 4.610569
660.40 4.683771
660.50 4.715651
660.60 4.705371
660.70 4.659298
660.80 4.59669
660.90 4.613198
661.00 4.633561
661.10 4.676447
661.20 4.750967
661.30 4.855026
661.40 4.932878
661.50 4.9139
661.60 4.921893
661.70 4.840059
661.80 4.697575
661.90 4.553608
662.00 4.395898
662.10 4.306035
662.20 4.276431
662.30 4.239648
662.40 4.171329
662.50 4.097326
662.60 3.986371
662.70 3.80763
662.80 3.608344
662.90 3.601796
663.00 3.798252
663.10 4.022935
663.20 4.214297
663.30 4.317739
663.40 4.286775
663.50 4.131508
663.60 3.904062
663.70 3.680826
663.80 3.464808
663.90 3.374244
664.00 3.455032
664.10 3.564174
664.20 3.697641
664.30 3.803706
664.40 3.9071
664.50 3.966301
664.60 3.992186
664.70 4.009488
664.80 3.968448
664.90 3.842265
665.00 3.628347
665.10 3.357293
665.20 3.076137
665.30 2.862226
665.40 2.773218
665.50 2.770897
665.60 2.841968
665.70 2.921437
665.80 2.975184
665.90 2.995338
666.00 2.96513
666.10 3.015169
666.20 3.083715
666.30 3.14534
666.40 3.215729
666.50 3.273523
666.60 3.361045
666.70 3.477252
666.80 3.598906
666.90 3.618675
667.00 3.5971
667.10 3.61274
667.20 3.640316
667.30 3.682806
667.40 3.650739
667.50 3.609675
667.60 3.587835
667.70 3.609842
667.80 3.650779
667.90 3.610216
668.00 3.478129
668.10 3.238122
668.20 2.906611
668.30 2.624234
668.40 2.526732
668.50 2.576126
668.60 2.649942
668.70 2.711024
668.80 2.782663
668.90 2.861147
669.00 2.897184
669.10 2.912094
669.20 2.887297
669.30 2.831588
669.40 2.842171
669.50 2.876747
669.60 2.884971
669.70 2.94711
669.80 3.046934
669.90 3.090757
670.00 3.069444
670.10 3.057901
670.20 3.070201
670.30 3.107971
670.40 3.199933
670.50 3.277908
670.60 3.309252
670.70 3.334087
670.80 3.392371
670.90 3.492789
671.00 3.497035
671.10 3.427918
671.20 3.359613
671.30 3.299945
671.40 3.234634
671.50 3.107325
671.60 2.900044
671.70 2.695769
671.80 2.520797
671.90 2.371028
672.00 2.289177
672.10 2.278941
672.20 2.336324
672.30 2.420768
672.40 2.487852
672.50 2.504307
672.60 2.557429
672.70 2.631096
672.80 2.629474
672.90 2.641427
673.00 2.715004
673.10 2.778413
673.20 2.762087
673.30 2.706174
673.40 2.685416
673.50 2.726846
673.60 2.759592
673.70 2.831754
673.80 2.9183
673.90 2.96705
674.00 3.005
674.10 3.02962
674.20 3.062582
674.30 3.132527
674.40 3.220982
674.50 3.230821
674.60 3.181629
674.70 3.09574
674.80 2.929526
674.90 2.744002
675.00 2.603889
675.10 2.529907
675.20 2.575591
675.30 2.664185
675.40 2.73081
675.50 2.754636
675.60 2.806202
675.70 2.862655
675.80 2.900772
675.90 2.926705
676.00 2.91869
676.10 2.896445
676.20 2.892216
676.30 2.971286
676.40 3.10764
676.50 3.170205
676.60 3.236247
676.70 3.332642
676.80 3.362955
676.90 3.376274
677.00 3.40097
677.10 3.415621
677.20 3.415318
677.30 3.428226
677.40 3.435013
677.50 3.469051
677.60 3.594153
677.70 3.671384
677.80 3.684263
677.90 3.661141
678.00 3.620221
678.10 3.524924
678.20 3.323455
678.30 3.124451
678.40 2.909722
678.50 2.728234
678.60 2.647503
678.70 2.634115
678.80 2.6533
678.90 2.662548
679.00 2.728004
679.10 2.807626
679.20 2.836256
679.30 2.867368
679.40 2.887022
679.50 2.923872
679.60 2.989336
679.70 3.048027
679.80 3.071664
679.90 3.065047
680.00 3.104565
680.10 3.158605
680.20 3.225809
680.30 3.307238
680.40 3.344914
680.50 3.308137
680.60 3.224515
680.70 3.143176
680.80 3.150745
680.90 3.285622
681.00 3.366996
681.10 3.391
681.20 3.441162
681.30 3.485076
681.40 3.513876
681.50 3.476811
681.60 3.375882
681.70 3.246092
681.80 3.19481
681.90 3.196067
682.00 3.219155
682.10 3.287313
682.20 3.318251
682.30 3.288669
682.40 3.252201
682.50 3.260868
682.60 3.322548
682.70 3.364179
682.80 3.359607
682.90 3.422149
683.00 3.624307
683.10 3.728114
683.20 3.634123
683.30 3.505483
683.40 3.466784
683.50 3.56883
683.60 3.619233
683.70 3.575278
683.80 3.489379
683.90 3.415199
684.00 3.467556
684.10 3.572238
684.20 3.610378
684.30 3.608797
684.40 3.663765
684.50 3.750211
684.60 3.76587
684.70 3.697329
684.80 3.616928
684.90 3.61683
685.00 3.617117
685.10 3.535197
685.20 3.366549
685.30 3.226413
685.40 3.197556
685.50 3.217055
685.60 3.267672
685.70 3.291897
685.80 3.308997
685.90 3.366977
686.00 3.367155
686.10 3.316211
686.20 3.272846
686.30 3.256591
686.40 3.304949
686.50 3.379238
686.60 3.479303
686.70 3.599071
686.80 3.614741
686.90 3.427351
687.00 3.293854
687.10 3.37768
687.20 3.511111
687.30 3.581494
687.40 3.634041
687.50 3.748251
687.60 3.845121
687.70 3.891309
687.80 3.943962
687.90 3.975898
688.00 4.00956
688.10 3.972302
688.20 3.913395
688.30 3.901332
688.40 3.871019
688.50 3.807211
688.60 3.664345
688.70 3.545547
688.80 3.614313
688.90 3.818297
689.00 3.979919
689.10 4.019446
689.20 3.888833
689.30 3.765425
689.40 3.828806
689.50 3.983741
689.60 4.124141
689.70 4.164174
689.80 4.109534
689.90 4.068878
690.00 4.032891
690.10 3.924907
690.20 3.763323
690.30 3.635676
690.40 3.684912
690.50 3.879476
690.60 4.088068
690.70 4.27964
690.80 4.416794
690.90 4.552845
691.00 4.645516
691.10 4.640171
691.20 4.605142
691.30 4.583254
691.40 4.655487
691.50 4.738851
691.60 4.752824
691.70 4.652393
691.80 4.432359
691.90 4.143953
692.00 3.873771
692.10 3.814244
692.20 3.98933
692.30 4.261477
692.40 4.527449
692.50 4.79769
692.60 5.014301
692.70 5.044966
692.80 4.966575
692.90 4.883321
693.00 4.907307
693.10 5.027288
693.20 5.19284
693.30 5.365727
693.40 5.459932
693.50 5.462221
693.60 5.413857
693.70 5.396736
693.80 5.433215
693.90 5.476898
694.00 5.52364
694.10 5.573742
694.20 5.699838
694.30 5.932755
694.40 6.15603
694.50 6.330361
694.60 6.479097
694.70 6.596439
694.80 6.716123
694.90 6.864061
695.00 6.949566
695.10 6.922864
695.20 6.720571
695.30 6.478557
695.40 6.261824
695.50 6.107835
695.60 6.093084
695.70 6.112226
695.80 6.166705
695.90 6.196025
696.00 6.221723
696.10 6.229189
696.20 6.239528
696.30 6.312605
696.40 6.413766
696.50 6.545291
696.60 6.676131
696.70 6.775322
696.80 6.832313
696.90 6.841898
697.00 6.800952
697.10 6.700438
697.20 6.603137
697.30 6.519034
697.40 6.518342
697.50 6.652754
697.60 6.877692
697.70 7.092142
697.80 7.218927
697.90 7.308677
698.00 7.356889
698.10 7.345735
698.20 7.302751
698.30 7.31755
698.40 7.433401
698.50 7.57074
698.60 7.614474
698.70 7.556491
698.80 7.513612
698.90 7.471369
699.00 7.436674
699.10 7.335562
699.20 7.189149
699.30 7.1446
699.40 7.149359
699.50 7.1607
699.60 7.253503
699.70 7.371727
699.80 7.441174
699.90 7.462021
700.00 7.427989
700.10 7.438128
700.20 7.531805
700.30 7.642946
700.40 7.715392
700.50 7.665744
700.60 7.523415
700.70 7.510162
700.80 7.679079
700.90 7.918716
701.00 8.057714
701.10 8.042972
701.20 8.03303
701.30 8.168515
701.40 8.446441
701.50 8.648149
701.60 8.642874
701.70 8.524938
701.80 8.457439
701.90 8.497405
702.00 8.627359
702.10 8.828379
702.20 9.022764
702.30 9.013258
702.40 8.712044
702.50 8.322738
702.60 8.121999
702.70 8.25736
702.80 8.643926
702.90 9.201269
703.00 9.783897
703.10 10.06315
703.20 9.995483
703.30 9.847916
703.40 9.8249
703.50 10.05556
703.60 10.49784
703.70 10.89927
703.80 11.06399
703.90 11.00679
704.00 10.89875
704.10 10.98717
704.20 11.27013
704.30 11.5527
704.40 11.72635
704.50 11.7916
704.60 11.81578
704.70 11.86855
704.80 11.93538
704.90 11.96978
705.00 11.94144
705.10 11.87485
705.20 11.81006
705.30 11.56439
705.40 10.67075
705.50 8.974927
705.60 6.934676
705.70 5.3494
705.80 4.654977
705.90 4.626449
706.00 4.682615
706.10 4.532006
706.20 4.2938
706.30 4.18195
706.40 4.302299
706.50 4.517589
706.60 4.702019
706.70 4.845805
706.80 4.931894
706.90 5.050801
707.00 5.22127
707.10 5.366963
707.20 5.496418
707.30 5.611132
707.40 5.736107
707.50 5.810567
707.60 5.776255
707.70 5.742649
707.80 5.795928
707.90 5.903508
708.00 6.010379
708.10 6.113646
708.20 6.180857
708.30 6.224516
708.40 6.298742
708.50 6.396857
708.60 6.410947
708.70 6.143953
708.80 5.473089
708.90 4.536239
709.00 3.673491
709.10 3.201618
709.20 3.169767
709.30 3.321135
709.40 3.439479
709.50 3.415024
709.60 3.335764
709.70 3.332493
709.80 3.412731
709.90 3.537887
710.00 3.629464
710.10 3.698438
710.20 3.745658
710.30 3.75636
710.40 3.74513
710.50 3.749091
710.60 3.834073
710.70 4.012244
710.80 4.270702
710.90 4.551639
711.00 4.762774
711.10 4.917957
711.20 5.049662
711.30 5.136386
711.40 5.141815
711.50 5.048319
711.60 4.960499
711.70 4.931664
711.80 4.980647
711.90 5.129149
712.00 5.338753
712.10 5.561959
712.20 5.733632
712.30 5.784321
712.40 5.68281
712.50 5.332794
712.60 4.583417
712.70 3.626904
712.80 2.861395
712.90 2.503234
713.00 2.544165
713.10 2.716791
713.20 2.768455
713.30 2.684922
713.40 2.60579
713.50 2.602054
713.60 2.679167
713.70 2.811838
713.80 2.934535
713.90 2.944813
714.00 2.910933
714.10 2.9414
714.20 3.03985
714.30 3.199518
714.40 3.340345
714.50 3.385363
714.60 3.358534
714.70 3.34889
714.80 3.382682
714.90 3.469444
715.00 3.55333
715.10 3.578262
715.20 3.602307
715.30 3.662819
715.40 3.757387
715.50 3.914138
715.60 4.094261
715.70 4.182825
715.80 4.135138
715.90 3.97893
716.00 3.764273
716.10 3.570342
716.20 3.510422
716.30 3.584687
716.40 3.685299
716.50 3.705541
716.60 3.666303
716.70 3.68486
716.80 3.742705
716.90 3.78757
717.00 3.853672
717.10 3.936854
717.20 4.095243
717.30 4.256735
717.40 4.325652
717.50 4.329855
717.60 4.284261
717.70 4.264023
717.80 4.277985
717.90 4.325104
718.00 4.404809
718.10 4.509336
718.20 4.62633
718.30 4.704948
718.40 4.806814
718.50 4.940066
718.60 5.08495
718.70 5.214187
718.80 5.289835
718.90 5.343497
719.00 5.38495
719.10 5.387077
719.20 5.35813
719.30 5.354677
719.40 5.406323
719.50 5.459037
719.60 5.39032
719.70 5.164328
719.80 4.811273
719.90 4.462183
720.00 4.331853
720.10 4.364521
720.20 4.40416
720.30 4.420437
720.40 4.380027
720.50 4.361853
720.60 4.413135
720.70 4.412749
720.80 4.458384
720.90 4.596134
721.00 4.718564
721.10 4.788361
721.20 4.821906
721.30 4.896779
721.40 5.009907
721.50 5.080976
721.60 5.114139
721.70 5.196478
721.80 5.326108
721.90 5.425319
722.00 5.473145
722.10 5.492206
722.20 5.542933
722.30 5.632706
722.40 5.754536
722.50 5.937045
722.60 6.077312
722.70 6.183414
722.80 6.3129
722.90 6.368856
723.00 6.313079
723.10 6.153417
723.20 5.925243
723.30 5.79484
723.40 5.874701
723.50 6.130811
723.60 6.41408
723.70 6.590459
723.80 6.679926
723.90 6.751892
724.00 6.768396
724.10 6.744684
724.20 6.752645
724.30 6.77677
724.40 6.888977
724.50 7.087126
724.60 7.288797
724.70 7.353584
724.80 7.362686
724.90 7.580673
725.00 7.838047
725.10 7.989175
725.20 7.971939
725.30 7.858118
725.40 7.835708
725.50 7.949095
725.60 8.142174
725.70 8.310826
725.80 8.359392
725.90 8.321446
726.00 8.284564
726.10 8.32923
726.20 8.484441
726.30 8.723232
726.40 8.982368
726.50 9.098063
726.60 9.097241
726.70 9.118699
726.80 9.185574
726.90 9.2637
727.00 9.20811
727.10 8.896586
727.20 8.445143
727.30 8.179046
727.40 8.323992
727.50 8.743778
727.60 9.085959
727.70 9.233812
727.80 9.191104
727.90 9.015965
728.00 8.815336
728.10 8.735845
728.20 8.88398
728.30 9.129592
728.40 9.333793
728.50 9.461728
728.60 9.568294
728.70 9.754485
728.80 9.909735
728.90 9.970328
729.00 10.08684
729.10 10.20792
729.20 10.26758
729.30 10.28392
729.40 10.29987
729.50 10.3845
729.60 10.54685
729.70 10.74666
729.80 10.89849
729.90 10.97514
730.00 10.93596
730.10 10.86427
730.20 11.0306
730.30 11.35274
730.40 11.5383
730.50 11.56319
730.60 11.59335
730.70 11.6841
730.80 11.78763
730.90 11.91142
731.00 12.03645
731.10 12.09797
731.20 12.07493
731.30 12.11378
731.40 12.32295
731.50 12.5816
731.60 12.72289
731.70 12.75825
731.80 12.84326
731.90 12.96131
732.00 12.95
732.10 12.90538
732.20 12.99829
732.30 13.18369
732.40 13.29706
732.50 13.21619
732.60 13.00804
732.70 12.78668
732.80 12.62972
732.90 12.78005
733.00 13.23814
733.10 13.65854
733.20 13.80032
733.30 13.70479
733.40 13.68676
733.50 13.87207
733.60 14.12219
733.70 14.35264
733.80 14.55115
733.90 14.76241
734.00 14.98744
734.10 15.04127
734.20 14.96856
734.30 14.90901
734.40 14.57345
734.50 13.95559
734.60 13.59294
734.70 13.69164
734.80 13.99012
734.90 14.27935
735.00 14.51942
735.10 14.71451
735.20 14.83269
735.30 14.85781
735.40 14.85256
735.50 14.77997
735.60 14.57575
735.70 14.35027
735.80 14.24427
735.90 14.42978
736.00 14.80968
736.10 15.1005
736.20 15.21701
736.30 15.1805
736.40 15.1985
736.50 15.37565
736.60 15.58483
736.70 15.77947
736.80 15.90113
736.90 15.95144
737.00 16.09287
737.10 16.27406
737.20 16.31748
737.30 16.19781
737.40 15.98747
737.50 15.82744
737.60 15.79398
737.70 15.79521
737.80 15.88014
737.90 16.07362
738.00 16.28622
738.10 16.44954
738.20 16.46894
738.30 16.36221
738.40 16.28033
738.50 16.33779
738.60 16.51493
738.70 16.67156
738.80 16.76145
738.90 16.8748
739.00 17.0363
739.10 17.15081
739.20 17.08342
739.30 16.80155
739.40 16.44703
739.50 16.19808
739.60 16.15243
739.70 16.27359
739.80 16.45589
739.90 16.64228
740.00 16.75243
740.10 16.80325
740.20 16.9121
740.30 17.03746
740.40 17.09813
740.50 16.97113
740.60 16.59565
740.70 16.19246
740.80 16.03483
740.90 16.21217
741.00 16.57429
741.10 16.94029
741.20 17.16368
741.30 17.2183
741.40 17.23391
741.50 17.29159
741.60 17.32533
741.70 17.19422
741.80 16.87286
741.90 16.48654
742.00 16.29132
742.10 16.35224
742.20 16.53894
742.30 16.7778
742.40 16.96362
742.50 17.07229
742.60 17.1848
742.70 17.2818
742.80 17.36429
742.90 17.46928
743.00 17.51336
743.10 17.53224
743.20 17.59092
743.30 17.57731
743.40 17.43456
743.50 17.1895
743.60 16.85654
743.70 16.67342
743.80 16.83002
743.90 17.2238
744.00 17.64485
744.10 17.80672
744.20 17.66199
744.30 17.33343
744.40 17.04408
744.50 16.93943
744.60 16.94239
744.70 16.94389
744.80 16.90908
744.90 16.85136
745.00 16.80836
745.10 16.90449
745.20 17.1103
745.30 17.29204
745.40 17.38531
745.50 17.30298
745.60 17.13274
745.70 17.05582
745.80 17.10766
745.90 17.21025
746.00 17.27728
746.10 17.30962
746.20 17.3473
746.30 17.38652
746.40 17.44983
746.50 17.53353
746.60 17.60262
746.70 17.62853
746.80 17.58263
746.90 17.58926
747.00 17.81422
747.10 18.17909
747.20 18.42208
747.30 18.25049
747.40 17.75444
747.50 17.3683
747.60 17.26698
747.70 17.5167
747.80 17.91006
747.90 18.06324
748.00 17.99684
748.10 17.87154
748.20 17.75142
748.30 17.84922
748.40 18.15928
748.50 18.34279
748.60 18.35145
748.70 18.20042
748.80 17.95178
748.90 17.83637
749.00 17.92774
749.10 18.11796
749.20 18.24879
749.30 18.21482
749.40 17.99762
749.50 17.70723
749.60 17.55325
749.70 17.64185
749.80 17.953
749.90 18.41313
750.00 18.8644
750.10 19.14051
750.20 19.21452
750.30 19.16051
750.40 19.1049
750.50 19.09085
750.60 18.98998
750.70 18.70162
750.80 18.42779
750.90 18.51558
751.00 18.99694
751.10 19.51585
751.20 19.69714
751.30 19.4802
751.40 19.13197
751.50 19.01693
751.60 19.20256
751.70 19.49272
751.80 19.62005
751.90 19.47306
752.00 19.18979
752.10 18.94098
752.20 18.97249
752.30 19.24913
752.40 19.49523
752.50 19.57987
752.60 19.31536
752.70 18.74766
752.80 18.2699
752.90 18.11224
753.00 18.36119
753.10 18.90789
753.20 19.45442
753.30 19.83903
753.40 19.90038
753.50 19.62506
753.60 19.35309
753.70 19.37774
753.80 19.72517
753.90 20.21189
754.00 20.63108
754.10 20.89772
754.20 20.96608
754.30 20.87309
754.40 20.81373
754.50 20.85617
754.60 20.92628
754.70 20.92273
754.80 20.73624
754.90 20.53351
755.00 20.53717
755.10 20.71898
755.20 20.89426
755.30 20.90885
755.40 20.79102
755.50 20.66045
755.60 20.60178
755.70 20.65812
755.80 20.79582
755.90 20.95036
756.00 21.09865
756.10 21.21068
756.20 21.20781
756.30 21.04686
756.40 20.8211
756.50 20.617
756.60 20.35959
756.70 20.02956
756.80 19.70287
756.90 19.48103
757.00 19.56318
757.10 19.99549
757.20 20.59236
757.30 21.18028
757.40 21.58357
757.50 21.71333
757.60 21.55899
757.70 21.23205
757.80 20.92695
757.90 20.76137
758.00 20.80217
758.10 21.12836
758.20 21.6482
758.30 22.15383
758.40 22.46343
758.50 22.47604
758.60 22.29083
758.70 21.87024
758.80 20.92715
758.90 19.30342
759.00 17.05158
759.10 14.76683
759.20 13.23733
759.30 12.76929
759.40 13.18377
759.50 13.88181
759.60 14.36574
759.70 14.48711
759.80 14.48758
759.90 14.65926
760.00 14.96743
760.10 15.20334
760.20 15.0798
760.30 14.67679
760.40 14.51668
760.50 14.67099
760.60 14.91426
760.70 15.11872
760.80 15.14453
760.90 15.02637
761.00 14.90723
761.10 14.99194
761.20 15.42234
761.30 16.20213
761.40 16.94111
761.50 17.20635
761.60 17.11452
761.70 16.99262
761.80 17.18736
761.90 17.69815
762.00 18.12294
762.10 18.17431
762.20 17.93615
762.30 17.6191
762.40 17.3809
762.50 17.34006
762.60 17.14619
762.70 16.40726
762.80 15.11758
762.90 13.52466
763.00 12.19608
763.10 11.40245
763.20 11.10497
763.30 11.28532
763.40 11.78066
763.50 12.20653
763.60 12.26526
763.70 12.11815
763.80 12.04608
763.90 12.19449
764.00 12.28151
764.10 12.0622
764.20 11.94484
764.30 12.17806
764.40 12.39411
764.50 12.34498
764.60 12.12308
764.70 12.00774
764.80 12.22681
764.90 12.38392
765.00 12.16624
765.10 11.84081
765.20 11.60461
765.30 11.56832
765.40 11.56717
765.50 11.25785
765.60 10.83774
765.70 10.58714
765.80 10.50001
765.90 10.37716
766.00 9.83141
766.10 8.85831
766.20 7.722001
766.30 6.606427
766.40 5.568235
766.50 4.54232
766.60 3.711291
766.70 3.397041
766.80 3.675333
766.90 4.445083
767.00 5.332484
767.10 5.949212
767.20 6.275342
767.30 6.4103
767.40 6.527979
767.50 6.775667
767.60 7.134049
767.70 7.522734
767.80 7.840477
767.90 8.046626
768.00 8.218675
768.10 8.450084
768.20 8.708707
768.30 8.884554
768.40 8.97885
768.50 9.010234
768.60 9.011067
768.70 9.066949
768.80 9.182327
768.90 9.291396
769.00 9.300708
769.10 9.226214
769.20 9.170032
769.30 9.063681
769.40 8.828467
769.50 8.460053
769.60 7.926328
769.70 7.160377
769.80 6.136107
769.90 5.032438
770.00 4.201745
770.10 3.960994
770.20 4.398619
770.30 5.299122
770.40 6.273397
770.50 7.058921
770.60 7.554661
770.70 7.801876
770.80 7.970712
770.90 8.18768
771.00 8.52865
771.10 8.946133
771.20 9.340983
771.30 9.669845
771.40 9.869044
771.50 9.944608
771.60 9.946294
771.70 9.871517
771.80 9.866107
771.90 10.05215
772.00 10.2156
772.10 10.34049
772.20 10.55843
772.30 10.78591
772.40 10.93005
772.50 11.02862
772.60 11.19394
772.70 11.44502
772.80 11.74563
772.90 12.01256
773.00 12.20142
773.10 12.2952
773.20 12.30469
773.30 12.31531
773.40 12.39372
773.50 12.55647
773.60 12.71909
773.70 12.81348
773.80 12.87658
773.90 13.01019
774.00 13.24645
774.10 13.40645
774.20 13.30775
774.30 12.93222
774.40 12.39652
774.50 11.86695
774.60 11.41791
774.70 11.1164
774.80 10.95269
774.90 10.75885
775.00 10.48593
775.10 10.13458
775.20 9.719624
775.30 9.504898
775.40 9.625976
775.50 9.860331
775.60 10.0744
775.70 10.25917
775.80 10.27415
775.90 10.1812
776.00 10.21584
776.10 10.36878
776.20 10.51197
776.30 10.52235
776.40 10.41398
776.50 10.32538
776.60 10.35903
776.70 10.58758
776.80 10.96002
776.90 11.29352
777.00 11.47315
777.10 11.53951
777.20 11.58649
777.30 11.67943
777.40 11.81071
777.50 11.9178
777.60 11.98859
777.70 12.02866
777.80 12.06926
777.90 12.11535
778.00 12.10596
778.10 12.01254
778.20 11.80912
778.30 11.47091
778.40 11.08398
778.50 10.71379
778.60 10.45562
778.70 10.44196
778.80 10.60964
778.90 10.81762
779.00 11.0072
779.10 11.17716
779.20 11.37512
779.30 11.6214
779.40 11.78968
779.50 11.87454
779.60 11.9868
779.70 12.04877
779.80 11.95691
779.90 11.7071
780.00 11.39742
780.10 11.0953
780.20 10.97237
780.30 11.24805
780.40 11.89604
780.50 12.69076
780.60 13.37198
780.70 13.75938
780.80 13.91066
780.90 14.00653
781.00 13.97426
781.10 13.80504
781.20 13.69188
781.30 13.74838
781.40 13.94672
781.50 14.18455
781.60 14.40311
781.70 14.56877
781.80 14.68146
781.90 14.68757
782.00 14.52849
782.10 14.19084
782.20 13.7111
782.30 13.27855
782.40 13.04635
782.50 12.98137
782.60 13.03521
782.70 13.02844
782.80 12.79651
782.90 12.39683
783.00 11.85206
783.10 11.36524
783.20 11.24103
783.30 11.43792
783.40 11.78556
783.50 12.15122
783.60 12.41161
783.70 12.54752
783.80 12.59064
783.90 12.58258
784.00 12.62278
784.10 12.69115
784.20 12.69587
784.30 12.71829
784.40 12.84719
784.50 13.08327
784.60 13.41414
784.70 13.70184
784.80 13.83798
784.90 13.79892
785.00 13.70545
785.10 13.70519
785.20 13.69238
785.30 13.72676
785.40 13.84177
785.50 13.84746
785.60 13.80293
785.70 13.80852
785.80 13.88708
785.90 14.09026
786.00 14.24013
786.10 14.1381
786.20 13.80392
786.30 13.44866
786.40 13.30135
786.50 13.31696
786.60 13.41306
786.70 13.56422
786.80 13.68409
786.90 13.78336
787.00 13.81351
787.10 13.75803
787.20 13.69676
787.30 13.57877
787.40 13.49062
787.50 13.54875
787.60 13.76933
787.70 14.17404
787.80 14.5679
787.90 14.74936
788.00 14.80244
788.10 14.85136
788.20 15.01294
788.30 15.26734
788.40 15.43481
788.50 15.52975
788.60 15.55233
788.70 15.48987
788.80 15.50643
788.90 15.65412
789.00 15.88382
789.10 16.06717
789.20 16.09345
789.30 16.03688
789.40 16.00793
789.50 16.06193
789.60 16.08664
789.70 15.99326
789.80 15.79383
789.90 15.48777
790.00 15.15911
790.10 14.89121
790.20 14.77348
790.30 14.88597
790.40 15.17492
790.50 15.49812
790.60 15.7112
790.70 15.63185
790.80 15.21229
790.90 14.61041
791.00 14.01865
791.10 13.67871
791.20 13.65073
791.30 13.7652
791.40 13.99322
791.50 14.30067
791.60 14.52801
791.70 14.62355
791.80 14.589
791.90 14.44867
792.00 14.29438
792.10 14.26512
792.20 14.36285
792.30 14.52333
792.40 14.76042
792.50 14.93683
792.60 14.95525
792.70 14.92226
792.80 14.92573
792.90 15.04035
793.00 15.27567
793.10 15.55164
793.20 15.84734
793.30 16.16137
793.40 16.43356
793.50 16.64884
793.60 16.75064
793.70 16.69227
793.80 16.55957
793.90 16.38039
794.00 16.09222
794.10 15.69045
794.20 15.30165
794.30 15.13218
794.40 15.28362
794.50 15.61639
794.60 15.81827
794.70 15.58599
794.80 14.95306
794.90 14.38444
795.00 14.27073
795.10 14.68873
795.20 15.43543
795.30 16.19367
795.40 16.74991
795.50 17.04669
795.60 17.17283
795.70 17.22801
795.80 17.27996
795.90 17.34345
796.00 17.24548
796.10 16.90597
796.20 16.53706
796.30 16.36729
796.40 16.5256
796.50 16.94393
796.60 17.30609
796.70 17.45358
796.80 17.51037
796.90 17.59559
797.00 17.79793
797.10 18.04671
797.20 18.20285
797.30 18.26894
797.40 18.25642
797.50 18.12456
797.60 17.9015
797.70 17.7091
797.80 17.64347
797.90 17.68688
798.00 17.73073
798.10 17.69841
798.20 17.55219
798.30 17.33937
798.40 17.19434
798.50 17.14926
798.60 17.12271
798.70 17.05452
798.80 16.91958
798.90 16.75053
799.00 16.69626
799.10 16.89089
799.20 17.23699
799.30 17.58594
799.40 17.90256
799.50 18.00221
799.60 17.8043
799.70 17.52572
799.80 17.31525
799.90 17.31819
800.00 17.56055
800.10 17.81846
800.20 18.00188
800.30 18.1756
800.40 18.31302
800.50 18.37232
800.60 18.41052
800.70 18.49712
800.80 18.62078
800.90 18.72148
801.00 18.81054
801.10 18.91877
801.20 19.04217
801.30 19.19854
801.40 19.37843
801.50 19.54503
801.60 19.65738
801.70 19.71529
801.80 19.74382
801.90 19.79169
802.00 19.89714
802.10 19.92534
802.20 19.79286
802.30 19.61544
802.40 19.56017
802.50 19.69682
802.60 19.89371
802.70 20.07174
802.80 20.30953
802.90 20.54144
803.00 20.6572
803.10 20.72922
803.20 20.83192
803.30 20.95877
803.40 21.05074
803.50 21.08443
803.60 21.08626
803.70 21.03126
803.80 20.94213
803.90 20.88696
804.00 20.90997
804.10 20.99405
804.20 21.09522
804.30 21.2534
804.40 21.4458
804.50 21.61402
804.60 21.73067
804.70 21.65482
804.80 21.44938
804.90 21.3885
805.00 21.55384
805.10 21.90493
805.20 22.40805
805.30 22.91189
805.40 23.23085
805.50 23.38345
805.60 23.43326
805.70 23.3931
805.80 23.34699
805.90 23.34393
806.00 23.39827
806.10 23.52605
806.20 23.70969
806.30 23.86171
806.40 23.81329
806.50 23.56228
806.60 23.36489
806.70 23.32004
806.80 23.3364
806.90 23.34541
807.00 23.27769
807.10 23.16241
807.20 23.14872
807.30 23.31865
807.40 23.63034
807.50 23.97408
807.60 24.19088
807.70 24.22744
807.80 24.23897
807.90 24.33897
808.00 24.46256
808.10 24.51593
808.20 24.54178
808.30 24.6566
808.40 24.84244
808.50 25.01979
808.60 25.17608
808.70 25.26657
808.80 25.23839
808.90 25.16351
809.00 25.11824
809.10 25.16182
809.20 25.35544
809.30 25.56705
809.40 25.62466
809.50 25.5281
809.60 25.37138
809.70 25.24567
809.80 25.22483
809.90 25.28265
810.00 25.3128
810.10 25.32216
810.20 25.33995
810.30 25.31403
810.40 25.24637
810.50 25.17315
810.60 25.13333
810.70 25.19579
810.80 25.42078
810.90 25.78172
811.00 26.09549
811.10 26.2134
811.20 26.20941
811.30 26.22465
811.40 26.32168
811.50 26.40752
811.60 26.24676
811.70 25.80845
811.80 25.37184
811.90 25.25798
812.00 25.57786
812.10 26.14225
812.20 26.67079
812.30 26.94152
812.40 26.9556
812.50 26.93148
812.60 27.00653
812.70 27.18584
812.80 27.37174
812.90 27.45746
813.00 27.43609
813.10 27.36166
813.20 27.31064
813.30 27.29524
813.40 27.30606
813.50 27.36981
813.60 27.46256
813.70 27.58505
813.80 27.77878
813.90 27.98352
814.00 28.09825
814.10 28.09512
814.20 27.92223
814.30 27.60346
814.40 27.30131
814.50 27.13594
814.60 27.10026
814.70 27.13025
814.80 27.21107
814.90 27.24575
815.00 27.16173
815.10 27.16905
815.20 27.35451
815.30 27.49795
815.40 27.49401
815.50 27.41464
815.60 27.31036
815.70 27.23777
815.80 27.214
815.90 27.16556
816.00 27.06566
816.10 26.89707
816.20 26.67794
816.30 26.55676
816.40 26.65211
816.50 26.93298
816.60 27.32773
816.70 27.74595
816.80 28.02966
816.90 28.07972
817.00 27.917
817.10 27.68759
817.20 27.55296
817.30 27.49722
817.40 27.5197
817.50 27.57573
817.60 27.42417
817.70 26.99185
817.80 26.46272
817.90 25.94204
818.00 25.39696
818.10 24.4572
818.20 22.65364
818.30 20.03291
818.40 17.32991
818.50 15.73395
818.60 15.95484
818.70 17.79765
818.80 20.29126
818.90 22.24656
819.00 23.26777
819.10 23.52472
819.20 23.05311
819.30 21.74857
819.40 19.59238
819.50 16.90639
819.60 14.68584
819.70 13.88643
819.80 14.66825
819.90 16.58716
820.00 18.78667
820.10 20.58642
820.20 21.96515
820.30 23.07686
820.40 23.88169
820.50 24.3356
820.60 24.36506
820.70 24.06155
820.80 23.77849
820.90 23.73529
821.00 24.0295
821.10 24.54966
821.20 25.01886
821.30 25.27457
821.40 25.29214
821.50 25.2047
821.60 25.17819
821.70 25.22091
821.80 25.25675
821.90 25.26984
822.00 25.31078
822.10 25.45206
822.20 25.67713
822.30 25.84177
822.40 25.96777
822.50 26.2065
822.60 26.46623
822.70 26.62242
822.80 26.70583
822.90 26.73832
823.00 26.88557
823.10 27.22809
823.20 27.46417
823.30 27.39953
823.40 27.04656
823.50 26.59616
823.60 26.44068
823.70 26.64857
823.80 27.05949
823.90 27.55519
824.00 27.9852
824.10 28.25811
824.20 28.31252
824.30 28.16992
824.40 27.91311
824.50 27.69994
824.60 27.74846
824.70 28.08813
824.80 28.57992
824.90 29.01646
825.00 29.20847
825.10 28.97806
825.20 28.37117
825.30 27.73246
825.40 27.24889
825.50 26.88492
825.60 26.54262
825.70 26.14435
825.80 25.80804
825.90 25.81486
826.00 26.3237
826.10 27.10743
826.20 27.73346
826.30 28.03157
826.40 28.13866
826.50 28.21234
826.60 28.38186
826.70 28.56554
826.80 28.54576
826.90 28.36775
827.00 28.10729
827.10 27.70476
827.20 27.10868
827.30 26.40142
827.40 25.8424
827.50 25.64138
827.60 25.77318
827.70 26.01991
827.80 26.25275
827.90 26.46865
828.00 26.57973
828.10 26.54397
828.20 26.40999
828.30 26.20566
828.40 25.96259
828.50 25.87224
828.60 26.04072
828.70 26.16609
828.80 25.99355
828.90 25.5141
829.00 24.77532
829.10 24.12799
829.20 23.94439
829.30 24.16391
829.40 24.54536
829.50 24.83221
829.60 24.91302
829.70 24.96067
829.80 25.09334
829.90 25.2436
830.00 24.81611
830.10 24.56905
830.20 24.32199
830.30 23.98726
830.40 23.65253
830.50 23.31739
830.60 22.98225
830.70 23.24634
830.80 23.51044
830.90 24.02685
831.00 24.54326
831.10 24.7738
831.20 25.00433
831.30 24.86271
831.40 24.7211
831.50 24.77998
831.60 24.83887
831.70 24.94807
831.80 25.05727
831.90 25.38874
832.00 25.7202
832.10 25.62696
832.20 25.53371
832.30 25.67104
832.40 25.80838
832.50 25.80175
832.60 25.79512
832.70 25.23261
832.80 24.67011
832.90 24.47919
833.00 24.28827
833.10 24.85609
833.20 25.42392
833.30 25.84669
833.40 26.26947
833.50 25.62933
833.60 24.9892
833.70 24.64585
833.80 24.30251
833.90 24.68773
834.00 25.07294
834.10 25.44913
834.20 25.82532
834.30 25.95124
834.40 26.07716
834.50 25.73714
834.60 25.39712
834.70 24.99982
834.80 24.60252
834.90 24.55406
835.00 24.5056
835.10 24.72196
835.20 24.93831
835.30 24.98717
835.40 25.03602
835.50 25.01343
835.60 24.99085
835.70 25.22445
835.80 25.45805
835.90 25.56295
836.00 25.66786
836.10 25.74986
836.20 25.83186
836.30 25.5749
836.40 25.31794
836.50 25.09235
836.60 24.86676
836.70 25.15221
836.80 25.43765
836.90 25.93828
837.00 26.43891
837.10 26.53447
837.20 26.63003
837.30 26.23322
837.40 25.83641
837.50 25.00769
837.60 24.17898
837.70 23.87642
837.80 23.57385
837.90 23.71319
838.00 23.85253
838.10 24.15607
838.20 24.45961
838.30 24.21908
838.40 23.97856
838.50 23.73347
838.60 23.48838
838.70 23.13113
838.80 22.77388
838.90 22.2085
839.00 21.64312
839.10 22.19536
839.20 22.74761
839.30 23.31805
839.40 23.88849
839.50 23.8349
839.60 23.78131
839.70 23.71309
839.80 23.64486
839.90 24.11445
840.00 24.58404
840.10 24.28304
840.20 24.37035
840.30 24.79785
840.40 25.22847
840.50 25.51231
840.60 25.79686
840.70 26.08088
840.80 26.33615
840.90 26.46284
841.00 26.37184
841.10 26.34042
841.20 25.96921
841.30 25.49866
841.40 25.33273
841.50 25.16544
841.60 25.25789
841.70 25.99566
841.80 26.84629
841.90 26.80643
842.00 26.5527
842.10 25.62618
842.20 24.62251
842.30 24.15886
842.40 24.39235
842.50 24.55122
842.60 24.2754
842.70 24.062
842.80 23.5474
842.90 23.01004
843.00 22.99364
843.10 23.58244
843.20 24.03662
843.30 23.42233
843.40 22.83347
843.50 21.05112
843.60 19.04356
843.70 17.78849
843.80 17.48955
843.90 17.38608
844.00 18.87106
844.10 20.35762
844.20 20.57518
844.30 20.40626
844.40 19.53318
844.50 17.99082
844.60 16.68483
844.70 16.5154
844.80 16.42692
844.90 17.16158
845.00 17.93719
845.10 18.10872
845.20 17.63552
845.30 16.93541
845.40 15.61271
845.50 14.4122
845.60 14.18808
845.70 14.02361
845.80 14.0595
845.90 14.31822
846.00 14.5703
846.10 14.74889
846.20 14.91455
846.30 15.33553
846.40 15.77032
846.50 15.6021
846.60 14.93895
846.70 14.31582
846.80 14.08399
846.90 14.05064
847.00 14.33747
847.10 14.32944
847.20 14.10679
847.30 13.99481
847.40 14.08872
847.50 14.50718
847.60 14.89042
847.70 15.34395
847.80 15.73552
847.90 15.72046
848.00 15.59506
848.10 15.55074
848.20 15.63802
848.30 15.7191
848.40 15.88215
848.50 16.03129
848.60 16.30449
848.70 16.63782
848.80 16.81385
848.90 16.66496
849.00 16.51323
849.10 16.81974
849.20 17.17914
849.30 17.41285
849.40 17.55714
849.50 17.44984
849.60 17.11585
849.70 16.82914
849.80 16.48864
849.90 16.08173
850.00 16.26454
850.10 16.70946
850.20 17.12504
850.30 17.23248
850.40 17.16779
850.50 16.85148
850.60 16.71083
850.70 16.30871
850.80 15.73524
850.90 15.46026
851.00 15.62144
851.10 15.89195
851.20 16.40537
851.30 16.89921
851.40 16.76308
851.50 16.47163
851.60 16.11129
851.70 15.71165
851.80 15.27861
851.90 14.90241
852.00 14.6343
852.10 14.7157
852.20 14.76881
852.30 14.80756
852.40 14.87979
852.50 15.12022
852.60 15.68289
852.70 16.18209
852.80 16.6163
852.90 17.00508
853.00 17.17184
853.10 17.27049
853.20 17.41338
853.30 17.62702
853.40 17.8574
853.50 17.98973
853.60 18.02633
853.70 17.91521
853.80 17.83368
853.90 17.90225
854.00 18.14625
854.10 18.31377
854.20 17.98423
854.30 17.65668
854.40 17.48461
854.50 17.45063
854.60 17.6579
854.70 18.18195
854.80 18.61483
854.90 18.79747
855.00 19.0577
855.10 19.41383
855.20 19.75784
855.30 20.03416
855.40 20.26037
855.50 20.49596
855.60 20.50048
855.70 20.39739
855.80 20.22053
855.90 20.16642
856.00 19.86325
856.10 19.17132
856.20 18.52858
856.30 18.53002
856.40 18.56211
856.50 18.93554
856.60 19.39554
856.70 19.84729
856.80 20.22621
856.90 20.5067
857.00 20.42118
857.10 20.2931
857.20 19.86422
857.30 19.46642
857.40 19.31427
857.50 19.37059
857.60 19.50484
857.70 19.75809
857.80 19.95047
857.90 20.44195
858.00 20.92878
858.10 20.8566
858.20 20.4799
858.30 20.23769
858.40 20.28927
858.50 20.26601
858.60 20.20155
858.70 20.25122
858.80 20.49047
858.90 20.8408
859.00 21.07492
859.10 21.06094
859.20 21.00659
859.30 20.91291
859.40 20.83287
859.50 20.95515
859.60 21.17425
859.70 21.38986
859.80 21.50061
859.90 21.56339
860.00 21.58404
860.10 21.67039
860.20 21.92865
860.30 22.30903
860.40 22.56259
860.50 22.3992
860.60 22.06587
860.70 22.07222
860.80 22.29813
860.90 22.47451
861.00 22.63149
861.10 22.47719
861.20 21.85235
861.30 21.25104
861.40 20.84325
861.50 20.46052
861.60 20.43726
861.70 20.51019
861.80 20.41633
861.90 20.05901
862.00 19.74613
862.10 19.95408
862.20 20.21642
862.30 20.57141
862.40 20.92158
862.50 20.78752
862.60 20.2996
862.70 19.97142
862.80 20.39349
862.90 20.85826
863.00 20.80305
863.10 20.60865
863.20 20.42595
863.30 20.26091
863.40 20.26962
863.50 20.69882
863.60 21.06515
863.70 20.87115
863.80 20.71398
863.90 20.76827
864.00 20.92886
864.10 21.11345
864.20 21.43163
864.30 21.68801
864.40 21.9287
864.50 22.21696
864.60 22.03304
864.70 21.61519
864.80 21.2606
864.90 21.29455
865.00 21.4537
865.10 21.80455
865.20 21.96956
865.30 22.00836
865.40 22.09653
865.50 22.27997
865.60 22.52475
865.70 22.75784
865.80 22.74279
865.90 22.72802
866.00 22.52465
866.10 22.26491
866.20 21.84217
866.30 21.22223
866.40 20.68098
866.50 21.00086
866.60 21.26961
866.70 21.90202
866.80 22.68793
866.90 23.09212
867.00 23.08784
867.10 23.08486
867.20 22.76976
867.30 22.30464
867.40 22.48418
867.50 22.81401
867.60 22.98148
867.70 23.01841
867.80 23.15141
867.90 23.62976
868.00 24.00038
868.10 23.91062
868.20 23.6686
868.30 23.20262
868.40 22.8056
868.50 22.71392
868.60 23.08101
868.70 23.2356
868.80 22.62259
868.90 22.11036
869.00 21.54655
869.10 20.95734
869.20 20.32126
869.30 19.75689
869.40 19.20766
869.50 18.63125
869.60 18.1825
869.70 18.31109
869.80 18.5368
869.90 18.71076
870.00 18.94227
870.10 19.2686
870.20 19.62226
870.30 19.90907
870.40 20.25789
870.50 20.59768
870.60 20.9745
870.70 21.38925
870.80 21.77159
870.90 21.40175
871.00 20.99669
871.10 20.33734
871.20 19.65583
871.30 19.33453
871.40 19.3517
871.50 19.27782
871.60 19.40358
871.70 19.66368
871.80 19.56799
871.90 19.39364
872.00 19.45718
872.10 19.74735
872.20 19.99542
872.30 20.08528
872.40 20.14787
872.50 20.16469
872.60 20.23724
872.70 20.70331
872.80 21.37392
872.90 22.01172
873.00 22.63981
873.10 23.31108
873.20 23.00654
873.30 22.63331
873.40 22.25621
873.50 21.92475
873.60 21.67818
873.70 21.57209
873.80 21.37511
873.90 21.29101
874.00 21.35463
874.10 21.84955
874.20 22.50583
874.30 23.04448
874.40 23.31998
874.50 23.61965
874.60 24.12128
874.70 24.58391
874.80 24.11542
874.90 23.36571
875.00 22.65015
875.10 22.06739
875.20 21.59747
875.30 22.42003
875.40 23.1812
875.50 23.68618
875.60 24.01914
875.70 24.00753
875.80 23.77869
875.90 23.78287
876.00 24.34532
876.10 24.75538
876.20 25.10083
876.30 25.4639
876.40 25.25446
876.50 24.49944
876.60 23.85486
876.70 23.57861
876.80 23.33707
876.90 23.38481
877.00 23.45359
877.10 24.1705
877.20 25.35217
877.30 26.38381
877.40 26.89389
877.50 27.47502
877.60 28.1553
877.70 28.70049
877.80 28.31092
877.90 27.53693
878.00 26.74993
878.10 25.77062
878.20 24.76355
878.30 25.17738
878.40 25.59865
878.50 25.92302
878.60 26.13944
878.70 26.31385
878.80 26.46588
878.90 26.61642
879.00 26.90026
879.10 27.075
879.20 27.4319
879.30 27.83951
879.40 27.88512
879.50 27.36112
879.60 26.96037
879.70 27.41115
879.80 27.76885
879.90 27.92725
880.00 28.01113
880.10 27.34895
880.20 25.93334
880.30 24.62994
880.40 24.02614
880.50 23.44206
880.60 23.79154
880.70 24.14324
880.80 24.37614
880.90 24.59655
881.00 24.79383
881.10 25.02096
881.20 25.39217
881.30 26.67857
881.40 28.06757
881.50 29.12155
881.60 29.94309
881.70 30.54896
881.80 30.36791
881.90 30.16801
882.00 30.2882
882.10 30.36718
882.20 29.53227
882.30 28.22137
882.40 26.96736
882.50 25.83553
882.60 24.68569
882.70 24.68095
882.80 24.74203
882.90 25.3389
883.00 26.14252
883.10 26.98774
883.20 27.92479
883.30 28.79741
883.40 29.24211
883.50 29.71958
883.60 29.81897
883.70 29.74687
883.80 29.74475
883.90 29.81846
884.00 29.98394
884.10 30.17258
884.20 30.19033
884.30 30.13734
884.40 30.07065
884.50 29.66845
884.60 28.89496
884.70 28.08747
884.80 27.28766
884.90 26.46324
885.00 26.06989
885.10 25.87708
885.20 26.68186
885.30 28.0634
885.40 29.35588
885.50 30.50179
885.60 31.55035
885.70 31.0031
885.80 30.41935
885.90 29.04344
886.00 27.06122
886.10 25.19713
886.20 23.60208
886.30 22.03471
886.40 22.10787
886.50 22.17797
886.60 23.15937
886.70 24.40014
886.80 25.14523
886.90 24.81359
887.00 24.46859
887.10 23.0952
887.20 21.88157
887.30 20.76907
887.40 19.50151
887.50 18.9058
887.60 19.49112
887.70 20.13684
887.80 21.23306
887.90 22.25789
888.00 23.10678
888.10 23.86326
888.20 24.24314
888.30 24.2396
888.40 24.11393
888.50 23.05861
888.60 22.10038
888.70 21.99113
888.80 22.07326
888.90 22.54021
889.00 23.34791
889.10 24.16569
889.20 24.44638
889.30 24.60584
889.40 24.50702
889.50 24.37485
889.60 23.80116
889.70 22.99172
889.80 22.43797
889.90 22.35256
890.00 22.21396
890.10 23.29949
890.20 24.31942
890.30 24.93418
890.40 25.37909
890.50 25.95285
890.60 26.67099
890.70 27.29799
890.80 27.26764
890.90 27.21163
891.00 26.77127
891.10 26.19293
891.20 25.74355
891.30 25.33391
891.40 24.89117
891.50 25.45974
891.60 25.88149
891.70 26.09876
891.80 26.45791
891.90 26.7755
892.00 26.85344
892.10 26.84037
892.20 26.79657
892.30 26.83195
892.40 26.41346
892.50 25.96329
892.60 25.71835
892.70 25.64428
892.80 25.65517
892.90 25.96896
893.00 26.18212
893.10 26.635
893.20 27.03773
893.30 27.6092
893.40 28.31736
893.50 28.89839
893.60 29.10827
893.70 29.31579
893.80 28.28836
893.90 27.31283
894.00 26.29878
894.10 25.16231
894.20 24.43579
894.30 24.64137
894.40 24.79351
894.50 24.42604
894.60 24.15249
894.70 24.39071
894.80 24.65598
894.90 25.06718
895.00 25.77897
895.10 26.46924
895.20 26.41874
895.30 26.42477
895.40 26.03803
895.50 25.4682
895.60 25.46371
895.70 26.18902
895.80 26.85339
895.90 27.00228
896.00 27.16949
896.10 27.07262
896.20 27.02843
896.30 27.00431
896.40 26.87784
896.50 26.68793
896.60 26.75439
896.70 26.91968
896.80 26.75084
896.90 26.62197
897.00 26.76968
897.10 26.931
897.20 27.01374
897.30 27.13
897.40 27.36016
897.50 27.63424
897.60 27.81061
897.70 28.20755
897.80 28.77978
897.90 29.04105
898.00 28.67704
898.10 28.50088
898.20 28.20163
898.30 27.83165
898.40 28.20279
898.50 28.79786
898.60 29.43086
898.70 29.96022
898.80 30.3704
898.90 30.42946
899.00 30.63049
899.10 30.36902
899.20 29.93701
899.30 29.65727
899.40 29.50099
899.50 29.34328
899.60 29.14379
899.70 28.81187
899.80 28.41534
899.90 28.07831
900.00 27.62872
900.10 27.02612
900.20 26.74037
900.30 28.19482
900.40 29.58466
900.50 30.47541
900.60 31.22287
900.70 31.69875
900.80 31.98806
900.90 31.9671
901.00 31.2114
901.10 30.65509
901.20 30.50288
901.30 30.21957
901.40 30.20196
901.50 30.52141
901.60 30.79459
901.70 30.7819
901.80 30.71267
901.90 30.0777
902.00 29.46506
902.10 28.77712
902.20 28.04945
902.30 27.46719
902.40 27.15403
902.50 26.89123
902.60 26.63226
902.70 26.30009
902.80 26.15087
902.90 26.05595
903.00 26.36377
903.10 27.19653
903.20 27.92173
903.30 28.15505
903.40 28.42299
903.50 29.12119
903.60 29.96367
903.70 30.53873
903.80 30.76468
903.90 30.98758
904.00 31.42849
904.10 31.80134
904.20 31.35236
904.30 30.89858
904.40 30.55942
904.50 30.33656
904.60 30.30365
904.70 30.89646
904.80 31.41063
904.90 31.73849
905.00 32.00662
905.10 31.89932
905.20 31.77426
905.30 31.5145
905.40 30.95065
905.50 30.36445
905.60 30.04709
905.70 29.80895
905.80 29.60113
905.90 29.34378
906.00 29.08818
906.10 28.83687
906.20 28.61244
906.30 29.0804
906.40 29.45201
906.50 29.5498
906.60 29.86401
906.70 30.06339
906.80 29.97455
906.90 29.7721
907.00 29.28367
907.10 28.86996
907.20 29.10584
907.30 29.35235
907.40 29.50259
907.50 29.66871
907.60 29.86724
907.70 30.06255
907.80 30.38652
907.90 31.03963
908.00 31.48288
908.10 31.81384
908.20 32.26386
908.30 32.44545
908.40 31.76887
908.50 31.17669
908.60 31.27753
908.70 31.20555
908.80 31.04905
908.90 30.96053
909.00 30.96913
909.10 31.06238
909.20 31.08493
909.30 31.40844
909.40 31.64179
909.50 31.81255
909.60 31.95312
909.70 32.121
909.80 32.40427
909.90 32.76683
910.00 33.19248
910.10 33.46735
910.20 33.35555
910.30 33.21477
910.40 33.14708
910.50 33.16469
910.60 33.17471
910.70 32.87636
910.80 32.45976
910.90 32.34546
911.00 32.19765
911.10 32.25883
911.20 32.48842
911.30 32.75441
911.40 33.26383
911.50 33.72555
911.60 33.6801
911.70 33.75821
911.80 33.80144
911.90 33.68671
912.00 33.55695
912.10 33.48896
912.20 33.36879
912.30 33.31978
912.40 33.38194
912.50 33.35466
912.60 33.26546
912.70 33.32584
912.80 33.66203
912.90 33.96098
913.00 34.17077
913.10 34.46266
913.20 34.60998
913.30 34.57839
913.40 34.59593
913.50 34.81369
913.60 35.06701
913.70 34.8201
913.80 34.51089
913.90 33.92345
914.00 33.23402
914.10 32.48214
914.20 31.8077
914.30 31.448
914.40 32.00751
914.50 32.5325
914.60 33.27292
914.70 33.92583
914.80 34.03189
914.90 33.88765
915.00 33.63181
915.10 33.14209
915.20 32.75423
915.30 33.0531
915.40 33.1996
915.50 33.87645
915.60 34.83453
915.70 35.76248
915.80 36.55002
915.90 37.19633
916.00 36.52753
916.10 35.96641
916.20 35.46305
916.30 35.09252
916.40 34.84931
916.50 34.59331
916.60 34.33689
916.70 34.92902
916.80 35.52758
916.90 35.67058
917.00 35.61922
917.10 35.55757
917.20 35.68031
917.30 35.82773
917.40 35.58447
917.50 35.34393
917.60 35.1253
917.70 34.80848
917.80 34.80189
917.90 35.08264
918.00 35.32826
918.10 35.36353
918.20 35.33405
918.30 35.3375
918.40 35.36358
918.50 35.07517
918.60 34.68908
918.70 34.47222
918.80 34.60992
918.90 34.92264
919.00 36.27222
919.10 37.26258
919.20 37.25866
919.30 37.16803
919.40 36.71462
919.50 35.85839
919.60 35.23676
919.70 35.69657
919.80 35.98056
919.90 36.57366
920.00 37.12024
920.10 37.20762
920.20 36.94985
920.30 36.87099
920.40 37.30218
920.50 37.5868
920.60 37.28579
920.70 36.83105
920.80 36.04023
920.90 35.17977
921.00 34.42483
921.10 33.63273
921.20 32.69789
921.30 32.77567
921.40 33.10185
921.50 33.67398
921.60 34.39471
921.70 35.06239
921.80 35.72981
921.90 36.33743
922.00 35.78955
922.10 35.15681
922.20 34.88326
922.30 34.85685
922.40 34.71643
922.50 34.28603
922.60 33.85737
922.70 34.08662
922.80 34.22461
922.90 34.57131
923.00 35.07274
923.10 35.0495
923.20 34.36247
923.30 33.7044
923.40 33.07458
923.50 32.24415
923.60 32.13155
923.70 32.22205
923.80 32.30046
923.90 32.40047
924.00 32.47499
924.10 32.36287
924.20 32.2922
924.30 33.64318
924.40 35.04482
924.50 35.49209
924.60 35.25773
924.70 34.7773
924.80 33.74538
924.90 32.89612
925.00 32.49985
925.10 31.9717
925.20 31.69215
925.30 31.68087
925.40 31.75099
925.50 31.93376
925.60 32.1014
925.70 33.22743
925.80 34.26847
925.90 34.94293
926.00 35.66537
926.10 35.96733
926.20 35.66861
926.30 35.31706
926.40 34.78503
926.50 34.28947
926.60 34.525
926.70 34.72132
926.80 34.94958
926.90 35.40824
927.00 35.81922
927.10 35.74076
927.20 35.6779
927.30 35.37672
927.40 35.0926
927.50 34.61109
927.60 33.93813
927.70 33.30301
927.80 32.98537
927.90 32.74214
928.00 32.37807
928.10 31.86427
928.20 31.90331
928.30 32.37202
928.40 32.84739
928.50 33.29187
928.60 33.68206
928.70 33.56894
928.80 33.63059
928.90 33.50028
929.00 33.13953
929.10 32.81929
929.20 32.65569
929.30 32.55687
929.40 32.7504
929.50 32.92694
929.60 33.1724
929.70 33.30293
929.80 33.14699
929.90 32.81268
930.00 32.4029
930.10 31.61312
930.20 31.09321
930.30 31.27488
930.40 31.28577
930.50 31.47103
930.60 31.90209
930.70 32.12223
930.80 31.68933
930.90 31.31249
931.00 31.32169
931.10 31.32904
931.20 31.94634
931.30 32.95285
931.40 33.83297
931.50 34.54475
931.60 35.17688
931.70 34.38732
931.80 33.51853
931.90 32.74682
932.00 32.68556
932.10 32.91892
932.20 33.24243
932.30 33.56041
932.40 33.86374
932.50 34.07411
932.60 33.8933
932.70 33.6079
932.80 33.39078
932.90 33.26672
933.00 33.17581
933.10 33.44997
933.20 33.85254
933.30 34.22606
933.40 34.09696
933.50 33.96127
933.60 33.94514
933.70 34.02293
933.80 34.08433
933.90 34.0767
934.00 34.11347
934.10 34.24441
934.20 34.27799
934.30 34.27572
934.40 34.17118
934.50 34.08414
934.60 34.20175
934.70 34.32322
934.80 34.24449
934.90 34.09554
935.00 33.76083
935.10 33.49072
935.20 33.22809
935.30 33.2164
935.40 33.18492
935.50 33.22231
935.60 33.40697
935.70 33.58387
935.80 33.68208
935.90 33.56913
936.00 33.46993
936.10 33.85998
936.20 34.33474
936.30 34.72176
936.40 34.70748
936.50 34.72118
936.60 34.70032
936.70 34.51081
936.80 34.28711
936.90 34.11386
937.00 34.08258
937.10 34.05475
937.20 33.57706
937.30 33.11748
937.40 32.82646
937.50 33.087
937.60 33.34897
937.70 33.52094
937.80 33.58259
937.90 33.62053
938.00 33.76877
938.10 33.89437
938.20 33.94288
938.30 33.56594
938.40 33.22503
938.50 33.09957
938.60 33.3293
938.70 33.54254
938.80 33.66628
938.90 33.69963
939.00 33.73398
939.10 33.94257
939.20 34.18914
939.30 34.37538
939.40 34.41904
939.50 34.43889
939.60 34.18047
939.70 33.79919
939.80 33.39994
939.90 33.13714
940.00 32.79787
940.10 32.55
940.20 32.84951
940.30 33.19886
940.40 33.40888
940.50 33.32141
940.60 33.2113
940.70 33.4612
940.80 33.88347
940.90 34.31777
941.00 34.67573
941.10 35.0671
941.20 35.25817
941.30 34.91434
941.40 34.53307
941.50 34.05367
941.60 33.55056
941.70 33.07885
941.80 33.20495
941.90 33.44967
942.00 33.70507
942.10 33.77311
942.20 33.7247
942.30 33.68174
942.40 33.74523
942.50 33.82398
942.60 33.94558
942.70 34.15622
942.80 34.36492
942.90 34.37413
943.00 34.20773
943.10 34.2177
943.20 34.85799
943.30 35.53829
943.40 35.89008
943.50 36.0622
943.60 36.22002
943.70 36.14343
943.80 35.99437
943.90 35.80534
944.00 35.49843
944.10 35.26135
944.20 35.11435
944.30 34.99728
944.40 34.87476
944.50 34.53428
944.60 34.01391
944.70 33.5013
944.80 33.55124
944.90 33.68264
945.00 33.83504
945.10 33.97402
945.20 34.11543
945.30 34.22974
945.40 34.47355
945.50 34.72021
945.60 34.94301
945.70 35.03888
945.80 35.07208
945.90 34.70332
946.00 34.41039
946.10 34.31024
946.20 34.39556
946.30 34.4591
946.40 34.93677
946.50 35.71712
946.60 36.45893
946.70 36.3073
946.80 36.14699
946.90 36.05544
947.00 36.08998
947.10 36.11236
947.20 36.09779
947.30 36.13011
947.40 36.1489
947.50 36.22878
947.60 36.26445
947.70 36.30271
947.80 36.40716
947.90 36.60213
948.00 36.86005
948.10 37.07279
948.20 37.23766
948.30 37.18864
948.40 36.99989
948.50 36.81353
948.60 37.01333
948.70 37.34198
948.80 37.59825
948.90 37.52856
949.00 37.46917
949.10 37.5972
949.20 37.89268
949.30 38.15139
949.40 37.8752
949.50 37.56286
949.60 37.22749
949.70 36.77209
949.80 36.33064
949.90 36.21313
950.00 36.55033
950.10 36.88322
950.20 37.18535
950.30 37.41156
950.40 37.61416
950.50 37.13278
950.60 36.73685
950.70 36.44234
950.80 36.41173
950.90 36.37867
951.00 36.5049
951.10 36.79302
951.20 37.06892
951.30 37.10517
951.40 37.09519
951.50 37.06065
951.60 36.94318
951.70 36.86831
951.80 36.78005
951.90 36.68444
952.00 36.60205
952.10 36.66138
952.20 36.66669
952.30 36.68102
952.40 37.08611
952.50 37.46206
952.60 37.81764
952.70 38.15965
952.80 38.4721
952.90 38.52897
953.00 38.50741
953.10 38.51367
953.20 38.43798
953.30 38.2875
953.40 38.1065
953.50 37.88771
953.60 37.74161
953.70 37.59027
953.80 37.25667
953.90 36.8804
954.00 36.88085
954.10 37.21905
954.20 37.5805
954.30 37.71337
954.40 37.77527
954.50 37.71864
954.60 37.26656
954.70 36.72376
954.80 36.41913
954.90 36.39314
955.00 36.43907
955.10 36.8128
955.20 37.26066
955.30 37.67074
955.40 37.81369
955.50 37.91516
955.60 38.07702
955.70 38.22941
955.80 38.35892
955.90 38.48593
956.00 38.68759
956.10 38.88086
956.20 38.87755
956.30 38.95352
956.40 38.90832
956.50 38.46565
956.60 38.03659
956.70 38.10362
956.80 38.44698
956.90 38.79158
957.00 38.66356
957.10 38.46003
957.20 38.2784
957.30 38.33711
957.40 38.40646
957.50 38.26199
957.60 37.85839
957.70 37.49925
957.80 37.26809
957.90 37.11346
958.00 37.00507
958.10 37.47748
958.20 37.8436
958.30 38.09395
958.40 38.0923
958.50 38.04511
958.60 37.9466
958.70 37.92342
958.80 37.88356
958.90 37.47064
959.00 37.13551
959.10 36.87381
959.20 36.75636
959.30 36.55712
959.40 36.5711
959.50 36.81154
959.60 36.98722
959.70 36.26764
959.80 35.47361
959.90 34.65785
960.00 33.87162
960.10 33.17976
960.20 32.94791
960.30 33.48311
960.40 34.05023
960.50 34.97589
960.60 36.0991
960.70 37.16351
960.80 37.55942
960.90 37.92352
961.00 38.16323
961.10 37.99338
961.20 37.80478
961.30 37.54745
961.40 37.24336
961.50 36.97627
961.60 36.74796
961.70 36.54506
961.80 36.44187
961.90 37.06939
962.00 37.5215
962.10 37.8499
962.20 38.07166
962.30 38.30884
962.40 38.19343
962.50 38.03231
962.60 37.9139
962.70 38.23388
962.80 38.46892
962.90 38.62319
963.00 38.50552
963.10 38.36818
963.20 38.09849
963.30 37.89326
963.40 37.69469
963.50 37.28
963.60 36.69484
963.70 35.89565
963.80 33.85365
963.90 31.96463
964.00 30.69966
964.10 30.18055
964.20 29.82012
964.30 31.12776
964.40 32.98087
964.50 34.80459
964.60 34.98014
964.70 35.08794
964.80 35.02507
964.90 34.6147
965.00 34.3068
965.10 34.33213
965.20 34.64394
965.30 34.98794
965.40 35.49195
965.50 36.03095
965.60 36.53585
965.70 36.7734
965.80 36.91265
965.90 37.07664
966.00 37.29577
966.10 37.52926
966.20 37.8233
966.30 38.1961
966.40 38.55862
966.50 38.6184
966.60 38.71814
966.70 38.68487
966.80 38.29964
966.90 37.88881
967.00 37.82077
967.10 37.96669
967.20 38.10433
967.30 37.66646
967.40 37.09173
967.50 36.30874
967.60 34.84503
967.70 33.59274
967.80 33.1141
967.90 33.34067
968.00 33.69035
968.10 34.98183
968.20 36.27125
968.30 37.43082
968.40 37.38703
968.50 37.4737
968.60 37.44106
968.70 37.22703
968.80 36.99821
968.90 36.51033
969.00 35.79265
969.10 35.13389
969.20 35.58636
969.30 36.11098
969.40 36.75701
969.50 37.73844
969.60 38.6511
969.70 39.16901
969.80 39.40731
969.90 39.616
970.00 39.71879
970.10 39.68688
970.20 39.60344
970.30 39.2595
970.40 38.88543
970.50 38.02087
970.60 36.51545
970.70 35.129
970.80 34.64608
970.90 34.47733
971.00 34.44535
971.10 36.08898
971.20 37.51443
971.30 38.73226
971.40 39.41479
971.50 40.05554
971.60 40.35392
971.70 40.50429
971.80 40.61905
971.90 40.23931
972.00 39.86056
972.10 39.47628
972.20 39.08495
972.30 38.78067
972.40 38.73427
972.50 38.9295
972.60 39.04262
972.70 38.5671
972.80 37.90434
972.90 37.15995
973.00 35.7874
973.10 34.68443
973.20 34.24605
973.30 35.0821
973.40 35.8637
973.50 36.61278
973.60 37.3255
973.70 37.99789
973.80 37.92685
973.90 37.82014
974.00 37.71425
974.10 37.65338
974.20 37.54524
974.30 37.04297
974.40 36.23222
974.50 35.45651
974.60 35.12883
974.70 34.79404
974.80 34.60576
974.90 35.64003
975.00 36.64026
975.10 37.38787
975.20 37.6962
975.30 37.98766
975.40 38.26881
975.50 38.41818
975.60 38.56084
975.70 38.38705
975.80 38.31378
975.90 38.36571
976.00 38.81792
976.10 39.2553
976.20 39.33176
976.30 39.16715
976.40 39.03293
976.50 39.32256
976.60 39.50933
976.70 39.6526
976.80 39.51884
976.90 39.31416
977.00 38.70971
977.10 37.77739
977.20 36.96795
977.30 36.79188
977.40 36.63591
977.50 36.56392
977.60 37.54051
977.70 38.38536
977.80 39.01999
977.90 39.27503
978.00 39.51957
978.10 39.20547
978.20 38.4952
978.30 37.7044
978.40 35.98368
978.50 34.35586
978.60 33.08226
978.70 33.15994
978.80 33.24127
978.90 33.53008
979.00 34.06485
979.10 34.65832
979.20 35.91221
979.30 37.14931
979.40 38.35377
979.50 39.19073
979.60 40.04379
979.70 40.47952
979.80 40.16198
979.90 39.82166
980.00 39.77165
980.10 39.91532
980.20 40.06843
980.30 40.09319
980.40 40.09396
980.50 40.06871
980.60 40.00799
980.70 39.97519
980.80 39.94481
980.90 39.87808
981.00 39.82724
981.10 40.01708
981.20 40.13593
981.30 40.19193
981.40 40.00829
981.50 39.962
981.60 39.76503
981.70 39.31545
981.80 38.90986
981.90 39.12871
982.00 39.35147
982.10 39.56222
982.20 39.37704
982.30 39.30423
982.40 39.27175
982.50 39.32956
982.60 39.39663
982.70 39.58497
982.80 39.79763
982.90 39.97991
983.00 39.73939
983.10 39.53064
983.20 39.35395
983.30 39.26919
983.40 39.13706
983.50 38.94945
983.60 38.77824
983.70 38.63134
983.80 38.46865
983.90 38.22354
984.00 38.04785
984.10 38.40809
984.20 38.76288
984.30 39.0244
984.40 39.20453
984.50 39.38968
984.60 39.5834
984.70 39.61974
984.80 39.67064
984.90 39.69697
985.00 39.78263
985.10 39.72309
985.20 39.3079
985.30 38.92281
985.40 38.83134
985.50 38.8815
985.60 38.96838
985.70 39.33046
985.80 39.72509
985.90 40.02755
986.00 39.91129
986.10 39.7918
986.20 39.69988
986.30 39.65622
986.40 39.63586
986.50 39.85677
986.60 40.06379
986.70 40.23057
986.80 39.75114
986.90 39.39252
987.00 39.06428
987.10 38.79622
987.20 38.60166
987.30 39.08379
987.40 39.69723
987.50 40.2847
987.60 40.46985
987.70 40.65148
987.80 40.64891
987.90 40.19417
988.00 39.86693
988.10 39.64296
988.20 39.40524
988.30 39.20368
988.40 39.58302
988.50 39.90283
988.60 40.19877
988.70 40.3624
988.80 40.58076
988.90 40.63637
989.00 40.5139
989.10 40.40582
989.20 40.2259
989.30 39.97022
989.40 39.68468
989.50 38.86407
989.60 37.962
989.70 36.67201
989.80 34.57028
989.90 32.62268
990.00 31.58281
990.10 31.00866
990.20 30.46829
990.30 29.8916
990.40 29.24853
990.50 28.44535
990.60 27.15923
990.70 26.0509
990.80 25.26767
990.90 24.64921
991.00 24.06962
991.10 24.25941
991.20 24.54623
991.30 24.77237
991.40 24.37861
991.50 24.0634
991.60 23.74212
991.70 23.37359
991.80 23.09931
991.90 23.69621
992.00 24.47127
992.10 25.26019
992.20 25.50464
992.30 25.73802
992.40 25.64569
992.50 24.79108
992.60 24.06564
992.70 24.15231
992.80 24.71087
992.90 25.34262
993.00 26.42542
993.10 27.39434
993.20 28.18065
993.30 28.21045
993.40 28.2495
993.50 28.14514
993.60 27.92116
993.70 27.87264
993.80 28.87797
993.90 29.8379
994.00 30.80684
994.10 31.57207
994.20 32.34621
994.30 32.7082
994.40 32.38475
994.50 32.07319
994.60 31.8829
994.70 31.75416
994.80 31.67867
994.90 32.25261
995.00 32.82831
995.10 33.38514
995.20 33.83317
995.30 34.22051
995.40 34.55684
995.50 34.85306
995.60 35.06396
995.70 34.2181
995.80 33.42789
995.90 32.72634
996.00 32.50953
996.10 32.28739
996.20 32.37986
996.30 32.77491
996.40 33.22609
996.50 34.21621
996.60 35.18859
996.70 36.09246
996.80 35.72463
996.90 35.3919
997.00 34.47612
997.10 32.51849
997.20 30.73064
997.30 29.69471
997.40 28.96318
997.50 28.35961
997.60 29.07444
997.70 29.7093
997.80 30.38671
997.90 31.18046
998.00 31.93299
998.10 32.59444
998.20 33.19775
998.30 33.71363
998.40 32.97045
998.50 32.15321
998.60 31.37226
998.70 30.86912
998.80 30.35596
998.90 30.14218
999.00 30.38946
999.10 30.63043
999.20 30.66279
999.30 30.64542
999.40 30.68156
999.50 31.23563
999.60 31.57607
999.70 31.66568
999.80 31.37428
999.90 31.26663
1000.00 31.83957
1000.10 32.52867
1000.20 33.22928
1000.30 34.07203
1000.40 34.87843
1000.50 35.49177
1000.60 35.50714
1000.70 35.45013
1000.80 34.93329
1000.90 34.17263
1001.00 33.43739
1001.10 32.58247
1001.20 31.85074
1001.30 31.34668
1001.40 32.13965
1001.50 32.78778
1001.60 33.54789
1001.70 34.45348
1001.80 35.30375
1001.90 35.4435
1002.00 35.45962
1002.10 35.3879
1002.20 34.83235
1002.30 34.448
1002.40 34.41746
1002.50 35.0065
1002.60 35.44764
1002.70 35.63362
1002.80 35.88391
1002.90 36.10445
1003.00 35.63672
1003.10 35.05984
1003.20 34.55584
1003.30 34.32786
1003.40 34.08121
1003.50 33.71018
1003.60 33.24923
1003.70 32.81373
1003.80 32.53692
1003.90 32.31254
1004.00 32.27635
1004.10 33.34782
1004.20 34.32756
1004.30 35.31149
1004.40 36.29459
1004.50 37.17947
1004.60 37.23892
1004.70 37.07304
1004.80 36.83883
1004.90 35.95226
1005.00 35.13798
1005.10 34.11124
1005.20 32.68213
1005.30 31.33785
1005.40 30.3292
1005.50 29.45035
1005.60 28.66898
1005.70 28.84501
1005.80 28.96049
1005.90 29.22563
1006.00 29.96861
1006.10 30.65714
1006.20 30.99928
1006.30 31.16291
1006.40 31.29478
1006.50 31.41126
1006.60 31.59489
1006.70 31.9267
1006.80 33.04751
1006.90 33.96325
1007.00 34.5844
1007.10 34.99674
1007.20 35.35568
1007.30 35.10813
1007.40 34.66058
1007.50 34.28827
1007.60 34.88541
1007.70 35.34792
1007.80 35.81361
1007.90 36.35576
1008.00 36.85568
1008.10 37.04004
1008.20 37.03895
1008.30 37.05158
1008.40 37.00233
1008.50 36.99143
1008.60 37.03902
1008.70 37.32238
1008.80 37.46435
1008.90 37.03893
1009.00 36.24982
1009.10 35.51791
1009.20 35.02724
1009.30 34.56856
1009.40 34.28503
1009.50 34.98443
1009.60 35.58244
1009.70 36.24046
1009.80 36.92129
1009.90 37.59
1010.00 38.30484
1010.10 38.99446
1010.20 39.66557
1010.30 40.1885
1010.40 40.75153
1010.50 40.95868
1010.60 40.46834
1010.70 40.01618
1010.80 39.48024
1010.90 38.82046
1011.00 38.13026
1011.10 37.19607
1011.20 36.39772
1011.30 35.70907
1011.40 35.3317
1011.50 34.91715
1011.60 34.57405
1011.70 34.3488
1011.80 34.13498
1011.90 34.01117
1012.00 33.95644
1012.10 34.1348
1012.20 35.71019
1012.30 37.02956
1012.40 38.02389
1012.50 38.63461
1012.60 39.17728
1012.70 38.90482
1012.80 38.68985
1012.90 38.48085
1013.00 38.79098
1013.10 38.96423
1013.20 38.98936
1013.30 38.69215
1013.40 38.23349
1013.50 37.05317
1013.60 35.78082
1013.70 34.55742
1013.80 33.73238
1013.90 32.86666
1014.00 32.37511
1014.10 33.00648
1014.20 33.59297
1014.30 34.40064
1014.40 35.38224
1014.50 36.25084
1014.60 36.02132
1014.70 35.76497
1014.80 35.46647
1014.90 34.96379
1015.00 34.63506
1015.10 35.12257
1015.20 36.56648
1015.30 37.85128
1015.40 38.10285
1015.50 38.22975
1015.60 38.23285
1015.70 36.80924
1015.80 35.6096
1015.90 34.73909
1016.00 34.46482
1016.10 34.21024
1016.20 34.52866
1016.30 35.11877
1016.40 35.68246
1016.50 35.72656
1016.60 35.8164
1016.70 36.02753
1016.80 36.61857
1016.90 36.98836
1017.00 36.78162
1017.10 36.31311
1017.20 35.92521
1017.30 35.94962
1017.40 35.96816
1017.50 36.22087
1017.60 37.70118
1017.70 38.77437
1017.80 39.00382
1017.90 38.43985
1018.00 37.96518
1018.10 37.25745
1018.20 36.27071
1018.30 35.32573
1018.40 35.00781
1018.50 34.72226
1018.60 34.46318
1018.70 34.20298
1018.80 34.04017
1018.90 34.66598
1019.00 35.41619
1019.10 36.18469
1019.20 36.68373
1019.30 37.11865
1019.40 37.29214
1019.50 37.02695
1019.60 36.87427
1019.70 36.90852
1019.80 36.97454
1019.90 36.9961
1020.00 36.76007
1020.10 36.58573
1020.20 36.48635
1020.30 36.62832
1020.40 36.76245
1020.50 36.98811
1020.60 37.30811
1020.70 37.65033
1020.80 37.86017
1020.90 38.01898
1021.00 38.08927
1021.10 37.88511
1021.20 37.77182
1021.30 37.34878
1021.40 36.50955
1021.50 35.69184
1021.60 35.14492
1021.70 34.61656
1021.80 34.08559
1021.90 33.6572
1022.00 33.22258
1022.10 32.92702
1022.20 32.85659
1022.30 32.95774
1022.40 33.85492
1022.50 35.04271
1022.60 36.16852
1022.70 36.41226
1022.80 36.62744
1022.90 36.72025
1023.00 36.53042
1023.10 36.31903
1023.20 35.91705
1023.30 35.39865
1023.40 34.9874
1023.50 35.5186
1023.60 36.04745
1023.70 36.6033
1023.80 37.22018
1023.90 37.90645
1024.00 38.39099
1024.10 38.49823
1024.20 38.57386
1024.30 38.86822
1024.40 39.29702
1024.50 39.63118
1024.60 38.64158
1024.70 37.8261
1024.80 37.23297
1024.90 37.06625
1025.00 36.85623
1025.10 36.39557
1025.20 35.88351
1025.30 35.35461
1025.40 35.00339
1025.50 34.69353
1025.60 34.6362
1025.70 35.40969
1025.80 35.95396
1025.90 35.58623
1026.00 34.65005
1026.10 33.72971
1026.20 32.90659
1026.30 32.05319
1026.40 31.40114
1026.50 31.83575
1026.60 32.38946
1026.70 33.41906
1026.80 34.92293
1026.90 36.28591
1027.00 36.88132
1027.10 37.46785
1027.20 37.81453
1027.30 37.22408
1027.40 36.77117
1027.50 36.25219
1027.60 35.70143
1027.70 35.26612
1027.80 35.2634
1027.90 35.20946
1028.00 35.12549
1028.10 34.5761
1028.20 34.06766
1028.30 33.49464
1028.40 32.84171
1028.50 32.40598
1028.60 32.94361
1028.70 33.7451
1028.80 34.55322
1028.90 35.78667
1029.00 37.03955
1029.10 37.82558
1029.20 37.20658
1029.30 36.7539
1029.40 36.42159
1029.50 36.05655
1029.60 35.74273
1029.70 35.87884
1029.80 36.18776
1029.90 36.42216
1030.00 36.18268
1030.10 35.86804
1030.20 35.59227
1030.30 35.36146
1030.40 35.24472
1030.50 35.90811
1030.60 36.68698
1030.70 37.5044
1030.80 37.64454
1030.90 37.73766
1031.00 37.60712
1031.10 37.03681
1031.20 36.62635
1031.30 36.84548
1031.40 37.23341
1031.50 37.57471
1031.60 37.42339
1031.70 37.27769
1031.80 36.9815
1031.90 36.20312
1032.00 35.57417
1032.10 35.45046
1032.20 35.6544
1032.30 35.792
1032.40 35.37278
1032.50 35.07462
1032.60 34.89401
1032.70 35.38453
1032.80 35.85644
1032.90 36.6474
1033.00 37.86147
1033.10 39.01343
1033.20 39.6496
1033.30 40.20227
1033.40 40.46001
1033.50 39.50425
1033.60 38.76107
1033.70 37.77022
1033.80 36.4001
1033.90 35.12948
1034.00 34.69147
1034.10 34.32284
1034.20 33.9872
1034.30 33.74161
1034.40 33.50342
1034.50 33.22641
1034.60 32.87715
1034.70 32.76164
1034.80 33.46483
1034.90 34.4503
1035.00 35.30683
1035.10 35.15661
1035.20 35.20558
1035.30 35.31128
1035.40 35.58418
1035.50 35.7883
1035.60 36.0239
1035.70 36.33267
1035.80 36.68886
1035.90 37.19499
1036.00 37.62268
1036.10 38.07335
1036.20 38.77818
1036.30 39.45526
1036.40 39.80277
1036.50 39.74445
1036.60 39.68401
1036.70 39.68159
1036.80 39.72248
1036.90 39.804
1037.00 40.26376
1037.10 40.68241
1037.20 41.12471
1037.30 41.61892
1037.40 42.00533
1037.50 41.88928
1037.60 41.61672
1037.70 41.23996
1037.80 39.89969
1037.90 38.6239
1038.00 37.38808
1038.10 36.29644
1038.20 35.39596
1038.30 35.44042
1038.40 35.80675
1038.50 36.24656
1038.60 37.26843
1038.70 38.11858
1038.80 38.69271
1038.90 38.54262
1039.00 38.47946
1039.10 38.28935
1039.20 37.96697
1039.30 37.65232
1039.40 37.33219
1039.50 36.99547
1039.60 36.6293
1039.70 36.12356
1039.80 35.69896
1039.90 35.61742
1040.00 36.01153
1040.10 36.52981
1040.20 37.41698
1040.30 38.24246
1040.40 39.00138
1040.50 39.36572
1040.60 39.83261
1040.70 40.20313
1040.80 40.35937
1040.90 40.41803
1041.00 40.1922
1041.10 39.98007
1041.20 39.6753
1041.30 38.67121
1041.40 37.8041
1041.50 37.1992
1041.60 37.30119
1041.70 37.51125
1041.80 38.39305
1041.90 39.66866
1042.00 40.758
1042.10 40.75832
1042.20 40.86394
1042.30 40.78473
1042.40 39.84217
1042.50 38.85491
1042.60 37.73149
1042.70 36.57566
1042.80 35.50696
1042.90 35.07872
1043.00 34.68007
1043.10 34.66396
1043.20 36.38036
1043.30 37.83915
1043.40 39.09424
1043.50 40.13652
1043.60 40.99344
1043.70 40.93792
1043.80 40.83362
1043.90 40.74341
1044.00 40.80662
1044.10 40.80406
1044.20 40.81001
1044.30 40.84682
1044.40 40.87586
1044.50 40.7509
1044.60 40.53507
1044.70 40.30664
1044.80 40.46502
1044.90 40.76252
1045.00 41.24517
1045.10 42.06108
1045.20 42.78384
1045.30 43.34934
1045.40 43.80502
1045.50 44.14367
1045.60 44.20392
1045.70 44.2763
1045.80 44.16641
1045.90 43.22986
1046.00 42.39127
1046.10 41.55314
1046.20 40.79094
1046.30 40.17658
1046.40 39.98025
1046.50 39.66247
1046.60 39.32351
1046.70 38.72484
1046.80 38.05402
1046.90 37.39671
1047.00 36.83735
1047.10 36.43492
1047.20 36.53898
1047.30 36.63174
1047.40 36.74207
1047.50 37.04212
1047.60 37.32251
1047.70 37.54785
1047.80 37.73454
1047.90 37.90386
1048.00 37.94738
1048.10 37.96063
1048.20 38.08035
1048.30 38.84756
1048.40 39.41665
1048.50 39.92143
1048.60 40.30026
1048.70 40.66587
1048.80 40.835
1048.90 40.89329
1049.00 41.01023
1049.10 41.13887
1049.20 41.16472
1049.30 41.17814
1049.40 41.11042
1049.50 40.91601
1049.60 40.17773
1049.70 38.90217
1049.80 37.73648
1049.90 37.56323
1050.00 37.50696
1050.10 37.58525
1050.20 38.56155
1050.30 39.43585
1050.40 39.92376
1050.50 39.92198
1050.60 39.87636
1050.70 39.73451
1050.80 39.58342
1050.90 39.44968
1051.00 39.51518
1051.10 39.51251
1051.20 39.17825
1051.30 38.21746
1051.40 37.37663
1051.50 36.92839
1051.60 36.55377
1051.70 36.23312
1051.80 36.52677
1051.90 36.87652
1052.00 37.13264
1052.10 37.08632
1052.20 37.10925
1052.30 37.26887
1052.40 37.44699
1052.50 37.66174
1052.60 38.51162
1052.70 39.38459
1052.80 40.18757
1052.90 40.65063
1053.00 41.10138
1053.10 41.11496
1053.20 40.59735
1053.30 40.18103
1053.40 40.32273
1053.50 40.41646
1053.60 40.54122
1053.70 40.59018
1053.80 40.64293
1053.90 40.45884
1054.00 40.03862
1054.10 39.74683
1054.20 40.04176
1054.30 40.27559
1054.40 40.47008
1054.50 40.23678
1054.60 40.1858
1054.70 39.92014
1054.80 39.21071
1054.90 38.65036
1055.00 38.78002
1055.10 39.0324
1055.20 39.2905
1055.30 39.74677
1055.40 40.1886
1055.50 40.34197
1055.60 39.79654
1055.70 39.29327
1055.80 38.6768
1055.90 37.92496
1056.00 37.23279
1056.10 36.78725
1056.20 36.37425
1056.30 36.07002
1056.40 36.29378
1056.50 36.51298
1056.60 36.86779
1056.70 37.36116
1056.80 37.80779
1056.90 37.88361
1057.00 37.91336
1057.10 37.93994
1057.20 38.08371
1057.30 38.21984
1057.40 38.47362
1057.50 38.92094
1057.60 39.36631
1057.70 39.55155
1057.80 39.69486
1057.90 39.80465
1058.00 39.78987
1058.10 39.79543
1058.20 39.82802
1058.30 39.91321
1058.40 39.85084
1058.50 39.2077
1058.60 38.34338
1058.70 37.50843
1058.80 37.24038
1058.90 37.02526
1059.00 36.95577
1059.10 37.26053
1059.20 37.5494
1059.30 37.83028
1059.40 38.01864
1059.50 38.23312
1059.60 38.74816
1059.70 39.32328
1059.80 39.78292
1059.90 39.52758
1060.00 39.29371
1060.10 39.04105
1060.20 38.70847
1060.30 38.36414
1060.40 38.03413
1060.50 37.75871
1060.60 37.45046
1060.70 37.06582
1060.80 36.80167
1060.90 36.6582
1061.00 36.59994
1061.10 36.57343
1061.20 37.07708
1061.30 37.70027
1061.40 38.3379
1061.50 38.76168
1061.60 39.051
1061.70 39.10762
1061.80 38.79155
1061.90 38.4723
1062.00 38.19436
1062.10 38.07038
1062.20 38.02022
1062.30 38.0674
1062.40 37.98491
1062.50 38.07192
1062.60 38.68005
1062.70 39.33754
1062.80 40.04208
1062.90 40.76769
1063.00 41.37599
1063.10 41.26116
1063.20 41.19263
1063.30 41.01106
1063.40 40.53288
1063.50 40.06427
1063.60 39.9062
1063.70 40.01108
1063.80 40.18156
1063.90 40.65597
1064.00 41.13094
1064.10 41.55926
1064.20 41.72865
1064.30 41.91873
1064.40 41.982
1064.50 41.86284
1064.60 41.73188
1064.70 41.63186
1064.80 41.52354
1064.90 41.43698
1065.00 41.52485
1065.10 41.51937
1065.20 41.33434
1065.30 40.91542
1065.40 40.53665
1065.50 39.97003
1065.60 39.23013
1065.70 38.54369
1065.80 38.44522
1065.90 38.34328
1066.00 38.25553
1066.10 38.23013
1066.20 38.06581
1066.30 37.45152
1066.40 36.68819
1066.50 36.04569
1066.60 36.34301
1066.70 36.53165
1066.80 36.71858
1066.90 36.84268
1067.00 36.99099
1067.10 37.08974
1067.20 37.0949
1067.30 37.18111
1067.40 37.96597
1067.50 38.6801
1067.60 39.34889
1067.70 39.80242
1067.80 40.31433
1067.90 40.71271
1068.00 40.98311
1068.10 41.26086
1068.20 41.48851
1068.30 41.42788
1068.40 41.39077
1068.50 41.48549
1068.60 41.66257
1068.70 41.73396
1068.80 41.73067
1068.90 41.74105
1069.00 41.63403
1069.10 41.48065
1069.20 41.38168
1069.30 41.41383
1069.40 41.34134
1069.50 41.07812
1069.60 40.56541
1069.70 40.22407
1069.80 40.17463
1069.90 40.04279
1070.00 39.93487
1070.10 39.97445
1070.20 40.01029
1070.30 39.95123
1070.40 39.58389
1070.50 39.30102
1070.60 39.3921
1070.70 39.6575
1070.80 39.84979
1070.90 39.77601
1071.00 39.95505
1071.10 40.07475
1071.20 39.95212
1071.30 39.93605
1071.40 40.30081
1071.50 41.04215
1071.60 41.65989
1071.70 41.58066
1071.80 41.56217
1071.90 41.50972
1072.00 41.47197
1072.10 41.3778
1072.20 41.24822
1072.30 41.14921
1072.40 40.97876
1072.50 40.35891
1072.60 39.583
1072.70 38.90155
1072.80 39.18874
1072.90 39.31488
1073.00 39.51044
1073.10 39.88815
1073.20 40.1497
1073.30 39.93371
1073.40 39.74634
1073.50 39.60058
1073.60 39.77167
1073.70 39.82823
1073.80 40.02009
1073.90 40.52968
1074.00 41.07572
1074.10 41.61459
1074.20 42.07842
1074.30 42.42011
1074.40 42.2042
1074.50 42.09741
1074.60 42.00154
1074.70 41.98295
1074.80 41.84556
1074.90 41.72393
1075.00 41.76654
1075.10 41.86525
1075.20 41.49849
1075.30 41.10044
1075.40 40.71672
1075.50 40.31799
1075.60 40.03813
1075.70 40.19272
1075.80 40.77332
1075.90 41.25684
1076.00 41.42218
1076.10 41.67182
1076.20 41.8319
1076.30 41.71941
1076.40 41.68197
1076.50 41.71248
1076.60 41.87753
1076.70 42.06731
1076.80 42.23999
1076.90 42.26748
1077.00 42.26702
1077.10 42.21922
1077.20 42.22634
1077.30 42.15384
1077.40 41.97245
1077.50 41.77992
1077.60 41.31282
1077.70 40.69158
1077.80 40.15249
1077.90 40.54225
1078.00 40.89039
1078.10 41.23428
1078.20 41.53974
1078.30 41.82145
1078.40 41.94721
1078.50 41.83494
1078.60 41.67538
1078.70 41.3497
1078.80 41.20114
1078.90 40.99626
1079.00 40.4745
1079.10 39.92574
1079.20 39.49387
1079.30 39.17158
1079.40 38.84401
1079.50 38.89737
1079.60 38.95305
1079.70 39.13787
1079.80 39.51985
1079.90 39.8385
1080.00 40.12574
1080.10 40.41355
1080.20 40.70875
1080.30 40.86462
1080.40 40.9527
1080.50 41.01734
1080.60 41.37959
1080.70 41.71851
1080.80 41.9748
1080.90 42.07156
1081.00 42.18485
1081.10 42.22706
1081.20 42.21546
1081.30 42.17377
1081.40 42.12361
1081.50 42.13399
1081.60 42.23408
1081.70 42.53096
1081.80 42.72973
1081.90 42.72513
1082.00 42.73136
1082.10 42.66823
1082.20 42.18381
1082.30 41.74919
1082.40 41.36471
1082.50 41.13842
1082.60 40.98131
1082.70 40.95773
1082.80 40.98155
1082.90 41.00709
1083.00 41.20502
1083.10 41.4509
1083.20 41.7561
1083.30 42.1483
1083.40 42.30516
1083.50 42.29954
1083.60 42.21782
1083.70 42.17986
1083.80 42.08406
1083.90 42.00672
1084.00 42.0011
1084.10 42.09865
1084.20 42.12196
1084.30 42.0945
1084.40 41.99401
1084.50 41.78722
1084.60 41.23792
1084.70 40.76176
1084.80 40.35626
1084.90 40.61939
1085.00 40.78279
1085.10 41.09534
1085.20 41.6716
1085.30 41.96604
1085.40 41.67351
1085.50 41.2778
1085.60 41.08921
1085.70 41.63804
1085.80 42.05372
1085.90 42.47742
1086.00 42.86617
1086.10 43.16971
1086.20 43.41198
1086.30 43.68753
1086.40 43.91934
1086.50 43.62858
1086.60 43.44735
1086.70 43.23565
1086.80 42.9263
1086.90 42.61478
1087.00 42.7211
1087.10 43.14446
1087.20 43.53413
1087.30 43.43937
1087.40 43.3891
1087.50 43.18461
1087.60 42.38816
1087.70 41.76818
1087.80 41.64808
1087.90 42.06623
1088.00 42.3814
1088.10 42.26274
1088.20 42.21416
1088.30 42.13012
1088.40 41.9432
1088.50 41.78203
1088.60 41.83572
1088.70 42.33911
1088.80 42.74613
1088.90 42.60562
1089.00 42.33278
1089.10 42.09908
1089.20 42.09036
1089.30 41.92836
1089.40 41.73181
1089.50 41.55671
1089.60 41.57013
1089.70 41.89129
1089.80 42.22481
1089.90 42.5617
1090.00 43.07871
1090.10 43.60565
1090.20 43.97638
1090.30 43.97013
1090.40 44.03796
1090.50 43.97796
1090.60 43.7985
1090.70 43.51877
1090.80 43.09175
1090.90 42.78819
1091.00 42.44729
1091.10 41.86727
1091.20 41.35309
1091.30 41.30958
1091.40 41.59894
1091.50 41.9495
1091.60 42.65693
1091.70 43.29792
1091.80 43.83252
1091.90 43.91883
1092.00 43.97472
1092.10 43.82227
1092.20 43.44261
1092.30 43.122
1092.40 43.14593
1092.50 43.26859
1092.60 43.39297
1092.70 43.23053
1092.80 43.05247
1092.90 42.8918
1093.00 42.82124
1093.10 42.78564
1093.20 42.72229
1093.30 42.61647
1093.40 42.4922
1093.50 42.32857
1093.60 42.07493
1093.70 41.79525
1093.80 41.52311
1093.90 41.55996
1094.00 42.11912
1094.10 42.82959
1094.20 43.44286
1094.30 43.3981
1094.40 43.34946
1094.50 43.06948
1094.60 42.26236
1094.70 41.65951
1094.80 41.47724
1094.90 41.42652
1095.00 41.47336
1095.10 41.96149
1095.20 42.57688
1095.30 43.18927
1095.40 43.77425
1095.50 44.17936
1095.60 44.20952
1095.70 44.0421
1095.80 43.93648
1095.90 43.84355
1096.00 43.60715
1096.10 43.44965
1096.20 43.50342
1096.30 43.54891
1096.40 43.57654
1096.50 43.62608
1096.60 43.6337
1096.70 43.30736
1096.80 42.9015
1096.90 42.42122
1097.00 41.58291
1097.10 40.91581
1097.20 40.47375
1097.30 40.26292
1097.40 40.12198
1097.50 40.42153
1097.60 40.99426
1097.70 41.55962
1097.80 41.95981
1097.90 42.25635
1098.00 42.53589
1098.10 42.92639
1098.20 43.36037
1098.30 43.24645
1098.40 42.7579
1098.50 42.19391
1098.60 41.9018
1098.70 41.73491
1098.80 41.66034
1098.90 41.72472
1099.00 41.78364
1099.10 41.91109
1099.20 42.08305
1099.30 42.30456
1099.40 42.83781
1099.50 43.3057
1099.60 43.63058
1099.70 43.35991
1099.80 43.15148
1099.90 42.98933
1100.00 42.92388
1100.10 42.89515
1100.20 42.74772
1100.30 42.5846
1100.40 42.3719
1100.50 41.99818
1100.60 41.69374
1100.70 41.69686
1100.80 42.02395
1100.90 42.31347
1101.00 42.47569
1101.10 42.67027
1101.20 42.85595
1101.30 43.03581
1101.40 43.16162
1101.50 43.28909
1101.60 43.52258
1101.70 43.65448
1101.80 43.28238
1101.90 42.66759
1102.00 41.99155
1102.10 41.55174
1102.20 41.09335
1102.30 40.63124
1102.40 40.06564
1102.50 39.83631
1102.60 40.43499
1102.70 41.25492
1102.80 41.99647
1102.90 42.33611
1103.00 42.60071
1103.10 42.61236
1103.20 42.27022
1103.30 41.99192
1103.40 41.32192
1103.50 40.39646
1103.60 39.63981
1103.70 39.74018
1103.80 39.80926
1103.90 40.03589
1104.00 40.48747
1104.10 40.6857
1104.20 40.86633
1104.30 41.24253
1104.40 41.70659
1104.50 41.90548
1104.60 41.91941
1104.70 41.93718
1104.80 41.7741
1104.90 41.47741
1105.00 41.2463
1105.10 41.3332
1105.20 41.40734
1105.30 40.76505
1105.40 39.89615
1105.50 39.08019
1105.60 38.90951
1105.70 38.79893
1105.80 38.96913
1105.90 39.58725
1106.00 40.02578
1106.10 40.11223
1106.20 40.17684
1106.30 40.22669
1106.40 40.27633
1106.50 40.32275
1106.60 40.32624
1106.70 40.25707
1106.80 40.04248
1106.90 39.56972
1107.00 39.07712
1107.10 38.70502
1107.20 38.81145
1107.30 38.80856
1107.40 38.99815
1107.50 39.71378
1107.60 40.21058
1107.70 40.27402
1107.80 40.01787
1107.90 39.87423
1108.00 40.0351
1108.10 40.28652
1108.20 40.63356
1108.30 41.20393
1108.40 41.62877
1108.50 41.97031
1108.60 42.29248
1108.70 42.56771
1108.80 42.35957
1108.90 42.18695
1109.00 41.99579
1109.10 41.62407
1109.20 41.29404
1109.30 41.30939
1109.40 41.75666
1109.50 42.19954
1109.60 42.54231
1109.70 42.79757
1109.80 43.01314
1109.90 42.86436
1110.00 42.74708
1110.10 42.39087
1110.20 41.61004
1110.30 40.78021
1110.40 39.97931
1110.50 39.24435
1110.60 38.61848
1110.70 39.04698
1110.80 39.28008
1110.90 39.44154
1111.00 39.47147
1111.10 39.45173
1111.20 39.28618
1111.30 39.01712
1111.40 38.77229
1111.50 38.94638
1111.60 39.15737
1111.70 39.41803
1111.80 39.71686
1111.90 39.91367
1112.00 39.8541
1112.10 39.66207
1112.20 39.5031
1112.30 39.45723
1112.40 39.44297
1112.50 39.57573
1112.60 40.04893
1112.70 40.41814
1112.80 40.8867
1112.90 41.47321
1113.00 42.02338
1113.10 42.13696
1113.20 42.29911
1113.30 42.42443
1113.40 42.44616
1113.50 42.42043
1113.60 41.9989
1113.70 41.08866
1113.80 40.18994
1113.90 40.0255
1114.00 39.92985
1114.10 39.93568
1114.20 40.40432
1114.30 40.95028
1114.40 41.64451
1114.50 42.53996
1114.60 43.34184
1114.70 43.29252
1114.80 43.12116
1114.90 42.90187
1115.00 42.25204
1115.10 41.53219
1115.20 41.21773
1115.30 41.70996
1115.40 42.03834
1115.50 42.02443
1115.60 41.92922
1115.70 41.86689
1115.80 41.85909
1115.90 42.01947
1116.00 42.18642
1116.10 42.23842
1116.20 42.21915
1116.30 42.29761
1116.40 42.38869
1116.50 42.43648
1116.60 42.43827
1116.70 42.33566
1116.80 42.1124
1116.90 41.53015
1117.00 41.06818
1117.10 40.55315
1117.20 39.9973
1117.30 39.456
1117.40 39.1297
1117.50 38.69197
1117.60 38.32768
1117.70 38.5145
1117.80 38.83319
1117.90 39.35117
1118.00 40.06965
1118.10 40.71564
1118.20 41.17952
1118.30 41.47504
1118.40 41.7788
1118.50 42.26486
1118.60 42.91823
1118.70 43.18995
1118.80 42.93209
1118.90 42.65277
1119.00 42.25203
1119.10 41.8554
1119.20 41.47095
1119.30 41.04508
1119.40 40.69454
1119.50 40.38353
1119.60 40.40514
1119.70 40.48333
1119.80 40.58387
1119.90 40.6755
1120.00 40.71534
1120.10 40.73824
1120.20 40.66324
1120.30 40.4151
1120.40 40.18551
1120.50 40.3034
1120.60 41.0229
1120.70 41.68971
1120.80 42.27988
1120.90 42.17772
1121.00 42.09719
1121.10 41.99238
1121.20 41.89294
1121.30 41.61622
1121.40 41.35979
1121.50 41.1702
1121.60 41.255
1121.70 41.36131
1121.80 41.40452
1121.90 41.28185
1122.00 41.1429
1122.10 41.11763
1122.20 41.11794
1122.30 40.9982
1122.40 40.9248
1122.50 41.35437
1122.60 41.62797
1122.70 41.89679
1122.80 42.10593
1122.90 42.51063
1123.00 42.95733
1123.10 43.17916
1123.20 42.9011
1123.30 42.82362
1123.40 42.68835
1123.50 42.24824
1123.60 41.34427
1123.70 40.63749
1123.80 40.62166
1123.90 41.06057
1124.00 41.46458
1124.10 41.81432
1124.20 42.15162
1124.30 42.50931
1124.40 42.84457
1124.50 42.99273
1124.60 43.11302
1124.70 43.19515
1124.80 42.8075
1124.90 42.72227
1125.00 42.57633
1125.10 42.13575
1125.20 40.94267
1125.30 39.76602
1125.40 39.33054
1125.50 40.10431
1125.60 40.9206
1125.70 41.70292
1125.80 41.95452
1125.90 42.39443
1126.00 42.78788
1126.10 42.77754
1126.20 42.59306
1126.30 42.42137
1126.40 42.37581
1126.50 42.37743
1126.60 42.38897
1126.70 42.45397
1126.80 42.68101
1126.90 42.93585
1127.00 43.16928
1127.10 43.23547
1127.20 43.24539
1127.30 43.21841
1127.40 43.24674
1127.50 43.33647
1127.60 43.43107
1127.70 43.31019
1127.80 42.93995
1127.90 42.60632
1128.00 42.35286
1128.10 42.32588
1128.20 42.30391
1128.30 42.30499
1128.40 42.5531
1128.50 42.77669
1128.60 43.00818
1128.70 42.94345
1128.80 42.91297
1128.90 42.84682
1129.00 42.74171
1129.10 42.63156
1129.20 42.50439
1129.30 42.51516
1129.40 42.74152
1129.50 42.94675
1129.60 43.18511
1129.70 43.34731
1129.80 43.43912
1129.90 43.52634
1130.00 43.26448
1130.10 43.20786
1130.20 42.99879
1130.30 42.58884
1130.40 42.06885
1130.50 41.57989
1130.60 41.16494
1130.70 40.8745
1130.80 40.59167
1130.90 40.40356
1131.00 40.54523
1131.10 40.56952
1131.20 40.60607
1131.30 40.81725
1131.40 41.08897
1131.50 41.33554
1131.60 41.53985
1131.70 41.72585
1131.80 41.89398
1131.90 42.0109
1132.00 42.00746
1132.10 42.03672
1132.20 42.05474
1132.30 42.04119
1132.40 41.99902
1132.50 41.97098
1132.60 41.83722
1132.70 41.72539
1132.80 41.617
1132.90 41.5695
1133.00 41.60225
1133.10 41.61514
1133.20 41.58125
1133.30 41.46312
1133.40 41.36906
1133.50 41.28346
1133.60 40.95986
1133.70 40.69465
1133.80 40.42796
1133.90 40.00575
1134.00 39.52864
1134.10 39.04579
1134.20 38.74977
1134.30 38.37985
1134.40 37.95637
1134.50 37.73362
1134.60 37.92025
1134.70 38.16684
1134.80 38.47992
1134.90 39.73581
1135.00 41.04251
1135.10 42.23915
1135.20 42.09884
1135.30 41.82356
1135.40 41.5068
1135.50 41.06752
1135.60 40.695
1135.70 40.38703
1135.80 40.22207
1135.90 40.00102
1136.00 39.52912
1136.10 39.10582
1136.20 39.33415
1136.30 39.73721
1136.40 40.05059
1136.50 39.8116
1136.60 39.60166
1136.70 39.37671
1136.80 39.02186
1136.90 38.51179
1137.00 38.01077
1137.10 37.59678
1137.20 37.43267
1137.30 37.25565
1137.40 37.04734
1137.50 36.5093
1137.60 35.88215
1137.70 35.13415
1137.80 33.95237
1137.90 33.1025
1138.00 32.06801
1138.10 30.75039
1138.20 29.12264
1138.30 27.77368
1138.40 27.09046
1138.50 27.46376
1138.60 27.53448
1138.70 27.93428
1138.80 29.57908
1138.90 31.14624
1139.00 32.48692
1139.10 33.32919
1139.20 34.28259
1139.30 35.03107
1139.40 35.25612
1139.50 35.20207
1139.60 35.14198
1139.70 34.93226
1139.80 34.20504
1139.90 33.41154
1140.00 32.50274
1140.10 30.93979
1140.20 29.6774
1140.30 28.24476
1140.40 26.55073
1140.50 24.69624
1140.60 23.28036
1140.70 23.16546
1140.80 23.67451
1140.90 24.26174
1141.00 25.30036
1141.10 27.46095
1141.20 29.49398
1141.30 31.38562
1141.40 32.72589
1141.50 34.03754
1141.60 35.22066
1141.70 35.87302
1141.80 36.70228
1141.90 37.42952
1142.00 38.01985
1142.10 38.49493
1142.20 38.95002
1142.30 39.2718
1142.40 39.16137
1142.50 39.11122
1142.60 39.08535
1142.70 39.33075
1142.80 39.51453
1142.90 39.68641
1143.00 39.74434
1143.10 39.90485
1143.20 40.03608
1143.30 40.14009
1143.40 40.1619
1143.50 40.15976
1143.60 40.16151
1143.70 40.24797
1143.80 40.33364
1143.90 40.3635
1144.00 40.39795
1144.10 40.30438
1144.20 40.2921
1144.30 40.30003
1144.40 40.39454
1144.50 40.49178
1144.60 40.45504
1144.70 40.36014
1144.80 40.28995
1144.90 40.30327
1145.00 40.54632
1145.10 40.74398
1145.20 40.93151
1145.30 40.90865
1145.40 40.97187
1145.50 41.0272
1145.60 41.00145
1145.70 40.92574
1145.80 40.85606
1145.90 40.97342
1146.00 41.24574
1146.10 41.49717
1146.20 41.72729
1146.30 41.7875
1146.40 41.87151
1146.50 41.95794
1146.60 42.20168
1146.70 42.36702
1146.80 42.47153
1146.90 42.41536
1147.00 42.55352
1147.10 42.65838
1147.20 42.67588
1147.30 42.43584
1147.40 42.1993
1147.50 42.00541
1147.60 41.84715
1147.70 41.67099
1147.80 41.49803
1147.90 41.4864
1148.00 41.56576
1148.10 41.6249
1148.20 41.73232
1148.30 41.93628
1148.40 42.066
1148.50 42.17025
1148.60 42.13317
1148.70 42.12566
1148.80 42.22732
1148.90 42.53432
1149.00 42.78635
1149.10 43.02185
1149.20 42.75959
1149.30 42.75827
1149.40 42.70782
1149.50 42.75898
1149.60 42.58686
1149.70 42.4718
1149.80 42.41875
1149.90 42.40191
1150.00 42.33887
1150.10 42.17114
1150.20 41.94254
1150.30 41.81549
1150.40 41.69541
1150.50 41.86249
1150.60 41.90807
1150.70 41.98361
1150.80 42.2047
1150.90 42.43221
1151.00 42.63307
1151.10 42.6547
1151.20 42.54396
1151.30 42.44851
1151.40 42.30652
1151.50 42.13276
1151.60 42.0256
1151.70 41.9244
1151.80 41.87353
1151.90 41.69398
1152.00 41.52109
1152.10 41.5307
1152.20 41.77256
1152.30 41.93951
1152.40 41.81433
1152.50 41.30574
1152.60 40.81118
1152.70 40.47733
1152.80 40.54065
1152.90 40.52736
1153.00 40.51408
1153.10 40.54135
1153.20 40.69219
1153.30 40.83909
1153.40 40.90897
1153.50 40.90118
1153.60 40.93525
1153.70 41.1216
1153.80 41.37999
1153.90 41.59635
1154.00 41.80461
1154.10 41.99739
1154.20 42.17477
1154.30 42.32041
1154.40 42.04044
1154.50 41.89468
1154.60 41.70078
1154.70 41.39413
1154.80 41.11183
1154.90 40.9076
1155.00 40.9441
1155.10 41.1126
1155.20 41.27205
1155.30 41.39999
1155.40 41.40381
1155.50 41.40402
1155.60 41.42055
1155.70 41.60951
1155.80 41.72412
1155.90 41.81054
1156.00 41.75508
1156.10 41.86321
1156.20 41.97559
1156.30 42.04586
1156.40 41.98421
1156.50 41.89667
1156.60 41.84401
1156.70 41.89849
1156.80 41.98589
1156.90 41.99849
1157.00 41.64817
1157.10 41.35604
1157.20 41.10383
1157.30 41.23093
1157.40 41.34312
1157.50 41.45818
1157.60 41.48474
1157.70 41.42901
1157.80 41.37469
1157.90 41.35207
1158.00 41.40046
1158.10 41.43254
1158.20 41.46613
1158.30 41.53934
1158.40 41.67815
1158.50 41.8038
1158.60 41.66937
1158.70 41.49331
1158.80 41.2922
1158.90 41.05111
1159.00 40.78021
1159.10 40.4579
1159.20 40.06671
1159.30 39.62397
1159.40 39.26593
1159.50 38.9384
1159.60 38.76656
1159.70 38.4958
1159.80 38.33573
1159.90 38.75839
1160.00 39.09622
1160.10 39.4454
1160.20 39.76092
1160.30 40.04818
1160.40 40.26768
1160.50 40.31754
1160.60 40.16779
1160.70 40.03906
1160.80 39.7801
1160.90 39.08743
1161.00 38.54136
1161.10 38.15056
1161.20 38.63235
1161.30 38.84248
1161.40 39.18804
1161.50 39.8416
1161.60 40.73321
1161.70 41.51253
1161.80 41.78015
1161.90 41.4379
1162.00 41.18714
1162.10 40.92595
1162.20 40.85103
1162.30 40.73317
1162.40 40.65473
1162.50 40.87027
1162.60 41.0051
1162.70 41.16236
1162.80 41.29737
1162.90 41.39836
1163.00 41.48532
1163.10 41.56084
1163.20 41.65619
1163.30 41.78057
1163.40 41.78626
1163.50 41.41164
1163.60 41.14728
1163.70 40.79964
1163.80 40.04067
1163.90 39.25831
1164.00 38.56441
1164.10 38.52115
1164.20 38.53088
1164.30 38.65594
1164.40 39.06813
1164.50 39.8384
1164.60 40.50159
1164.70 40.99898
1164.80 41.01472
1164.90 41.10316
1165.00 41.15234
1165.10 40.8858
1165.20 40.70671
1165.30 40.50875
1165.40 40.23334
1165.50 39.92694
1165.60 39.66038
1165.70 39.58209
1165.80 39.68381
1165.90 39.7031
1166.00 39.8043
1166.10 40.1598
1166.20 40.51332
1166.30 40.85803
1166.40 40.93051
1166.50 41.14498
1166.60 41.33801
1166.70 41.33167
1166.80 41.26658
1166.90 41.15383
1167.00 40.9427
1167.10 40.63009
1167.20 40.32566
1167.30 40.07735
1167.40 40.01481
1167.50 39.96373
1167.60 39.91809
1167.70 39.87711
1167.80 39.84611
1167.90 39.83461
1168.00 39.77286
1168.10 39.70857
1168.20 39.59831
1168.30 39.27503
1168.40 38.79417
1168.50 38.29291
1168.60 37.62134
1168.70 36.45947
1168.80 35.35571
1168.90 34.0462
1169.00 31.36625
1169.10 28.94796
1169.20 26.7882
1169.30 26.51888
1169.40 25.84063
1169.50 25.62139
1169.60 26.89129
1169.70 29.31284
1169.80 31.47755
1169.90 33.35447
1170.00 34.72089
1170.10 36.18847
1170.20 37.55386
1170.30 38.2279
1170.40 39.07854
1170.50 39.8651
1170.60 40.09173
1170.70 40.27141
1170.80 40.42128
1170.90 40.43009
1171.00 40.37697
1171.10 40.36337
1171.20 40.37656
1171.30 40.3845
1171.40 40.33837
1171.50 40.29354
1171.60 40.31344
1171.70 40.42725
1171.80 40.51173
1171.90 40.32923
1172.00 40.03073
1172.10 39.75927
1172.20 39.68146
1172.30 39.71605
1172.40 39.7484
1172.50 39.8214
1172.60 39.98704
1172.70 40.16221
1172.80 40.34888
1172.90 40.47636
1173.00 40.56851
1173.10 40.64267
1173.20 40.56555
1173.30 40.5932
1173.40 40.56432
1173.50 40.40869
1173.60 40.17242
1173.70 39.95278
1173.80 39.89342
1173.90 39.99552
1174.00 40.04088
1174.10 40.12241
1174.20 40.37637
1174.30 40.62629
1174.40 40.88581
1174.50 40.89674
1174.60 40.90156
1174.70 40.85709
1174.80 40.72
1174.90 40.58646
1175.00 40.45127
1175.10 40.20084
1175.20 39.77046
1175.30 39.35945
1175.40 38.98868
1175.50 38.91076
1175.60 38.79713
1175.70 38.71757
1175.80 38.75425
1175.90 38.92911
1176.00 39.05038
1176.10 38.88879
1176.20 38.64994
1176.30 38.40954
1176.40 38.10734
1176.50 37.69631
1176.60 37.18027
1176.70 36.39946
1176.80 34.91251
1176.90 33.62064
1177.00 32.12052
1177.10 29.35287
1177.20 26.64211
1177.30 24.1433
1177.40 22.79031
1177.50 21.34139
1177.60 20.36916
1177.70 20.86572
1177.80 23.11431
1177.90 25.0585
1178.00 27.04474
1178.10 29.1202
1178.20 31.21101
1178.30 33.10466
1178.40 33.93401
1178.50 34.97044
1178.60 35.95364
1178.70 36.61599
1178.80 37.25307
1178.90 37.88906
1179.00 38.33829
1179.10 38.60857
1179.20 38.86498
1179.30 39.03792
1179.40 39.00559
1179.50 39.01473
1179.60 39.01226
1179.70 39.11416
1179.80 39.21441
1179.90 39.33738
1180.00 39.36615
1180.10 39.28819
1180.20 39.22968
1180.30 39.34451
1180.40 39.65042
1180.50 39.93654
1180.60 40.0936
1180.70 40.02367
1180.80 40.03578
1180.90 40.04015
1181.00 39.99653
1181.10 39.93358
1181.20 39.87312
1181.30 39.80511
1181.40 39.7186
1181.50 39.62818
1181.60 39.61943
1181.70 39.61397
1181.80 39.60495
1181.90 39.65612
1182.00 39.85024
1182.10 40.03706
1182.20 40.20578
1182.30 40.162
1182.40 40.16935
1182.50 40.10714
1182.60 39.68206
1182.70 39.27296
1182.80 38.82706
1182.90 38.46522
1183.00 38.09128
1183.10 37.79818
1183.20 37.72151
1183.30 38.01135
1183.40 38.25605
1183.50 38.47345
1183.60 38.50986
1183.70 38.65792
1183.80 38.77377
1183.90 38.83973
1184.00 38.73465
1184.10 38.72753
1184.20 39.14329
1184.30 39.76514
1184.40 40.2958
1184.50 40.50646
1184.60 40.29123
1184.70 40.17066
1184.80 39.97769
1184.90 39.49291
1185.00 39.05347
1185.10 38.66073
1185.20 38.61488
1185.30 38.52816
1185.40 38.50503
1185.50 38.75569
1185.60 39.05878
1185.70 39.30537
1185.80 39.49335
1185.90 39.61733
1186.00 39.77759
1186.10 39.91492
1186.20 39.91277
1186.30 39.85511
1186.40 39.78387
1186.50 39.74596
1186.60 39.81991
1186.70 39.86099
1186.80 39.63498
1186.90 39.33384
1187.00 39.08176
1187.10 38.9837
1187.20 39.00554
1187.30 38.99411
1187.40 39.08483
1187.50 39.48002
1187.60 39.81817
1187.70 40.1251
1187.80 39.82776
1187.90 39.63824
1188.00 39.34408
1188.10 38.60031
1188.20 37.87905
1188.30 37.06623
1188.40 35.99764
1188.50 34.71704
1188.60 33.65402
1188.70 33.33644
1188.80 34.29477
1188.90 34.93975
1189.00 35.68064
1189.10 36.72293
1189.20 37.81657
1189.30 38.71893
1189.40 38.77332
1189.50 38.72863
1189.60 38.70465
1189.70 38.78979
1189.80 39.02708
1189.90 39.2847
1190.00 39.49463
1190.10 39.61737
1190.20 39.77672
1190.30 39.87099
1190.40 39.62158
1190.50 39.37122
1190.60 39.11042
1190.70 38.97739
1190.80 38.82211
1190.90 38.75159
1191.00 38.90323
1191.10 39.10156
1191.20 39.24074
1191.30 39.35128
1191.40 39.4706
1191.50 39.63332
1191.60 39.77798
1191.70 39.84449
1191.80 39.93604
1191.90 40.0346
1192.00 40.08807
1192.10 40.05987
1192.20 40.00502
1192.30 39.84059
1192.40 39.67418
1192.50 39.52952
1192.60 39.44732
1192.70 39.44722
1192.80 39.43902
1192.90 39.46641
1193.00 39.56495
1193.10 39.63478
1193.20 39.69215
1193.30 39.68777
1193.40 39.71935
1193.50 39.69499
1193.60 39.3295
1193.70 38.92698
1193.80 38.54662
1193.90 38.19301
1194.00 37.85863
1194.10 37.52163
1194.20 37.30976
1194.30 37.44983
1194.40 37.49298
1194.50 37.5212
1194.60 37.39709
1194.70 37.42393
1194.80 37.38253
1194.90 36.96532
1195.00 36.40224
1195.10 35.94173
1195.20 35.94551
1195.30 36.26628
1195.40 36.50694
1195.50 36.87074
1195.60 37.421
1195.70 37.94654
1195.80 38.38796
1195.90 37.93903
1196.00 37.71664
1196.10 37.47769
1196.20 37.23883
1196.30 36.97021
1196.40 36.73469
1196.50 36.65646
1196.60 36.70584
1196.70 36.74329
1196.80 36.76709
1196.90 36.76191
1197.00 36.69349
1197.10 36.43673
1197.20 35.41693
1197.30 34.61196
1197.40 33.78399
1197.50 32.95695
1197.60 31.9161
1197.70 31.21527
1197.80 31.44681
1197.90 32.13159
1198.00 32.70218
1198.10 33.24653
1198.20 33.79062
1198.30 34.37323
1198.40 34.94352
1198.50 35.56232
1198.60 36.06691
1198.70 36.52356
1198.80 36.36992
1198.90 36.44105
1199.00 36.38095
1199.10 35.9622
1199.20 35.39402
1199.30 34.90156
1199.40 34.65259
1199.50 34.67887
1199.60 34.63141
1199.70 34.66822
1199.80 34.93746
1199.90 35.15407
1200.00 35.34652
