# Version 2.1 - nm, norm@500 to 1, cut digits
# Wavelength(nm)  Flambda(ergs/cm^s/s/nm)
300.00 0.007052066
300.10 0.009359121
300.20 0.01077098
300.30 0.01136364
300.40 0.01152757
300.50 0.0115809
300.60 0.01163075
300.70 0.01167861
300.80 0.01172725
300.90 0.01178095
301.00 0.0118441
301.10 0.01191863
301.20 0.01200285
301.30 0.0120929
301.40 0.01218529
301.50 0.01227819
301.60 0.01237113
301.70 0.01246409
301.80 0.01255706
301.90 0.01265004
302.00 0.01274301
302.10 0.01283599
302.20 0.01292896
302.30 0.01302194
302.40 0.01311493
302.50 0.01320794
302.60 0.01330097
302.70 0.01339439
302.80 0.01348958
302.90 0.01358921
303.00 0.01369619
303.10 0.01381181
303.20 0.01393478
303.30 0.01406219
303.40 0.01419137
303.50 0.01432094
303.60 0.01445053
303.70 0.01458015
303.80 0.01470977
303.90 0.01483939
304.00 0.01496902
304.10 0.01509864
304.20 0.01522827
304.30 0.01535788
304.40 0.01548746
304.50 0.015617
304.60 0.01574645
304.70 0.01587472
304.80 0.01599756
304.90 0.01610684
305.00 0.01619364
305.10 0.016254
305.20 0.01629188
305.30 0.01631619
305.40 0.01633508
305.50 0.01635278
305.60 0.0163704
305.70 0.01638797
305.80 0.01640552
305.90 0.01642305
306.00 0.01644058
306.10 0.01645811
306.20 0.01647565
306.30 0.01649318
306.40 0.01651071
306.50 0.01652824
306.60 0.01654577
306.70 0.01656331
306.80 0.01658085
306.90 0.01659843
307.00 0.01661605
307.10 0.01663374
307.20 0.01665147
307.30 0.01666923
307.40 0.016687
307.50 0.01670477
307.60 0.01672255
307.70 0.01674032
307.80 0.0167581
307.90 0.01677587
308.00 0.01679365
308.10 0.01681142
308.20 0.0168292
308.30 0.01684701
308.40 0.01686488
308.50 0.01688287
308.60 0.01690108
308.70 0.01692225
308.80 0.01695701
308.90 0.01702571
309.00 0.01715067
309.10 0.0173418
309.20 0.01758919
309.30 0.01787052
309.40 0.01816545
309.50 0.01846333
309.60 0.01876143
309.70 0.01905965
309.80 0.01935793
309.90 0.01965625
310.00 0.01995456
310.10 0.02025288
310.20 0.02055119
310.30 0.02084947
310.40 0.0211477
310.50 0.02144579
310.60 0.02174367
310.70 0.02203858
310.80 0.02231982
310.90 0.02256695
311.00 0.02275751
311.10 0.02288156
311.20 0.02294905
311.30 0.02298242
311.40 0.02300212
311.50 0.02301886
311.60 0.02303538
311.70 0.02305177
311.80 0.0230681
311.90 0.0230844
312.00 0.0231007
312.10 0.02311699
312.20 0.0231333
312.30 0.02314963
312.40 0.02316605
312.50 0.02318262
312.60 0.02319946
312.70 0.02321996
312.80 0.02325734
312.90 0.02333687
313.00 0.02348624
313.10 0.02371777
313.20 0.02401915
313.30 0.02436267
313.40 0.02472307
313.50 0.02508714
313.60 0.02545147
313.70 0.02581596
313.80 0.02618053
313.90 0.02654513
314.00 0.02690973
314.10 0.02727434
314.20 0.02763895
314.30 0.02800359
314.40 0.02836827
314.50 0.02873307
314.60 0.02909805
314.70 0.02946559
314.80 0.02984487
314.90 0.03025349
315.00 0.03071073
315.10 0.03122516
315.20 0.03178821
315.30 0.0323806
315.40 0.03298473
315.50 0.03359142
315.60 0.03419829
315.70 0.03480528
315.80 0.03541231
315.90 0.03601937
316.00 0.03662643
316.10 0.0372335
316.20 0.03784054
316.30 0.03844751
316.40 0.03905427
316.50 0.03966063
316.60 0.04026632
316.70 0.04086261
316.80 0.04141573
316.90 0.04186101
317.00 0.04212756
317.10 0.0421839
317.20 0.04206152
317.30 0.0418313
317.40 0.04155791
317.50 0.04127512
317.60 0.04099166
317.70 0.04070779
317.80 0.04042373
317.90 0.04013958
318.00 0.03985541
318.10 0.03957125
318.20 0.0392871
318.30 0.03900301
318.40 0.03871907
318.50 0.03843544
318.60 0.03815233
318.70 0.03787641
318.80 0.03763354
318.90 0.03747322
319.00 0.03744971
319.10 0.03758711
319.20 0.03786133
319.30 0.0382181
319.40 0.03860791
319.50 0.03900492
319.60 0.03940244
319.70 0.03980027
319.80 0.04019826
319.90 0.0405963
320.00 0.04099436
320.10 0.04139243
320.20 0.04179048
320.30 0.04218851
320.40 0.04258649
320.50 0.04298435
320.60 0.04338202
320.70 0.04377703
320.80 0.04415982
320.90 0.04451208
321.00 0.04481373
321.10 0.04505588
321.20 0.04524742
321.30 0.04540843
321.40 0.04555722
321.50 0.04570335
321.60 0.04584929
321.70 0.04599511
321.80 0.04614088
321.90 0.04628662
322.00 0.04643236
322.10 0.0465781
322.20 0.04672386
322.30 0.0468697
322.40 0.04701575
322.50 0.04716221
322.60 0.04730938
322.70 0.04746626
322.80 0.04766778
322.90 0.04798083
323.00 0.0484787
323.10 0.04919395
323.20 0.05009403
323.30 0.05110562
323.40 0.05216187
323.50 0.05322783
323.60 0.05429448
323.70 0.05536156
323.80 0.05642884
323.90 0.0574962
324.00 0.05856359
324.10 0.05963097
324.20 0.06069835
324.30 0.06176572
324.40 0.06283305
324.50 0.06390031
324.60 0.06496747
324.70 0.06603304
324.80 0.06709136
324.90 0.06813157
325.00 0.06914175
325.10 0.07011662
325.20 0.07106147
325.30 0.0719882
325.40 0.07290768
325.50 0.07382558
325.60 0.07474337
325.70 0.07566109
325.80 0.07657878
325.90 0.07749646
326.00 0.07841413
326.10 0.0793318
326.20 0.08024948
326.30 0.08116718
326.40 0.08208496
326.50 0.08300289
326.60 0.08392106
326.70 0.08484263
326.80 0.08577983
326.90 0.08675608
327.00 0.08779703
327.10 0.0889141
327.20 0.09009587
327.30 0.09131669
327.40 0.09255314
327.50 0.09379299
327.60 0.09503308
327.70 0.09627332
327.80 0.09751364
327.90 0.09875398
328.00 0.09999433
328.10 0.1012347
328.20 0.102475
328.30 0.1037151
328.40 0.1049548
328.50 0.1061937
328.60 0.1074311
328.70 0.1086486
328.80 0.1097743
328.90 0.110671
329.00 0.111188
329.10 0.1112584
329.20 0.1109492
329.30 0.1104109
329.40 0.1097808
329.50 0.1091308
329.60 0.1084794
329.70 0.1078271
329.80 0.1071744
329.90 0.1065215
330.00 0.1058686
330.10 0.1052157
330.20 0.1045628
330.30 0.10391
330.40 0.1032575
330.50 0.1026057
330.60 0.101955
330.70 0.101319
330.80 0.1007511
330.90 0.1003531
331.00 0.1002368
331.10 0.1004517
331.20 0.1009483
331.30 0.1016148
331.40 0.1023494
331.50 0.1030987
331.60 0.1038491
331.70 0.1046002
331.80 0.1053515
331.90 0.106103
332.00 0.1068545
332.10 0.1076061
332.20 0.1083576
332.30 0.109109
332.40 0.1098602
332.50 0.110611
332.60 0.1113612
332.70 0.1121019
332.80 0.1127996
332.90 0.1133897
333.00 0.1138015
333.10 0.1140036
333.20 0.1140273
333.30 0.1139434
333.40 0.1138165
333.50 0.1136802
333.60 0.1135432
333.70 0.1134058
333.80 0.1132682
333.90 0.1131305
334.00 0.1129928
334.10 0.1128554
334.20 0.1127186
334.30 0.1125826
334.40 0.1124476
334.50 0.1123133
334.60 0.1122921
334.70 0.112639
334.80 0.1134538
334.90 0.1142871
335.00 0.1142818
335.10 0.1132058
335.20 0.112415
335.30 0.1144396
335.40 0.1210334
335.50 0.1311872
335.60 0.1410242
335.70 0.1460518
335.80 0.144056
335.90 0.1361971
336.00 0.1257732
336.10 0.1161826
336.20 0.1097996
336.30 0.1076241
336.40 0.1088601
336.50 0.1110147
336.60 0.1113945
336.70 0.109341
336.80 0.1070677
336.90 0.1079223
337.00 0.1135152
337.10 0.1221452
337.20 0.1297701
337.30 0.1327828
337.40 0.1305419
337.50 0.1257714
337.60 0.1224769
337.70 0.1229752
337.80 0.1265329
337.90 0.1307111
338.00 0.1336433
338.10 0.1348141
338.20 0.1339524
338.30 0.1301749
338.40 0.1231854
338.50 0.1150463
338.60 0.1098575
338.70 0.1108143
338.80 0.1172284
338.90 0.1247486
339.00 0.1288573
339.10 0.128569
339.20 0.1270355
339.30 0.1284429
339.40 0.1341533
339.50 0.1418196
339.60 0.147919
339.70 0.1507096
339.80 0.1506747
339.90 0.1487821
340.00 0.1454176
340.10 0.140982
340.20 0.1364009
340.30 0.1323793
340.40 0.1284511
340.50 0.1234732
340.60 0.1171747
340.70 0.1107967
340.80 0.1061134
340.90 0.1041348
341.00 0.1047944
341.10 0.107476
341.20 0.1114677
341.30 0.1159324
341.40 0.1198843
341.50 0.1225691
341.60 0.1239087
341.70 0.1245341
341.80 0.1253037
341.90 0.1266671
342.00 0.1282656
342.10 0.1290025
342.20 0.1277113
342.30 0.1241377
342.40 0.1194692
342.50 0.1157343
342.60 0.1144419
342.70 0.1156415
342.80 0.1181193
342.90 0.1203567
343.00 0.1214642
343.10 0.1215806
343.20 0.121543
343.30 0.122071
343.40 0.1231381
343.50 0.1241201
343.60 0.1244554
343.70 0.1239902
343.80 0.1228449
343.90 0.1213019
344.00 0.1198772
344.10 0.119167
344.20 0.1193276
344.30 0.1198134
344.40 0.1198568
344.50 0.1192039
344.60 0.1183221
344.70 0.1179916
344.80 0.1188084
344.90 0.1209824
345.00 0.1244006
345.10 0.1287109
345.20 0.1333412
345.30 0.137501
345.40 0.140308
345.50 0.1412121
345.60 0.140453
345.70 0.1390198
345.80 0.1379747
345.90 0.1377106
346.00 0.1377756
346.10 0.1372699
346.20 0.1354751
346.30 0.1324204
346.40 0.1290652
346.50 0.1267409
346.60 0.1260935
346.70 0.1265227
346.80 0.1267398
346.90 0.125818
347.00 0.1236701
347.10 0.120871
347.20 0.1183742
347.30 0.1172426
347.40 0.1181522
347.50 0.1208597
347.60 0.1243165
347.70 0.1274734
347.80 0.1299815
347.90 0.132182
348.00 0.1345628
348.10 0.1372091
348.20 0.1396267
348.30 0.1410672
348.40 0.1411339
348.50 0.1401287
348.60 0.1387414
348.70 0.1374214
348.80 0.1361674
348.90 0.1348373
349.00 0.1334406
349.10 0.1321016
349.20 0.1309309
349.30 0.1300868
349.40 0.1298522
349.50 0.1304077
349.60 0.1314792
349.70 0.1323795
349.80 0.1326169
349.90 0.1325875
350.00 0.1335271
350.10 0.1365369
350.20 0.1415265
350.30 0.1471023
350.40 0.1515169
350.50 0.1537705
350.60 0.1539398
350.70 0.1527128
350.80 0.1508017
350.90 0.1486062
351.00 0.1460585
351.10 0.1426557
351.20 0.1378556
351.30 0.13178
351.40 0.1255981
351.50 0.1209664
351.60 0.1188572
351.70 0.1188745
351.80 0.1197153
351.90 0.1202556
352.00 0.1201781
352.10 0.1197103
352.20 0.1191176
352.30 0.118631
352.40 0.1187452
352.50 0.1203642
352.60 0.1243051
352.70 0.1304517
352.80 0.1374325
352.90 0.143385
353.00 0.1473244
353.10 0.1497718
353.20 0.1519513
353.30 0.1545423
353.40 0.1573805
353.50 0.1601343
353.60 0.1628721
353.70 0.1658496
353.80 0.169061
353.90 0.1722225
354.00 0.1749634
354.10 0.1768038
354.20 0.1771664
354.30 0.1758218
354.40 0.1733869
354.50 0.1711156
354.60 0.1699633
354.70 0.1698838
354.80 0.1700928
354.90 0.1698925
355.00 0.1691521
355.10 0.1681518
355.20 0.1671897
355.30 0.1664033
355.40 0.1658586
355.50 0.1655835
355.60 0.1654134
355.70 0.1648894
355.80 0.1634715
355.90 0.1609871
356.00 0.1578356
356.10 0.1546639
356.20 0.1518123
356.30 0.149044
356.40 0.1458065
356.50 0.1418351
356.60 0.1375909
356.70 0.1340971
356.80 0.1322262
356.90 0.1320558
357.00 0.1328758
357.10 0.1337357
357.20 0.1339416
357.30 0.1331961
357.40 0.1315133
357.50 0.1291257
357.60 0.1264167
357.70 0.1237863
357.80 0.1214893
357.90 0.1195781
358.00 0.1180412
358.10 0.1170469
358.20 0.1170069
358.30 0.1183067
358.40 0.120918
358.50 0.1242586
358.60 0.1274181
358.70 0.1295466
358.80 0.1302082
358.90 0.1295914
359.00 0.1285218
359.10 0.1281524
359.20 0.1293287
359.30 0.1319994
359.40 0.1351488
359.50 0.1374319
359.60 0.138086
359.70 0.1374031
359.80 0.1363973
359.90 0.1359468
360.00 0.1360959
360.10 0.1360571
360.20 0.1348844
360.30 0.1322345
360.40 0.1286586
360.50 0.1253278
360.60 0.123492
360.70 0.1239824
360.80 0.1268376
360.90 0.1312164
361.00 0.1358098
361.10 0.1395857
361.20 0.1422757
361.30 0.144175
361.40 0.1455399
361.50 0.1463148
361.60 0.1464865
361.70 0.1464714
361.80 0.1468889
361.90 0.1479337
362.00 0.1491446
362.10 0.1498878
362.20 0.1499404
362.30 0.1495536
362.40 0.1491486
362.50 0.1490772
362.60 0.1494565
362.70 0.1499665
362.80 0.1499079
362.90 0.1487587
363.00 0.1467832
363.10 0.1449541
363.20 0.1441694
363.30 0.1445837
363.40 0.1456732
363.50 0.1467836
363.60 0.1475508
363.70 0.1479367
363.80 0.1480126
363.90 0.1477467
364.00 0.1469519
364.10 0.1454156
364.20 0.1431157
364.30 0.1403406
364.40 0.1376284
364.50 0.1355926
364.60 0.1346853
364.70 0.1349463
364.80 0.1359483
364.90 0.1371206
365.00 0.1382696
365.10 0.1397732
365.20 0.1421119
365.30 0.1451497
365.40 0.147959
365.50 0.1494614
365.60 0.1493161
365.70 0.1481773
365.80 0.1470645
365.90 0.1465356
366.00 0.1464785
366.10 0.1465742
366.20 0.146801
366.30 0.1473905
366.40 0.1484015
366.50 0.1494859
366.60 0.1500718
366.70 0.1497319
366.80 0.1484064
366.90 0.146371
367.00 0.1440927
367.10 0.1421023
367.20 0.1408818
367.30 0.1407411
367.40 0.1416841
367.50 0.1433816
367.60 0.1453324
367.70 0.1471229
367.80 0.1485989
367.90 0.1498382
368.00 0.1509811
368.10 0.1520603
368.20 0.1529398
368.30 0.1533813
368.40 0.1531991
368.50 0.1524352
368.60 0.1514321
368.70 0.150691
368.80 0.1505669
368.90 0.1510523
369.00 0.1518754
369.10 0.1528202
369.20 0.1538739
369.30 0.1550248
369.40 0.1560043
369.50 0.1563541
369.60 0.1558229
369.70 0.1546756
369.80 0.1536013
369.90 0.1533232
370.00 0.1542235
370.10 0.1561937
370.20 0.158757
370.30 0.1613245
370.40 0.1633984
370.50 0.1646551
370.60 0.1649821
370.70 0.1645661
370.80 0.1639039
370.90 0.1635804
371.00 0.1638888
371.10 0.1645869
371.20 0.1649892
371.30 0.1643213
371.40 0.162153
371.50 0.1586846
371.60 0.1547178
371.70 0.1512808
371.80 0.1491593
371.90 0.148642
372.00 0.1495437
372.10 0.1512597
372.20 0.1527252
372.30 0.1526013
372.40 0.149895
372.50 0.1447378
372.60 0.1386205
372.70 0.1337265
372.80 0.1318208
372.90 0.1334779
373.00 0.1380374
373.10 0.1440829
373.20 0.150028
373.30 0.1545457
373.40 0.156834
373.50 0.156674
373.60 0.154286
373.70 0.1501183
373.80 0.1447518
373.90 0.1389519
374.00 0.1336768
374.10 0.1299112
374.20 0.1284165
374.30 0.1295968
374.40 0.1335288
374.50 0.1399903
374.60 0.1483799
374.70 0.1576055
374.80 0.1661543
374.90 0.1724754
375.00 0.17551
375.10 0.1750314
375.20 0.1716079
375.30 0.1663072
375.40 0.1603689
375.50 0.1549441
375.60 0.1508219
375.70 0.1482195
375.80 0.1467943
375.90 0.145933
376.00 0.1451796
376.10 0.1445733
376.20 0.1447203
376.30 0.1465436
376.40 0.1508331
376.50 0.1579044
376.60 0.1675893
376.70 0.1793408
376.80 0.1921589
376.90 0.204386
377.00 0.2138442
377.10 0.218579
377.20 0.2177504
377.30 0.2119578
377.40 0.2027993
377.50 0.1921179
377.60 0.1814754
377.70 0.1719995
377.80 0.1643416
377.90 0.1586427
378.00 0.1546127
378.10 0.1517855
378.20 0.1497932
378.30 0.1484362
378.40 0.1475756
378.50 0.147098
378.60 0.1470225
378.70 0.1475607
378.80 0.149026
378.90 0.1517694
379.00 0.1562826
379.10 0.1632572
379.20 0.1732959
379.30 0.1863811
379.40 0.2015472
379.50 0.2170186
379.60 0.2306182
379.70 0.2402006
379.80 0.2441368
379.90 0.2418204
380.00 0.2339767
380.10 0.2224513
380.20 0.2095084
380.30 0.1970569
380.40 0.1862496
380.50 0.1775097
380.60 0.1707535
380.70 0.1655832
380.80 0.1614301
380.90 0.157803
381.00 0.1545302
381.10 0.1517538
381.20 0.149639
381.30 0.1481003
381.40 0.1468826
381.50 0.14592
381.60 0.1455293
381.70 0.1460305
381.80 0.1472316
381.90 0.1484172
382.00 0.1489286
382.10 0.1495293
382.20 0.1501809
382.30 0.1408827
382.40 0.1225733
382.50 0.1185688
382.60 0.1635678
382.70 0.2678797
382.80 0.3915824
382.90 0.4752821
383.00 0.484604
383.10 0.4532367
383.20 0.4550047
383.30 0.5120435
383.40 0.5990969
383.50 0.6634115
383.60 0.6587169
383.70 0.5794169
383.80 0.4655944
383.90 0.3659164
384.00 0.2961547
384.10 0.2422816
384.20 0.1977744
384.30 0.1812852
384.40 0.2069353
384.50 0.245872
384.60 0.2570672
384.70 0.2045446
384.80 0.1202421
384.90 0.05179474
385.00 0.02035757
385.10 0.01356795
385.20 0.01676861
385.30 0.03132007
385.40 0.05881646
385.50 0.09240611
385.60 0.122335
385.70 0.1418037
385.80 0.1498215
385.90 0.1542836
386.00 0.1698194
386.10 0.2007298
386.20 0.2298072
386.30 0.2378416
386.40 0.2297583
386.50 0.2296254
386.60 0.2536089
386.70 0.297428
386.80 0.3450948
386.90 0.3752257
387.00 0.3678571
387.10 0.320603
387.20 0.2586551
387.30 0.216633
387.40 0.2061869
387.50 0.2077073
387.60 0.1981511
387.70 0.1797001
387.80 0.1707164
387.90 0.1770117
388.00 0.1866951
388.10 0.1988647
388.20 0.2349993
388.30 0.3025355
388.40 0.3644525
388.50 0.3758373
388.60 0.3515446
388.70 0.3585885
388.80 0.4292926
388.90 0.5118626
389.00 0.5297431
389.10 0.4731232
389.20 0.4009866
389.30 0.361797
389.40 0.3468226
389.50 0.3160355
389.60 0.2480557
389.70 0.1811644
389.80 0.1296477
389.90 0.1185719
390.00 0.1451024
390.10 0.1755863
390.20 0.2165236
390.30 0.2661427
390.40 0.3174228
390.50 0.3781213
390.60 0.4212098
390.70 0.4180559
390.80 0.3658775
390.90 0.2883904
391.00 0.2191654
391.10 0.1866113
391.20 0.2012372
391.30 0.2227826
391.40 0.2465033
391.50 0.2563345
391.60 0.2507787
391.70 0.2446211
391.80 0.2526777
391.90 0.2793717
392.00 0.3193321
392.10 0.3542095
392.20 0.3627426
392.30 0.3265124
392.40 0.2705016
392.50 0.2212986
392.60 0.1870646
392.70 0.1755958
392.80 0.1827229
392.90 0.2271486
393.00 0.3458392
393.10 0.5892618
393.20 0.9599527
393.30 1.341267
393.40 1.563243
393.50 1.516587
393.60 1.235969
393.70 0.8713792
393.80 0.5701178
393.90 0.3819597
394.00 0.2668084
394.10 0.1763722
394.20 0.1046511
394.30 0.06112397
394.40 0.07311985
394.50 0.1306323
394.60 0.2093634
394.70 0.2816282
394.80 0.340687
394.90 0.3699808
395.00 0.3808759
395.10 0.3781778
395.20 0.3608468
395.30 0.3374119
395.40 0.3325235
395.50 0.3488057
395.60 0.3746609
395.70 0.4031075
395.80 0.4142244
395.90 0.3974315
396.00 0.3470136
396.10 0.2793346
396.20 0.2295578
396.30 0.2171119
396.40 0.253282
396.50 0.3490456
396.60 0.5414005
396.70 0.8615685
396.80 1.25647
396.90 1.57787
397.00 1.670374
397.10 1.489338
397.20 1.130113
397.30 0.7497617
397.40 0.461839
397.50 0.3029996
397.60 0.254005
397.70 0.2684811
397.80 0.2975917
397.90 0.3115899
398.00 0.3034847
398.10 0.277284
398.20 0.2417555
398.30 0.2182934
398.40 0.2337053
398.50 0.291968
398.60 0.3631859
398.70 0.4103106
398.80 0.4101252
398.90 0.3867832
399.00 0.3559315
399.10 0.3313679
399.20 0.3203573
399.30 0.3156508
399.40 0.3017892
399.50 0.2780667
399.60 0.2640516
399.70 0.2814414
399.80 0.3247504
399.90 0.3567209
400.00 0.3491903
400.10 0.3103797
400.20 0.2772894
400.30 0.2788433
400.40 0.3093634
400.50 0.3381249
400.60 0.342486
400.70 0.336017
400.80 0.3346637
400.90 0.3362904
401.00 0.3374424
401.10 0.3340361
401.20 0.3345379
401.30 0.3348632
401.40 0.3291585
401.50 0.3106493
401.60 0.2798503
401.70 0.2438561
401.80 0.2314834
401.90 0.2454953
402.00 0.26845
402.10 0.2815655
402.20 0.2785099
402.30 0.2678771
402.40 0.2641875
402.50 0.2757975
402.60 0.2973247
402.70 0.3144303
402.80 0.3165295
402.90 0.3050714
403.00 0.2878132
403.10 0.2658936
403.20 0.2363683
403.30 0.204375
403.40 0.1847093
403.50 0.1881374
403.60 0.2092177
403.70 0.2312342
403.80 0.252397
403.90 0.2832006
404.00 0.3252679
404.10 0.3660775
404.20 0.385891
404.30 0.3826532
404.40 0.3762763
404.50 0.3835997
404.60 0.3965741
404.70 0.3946182
404.80 0.3719423
404.90 0.3440995
405.00 0.328932
405.10 0.3308229
405.20 0.3434378
405.30 0.3564314
405.40 0.3579987
405.50 0.3396449
405.60 0.3073093
405.70 0.2800116
405.80 0.2702453
405.90 0.2744849
406.00 0.2774731
406.10 0.2685915
406.20 0.2515047
406.30 0.2394598
406.40 0.2427143
406.50 0.2604833
406.60 0.2792409
406.70 0.2853878
406.80 0.2798476
406.90 0.276521
407.00 0.2870874
407.10 0.306223
407.20 0.3089045
407.30 0.2880651
407.40 0.2578966
407.50 0.2270431
407.60 0.2091178
407.70 0.202636
407.80 0.2058336
407.90 0.2241855
408.00 0.2585838
408.10 0.295588
408.20 0.3162627
408.30 0.3108732
408.40 0.2856666
408.50 0.254779
408.60 0.2292992
408.70 0.2130866
408.80 0.2053869
408.90 0.2049948
409.00 0.2087489
409.10 0.210617
409.20 0.206657
409.30 0.1960925
409.40 0.1810969
409.50 0.1674516
409.60 0.1679529
409.70 0.1985665
409.80 0.2700014
409.90 0.3843252
410.00 0.5353441
410.10 0.6973056
410.20 0.8142407
410.30 0.8258217
410.40 0.7218065
410.50 0.5617885
410.60 0.4262212
410.70 0.3390954
410.80 0.30078
410.90 0.2799431
411.00 0.2655228
411.10 0.2588755
411.20 0.253918
411.30 0.2411722
411.40 0.2236435
411.50 0.2152873
411.60 0.2088344
411.70 0.2011544
411.80 0.1964611
411.90 0.1873078
412.00 0.1716256
412.10 0.1549223
412.20 0.1468383
412.30 0.1508676
412.40 0.1636177
412.50 0.1787985
412.60 0.1915804
412.70 0.1991274
412.80 0.199507
412.90 0.1937673
413.00 0.1887436
413.10 0.1931676
413.20 0.2094414
413.30 0.2299399
413.40 0.2430334
413.50 0.2419065
413.60 0.2294171
413.70 0.2154353
413.80 0.208484
413.90 0.2097346
414.00 0.2151331
414.10 0.220812
414.20 0.2106853
414.30 0.1963204
414.40 0.1822099
414.50 0.178248
414.60 0.1963115
414.70 0.2350725
414.80 0.2636601
414.90 0.2697348
415.00 0.259735
415.10 0.2370501
415.20 0.2090823
415.30 0.1888989
415.40 0.1805219
415.50 0.1928403
415.60 0.2285022
415.70 0.2742353
415.80 0.3087462
415.90 0.3199244
416.00 0.3079414
416.10 0.2833944
416.20 0.251925
416.30 0.2152825
416.40 0.1804264
416.50 0.1612884
416.60 0.1592552
416.70 0.1871842
416.80 0.2273707
416.90 0.2521817
417.00 0.2461423
417.10 0.2173404
417.20 0.1983546
417.30 0.1892544
417.40 0.1824386
417.50 0.1858742
417.60 0.2159053
417.70 0.2689335
417.80 0.3174574
417.90 0.3320094
418.00 0.3284983
418.10 0.318654
418.20 0.3005491
418.30 0.2640558
418.40 0.2104171
418.50 0.1585291
418.60 0.1199071
418.70 0.1162098
418.80 0.1396963
418.90 0.1747222
419.00 0.2047887
419.10 0.2157565
419.20 0.2026771
419.30 0.1766213
419.40 0.1586601
419.50 0.1628458
419.60 0.1829603
419.70 0.2000642
419.80 0.2048351
419.90 0.2046482
420.00 0.2123833
420.10 0.229913
420.20 0.2461503
420.30 0.246121
420.40 0.2361135
420.50 0.2360351
420.60 0.2523682
420.70 0.2770882
420.80 0.2915274
420.90 0.2962194
421.00 0.2893918
421.10 0.2651208
421.20 0.2201
421.30 0.1657587
421.40 0.1268654
421.50 0.1184588
421.60 0.1345602
421.70 0.1518002
421.80 0.1508805
421.90 0.1339238
422.00 0.1196277
422.10 0.124869
422.20 0.1484168
422.30 0.1704991
422.40 0.1707114
422.50 0.1466338
422.60 0.114197
422.70 0.08301122
422.80 0.0759651
422.90 0.08229678
423.00 0.08666813
423.10 0.08258383
423.20 0.07238708
423.30 0.0611377
423.40 0.05440242
423.50 0.05003917
423.60 0.04881679
423.70 0.06352767
423.80 0.09043564
423.90 0.1199655
424.00 0.1411567
424.10 0.1467355
424.20 0.1384962
424.30 0.1270068
424.40 0.1168016
424.50 0.1095533
424.60 0.1028892
424.70 0.09460533
424.80 0.08385976
424.90 0.08435925
425.00 0.09870245
425.10 0.1151484
425.20 0.1200287
425.30 0.1101458
425.40 0.09607495
425.50 0.0907041
425.60 0.09727031
425.70 0.1096904
425.80 0.1223615
425.90 0.1369846
426.00 0.1578158
426.10 0.1822283
426.20 0.2008181
426.30 0.2053055
426.40 0.1947627
426.50 0.1756921
426.60 0.1589588
426.70 0.1565896
426.80 0.1748789
426.90 0.201281
427.00 0.2152236
427.10 0.2214786
427.20 0.2174233
427.30 0.2055657
427.40 0.188858
427.50 0.1687442
427.60 0.1458564
427.70 0.121896
427.80 0.09853823
427.90 0.08735476
428.00 0.0962125
428.10 0.1266596
428.20 0.1762957
428.30 0.2325069
428.40 0.2724206
428.50 0.2733312
428.60 0.2340119
428.70 0.1797863
428.80 0.145798
428.90 0.1529412
429.00 0.1954006
429.10 0.241429
429.20 0.2721973
429.30 0.2833601
429.40 0.2813447
429.50 0.2744181
429.60 0.2627801
429.70 0.2443483
429.80 0.2239341
429.90 0.2083349
430.00 0.196932
430.10 0.1858445
430.20 0.1784539
430.30 0.1835448
430.40 0.2023733
430.50 0.2246364
430.60 0.2385372
430.70 0.2417676
430.80 0.2406319
430.90 0.240654
431.00 0.2425787
431.10 0.2455549
431.20 0.2495225
431.30 0.2534659
431.40 0.2528924
431.50 0.2433962
431.60 0.2243907
431.70 0.2029711
431.80 0.187227
431.90 0.1796184
432.00 0.1827898
432.10 0.1962091
432.20 0.2193852
432.30 0.2374702
432.40 0.2400011
432.50 0.2325718
432.60 0.2298224
432.70 0.2391933
432.80 0.2554953
432.90 0.2724243
433.00 0.2925925
433.10 0.3212399
433.20 0.3494568
433.30 0.366259
433.40 0.3738436
433.50 0.3772262
433.60 0.3915253
433.70 0.4485908
433.80 0.5766635
433.90 0.7954712
434.00 1.040902
434.10 1.194824
434.20 1.168602
434.30 0.9745517
434.40 0.7132156
434.50 0.4929362
434.60 0.3631903
434.70 0.3121124
434.80 0.3049183
434.90 0.3142685
435.00 0.3241261
435.10 0.3244888
435.20 0.3121306
435.30 0.2920952
435.40 0.2738708
435.50 0.2648368
435.60 0.2643331
435.70 0.2692859
435.80 0.2789626
435.90 0.2944622
436.00 0.3117417
436.10 0.3180826
436.20 0.2940491
436.30 0.2567334
436.40 0.2244235
436.50 0.2148809
436.60 0.2361703
436.70 0.2692428
436.80 0.2894369
436.90 0.2848512
437.00 0.261985
437.10 0.238523
437.20 0.2315337
437.30 0.2456359
437.40 0.2704228
437.50 0.2931904
437.60 0.3120121
437.70 0.3311206
437.80 0.3460115
437.90 0.3442724
438.00 0.3228741
438.10 0.3002697
438.20 0.297249
438.30 0.3134117
438.40 0.3276441
438.50 0.328563
438.60 0.326332
438.70 0.3292997
438.80 0.3303041
438.90 0.3197474
439.00 0.300561
439.10 0.2914505
439.20 0.3055301
439.30 0.3354988
439.40 0.3615179
439.50 0.36851
439.60 0.357894
439.70 0.3426996
439.80 0.3324464
439.90 0.3222359
440.00 0.3135872
440.10 0.3098665
440.20 0.3091242
440.30 0.3028028
440.40 0.2766252
440.50 0.2466808
440.60 0.2262922
440.70 0.2245258
440.80 0.2458052
440.90 0.2748168
441.00 0.3054004
441.10 0.3222558
441.20 0.3192178
441.30 0.3103246
441.40 0.3184826
441.50 0.3554087
441.60 0.4127828
441.70 0.4693048
441.80 0.5045011
441.90 0.5074278
442.00 0.4792164
442.10 0.4322854
442.20 0.3849787
442.30 0.3511573
442.40 0.3339439
442.50 0.3274512
442.60 0.3237965
442.70 0.3215378
442.80 0.326617
442.90 0.345417
443.00 0.3771335
443.10 0.4113883
443.20 0.4353477
443.30 0.4431284
443.40 0.4385954
443.50 0.4305183
443.60 0.4307722
443.70 0.4478272
443.80 0.464367
443.90 0.4761987
444.00 0.4790114
444.10 0.4722276
444.20 0.4553135
444.30 0.4326394
444.40 0.41879
444.50 0.4294644
444.60 0.4630118
444.70 0.4993037
444.80 0.5206806
444.90 0.5251918
445.00 0.5192444
445.10 0.5049054
445.20 0.4803919
445.30 0.4495695
445.40 0.4248438
445.50 0.4191065
445.60 0.4366249
445.70 0.4652198
445.80 0.4892409
445.90 0.4996702
446.00 0.4992135
446.10 0.4953803
446.20 0.4898932
446.30 0.4774951
446.40 0.4555563
446.50 0.4323589
446.60 0.4247087
446.70 0.4436813
446.80 0.4822946
446.90 0.5203169
447.00 0.5430938
447.10 0.5537135
447.20 0.563972
447.30 0.5779464
447.40 0.5898806
447.50 0.5956813
447.60 0.5986908
447.70 0.6049107
447.80 0.6163987
447.90 0.6292686
448.00 0.6299499
448.10 0.6283891
448.20 0.6260044
448.30 0.6203458
448.40 0.6223139
448.50 0.6283516
448.60 0.6324216
448.70 0.6328412
448.80 0.6314568
448.90 0.6305141
449.00 0.6335395
449.10 0.6445194
449.20 0.6620448
449.30 0.6763121
449.40 0.6757292
449.50 0.6575252
449.60 0.6313632
449.70 0.6124047
449.80 0.6096213
449.90 0.6211569
450.00 0.6399355
450.10 0.6600802
450.20 0.6747721
450.30 0.6719695
450.40 0.6430965
450.50 0.598595
450.60 0.5654098
450.70 0.5619331
450.80 0.5815408
450.90 0.6044138
451.00 0.6197355
451.10 0.6299778
451.20 0.6369171
451.30 0.6363811
451.40 0.6285029
451.50 0.623509
451.60 0.6320341
451.70 0.6534842
451.80 0.6797371
451.90 0.7066111
452.00 0.7339609
452.10 0.7566505
452.20 0.7651402
452.30 0.7564253
452.40 0.738974
452.50 0.7239479
452.60 0.7150931
452.70 0.7110936
452.80 0.7138231
452.90 0.7280874
453.00 0.7527012
453.10 0.7737102
453.20 0.7697127
453.30 0.7290244
453.40 0.6647544
453.50 0.613067
453.60 0.6122498
453.70 0.6768165
453.80 0.7866693
453.90 0.9005339
454.00 0.9801514
454.10 1.008166
454.20 0.9908761
454.30 0.946751
454.40 0.8930452
454.50 0.8412128
454.60 0.7991113
454.70 0.771669
454.80 0.7582685
454.90 0.7524721
455.00 0.7487378
455.10 0.7457609
455.20 0.7412582
455.30 0.7311468
455.40 0.7178895
455.50 0.7150322
455.60 0.7369402
455.70 0.7822889
455.80 0.8320492
455.90 0.866657
456.00 0.8826584
456.10 0.8934656
456.20 0.9157313
456.30 0.9551711
456.40 1.004959
456.50 1.053358
456.60 1.091216
456.70 1.115355
456.80 1.128481
456.90 1.135651
457.00 1.139896
457.10 1.141349
457.20 1.140671
457.30 1.139281
457.40 1.134958
457.50 1.122411
457.60 1.10109
457.70 1.079034
457.80 1.064675
457.90 1.059106
458.00 1.05903
458.10 1.061258
458.20 1.058728
458.30 1.036037
458.40 0.9773573
458.50 0.8850633
458.60 0.7867486
458.70 0.7159898
458.80 0.6848574
458.90 0.6773424
459.00 0.672243
459.10 0.6676324
459.20 0.6757949
459.30 0.6996416
459.40 0.7255537
459.50 0.7409158
459.60 0.7510457
459.70 0.7729604
459.80 0.8140209
459.90 0.8609946
460.00 0.8906208
460.10 0.8907915
460.20 0.8712656
460.30 0.8519294
460.40 0.8405311
460.50 0.8256002
460.60 0.7961609
460.70 0.7653942
460.80 0.7656802
460.90 0.8158509
461.00 0.8985654
461.10 0.9754103
461.20 1.023098
461.30 1.050798
461.40 1.083897
461.50 1.135941
461.60 1.196085
461.70 1.240684
461.80 1.254907
461.90 1.244893
462.00 1.22995
462.10 1.222836
462.20 1.21701
462.30 1.192795
462.40 1.136622
462.50 1.053606
462.60 0.9620668
462.70 0.8784296
462.80 0.8110733
462.90 0.7655168
463.00 0.7460715
463.10 0.7507094
463.20 0.7692632
463.30 0.7889816
463.40 0.8010533
463.50 0.8021984
463.60 0.7943204
463.70 0.7843023
463.80 0.7798384
463.90 0.7850453
464.00 0.8021921
464.10 0.8333512
464.20 0.8763575
464.30 0.9214542
464.40 0.9548462
464.50 0.9676736
464.60 0.9615216
464.70 0.945409
464.80 0.9292055
464.90 0.9183724
465.00 0.9136099
465.10 0.9151725
465.20 0.9250211
465.30 0.9428066
465.40 0.9618405
465.50 0.9741748
465.60 0.9805348
465.70 0.9926693
465.80 1.023118
465.90 1.071202
466.00 1.121886
466.10 1.158994
466.20 1.177978
466.30 1.185102
466.40 1.185567
466.50 1.173884
466.60 1.13699
466.70 1.066176
466.80 0.9665822
466.90 0.8576245
467.00 0.7623891
467.10 0.6946232
467.20 0.6558902
467.30 0.6431367
467.40 0.6536876
467.50 0.6822384
467.60 0.7185297
467.70 0.7528652
467.80 0.781693
467.90 0.8039794
468.00 0.8158205
468.10 0.815411
468.20 0.8101939
468.30 0.8120281
468.40 0.8247883
468.50 0.8395606
468.60 0.8449065
468.70 0.8400256
468.80 0.8351041
468.90 0.8403341
469.00 0.8575515
469.10 0.8814154
469.20 0.9051794
469.30 0.9229563
469.40 0.9308561
469.50 0.9318643
469.60 0.9382758
469.70 0.9643033
469.80 1.012589
469.90 1.069895
470.00 1.118158
470.10 1.148311
470.20 1.162857
470.30 1.168059
470.40 1.166581
470.50 1.158728
470.60 1.147082
470.70 1.136145
470.80 1.12924
470.90 1.126294
471.00 1.123391
471.10 1.113983
471.20 1.092139
471.30 1.055507
471.40 1.005723
471.50 0.9486889
471.60 0.8956779
471.70 0.8623917
471.80 0.8603239
471.90 0.8860094
472.00 0.9214087
472.10 0.9477605
472.20 0.9595097
472.30 0.9652046
472.40 0.9763388
472.50 0.9944583
472.60 1.010057
472.70 1.013248
472.80 1.004118
472.90 0.9939314
473.00 0.9962701
473.10 1.016996
473.20 1.052475
473.30 1.094399
473.40 1.133546
473.50 1.159051
473.60 1.158676
473.70 1.127092
473.80 1.076699
473.90 1.034102
474.00 1.021107
474.10 1.040048
474.20 1.077502
474.30 1.118659
474.40 1.1548
474.50 1.181346
474.60 1.196031
474.70 1.200241
474.80 1.199854
474.90 1.202224
475.00 1.211575
475.10 1.226201
475.20 1.240227
475.30 1.249673
475.40 1.254916
475.50 1.256187
475.60 1.248985
475.70 1.225665
475.80 1.179282
475.90 1.105789
476.00 1.006617
476.10 0.8933347
476.20 0.7874615
476.30 0.708619
476.40 0.656935
476.50 0.6268325
476.60 0.6055435
476.70 0.5789924
476.80 0.5520504
476.90 0.5338962
477.00 0.5272102
477.10 0.5305992
477.20 0.5443004
477.30 0.5720866
477.40 0.6157483
477.50 0.6690712
477.60 0.71893
477.70 0.7534374
477.80 0.7691036
477.90 0.7680812
478.00 0.7512492
478.10 0.7191181
478.20 0.6802659
478.30 0.6539584
478.40 0.6577661
478.50 0.6912549
478.60 0.7360378
478.70 0.773526
478.80 0.7998614
478.90 0.8245701
479.00 0.8570405
479.10 0.8960818
479.20 0.9323519
479.30 0.9571762
479.40 0.9676045
479.50 0.9666697
479.60 0.9608131
479.70 0.9558955
479.80 0.9554094
479.90 0.9615725
480.00 0.9768178
480.10 1.001768
480.20 1.026946
480.30 1.029163
480.40 0.985207
480.50 0.8925743
480.60 0.7759414
480.70 0.6700942
480.80 0.5956092
480.90 0.5525982
481.00 0.5335897
481.10 0.5347001
481.20 0.5543015
481.30 0.5880685
481.40 0.6302378
481.50 0.676808
481.60 0.7220836
481.70 0.7559009
481.80 0.7714743
481.90 0.7754056
482.00 0.7837876
482.10 0.8061338
482.20 0.8371418
482.30 0.8651375
482.40 0.8829434
482.50 0.8892572
482.60 0.8859499
482.70 0.8787759
482.80 0.8770098
482.90 0.8848374
483.00 0.8942452
483.10 0.8947194
483.20 0.8913065
483.30 0.9038375
483.40 0.9434112
483.50 0.9947279
483.60 1.030043
483.70 1.038776
483.80 1.033563
483.90 1.027344
484.00 1.013822
484.10 0.9754821
484.20 0.907346
484.30 0.8294735
484.40 0.7749927
484.50 0.7647731
484.60 0.7902447
484.70 0.8192931
484.80 0.8228134
484.90 0.7972415
485.00 0.7623292
485.10 0.7409447
485.20 0.7442309
485.30 0.7715273
485.40 0.8153587
485.50 0.8640891
485.60 0.9070018
485.70 0.9518558
485.80 1.046583
485.90 1.26667
486.00 1.642792
486.10 2.081509
486.20 2.382985
486.30 2.381684
486.40 2.083929
486.50 1.655383
486.60 1.277699
486.70 1.03159
486.80 0.9018933
486.90 0.8492638
487.00 0.8516868
487.10 0.8953684
487.20 0.9586903
487.30 1.015267
487.40 1.04644
487.50 1.047936
487.60 1.027117
487.70 0.9975401
487.80 0.973541
487.90 0.9648072
488.00 0.970951
488.10 0.9812961
488.20 0.9853627
488.30 0.9854806
488.40 0.9958609
488.50 1.02605
488.60 1.068146
488.70 1.103846
488.80 1.123781
488.90 1.135979
489.00 1.153295
489.10 1.175738
489.20 1.189164
489.30 1.181831
489.40 1.159384
489.50 1.140801
489.60 1.14012
489.70 1.155013
489.80 1.173237
489.90 1.185194
490.00 1.189146
490.10 1.189111
490.20 1.191967
490.30 1.204865
490.40 1.229997
490.50 1.261259
490.60 1.2887
490.70 1.307804
490.80 1.323305
490.90 1.34374
491.00 1.373548
491.10 1.410904
491.20 1.450341
491.30 1.484554
491.40 1.505602
491.50 1.507871
491.60 1.492919
491.70 1.471678
491.80 1.460283
491.90 1.472127
492.00 1.510253
492.10 1.565606
492.20 1.622128
492.30 1.665596
492.40 1.69273
492.50 1.714388
492.60 1.746421
492.70 1.791453
492.80 1.830975
492.90 1.841533
493.00 1.8181
493.10 1.776752
493.20 1.737371
493.30 1.711801
493.40 1.705925
493.50 1.721104
493.60 1.749173
493.70 1.774075
493.80 1.78573
493.90 1.789303
494.00 1.798459
494.10 1.82218
494.20 1.859981
494.30 1.907067
494.40 1.959672
494.50 2.015756
494.60 2.073636
494.70 2.130637
494.80 2.182678
494.90 2.225074
495.00 2.251947
495.10 2.249865
495.20 2.190041
495.30 2.035589
495.40 1.770508
495.50 1.427037
495.60 1.07886
495.70 0.7999563
495.80 0.6255128
495.90 0.5462918
496.00 0.5306656
496.10 0.5469327
496.20 0.5727901
496.30 0.5965201
496.40 0.6163707
496.50 0.6391825
496.60 0.6754619
496.70 0.7317964
496.80 0.8037874
496.90 0.874895
497.00 0.9259444
497.10 0.9510166
497.20 0.9629239
497.30 0.9802501
497.40 1.010294
497.50 1.044937
497.60 1.070644
497.70 1.079344
497.80 1.070388
497.90 1.047751
498.00 1.01758
498.10 0.9870413
498.20 0.9661878
498.30 0.9683557
498.40 1.002105
498.50 1.059771
498.60 1.117965
498.70 1.15481
498.80 1.167967
498.90 1.173338
499.00 1.187918
499.10 1.216717
499.20 1.253126
499.30 1.287831
499.40 1.315285
499.50 1.333637
499.60 1.329605
499.70 1.265278
499.80 1.096661
499.90 0.8203468
500.00 1
500.10 0.7958441
500.20 0.8369252
500.30 0.909874
500.40 0.8071457
500.50 0.7555968
500.60 0.7894204
500.70 0.7195313
500.80 0.7925407
500.90 0.9631432
501.00 1.094173
501.10 1.002818
501.20 0.9303179
501.30 0.9169473
501.40 0.9515247
501.50 0.8883684
501.60 0.8598993
501.70 0.9150523
501.80 0.9436454
501.90 0.9713458
502.00 1.049719
502.10 1.122674
502.20 1.112657
502.30 1.035463
502.40 1.092341
502.50 1.1308
502.60 1.062983
502.70 1.051528
502.80 1.056766
502.90 1.055241
503.00 1.077397
503.10 1.060627
503.20 1.15129
503.30 1.097658
503.40 1.040765
503.50 1.156283
503.60 1.284227
503.70 1.262478
503.80 1.22635
503.90 1.285691
504.00 1.301541
504.10 1.3186
504.20 1.414703
504.30 1.391633
504.40 1.443087
504.50 1.454216
504.60 1.471137
504.70 1.606785
504.80 1.661339
504.90 1.419689
505.00 1.263878
505.10 1.256218
505.20 1.321746
505.30 1.326655
505.40 1.341954
505.50 1.343005
505.60 1.27872
505.70 1.286334
505.80 1.359588
505.90 1.318684
506.00 1.295526
506.10 1.356627
506.20 1.529686
506.30 1.518584
506.40 1.372135
506.50 1.370332
506.60 1.438772
506.70 1.452207
506.80 1.394684
506.90 1.501603
507.00 1.465035
507.10 1.330839
507.20 1.466584
507.30 1.432675
507.40 1.393896
507.50 1.605809
507.60 1.623834
507.70 1.47086
507.80 1.486512
507.90 1.578337
508.00 1.630115
508.10 1.498738
508.20 1.382012
508.30 1.397296
508.40 1.506235
508.50 1.604392
508.60 1.543581
508.70 1.517508
508.80 1.486907
508.90 1.477939
509.00 1.453351
509.10 1.408332
509.20 1.499397
509.30 1.608224
509.40 1.638368
509.50 1.557302
509.60 1.436445
509.70 1.358287
509.80 1.569572
509.90 1.664341
510.00 1.641453
510.10 1.494449
510.20 1.435315
510.30 1.493194
510.40 1.509471
510.50 1.448299
510.60 1.406
510.70 1.417153
510.80 1.376122
510.90 1.47529
511.00 1.566529
511.10 1.487795
511.20 1.483721
511.30 1.559327
511.40 1.565591
511.50 1.575945
511.60 1.714397
511.70 1.793903
511.80 1.7556
511.90 1.687397
512.00 1.640753
512.10 1.591441
512.20 1.635123
512.30 1.716362
512.40 1.672572
512.50 1.531048
512.60 1.50102
512.70 1.491574
512.80 1.437719
512.90 1.441122
513.00 1.425122
513.10 1.390633
513.20 1.571984
513.30 1.823376
513.40 1.785028
513.50 1.669831
513.60 1.673756
513.70 1.793711
513.80 1.969166
513.90 1.907384
514.00 1.730902
514.10 1.728505
514.20 1.690368
514.30 1.683356
514.40 1.697589
514.50 1.63098
514.60 1.570169
514.70 1.533413
514.80 1.65059
514.90 1.728001
515.00 1.676392
515.10 1.615626
515.20 1.654895
515.30 1.576332
515.40 1.417738
515.50 1.439256
515.60 1.531059
515.70 1.558582
515.80 1.801792
515.90 2.029737
516.00 1.999186
516.10 2.069391
516.20 2.251573
516.30 2.201874
516.40 2.175715
516.50 2.244767
516.60 2.095304
516.70 1.57578
516.80 1.106069
516.90 0.7399024
517.00 0.6592712
517.10 0.6290953
517.20 0.6150078
517.30 0.6209158
517.40 0.549407
517.50 0.5557541
517.60 0.5680635
517.70 0.5451602
517.80 0.5537695
517.90 0.5752797
518.00 0.5874408
518.10 0.6475533
518.20 0.6741091
518.30 0.724649
518.40 0.7198921
518.50 0.8049223
518.60 0.9393187
518.70 0.96426
518.80 0.9456237
518.90 1.070157
519.00 1.128593
519.10 1.178481
519.20 1.215286
519.30 1.125984
519.40 1.021546
519.50 1.122348
519.60 1.181613
519.70 1.334172
519.80 1.451054
519.90 1.412141
520.00 1.256704
520.10 1.230589
520.20 1.280189
520.30 1.164914
520.40 1.080729
520.50 1.119684
520.60 1.059449
520.70 0.8235258
520.80 0.8013734
520.90 0.8209286
521.00 0.8331601
521.10 0.8619911
521.20 1.111929
521.30 1.384478
521.40 1.567926
521.50 1.696916
521.60 1.75627
521.70 1.745179
521.80 1.75808
521.90 1.840987
522.00 1.862239
522.10 1.892112
522.20 1.9766
522.30 1.996958
522.40 2.009434
522.50 1.848125
522.60 1.783215
522.70 1.75323
522.80 1.812488
522.90 1.87335
523.00 2.006755
523.10 2.222505
523.20 2.159683
523.30 1.944374
523.40 1.93713
523.50 2.052086
523.60 2.058513
523.70 2.050512
523.80 2.021882
523.90 2.033126
524.00 2.022938
524.10 1.903657
524.20 1.611983
524.30 1.451779
524.40 1.50998
524.50 1.643722
524.60 1.73368
524.70 1.635417
524.80 1.578267
524.90 1.54606
525.00 1.617333
525.10 1.657498
525.20 1.727727
525.30 1.804462
525.40 1.835835
525.50 1.914482
525.60 2.113524
525.70 2.204546
525.80 2.024788
525.90 1.943881
526.00 1.933945
526.10 1.845716
526.20 1.697434
526.30 1.722493
526.40 1.766744
526.50 1.595258
526.60 1.478599
526.70 1.536707
526.80 1.606188
526.90 1.641434
527.00 1.470733
527.10 1.393236
527.20 1.50911
527.30 1.799954
527.40 1.9833
527.50 2.105695
527.60 2.056355
527.70 2.01571
527.80 1.932346
527.90 1.961552
528.00 1.94848
528.10 1.929895
528.20 1.929306
528.30 1.908264
528.40 1.937747
528.50 2.040061
528.60 2.195013
528.70 2.256196
528.80 2.269796
528.90 2.293593
529.00 2.260428
529.10 2.254147
529.20 2.327659
529.30 2.302891
529.40 2.212878
529.50 2.26425
529.60 2.333338
529.70 2.27452
529.80 1.967609
529.90 1.913188
530.00 2.119531
530.10 2.159828
530.20 2.082737
530.30 2.196632
530.40 2.437057
530.50 2.471727
530.60 2.376509
530.70 2.261292
530.80 2.189023
530.90 2.130215
531.00 2.091272
531.10 2.082422
531.20 2.076521
531.30 2.051909
531.40 2.140185
531.50 2.111714
531.60 2.08893
531.70 2.179497
531.80 2.204403
531.90 2.169469
532.00 2.165141
532.10 2.148378
532.20 2.122352
532.30 2.105547
532.40 2.212744
532.50 2.257513
532.60 2.195905
532.70 2.081438
532.80 2.021944
532.90 1.922863
533.00 1.926956
533.10 2.15395
533.20 2.246392
533.30 2.129774
533.40 2.088673
533.50 2.075549
533.60 2.15054
533.70 2.193533
533.80 2.16608
533.90 2.180459
534.00 2.195303
534.10 2.188586
534.20 2.159195
534.30 2.283678
534.40 2.416125
534.50 2.442563
534.60 2.335717
534.70 2.271082
534.80 2.155605
534.90 2.25277
535.00 2.479631
535.10 2.525495
535.20 2.582497
535.30 2.65384
535.40 2.768757
535.50 2.839495
535.60 2.769236
535.70 2.661655
535.80 2.594134
535.90 2.46785
536.00 2.31479
536.10 2.172683
536.20 2.16637
536.30 2.320048
536.40 2.315235
536.50 2.239704
536.60 2.263224
536.70 2.352946
536.80 2.342619
536.90 2.296791
537.00 2.276051
537.10 2.332129
537.20 2.159101
537.30 2.040416
537.40 2.222543
537.50 2.590434
537.60 2.717208
537.70 2.517469
537.80 2.430901
537.90 2.57121
538.00 2.734292
538.10 2.878727
538.20 2.890176
538.30 2.79338
538.40 2.737644
538.50 2.72726
538.60 2.710451
538.70 2.735389
538.80 2.698462
538.90 2.750604
539.00 2.823306
539.10 2.77868
539.20 2.726958
539.30 2.712373
539.40 2.681684
539.50 2.753989
539.60 2.687232
539.70 2.465738
539.80 2.344617
539.90 2.594476
540.00 2.850406
540.10 3.014189
540.20 3.071894
540.30 3.057212
540.40 3.041528
540.50 3.019455
540.60 2.865651
540.70 2.620617
540.80 2.674457
540.90 2.834514
541.00 2.707414
541.10 2.525241
541.20 2.531041
541.30 2.600685
541.40 2.640645
541.50 2.727778
541.60 2.881275
541.70 3.065563
541.80 3.034742
541.90 2.90556
542.00 2.917561
542.10 3.086419
542.20 3.130087
542.30 3.095178
542.40 3.00299
542.50 2.988481
542.60 2.953541
542.70 2.977636
542.80 3.104457
542.90 3.137443
543.00 2.887796
543.10 2.666035
543.20 2.616246
543.30 2.760738
543.40 2.872065
543.50 2.826575
543.60 2.8617
543.70 3.094118
543.80 3.232257
543.90 3.149562
544.00 3.179982
544.10 3.360846
544.20 3.447337
544.30 3.599409
544.40 3.592281
544.50 3.50996
544.60 3.374454
544.70 3.043395
544.80 2.481249
544.90 1.966522
545.00 1.593264
545.10 1.334714
545.20 1.210584
545.30 1.193794
545.40 1.193823
545.50 1.258805
545.60 1.316682
545.70 1.37949
545.80 1.39299
545.90 1.384138
546.00 1.400988
546.10 1.461255
546.20 1.528856
546.30 1.463046
546.40 1.545701
546.50 1.70003
546.60 1.7801
546.70 1.801653
546.80 1.918881
546.90 1.943662
547.00 1.830619
547.10 1.698586
547.20 1.593274
547.30 1.685834
547.40 1.846358
547.50 1.843924
547.60 1.701186
547.70 1.665904
547.80 1.691927
547.90 1.711351
548.00 1.66404
548.10 1.728949
548.20 1.872349
548.30 1.980086
548.40 1.879074
548.50 1.925079
548.60 2.038165
548.70 2.019529
548.80 1.866137
548.90 1.797489
549.00 1.818844
549.10 1.90239
549.20 1.998128
549.30 1.973464
549.40 1.928558
549.50 1.91575
549.60 1.761589
549.70 1.623508
549.80 1.59465
549.90 1.511552
550.00 1.353345
550.10 1.185372
550.20 1.073221
550.30 1.045378
550.40 1.047418
550.50 1.169917
550.60 1.200932
550.70 1.147783
550.80 1.112141
550.90 1.107676
551.00 1.065391
551.10 1.046375
551.20 1.041121
551.30 0.9517429
551.40 0.9349004
551.50 0.9212121
551.60 0.8875915
551.70 0.8703051
551.80 0.9182902
551.90 0.9618628
552.00 0.9311496
552.10 0.8864097
552.20 0.864194
552.30 0.8513644
552.40 0.8643655
552.50 0.8384303
552.60 0.8246321
552.70 0.8707024
552.80 0.9667017
552.90 0.9132207
553.00 0.8391073
553.10 0.8585396
553.20 0.9644182
553.30 0.9815656
553.40 0.7917677
553.50 0.6712413
553.60 0.7143017
553.70 0.7855071
553.80 0.8056663
553.90 0.7959566
554.00 0.713238
554.10 0.6918035
554.20 0.7449059
554.30 0.7103388
554.40 0.6930677
554.50 0.6995472
554.60 0.7993983
554.70 0.7847654
554.80 0.8044412
554.90 0.8231141
555.00 0.7718909
555.10 0.7825715
555.20 0.9252958
555.30 0.8998534
555.40 0.806623
555.50 0.8103454
555.60 0.8915069
555.70 1.010507
555.80 0.9915129
555.90 1.051419
556.00 1.125534
556.10 1.207263
556.20 1.257268
556.30 1.287703
556.40 1.265759
556.50 1.330244
556.60 1.381585
556.70 1.502128
556.80 1.526688
556.90 1.508913
557.00 1.558653
557.10 1.673535
557.20 1.702204
557.30 1.697181
557.40 1.696699
557.50 1.696699
557.60 1.696699
557.70 1.696699
557.80 1.696699
557.90 1.696699
558.00 1.696699
558.10 1.696698
558.20 1.696377
558.30 1.695317
558.40 1.690783
558.50 1.793376
558.60 1.947273
558.70 2.032505
558.80 2.096703
558.90 2.043883
559.00 2.048811
559.10 2.066323
559.20 2.025259
559.30 2.041901
559.40 2.108798
559.50 2.052054
559.60 1.94707
559.70 1.928026
559.80 1.813282
559.90 1.510079
560.00 1.334351
560.10 1.410864
560.20 1.55371
560.30 1.58419
560.40 1.630787
560.50 1.67838
560.60 1.611406
560.70 1.702627
560.80 1.783805
560.90 1.792214
561.00 1.708642
561.10 1.765358
561.20 1.784211
561.30 1.767715
561.40 1.813545
561.50 1.830554
561.60 1.827594
561.70 1.665363
561.80 1.492795
561.90 1.526341
562.00 1.611886
562.10 1.535779
562.20 1.526182
562.30 1.622248
562.40 1.605276
562.50 1.565133
562.60 1.643563
562.70 1.751266
562.80 1.771349
562.90 1.625164
563.00 1.473596
563.10 1.482907
563.20 1.424508
563.30 1.463955
563.40 1.622318
563.50 1.770778
563.60 1.719636
563.70 1.595116
563.80 1.514758
563.90 1.510901
564.00 1.525802
564.10 1.573858
564.20 1.589432
564.30 1.587753
564.40 1.577412
564.50 1.68975
564.60 1.807844
564.70 1.796569
564.80 1.744561
564.90 1.788192
565.00 1.837485
565.10 1.865995
565.20 1.886836
565.30 1.894582
565.40 1.940986
565.50 1.986108
565.60 2.048797
565.70 2.100502
565.80 2.039838
565.90 2.075481
566.00 2.124523
566.10 2.119964
566.20 2.078328
566.30 2.024076
566.40 1.844109
566.50 1.707334
566.60 1.727591
566.70 1.809115
566.80 1.790394
566.90 1.645021
567.00 1.62368
567.10 1.623566
567.20 1.596867
567.30 1.626726
567.40 1.780842
567.50 1.826998
567.60 1.802319
567.70 1.769765
567.80 1.895987
567.90 1.989687
568.00 1.894792
568.10 1.805893
568.20 1.826736
568.30 1.932685
568.40 1.966853
568.50 2.021849
568.60 2.189436
568.70 2.209491
568.80 2.100515
568.90 1.902824
569.00 1.862217
569.10 1.901532
569.20 1.917728
569.30 1.945978
569.40 2.020463
569.50 2.106407
569.60 2.125773
569.70 2.156059
569.80 2.222888
569.90 2.272633
570.00 2.232133
570.10 2.296817
570.20 2.410975
570.30 2.440182
570.40 2.361764
570.50 2.338112
570.60 2.389498
570.70 2.481774
570.80 2.481759
570.90 2.536853
571.00 2.625081
571.10 2.62526
571.20 2.579895
571.30 2.466716
571.40 2.41294
571.50 2.328472
571.60 2.307436
571.70 2.325971
571.80 2.216629
571.90 2.074507
572.00 2.046109
572.10 2.105785
572.20 2.225795
572.30 2.307594
572.40 2.239584
572.50 2.154608
572.60 2.17894
572.70 2.22872
572.80 2.243256
572.90 2.273793
573.00 2.319357
573.10 2.381163
573.20 2.394874
573.30 2.497734
573.40 2.53825
573.50 2.522167
573.60 2.465165
573.70 2.354964
573.80 2.284714
573.90 2.176313
574.00 2.307681
574.10 2.379685
574.20 2.242645
574.30 2.159715
574.40 2.213728
574.50 2.228049
574.60 2.401504
574.70 2.60081
574.80 2.595943
574.90 2.602286
575.00 2.75155
575.10 2.776023
575.20 2.654656
575.30 2.645951
575.40 2.769758
575.50 2.88659
575.60 2.872551
575.70 2.853477
575.80 2.811337
575.90 2.713295
576.00 2.502862
576.10 2.337774
576.20 2.250707
576.30 2.158671
576.40 1.950582
576.50 1.844009
576.60 1.873864
576.70 1.778535
576.80 1.78427
576.90 1.949873
577.00 2.124293
577.10 2.085998
577.20 2.042044
577.30 2.180879
577.40 2.270235
577.50 2.242581
577.60 2.135589
577.70 2.131185
577.80 2.14824
577.90 2.189963
578.00 2.163116
578.10 2.207161
578.20 2.362424
578.30 2.503789
578.40 2.568836
578.50 2.631909
578.60 2.626767
578.70 2.508527
578.80 2.427382
578.90 2.487742
579.00 2.48899
579.10 2.51929
579.20 2.527878
579.30 2.512003
579.40 2.584924
579.50 2.7453
579.60 2.725014
579.70 2.690841
579.80 2.720037
579.90 2.853466
580.00 2.890191
580.10 2.869047
580.20 2.897747
580.30 2.925496
580.40 2.916467
580.50 2.933228
580.60 3.04771
580.70 3.134312
580.80 3.079395
580.90 2.981305
581.00 2.918911
581.10 2.62902
581.20 2.295178
581.30 2.190221
581.40 2.16486
581.50 2.113436
581.60 2.014783
581.70 1.961789
581.80 1.955896
581.90 1.97908
582.00 2.043488
582.10 1.970582
582.20 1.875438
582.30 1.922949
582.40 1.901656
582.50 1.99202
582.60 2.119521
582.70 2.14276
582.80 2.111249
582.90 2.200749
583.00 2.195174
583.10 2.189435
583.20 2.228846
583.30 2.266136
583.40 2.19612
583.50 2.215784
583.60 2.381785
583.70 2.421585
583.80 2.38789
583.90 2.308771
584.00 2.09708
584.10 1.968549
584.20 2.009011
584.30 2.147204
584.40 2.164615
584.50 2.119445
584.60 2.184315
584.70 2.255313
584.80 2.017853
584.90 1.649717
585.00 1.495437
585.10 1.370375
585.20 1.327499
585.30 1.391712
585.40 1.465341
585.50 1.484773
585.60 1.513742
585.70 1.465171
585.80 1.463949
585.90 1.566449
586.00 1.587436
586.10 1.608008
586.20 1.540965
586.30 1.443304
586.40 1.326391
586.50 1.27364
586.60 1.345272
586.70 1.457511
586.80 1.386547
586.90 1.323283
587.00 1.428215
587.10 1.504302
587.20 1.398458
587.30 1.328101
587.40 1.305555
587.50 1.202014
587.60 1.266258
587.70 1.394508
587.80 1.369469
587.90 1.23177
588.00 1.105677
588.10 1.052853
588.20 0.9972187
588.30 0.9683539
588.40 1.017343
588.50 1.002854
588.60 0.9319333
588.70 0.8900604
588.80 0.8076832
588.90 0.6694227
589.00 0.5048029
589.10 0.6602589
589.20 0.8888307
589.30 0.7933595
589.40 0.6751169
589.50 0.5729577
589.60 0.6629931
589.70 0.7303159
589.80 0.7743432
589.90 0.7385833
590.00 0.7543145
590.10 0.7917817
590.20 0.7674546
590.30 0.867391
590.40 0.9773979
590.50 0.9971234
590.60 0.9291353
590.70 0.8187928
590.80 0.8853471
590.90 0.9246873
591.00 0.9075036
591.10 0.9259692
591.20 1.037637
591.30 1.102134
591.40 1.028622
591.50 1.022175
591.60 1.053083
591.70 1.152701
591.80 1.206172
591.90 1.11094
592.00 1.060088
592.10 1.175596
592.20 1.228475
592.30 1.115796
592.40 1.074274
592.50 1.129732
592.60 1.144254
592.70 1.166668
592.80 1.168918
592.90 1.196552
593.00 1.193025
593.10 1.154401
593.20 1.171458
593.30 1.216658
593.40 1.28352
593.50 1.370199
593.60 1.358947
593.70 1.191996
593.80 1.09518
593.90 1.27874
594.00 1.437363
594.10 1.419791
594.20 1.416242
594.30 1.407248
594.40 1.451375
594.50 1.564694
594.60 1.580414
594.70 1.488849
594.80 1.40827
594.90 1.476866
595.00 1.389439
595.10 1.270481
595.20 1.276191
595.30 1.398721
595.40 1.404894
595.50 1.310505
595.60 1.285472
595.70 1.199613
595.80 1.179743
595.90 1.18738
596.00 1.20927
596.10 1.238504
596.20 1.296238
596.30 1.286275
596.40 1.300632
596.50 1.312758
596.60 1.338998
596.70 1.358077
596.80 1.368514
596.90 1.360756
597.00 1.333948
597.10 1.367347
597.20 1.439954
597.30 1.424467
597.40 1.34684
597.50 1.342276
597.60 1.4196
597.70 1.443427
597.80 1.431644
597.90 1.356891
598.00 1.322335
598.10 1.287782
598.20 1.43316
598.30 1.503471
598.40 1.466243
598.50 1.443472
598.60 1.518551
598.70 1.602
598.80 1.530688
598.90 1.483468
599.00 1.471979
599.10 1.495704
599.20 1.499027
599.30 1.560456
599.40 1.622377
599.50 1.732826
599.60 1.829656
599.70 1.8423
599.80 1.775095
599.90 1.669377
600.00 1.619094
600.10 1.590621
600.20 1.558687
600.30 1.609468
600.40 1.651305
600.50 1.653112
600.60 1.605788
600.70 1.556296
600.80 1.481309
600.90 1.427209
601.00 1.482069
601.10 1.583635
601.20 1.654668
601.30 1.70237
601.40 1.656423
601.50 1.586985
601.60 1.623974
601.70 1.718504
601.80 1.734932
601.90 1.731245
602.00 1.782928
602.10 1.857327
602.20 1.842689
602.30 1.829198
602.40 1.762179
602.50 1.768618
602.60 1.812753
602.70 1.854034
602.80 1.889785
602.90 1.877416
603.00 1.784884
603.10 1.7825
603.20 1.847416
603.30 1.905254
603.40 1.909481
603.50 1.908585
603.60 1.906995
603.70 1.791504
603.80 1.720611
603.90 1.794806
604.00 1.848299
604.10 1.893731
604.20 1.95215
604.30 2.031703
604.40 1.991794
604.50 1.971339
604.60 2.058014
604.70 2.035642
604.80 2.010696
604.90 2.102328
605.00 2.253592
605.10 2.253197
605.20 2.168693
605.30 2.18214
605.40 2.183429
605.50 2.14872
605.60 2.183909
605.70 2.191028
605.80 2.183759
605.90 2.197112
606.00 2.316465
606.10 2.315472
606.20 2.281851
606.30 2.261341
606.40 2.212744
606.50 2.151929
606.60 2.088003
606.70 2.042068
606.80 2.068661
606.90 2.222057
607.00 2.35265
607.10 2.362544
607.20 2.311454
607.30 2.322729
607.40 2.278152
607.50 2.248119
607.60 2.273433
607.70 2.373803
607.80 2.419107
607.90 2.389986
608.00 2.272926
608.10 2.09461
608.20 1.998666
608.30 1.96637
608.40 2.002092
608.50 2.114865
608.60 2.227454
608.70 2.232592
608.80 2.198498
608.90 2.22904
609.00 2.283522
609.10 2.26563
609.20 2.233092
609.30 2.239329
609.40 2.369915
609.50 2.380099
609.60 2.349526
609.70 2.36852
609.80 2.369627
609.90 2.36793
610.00 2.425471
610.10 2.430108
610.20 2.305617
610.30 2.140713
610.40 2.152212
610.50 2.17616
610.60 2.23601
610.70 2.311859
610.80 2.389771
610.90 2.368069
611.00 2.254576
611.10 2.21021
611.20 2.20875
611.30 2.204822
611.40 2.253036
611.50 2.250078
611.60 2.224845
611.70 2.127614
611.80 2.028636
611.90 1.989624
612.00 2.037779
612.10 2.096002
612.20 2.075466
612.30 2.027658
612.40 2.032719
612.50 2.030214
612.60 2.055354
612.70 2.134211
612.80 2.192452
612.90 2.205499
613.00 2.176567
613.10 2.162966
613.20 2.192942
613.30 2.132922
613.40 2.02375
613.50 2.003534
613.60 2.070852
613.70 2.155041
613.80 2.206619
613.90 2.186742
614.00 2.154196
614.10 2.110914
614.20 2.014177
614.30 1.95723
614.40 2.017227
614.50 2.099588
614.60 2.151055
614.70 2.070984
614.80 1.84828
614.90 1.723351
615.00 1.664947
615.10 1.641792
615.20 1.603403
615.30 1.62251
615.40 1.669113
615.50 1.686601
615.60 1.736273
615.70 1.621017
615.80 1.496568
615.90 1.45285
616.00 1.370932
616.10 1.201786
616.20 1.088102
616.30 1.071199
616.40 1.095407
616.50 1.127398
616.60 1.139583
616.70 1.14782
616.80 1.136239
616.90 1.164413
617.00 1.146176
617.10 1.190526
617.20 1.141664
617.30 1.066814
617.40 1.061805
617.50 1.012504
617.60 0.998458
617.70 1.070305
617.80 1.094888
617.90 1.085671
618.00 1.152168
618.10 1.173631
618.20 1.201828
618.30 1.197143
618.40 1.153047
618.50 1.117781
618.60 1.072352
618.70 1.020475
618.80 0.9081217
618.90 0.8593479
619.00 0.8939536
619.10 0.9036477
619.20 0.929197
619.30 0.9178277
619.40 0.9095707
619.50 0.9403748
619.60 0.985147
619.70 1.01846
619.80 1.006671
619.90 0.9869768
620.00 0.9567976
620.10 0.9689932
620.20 1.038848
620.30 1.088967
620.40 1.025207
620.50 1.027452
620.60 1.101958
620.70 1.123218
620.80 1.090168
620.90 1.067059
621.00 1.080996
621.10 1.057791
621.20 1.036382
621.30 1.067165
621.40 1.014163
621.50 0.9512857
621.60 0.9553874
621.70 0.9525199
621.80 0.9675569
621.90 0.9760643
622.00 0.9564589
622.10 1.032907
622.20 1.049871
622.30 0.9978922
622.40 0.9305821
622.50 0.9264831
622.60 0.9186931
622.70 0.8775417
622.80 0.8357782
622.90 0.8497739
623.00 0.9273167
623.10 0.9561701
623.20 0.956646
623.30 0.993512
623.40 0.9486471
623.50 0.8896368
623.60 0.9507647
623.70 1.027834
623.80 1.047237
623.90 1.054611
624.00 1.037113
624.10 0.9800356
624.20 0.9885812
624.30 1.025136
624.40 0.9936988
624.50 0.9517716
624.60 0.9372755
624.70 0.9796599
624.80 1.025121
624.90 1.078382
625.00 1.076381
625.10 1.07072
625.20 1.07454
625.30 1.099245
625.40 1.12601
625.50 1.09966
625.60 1.104113
625.70 1.13
625.80 1.150274
625.90 1.119368
626.00 1.096056
626.10 1.065062
626.20 1.065202
626.30 1.165422
626.40 1.250198
626.50 1.277997
626.60 1.277327
626.70 1.299456
626.80 1.344265
626.90 1.323835
627.00 1.30957
627.10 1.301138
627.20 1.235257
627.30 1.215935
627.40 1.280487
627.50 1.406086
627.60 1.396626
627.70 1.334959
627.80 1.292656
627.90 1.270677
628.00 1.26843
628.10 1.344558
628.20 1.43167
628.30 1.402712
628.40 1.403944
628.50 1.519441
628.60 1.584387
628.70 1.53524
628.80 1.54712
628.90 1.707576
629.00 1.765257
629.10 1.652358
629.20 1.542456
629.30 1.588795
629.40 1.675356
629.50 1.705209
629.60 1.70859
629.70 1.761533
629.80 1.841432
629.90 1.728132
630.00 1.571469
630.10 1.602233
630.20 1.983721
630.30 2.311215
630.40 2.135349
630.50 2.01181
630.60 1.974283
630.70 2.059024
630.80 2.208569
630.90 2.259867
631.00 2.257443
631.10 2.227544
631.20 2.270196
631.30 2.339071
631.40 2.42844
631.50 2.4978
631.60 2.494528
631.70 2.540774
631.80 2.648321
631.90 2.667135
632.00 2.608872
632.10 2.61636
632.20 2.578417
632.30 2.488728
632.40 2.450136
632.50 2.478691
632.60 2.545365
632.70 2.593048
632.80 2.630343
632.90 2.673266
633.00 2.709818
633.10 2.754634
633.20 2.811989
633.30 2.837494
633.40 2.860985
633.50 2.906757
633.60 2.938814
633.70 2.967298
633.80 3.029651
633.90 3.099362
634.00 3.115133
634.10 3.159073
634.20 3.199292
634.30 3.247099
634.40 3.326624
634.50 3.364654
634.60 3.394552
634.70 3.408236
634.80 3.397618
634.90 3.486752
635.00 3.543959
635.10 3.49485
635.20 3.393524
635.30 3.287549
635.40 3.164779
635.50 3.047185
635.60 2.989619
635.70 2.917572
635.80 2.873669
635.90 2.873486
636.00 2.900516
636.10 2.874329
636.20 2.803352
636.30 2.724763
636.40 2.792253
636.50 3.009878
636.60 3.132168
636.70 3.026909
636.80 2.815853
636.90 2.790607
637.00 2.941141
637.10 3.041557
637.20 3.02768
637.30 3.051124
637.40 3.137378
637.50 3.1258
637.60 3.059234
637.70 3.040262
637.80 3.040126
637.90 3.042232
638.00 2.963175
638.10 2.826369
638.20 2.723352
638.30 2.666454
638.40 2.64229
638.50 2.670346
638.60 2.699106
638.70 2.695663
638.80 2.681032
638.90 2.640035
639.00 2.645876
639.10 2.691909
639.20 2.803044
639.30 2.930765
639.40 2.97768
639.50 3.071223
639.60 3.235252
639.70 3.402724
639.80 3.494046
639.90 3.438358
640.00 3.399805
640.10 3.398285
640.20 3.420614
640.30 3.518986
640.40 3.571132
640.50 3.641371
640.60 3.720585
640.70 3.753374
640.80 3.760543
640.90 3.732444
641.00 3.725353
641.10 3.713189
641.20 3.721065
641.30 3.735144
641.40 3.754221
641.50 3.728325
641.60 3.652204
641.70 3.551127
641.80 3.509321
641.90 3.459571
642.00 3.378968
642.10 3.337312
642.20 3.313213
642.30 3.240597
642.40 3.174582
642.50 3.210548
642.60 3.302278
642.70 3.352014
642.80 3.36859
642.90 3.383814
643.00 3.446474
643.10 3.554843
643.20 3.588821
643.30 3.578153
643.40 3.560099
643.50 3.576236
643.60 3.652322
643.70 3.673369
643.80 3.658111
643.90 3.619788
644.00 3.598733
644.10 3.646402
644.20 3.729766
644.30 3.850581
644.40 4.007356
644.50 4.117877
644.60 4.113331
644.70 4.023566
644.80 3.901076
644.90 3.773384
645.00 3.686016
645.10 3.70702
645.20 3.784045
645.30 3.833186
645.40 3.901084
645.50 3.951858
645.60 4.006776
645.70 4.010523
645.80 4.004195
645.90 4.046166
646.00 4.058897
646.10 4.02519
646.20 4.001903
646.30 4.002792
646.40 4.042888
646.50 4.096875
646.60 4.201023
646.70 4.341887
646.80 4.422409
646.90 4.452564
647.00 4.51829
647.10 4.572904
647.20 4.592503
647.30 4.604991
647.40 4.641411
647.50 4.699652
647.60 4.777954
647.70 4.81015
647.80 4.790608
647.90 4.665304
648.00 4.448365
648.10 4.220058
648.20 4.138378
648.30 4.143722
648.40 4.14058
648.50 4.108482
648.60 3.990489
648.70 3.918667
648.80 3.985512
648.90 4.15169
649.00 4.312234
649.10 4.402884
649.20 4.396132
649.30 4.344588
649.40 4.312363
649.50 4.347873
649.60 4.404979
649.70 4.481123
649.80 4.590112
649.90 4.689873
650.00 4.706607
650.10 4.831029
650.20 4.954361
650.30 5.041475
650.40 5.127304
650.50 5.182821
650.60 5.26771
650.70 5.347576
650.80 5.400502
650.90 5.459721
651.00 5.536898
651.10 5.65985
651.20 5.715651
651.30 5.581699
651.40 5.417636
651.50 5.307502
651.60 5.304894
651.70 5.393908
651.80 5.580363
651.90 5.755469
652.00 5.860901
652.10 5.962818
652.20 6.057463
652.30 6.131443
652.40 6.199532
652.50 6.231443
652.60 6.236595
652.70 6.313857
652.80 6.504387
652.90 6.658827
653.00 6.688861
653.10 6.660742
653.20 6.6732
653.30 6.742389
653.40 6.816577
653.50 6.95785
653.60 7.05987
653.70 7.125111
653.80 7.30081
653.90 7.456609
654.00 7.538161
654.10 7.626245
654.20 7.672413
654.30 7.554462
654.40 7.281883
654.50 6.972064
654.60 6.722611
654.70 6.55802
654.80 6.428519
654.90 6.323598
655.00 6.245431
655.10 6.0571
655.20 5.81185
655.30 5.683613
655.40 5.686333
655.50 5.735722
655.60 5.728145
655.70 5.830388
655.80 5.993008
655.90 6.080568
656.00 6.232202
656.10 6.852608
656.20 8.382143
656.30 10.48213
656.40 12.01701
656.50 11.74308
656.60 9.760952
656.70 7.247577
656.80 5.615878
656.90 5.050798
657.00 4.978255
657.10 4.967105
657.20 4.84543
657.30 4.697622
657.40 4.587173
657.50 4.613744
657.60 4.771587
657.70 4.933774
657.80 4.973656
657.90 4.797775
658.00 4.545326
658.10 4.389647
658.20 4.347278
658.30 4.39561
658.40 4.570468
658.50 4.778824
658.60 4.972222
658.70 5.123512
658.80 5.248355
658.90 5.353273
659.00 5.373197
659.10 5.349313
659.20 5.318739
659.30 5.189098
659.40 4.960145
659.50 4.714167
659.60 4.567434
659.70 4.559887
659.80 4.601978
659.90 4.646836
660.00 4.646847
660.10 4.636443
660.20 4.629037
660.30 4.66591
660.40 4.732797
660.50 4.751657
660.60 4.740262
660.70 4.693698
660.80 4.614902
660.90 4.620221
661.00 4.651614
661.10 4.705086
661.20 4.778788
661.30 4.883717
661.40 4.962282
661.50 4.956561
661.60 4.954902
661.70 4.862742
661.80 4.733411
661.90 4.607034
662.00 4.443104
662.10 4.325277
662.20 4.293107
662.30 4.264491
662.40 4.207026
662.50 4.129373
662.60 3.998654
662.70 3.811914
662.80 3.6189
662.90 3.619878
663.00 3.820456
663.10 4.049146
663.20 4.24684
663.30 4.347048
663.40 4.317527
663.50 4.172444
663.60 3.941415
663.70 3.703946
663.80 3.472277
663.90 3.384815
664.00 3.481134
664.10 3.601502
664.20 3.739202
664.30 3.836284
664.40 3.920115
664.50 3.978559
664.60 4.000529
664.70 4.015884
664.80 3.979721
664.90 3.868104
665.00 3.67631
665.10 3.406909
665.20 3.104377
665.30 2.866052
665.40 2.764597
665.50 2.776235
665.60 2.860704
665.70 2.938009
665.80 2.994728
665.90 3.011668
666.00 2.980682
666.10 3.020085
666.20 3.091438
666.30 3.168796
666.40 3.231082
666.50 3.290792
666.60 3.384239
666.70 3.50115
666.80 3.614744
666.90 3.636674
667.00 3.637121
667.10 3.656806
667.20 3.681989
667.30 3.704156
667.40 3.655935
667.50 3.621431
667.60 3.612004
667.70 3.647496
667.80 3.708264
667.90 3.683348
668.00 3.547105
668.10 3.293395
668.20 2.941207
668.30 2.639622
668.40 2.529437
668.50 2.57465
668.60 2.660643
668.70 2.718263
668.80 2.780191
668.90 2.874523
669.00 2.938265
669.10 2.94446
669.20 2.897244
669.30 2.834923
669.40 2.838192
669.50 2.876586
669.60 2.906306
669.70 2.985953
669.80 3.087583
669.90 3.114897
670.00 3.093956
670.10 3.088397
670.20 3.111246
670.30 3.146605
670.40 3.223658
670.50 3.297753
670.60 3.32585
670.70 3.353507
670.80 3.412147
670.90 3.508996
671.00 3.509362
671.10 3.446802
671.20 3.393549
671.30 3.329389
671.40 3.255699
671.50 3.130343
671.60 2.931274
671.70 2.729098
671.80 2.546945
671.90 2.402781
672.00 2.326119
672.10 2.322892
672.20 2.381631
672.30 2.463168
672.40 2.52556
672.50 2.535808
672.60 2.583884
672.70 2.652446
672.80 2.665425
672.90 2.694567
673.00 2.760834
673.10 2.807493
673.20 2.789906
673.30 2.756601
673.40 2.758868
673.50 2.792432
673.60 2.797744
673.70 2.843331
673.80 2.933974
673.90 3.00763
674.00 3.046981
674.10 3.062856
674.20 3.090452
674.30 3.170166
674.40 3.27386
674.50 3.289349
674.60 3.229649
674.70 3.130978
674.80 2.959311
674.90 2.777548
675.00 2.642836
675.10 2.570889
675.20 2.623072
675.30 2.715234
675.40 2.793865
675.50 2.828851
675.60 2.872572
675.70 2.926286
675.80 2.959969
675.90 2.965995
676.00 2.950757
676.10 2.933869
676.20 2.93955
676.30 3.029115
676.40 3.16221
676.50 3.233007
676.60 3.307059
676.70 3.392761
676.80 3.41863
676.90 3.435246
677.00 3.464115
677.10 3.486412
677.20 3.494084
677.30 3.509646
677.40 3.507607
677.50 3.539352
677.60 3.67653
677.70 3.763604
677.80 3.762392
677.90 3.741172
678.00 3.713901
678.10 3.628026
678.20 3.412034
678.30 3.169863
678.40 2.940816
678.50 2.775608
678.60 2.713506
678.70 2.699496
678.80 2.708132
678.90 2.713923
679.00 2.786644
679.10 2.87772
679.20 2.901721
679.30 2.919868
679.40 2.933962
679.50 2.975629
679.60 3.042112
679.70 3.09648
679.80 3.121579
679.90 3.124694
680.00 3.174136
680.10 3.219846
680.20 3.264431
680.30 3.343455
680.40 3.387636
680.50 3.359689
680.60 3.287335
680.70 3.217158
680.80 3.218144
680.90 3.334992
681.00 3.438059
681.10 3.481936
681.20 3.525239
681.30 3.559035
681.40 3.576194
681.50 3.531408
681.60 3.422719
681.70 3.295105
681.80 3.258336
681.90 3.266534
682.00 3.299512
682.10 3.361031
682.20 3.372053
682.30 3.349257
682.40 3.321666
682.50 3.326546
682.60 3.384695
682.70 3.435865
682.80 3.44927
682.90 3.505925
683.00 3.672889
683.10 3.750155
683.20 3.655417
683.30 3.553577
683.40 3.538314
683.50 3.646606
683.60 3.70683
683.70 3.657839
683.80 3.569733
683.90 3.510616
684.00 3.566688
684.10 3.656064
684.20 3.701906
684.30 3.708879
684.40 3.757593
684.50 3.842585
684.60 3.850777
684.70 3.787368
684.80 3.711507
684.90 3.707466
685.00 3.696363
685.10 3.609211
685.20 3.436265
685.30 3.281422
685.40 3.246409
685.50 3.267608
685.60 3.334109
685.70 3.3653
685.80 3.381369
685.90 3.439758
686.00 3.432992
686.10 3.392285
686.20 3.374835
686.30 3.373525
686.40 3.429788
686.50 3.488543
686.60 3.5724
686.70 3.69701
686.80 3.698598
686.90 3.512341
687.00 3.36683
687.10 3.436823
687.20 3.580507
687.30 3.669077
687.40 3.74192
687.50 3.870252
687.60 3.964069
687.70 3.99269
687.80 4.040512
687.90 4.062157
688.00 4.069805
688.10 4.034183
688.20 4.004208
688.30 4.002811
688.40 3.967793
688.50 3.898634
688.60 3.756164
688.70 3.652538
688.80 3.727346
688.90 3.92017
689.00 4.060571
689.10 4.081388
689.20 3.955727
689.30 3.862706
689.40 3.943278
689.50 4.082662
689.60 4.210621
689.70 4.25944
689.80 4.207159
689.90 4.165637
690.00 4.126889
690.10 4.020051
690.20 3.849605
690.30 3.70394
690.40 3.757976
690.50 3.962661
690.60 4.16985
690.70 4.373717
690.80 4.540024
690.90 4.683758
691.00 4.758607
691.10 4.745184
691.20 4.707948
691.30 4.701235
691.40 4.757732
691.50 4.830452
691.60 4.86243
691.70 4.761305
691.80 4.536062
691.90 4.221076
692.00 3.9254
692.10 3.86838
692.20 4.06813
692.30 4.372184
692.40 4.649688
692.50 4.894906
692.60 5.088712
692.70 5.142562
692.80 5.092255
692.90 5.014341
693.00 5.024566
693.10 5.131187
693.20 5.308902
693.30 5.508553
693.40 5.622333
693.50 5.630881
693.60 5.579795
693.70 5.556746
693.80 5.577374
693.90 5.60597
694.00 5.651608
694.10 5.717188
694.20 5.872437
694.30 6.126023
694.40 6.357509
694.50 6.553943
694.60 6.724321
694.70 6.856614
694.80 6.979348
694.90 7.109525
695.00 7.194798
695.10 7.163736
695.20 6.956249
695.30 6.710646
695.40 6.471159
695.50 6.299907
695.60 6.283226
695.70 6.319198
695.80 6.362419
695.90 6.370163
696.00 6.399373
696.10 6.424221
696.20 6.460176
696.30 6.537248
696.40 6.634873
696.50 6.774433
696.60 6.906459
696.70 7.005737
696.80 7.072267
696.90 7.085193
697.00 7.031635
697.10 6.915899
697.20 6.799048
697.30 6.699132
697.40 6.702482
697.50 6.851411
697.60 7.096606
697.70 7.342316
697.80 7.49539
697.90 7.598031
698.00 7.62581
698.10 7.588699
698.20 7.545431
698.30 7.576215
698.40 7.694893
698.50 7.820158
698.60 7.862145
698.70 7.818095
698.80 7.77891
698.90 7.729046
699.00 7.674187
699.10 7.576097
699.20 7.445057
699.30 7.394287
699.40 7.40362
699.50 7.421067
699.60 7.525712
699.70 7.653627
699.80 7.70872
699.90 7.706733
700.00 7.658141
700.10 7.683487
700.20 7.807702
700.30 7.926636
700.40 7.983855
700.50 7.915072
700.60 7.770136
700.70 7.782552
700.80 7.978876
700.90 8.226819
701.00 8.371381
701.10 8.357208
701.20 8.349471
701.30 8.473087
701.40 8.725479
701.50 8.939676
701.60 8.970307
701.70 8.872374
701.80 8.807815
701.90 8.844641
702.00 8.988027
702.10 9.204859
702.20 9.385584
702.30 9.357652
702.40 9.055108
702.50 8.661527
702.60 8.466401
702.70 8.601092
702.80 9.015632
702.90 9.623988
703.00 10.22751
703.10 10.50784
703.20 10.42863
703.30 10.26855
703.40 10.25171
703.50 10.50129
703.60 10.97601
703.70 11.4027
703.80 11.58002
703.90 11.52928
704.00 11.40966
704.10 11.49726
704.20 11.77418
704.30 12.05448
704.40 12.24781
704.50 12.33207
704.60 12.36797
704.70 12.42225
704.80 12.48697
704.90 12.5168
705.00 12.49156
705.10 12.45267
705.20 12.4019
705.30 12.1294
705.40 11.16534
705.50 9.346833
705.60 7.167782
705.70 5.47046
705.80 4.697707
705.90 4.654374
706.00 4.72361
706.10 4.560641
706.20 4.315737
706.30 4.20838
706.40 4.327713
706.50 4.533904
706.60 4.717974
706.70 4.884319
706.80 4.993794
706.90 5.106902
707.00 5.275091
707.10 5.43097
707.20 5.564256
707.30 5.679407
707.40 5.798634
707.50 5.867362
707.60 5.830225
707.70 5.79252
707.80 5.855325
707.90 5.984946
708.00 6.090296
708.10 6.163236
708.20 6.230764
708.30 6.307015
708.40 6.405138
708.50 6.510998
708.60 6.519794
708.70 6.233309
708.80 5.548396
708.90 4.616635
709.00 3.743253
709.10 3.246498
709.20 3.197288
709.30 3.340272
709.40 3.457626
709.50 3.438446
709.60 3.366999
709.70 3.365457
709.80 3.441889
709.90 3.567575
710.00 3.655962
710.10 3.718958
710.20 3.771935
710.30 3.791946
710.40 3.793468
710.50 3.804937
710.60 3.88989
710.70 4.065926
710.80 4.321343
710.90 4.604514
711.00 4.823127
711.10 4.988368
711.20 5.12021
711.30 5.193433
711.40 5.189879
711.50 5.105721
711.60 5.026891
711.70 4.993605
711.80 5.047325
711.90 5.202337
712.00 5.418925
712.10 5.651112
712.20 5.815721
712.30 5.866156
712.40 5.772906
712.50 5.41872
712.60 4.656039
712.70 3.68501
712.80 2.91201
712.90 2.553539
713.00 2.584035
713.10 2.751382
713.20 2.811992
713.30 2.734154
713.40 2.654392
713.50 2.647472
713.60 2.730541
713.70 2.872843
713.80 2.985163
713.90 2.986577
714.00 2.957956
714.10 2.998232
714.20 3.10173
714.30 3.259617
714.40 3.393566
714.50 3.434029
714.60 3.407584
714.70 3.403972
714.80 3.45571
714.90 3.541801
715.00 3.606243
715.10 3.62708
715.20 3.664131
715.30 3.730472
715.40 3.825467
715.50 3.983935
715.60 4.17428
715.70 4.265937
715.80 4.207208
715.90 4.042686
716.00 3.832684
716.10 3.645465
716.20 3.574524
716.30 3.634554
716.40 3.731891
716.50 3.761018
716.60 3.733231
716.70 3.754858
716.80 3.812119
716.90 3.850213
717.00 3.912941
717.10 4.005429
717.20 4.164577
717.30 4.320185
717.40 4.382578
717.50 4.378826
717.60 4.337223
717.70 4.332244
717.80 4.365355
717.90 4.41621
718.00 4.495979
718.10 4.61542
718.20 4.737504
718.30 4.812379
718.40 4.910773
718.50 5.045399
718.60 5.197598
718.70 5.326235
718.80 5.407463
718.90 5.474056
719.00 5.518248
719.10 5.526369
719.20 5.496603
719.30 5.486758
719.40 5.543968
719.50 5.600349
719.60 5.527536
719.70 5.283674
719.80 4.917997
719.90 4.565813
720.00 4.424658
720.10 4.44156
720.20 4.484967
720.30 4.523146
720.40 4.49036
720.50 4.465742
720.60 4.510159
720.70 4.518295
720.80 4.569644
720.90 4.694442
721.00 4.805802
721.10 4.893105
721.20 4.948086
721.30 5.021186
721.40 5.126299
721.50 5.194355
721.60 5.238505
721.70 5.326369
721.80 5.442972
721.90 5.534966
722.00 5.579201
722.10 5.603106
722.20 5.672842
722.30 5.774916
722.40 5.902638
722.50 6.086335
722.60 6.225183
722.70 6.339489
722.80 6.483776
722.90 6.549893
723.00 6.490792
723.10 6.318076
723.20 6.087867
723.30 5.961456
723.40 6.034806
723.50 6.295269
723.60 6.593066
723.70 6.781456
723.80 6.889448
723.90 6.966071
724.00 6.985048
724.10 6.978889
724.20 6.968924
724.30 6.995305
724.40 7.105178
724.50 7.300893
724.60 7.536904
724.70 7.619185
724.80 7.650373
724.90 7.865865
725.00 8.111945
725.10 8.30322
725.20 8.319359
725.30 8.193523
725.40 8.145822
725.50 8.249261
725.60 8.455984
725.70 8.647689
725.80 8.7145
725.90 8.681156
726.00 8.627652
726.10 8.662496
726.20 8.841861
726.30 9.120934
726.40 9.403192
726.50 9.520709
726.60 9.521981
726.70 9.555455
726.80 9.629846
726.90 9.69296
727.00 9.611599
727.10 9.276641
727.20 8.790437
727.30 8.484516
727.40 8.615112
727.50 9.086492
727.60 9.507222
727.70 9.702882
727.80 9.681098
727.90 9.463824
728.00 9.250574
728.10 9.200664
728.20 9.328613
728.30 9.556896
728.40 9.761473
728.50 9.894439
728.60 10.02924
728.70 10.214
728.80 10.36459
728.90 10.46566
729.00 10.59499
729.10 10.70437
729.20 10.7593
729.30 10.78647
729.40 10.83257
729.50 10.9439
729.60 11.13431
729.70 11.3695
729.80 11.54134
729.90 11.60227
730.00 11.53183
730.10 11.47023
730.20 11.67725
730.30 12.02591
730.40 12.23588
730.50 12.2779
730.60 12.29977
730.70 12.3995
730.80 12.54021
730.90 12.69094
731.00 12.82695
731.10 12.88836
731.20 12.84901
731.30 12.87214
731.40 13.07871
731.50 13.35751
731.60 13.52484
731.70 13.57104
731.80 13.65242
731.90 13.78224
732.00 13.84916
732.10 13.85719
732.20 13.92852
732.30 14.09335
732.40 14.21161
732.50 14.14414
732.60 13.9426
732.70 13.72086
732.80 13.5814
732.90 13.75446
733.00 14.2
733.10 14.59416
733.20 14.73385
733.30 14.65123
733.40 14.64092
733.50 14.83744
733.60 15.11927
733.70 15.39092
733.80 15.62555
733.90 15.87251
734.00 16.08875
734.10 16.14606
734.20 16.09794
734.30 15.98945
734.40 15.63173
734.50 14.99706
734.60 14.56975
734.70 14.63733
734.80 14.92484
734.90 15.23762
735.00 15.52101
735.10 15.7434
735.20 15.88526
735.30 15.92384
735.40 15.9173
735.50 15.81851
735.60 15.56867
735.70 15.3134
735.80 15.22808
735.90 15.46655
736.00 15.88303
736.10 16.1854
736.20 16.30902
736.30 16.3032
736.40 16.3675
736.50 16.58295
736.60 16.81028
736.70 17.00715
736.80 17.15425
736.90 17.23114
737.00 17.37596
737.10 17.56435
737.20 17.60715
737.30 17.46968
737.40 17.20924
737.50 16.96607
737.60 16.88607
737.70 16.89684
737.80 17.01442
737.90 17.24274
738.00 17.46721
738.10 17.62717
738.20 17.64122
738.30 17.54903
738.40 17.49126
738.50 17.55166
738.60 17.72768
738.70 17.8855
738.80 17.9892
738.90 18.1516
739.00 18.36669
739.10 18.51351
739.20 18.43107
739.30 18.08594
739.40 17.65208
739.50 17.33902
739.60 17.26237
739.70 17.37811
739.80 17.58399
739.90 17.81839
740.00 17.97463
740.10 18.07149
740.20 18.21704
740.30 18.34529
740.40 18.37134
740.50 18.1686
740.60 17.70072
740.70 17.25967
740.80 17.09882
740.90 17.27292
741.00 17.67699
741.10 18.11084
741.20 18.37529
741.30 18.42979
741.40 18.43665
741.50 18.52068
741.60 18.59034
741.70 18.44427
741.80 18.03575
741.90 17.55386
742.00 17.2987
742.10 17.35205
742.20 17.58231
742.30 17.86774
742.40 18.08722
742.50 18.23538
742.60 18.38167
742.70 18.49834
742.80 18.5776
742.90 18.66549
743.00 18.70399
743.10 18.72975
743.20 18.8033
743.30 18.81439
743.40 18.68592
743.50 18.3748
743.60 17.92765
743.70 17.67552
743.80 17.83436
743.90 18.31437
744.00 18.83471
744.10 19.00282
744.20 18.8144
744.30 18.47039
744.40 18.15644
744.50 18.00562
744.60 17.97088
744.70 17.95483
744.80 17.92664
744.90 17.88693
745.00 17.8632
745.10 17.9789
745.20 18.21874
745.30 18.43803
745.40 18.53404
745.50 18.424
745.60 18.23102
745.70 18.13796
745.80 18.17733
745.90 18.26938
746.00 18.32828
746.10 18.37989
746.20 18.45638
746.30 18.53639
746.40 18.63923
746.50 18.72929
746.60 18.78133
746.70 18.79106
746.80 18.72627
746.90 18.73016
747.00 18.98583
747.10 19.39223
747.20 19.66077
747.30 19.48709
747.40 18.92627
747.50 18.45958
747.60 18.34635
747.70 18.63334
747.80 19.07196
747.90 19.26029
748.00 19.19931
748.10 19.05682
748.20 18.94194
748.30 19.06528
748.40 19.41052
748.50 19.62877
748.60 19.63096
748.70 19.45033
748.80 19.18143
748.90 19.07067
749.00 19.18338
749.10 19.39666
749.20 19.53798
749.30 19.47728
749.40 19.2056
749.50 18.87038
749.60 18.71335
749.70 18.83703
749.80 19.19654
749.90 19.70081
750.00 20.18929
750.10 20.49349
750.20 20.57798
750.30 20.51942
750.40 20.45578
750.50 20.41612
750.60 20.26545
750.70 19.94558
750.80 19.68146
750.90 19.81564
751.00 20.3649
751.10 20.92891
751.20 21.13106
751.30 20.9125
751.40 20.52768
751.50 20.37073
751.60 20.53352
751.70 20.85007
751.80 21.01195
751.90 20.84209
752.00 20.5213
752.10 20.27435
752.20 20.31925
752.30 20.6076
752.40 20.86772
752.50 20.94887
752.60 20.71074
752.70 20.16399
752.80 19.62356
752.90 19.4066
753.00 19.65455
753.10 20.27113
753.20 20.90834
753.30 21.30487
753.40 21.32469
753.50 21.0266
753.60 20.75217
753.70 20.79592
753.80 21.19305
753.90 21.73888
754.00 22.22145
754.10 22.52444
754.20 22.58398
754.30 22.48663
754.40 22.43575
754.50 22.49153
754.60 22.56914
754.70 22.54071
754.80 22.3105
754.90 22.06972
755.00 22.04602
755.10 22.22657
755.20 22.45193
755.30 22.51854
755.40 22.41237
755.50 22.26549
755.60 22.18923
755.70 22.25732
755.80 22.41017
755.90 22.57512
756.00 22.74484
756.10 22.86986
756.20 22.87311
756.30 22.70992
756.40 22.45992
756.50 22.21927
756.60 21.93678
756.70 21.58479
756.80 21.21676
756.90 20.94634
757.00 21.01452
757.10 21.49505
757.20 22.1925
757.30 22.87508
757.40 23.29115
757.50 23.40325
757.60 23.25931
757.70 22.90825
757.80 22.52895
757.90 22.31334
758.00 22.36516
758.10 22.76953
758.20 23.40144
758.30 23.99613
758.40 24.34986
758.50 24.34481
758.60 24.08897
758.70 23.581
758.80 22.50388
758.90 20.64538
759.00 18.09955
759.10 15.55664
759.20 13.85553
759.30 13.31901
759.40 13.7343
759.50 14.47704
759.60 15.01828
759.70 15.15068
759.80 15.14988
759.90 15.34785
760.00 15.67479
760.10 15.8929
760.20 15.73777
760.30 15.32355
760.40 15.19268
760.50 15.39387
760.60 15.66809
760.70 15.88289
760.80 15.91473
760.90 15.80108
761.00 15.69402
761.10 15.79511
761.20 16.22691
761.30 17.01177
761.40 17.80231
761.50 18.14954
761.60 18.10552
761.70 17.9977
761.80 18.18665
761.90 18.67489
762.00 19.10623
762.10 19.16576
762.20 18.88561
762.30 18.54153
762.40 18.30564
762.50 18.24999
762.60 18.01862
762.70 17.18356
762.80 15.75909
762.90 14.05799
763.00 12.63078
763.10 11.75848
763.20 11.44986
763.30 11.65137
763.40 12.18632
763.50 12.65323
763.60 12.71349
763.70 12.55536
763.80 12.47984
763.90 12.62111
764.00 12.71221
764.10 12.4751
764.20 12.31442
764.30 12.53673
764.40 12.76282
764.50 12.71887
764.60 12.47193
764.70 12.30746
764.80 12.51459
764.90 12.67804
765.00 12.45437
765.10 12.12172
765.20 11.86361
765.30 11.8136
765.40 11.8067
765.50 11.44889
765.60 10.95429
765.70 10.65398
765.80 10.5372
765.90 10.37347
766.00 9.773804
766.10 8.769853
766.20 7.63158
766.30 6.522611
766.40 5.516939
766.50 4.549756
766.60 3.775468
766.70 3.497336
766.80 3.752951
766.90 4.457589
767.00 5.307702
767.10 5.931824
767.20 6.282011
767.30 6.426726
767.40 6.550499
767.50 6.81155
767.60 7.196159
767.70 7.619786
767.80 7.949423
767.90 8.157087
768.00 8.341429
768.10 8.582316
768.20 8.837876
768.30 9.009438
768.40 9.118757
768.50 9.177183
768.60 9.197764
768.70 9.259151
768.80 9.376277
768.90 9.481848
769.00 9.470973
769.10 9.379889
769.20 9.314288
769.30 9.187265
769.40 8.913794
769.50 8.502588
769.60 7.945322
769.70 7.166006
769.80 6.133772
769.90 5.042716
770.00 4.235804
770.10 4.009064
770.20 4.429599
770.30 5.292057
770.40 6.257152
770.50 7.068782
770.60 7.607342
770.70 7.901866
770.80 8.089737
770.90 8.320935
771.00 8.704448
771.10 9.141438
771.20 9.529708
771.30 9.871492
771.40 10.1053
771.50 10.22751
771.60 10.25898
771.70 10.20572
771.80 10.22275
771.90 10.38413
772.00 10.54362
772.10 10.72486
772.20 10.99835
772.30 11.2454
772.40 11.36186
772.50 11.455
772.60 11.65219
772.70 11.93623
772.80 12.26481
772.90 12.55277
773.00 12.7479
773.10 12.83492
773.20 12.84514
773.30 12.8638
773.40 12.96354
773.50 13.15865
773.60 13.33567
773.70 13.43538
773.80 13.5191
773.90 13.67407
774.00 13.91575
774.10 14.07267
774.20 13.97138
774.30 13.57798
774.40 12.99715
774.50 12.42025
774.60 11.93931
774.70 11.61135
774.80 11.42428
774.90 11.22693
775.00 10.96087
775.10 10.60056
775.20 10.15194
775.30 9.861503
775.40 9.945295
775.50 10.23632
775.60 10.50864
775.70 10.71473
775.80 10.7282
775.90 10.63617
776.00 10.67923
776.10 10.84158
776.20 11.00411
776.30 11.01728
776.40 10.88933
776.50 10.79594
776.60 10.84558
776.70 11.09429
776.80 11.50156
776.90 11.87122
777.00 12.05393
777.10 12.11082
777.20 12.16136
777.30 12.27016
777.40 12.43021
777.50 12.5491
777.60 12.60511
777.70 12.64121
777.80 12.67778
777.90 12.7122
778.00 12.70737
778.10 12.62324
778.20 12.42247
778.30 12.07629
778.40 11.66108
778.50 11.26725
778.60 10.99781
778.70 10.97933
778.80 11.14924
778.90 11.35515
779.00 11.55858
779.10 11.74503
779.20 11.92028
779.30 12.13087
779.40 12.32038
779.50 12.47725
779.60 12.64174
779.70 12.71457
779.80 12.58817
779.90 12.26591
780.00 11.86561
780.10 11.48965
780.20 11.3627
780.30 11.6964
780.40 12.44539
780.50 13.37443
780.60 14.17958
780.70 14.64337
780.80 14.81588
780.90 14.88948
781.00 14.8264
781.10 14.6356
781.20 14.49037
781.30 14.55269
781.40 14.82429
781.50 15.12627
781.60 15.36822
781.70 15.53648
781.80 15.64702
781.90 15.64837
782.00 15.47315
782.10 15.12493
782.20 14.5819
782.30 14.0239
782.40 13.74474
782.50 13.73008
782.60 13.87435
782.70 13.92143
782.80 13.62844
782.90 13.13703
783.00 12.52905
783.10 11.99399
783.20 11.84952
783.30 12.06331
783.40 12.45549
783.50 12.86745
783.60 13.15088
783.70 13.29108
783.80 13.33909
783.90 13.3455
784.00 13.39827
784.10 13.46732
784.20 13.47099
784.30 13.49266
784.40 13.62828
784.50 13.88835
784.60 14.26601
784.70 14.6087
784.80 14.76168
784.90 14.69295
785.00 14.56301
785.10 14.5339
785.20 14.51579
785.30 14.59582
785.40 14.74011
785.50 14.721
785.60 14.67911
785.70 14.69727
785.80 14.78567
785.90 15.02989
786.00 15.18163
786.10 15.0379
786.20 14.68745
786.30 14.3265
786.40 14.14214
786.50 14.13817
786.60 14.23663
786.70 14.3596
786.80 14.47023
786.90 14.57842
787.00 14.61081
787.10 14.56464
787.20 14.49188
787.30 14.33625
787.40 14.21655
787.50 14.28171
787.60 14.54507
787.70 15.00373
787.80 15.46044
787.90 15.71669
788.00 15.80652
788.10 15.84066
788.20 15.97077
788.30 16.19726
788.40 16.39431
788.50 16.54572
788.60 16.59581
788.70 16.5414
788.80 16.53988
788.90 16.68012
789.00 16.92955
789.10 17.12969
789.20 17.17302
789.30 17.12712
789.40 17.11037
789.50 17.19145
789.60 17.20698
789.70 17.05029
789.80 16.78576
789.90 16.42593
790.00 16.03946
790.10 15.72427
790.20 15.59362
790.30 15.73255
790.40 16.08579
790.50 16.4754
790.60 16.73018
790.70 16.67536
790.80 16.23713
790.90 15.5398
791.00 14.8201
791.10 14.37646
791.20 14.28303
791.30 14.42787
791.40 14.76966
791.50 15.17991
791.60 15.45329
791.70 15.51674
791.80 15.4211
791.90 15.24162
792.00 15.0493
792.10 15.0026
792.20 15.14517
792.30 15.3638
792.40 15.60517
792.50 15.76487
792.60 15.80421
792.70 15.8013
792.80 15.81129
792.90 15.91752
793.00 16.14496
793.10 16.44462
793.20 16.79158
793.30 17.15475
793.40 17.47571
793.50 17.72218
793.60 17.82879
793.70 17.77695
793.80 17.6558
793.90 17.47704
794.00 17.13868
794.10 16.62638
794.20 16.13028
794.30 15.91048
794.40 16.09039
794.50 16.49032
794.60 16.71914
794.70 16.44766
794.80 15.73329
794.90 15.07889
795.00 14.93783
795.10 15.41497
795.20 16.27033
795.30 17.16089
795.40 17.82305
795.50 18.15755
795.60 18.28815
795.70 18.34174
795.80 18.4091
795.90 18.48331
796.00 18.34127
796.10 17.93638
796.20 17.50356
796.30 17.27447
796.40 17.43245
796.50 17.90794
796.60 18.34668
796.70 18.58921
796.80 18.70497
796.90 18.78692
797.00 18.98778
797.10 19.26609
797.20 19.48013
797.30 19.59062
797.40 19.54767
797.50 19.32401
797.60 19.00242
797.70 18.75106
797.80 18.66603
797.90 18.70748
798.00 18.7571
798.10 18.73631
798.20 18.60501
798.30 18.39547
798.40 18.22741
798.50 18.14147
798.60 18.07602
798.70 17.98014
798.80 17.82629
798.90 17.65551
799.00 17.64225
799.10 17.90853
799.20 18.30773
799.30 18.69064
799.40 19.0355
799.50 19.12116
799.60 18.8893
799.70 18.62095
799.80 18.42591
799.90 18.42589
800.00 18.6834
800.10 18.95951
800.20 19.15881
800.30 19.35483
800.40 19.51278
800.50 19.59684
800.60 19.65749
800.70 19.7579
800.80 19.90208
800.90 20.03586
801.00 20.14938
801.10 20.25567
801.20 20.36922
801.30 20.5314
801.40 20.73292
801.50 20.92427
801.60 21.05673
801.70 21.14331
801.80 21.20859
801.90 21.28373
802.00 21.4082
802.10 21.44148
802.20 21.30123
802.30 21.11854
802.40 21.07309
802.50 21.25048
802.60 21.50532
802.70 21.73739
802.80 22.00593
802.90 22.22755
803.00 22.33549
803.10 22.4269
803.20 22.54808
803.30 22.68286
803.40 22.77085
803.50 22.80142
803.60 22.80569
803.70 22.75449
803.80 22.68151
803.90 22.63299
804.00 22.63189
804.10 22.6916
804.20 22.79932
804.30 22.98693
804.40 23.22333
804.50 23.44371
804.60 23.58679
804.70 23.508
804.80 23.28753
804.90 23.19069
805.00 23.35629
805.10 23.78665
805.20 24.38656
805.30 24.98449
805.40 25.39073
805.50 25.57584
805.60 25.61774
805.70 25.56842
805.80 25.50846
805.90 25.49896
806.00 25.57462
806.10 25.73686
806.20 25.94415
806.30 26.09181
806.40 26.0153
806.50 25.74281
806.60 25.5269
806.70 25.49173
806.80 25.5729
806.90 25.62091
807.00 25.54154
807.10 25.40419
807.20 25.36731
807.30 25.56058
807.40 25.96487
807.50 26.40331
807.60 26.65735
807.70 26.70361
807.80 26.72843
807.90 26.84637
808.00 26.99412
808.10 27.06914
808.20 27.12465
808.30 27.27415
808.40 27.48346
808.50 27.68556
808.60 27.87233
808.70 27.97019
808.80 27.91203
808.90 27.79765
809.00 27.72776
809.10 27.77644
809.20 28.00147
809.30 28.25594
809.40 28.35858
809.50 28.28295
809.60 28.10779
809.70 27.93747
809.80 27.87108
809.90 27.91123
810.00 27.95279
810.10 27.97586
810.20 28.00713
810.30 27.99845
810.40 27.93466
810.50 27.85112
810.60 27.81603
810.70 27.91721
810.80 28.20998
810.90 28.64366
811.00 29.0022
811.10 29.1307
811.20 29.12138
811.30 29.14923
811.40 29.29885
811.50 29.42343
811.60 29.24234
811.70 28.74922
811.80 28.2607
811.90 28.15398
812.00 28.56087
812.10 29.24055
812.20 29.85052
812.30 30.13683
812.40 30.12033
812.50 30.06277
812.60 30.13722
812.70 30.36363
812.80 30.61339
812.90 30.73781
813.00 30.72377
813.10 30.63451
813.20 30.55473
813.30 30.5305
813.40 30.5646
813.50 30.65019
813.60 30.76198
813.70 30.90478
813.80 31.11889
813.90 31.38859
814.00 31.59763
814.10 31.60861
814.20 31.34384
814.30 30.90163
814.40 30.49493
814.50 30.27618
814.60 30.2524
814.70 30.32218
814.80 30.43083
814.90 30.46567
815.00 30.33888
815.10 30.29738
815.20 30.50952
815.30 30.74907
815.40 30.83046
815.50 30.76928
815.60 30.62631
815.70 30.51585
815.80 30.4886
815.90 30.46374
816.00 30.37116
816.10 30.17686
816.20 29.93341
816.30 29.81533
816.40 29.96121
816.50 30.32227
816.60 30.773
816.70 31.20826
816.80 31.49936
816.90 31.58891
817.00 31.48172
817.10 31.27248
817.20 31.12718
817.30 31.05106
817.40 31.03959
817.50 31.05852
817.60 30.89688
817.70 30.45882
817.80 29.878
817.90 29.26619
818.00 28.5849
818.10 27.44252
818.20 25.38721
818.30 22.42365
818.40 19.33114
818.50 17.51715
818.60 17.79463
818.70 19.90741
818.80 22.75438
818.90 24.99085
819.00 26.14867
819.10 26.42248
819.20 25.87425
819.30 24.39726
819.40 21.95276
819.50 18.87703
819.60 16.3184
819.70 15.39471
819.80 16.303
819.90 18.48684
820.00 20.93259
820.10 22.9383
820.20 24.4905
820.30 25.75166
820.40 26.70696
820.50 27.24192
820.60 27.22405
820.70 26.79285
820.80 26.37522
820.90 26.26106
821.00 26.58465
821.10 27.2059
821.20 27.79319
821.30 28.13124
821.40 28.16961
821.50 28.04586
821.60 27.97106
821.70 28.00437
821.80 28.06885
821.90 28.13185
822.00 28.23162
822.10 28.43706
822.20 28.727
822.30 28.93506
822.40 29.08613
822.50 29.35388
822.60 29.65155
822.70 29.84314
822.80 29.94477
822.90 29.98906
823.00 30.18037
823.10 30.60989
823.20 30.92427
823.30 30.85939
823.40 30.41788
823.50 29.85891
823.60 29.64879
823.70 29.8765
823.80 30.36185
823.90 30.9517
824.00 31.4717
824.10 31.8173
824.20 31.91182
824.30 31.76239
824.40 31.44447
824.50 31.14672
824.60 31.14683
824.70 31.52194
824.80 32.13709
824.90 32.70026
825.00 32.92342
825.10 32.61855
825.20 31.87087
825.30 31.0789
825.40 30.48145
825.50 30.04566
825.60 29.65868
825.70 29.23607
825.80 28.89309
825.90 28.92403
826.00 29.49504
826.10 30.37495
826.20 31.10047
826.30 31.46644
826.40 31.61834
826.50 31.70993
826.60 31.87471
826.70 32.08306
826.80 32.10266
826.90 31.92038
827.00 31.6022
827.10 31.08371
827.20 30.33895
827.30 29.51722
827.40 28.90109
827.50 28.67876
827.60 28.81173
827.70 29.09224
827.80 29.39743
827.90 29.67376
828.00 29.78799
828.10 29.73101
828.20 29.54989
828.30 29.25733
828.40 28.92737
828.50 28.7566
828.60 28.8755
828.70 29.04228
828.80 28.96336
828.90 28.51107
829.00 27.68938
829.10 26.8864
829.20 26.53428
829.30 26.69221
829.40 27.15483
829.50 27.559
829.60 27.71006
829.70 27.76954
829.80 27.91192
829.90 28.07258
830.00 27.74534
830.10 27.40508
830.20 27.06483
830.30 26.64387
830.40 26.22292
830.50 25.82917
830.60 25.43541
830.70 25.72182
830.80 26.00823
830.90 26.61301
831.00 27.21779
831.10 27.48101
831.20 27.74423
831.30 27.60786
831.40 27.47149
831.50 27.49672
831.60 27.52196
831.70 27.66683
831.80 27.81169
831.90 28.22363
832.00 28.63557
832.10 28.54837
832.20 28.46117
832.30 28.65164
832.40 28.84212
832.50 28.86062
832.60 28.87912
832.70 28.21822
832.80 27.55733
832.90 27.26693
833.00 26.97653
833.10 27.68228
833.20 28.38803
833.30 28.9113
833.40 29.43457
833.50 28.66093
833.60 27.88729
833.70 27.46414
833.80 27.04099
833.90 27.46078
834.00 27.88058
834.10 28.31312
834.20 28.74566
834.30 28.9462
834.40 29.14673
834.50 28.7718
834.60 28.39688
834.70 27.88255
834.80 27.36822
834.90 27.35216
835.00 27.3361
835.10 27.58206
835.20 27.82802
835.30 27.87607
835.40 27.92412
835.50 27.89465
835.60 27.86518
835.70 28.07596
835.80 28.28674
835.90 28.48276
836.00 28.67878
836.10 28.78646
836.20 28.89414
836.30 28.56783
836.40 28.24153
836.50 27.95983
836.60 27.67814
836.70 28.00909
836.80 28.34004
836.90 28.9557
837.00 29.57136
837.10 29.79145
837.20 30.01155
837.30 29.45383
837.40 28.89611
837.50 27.90002
837.60 26.90394
837.70 26.56786
837.80 26.23178
837.90 26.42614
838.00 26.6205
838.10 26.97629
838.20 27.33208
838.30 27.11011
838.40 26.88814
838.50 26.57701
838.60 26.26588
838.70 25.8262
838.80 25.38652
838.90 24.70383
839.00 24.02114
839.10 24.64418
839.20 25.26722
839.30 25.9096
839.40 26.55199
839.50 26.47676
839.60 26.40153
839.70 26.32297
839.80 26.24441
839.90 26.75226
840.00 27.26011
840.10 27.06536
840.20 27.16295
840.30 27.65303
840.40 28.14569
840.50 28.46689
840.60 28.78641
840.70 29.10553
840.80 29.40902
840.90 29.56299
841.00 29.44411
841.10 29.35268
841.20 28.86095
841.30 28.32523
841.40 28.14565
841.50 28.02918
841.60 28.23469
841.70 29.0903
841.80 29.97997
841.90 29.90991
842.00 29.75301
842.10 28.77829
842.20 27.5674
842.30 26.99418
842.40 27.29254
842.50 27.52286
842.60 27.24434
842.70 27.00827
842.80 26.40405
842.90 25.70359
843.00 25.62536
843.10 26.32654
843.20 26.86882
843.30 26.2084
843.40 25.59234
843.50 23.53354
843.60 21.13521
843.70 19.64818
843.80 19.14845
843.90 18.93568
844.00 20.67541
844.10 22.41558
844.20 22.669
844.30 22.59759
844.40 21.6786
844.50 19.93243
844.60 18.45337
844.70 18.22571
844.80 18.02082
844.90 18.81083
845.00 19.72383
845.10 19.9098
845.20 19.45088
845.30 18.74734
845.40 17.24157
845.50 15.79784
845.60 15.49235
845.70 15.27874
845.80 15.30444
845.90 15.54049
846.00 15.77349
846.10 15.97054
846.20 16.1617
846.30 16.65831
846.40 17.18645
846.50 17.00796
846.60 16.32291
846.70 15.71648
846.80 15.44953
846.90 15.28056
847.00 15.52473
847.10 15.63097
847.20 15.48962
847.30 15.31755
847.40 15.35339
847.50 15.78818
847.60 16.20585
847.70 16.73017
847.80 17.21827
847.90 17.23311
848.00 17.07011
848.10 16.99981
848.20 17.0998
848.30 17.20018
848.40 17.38695
848.50 17.55928
848.60 17.87474
848.70 18.25383
848.80 18.44458
848.90 18.29917
849.00 18.1721
849.10 18.56371
849.20 18.97732
849.30 19.25715
849.40 19.48423
849.50 19.41428
849.60 19.01142
849.70 18.63279
849.80 18.19054
849.90 17.70718
850.00 17.90528
850.10 18.32798
850.20 18.68886
850.30 18.84926
850.40 18.88922
850.50 18.60355
850.60 18.42225
850.70 17.92859
850.80 17.29974
850.90 17.04114
851.00 17.18809
851.10 17.43293
851.20 18.021
851.30 18.60329
851.40 18.44065
851.50 18.13868
851.60 17.75696
851.70 17.31918
851.80 16.86915
851.90 16.45524
852.00 16.09371
852.10 16.13943
852.20 16.1911
852.30 16.22701
852.40 16.25767
852.50 16.46222
852.60 17.10089
852.70 17.70964
852.80 18.23397
852.90 18.73764
853.00 18.97158
853.10 19.06984
853.20 19.21674
853.30 19.45957
853.40 19.71033
853.50 19.84403
853.60 19.927
853.70 19.84239
853.80 19.72942
853.90 19.7585
854.00 20.01309
854.10 20.2277
854.20 19.87879
854.30 19.53097
854.40 19.35175
854.50 19.27618
854.60 19.46596
854.70 20.0531
854.80 20.58382
854.90 20.82234
855.00 21.10509
855.10 21.5074
855.20 21.932
855.30 22.28097
855.40 22.54917
855.50 22.80782
855.60 22.80414
855.70 22.74423
855.80 22.60302
855.90 22.52985
856.00 22.14366
856.10 21.33288
856.20 20.60991
856.30 20.61115
856.40 20.61465
856.50 21.03098
856.60 21.53948
856.70 22.03314
856.80 22.49967
856.90 22.8612
857.00 22.78561
857.10 22.69508
857.20 22.24761
857.30 21.77536
857.40 21.58351
857.50 21.62249
857.60 21.72611
857.70 21.9763
857.80 22.19264
857.90 22.76926
858.00 23.37597
858.10 23.32452
858.20 22.84679
858.30 22.51576
858.40 22.56438
858.50 22.57336
858.60 22.54383
858.70 22.56816
858.80 22.80236
858.90 23.1647
859.00 23.40954
859.10 23.3972
859.20 23.3678
859.30 23.28255
859.40 23.2035
859.50 23.36504
859.60 23.63089
859.70 23.86599
859.80 23.99509
859.90 24.09915
860.00 24.13288
860.10 24.20202
860.20 24.47547
860.30 24.85827
860.40 25.07389
860.50 24.91281
860.60 24.67868
860.70 24.81073
860.80 25.05061
860.90 25.22825
861.00 25.39329
861.10 25.19904
861.20 24.50018
861.30 23.82499
861.40 23.32825
861.50 22.83817
861.60 22.78234
861.70 22.84454
861.80 22.69937
861.90 22.27047
862.00 21.92506
862.10 22.19116
862.20 22.48371
862.30 22.8894
862.40 23.31589
862.50 23.17666
862.60 22.55407
862.70 22.14029
862.80 22.64476
862.90 23.16775
863.00 23.06759
863.10 22.84365
863.20 22.64865
863.30 22.46778
863.40 22.46583
863.50 22.9628
863.60 23.42869
863.70 23.23754
863.80 23.03711
863.90 23.07286
864.00 23.25344
864.10 23.47042
864.20 23.80247
864.30 24.09717
864.40 24.42494
864.50 24.78804
864.60 24.5843
864.70 24.09802
864.80 23.74607
864.90 23.78837
865.00 23.89299
865.10 24.25407
865.20 24.51454
865.30 24.62955
865.40 24.72822
865.50 24.9122
865.60 25.19767
865.70 25.46735
865.80 25.4375
865.90 25.41493
866.00 25.17354
866.10 24.87468
866.20 24.39046
866.30 23.64831
866.40 23.01075
866.50 23.39669
866.60 23.74216
866.70 24.51004
866.80 25.42719
866.90 25.89241
867.00 25.87599
867.10 25.82365
867.20 25.38819
867.30 24.87341
867.40 25.13531
867.50 25.57043
867.60 25.77734
867.70 25.76559
867.80 25.86286
867.90 26.37031
868.00 26.82162
868.10 26.7458
868.20 26.56776
868.30 26.1291
868.40 25.59953
868.50 25.35239
868.60 25.74041
868.70 26.02051
868.80 25.39776
868.90 24.80638
869.00 24.13285
869.10 23.39844
869.20 22.67126
869.30 22.05556
869.40 21.44863
869.50 20.78748
869.60 20.18261
869.70 20.24494
869.80 20.53118
869.90 20.78028
870.00 21.03464
870.10 21.33787
870.20 21.69842
870.30 22.02632
870.40 22.4275
870.50 22.8453
870.60 23.3153
870.70 23.86453
870.80 24.3558
870.90 23.91678
871.00 23.46932
871.10 22.73329
871.20 21.93092
871.30 21.5068
871.40 21.48645
871.50 21.43653
871.60 21.63542
871.70 21.90736
871.80 21.75091
871.90 21.4909
872.00 21.53611
872.10 21.87754
872.20 22.17214
872.30 22.26933
872.40 22.35188
872.50 22.38237
872.60 22.43973
872.70 22.95056
872.80 23.75597
872.90 24.53534
873.00 25.30637
873.10 26.1123
873.20 25.75782
873.30 25.31738
873.40 24.88033
873.50 24.45149
873.60 24.1214
873.70 24.00495
873.80 23.84006
873.90 23.79382
874.00 23.82228
874.10 24.34529
874.20 25.08801
874.30 25.7056
874.40 26.04925
874.50 26.40497
874.60 27.00131
874.70 27.59681
874.80 27.10071
874.90 26.2035
875.00 25.36943
875.10 24.64565
875.20 24.0287
875.30 24.96975
875.40 25.87373
875.50 26.47788
875.60 26.96027
875.70 27.06894
875.80 26.78852
875.90 26.67609
876.00 27.26062
876.10 27.76375
876.20 28.19166
876.30 28.64263
876.40 28.43272
876.50 27.55956
876.60 26.789
876.70 26.43732
876.80 26.09533
876.90 26.09528
877.00 26.10525
877.10 26.88195
877.20 28.28205
877.30 29.51475
877.40 30.15367
877.50 30.83592
877.60 31.64852
877.70 32.41832
877.80 32.11102
877.90 31.2197
878.00 30.2689
878.10 29.05229
878.20 27.80986
878.30 28.26714
878.40 28.75904
878.50 29.12907
878.60 29.41871
878.70 29.64021
878.80 29.75201
878.90 29.86311
879.00 30.15167
879.10 30.38147
879.20 30.83054
879.30 31.36554
879.40 31.47455
879.50 30.88729
879.60 30.40272
879.70 30.94233
879.80 31.42673
879.90 31.69142
880.00 31.9179
880.10 31.24586
880.20 29.53223
880.30 27.94061
880.40 27.14975
880.50 26.33811
880.60 26.65819
880.70 27.13526
880.80 27.46863
880.90 27.69351
881.00 27.92464
881.10 28.24731
881.20 28.63248
881.30 30.09285
881.40 31.72315
881.50 32.98053
881.60 33.96723
881.70 34.69321
881.80 34.48367
881.90 34.26541
882.00 34.44161
882.10 34.64886
882.20 33.78299
882.30 32.28284
882.40 30.82165
882.50 29.42313
882.60 28.00418
882.70 27.97154
882.80 27.97566
882.90 28.59558
883.00 29.49343
883.10 30.4556
883.20 31.55756
883.30 32.62097
883.40 33.16037
883.50 33.73289
883.60 33.86281
883.70 33.79691
883.80 33.79891
883.90 33.88974
884.00 34.02654
884.10 34.1645
884.20 34.21233
884.30 34.2152
884.40 34.24054
884.50 33.8294
884.60 32.90473
884.70 31.96323
884.80 31.00358
884.90 30.02106
885.00 29.54429
885.10 29.19848
885.20 29.97621
885.30 31.63255
885.40 33.2086
885.50 34.61837
885.60 36.00753
885.70 35.47539
885.80 34.80185
885.90 33.21333
886.00 30.94534
886.10 28.76716
886.20 26.79062
886.30 24.81369
886.40 24.79135
886.50 24.79162
886.60 25.8635
886.70 27.46239
886.80 28.4476
886.90 28.10152
887.00 27.7719
887.10 26.17853
887.20 24.66764
887.30 23.26771
887.40 21.76324
887.50 21.05426
887.60 21.71094
887.70 22.40127
887.80 23.65666
887.90 24.87326
888.00 25.89022
888.10 26.84787
888.20 27.36363
888.30 27.37367
888.40 27.26024
888.50 26.0525
888.60 24.89065
888.70 24.70694
888.80 24.72995
888.90 25.24039
889.00 26.24878
889.10 27.18678
889.20 27.47027
889.30 27.70299
889.40 27.62075
889.50 27.50449
889.60 26.88502
889.70 25.90532
889.80 25.15395
889.90 24.96151
890.00 24.7264
890.10 25.96327
890.20 27.23138
890.30 28.03736
890.40 28.59989
890.50 29.25635
890.60 30.07687
890.70 30.85827
890.80 30.83218
890.90 30.7813
891.00 30.29698
891.10 29.61932
891.20 29.02656
891.30 28.47275
891.40 27.91135
891.50 28.60579
891.60 29.22089
891.70 29.58336
891.80 29.96736
891.90 30.28754
892.00 30.42985
892.10 30.52215
892.20 30.5312
892.30 30.58233
892.40 30.09072
892.50 29.49229
892.60 29.13174
892.70 29.00759
892.80 28.95777
892.90 29.24965
893.00 29.48174
893.10 30.0176
893.20 30.55178
893.30 31.26458
893.40 32.14071
893.50 32.87952
893.60 33.19096
893.70 33.52565
893.80 32.35018
893.90 31.11163
894.00 29.84958
894.10 28.47421
894.20 27.56766
894.30 27.82429
894.40 28.04537
894.50 27.6236
894.60 27.23274
894.70 27.44355
894.80 27.84795
894.90 28.39762
895.00 29.25658
895.10 30.10452
895.20 30.06096
895.30 30.05142
895.40 29.57648
895.50 28.87832
895.60 28.83048
895.70 29.71012
895.80 30.52841
895.90 30.72892
896.00 30.95025
896.10 30.84888
896.20 30.71638
896.30 30.60452
896.40 30.45651
896.50 30.30274
896.60 30.44752
896.70 30.65068
896.80 30.44315
896.90 30.17728
897.00 30.22642
897.10 30.44506
897.20 30.61669
897.30 30.79067
897.40 31.02949
897.50 31.33427
897.60 31.58699
897.70 32.10831
897.80 32.83525
897.90 33.22384
898.00 32.80614
898.10 32.49627
898.20 32.03276
898.30 31.51515
898.40 31.88914
898.50 32.62378
898.60 33.36239
898.70 34.03988
898.80 34.66265
898.90 34.79811
899.00 35.023
899.10 34.71408
899.20 34.18044
899.30 33.79008
899.40 33.55266
899.50 33.30859
899.60 33.02306
899.70 32.67758
899.80 32.26173
899.90 31.87078
900.00 31.31276
900.10 30.52563
900.20 30.09875
900.30 31.76623
900.40 33.37761
900.50 34.42593
900.60 35.35504
900.70 35.94793
900.80 36.30594
900.90 36.37865
901.00 35.55702
901.10 34.84092
901.20 34.62217
901.30 34.34198
901.40 34.39512
901.50 34.76663
901.60 35.05154
901.70 35.04916
901.80 35.0324
901.90 34.31381
902.00 33.57424
902.10 32.76103
902.20 31.91702
902.30 31.2223
902.40 30.80748
902.50 30.41391
902.60 30.02664
902.70 29.59711
902.80 29.38887
902.90 29.25588
903.00 29.58665
903.10 30.55059
903.20 31.42759
903.30 31.75044
903.40 32.09452
903.50 32.93361
903.60 33.92948
903.70 34.60381
903.80 34.89205
903.90 35.20417
904.00 35.76319
904.10 36.29236
904.20 35.84842
904.30 35.31336
904.40 34.88144
904.50 34.52503
904.60 34.39458
904.70 35.06751
904.80 35.69381
904.90 36.12107
905.00 36.51911
905.10 36.46431
905.20 36.25548
905.30 35.9214
905.40 35.2755
905.50 34.61394
905.60 34.27098
905.70 33.9691
905.80 33.69802
905.90 33.4042
906.00 33.11879
906.10 32.84542
906.20 32.60361
906.30 33.19678
906.40 33.74026
906.50 33.95424
906.60 34.21215
906.70 34.31357
906.80 34.133
906.90 33.87773
907.00 33.30762
907.10 32.77125
907.20 32.99682
907.30 33.32347
907.40 33.56825
907.50 33.79637
907.60 34.04504
907.70 34.29254
907.80 34.6008
907.90 35.32244
908.00 35.9733
908.10 36.51812
908.20 37.10953
908.30 37.35602
908.40 36.50608
908.50 35.70102
908.60 35.76591
908.70 35.78555
908.80 35.6987
908.90 35.61424
909.00 35.58322
909.10 35.57583
909.20 35.52067
909.30 35.86415
909.40 36.16152
909.50 36.38849
909.60 36.5918
909.70 36.81438
909.80 37.10589
909.90 37.4403
910.00 37.87044
910.10 38.22748
910.20 38.14172
910.30 37.97294
910.40 37.8738
910.50 37.87281
910.60 37.83672
910.70 37.41318
910.80 36.92387
910.90 36.81753
911.00 36.72181
911.10 36.84347
911.20 37.15574
911.30 37.51842
911.40 38.13631
911.50 38.73279
911.60 38.70523
911.70 38.71005
911.80 38.65294
911.90 38.47099
912.00 38.31481
912.10 38.27583
912.20 38.20789
912.30 38.21205
912.40 38.28196
912.50 38.23311
912.60 38.1188
912.70 38.17733
912.80 38.56778
912.90 38.93668
913.00 39.21715
913.10 39.53509
913.20 39.67286
913.30 39.67176
913.40 39.75251
913.50 40.02499
913.60 40.28007
913.70 39.92727
913.80 39.56234
913.90 38.85943
914.00 38.06285
914.10 37.23701
914.20 36.40274
914.30 35.85374
914.40 36.46261
914.50 37.042
914.60 37.89884
914.70 38.766
914.80 38.99454
914.90 38.81713
915.00 38.53299
915.10 37.93956
915.20 37.38954
915.30 37.68908
915.40 37.93071
915.50 38.79458
915.60 40.0215
915.70 41.15536
915.80 42.05486
915.90 42.89235
916.00 42.15533
916.10 41.47927
916.20 40.8658
916.30 40.33541
916.40 39.93741
916.50 39.62493
916.60 39.34195
916.70 40.06943
916.80 40.79413
916.90 40.97745
917.00 40.98418
917.10 41.01295
917.20 41.16528
917.30 41.28532
917.40 40.91902
917.50 40.55567
917.60 40.2357
917.70 39.87386
917.80 39.87371
917.90 40.20535
918.00 40.48773
918.10 40.54114
918.20 40.55992
918.30 40.61321
918.40 40.68906
918.50 40.38403
918.60 39.8767
918.70 39.57944
918.80 39.75233
918.90 40.00063
919.00 41.52301
919.10 42.88488
919.20 43.10279
919.30 43.00345
919.40 42.50488
919.50 41.40373
919.60 40.45548
919.70 40.86309
919.80 41.15291
919.90 41.81603
920.00 42.55291
920.10 42.77783
920.20 42.45493
920.30 42.27363
920.40 42.73215
920.50 43.11316
920.60 42.80252
920.70 42.33555
920.80 41.48435
920.90 40.39951
921.00 39.38626
921.10 38.3881
921.20 37.29405
921.30 37.41976
921.40 37.75751
921.50 38.33827
921.60 39.09841
921.70 39.83509
921.80 40.5909
921.90 41.32023
922.00 40.68837
922.10 39.98087
922.20 39.7082
922.30 39.702
922.40 39.53189
922.50 38.99478
922.60 38.46581
922.70 38.75184
922.80 38.98826
922.90 39.46779
923.00 40.09594
923.10 40.07698
923.20 39.16479
923.30 38.2788
923.40 37.46302
923.50 36.52599
923.60 36.45799
923.70 36.63515
923.80 36.75705
923.90 36.83425
924.00 36.87559
924.10 36.69329
924.20 36.52034
924.30 38.0423
924.40 39.76562
924.50 40.37712
924.60 40.18602
924.70 39.7411
924.80 38.57894
924.90 37.50416
925.00 36.98512
925.10 36.41128
925.20 36.13765
925.30 36.09273
925.40 36.13399
925.50 36.31447
925.60 36.47912
925.70 37.82182
925.80 39.12072
925.90 39.98097
926.00 40.78824
926.10 41.11121
926.20 40.69406
926.30 40.2441
926.40 39.60743
926.50 38.97715
926.60 39.22535
926.70 39.5963
926.80 40.00864
926.90 40.58284
927.00 41.07378
927.10 40.97821
927.20 40.90132
927.30 40.53736
927.40 40.15061
927.50 39.53029
927.60 38.69572
927.70 37.93567
927.80 37.53126
927.90 37.16328
928.00 36.70556
928.10 36.1566
928.20 36.25192
928.30 36.76859
928.40 37.31088
928.50 37.9104
928.60 38.49165
928.70 38.41567
928.80 38.44115
928.90 38.23638
929.00 37.84315
929.10 37.49759
929.20 37.27462
929.30 37.09946
929.40 37.29865
929.50 37.47976
929.60 37.7426
929.70 37.96956
929.80 37.88319
929.90 37.52215
930.00 37.08525
930.10 36.1828
930.20 35.401
930.30 35.44299
930.40 35.49544
930.50 35.75587
930.60 36.25287
930.70 36.52447
930.80 36.04298
930.90 35.58839
931.00 35.58868
931.10 35.60806
931.20 36.34539
931.30 37.55727
931.40 38.62159
931.50 39.38978
931.60 40.13726
931.70 39.18664
931.80 38.17559
931.90 37.31302
932.00 37.29174
932.10 37.65111
932.20 38.04655
932.30 38.36141
932.40 38.66226
932.50 38.83967
932.60 38.51789
932.70 38.15257
932.80 37.90549
932.90 37.79272
933.00 37.69247
933.10 38.02791
933.20 38.51214
933.30 38.96852
933.40 38.88643
933.50 38.79766
933.60 38.77467
933.70 38.80686
933.80 38.82274
933.90 38.86281
934.00 38.96523
934.10 39.1179
934.20 39.10438
934.30 39.06826
934.40 38.98938
934.50 38.95839
934.60 39.01558
934.70 39.08574
934.80 39.07223
934.90 39.03404
935.00 38.72037
935.10 38.37525
935.20 38.03674
935.30 37.98661
935.40 37.9188
935.50 37.92782
935.60 38.11079
935.70 38.28876
935.80 38.38224
935.90 38.33303
936.00 38.2866
936.10 38.8069
936.20 39.41334
936.30 39.91341
936.40 39.86688
936.50 39.859
936.60 39.80889
936.70 39.64479
936.80 39.46984
936.90 39.32325
937.00 39.24921
937.10 39.17613
937.20 38.63657
937.30 38.07789
937.40 37.72005
937.50 37.93928
937.60 38.15215
937.70 38.27213
937.80 38.3063
937.90 38.33461
938.00 38.47794
938.10 38.63469
938.20 38.71864
938.30 38.33145
938.40 37.94835
938.50 37.81896
938.60 38.07021
938.70 38.31615
938.80 38.45661
938.90 38.52537
939.00 38.5944
939.10 38.87484
939.20 39.17325
939.30 39.40011
939.40 39.44676
939.50 39.49052
939.60 39.20424
939.70 38.70853
939.80 38.21102
939.90 37.90764
940.00 37.57304
940.10 37.32318
940.20 37.67503
940.30 38.04825
940.40 38.26412
940.50 38.19765
940.60 38.11947
940.70 38.45607
940.80 38.98079
940.90 39.50888
941.00 39.91972
941.10 40.35839
941.20 40.5662
941.30 40.13453
941.40 39.70098
941.50 39.15772
941.60 38.54624
941.70 37.94483
941.80 38.04034
941.90 38.26441
942.00 38.47824
942.10 38.51928
942.20 38.51281
942.30 38.51443
942.40 38.5788
942.50 38.65239
942.60 38.78047
942.70 38.97071
942.80 39.16044
942.90 39.178
943.00 39.09644
943.10 39.2228
943.20 40.02492
943.30 40.84429
943.40 41.2867
943.50 41.45672
943.60 41.6268
943.70 41.52167
943.80 41.36047
943.90 41.17043
944.00 40.80005
944.10 40.45538
944.20 40.21668
944.30 40.08486
944.40 39.94457
944.50 39.55447
944.60 39.00078
944.70 38.44922
944.80 38.5334
944.90 38.6686
945.00 38.82758
945.10 39.02207
945.20 39.21405
945.30 39.37003
945.40 39.57424
945.50 39.7826
945.60 39.97031
945.70 40.10023
945.80 40.16832
945.90 39.73505
946.00 39.33432
946.10 39.15943
946.20 39.28378
946.30 39.38833
946.40 39.9872
946.50 40.89106
946.60 41.78415
946.70 41.63462
946.80 41.44479
946.90 41.32499
947.00 41.38737
947.10 41.44262
947.20 41.45358
947.30 41.46842
947.40 41.48023
947.50 41.57476
947.60 41.65642
947.70 41.73829
947.80 41.85108
947.90 42.00141
948.00 42.2264
948.10 42.49875
948.20 42.75571
948.30 42.7462
948.40 42.58745
948.50 42.42932
948.60 42.67633
948.70 43.00383
948.80 43.24749
948.90 43.17189
949.00 43.08814
949.10 43.22599
949.20 43.56763
949.30 43.89949
949.40 43.59742
949.50 43.20679
949.60 42.79992
949.70 42.26436
949.80 41.70905
949.90 41.54351
950.00 41.96073
950.10 42.3794
950.20 42.74181
950.30 43.05476
950.40 43.36109
950.50 42.84606
950.60 42.35374
950.70 41.98041
950.80 41.94175
950.90 41.89176
951.00 42.02617
951.10 42.33402
951.20 42.63914
951.30 42.67409
951.40 42.66244
951.50 42.63248
951.60 42.48944
951.70 42.35545
951.80 42.20686
951.90 42.04079
952.00 41.87722
952.10 41.88567
952.20 41.90802
952.30 41.93288
952.40 42.43943
952.50 42.93269
952.60 43.40108
952.70 43.82647
952.80 44.25501
952.90 44.37602
953.00 44.31039
953.10 44.25606
953.20 44.11484
953.30 43.93874
953.40 43.74249
953.50 43.46357
953.60 43.21996
953.70 42.96799
953.80 42.61405
953.90 42.23517
954.00 42.29027
954.10 42.61246
954.20 42.94113
954.30 43.01792
954.40 43.06222
954.50 42.96604
954.60 42.45465
954.70 41.90975
954.80 41.65272
954.90 41.65455
955.00 41.67817
955.10 42.08801
955.20 42.57578
955.30 43.01856
955.40 43.16655
955.50 43.2965
955.60 43.49222
955.70 43.73032
955.80 43.95642
955.90 44.18014
956.00 44.44411
956.10 44.70574
956.20 44.67936
956.30 44.71265
956.40 44.60935
956.50 44.1127
956.60 43.60779
956.70 43.67107
956.80 44.09966
956.90 44.524
957.00 44.40045
957.10 44.20272
957.20 44.03932
957.30 44.10801
957.40 44.2012
957.50 44.04279
957.60 43.57338
957.70 43.11809
957.80 42.81356
957.90 42.5644
958.00 42.33998
958.10 42.83839
958.20 43.28012
958.30 43.58691
958.40 43.60018
958.50 43.60452
958.60 43.55639
958.70 43.5353
958.80 43.51228
958.90 43.01431
959.00 42.51852
959.10 42.10493
959.20 41.97057
959.30 41.77114
959.40 41.82496
959.50 42.16667
959.60 42.49183
959.70 41.7557
959.80 40.80303
959.90 39.84643
960.00 38.9317
960.10 38.02557
960.20 37.66925
960.30 38.30454
960.40 38.92386
960.50 39.96761
960.60 41.27215
960.70 42.56198
960.80 43.03679
960.90 43.46791
961.00 43.76518
961.10 43.57856
961.20 43.39149
961.30 43.11955
961.40 42.77088
961.50 42.43579
961.60 42.13929
961.70 41.84443
961.80 41.64165
961.90 42.36145
962.00 43.00149
962.10 43.492
962.20 43.78674
962.30 44.10225
962.40 44.00005
962.50 43.7399
962.60 43.49193
962.70 43.76672
962.80 44.03026
962.90 44.21052
963.00 44.11014
963.10 44.00344
963.20 43.74449
963.30 43.44348
963.40 43.14701
963.50 42.59857
963.60 41.96634
963.70 41.12544
963.80 38.74975
963.90 36.44557
964.00 34.88853
964.10 34.3202
964.20 33.75593
964.30 35.18298
964.40 37.41008
964.50 39.62909
964.60 39.84934
964.70 40.06381
964.80 40.10171
964.90 39.69799
965.00 39.32362
965.10 39.36172
965.20 39.72831
965.30 40.1048
965.40 40.65805
965.50 41.2458
965.60 41.79254
965.70 42.05926
965.80 42.28273
965.90 42.53213
966.00 42.82716
966.10 43.12831
966.20 43.49975
966.30 43.93022
966.40 44.35471
966.50 44.39086
966.60 44.45652
966.70 44.37291
966.80 43.9166
966.90 43.44704
967.00 43.37552
967.10 43.56421
967.20 43.75053
967.30 43.24524
967.40 42.65337
967.50 41.84632
967.60 40.1568
967.70 38.55049
967.80 37.87086
967.90 38.11716
968.00 38.37449
968.10 39.76912
968.20 41.39893
968.30 42.9281
968.40 42.92925
968.50 43.02973
968.60 42.99056
968.70 42.70757
968.80 42.42671
968.90 41.83624
969.00 41.00915
969.10 40.19552
969.20 40.73909
969.30 41.34593
969.40 42.06859
969.50 43.18093
969.60 44.28103
969.70 44.91366
969.80 45.15751
969.90 45.39891
970.00 45.51904
970.10 45.5632
970.20 45.55857
970.30 45.18938
970.40 44.83584
970.50 43.90156
970.60 42.11885
970.70 40.38305
970.80 39.72024
970.90 39.45661
971.00 39.22875
971.10 41.04132
971.20 42.79517
971.30 44.30673
971.40 45.15872
971.50 46.01432
971.60 46.45659
971.70 46.64798
971.80 46.83418
971.90 46.42705
972.00 45.96242
972.10 45.49843
972.20 45.04217
972.30 44.60669
972.40 44.474
972.50 44.69778
972.60 44.89194
972.70 44.37507
972.80 43.63779
972.90 42.86583
973.00 41.34409
973.10 39.90951
973.20 39.24713
973.30 40.20031
973.40 41.10297
973.50 41.96579
973.60 42.80791
973.70 43.64225
973.80 43.58434
973.90 43.45268
974.00 43.32625
974.10 43.24193
974.20 43.15515
974.30 42.59438
974.40 41.58234
974.50 40.58794
974.60 40.14052
974.70 39.75231
974.80 39.48862
974.90 40.67466
975.00 41.84456
975.10 42.72016
975.20 43.07906
975.30 43.43571
975.40 43.77148
975.50 44.03507
975.60 44.29699
975.70 44.15482
975.80 44.05172
975.90 44.09632
976.00 44.61105
976.10 45.12396
976.20 45.20962
976.30 44.96176
976.40 44.72456
976.50 45.01416
976.60 45.31461
976.70 45.56118
976.80 45.43831
976.90 45.31633
977.00 44.71691
977.10 43.56973
977.20 42.47607
977.30 42.14691
977.40 41.97688
977.50 41.83027
977.60 42.93764
977.70 43.99452
977.80 44.80847
977.90 45.11446
978.00 45.43761
978.10 45.09028
978.20 44.29616
978.30 43.48363
978.40 41.55346
978.50 39.56007
978.60 37.95582
978.70 38.02184
978.80 38.05472
978.90 38.35072
979.00 38.93625
979.10 39.53433
979.20 40.9165
979.30 42.42578
979.40 43.89877
979.50 44.86649
979.60 45.88083
979.70 46.40837
979.80 46.06446
979.90 45.71434
980.00 45.69886
980.10 45.88022
980.20 46.06398
980.30 46.09585
980.40 46.1173
980.50 46.11297
980.60 46.04693
980.70 45.99494
980.80 45.94482
980.90 45.87174
981.00 45.79995
981.10 46.02416
981.20 46.25595
981.30 46.42358
981.40 46.21389
981.50 46.08727
981.60 45.78489
981.70 45.20848
981.80 44.63625
981.90 44.80132
982.00 45.14196
982.10 45.4752
982.20 45.30964
982.30 45.20188
982.40 45.14265
982.50 45.19306
982.60 45.24349
982.70 45.4346
982.80 45.6976
982.90 45.95186
983.00 45.69202
983.10 45.41519
983.20 45.1802
983.30 45.09578
983.40 44.98224
983.50 44.80196
983.60 44.58841
983.70 44.38677
983.80 44.17718
983.90 43.91372
984.00 43.71101
984.10 44.13594
984.20 44.56219
984.30 44.87799
984.40 45.0489
984.50 45.23219
984.60 45.42276
984.70 45.52815
984.80 45.63563
984.90 45.68675
985.00 45.78035
985.10 45.71137
985.20 45.20276
985.30 44.70852
985.40 44.56371
985.50 44.6414
985.60 44.72227
985.70 45.1192
985.80 45.57937
985.90 45.95202
986.00 45.82907
986.10 45.70712
986.20 45.61728
986.30 45.57236
986.40 45.53382
986.50 45.78082
986.60 46.085
986.70 46.358
986.80 45.82251
986.90 45.35711
987.00 44.93025
987.10 44.57301
987.20 44.23051
987.30 44.68648
987.40 45.48643
987.50 46.27257
987.60 46.56567
987.70 46.85211
987.80 46.93689
987.90 46.39458
988.00 45.91993
988.10 45.57159
988.20 45.27442
988.30 44.97765
988.40 45.3819
988.50 45.85034
988.60 46.29018
988.70 46.51576
988.80 46.78814
988.90 46.86423
989.00 46.68286
989.10 46.51428
989.20 46.2606
989.30 45.95839
989.40 45.64793
989.50 44.67102
989.60 43.69101
989.70 42.27135
989.80 39.82857
989.90 37.44013
990.00 36.13191
990.10 35.47447
990.20 34.81874
990.30 34.10891
990.40 33.39064
990.50 32.51647
990.60 31.01692
990.70 29.58632
990.80 28.54718
990.90 27.81894
991.00 27.08254
991.10 27.26969
991.20 27.66847
991.30 28.00052
991.40 27.52174
991.50 27.1109
991.60 26.69981
991.70 26.25517
991.80 25.82482
991.90 26.43327
992.00 27.41692
992.10 28.40138
992.20 28.6921
992.30 29.0069
992.40 28.96569
992.50 27.97071
992.60 27.02319
992.70 27.03838
992.80 27.70318
992.90 28.37852
993.00 29.60916
993.10 30.85478
993.20 31.90127
993.30 31.93753
993.40 32.02963
993.50 31.94977
993.60 31.66717
993.70 31.43175
993.80 32.46241
993.90 33.70386
994.00 34.93656
994.10 35.86347
994.20 36.83707
994.30 37.32918
994.40 36.94575
994.50 36.58227
994.60 36.36758
994.70 36.21776
994.80 36.08193
994.90 36.7291
995.00 37.39514
995.10 38.03254
995.20 38.55881
995.30 39.0646
995.40 39.50319
995.50 39.90288
995.60 40.28272
995.70 39.38723
995.80 38.36558
995.90 37.44377
996.00 37.14326
996.10 36.81803
996.20 36.8708
996.30 37.3515
996.40 37.83118
996.50 38.95289
996.60 40.2234
996.70 41.44776
996.80 41.03733
996.90 40.72849
997.00 39.75798
997.10 37.46171
997.20 35.23039
997.30 33.89374
997.40 32.98964
997.50 32.1162
997.60 32.848
997.70 33.61175
997.80 34.41582
997.90 35.35459
998.00 36.28208
998.10 37.10081
998.20 37.84705
998.30 38.57417
998.40 37.78802
998.50 36.76451
998.60 35.79195
998.70 35.20706
998.80 34.58993
998.90 34.32874
999.00 34.59666
999.10 34.86682
999.20 34.89398
999.30 34.82397
999.40 34.77377
999.50 35.3572
999.60 35.85441
999.70 36.06557
999.80 35.72096
999.90 35.45324
1000.00 35.99237
1000.10 36.87255
1000.20 37.74704
1000.30 38.77556
1000.40 39.81671
1000.50 40.64952
1000.60 40.72139
1000.70 40.79224
1000.80 40.31412
1000.90 39.40293
1001.00 38.5117
1001.10 37.49625
1001.20 36.49155
1001.30 35.69912
1001.40 36.56553
1001.50 37.32906
1001.60 38.22637
1001.70 39.31867
1001.80 40.39747
1001.90 40.62685
1002.00 40.60974
1002.10 40.56416
1002.20 39.94753
1002.30 39.38622
1002.40 39.22977
1002.50 39.92244
1002.60 40.54763
1002.70 40.87205
1002.80 41.12972
1002.90 41.38649
1003.00 40.84336
1003.10 40.17921
1003.20 39.58704
1003.30 39.29137
1003.40 39.0025
1003.50 38.56452
1003.60 37.99144
1003.70 37.42523
1003.80 37.07868
1003.90 36.76343
1004.00 36.62105
1004.10 37.84875
1004.20 39.0214
1004.30 40.19687
1004.40 41.38205
1004.50 42.5377
1004.60 42.71905
1004.70 42.57035
1004.80 42.40121
1004.90 41.39274
1005.00 40.45067
1005.10 39.26778
1005.20 37.56125
1005.30 35.88619
1005.40 34.60759
1005.50 33.52137
1005.60 32.4611
1005.70 32.59523
1005.80 32.7526
1005.90 33.06397
1006.00 33.95396
1006.10 34.82499
1006.20 35.28741
1006.30 35.43669
1006.40 35.58441
1006.50 35.73302
1006.60 35.89105
1006.70 36.17998
1006.80 37.47089
1006.90 38.669
1007.00 39.51845
1007.10 39.97954
1007.20 40.4497
1007.30 40.19782
1007.40 39.64297
1007.50 39.11012
1007.60 39.78398
1007.70 40.37782
1007.80 40.96828
1007.90 41.59557
1008.00 42.22546
1008.10 42.48225
1008.20 42.49964
1008.30 42.52046
1008.40 42.47882
1008.50 42.44548
1008.60 42.47043
1008.70 42.74325
1008.80 42.98373
1008.90 42.55444
1009.00 41.55899
1009.10 40.59169
1009.20 39.9324
1009.30 39.30731
1009.40 38.84334
1009.50 39.63215
1009.60 40.35093
1009.70 41.14206
1009.80 42.00522
1009.90 42.8577
1010.00 43.766
1010.10 44.68054
1010.20 45.58886
1010.30 46.24163
1010.40 46.95385
1010.50 47.26078
1010.60 46.68301
1010.70 46.1334
1010.80 45.48106
1010.90 44.7297
1011.00 43.9665
1011.10 42.89931
1011.20 41.8765
1011.30 40.9802
1011.40 40.52632
1011.50 40.0347
1011.60 39.62705
1011.70 39.3271
1011.80 39.03308
1011.90 38.87095
1012.00 38.73041
1012.10 38.81054
1012.20 40.64662
1012.30 42.36031
1012.40 43.68443
1012.50 44.48928
1012.60 45.28441
1012.70 45.1166
1012.80 44.74227
1012.90 44.36996
1013.00 44.63931
1013.10 44.8422
1013.20 44.87167
1013.30 44.51813
1013.40 44.12392
1013.50 42.87283
1013.60 41.24817
1013.70 39.64716
1013.80 38.58481
1013.90 37.48739
1014.00 36.78525
1014.10 37.51948
1014.20 38.20585
1014.30 39.15447
1014.40 40.35835
1014.50 41.53093
1014.60 41.36458
1014.70 41.00503
1014.80 40.62262
1014.90 40.06322
1015.00 39.53253
1015.10 39.96811
1015.20 41.71864
1015.30 43.39753
1015.40 43.85083
1015.50 43.98096
1015.60 44.07293
1015.70 42.43907
1015.80 40.9006
1015.90 39.74966
1016.00 39.40917
1016.10 39.04849
1016.20 39.36941
1016.30 40.09156
1016.40 40.80403
1016.50 40.89384
1016.60 40.95381
1016.70 41.1444
1016.80 41.82092
1016.90 42.42545
1017.00 42.34113
1017.10 41.72894
1017.20 41.15595
1017.30 41.12228
1017.40 41.11761
1017.50 41.31054
1017.60 43.01598
1017.70 44.56816
1017.80 45.10998
1017.90 44.39367
1018.00 43.75096
1018.10 42.83329
1018.20 41.69285
1018.30 40.56464
1018.40 40.16999
1018.50 39.79497
1018.60 39.45641
1018.70 39.14224
1018.80 38.84463
1018.90 39.48371
1019.00 40.40651
1019.10 41.33012
1019.20 41.9106
1019.30 42.48895
1019.40 42.78677
1019.50 42.50009
1019.60 42.26837
1019.70 42.25828
1019.80 42.35266
1019.90 42.43065
1020.00 42.19206
1020.10 41.96393
1020.20 41.82492
1020.30 42.01234
1020.40 42.177
1020.50 42.45386
1020.60 42.84216
1020.70 43.23816
1020.80 43.47484
1020.90 43.67679
1021.00 43.81691
1021.10 43.5846
1021.20 43.41611
1021.30 42.88598
1021.40 41.83604
1021.50 40.79631
1021.60 40.08282
1021.70 39.45688
1021.80 38.82733
1021.90 38.32649
1022.00 37.81047
1022.10 37.45264
1022.20 37.41356
1022.30 37.41949
1022.40 38.36828
1022.50 39.8276
1022.60 41.26282
1022.70 41.60497
1022.80 41.88143
1022.90 42.04527
1023.00 41.83245
1023.10 41.62264
1023.20 41.1874
1023.30 40.55623
1023.40 39.96675
1023.50 40.51758
1023.60 41.21656
1023.70 41.92147
1023.80 42.6445
1023.90 43.41488
1024.00 43.94647
1024.10 44.0821
1024.20 44.20126
1024.30 44.57987
1024.40 45.11298
1024.50 45.61271
1024.60 44.50458
1024.70 43.47966
1024.80 42.71339
1024.90 42.50534
1025.00 42.27627
1025.10 41.75084
1025.20 41.09039
1025.30 40.425
1025.40 40.0261
1025.50 39.63351
1025.60 39.50727
1025.70 40.39099
1025.80 41.19131
1025.90 40.90986
1026.00 39.73338
1026.10 38.57979
1026.20 37.56346
1026.30 36.52071
1026.40 35.65918
1026.50 36.17238
1026.60 36.69563
1026.70 37.78
1026.80 39.58661
1026.90 41.32878
1027.00 42.16157
1027.10 42.89235
1027.20 43.44413
1027.30 42.81999
1027.40 42.28536
1027.50 41.68023
1027.60 40.99581
1027.70 40.35077
1027.80 40.21963
1027.90 40.18871
1028.00 40.14308
1028.10 39.52394
1028.20 38.94327
1028.30 38.30435
1028.40 37.55029
1028.50 36.86363
1028.60 37.33305
1028.70 38.36012
1028.80 39.36688
1028.90 40.84996
1029.00 42.41318
1029.10 43.4921
1029.20 42.80114
1029.30 42.20823
1029.40 41.75651
1029.50 41.36147
1029.60 40.977
1029.70 41.11561
1029.80 41.42427
1029.90 41.66609
1030.00 41.35558
1030.10 41.00497
1030.20 40.70456
1030.30 40.467
1030.40 40.26758
1030.50 40.9878
1030.60 41.98681
1030.70 43.00259
1030.80 43.13081
1030.90 43.2714
1031.00 43.16521
1031.10 42.50965
1031.20 41.91215
1031.30 42.05671
1031.40 42.57212
1031.50 43.06811
1031.60 42.91874
1031.70 42.75691
1031.80 42.44381
1031.90 41.55688
1032.00 40.72005
1032.10 40.48163
1032.20 40.75546
1032.30 41.00322
1032.40 40.57676
1032.50 40.10106
1032.60 39.74643
1032.70 40.32977
1032.80 40.85914
1032.90 41.77085
1033.00 43.2287
1033.10 44.66155
1033.20 45.47924
1033.30 46.20091
1033.40 46.68903
1033.50 45.61232
1033.60 44.67874
1033.70 43.46801
1033.80 41.82558
1033.90 40.20817
1034.00 39.57666
1034.10 39.21465
1034.20 38.86321
1034.30 38.57888
1034.40 38.31189
1034.50 38.02033
1034.60 37.66425
1034.70 37.36978
1034.80 38.05396
1034.90 39.25948
1035.00 40.40621
1035.10 40.30648
1035.20 40.24164
1035.30 40.26428
1035.40 40.58122
1035.50 40.84651
1035.60 41.15059
1035.70 41.51148
1035.80 41.88972
1035.90 42.45535
1036.00 43.00955
1036.10 43.59025
1036.20 44.43056
1036.30 45.27867
1036.40 45.74441
1036.50 45.68015
1036.60 45.6177
1036.70 45.62573
1036.80 45.66599
1036.90 45.72224
1037.00 46.26382
1037.10 46.76936
1037.20 47.29856
1037.30 47.88992
1037.40 48.44885
1037.50 48.40718
1037.60 48.07767
1037.70 47.71522
1037.80 46.17798
1037.90 44.60706
1038.00 43.09232
1038.10 41.77986
1038.20 40.52015
1038.30 40.38345
1038.40 40.8182
1038.50 41.26193
1038.60 42.3971
1038.70 43.51276
1038.80 44.34747
1038.90 44.21377
1039.00 44.14571
1039.10 43.92774
1039.20 43.55748
1039.30 43.19177
1039.40 42.81457
1039.50 42.43298
1039.60 42.03337
1039.70 41.4976
1039.80 40.97308
1039.90 40.84708
1040.00 41.29622
1040.10 41.7834
1040.20 42.71182
1040.30 43.72462
1040.40 44.71114
1040.50 45.18812
1040.60 45.72913
1040.70 46.16582
1040.80 46.36039
1040.90 46.52444
1041.00 46.34764
1041.10 46.0614
1041.20 45.74848
1041.30 44.61047
1041.40 43.46228
1041.50 42.59899
1041.60 42.72022
1041.70 42.83615
1041.80 43.74864
1041.90 45.32948
1042.00 46.83688
1042.10 47.0003
1042.20 47.05992
1042.30 46.97604
1042.40 45.8655
1042.50 44.74342
1042.60 43.46082
1042.70 42.06594
1042.80 40.70447
1042.90 40.10323
1043.00 39.58467
1043.10 39.37878
1043.20 41.34966
1043.30 43.16424
1043.40 44.72544
1043.50 45.97024
1043.60 47.16707
1043.70 47.28293
1043.80 47.11724
1043.90 46.9654
1044.00 47.01125
1044.10 47.01738
1044.20 47.02896
1044.30 47.06181
1044.40 47.08849
1044.50 46.9299
1044.60 46.65931
1044.70 46.39005
1044.80 46.59529
1044.90 46.87599
1045.00 47.32687
1045.10 48.29563
1045.20 49.21139
1045.30 49.94547
1045.40 50.52979
1045.50 51.07371
1045.60 51.25969
1045.70 51.42268
1045.80 51.42996
1045.90 50.35922
1046.00 49.35091
1046.10 48.3399
1046.20 47.35654
1046.30 46.43114
1046.40 45.99815
1046.50 45.62389
1046.60 45.21972
1046.70 44.50653
1046.80 43.76416
1046.90 43.04102
1047.00 42.37963
1047.10 41.77648
1047.20 41.77594
1047.30 41.9072
1047.40 42.03823
1047.50 42.39642
1047.60 42.75533
1047.70 43.05618
1047.80 43.26369
1047.90 43.47576
1048.00 43.53861
1048.10 43.51823
1048.20 43.53538
1048.30 44.36202
1048.40 45.14013
1048.50 45.84109
1048.60 46.30272
1048.70 46.78232
1048.80 47.03073
1048.90 47.08854
1049.00 47.16888
1049.10 47.27165
1049.20 47.32655
1049.30 47.36533
1049.40 47.2737
1049.50 47.15731
1049.60 46.41186
1049.70 44.85537
1049.80 43.34495
1049.90 43.01714
1050.00 43.0021
1050.10 43.03227
1050.20 44.13716
1050.30 45.2093
1050.40 45.82778
1050.50 45.81416
1050.60 45.79542
1050.70 45.66096
1050.80 45.49139
1050.90 45.32869
1051.00 45.39031
1051.10 45.43846
1051.20 45.11541
1051.30 43.98854
1051.40 42.9135
1051.50 42.30394
1051.60 41.89624
1051.70 41.49768
1051.80 41.81773
1051.90 42.21837
1052.00 42.5216
1052.10 42.46069
1052.20 42.42585
1052.30 42.55578
1052.40 42.78315
1052.50 43.01372
1052.60 44.00663
1052.70 45.12656
1052.80 46.17764
1052.90 46.72313
1053.00 47.29414
1053.10 47.35752
1053.20 46.71695
1053.30 46.11897
1053.40 46.18386
1053.50 46.38089
1053.60 46.59001
1053.70 46.67373
1053.80 46.77837
1053.90 46.6132
1054.00 46.09664
1054.10 45.62898
1054.20 45.85399
1054.30 46.21853
1054.40 46.56489
1054.50 46.33998
1054.60 46.23187
1054.70 45.89392
1054.80 45.03226
1054.90 44.22083
1055.00 44.22862
1055.10 44.59752
1055.20 44.95042
1055.30 45.48714
1055.40 46.05689
1055.50 46.34947
1055.60 45.71308
1055.70 45.11672
1055.80 44.38497
1055.90 43.50455
1056.00 42.64909
1056.10 42.09838
1056.20 41.59183
1056.30 41.17271
1056.40 41.4122
1056.50 41.63972
1056.60 42.02602
1056.70 42.62032
1056.80 43.1988
1056.90 43.33665
1057.00 43.34377
1057.10 43.36302
1057.20 43.56257
1057.30 43.74764
1057.40 44.06677
1057.50 44.59812
1057.60 45.13173
1057.70 45.35751
1057.80 45.49276
1057.90 45.61683
1058.00 45.60648
1058.10 45.60175
1058.20 45.62105
1058.30 45.69829
1058.40 45.73221
1058.50 45.07733
1058.60 44.04685
1058.70 43.02877
1058.80 42.70776
1058.90 42.43458
1059.00 42.29447
1059.10 42.62082
1059.20 42.94137
1059.30 43.25096
1059.40 43.50308
1059.50 43.75992
1059.60 44.36796
1059.70 45.06664
1059.80 45.65202
1059.90 45.32264
1060.00 45.02141
1060.10 44.70619
1060.20 44.33784
1060.30 43.95696
1060.40 43.59434
1060.50 43.26602
1060.60 42.91706
1060.70 42.47319
1060.80 42.08617
1060.90 41.84258
1061.00 41.75975
1061.10 41.67031
1061.20 42.20962
1061.30 42.95906
1061.40 43.71197
1061.50 44.19187
1061.60 44.62512
1061.70 44.79969
1061.80 44.44861
1061.90 44.11304
1062.00 43.82797
1062.10 43.63334
1062.20 43.46519
1062.30 43.45368
1062.40 43.37769
1062.50 43.48341
1062.60 44.25157
1062.70 45.02596
1062.80 45.85517
1062.90 46.73476
1063.00 47.5752
1063.10 47.53072
1063.20 47.39348
1063.30 47.16401
1063.40 46.6122
1063.50 46.05046
1063.60 45.85485
1063.70 45.99675
1063.80 46.16225
1063.90 46.6869
1064.00 47.26219
1064.10 47.79043
1064.20 47.98166
1064.30 48.20103
1064.40 48.27844
1064.50 48.14293
1064.60 47.99685
1064.70 47.88474
1064.80 47.77735
1064.90 47.68217
1065.00 47.78829
1065.10 47.85357
1065.20 47.71219
1065.30 47.18142
1065.40 46.68735
1065.50 45.97304
1065.60 45.07683
1065.70 44.19202
1065.80 44.02994
1065.90 43.91419
1066.00 43.808
1066.10 43.74207
1066.20 43.63729
1066.30 43.00128
1066.40 42.0741
1066.50 41.18721
1066.60 41.44076
1066.70 41.70218
1066.80 41.93632
1066.90 42.05084
1067.00 42.19486
1067.10 42.27868
1067.20 42.26973
1067.30 42.27768
1067.40 43.13216
1067.50 44.07755
1067.60 44.97959
1067.70 45.5629
1067.80 46.19176
1067.90 46.69502
1068.00 47.02696
1068.10 47.35585
1068.20 47.63058
1068.30 47.74529
1068.40 47.87132
1068.50 48.10786
1068.60 48.39597
1068.70 48.56458
1068.80 48.53898
1068.90 48.53282
1069.00 48.3861
1069.10 48.17714
1069.20 47.98972
1069.30 47.94621
1069.40 47.86905
1069.50 47.59024
1069.60 46.92873
1069.70 46.34151
1069.80 46.10309
1069.90 45.94949
1070.00 45.79892
1070.10 45.80112
1070.20 45.8238
1070.30 45.76293
1070.40 45.38142
1070.50 45.0157
1070.60 45.09446
1070.70 45.51673
1070.80 45.90504
1070.90 45.9483
1071.00 46.07947
1071.10 46.17391
1071.20 46.01781
1071.30 45.88729
1071.40 46.19267
1071.50 47.06048
1071.60 47.87798
1071.70 47.87377
1071.80 47.788
1071.90 47.69224
1072.00 47.63201
1072.10 47.54107
1072.20 47.40525
1072.30 47.25107
1072.40 47.08285
1072.50 46.38148
1072.60 45.46014
1072.70 44.57672
1072.80 44.91583
1072.90 45.1525
1073.00 45.4533
1073.10 45.92743
1073.20 46.36607
1073.30 46.2333
1073.40 45.89816
1073.50 45.5857
1073.60 45.6975
1073.70 45.75737
1073.80 45.93927
1073.90 46.53249
1074.00 47.14288
1074.10 47.73788
1074.20 48.29012
1074.30 48.79486
1074.40 48.63089
1074.50 48.49018
1074.60 48.38227
1074.70 48.39629
1074.80 48.34744
1074.90 48.32034
1075.00 48.38845
1075.10 48.48122
1075.20 48.03058
1075.30 47.48457
1075.40 46.95048
1075.50 46.46831
1075.60 46.02895
1075.70 46.0978
1075.80 46.81486
1075.90 47.47853
1076.00 47.76432
1076.10 48.01586
1076.20 48.23682
1076.30 48.12612
1076.40 48.04843
1076.50 48.04632
1076.60 48.21048
1076.70 48.38154
1076.80 48.53111
1076.90 48.60306
1077.00 48.66331
1077.10 48.64364
1077.20 48.66032
1077.30 48.59839
1077.40 48.38565
1077.50 48.17685
1077.60 47.648
1077.70 46.91069
1077.80 46.20076
1077.90 46.60565
1078.00 47.05121
1078.10 47.47057
1078.20 47.79066
1078.30 48.11507
1078.40 48.25612
1078.50 48.17213
1078.60 48.06425
1078.70 47.73921
1078.80 47.4799
1078.90 47.17693
1079.00 46.52789
1079.10 45.86308
1079.20 45.33598
1079.30 44.94237
1079.40 44.54359
1079.50 44.59612
1079.60 44.69815
1079.70 44.86601
1079.80 45.27771
1079.90 45.6647
1080.00 46.01914
1080.10 46.34755
1080.20 46.68274
1080.30 46.85857
1080.40 46.96445
1080.50 47.06109
1080.60 47.51559
1080.70 47.95079
1080.80 48.28156
1080.90 48.39159
1081.00 48.52018
1081.10 48.56513
1081.20 48.55151
1081.30 48.5234
1081.40 48.49151
1081.50 48.483
1081.60 48.56295
1081.70 48.92753
1081.80 49.25238
1081.90 49.33837
1082.00 49.34529
1082.10 49.33012
1082.20 48.80675
1082.30 48.27538
1082.40 47.79911
1082.50 47.52288
1082.60 47.26362
1082.70 47.16925
1082.80 47.1917
1082.90 47.20765
1083.00 47.43801
1083.10 47.72387
1083.20 48.0451
1083.30 48.46714
1083.40 48.79461
1083.50 48.93469
1083.60 48.87543
1083.70 48.83515
1083.80 48.7409
1083.90 48.62959
1084.00 48.54018
1084.10 48.57911
1084.20 48.59205
1084.30 48.5514
1084.40 48.43007
1084.50 48.2718
1084.60 47.71232
1084.70 47.0889
1084.80 46.49562
1084.90 46.74286
1085.00 46.91754
1085.10 47.23963
1085.20 47.87783
1085.30 48.40129
1085.40 48.22882
1085.50 47.73077
1085.60 47.32477
1085.70 47.8322
1085.80 48.3265
1085.90 48.82111
1086.00 49.29108
1086.10 49.72563
1086.20 50.0861
1086.30 50.4253
1086.40 50.75259
1086.50 50.44742
1086.60 50.16488
1086.70 49.86759
1086.80 49.50378
1086.90 49.11801
1087.00 49.21709
1087.10 49.752
1087.20 50.27057
1087.30 50.21274
1087.40 50.11362
1087.50 49.90584
1087.60 49.01681
1087.70 48.19092
1087.80 47.9445
1087.90 48.46387
1088.00 48.93325
1088.10 48.8918
1088.20 48.7663
1088.30 48.62717
1088.40 48.40229
1088.50 48.17783
1088.60 48.19465
1088.70 48.75678
1088.80 49.2847
1088.90 49.1692
1089.00 48.82464
1089.10 48.49179
1089.20 48.43032
1089.30 48.30212
1089.40 48.154
1089.50 48.00061
1089.60 47.92707
1089.70 48.22209
1089.80 48.65707
1089.90 49.08331
1090.00 49.69998
1090.10 50.34972
1090.20 50.85251
1090.30 50.86526
1090.40 50.91455
1090.50 50.81188
1090.60 50.5677
1090.70 50.28641
1090.80 49.81942
1090.90 49.38619
1091.00 48.9049
1091.10 48.18978
1091.20 47.48731
1091.30 47.33258
1091.40 47.6528
1091.50 47.98547
1091.60 48.74139
1091.70 49.53485
1091.80 50.24549
1091.90 50.37567
1092.00 50.5016
1092.10 50.39742
1092.20 49.98529
1092.30 49.59829
1092.40 49.61144
1092.50 49.77293
1092.60 49.93679
1092.70 49.77555
1092.80 49.60399
1092.90 49.45007
1093.00 49.36434
1093.10 49.30159
1093.20 49.20601
1093.30 49.07535
1093.40 48.93385
1093.50 48.7524
1093.60 48.52857
1093.70 48.28469
1093.80 48.02532
1093.90 47.89746
1094.00 48.38627
1094.10 49.1873
1094.20 49.94259
1094.30 49.88262
1094.40 49.802
1094.50 49.53138
1094.60 48.64545
1094.70 47.82299
1094.80 47.50098
1094.90 47.52438
1095.00 47.58092
1095.10 48.16379
1095.20 48.88536
1095.30 49.59733
1095.40 50.23187
1095.50 50.81037
1095.60 50.96226
1095.70 50.77366
1095.80 50.61525
1095.90 50.47033
1096.00 50.24594
1096.10 50.06865
1096.20 50.13438
1096.30 50.20079
1096.40 50.24957
1096.50 50.29661
1096.60 50.33547
1096.70 49.97218
1096.80 49.48141
1096.90 48.96485
1097.00 48.01555
1097.10 47.13308
1097.20 46.49501
1097.30 46.2858
1097.40 46.08218
1097.50 46.39933
1097.60 47.05595
1097.70 47.71338
1097.80 48.17882
1097.90 48.5958
1098.00 49.00511
1098.10 49.46867
1098.20 49.97037
1098.30 49.82386
1098.40 49.24241
1098.50 48.62669
1098.60 48.33634
1098.70 48.12471
1098.80 47.98671
1098.90 48.04102
1099.00 48.07935
1099.10 48.20086
1099.20 48.38883
1099.30 48.59238
1099.40 49.15998
1099.50 49.76194
1099.60 50.25357
1099.70 50.00678
1099.80 49.79378
1099.90 49.63401
1100.00 49.55333
1100.10 49.49237
1100.20 49.29224
1100.30 49.0683
1100.40 48.81281
1100.50 48.38413
1100.60 47.97316
1100.70 47.9092
1100.80 48.30085
1100.90 48.66467
1101.00 48.88169
1101.10 49.08936
1101.20 49.30182
1101.30 49.53842
1101.40 49.72933
1101.50 49.90426
1101.60 50.10864
1101.70 50.29481
1101.80 49.88481
1101.90 49.13479
1102.00 48.36786
1102.10 47.89047
1102.20 47.3942
1102.30 46.87974
1102.40 46.28355
1102.50 45.79723
1102.60 46.29013
1102.70 47.26548
1102.80 48.19695
1102.90 48.6331
1103.00 49.02896
1103.10 49.22438
1103.20 48.87493
1103.30 48.59638
1103.40 47.85635
1103.50 46.71454
1103.60 45.63551
1103.70 45.60932
1103.80 45.69193
1103.90 45.85659
1104.00 46.32406
1104.10 46.68653
1104.20 47.03457
1104.30 47.47554
1104.40 47.96616
1104.50 48.14854
1104.60 48.18621
1104.70 48.20612
1104.80 48.0196
1104.90 47.7796
1105.00 47.62307
1105.10 47.70267
1105.20 47.8038
1105.30 47.06148
1105.40 45.98639
1105.50 44.9257
1105.60 44.70398
1105.70 44.49284
1105.80 44.57703
1105.90 45.2558
1106.00 45.84573
1106.10 46.0199
1106.20 46.08651
1106.30 46.15284
1106.40 46.23205
1106.50 46.30385
1106.60 46.31158
1106.70 46.18949
1106.80 46.02325
1106.90 45.55061
1107.00 44.94486
1107.10 44.38546
1107.20 44.41879
1107.30 44.42125
1107.40 44.5987
1107.50 45.39001
1107.60 46.0975
1107.70 46.29697
1107.80 46.04091
1107.90 45.82976
1108.00 45.97621
1108.10 46.21635
1108.20 46.5504
1108.30 47.18748
1108.40 47.75945
1108.50 48.23445
1108.60 48.64563
1108.70 49.03848
1108.80 48.8632
1108.90 48.62708
1109.00 48.37078
1109.10 47.91146
1109.20 47.46779
1109.30 47.42577
1109.40 47.94354
1109.50 48.45369
1109.60 48.84656
1109.70 49.1703
1109.80 49.47775
1109.90 49.30921
1110.00 49.17226
1110.10 48.77365
1110.20 47.82451
1110.30 46.86064
1110.40 45.92732
1110.50 45.02506
1110.60 44.16422
1110.70 44.59694
1110.80 44.91867
1110.90 45.1325
1111.00 45.12452
1111.10 45.11552
1111.20 44.93421
1111.30 44.63329
1111.40 44.34055
1111.50 44.54443
1111.60 44.79319
1111.70 45.07934
1111.80 45.44513
1111.90 45.76317
1112.00 45.77501
1112.10 45.5434
1112.20 45.32626
1112.30 45.25138
1112.40 45.19204
1112.50 45.27077
1112.60 45.80172
1112.70 46.27843
1112.80 46.86751
1112.90 47.58072
1113.00 48.28301
1113.10 48.46496
1113.20 48.60224
1113.30 48.718
1113.40 48.70809
1113.50 48.68536
1113.60 48.20594
1113.70 47.09145
1113.80 45.98454
1113.90 45.73836
1114.00 45.72384
1114.10 45.74919
1114.20 46.34318
1114.30 46.96183
1114.40 47.73935
1114.50 48.75223
1114.60 49.73736
1114.70 49.72393
1114.80 49.4111
1114.90 49.08106
1115.00 48.25116
1115.10 47.37677
1115.20 46.96411
1115.30 47.56655
1115.40 48.09539
1115.50 48.22877
1115.60 48.1775
1115.70 48.15421
1115.80 48.18322
1115.90 48.28495
1116.00 48.37303
1116.10 48.36107
1116.20 48.30619
1116.30 48.36459
1116.40 48.47708
1116.50 48.5795
1116.60 48.61556
1116.70 48.59167
1116.80 48.42937
1116.90 47.77977
1117.00 47.20322
1117.10 46.55969
1117.20 45.85123
1117.30 45.1501
1117.40 44.69375
1117.50 44.20161
1117.60 43.78818
1117.70 44.03446
1117.80 44.34141
1117.90 44.87545
1118.00 45.70138
1118.10 46.4859
1118.20 47.03011
1118.30 47.4528
1118.40 47.89443
1118.50 48.55052
1118.60 49.29238
1118.70 49.58794
1118.80 49.25654
1118.90 48.90935
1119.00 48.4914
1119.10 48.07434
1119.20 47.65601
1119.30 47.18989
1119.40 46.75693
1119.50 46.33624
1119.60 46.31025
1119.70 46.31263
1119.80 46.32124
1119.90 46.33144
1120.00 46.31757
1120.10 46.299
1120.20 46.22715
1120.30 46.06238
1120.40 45.90408
1120.50 46.02168
1120.60 46.8512
1120.70 47.65996
1120.80 48.4392
1120.90 48.33901
1121.00 48.19107
1121.10 48.02953
1121.20 47.86602
1121.30 47.60989
1121.40 47.35941
1121.50 47.18133
1121.60 47.20205
1121.70 47.2392
1121.80 47.22908
1121.90 47.05767
1122.00 46.87181
1122.10 46.73454
1122.20 46.66978
1122.30 46.55045
1122.40 46.45524
1122.50 46.94958
1122.60 47.50736
1122.70 48.05215
1122.80 48.52081
1122.90 49.02426
1123.00 49.56538
1123.10 49.88567
1123.20 49.4769
1123.30 49.17583
1123.40 48.85864
1123.50 48.27754
1123.60 47.44255
1123.70 46.6626
1123.80 46.64585
1123.90 47.1364
1124.00 47.61719
1124.10 48.04473
1124.20 48.42395
1124.30 48.81689
1124.40 49.19202
1124.50 49.39202
1124.60 49.5816
1124.70 49.76054
1124.80 49.35557
1124.90 49.06793
1125.00 48.76334
1125.10 48.1126
1125.20 46.94775
1125.30 45.77326
1125.40 45.43393
1125.50 46.39924
1125.60 47.37683
1125.70 48.28839
1125.80 48.56836
1125.90 48.94889
1126.00 49.31645
1126.10 49.22742
1126.20 49.01954
1126.30 48.81524
1126.40 48.74475
1126.50 48.74503
1126.60 48.74658
1126.70 48.80868
1126.80 49.00538
1126.90 49.21878
1127.00 49.41713
1127.10 49.46821
1127.20 49.49428
1127.30 49.51005
1127.40 49.58573
1127.50 49.70029
1127.60 49.81619
1127.70 49.67761
1127.80 49.31583
1127.90 48.96127
1128.00 48.68647
1128.10 48.62559
1128.20 48.56898
1128.30 48.54606
1128.40 48.82966
1128.50 49.1
1128.60 49.37256
1128.70 49.3195
1128.80 49.24024
1128.90 49.15104
1129.00 48.99871
1129.10 48.81477
1129.20 48.62561
1129.30 48.60525
1129.40 48.92218
1129.50 49.21925
1129.60 49.51909
1129.70 49.7358
1129.80 49.91706
1129.90 50.09705
1130.00 49.85763
1130.10 49.66245
1130.20 49.42476
1130.30 48.964
1130.40 48.36651
1130.50 47.77909
1130.60 47.26905
1130.70 46.92082
1130.80 46.56341
1130.90 46.26618
1131.00 46.36321
1131.10 46.39986
1131.20 46.43992
1131.30 46.6883
1131.40 46.99726
1131.50 47.29922
1131.60 47.54724
1131.70 47.75374
1131.80 47.95605
1131.90 48.10645
1132.00 48.13026
1132.10 48.17326
1132.20 48.21314
1132.30 48.21802
1132.40 48.2073
1132.50 48.20053
1132.60 48.0539
1132.70 47.89709
1132.80 47.74123
1132.90 47.66474
1133.00 47.67778
1133.10 47.68705
1133.20 47.64872
1133.30 47.50429
1133.40 47.37029
1133.50 47.23864
1133.60 46.83459
1133.70 46.46056
1133.80 46.08613
1133.90 45.51872
1134.00 44.89501
1134.10 44.26969
1134.20 43.86423
1134.30 43.54588
1134.40 43.19749
1134.50 43.07974
1134.60 43.47265
1134.70 43.88171
1134.80 44.3094
1134.90 45.69748
1135.00 47.1171
1135.10 48.506
1135.20 48.43764
1135.30 48.10795
1135.40 47.76668
1135.50 47.26593
1135.60 46.70038
1135.70 46.16248
1135.80 45.78225
1135.90 45.57578
1136.00 45.23098
1136.10 44.89977
1136.20 45.21827
1136.30 45.63117
1136.40 46.01902
1136.50 45.81089
1136.60 45.53914
1136.70 45.2632
1136.80 44.83193
1136.90 44.23194
1137.00 43.6332
1137.10 43.13159
1137.20 42.88469
1137.30 42.63835
1137.40 42.38327
1137.50 41.78225
1137.60 41.1422
1137.70 40.46843
1137.80 39.31048
1137.90 38.2555
1138.00 37.14901
1138.10 35.72196
1138.20 33.955
1138.30 32.2616
1138.40 31.23627
1138.50 31.59463
1138.60 31.74969
1138.70 31.99663
1138.80 33.72377
1138.90 35.42491
1139.00 37.06285
1139.10 38.15699
1139.20 39.18197
1139.30 40.14981
1139.40 40.52936
1139.50 40.43912
1139.60 40.36194
1139.70 40.13425
1139.80 39.31498
1139.90 38.47911
1140.00 37.61103
1140.10 35.93963
1140.20 34.43042
1140.30 32.87369
1140.40 30.98304
1140.50 28.92452
1140.60 26.98838
1140.70 26.51676
1140.80 27.17989
1140.90 27.78807
1141.00 28.76768
1141.10 31.05677
1141.20 33.30171
1141.30 35.50712
1141.40 37.11041
1141.50 38.70546
1141.60 40.26465
1141.70 41.20323
1141.80 42.08138
1141.90 42.93107
1142.00 43.63017
1142.10 44.18597
1142.20 44.73997
1142.30 45.15222
1142.40 45.03532
1142.50 44.94555
1142.60 44.86255
1142.70 45.12665
1142.80 45.36023
1142.90 45.5905
1143.00 45.68449
1143.10 45.79705
1143.20 45.90145
1143.30 45.97824
1143.40 45.99862
1143.50 46.00714
1143.60 46.01964
1143.70 46.08123
1143.80 46.15078
1143.90 46.20475
1144.00 46.30848
1144.10 46.34232
1144.20 46.39886
1144.30 46.48285
1144.40 46.61876
1144.50 46.75544
1144.60 46.72761
1144.70 46.57429
1144.80 46.43095
1144.90 46.38115
1145.00 46.65591
1145.10 46.90916
1145.20 47.15961
1145.30 47.1411
1145.40 47.16682
1145.50 47.19033
1145.60 47.12107
1145.70 47.00414
1145.80 46.88889
1145.90 46.98033
1146.00 47.26272
1146.10 47.5294
1146.20 47.76245
1146.30 47.82581
1146.40 47.90102
1146.50 47.97692
1146.60 48.24358
1146.70 48.47365
1146.80 48.68677
1146.90 48.7118
1147.00 48.7905
1147.10 48.85991
1147.20 48.83109
1147.30 48.61569
1147.40 48.38676
1147.50 48.1846
1147.60 48.03296
1147.70 47.87164
1147.80 47.71121
1147.90 47.69649
1148.00 47.72882
1148.10 47.75551
1148.20 47.87133
1148.30 48.0525
1148.40 48.21298
1148.50 48.34171
1148.60 48.3772
1148.70 48.40631
1148.80 48.52923
1148.90 48.86862
1149.00 49.18374
1149.10 49.49423
1149.20 49.21762
1149.30 49.07689
1149.40 48.92246
1149.50 48.88763
1149.60 48.7554
1149.70 48.63909
1149.80 48.59308
1149.90 48.60433
1150.00 48.59966
1150.10 48.49027
1150.20 48.22409
1150.30 48.00793
1150.40 47.79371
1150.50 47.94246
1150.60 48.02734
1150.70 48.12058
1150.80 48.37925
1150.90 48.66395
1151.00 48.94123
1151.10 49.01064
1151.20 48.89584
1151.30 48.7917
1151.40 48.6397
1151.50 48.41314
1151.60 48.21907
1151.70 48.02666
1151.80 47.92257
1151.90 47.7524
1152.00 47.58409
1152.10 47.63977
1152.20 47.84656
1152.30 48.03245
1152.40 47.87545
1152.50 47.32852
1152.60 46.77756
1152.70 46.39743
1152.80 46.43956
1152.90 46.4425
1153.00 46.44543
1153.10 46.51378
1153.20 46.64544
1153.30 46.776
1153.40 46.81871
1153.50 46.80938
1153.60 46.81172
1153.70 46.98606
1153.80 47.29172
1153.90 47.57442
1154.00 47.84436
1154.10 48.08766
1154.20 48.33039
1154.30 48.56428
1154.40 48.32952
1154.50 48.166
1154.60 47.98906
1154.70 47.66385
1154.80 47.32824
1154.90 47.01438
1155.00 46.97216
1155.10 47.14628
1155.20 47.30879
1155.30 47.42334
1155.40 47.40727
1155.50 47.3907
1155.60 47.39839
1155.70 47.62387
1155.80 47.81431
1155.90 47.9969
1156.00 48.02758
1156.10 48.12194
1156.20 48.21747
1156.30 48.25358
1156.40 48.19678
1156.50 48.1252
1156.60 48.09437
1156.70 48.17315
1156.80 48.27606
1156.90 48.32006
1157.00 47.92415
1157.10 47.55398
1157.20 47.19494
1157.30 47.27842
1157.40 47.41675
1157.50 47.55588
1157.60 47.58758
1157.70 47.53552
1157.80 47.4823
1157.90 47.46621
1158.00 47.53728
1158.10 47.60038
1158.20 47.66662
1158.30 47.77066
1158.40 47.90936
1158.50 48.04438
1158.60 47.87294
1158.70 47.63661
1158.80 47.3933
1158.90 47.1071
1159.00 46.79061
1159.10 46.461
1159.20 46.0639
1159.30 45.55722
1159.40 45.09125
1159.50 44.65163
1159.60 44.41061
1159.70 44.10847
1159.80 43.83722
1159.90 44.24391
1160.00 44.65008
1160.10 45.05941
1160.20 45.42598
1160.30 45.7609
1160.40 46.07602
1160.50 46.2023
1160.60 46.06667
1160.70 45.96724
1160.80 45.78208
1160.90 45.0457
1161.00 44.36883
1161.10 43.73528
1161.20 44.14399
1161.30 44.47815
1161.40 44.85007
1161.50 45.596
1161.60 46.60815
1161.70 47.59401
1161.80 48.00675
1161.90 47.62751
1162.00 47.30458
1162.10 46.995
1162.20 46.8864
1162.30 46.75209
1162.40 46.62878
1162.50 46.84798
1162.60 47.04717
1162.70 47.25261
1162.80 47.4325
1162.90 47.58576
1163.00 47.73357
1163.10 47.868
1163.20 48.00014
1163.30 48.15483
1163.40 48.18998
1163.50 47.77277
1163.60 47.41982
1163.70 47.04363
1163.80 46.15438
1163.90 45.217
1164.00 44.30431
1164.10 44.15618
1164.20 44.22165
1164.30 44.30261
1164.40 44.70389
1164.50 45.55662
1164.60 46.37075
1164.70 47.031
1164.80 47.12334
1164.90 47.25863
1165.00 47.38297
1165.10 47.12024
1165.20 46.87722
1165.30 46.62893
1165.40 46.28956
1165.50 45.91227
1165.60 45.54609
1165.70 45.39743
1165.80 45.52483
1165.90 45.60376
1166.00 45.7617
1166.10 46.21672
1166.20 46.672
1166.30 47.12481
1166.40 47.25946
1166.50 47.46685
1166.60 47.66827
1166.70 47.6373
1166.80 47.5201
1166.90 47.39068
1167.00 47.15339
1167.10 46.80552
1167.20 46.45884
1167.30 46.17261
1167.40 46.11356
1167.50 46.05947
1167.60 46.0069
1167.70 45.93813
1167.80 45.87337
1167.90 45.81404
1168.00 45.70616
1168.10 45.58714
1168.20 45.45655
1168.30 45.08663
1168.40 44.50413
1168.50 43.92843
1168.60 43.18084
1168.70 41.81156
1168.80 40.50291
1168.90 39.13684
1169.00 36.09609
1169.10 33.17324
1169.20 30.32252
1169.30 29.64849
1169.40 29.07134
1169.50 28.59415
1169.60 29.80804
1169.70 32.55788
1169.80 35.1996
1169.90 37.53932
1170.00 39.23132
1170.10 40.99809
1170.20 42.73635
1170.30 43.63778
1170.40 44.63249
1170.50 45.60933
1170.60 45.94179
1170.70 46.16036
1170.80 46.37425
1170.90 46.42233
1171.00 46.34476
1171.10 46.28602
1171.20 46.25728
1171.30 46.26564
1171.40 46.24733
1171.50 46.23393
1171.60 46.28346
1171.70 46.38247
1171.80 46.47332
1171.90 46.25261
1172.00 45.92887
1172.10 45.61267
1172.20 45.52274
1172.30 45.57529
1172.40 45.6224
1172.50 45.71324
1172.60 45.90763
1172.70 46.10284
1172.80 46.2963
1172.90 46.42631
1173.00 46.54013
1173.10 46.64893
1173.20 46.59368
1173.30 46.57003
1173.40 46.53063
1173.50 46.34004
1173.60 46.05039
1173.70 45.76549
1173.80 45.66458
1173.90 45.80095
1174.00 45.90419
1174.10 46.03299
1174.20 46.35437
1174.30 46.67273
1174.40 46.99375
1174.50 47.03229
1174.60 47.05167
1174.70 47.05729
1174.80 46.9585
1174.90 46.82314
1175.00 46.69267
1175.10 46.43137
1175.20 45.96788
1175.30 45.51066
1175.40 45.09093
1175.50 44.99711
1175.60 44.88179
1175.70 44.77596
1175.80 44.81182
1175.90 44.92848
1176.00 45.03019
1176.10 44.80262
1176.20 44.45623
1176.30 44.113
1176.40 43.70066
1176.50 43.17509
1176.60 42.62145
1176.70 41.8221
1176.80 40.14777
1176.90 38.6042
1177.00 37.00252
1177.10 33.86416
1177.20 30.64975
1177.30 27.49445
1177.40 25.66735
1177.50 24.11207
1177.60 22.64466
1177.70 22.85053
1177.80 25.36377
1177.90 27.70848
1178.00 30.06634
1178.10 32.46969
1178.20 34.91065
1178.30 37.29658
1178.40 38.42278
1178.50 39.65699
1178.60 40.87637
1178.70 41.72997
1178.80 42.48424
1178.90 43.242
1179.00 43.78163
1179.10 44.10652
1179.20 44.43733
1179.30 44.69112
1179.40 44.678
1179.50 44.68775
1179.60 44.69426
1179.70 44.8159
1179.80 44.93546
1179.90 45.06134
1180.00 45.08488
1180.10 45.0408
1180.20 45.00015
1180.30 45.15881
1180.40 45.52647
1180.50 45.8915
1180.60 46.11671
1180.70 46.0455
1180.80 46.01779
1180.90 45.98792
1181.00 45.90739
1181.10 45.81686
1181.20 45.72703
1181.30 45.63219
1181.40 45.52774
1181.50 45.42191
1181.60 45.40841
1181.70 45.43025
1181.80 45.44424
1181.90 45.51883
1182.00 45.74228
1182.10 45.96096
1182.20 46.15471
1182.30 46.10795
1182.40 46.09395
1182.50 46.06052
1182.60 45.59754
1182.70 45.08105
1182.80 44.55431
1182.90 44.12524
1183.00 43.72677
1183.10 43.34056
1183.20 43.18363
1183.30 43.50919
1183.40 43.81312
1183.50 44.08962
1183.60 44.14011
1183.70 44.25045
1183.80 44.35179
1183.90 44.37087
1184.00 44.29653
1184.10 44.2495
1184.20 44.69665
1184.30 45.43474
1184.40 46.14115
1184.50 46.48392
1184.60 46.30257
1184.70 46.18215
1184.80 46.0105
1184.90 45.48221
1185.00 44.97244
1185.10 44.47571
1185.20 44.36083
1185.30 44.24662
1185.40 44.15013
1185.50 44.37479
1185.60 44.70402
1185.70 45.01388
1185.80 45.26344
1185.90 45.43094
1186.00 45.61548
1186.10 45.76953
1186.20 45.78149
1186.30 45.76725
1186.40 45.74923
1186.50 45.7594
1186.60 45.82847
1186.70 45.88837
1186.80 45.63848
1186.90 45.27586
1187.00 44.93025
1187.10 44.76324
1187.20 44.75856
1187.30 44.73137
1187.40 44.80936
1187.50 45.26971
1187.60 45.70574
1187.70 46.13305
1187.80 45.85219
1187.90 45.63212
1188.00 45.38285
1188.10 44.60196
1188.20 43.70266
1188.30 42.7849
1188.40 41.58182
1188.50 40.11277
1188.60 38.69249
1188.70 38.04921
1188.80 39.0503
1188.90 39.87725
1189.00 40.73094
1189.10 41.94392
1189.20 43.19377
1189.30 44.39027
1189.40 44.59028
1189.50 44.59815
1189.60 44.61536
1189.70 44.76284
1189.80 45.03781
1189.90 45.32369
1190.00 45.55306
1190.10 45.66143
1190.20 45.79476
1190.30 45.87653
1190.40 45.55969
1190.50 45.24296
1190.60 44.92331
1190.70 44.73843
1190.80 44.55973
1190.90 44.40465
1191.00 44.51256
1191.10 44.74429
1191.20 44.95092
1191.30 45.12864
1191.40 45.28741
1191.50 45.47047
1191.60 45.64077
1191.70 45.71952
1191.80 45.8103
1191.90 45.90304
1192.00 45.94352
1192.10 45.93987
1192.20 45.92879
1192.30 45.78938
1192.40 45.60047
1192.50 45.42283
1192.60 45.31911
1192.70 45.32041
1192.80 45.31111
1192.90 45.32681
1193.00 45.4238
1193.10 45.50738
1193.20 45.58748
1193.30 45.60579
1193.40 45.64034
1193.50 45.65929
1193.60 45.27948
1193.70 44.78424
1193.80 44.30363
1193.90 43.85711
1194.00 43.45081
1194.10 43.03287
1194.20 42.73476
1194.30 42.86813
1194.40 42.95438
1194.50 43.03646
1194.60 42.93968
1194.70 42.92143
1194.80 42.88416
1194.90 42.39569
1195.00 41.72136
1195.10 41.07504
1195.20 40.9668
1195.30 41.32502
1195.40 41.62783
1195.50 42.05011
1195.60 42.71474
1195.70 43.37953
1195.80 44.02086
1195.90 43.61642
1196.00 43.32815
1196.10 43.03527
1196.20 42.73538
1196.30 42.41855
1196.40 42.10925
1196.50 41.98481
1196.60 42.03016
1196.70 42.06668
1196.80 42.08227
1196.90 42.05285
1197.00 42.01363
1197.10 41.84235
1197.20 40.7467
1197.30 39.76168
1197.40 38.77027
1197.50 37.77102
1197.60 36.66132
1197.70 35.64645
1197.80 35.73874
1197.90 36.48495
1198.00 37.17098
1198.10 37.82259
1198.20 38.44267
1198.30 39.08648
1198.40 39.73312
1198.50 40.44488
1198.60 41.10319
1198.70 41.74812
1198.80 41.70095
1198.90 41.72561
1199.00 41.71369
1199.10 41.27867
1199.20 40.60723
1199.30 39.9604
1199.40 39.58625
1199.50 39.58083
1199.60 39.52971
1199.70 39.55654
1199.80 39.86361
1199.90 40.14623
1200.00 40.42211
