# Version 2.1 - nm, norm@500 to 1, cut digits
# Wavelength(nm)  Flambda(ergs/cm^s/s/nm)
300.00 0.00682613
300.10 0.009073628
300.20 0.01044221
300.30 0.01100795
300.40 0.01115589
300.50 0.01119909
300.60 0.01124228
300.70 0.01128593
300.80 0.0113318
300.90 0.01138334
301.00 0.01144431
301.10 0.01151638
301.20 0.01159788
301.30 0.01168505
301.40 0.01177444
301.50 0.01186428
301.60 0.01195413
301.70 0.01204397
301.80 0.01213381
301.90 0.01222365
302.00 0.01231349
302.10 0.01240334
302.20 0.01249318
302.30 0.01258302
302.40 0.01267286
302.50 0.0127627
302.60 0.01285254
302.70 0.01294273
302.80 0.0130346
302.90 0.01313077
303.00 0.0132341
303.10 0.01334587
303.20 0.01346479
303.30 0.01358802
303.40 0.01371293
303.50 0.01383819
303.60 0.01396345
303.70 0.0140887
303.80 0.01421396
303.90 0.01433921
304.00 0.01446447
304.10 0.01458973
304.20 0.01471498
304.30 0.01484024
304.40 0.01496549
304.50 0.01509075
304.60 0.015216
304.70 0.01534022
304.80 0.01545926
304.90 0.01556516
305.00 0.01564915
305.10 0.01570735
305.20 0.01574366
305.30 0.01576681
305.40 0.01578479
305.50 0.01580173
305.60 0.01581867
305.70 0.01583561
305.80 0.01585255
305.90 0.01586949
306.00 0.01588643
306.10 0.01590337
306.20 0.01592031
306.30 0.01593726
306.40 0.0159542
306.50 0.01597114
306.60 0.01598808
306.70 0.01600502
306.80 0.01602197
306.90 0.01603896
307.00 0.01605599
307.10 0.01607307
307.20 0.01609021
307.30 0.01610737
307.40 0.01612454
307.50 0.01614172
307.60 0.01615889
307.70 0.01617607
307.80 0.01619325
307.90 0.01621042
308.00 0.0162276
308.10 0.01624477
308.20 0.01626195
308.30 0.01627913
308.40 0.0162963
308.50 0.01631348
308.60 0.01633065
308.70 0.01635042
308.80 0.01638315
308.90 0.01644879
309.00 0.01656923
309.10 0.01675422
309.20 0.01699403
309.30 0.01726674
309.40 0.0175524
309.50 0.01784066
309.60 0.01812892
309.70 0.01841719
309.80 0.01870545
309.90 0.01899371
310.00 0.01928197
310.10 0.01957023
310.20 0.01985849
310.30 0.02014675
310.40 0.02043502
310.50 0.02072328
310.60 0.02101154
310.70 0.02129719
310.80 0.02156982
310.90 0.02180936
311.00 0.02199381
311.10 0.02211337
311.20 0.02217783
311.30 0.02220922
311.40 0.02222758
311.50 0.02224332
311.60 0.02225907
311.70 0.02227482
311.80 0.02229057
311.90 0.02230631
312.00 0.02232206
312.10 0.02233781
312.20 0.02235356
312.30 0.0223693
312.40 0.02238505
312.50 0.0224008
312.60 0.02241655
312.70 0.02243552
312.80 0.02247058
312.90 0.02254649
313.00 0.02269045
313.10 0.02291455
313.20 0.02320671
313.30 0.02353971
313.40 0.02388881
313.50 0.02424112
313.60 0.02459344
313.70 0.02494576
313.80 0.02529808
313.90 0.02565039
314.00 0.02600271
314.10 0.02635503
314.20 0.02670734
314.30 0.02705966
314.40 0.02741198
314.50 0.02776429
314.60 0.02811661
314.70 0.02847117
314.80 0.02883693
314.90 0.02923113
315.00 0.0296727
315.10 0.03017005
315.20 0.03071477
315.30 0.03128793
315.40 0.03187229
315.50 0.03245889
315.60 0.03304549
315.70 0.03363209
315.80 0.03421869
315.90 0.0348053
316.00 0.0353919
316.10 0.0359785
316.20 0.0365651
316.30 0.0371517
316.40 0.0377383
316.50 0.03832491
316.60 0.03891151
316.70 0.03948986
316.80 0.04002705
316.90 0.04045971
317.00 0.04071824
317.10 0.04077173
317.20 0.04065108
317.30 0.04042591
317.40 0.04015956
317.50 0.03988498
317.60 0.03961039
317.70 0.0393358
317.80 0.03906121
317.90 0.03878663
318.00 0.03851204
318.10 0.03823745
318.20 0.03796286
318.30 0.03768828
318.40 0.03741369
318.50 0.0371391
318.60 0.03686452
318.70 0.03659624
318.80 0.03635948
318.90 0.03620273
319.00 0.03617928
319.10 0.03631279
319.20 0.03657959
319.30 0.03692641
319.40 0.03730474
319.50 0.03768938
319.60 0.03807403
319.70 0.03845867
319.80 0.03884331
319.90 0.03922796
320.00 0.0396126
320.10 0.03999725
320.20 0.04038189
320.30 0.04076653
320.40 0.04115118
320.50 0.04153582
320.60 0.04192046
320.70 0.04230277
320.80 0.04267343
320.90 0.04301449
321.00 0.04330625
321.10 0.04353996
321.20 0.04372437
321.30 0.04387918
321.40 0.04402234
321.50 0.04416317
321.60 0.044304
321.70 0.04444482
321.80 0.04458565
321.90 0.04472648
322.00 0.0448673
322.10 0.04500813
322.20 0.04514896
322.30 0.04528979
322.40 0.04543061
322.50 0.04557144
322.60 0.04571227
322.70 0.04586162
322.80 0.04605354
322.90 0.04635357
323.00 0.04683366
323.10 0.0475258
323.20 0.04839801
323.30 0.04937832
323.40 0.0504012
323.50 0.0514326
323.60 0.05246401
323.70 0.05349541
323.80 0.05452682
323.90 0.05555823
324.00 0.05658963
324.10 0.05762104
324.20 0.05865244
324.30 0.05968385
324.40 0.06071525
324.50 0.06174666
324.60 0.06277807
324.70 0.06380809
324.80 0.06483119
324.90 0.06583674
325.00 0.06681303
325.10 0.06775488
325.20 0.06866748
325.30 0.06956252
325.40 0.07045065
325.50 0.07133739
325.60 0.07222413
325.70 0.07311087
325.80 0.07399761
325.90 0.07488435
326.00 0.07577109
326.10 0.07665783
326.20 0.07754457
326.30 0.07843131
326.40 0.07931805
326.50 0.08020479
326.60 0.08109152
326.70 0.08198125
326.80 0.08288588
326.90 0.08382836
327.00 0.08483388
327.10 0.08591364
327.20 0.08705644
327.30 0.08823709
327.40 0.08943265
327.50 0.09063119
327.60 0.09182973
327.70 0.09302828
327.80 0.09422682
327.90 0.09542536
328.00 0.0966239
328.10 0.09782244
328.20 0.09902098
328.30 0.1002195
328.40 0.1014181
328.50 0.1026166
328.60 0.1038152
328.70 0.1049962
328.80 0.1060898
328.90 0.1069613
329.00 0.1074629
329.10 0.1075289
329.20 0.107225
329.30 0.1066991
329.40 0.1060857
329.50 0.1054547
329.60 0.1048238
329.70 0.1041929
329.80 0.103562
329.90 0.1029311
330.00 0.1023002
330.10 0.1016692
330.20 0.1010383
330.30 0.1004074
330.40 0.09977649
330.50 0.09914558
330.60 0.09851466
330.70 0.09789674
330.80 0.09734369
330.90 0.09695536
331.00 0.09684144
331.10 0.09705063
331.20 0.09753423
331.30 0.09818256
331.40 0.09889575
331.50 0.09962194
331.60 0.1003481
331.70 0.1010743
331.80 0.1018005
331.90 0.1025267
332.00 0.1032529
332.10 0.1039791
332.20 0.1047053
332.30 0.1054315
332.40 0.1061576
332.50 0.1068838
332.60 0.10761
332.70 0.108328
332.80 0.1090049
332.90 0.1095775
333.00 0.1099763
333.10 0.1101706
333.20 0.1101911
333.30 0.1101074
333.40 0.1099826
333.50 0.1098495
333.60 0.1097165
333.70 0.1095834
333.80 0.1094504
333.90 0.1093173
334.00 0.1091842
334.10 0.1090512
334.20 0.1089181
334.30 0.1087851
334.40 0.108652
334.50 0.108519
334.60 0.1084967
334.70 0.1088357
334.80 0.1096326
334.90 0.1104421
335.00 0.1104166
335.10 0.1093249
335.20 0.1085012
335.30 0.1104396
335.40 0.1168735
335.50 0.1268183
335.60 0.1364663
335.70 0.1414014
335.80 0.1394474
335.90 0.1317458
336.00 0.1215381
336.10 0.1121617
336.20 0.1059442
336.30 0.1038612
336.40 0.1051224
336.50 0.1072695
336.60 0.1076491
336.70 0.1056144
336.80 0.1033483
336.90 0.1041517
337.00 0.1096152
337.10 0.1180684
337.20 0.1255355
337.30 0.1284678
337.40 0.1262346
337.50 0.121517
337.60 0.1182576
337.70 0.1187359
337.80 0.1222297
337.90 0.1263388
338.00 0.1292281
338.10 0.1303928
338.20 0.1295666
338.30 0.1258775
338.40 0.1190288
338.50 0.1110444
338.60 0.1059552
338.70 0.1069029
338.80 0.1132077
338.90 0.1205857
339.00 0.1245912
339.10 0.1242569
339.20 0.1226903
339.30 0.1240172
339.40 0.129583
339.50 0.1370802
339.60 0.1430443
339.70 0.1457641
339.80 0.1457198
339.90 0.1438662
340.00 0.1405839
340.10 0.1362656
340.20 0.1318193
340.30 0.1279348
340.40 0.1241476
340.50 0.119326
340.60 0.1131976
340.70 0.1069793
340.80 0.1024137
340.90 0.1004918
341.00 0.1011473
341.10 0.1037752
341.20 0.107678
341.30 0.1120366
341.40 0.1158856
341.50 0.1184872
341.60 0.1197684
341.70 0.120354
341.80 0.1210908
341.90 0.1224228
342.00 0.123997
342.10 0.1247326
342.20 0.1234789
342.30 0.1199825
342.40 0.1154089
342.50 0.1117517
342.60 0.1104938
342.70 0.1116821
342.80 0.114121
342.90 0.1163163
343.00 0.1173946
343.10 0.117495
343.20 0.1174445
343.30 0.1179537
343.40 0.1189974
343.50 0.1199615
343.60 0.1202928
343.70 0.1198394
343.80 0.118719
343.90 0.1172089
344.00 0.115816
344.10 0.1151265
344.20 0.1152934
344.30 0.1157782
344.40 0.1158238
344.50 0.1151787
344.60 0.1143017
344.70 0.1139593
344.80 0.1147374
344.90 0.1168429
345.00 0.1201662
345.10 0.1243639
345.20 0.1288766
345.30 0.1329301
345.40 0.1356589
345.50 0.1365239
345.60 0.1357617
345.70 0.1343463
345.80 0.1333223
345.90 0.133075
346.00 0.133158
346.10 0.1326834
346.20 0.1309421
346.30 0.1279616
346.40 0.1246851
346.50 0.1224232
346.60 0.1218116
346.70 0.1222589
346.80 0.1224963
346.90 0.1216104
347.00 0.1195145
347.10 0.116773
347.20 0.1143226
347.30 0.1132078
347.40 0.1140927
347.50 0.1167377
347.60 0.120111
347.70 0.1231818
347.80 0.1256098
347.90 0.1277345
348.00 0.1300399
348.10 0.1326124
348.20 0.1349675
348.30 0.1363694
348.40 0.1364276
348.50 0.1354389
348.60 0.1340816
348.70 0.1327966
348.80 0.1315804
348.90 0.1302908
349.00 0.128935
349.10 0.1276336
349.20 0.1264943
349.30 0.1256724
349.40 0.1254457
349.50 0.1259919
349.60 0.1270402
349.70 0.127913
349.80 0.1281252
349.90 0.1280664
350.00 0.1289539
350.10 0.131874
350.20 0.1367407
350.30 0.142186
350.40 0.1464938
350.50 0.1486844
350.60 0.148837
350.70 0.1476316
350.80 0.1457702
350.90 0.1436455
351.00 0.1411882
351.10 0.137899
351.20 0.1332395
351.30 0.1273243
351.40 0.1213
351.50 0.116794
351.60 0.1147613
351.70 0.1148113
351.80 0.1156615
351.90 0.1162065
352.00 0.1161354
352.10 0.1156723
352.20 0.1150781
352.30 0.1145785
352.40 0.1146592
352.50 0.1162091
352.60 0.1200333
352.70 0.1260198
352.80 0.1328217
352.90 0.1386089
353.00 0.1424155
353.10 0.1447571
353.20 0.14684
353.30 0.149333
353.40 0.1520729
353.50 0.1547319
353.60 0.1573769
353.70 0.1602604
353.80 0.1633783
353.90 0.1664533
354.00 0.1691227
354.10 0.1709156
354.20 0.1712636
354.30 0.1699397
354.40 0.1675493
354.50 0.1653249
354.60 0.1642047
354.70 0.1641414
354.80 0.1643615
354.90 0.1641771
355.00 0.1634599
355.10 0.1624861
355.20 0.1615499
355.30 0.1607874
355.40 0.1602644
355.50 0.1600095
355.60 0.1598617
355.70 0.1593701
355.80 0.1580039
355.90 0.1555939
356.00 0.1525334
356.10 0.1494588
356.20 0.1467041
356.30 0.1440339
356.40 0.1409017
356.50 0.1370439
356.60 0.1329121
356.70 0.1295119
356.80 0.1277016
356.90 0.1275583
357.00 0.1283846
357.10 0.1292473
357.20 0.1294661
357.30 0.1287509
357.40 0.1271173
357.50 0.1247945
357.60 0.1221586
357.70 0.1196013
357.80 0.1173701
357.90 0.115513
358.00 0.114016
358.10 0.1130428
358.20 0.1129984
358.30 0.114264
358.40 0.1168137
358.50 0.1200779
358.60 0.123163
358.70 0.1252344
358.80 0.1258642
358.90 0.1252375
359.00 0.1241665
359.10 0.1237852
359.20 0.1249253
359.30 0.1275363
359.40 0.1306187
359.50 0.1328498
359.60 0.1334805
359.70 0.1327999
359.80 0.1318082
359.90 0.1313709
360.00 0.1315315
360.10 0.1315134
360.20 0.1303825
360.30 0.1277977
360.40 0.1242977
360.50 0.1210317
360.60 0.1192267
360.70 0.1196994
360.80 0.1224876
360.90 0.1267649
361.00 0.1312463
361.10 0.1349197
361.20 0.1375256
361.30 0.1393575
361.40 0.1406701
361.50 0.1414082
361.60 0.1415581
361.70 0.1415284
361.80 0.1419277
361.90 0.1429468
362.00 0.1441308
362.10 0.1448558
362.20 0.1449022
362.30 0.1445178
362.40 0.1441178
362.50 0.1440487
362.60 0.1444261
362.70 0.1449349
362.80 0.144886
362.90 0.1437642
363.00 0.1418286
363.10 0.1400356
363.20 0.1392685
363.30 0.1396789
363.40 0.1407509
363.50 0.1418416
363.60 0.1425945
363.70 0.1429743
363.80 0.1430533
363.90 0.142802
364.00 0.1420363
364.10 0.1405461
364.20 0.1383077
364.30 0.1356022
364.40 0.1329568
364.50 0.1309724
364.60 0.130092
364.70 0.1303531
364.80 0.1313344
364.90 0.1324744
365.00 0.1335842
365.10 0.1350383
365.20 0.137313
365.30 0.1402773
365.40 0.1430204
365.50 0.1444819
365.60 0.144327
365.70 0.1431993
365.80 0.1421013
365.90 0.1415804
366.00 0.1415242
366.10 0.1416171
366.20 0.1418375
366.30 0.1424141
366.40 0.1434064
366.50 0.1444736
366.60 0.1450541
366.70 0.1447279
366.80 0.1434359
366.90 0.1414477
367.00 0.1392207
367.10 0.1372747
367.20 0.1360818
367.30 0.1359452
367.40 0.1368681
367.50 0.1385269
367.60 0.1404294
367.70 0.1421707
367.80 0.1436012
367.90 0.1447996
368.00 0.1459061
368.10 0.1469539
368.20 0.1478097
368.30 0.1482387
368.40 0.1480572
368.50 0.1473055
368.60 0.1463189
368.70 0.1455896
368.80 0.1454658
368.90 0.1459393
369.00 0.1467425
369.10 0.1476636
369.20 0.1486914
369.30 0.1498159
369.40 0.1507737
369.50 0.1511136
369.60 0.1505873
369.70 0.1494541
369.80 0.1483905
369.90 0.148107
370.00 0.1489791
370.10 0.1509001
370.20 0.1534019
370.30 0.155907
370.40 0.1579272
370.50 0.1591459
370.60 0.1594535
370.70 0.1590341
370.80 0.158377
370.90 0.1580582
371.00 0.1583665
371.10 0.1590643
371.20 0.1594772
371.30 0.1588428
371.40 0.1567365
371.50 0.1533536
371.60 0.1494802
371.70 0.1461258
371.80 0.1440622
371.90 0.1435733
372.00 0.1444788
372.10 0.1461864
372.20 0.147651
372.30 0.1475564
372.40 0.1449243
372.50 0.139881
372.60 0.1338887
372.70 0.1290911
372.80 0.127221
372.90 0.1288414
373.00 0.1333036
373.10 0.1392182
373.20 0.1450315
373.30 0.1494457
373.40 0.151679
373.50 0.1515214
373.60 0.149191
373.70 0.1451258
373.80 0.1398916
373.90 0.1342328
374.00 0.1290829
374.10 0.1254021
374.20 0.123933
374.30 0.1250698
374.40 0.1288886
374.50 0.1351754
374.60 0.1433465
374.70 0.1523377
374.80 0.1606706
374.90 0.1668284
375.00 0.1697757
375.10 0.1692921
375.20 0.1659359
375.30 0.1607533
375.40 0.1549576
375.50 0.1496743
375.60 0.1456728
375.70 0.1431609
375.80 0.1417968
375.90 0.1409731
376.00 0.140238
376.10 0.1396269
376.20 0.1397337
376.30 0.1414647
376.40 0.1455967
376.50 0.1524424
376.60 0.1618424
376.70 0.1732678
376.80 0.185747
376.90 0.1976627
377.00 0.2068838
377.10 0.211496
377.20 0.2106769
377.30 0.2050159
377.40 0.1960799
377.50 0.1856729
377.60 0.1753198
377.70 0.1661185
377.80 0.1587001
377.90 0.1531961
378.00 0.1493169
378.10 0.1466028
378.20 0.1446925
378.30 0.1433913
378.40 0.1425639
378.50 0.1420988
378.60 0.1420137
378.70 0.142514
378.80 0.1439044
378.90 0.1465266
379.00 0.1508621
379.10 0.1575915
379.20 0.1673127
379.30 0.1800169
379.40 0.1947662
379.50 0.2098282
379.60 0.2230759
379.70 0.2324112
379.80 0.2362403
379.90 0.2339695
380.00 0.2263097
380.10 0.2150691
380.20 0.2024639
380.30 0.190359
380.40 0.1798756
380.50 0.1714196
380.60 0.1649014
380.70 0.159926
380.80 0.1559335
380.90 0.1524415
381.00 0.1492836
381.10 0.1466018
381.20 0.1445608
381.30 0.1430777
381.40 0.1419023
381.50 0.1409712
381.60 0.1405465
381.70 0.1408828
381.80 0.141758
381.90 0.1424267
382.00 0.1421631
382.10 0.1406691
382.20 0.1349248
382.30 0.1190617
382.40 0.09451125
382.50 0.08364
382.60 0.1230828
382.70 0.2248292
382.80 0.3492041
382.90 0.4352741
383.00 0.4584696
383.10 0.4508026
383.20 0.464735
383.30 0.5218018
383.40 0.5987348
383.50 0.6486195
383.60 0.6342558
383.70 0.5568979
383.80 0.45471
383.90 0.3670456
384.00 0.3024006
384.10 0.2463206
384.20 0.1952411
384.30 0.1693824
384.40 0.1858684
384.50 0.2268297
384.60 0.2489697
384.70 0.226894
384.80 0.1759153
384.90 0.1264767
385.00 0.08857805
385.10 0.05349665
385.20 0.02463855
385.30 0.02469695
385.40 0.06314588
385.50 0.1210818
385.60 0.1690586
385.70 0.1894659
385.80 0.1834013
385.90 0.1668988
386.00 0.1628472
386.10 0.1815562
386.20 0.2080969
386.30 0.2202096
386.40 0.2175471
386.50 0.2218011
386.60 0.2497116
386.70 0.2976365
386.80 0.3487721
386.90 0.3823979
387.00 0.3811519
387.10 0.3430455
387.20 0.2898679
387.30 0.2525171
387.40 0.2430078
387.50 0.2441649
387.60 0.2329318
387.70 0.2100465
387.80 0.1971412
387.90 0.2065074
388.00 0.2263548
388.10 0.2456414
388.20 0.2748524
388.30 0.3224714
388.40 0.3622737
388.50 0.3588171
388.60 0.3290577
388.70 0.3381257
388.80 0.4166773
388.90 0.5108976
389.00 0.5406852
389.10 0.4920495
389.20 0.4210051
389.30 0.3747504
389.40 0.3455963
389.50 0.3008059
389.60 0.2324061
389.70 0.1644752
389.80 0.1212675
389.90 0.1085806
390.00 0.1193588
390.10 0.1455934
390.20 0.185153
390.30 0.2387897
390.40 0.3022241
390.50 0.3615002
390.60 0.3965933
390.70 0.3938936
390.80 0.3554608
390.90 0.2946087
391.00 0.2305568
391.10 0.1845531
391.20 0.1709721
391.30 0.1867367
391.40 0.210913
391.50 0.2231394
391.60 0.2217273
391.70 0.2210136
391.80 0.2354967
391.90 0.2691104
392.00 0.3132281
392.10 0.3496411
392.20 0.3572627
392.30 0.3253439
392.40 0.2662022
392.50 0.2086804
392.60 0.1739025
392.70 0.1616618
392.80 0.1663721
392.90 0.2072703
393.00 0.3397631
393.10 0.6176523
393.20 1.023764
393.30 1.432903
393.40 1.661694
393.50 1.59339
393.60 1.2736
393.70 0.8748205
393.80 0.5594105
393.90 0.3739066
394.00 0.264002
394.10 0.1698599
394.20 0.08609414
394.30 0.04171889
394.40 0.05393827
394.50 0.1123534
394.60 0.1921081
394.70 0.2678877
394.80 0.3219368
394.90 0.3503318
395.00 0.3609047
395.10 0.3584101
395.20 0.3412824
395.30 0.3176069
395.40 0.3122113
395.50 0.3435782
395.60 0.3976525
395.70 0.4379319
395.80 0.4384527
395.90 0.398242
396.00 0.3315166
396.10 0.2591227
396.20 0.2059378
396.30 0.192085
396.40 0.2270861
396.50 0.328758
396.60 0.5378437
396.70 0.8807521
396.80 1.298554
396.90 1.635422
397.00 1.733282
397.10 1.549256
397.20 1.180073
397.30 0.7802016
397.40 0.4680651
397.50 0.2904923
397.60 0.236104
397.70 0.257926
397.80 0.2987382
397.90 0.3212303
398.00 0.3182765
398.10 0.2985289
398.20 0.272038
398.30 0.2549157
398.40 0.2674518
398.50 0.3124201
398.60 0.3652791
398.70 0.3951971
398.80 0.3927329
398.90 0.3681654
399.00 0.3369064
399.10 0.3123529
399.20 0.3001386
399.30 0.292475
399.40 0.2756452
399.50 0.2510442
399.60 0.2406877
399.70 0.2629967
399.80 0.3062012
399.90 0.3360396
400.00 0.3283544
400.10 0.2922782
400.20 0.2616083
400.30 0.2613013
400.40 0.285529
400.50 0.3088861
400.60 0.3141754
400.70 0.3077421
400.80 0.3058792
400.90 0.3129883
401.00 0.3193469
401.10 0.3177555
401.20 0.3134522
401.30 0.3124529
401.40 0.3092254
401.50 0.2921958
401.60 0.2622888
401.70 0.2367727
401.80 0.2324765
401.90 0.248919
402.00 0.2704674
402.10 0.2828536
402.20 0.2835741
402.30 0.2803708
402.40 0.2818899
402.50 0.2912541
402.60 0.303733
402.70 0.3092923
402.80 0.3006335
402.90 0.2811231
403.00 0.2606613
403.10 0.2421847
403.20 0.2208007
403.30 0.1958477
403.40 0.1769651
403.50 0.1740892
403.60 0.1854734
403.70 0.2017429
403.80 0.2208462
403.90 0.2493884
404.00 0.2893157
404.10 0.3290043
404.20 0.3521446
404.30 0.3580878
404.40 0.3650366
404.50 0.3862288
404.60 0.4088194
404.70 0.4071265
404.80 0.3745367
404.90 0.3334572
405.00 0.3107689
405.10 0.3132895
405.20 0.3293977
405.30 0.3436187
405.40 0.3453687
405.50 0.3299665
405.60 0.3019181
405.70 0.2747881
405.80 0.2609358
405.90 0.2617339
406.00 0.2672128
406.10 0.2659934
406.20 0.2564759
406.30 0.2485373
406.40 0.2534768
406.50 0.2713819
406.60 0.2900495
406.70 0.2967114
406.80 0.2913592
406.90 0.2857243
407.00 0.2888637
407.10 0.2959834
407.20 0.2923972
407.30 0.2707995
407.40 0.2405521
407.50 0.217108
407.60 0.205646
407.70 0.2018418
407.80 0.2057004
407.90 0.2233708
408.00 0.2553341
408.10 0.288725
408.20 0.3060368
408.30 0.2990128
408.40 0.2737801
408.50 0.244176
408.60 0.2212737
408.70 0.207835
408.80 0.2002099
408.90 0.1948985
409.00 0.1916106
409.10 0.1913436
409.20 0.1933348
409.30 0.1924315
409.40 0.1813195
409.50 0.1630049
409.60 0.1576774
409.70 0.1909999
409.80 0.2759883
409.90 0.4091273
410.00 0.5762996
410.10 0.7459065
410.20 0.8597876
410.30 0.8593422
410.40 0.7388834
410.50 0.5625806
410.60 0.4135683
410.70 0.3286227
410.80 0.2895725
410.90 0.2666355
411.00 0.250807
411.10 0.244065
411.20 0.2397161
411.30 0.2273195
411.40 0.2094252
411.50 0.200592
411.60 0.2107092
411.70 0.2332995
411.80 0.2510125
411.90 0.2503797
412.00 0.2301627
412.10 0.2013964
412.20 0.1792143
412.30 0.1717606
412.40 0.1764118
412.50 0.1855668
412.60 0.193154
412.70 0.1958846
412.80 0.1918803
412.90 0.1824119
413.00 0.1746402
413.10 0.1775364
413.20 0.1929871
413.30 0.2129918
413.40 0.2264539
413.50 0.2270579
413.60 0.2172013
413.70 0.2058015
413.80 0.2004618
413.90 0.200753
414.00 0.2005951
414.10 0.1954677
414.20 0.1858288
414.30 0.1743712
414.40 0.1642965
414.50 0.1644757
414.60 0.1860962
414.70 0.2268377
414.80 0.2650932
414.90 0.2773497
415.00 0.2596804
415.10 0.2273461
415.20 0.1962084
415.30 0.1722227
415.40 0.1607849
415.50 0.1721798
415.60 0.2094293
415.70 0.258241
415.80 0.2948504
415.90 0.3061398
416.00 0.2968601
416.10 0.2773043
416.20 0.2509188
416.30 0.2155986
416.40 0.1747107
416.50 0.1432965
416.60 0.139873
416.70 0.1683208
416.80 0.2095767
416.90 0.2351256
417.00 0.2333848
417.10 0.2170315
417.20 0.202383
417.30 0.1925673
417.40 0.1854654
417.50 0.1893903
417.60 0.2164994
417.70 0.2612304
417.80 0.2998325
417.90 0.3155372
418.00 0.3126178
418.10 0.3021722
418.20 0.2826476
418.30 0.2442447
418.40 0.1897177
418.50 0.1405787
418.60 0.1201047
418.70 0.1350725
418.80 0.1752261
418.90 0.2237634
419.00 0.264168
419.10 0.2814189
419.20 0.2684702
419.30 0.2353527
419.40 0.2049041
419.50 0.1941027
419.60 0.1994412
419.70 0.204865
419.80 0.2029754
419.90 0.2016314
420.00 0.2101238
420.10 0.2253175
420.20 0.2344334
420.30 0.230904
420.40 0.2233898
420.50 0.2262138
420.60 0.2445642
420.70 0.2705341
420.80 0.2916947
420.90 0.2997135
421.00 0.2908432
421.10 0.2626981
421.20 0.2180964
421.30 0.1713253
421.40 0.1427885
421.50 0.1432453
421.60 0.16327
421.70 0.1803148
421.80 0.1775112
421.90 0.1579443
422.00 0.1400562
422.10 0.1416081
422.20 0.1634311
422.30 0.1855721
422.40 0.1833608
422.50 0.1504057
422.60 0.1058319
422.70 0.07567199
422.80 0.06914626
422.90 0.07487938
423.00 0.07766146
423.10 0.07193604
423.20 0.0608829
423.30 0.04938116
423.40 0.04205797
423.50 0.04372505
423.60 0.05707394
423.70 0.08155242
423.80 0.1120513
423.90 0.139209
424.00 0.1530382
424.10 0.1483592
424.20 0.1296514
424.30 0.1092771
424.40 0.09679952
424.50 0.09140854
424.60 0.08622421
424.70 0.07841451
424.80 0.07485106
424.90 0.08502537
425.00 0.1077015
425.10 0.1290701
425.20 0.1338371
425.30 0.1193517
425.40 0.09874593
425.50 0.08855018
425.60 0.09493602
425.70 0.1121372
425.80 0.1317129
425.90 0.1506305
426.00 0.1699145
426.10 0.1881938
426.20 0.2002661
426.30 0.2011266
426.40 0.1912547
426.50 0.1765506
426.60 0.1643258
426.70 0.1603164
426.80 0.1666774
426.90 0.1806589
427.00 0.1949676
427.10 0.2020629
427.20 0.199211
427.30 0.1890251
427.40 0.174579
427.50 0.1565524
427.60 0.1346575
427.70 0.1101393
427.80 0.08775588
427.90 0.07490782
428.00 0.08008448
428.10 0.1090834
428.20 0.1596703
428.30 0.217075
428.40 0.2559895
428.50 0.2544328
428.60 0.2121759
428.70 0.1561643
428.80 0.1224289
428.90 0.1313733
429.00 0.1758643
429.10 0.2295026
429.20 0.2673791
429.30 0.2817142
429.40 0.2813167
429.50 0.2763444
429.60 0.2669898
429.70 0.2490455
429.80 0.2255912
429.90 0.2057734
430.00 0.1945871
430.10 0.1903271
430.20 0.1912523
430.30 0.1991576
430.40 0.2146894
430.50 0.2336123
430.60 0.2483587
430.70 0.2537384
430.80 0.2508555
430.90 0.2443323
431.00 0.238052
431.10 0.2340187
431.20 0.232711
431.30 0.2324828
431.40 0.2280605
431.50 0.2143227
431.60 0.193506
431.70 0.1731479
431.80 0.1581258
431.90 0.1506359
432.00 0.1552153
432.10 0.1764877
432.20 0.2096409
432.30 0.2384114
432.40 0.2491936
432.50 0.2439704
432.60 0.2357981
432.70 0.2351456
432.80 0.2434282
432.90 0.2583716
433.00 0.2793193
433.10 0.304517
433.20 0.3278435
433.30 0.3430642
433.40 0.3494865
433.50 0.3522495
433.60 0.3655979
433.70 0.421858
433.80 0.5636461
433.90 0.8010603
434.00 1.067538
434.10 1.237966
434.20 1.216373
434.30 1.013939
434.40 0.7377727
434.50 0.5048434
434.60 0.3688015
434.70 0.3162146
434.80 0.3084016
434.90 0.3153036
435.00 0.320544
435.10 0.315808
435.20 0.3002658
435.30 0.2801439
435.40 0.264236
435.50 0.2591614
435.60 0.2666785
435.70 0.2840493
435.80 0.305294
435.90 0.3218277
436.00 0.3248958
436.10 0.3091449
436.20 0.2762335
436.30 0.2379237
436.40 0.2122234
436.50 0.2113908
436.60 0.2334234
436.70 0.2644442
436.80 0.2876651
436.90 0.2925697
437.00 0.2795954
437.10 0.2596513
437.20 0.2479761
437.30 0.2524367
437.40 0.267404
437.50 0.2831238
437.60 0.2980206
437.70 0.3156375
437.80 0.3323462
437.90 0.3356365
438.00 0.3201619
438.10 0.2993598
438.20 0.291517
438.30 0.2981018
438.40 0.3046595
438.50 0.3021691
438.60 0.2979159
438.70 0.3019409
438.80 0.310745
438.90 0.3120585
439.00 0.3033108
439.10 0.2966964
439.20 0.304564
439.30 0.3251074
439.40 0.3437787
439.50 0.3469578
439.60 0.3343752
439.70 0.3172478
439.80 0.3061632
439.90 0.3034978
440.00 0.3047419
440.10 0.3044289
440.20 0.2982661
440.30 0.2820093
440.40 0.2553264
440.50 0.2257651
440.60 0.2048225
440.70 0.2024218
440.80 0.2235717
440.90 0.2644624
441.00 0.3097226
441.10 0.3379875
441.20 0.3393082
441.30 0.328009
441.40 0.3313272
441.50 0.3655253
441.60 0.4235738
441.70 0.4818844
441.80 0.5163717
441.90 0.5142044
442.00 0.4780844
442.10 0.4244786
442.20 0.3751907
442.30 0.3443027
442.40 0.3314866
442.50 0.3264539
442.60 0.31974
442.70 0.3124166
442.80 0.3148831
442.90 0.335895
443.00 0.37252
443.10 0.4095554
443.20 0.4308666
443.30 0.4312839
443.40 0.4181217
443.50 0.4050959
443.60 0.4044771
443.70 0.4198925
443.80 0.4438325
443.90 0.4637011
444.00 0.4712954
444.10 0.4659184
444.20 0.4501855
444.30 0.4303859
444.40 0.4192497
444.50 0.4283126
444.60 0.4551782
444.70 0.4836633
444.80 0.5003699
444.90 0.5056301
445.00 0.5053515
445.10 0.500292
445.20 0.4876927
445.30 0.468703
445.40 0.4502063
445.50 0.4405308
445.60 0.4444262
445.70 0.4594978
445.80 0.4762418
445.90 0.4849325
446.00 0.4842286
446.10 0.4806116
446.20 0.4785389
446.30 0.4747155
446.40 0.4643307
446.50 0.4503449
446.60 0.4443829
446.70 0.4562352
446.80 0.4834778
446.90 0.5132959
447.00 0.5347884
447.10 0.5479332
447.20 0.5588931
447.30 0.5700933
447.40 0.5784899
447.50 0.5824201
447.60 0.5843664
447.70 0.5870402
447.80 0.590213
447.90 0.5915816
448.00 0.5897437
448.10 0.5860314
448.20 0.5849541
448.30 0.5906967
448.40 0.6019375
448.50 0.612905
448.60 0.6197936
448.70 0.6235707
448.80 0.6257424
448.90 0.6266808
449.00 0.6301355
449.10 0.6426995
449.20 0.6646835
449.30 0.6843954
449.40 0.6860026
449.50 0.6643029
449.60 0.630671
449.70 0.6042023
449.80 0.596709
449.90 0.6063688
450.00 0.6244648
450.10 0.6440759
450.20 0.6583404
450.30 0.6557007
450.40 0.6281019
450.50 0.5856335
450.60 0.5536568
450.70 0.549095
450.80 0.5655196
450.90 0.5852343
451.00 0.5998916
451.10 0.6126076
451.20 0.6237472
451.30 0.626736
451.40 0.6198221
451.50 0.6125528
451.60 0.6157226
451.70 0.629692
451.80 0.6486396
451.90 0.6715108
452.00 0.6997253
452.10 0.7268219
452.20 0.7406494
452.30 0.7371235
452.40 0.7256716
452.50 0.7183609
452.60 0.7178216
452.70 0.719707
452.80 0.7226817
452.90 0.7310839
453.00 0.7477546
453.10 0.7646315
453.20 0.7632161
453.30 0.729332
453.40 0.6704942
453.50 0.6185414
453.60 0.6111588
453.70 0.6655375
453.80 0.7659395
453.90 0.8743656
454.00 0.9526523
454.10 0.9811936
454.20 0.9639188
454.30 0.9188702
454.40 0.8649337
454.50 0.814678
454.60 0.7742247
454.70 0.7451763
454.80 0.7255621
454.90 0.711603
455.00 0.7026252
455.10 0.7014629
455.20 0.7079791
455.30 0.7161003
455.40 0.7206557
455.50 0.7261644
455.60 0.7440372
455.70 0.7780494
455.80 0.8162363
455.90 0.8419921
456.00 0.8515611
456.10 0.8584542
456.20 0.8801576
456.30 0.9221088
456.40 0.9758252
456.50 1.028106
456.60 1.069194
456.70 1.095871
456.80 1.11093
456.90 1.11927
457.00 1.123724
457.10 1.124462
457.20 1.122782
457.30 1.121726
457.40 1.120568
457.50 1.112677
457.60 1.092725
457.70 1.064314
457.80 1.037098
457.90 1.019238
458.00 1.013829
458.10 1.018823
458.20 1.024357
458.30 1.01115
458.40 0.9597058
458.50 0.8695252
458.60 0.7679285
458.70 0.6916225
458.80 0.6567966
458.90 0.6494019
459.00 0.6468662
459.10 0.6435732
459.20 0.6492409
459.30 0.6685881
459.40 0.6926841
459.50 0.7113138
459.60 0.7269692
459.70 0.7521787
459.80 0.7934651
459.90 0.8401426
460.00 0.870522
460.10 0.8711239
460.20 0.8496394
460.30 0.8256161
460.40 0.8080074
460.50 0.7869766
460.60 0.753144
460.70 0.7203443
460.80 0.7203221
460.90 0.7716985
461.00 0.8586517
461.10 0.9437933
461.20 1.000625
461.30 1.032316
461.40 1.061945
461.50 1.107014
461.60 1.161955
461.70 1.204071
461.80 1.216205
461.90 1.203717
462.00 1.187967
462.10 1.183507
462.20 1.183277
462.30 1.166301
462.40 1.118327
462.50 1.043326
462.60 0.9567728
462.70 0.8722428
462.80 0.7975845
462.90 0.7408641
463.00 0.7112364
463.10 0.7114455
463.20 0.7329595
463.30 0.7600368
463.40 0.7788846
463.50 0.7838314
463.60 0.7781639
463.70 0.7702236
463.80 0.7664896
463.90 0.7690818
464.00 0.7804452
464.10 0.8053214
464.20 0.8443931
464.30 0.8887787
464.40 0.9237637
464.50 0.9393708
464.60 0.9369854
464.70 0.926218
464.80 0.9168954
464.90 0.9124064
465.00 0.9102256
465.10 0.9089515
465.20 0.9119372
465.30 0.9219427
465.40 0.9349816
465.50 0.9446125
465.60 0.9522846
465.70 0.9697048
465.80 1.007761
465.90 1.062894
466.00 1.117231
466.10 1.152829
466.20 1.165686
466.30 1.165403
466.40 1.161475
466.50 1.150833
466.60 1.119656
466.70 1.056373
466.80 0.9626512
466.90 0.8544882
467.00 0.753759
467.10 0.6778269
467.20 0.635072
467.30 0.6262998
467.40 0.6460456
467.50 0.6826576
467.60 0.7216275
467.70 0.7529594
467.80 0.7753233
467.90 0.7909334
468.00 0.7988973
468.10 0.7984335
468.20 0.7952659
468.30 0.7990517
468.40 0.8131344
468.50 0.8291651
468.60 0.8355077
468.70 0.8301193
468.80 0.8226856
468.90 0.8244072
469.00 0.8380475
469.10 0.8577142
469.20 0.8761766
469.30 0.8897339
469.40 0.8974133
469.50 0.9011579
469.60 0.9083953
469.70 0.9308883
469.80 0.9747077
469.90 1.030663
470.00 1.079115
470.10 1.10634
470.20 1.114829
470.30 1.116276
470.40 1.117539
470.50 1.116623
470.60 1.109932
470.70 1.098827
470.80 1.088858
470.90 1.084448
471.00 1.084401
471.10 1.081791
471.20 1.068238
471.30 1.038361
471.40 0.9919166
471.50 0.9358031
471.60 0.8846155
471.70 0.8556837
471.80 0.8577074
471.90 0.8823578
472.00 0.9099764
472.10 0.9257005
472.20 0.9304559
472.30 0.9370131
472.40 0.9556809
472.50 0.9826238
472.60 1.003464
472.70 1.008062
472.80 0.9998886
472.90 0.9920124
473.00 0.9953855
473.10 1.012318
473.20 1.039441
473.30 1.07207
473.40 1.103815
473.50 1.123744
473.60 1.118779
473.70 1.084643
473.80 1.036025
473.90 1.00013
474.00 0.9958584
474.10 1.020548
474.20 1.057275
474.30 1.092053
474.40 1.120716
474.50 1.143218
474.60 1.158399
474.70 1.165202
474.80 1.166195
474.90 1.167339
475.00 1.174136
475.10 1.187477
475.20 1.203829
475.30 1.219784
475.40 1.233397
475.50 1.240382
475.60 1.232313
475.70 1.201432
475.80 1.145364
475.90 1.066245
476.00 0.96817
476.10 0.8595014
476.20 0.7559244
476.30 0.6745212
476.40 0.6225015
476.50 0.5927751
476.60 0.571585
476.70 0.5504457
476.80 0.5301113
476.90 0.5148197
477.00 0.5071256
477.10 0.5091984
477.20 0.5254235
477.30 0.5599872
477.40 0.6108272
477.50 0.6675987
477.60 0.7160846
477.70 0.7456139
477.80 0.7537999
477.90 0.7437987
478.00 0.7189337
478.10 0.6827977
478.20 0.6447164
478.30 0.6209978
478.40 0.6254498
478.50 0.657507
478.60 0.702276
478.70 0.7431954
478.80 0.7736012
478.90 0.7979387
479.00 0.8240811
479.10 0.8552392
479.20 0.8882776
479.30 0.9169799
479.40 0.9356785
479.50 0.9423451
479.60 0.9398667
479.70 0.934034
479.80 0.93103
479.90 0.9359344
480.00 0.9517199
480.10 0.9773863
480.20 1.002097
480.30 1.002786
480.40 0.9568381
480.50 0.8622903
480.60 0.7450606
480.70 0.6421725
480.80 0.5754375
480.90 0.5431914
481.00 0.5341246
481.10 0.5411989
481.20 0.5623989
481.30 0.5954108
481.40 0.6362494
481.50 0.6801231
481.60 0.7190651
481.70 0.742535
481.80 0.7469908
481.90 0.7436897
482.00 0.7505015
482.10 0.77465
482.20 0.8073599
482.30 0.8354617
482.40 0.8527244
482.50 0.8596212
482.60 0.8593755
482.70 0.857737
482.80 0.861775
482.90 0.872064
483.00 0.8789542
483.10 0.8740497
483.20 0.8652772
483.30 0.8729365
483.40 0.90764
483.50 0.9560328
483.60 0.9934136
483.70 1.008935
483.80 1.01138
483.90 1.010757
484.00 1.001348
484.10 0.9676383
484.20 0.9052404
484.30 0.8327836
484.40 0.7808907
484.50 0.7683088
484.60 0.7867896
484.70 0.8083772
484.80 0.809864
484.90 0.7903347
485.00 0.765873
485.10 0.7519552
485.20 0.7548373
485.30 0.7752177
485.40 0.8106313
485.50 0.8522131
485.60 0.8881022
485.70 0.9259429
485.80 1.0195
485.90 1.252894
486.00 1.658576
486.10 2.13209
486.20 2.455555
486.30 2.451538
486.40 2.129147
486.50 1.668673
486.60 1.267167
486.70 1.011712
486.80 0.8829102
486.90 0.8324845
487.00 0.8319598
487.10 0.8670265
487.20 0.9204214
487.30 0.9714632
487.40 1.00496
487.50 1.015879
487.60 1.007519
487.70 0.9887076
487.80 0.9705617
487.90 0.9617032
488.00 0.9626942
488.10 0.9655841
488.20 0.9634437
488.30 0.9613666
488.40 0.9741749
488.50 1.009595
488.60 1.056319
488.70 1.093037
488.80 1.10959
488.90 1.115559
489.00 1.126595
489.10 1.145677
489.20 1.160488
489.30 1.158004
489.40 1.139314
489.50 1.119234
489.60 1.112528
489.70 1.121847
489.80 1.138917
489.90 1.154266
490.00 1.164511
490.10 1.172134
490.20 1.181572
490.30 1.196571
490.40 1.218257
490.50 1.244147
490.60 1.26899
490.70 1.28859
490.80 1.304022
490.90 1.321445
491.00 1.347198
491.10 1.382798
491.20 1.42338
491.30 1.459755
491.40 1.482576
491.50 1.486041
491.60 1.471723
491.70 1.450488
491.80 1.438889
491.90 1.450922
492.00 1.489036
492.10 1.542755
492.20 1.596167
492.30 1.637237
492.40 1.664251
492.50 1.686501
492.60 1.71631
492.70 1.755282
492.80 1.788384
492.90 1.796707
493.00 1.776088
493.10 1.739341
493.20 1.703153
493.30 1.679451
493.40 1.676068
493.50 1.695212
493.60 1.728071
493.70 1.757929
493.80 1.77451
493.90 1.78236
494.00 1.794186
494.10 1.818754
494.20 1.856143
494.30 1.902166
494.40 1.953759
494.50 2.009815
494.60 2.068891
494.70 2.126953
494.80 2.177705
494.90 2.215545
495.00 2.23576
495.10 2.227528
495.20 2.1653
495.30 2.014199
495.40 1.756794
495.50 1.420811
495.60 1.075878
495.70 0.795465
495.80 0.6165969
495.90 0.5308431
496.00 0.506427
496.10 0.5133654
496.20 0.5330962
496.30 0.5565689
496.40 0.581267
496.50 0.6107321
496.60 0.6519369
496.70 0.7094053
496.80 0.7796036
496.90 0.849491
497.00 0.9019604
497.10 0.928105
497.20 0.9352958
497.30 0.9409253
497.40 0.9577349
497.50 0.9848225
497.60 1.012359
497.70 1.031851
497.80 1.039525
497.90 1.03351
498.00 1.012442
498.10 0.9792906
498.20 0.948042
498.30 0.9417547
498.40 0.9763489
498.50 1.043526
498.60 1.11283
498.70 1.155023
498.80 1.164882
498.90 1.160629
499.00 1.164233
499.10 1.184609
499.20 1.215802
499.30 1.246974
499.40 1.271582
499.50 1.288626
499.60 1.286767
499.70 1.229102
499.80 1.070259
499.90 0.8036828
500.00 1
500.10 0.8119933
500.20 0.8223646
500.30 0.8559633
500.40 0.7628516
500.50 0.7415559
500.60 0.7827308
500.70 0.7157425
500.80 0.7867722
500.90 0.9620927
501.00 1.091689
501.10 1.011009
501.20 0.9204931
501.30 0.8930414
501.40 0.9482547
501.50 0.8740746
501.60 0.8109272
501.70 0.8756863
501.80 0.9176463
501.90 0.9500366
502.00 1.061324
502.10 1.084113
502.20 1.081388
502.30 1.002068
502.40 1.049123
502.50 1.098745
502.60 1.051346
502.70 1.036091
502.80 1.033154
502.90 1.047521
503.00 1.095342
503.10 1.086443
503.20 1.135457
503.30 1.067547
503.40 1.015522
503.50 1.083749
503.60 1.226032
503.70 1.277842
503.80 1.237355
503.90 1.264913
504.00 1.295938
504.10 1.274679
504.20 1.360031
504.30 1.366596
504.40 1.415289
504.50 1.393841
504.60 1.414886
504.70 1.563536
504.80 1.599249
504.90 1.39524
505.00 1.265833
505.10 1.244497
505.20 1.299958
505.30 1.309321
505.40 1.297551
505.50 1.270697
505.60 1.251191
505.70 1.286033
505.80 1.339817
505.90 1.281648
506.00 1.272159
506.10 1.332849
506.20 1.486023
506.30 1.509525
506.40 1.353301
506.50 1.330744
506.60 1.400003
506.70 1.412542
506.80 1.365197
506.90 1.483528
507.00 1.472728
507.10 1.340485
507.20 1.448873
507.30 1.410828
507.40 1.393715
507.50 1.616174
507.60 1.629254
507.70 1.483187
507.80 1.492475
507.90 1.591474
508.00 1.636349
508.10 1.49434
508.20 1.373981
508.30 1.389859
508.40 1.483477
508.50 1.553934
508.60 1.493584
508.70 1.511302
508.80 1.490446
508.90 1.458942
509.00 1.443807
509.10 1.386104
509.20 1.461475
509.30 1.590504
509.40 1.630124
509.50 1.541596
509.60 1.448696
509.70 1.403922
509.80 1.586396
509.90 1.665976
510.00 1.60463
510.10 1.42556
510.20 1.386797
510.30 1.455237
510.40 1.464083
510.50 1.427299
510.60 1.38565
510.70 1.359022
510.80 1.339843
510.90 1.484712
511.00 1.588299
511.10 1.487774
511.20 1.491769
511.30 1.59005
511.40 1.557323
511.50 1.550493
511.60 1.723969
511.70 1.820549
511.80 1.729388
511.90 1.665459
512.00 1.635807
512.10 1.591512
512.20 1.635568
512.30 1.732538
512.40 1.68542
512.50 1.541533
512.60 1.482406
512.70 1.47913
512.80 1.434519
512.90 1.399991
513.00 1.395933
513.10 1.402788
513.20 1.562415
513.30 1.810618
513.40 1.792422
513.50 1.662044
513.60 1.667223
513.70 1.768566
513.80 1.934191
513.90 1.886153
514.00 1.719092
514.10 1.672806
514.20 1.635757
514.30 1.665194
514.40 1.686315
514.50 1.639953
514.60 1.568892
514.70 1.516091
514.80 1.616552
514.90 1.690108
515.00 1.617711
515.10 1.565981
515.20 1.632846
515.30 1.578532
515.40 1.425484
515.50 1.429353
515.60 1.499368
515.70 1.555862
515.80 1.811223
515.90 2.041167
516.00 1.980767
516.10 2.036253
516.20 2.238044
516.30 2.194946
516.40 2.181211
516.50 2.235827
516.60 2.068727
516.70 1.552938
516.80 1.099258
516.90 0.7096684
517.00 0.6315074
517.10 0.5950216
517.20 0.5905694
517.30 0.6184558
517.40 0.5516665
517.50 0.5468577
517.60 0.5832805
517.70 0.5514044
517.80 0.5525045
517.90 0.5770174
518.00 0.5902316
518.10 0.6293235
518.20 0.6507276
518.30 0.6825923
518.40 0.6769026
518.50 0.7752567
518.60 0.9419942
518.70 0.952935
518.80 0.9428435
518.90 1.062527
519.00 1.109242
519.10 1.163164
519.20 1.205072
519.30 1.092721
519.40 0.995878
519.50 1.106567
519.60 1.175793
519.70 1.317815
519.80 1.398201
519.90 1.337461
520.00 1.170302
520.10 1.148721
520.20 1.220401
520.30 1.152026
520.40 1.09989
520.50 1.132814
520.60 1.045179
520.70 0.8194107
520.80 0.8236928
520.90 0.8380071
521.00 0.8152547
521.10 0.8378206
521.20 1.1077
521.30 1.377547
521.40 1.548578
521.50 1.651118
521.60 1.710661
521.70 1.720642
521.80 1.73778
521.90 1.822641
522.00 1.862815
522.10 1.868284
522.20 1.918099
522.30 1.919939
522.40 1.941727
522.50 1.835923
522.60 1.80244
522.70 1.781357
522.80 1.803814
522.90 1.811841
523.00 1.954001
523.10 2.187423
523.20 2.139184
523.30 1.916398
523.40 1.912491
523.50 2.025894
523.60 2.035698
523.70 2.008252
523.80 1.993319
523.90 2.020538
524.00 1.9987
524.10 1.859879
524.20 1.610604
524.30 1.449415
524.40 1.483603
524.50 1.587404
524.60 1.689352
524.70 1.601858
524.80 1.547368
524.90 1.522971
525.00 1.598418
525.10 1.605853
525.20 1.674192
525.30 1.789838
525.40 1.870477
525.50 1.889505
525.60 2.054903
525.70 2.167021
525.80 2.020072
525.90 1.927676
526.00 1.907097
526.10 1.803435
526.20 1.678666
526.30 1.722016
526.40 1.747358
526.50 1.573718
526.60 1.470371
526.70 1.525
526.80 1.583686
526.90 1.602828
527.00 1.479067
527.10 1.420443
527.20 1.494378
527.30 1.757036
527.40 1.928924
527.50 2.070945
527.60 2.057474
527.70 2.007571
527.80 1.920102
527.90 1.938539
528.00 1.913474
528.10 1.884427
528.20 1.870237
528.30 1.903203
528.40 1.951317
528.50 2.012713
528.60 2.13563
528.70 2.218146
528.80 2.261206
528.90 2.286183
529.00 2.230458
529.10 2.212601
529.20 2.291564
529.30 2.271439
529.40 2.183605
529.50 2.23536
529.60 2.30937
529.70 2.27803
529.80 1.971089
529.90 1.894622
530.00 2.101492
530.10 2.161728
530.20 2.091927
530.30 2.177266
530.40 2.419232
530.50 2.469286
530.60 2.362436
530.70 2.249575
530.80 2.162144
530.90 2.098127
531.00 2.064481
531.10 2.037047
531.20 2.022416
531.30 2.028301
531.40 2.091877
531.50 2.040878
531.60 2.03876
531.70 2.151911
531.80 2.182408
531.90 2.114346
532.00 2.108826
532.10 2.144073
532.20 2.103735
532.30 2.068261
532.40 2.184084
532.50 2.24868
532.60 2.18053
532.70 2.033632
532.80 1.97986
532.90 1.923102
533.00 1.914154
533.10 2.112985
533.20 2.203427
533.30 2.136626
533.40 2.084845
533.50 2.030947
533.60 2.100849
533.70 2.122323
533.80 2.109809
533.90 2.14682
534.00 2.197316
534.10 2.179232
534.20 2.122764
534.30 2.249411
534.40 2.389593
534.50 2.419119
534.60 2.333251
534.70 2.273959
534.80 2.119437
534.90 2.205897
535.00 2.435035
535.10 2.528426
535.20 2.586621
535.30 2.638389
535.40 2.750998
535.50 2.825311
535.60 2.741623
535.70 2.636726
535.80 2.558683
535.90 2.432363
536.00 2.283222
536.10 2.166895
536.20 2.15457
536.30 2.280235
536.40 2.255687
536.50 2.215702
536.60 2.213219
536.70 2.274363
536.80 2.251944
536.90 2.224107
537.00 2.203642
537.10 2.269675
537.20 2.136865
537.30 2.033619
537.40 2.183996
537.50 2.532308
537.60 2.648382
537.70 2.457126
537.80 2.394545
537.90 2.578304
538.00 2.738623
538.10 2.837169
538.20 2.832595
538.30 2.749826
538.40 2.716092
538.50 2.693723
538.60 2.666315
538.70 2.649302
538.80 2.635062
538.90 2.690762
539.00 2.779302
539.10 2.754602
539.20 2.679294
539.30 2.632895
539.40 2.64934
539.50 2.739581
539.60 2.67075
539.70 2.447032
539.80 2.359336
539.90 2.611056
540.00 2.823383
540.10 2.991944
540.20 3.081656
540.30 3.052634
540.40 3.020802
540.50 2.989638
540.60 2.829054
540.70 2.621402
540.80 2.689716
540.90 2.779214
541.00 2.634747
541.10 2.458575
541.20 2.49943
541.30 2.591889
541.40 2.608649
541.50 2.683188
541.60 2.825638
541.70 3.024973
541.80 3.020764
541.90 2.891558
542.00 2.86449
542.10 3.042515
542.20 3.099739
542.30 3.081744
542.40 2.996871
542.50 2.992952
542.60 2.967547
542.70 2.956848
542.80 3.038192
542.90 3.078152
543.00 2.842046
543.10 2.620066
543.20 2.578871
543.30 2.700831
543.40 2.811814
543.50 2.788589
543.60 2.831423
543.70 3.038797
543.80 3.171506
543.90 3.13888
544.00 3.173547
544.10 3.331662
544.20 3.432576
544.30 3.578
544.40 3.539288
544.50 3.460048
544.60 3.361956
544.70 3.064883
544.80 2.501711
544.90 1.991491
545.00 1.601329
545.10 1.272259
545.20 1.139254
545.30 1.148955
545.40 1.146292
545.50 1.224445
545.60 1.269008
545.70 1.310871
545.80 1.344669
545.90 1.361606
546.00 1.389556
546.10 1.482053
546.20 1.561066
546.30 1.482293
546.40 1.552182
546.50 1.662157
546.60 1.730081
546.70 1.745783
546.80 1.880709
546.90 1.91893
547.00 1.807632
547.10 1.649001
547.20 1.541382
547.30 1.610364
547.40 1.759304
547.50 1.784482
547.60 1.684462
547.70 1.628095
547.80 1.659738
547.90 1.692427
548.00 1.652492
548.10 1.693573
548.20 1.816113
548.30 1.909391
548.40 1.818709
548.50 1.875744
548.60 1.980666
548.70 1.955173
548.80 1.810039
548.90 1.744497
549.00 1.76432
549.10 1.821028
549.20 1.93554
549.30 1.914419
549.40 1.884036
549.50 1.889052
549.60 1.737932
549.70 1.567707
549.80 1.554627
549.90 1.504925
550.00 1.325666
550.10 1.138268
550.20 1.023462
550.30 1.024006
550.40 1.008068
550.50 1.10995
550.60 1.156298
550.70 1.106378
550.80 1.059045
550.90 1.056615
551.00 1.009456
551.10 0.9873894
551.20 0.9664718
551.30 0.8744035
551.40 0.8687264
551.50 0.8850116
551.60 0.8710375
551.70 0.8641305
551.80 0.8824799
551.90 0.8983833
552.00 0.8885489
552.10 0.8355737
552.20 0.7937195
552.30 0.7962739
552.40 0.8184101
552.50 0.7989783
552.60 0.8177309
552.70 0.850261
552.80 0.9286578
552.90 0.8720671
553.00 0.772134
553.10 0.8056736
553.20 0.9257367
553.30 0.9483152
553.40 0.7577277
553.50 0.6476427
553.60 0.6675408
553.70 0.7545937
553.80 0.7730111
553.90 0.7483999
554.00 0.6862317
554.10 0.6696844
554.20 0.7146436
554.30 0.6775869
554.40 0.6732456
554.50 0.676643
554.60 0.7420373
554.70 0.7269832
554.80 0.7428362
554.90 0.7771936
555.00 0.7419642
555.10 0.7509152
555.20 0.8638067
555.30 0.8584635
555.40 0.7892585
555.50 0.7776523
555.60 0.8470388
555.70 0.9640598
555.80 0.9556507
555.90 0.9895166
556.00 1.078829
556.10 1.190535
556.20 1.218544
556.30 1.231363
556.40 1.219083
556.50 1.31043
556.60 1.358783
556.70 1.453598
556.80 1.462231
556.90 1.447827
557.00 1.508252
557.10 1.627918
557.20 1.656776
557.30 1.651521
557.40 1.651043
557.50 1.651043
557.60 1.651043
557.70 1.651043
557.80 1.651043
557.90 1.651043
558.00 1.651043
558.10 1.651043
558.20 1.650715
558.30 1.649556
558.40 1.644477
558.50 1.751239
558.60 1.914835
558.70 1.997086
558.80 2.046485
558.90 1.987446
559.00 1.991252
559.10 1.998158
559.20 1.964876
559.30 2.007332
559.40 2.06656
559.50 2.003123
559.60 1.927109
559.70 1.883154
559.80 1.740956
559.90 1.45322
560.00 1.303285
560.10 1.363068
560.20 1.525113
560.30 1.567077
560.40 1.620131
560.50 1.663934
560.60 1.591663
560.70 1.65137
560.80 1.730156
560.90 1.747723
561.00 1.695527
561.10 1.777501
561.20 1.761043
561.30 1.710485
561.40 1.764937
561.50 1.803562
561.60 1.795018
561.70 1.656625
561.80 1.476156
561.90 1.479785
562.00 1.55629
562.10 1.49802
562.20 1.506198
562.30 1.600598
562.40 1.574059
562.50 1.520741
562.60 1.59092
562.70 1.687147
562.80 1.693926
562.90 1.566863
563.00 1.477794
563.10 1.478626
563.20 1.378454
563.30 1.398541
563.40 1.585829
563.50 1.755196
563.60 1.697266
563.70 1.542768
563.80 1.437796
563.90 1.471518
564.00 1.506072
564.10 1.519317
564.20 1.512058
564.30 1.532448
564.40 1.555017
564.50 1.648018
564.60 1.756683
564.70 1.73618
564.80 1.709552
564.90 1.761963
565.00 1.79871
565.10 1.811916
565.20 1.858921
565.30 1.894508
565.40 1.922623
565.50 1.952993
565.60 1.998233
565.70 2.068072
565.80 2.004887
565.90 2.047582
566.00 2.096376
566.10 2.066648
566.20 2.021471
566.30 1.985884
566.40 1.839073
566.50 1.683442
566.60 1.697064
566.70 1.785692
566.80 1.781597
566.90 1.625637
567.00 1.601014
567.10 1.596679
567.20 1.576755
567.30 1.622059
567.40 1.757036
567.50 1.793795
567.60 1.763677
567.70 1.753848
567.80 1.872758
567.90 1.960302
568.00 1.867767
568.10 1.764849
568.20 1.780273
568.30 1.912894
568.40 1.974681
568.50 2.002115
568.60 2.121012
568.70 2.159964
568.80 2.084013
568.90 1.920821
569.00 1.894748
569.10 1.881705
569.20 1.89505
569.30 1.929831
569.40 2.014086
569.50 2.082388
569.60 2.070164
569.70 2.086118
569.80 2.153449
569.90 2.232474
570.00 2.22078
570.10 2.286687
570.20 2.383128
570.30 2.368321
570.40 2.296617
570.50 2.305842
570.60 2.392214
570.70 2.465178
570.80 2.458714
570.90 2.516505
571.00 2.60013
571.10 2.598227
571.20 2.548136
571.30 2.437228
571.40 2.360697
571.50 2.25982
571.60 2.237679
571.70 2.282125
571.80 2.228341
571.90 2.075936
572.00 2.008831
572.10 2.053063
572.20 2.192653
572.30 2.269826
572.40 2.213786
572.50 2.145006
572.60 2.172011
572.70 2.223704
572.80 2.224712
572.90 2.236003
573.00 2.280298
573.10 2.350868
573.20 2.346041
573.30 2.456785
573.40 2.535987
573.50 2.51551
573.60 2.440932
573.70 2.325412
573.80 2.264596
573.90 2.145485
574.00 2.24524
574.10 2.317713
574.20 2.192111
574.30 2.120483
574.40 2.186629
574.50 2.210837
574.60 2.376071
574.70 2.548766
574.80 2.574398
574.90 2.539327
575.00 2.655023
575.10 2.708266
575.20 2.638087
575.30 2.612883
575.40 2.693194
575.50 2.832708
575.60 2.833653
575.70 2.800372
575.80 2.768452
575.90 2.681311
576.00 2.464851
576.10 2.259568
576.20 2.179522
576.30 2.107175
576.40 1.92905
576.50 1.844127
576.60 1.875833
576.70 1.780273
576.80 1.78021
576.90 1.901338
577.00 2.047544
577.10 2.035849
577.20 1.981889
577.30 2.095657
577.40 2.191027
577.50 2.2031
577.60 2.123091
577.70 2.107894
577.80 2.0994
577.90 2.124402
578.00 2.139033
578.10 2.212475
578.20 2.365448
578.30 2.472475
578.40 2.485732
578.50 2.55576
578.60 2.604957
578.70 2.522352
578.80 2.40503
578.90 2.459608
579.00 2.484673
579.10 2.533644
579.20 2.539831
579.30 2.486778
579.40 2.549194
579.50 2.727408
579.60 2.710068
579.70 2.684688
579.80 2.70354
579.90 2.801116
580.00 2.860533
580.10 2.872731
580.20 2.883972
580.30 2.886039
580.40 2.86919
580.50 2.920328
580.60 3.045123
580.70 3.119889
580.80 3.069218
580.90 2.981535
581.00 2.894709
581.10 2.61989
581.20 2.289636
581.30 2.154974
581.40 2.12977
581.50 2.089268
581.60 2.006777
581.70 1.963755
581.80 1.984056
581.90 2.006059
582.00 2.010243
582.10 1.935691
582.20 1.861744
582.30 1.92164
582.40 1.8888
582.50 1.938866
582.60 2.074033
582.70 2.127048
582.80 2.119286
582.90 2.170436
583.00 2.166252
583.10 2.196774
583.20 2.244484
583.30 2.263626
583.40 2.219028
583.50 2.220767
583.60 2.303737
583.70 2.333503
583.80 2.327933
583.90 2.244257
584.00 2.03251
584.10 1.928735
584.20 2.010407
584.30 2.162522
584.40 2.179446
584.50 2.119487
584.60 2.145182
584.70 2.203465
584.80 1.971379
584.90 1.648648
585.00 1.517741
585.10 1.384541
585.20 1.307229
585.30 1.373439
585.40 1.472728
585.50 1.502443
585.60 1.53992
585.70 1.466011
585.80 1.445899
585.90 1.564733
586.00 1.600018
586.10 1.572735
586.20 1.462798
586.30 1.375871
586.40 1.297904
586.50 1.254764
586.60 1.326069
586.70 1.418679
586.80 1.349634
586.90 1.322704
587.00 1.428987
587.10 1.476508
587.20 1.357586
587.30 1.291187
587.40 1.297551
587.50 1.195589
587.60 1.257113
587.70 1.381655
587.80 1.370351
587.90 1.22852
588.00 1.096059
588.10 1.018692
588.20 0.9626812
588.30 0.9577527
588.40 1.015611
588.50 0.9976989
588.60 0.8980821
588.70 0.8558739
588.80 0.8184971
588.90 0.7560151
589.00 0.6034294
589.10 0.664834
589.20 0.894468
589.30 0.8964742
589.40 0.797088
589.50 0.6312667
589.60 0.6745814
589.70 0.7031307
589.80 0.7683737
589.90 0.7757847
590.00 0.7861938
590.10 0.7751937
590.20 0.7646158
590.30 0.8603903
590.40 0.9463745
590.50 0.967611
590.60 0.9183483
590.70 0.8427882
590.80 0.9130593
590.90 0.9365918
591.00 0.8840892
591.10 0.9167113
591.20 1.046405
591.30 1.091111
591.40 1.015617
591.50 1.008301
591.60 1.052731
591.70 1.135688
591.80 1.177056
591.90 1.103431
592.00 1.057209
592.10 1.160888
592.20 1.194524
592.30 1.123326
592.40 1.095975
592.50 1.095049
592.60 1.126464
592.70 1.18813
592.80 1.165268
592.90 1.162274
593.00 1.16906
593.10 1.161436
593.20 1.177967
593.30 1.211443
593.40 1.259293
593.50 1.325262
593.60 1.316353
593.70 1.170142
593.80 1.067462
593.90 1.242256
594.00 1.406985
594.10 1.386469
594.20 1.361744
594.30 1.377282
594.40 1.432075
594.50 1.540298
594.60 1.548742
594.70 1.474316
594.80 1.40585
594.90 1.479924
595.00 1.409278
595.10 1.26461
595.20 1.238493
595.30 1.340158
595.40 1.349067
595.50 1.252323
595.60 1.25487
595.70 1.233263
595.80 1.232732
595.90 1.206826
596.00 1.191583
596.10 1.216729
596.20 1.257748
596.30 1.220621
596.40 1.250383
596.50 1.316655
596.60 1.345186
596.70 1.346761
596.80 1.350226
596.90 1.320209
597.00 1.286109
597.10 1.308477
597.20 1.375821
597.30 1.352646
597.40 1.281698
597.50 1.313265
597.60 1.41142
597.70 1.436359
597.80 1.390048
597.90 1.313253
598.00 1.291376
598.10 1.275939
598.20 1.418188
598.30 1.478575
598.40 1.429832
598.50 1.396462
598.60 1.479898
598.70 1.564998
598.80 1.503363
598.90 1.458337
599.00 1.433864
599.10 1.463907
599.20 1.478424
599.30 1.530028
599.40 1.558294
599.50 1.653185
599.60 1.763135
599.70 1.784785
599.80 1.704209
599.90 1.629065
600.00 1.607743
600.10 1.584946
600.20 1.540324
600.30 1.59407
600.40 1.647703
600.50 1.633148
600.60 1.573517
600.70 1.518926
600.80 1.47046
600.90 1.417356
601.00 1.439875
601.10 1.517389
601.20 1.602828
601.30 1.678363
601.40 1.629103
601.50 1.537148
601.60 1.583107
601.70 1.690032
601.80 1.723049
601.90 1.713535
602.00 1.742078
602.10 1.783537
602.20 1.768516
602.30 1.763123
602.40 1.715879
602.50 1.743665
602.60 1.788238
602.70 1.807619
602.80 1.823876
602.90 1.821481
603.00 1.731744
603.10 1.706024
603.20 1.773015
603.30 1.842173
603.40 1.875026
603.50 1.894886
603.60 1.879815
603.70 1.763488
603.80 1.681526
603.90 1.746526
604.00 1.799201
604.10 1.837611
604.20 1.901527
604.30 1.990962
604.40 1.966414
604.50 1.947272
604.60 2.017615
604.70 1.994301
604.80 1.995423
604.90 2.093465
605.00 2.220893
605.10 2.199849
605.20 2.122713
605.30 2.129594
605.40 2.122764
605.50 2.092923
605.60 2.13345
605.70 2.154633
605.80 2.15045
605.90 2.132832
606.00 2.237213
606.10 2.244345
606.20 2.225669
606.30 2.209287
606.40 2.165862
606.50 2.115568
606.60 2.044847
606.70 2.009587
606.80 2.05886
606.90 2.219129
607.00 2.334221
607.10 2.324921
607.20 2.266033
607.30 2.260866
607.40 2.224182
607.50 2.202747
607.60 2.22732
607.70 2.322892
607.80 2.359714
607.90 2.339753
608.00 2.214567
608.10 2.046208
608.20 1.953938
608.30 1.924387
608.40 1.985077
608.50 2.093376
608.60 2.191191
608.70 2.189427
608.80 2.166605
608.90 2.184739
609.00 2.200743
609.10 2.202419
609.20 2.193296
609.30 2.196963
609.40 2.313403
609.50 2.325639
609.60 2.288993
609.70 2.301242
609.80 2.320787
609.90 2.315167
610.00 2.348713
610.10 2.371232
610.20 2.270418
610.30 2.098757
610.40 2.0808
610.50 2.117635
610.60 2.203402
610.70 2.275283
610.80 2.322905
610.90 2.300713
611.00 2.189755
611.10 2.158855
611.20 2.173158
611.30 2.162623
611.40 2.191771
611.50 2.186503
611.60 2.156612
611.70 2.063964
611.80 1.974529
611.90 1.95143
612.00 2.016821
612.10 2.068412
612.20 2.033984
612.30 1.978196
612.40 1.986602
612.50 1.988051
612.60 1.983981
612.70 2.051463
612.80 2.112506
612.90 2.130967
613.00 2.125082
613.10 2.117471
613.20 2.114837
613.30 2.06714
613.40 1.992928
613.50 1.971669
613.60 2.012776
613.70 2.091965
613.80 2.152806
613.90 2.115417
614.00 2.072168
614.10 2.040084
614.20 1.942029
614.30 1.874837
614.40 1.949464
614.50 2.042075
614.60 2.0948
614.70 2.011982
614.80 1.812282
614.90 1.682093
615.00 1.624957
615.10 1.592785
615.20 1.535031
615.30 1.557097
615.40 1.615342
615.50 1.636462
615.60 1.675969
615.70 1.583333
615.80 1.486716
615.90 1.425182
616.00 1.342716
616.10 1.193268
616.20 1.085181
616.30 1.066014
616.40 1.093782
616.50 1.130554
616.60 1.124169
616.70 1.120644
616.80 1.118604
616.90 1.13995
617.00 1.119342
617.10 1.167897
617.20 1.133872
617.30 1.060516
617.40 1.034806
617.50 1.000299
617.60 1.005898
617.70 1.06085
617.80 1.05795
617.90 1.065673
618.00 1.128511
618.10 1.123961
618.20 1.126291
618.30 1.139888
618.40 1.162281
618.50 1.142232
618.60 1.077013
618.70 1.015682
618.80 0.8906169
618.90 0.8276346
619.00 0.8656604
619.10 0.8863159
619.20 0.9030233
619.30 0.903293
619.40 0.8947036
619.50 0.9273988
619.60 0.9736296
619.70 1.027145
619.80 1.011131
619.90 0.9683016
620.00 0.9245622
620.10 0.9475251
620.20 1.041844
620.30 1.081778
620.40 1.010231
620.50 1.003971
620.60 1.06689
620.70 1.086546
620.80 1.072717
620.90 1.068148
621.00 1.075769
621.10 1.062758
621.20 1.045496
621.30 1.065952
621.40 1.014207
621.50 0.9548164
621.60 0.96547
621.70 0.9460305
621.80 0.9363007
621.90 0.9482472
622.00 0.943834
622.10 1.029433
622.20 1.052774
622.30 0.9934534
622.40 0.9330784
622.50 0.9200923
622.60 0.9010234
622.70 0.8435342
622.80 0.8121357
622.90 0.8559797
623.00 0.934234
623.10 0.9592989
623.20 0.9453689
623.30 0.9719321
623.40 0.9422197
623.50 0.9053458
623.60 0.9454912
623.70 1.019727
623.80 1.029705
623.90 1.001361
624.00 1.013644
624.10 1.003172
624.20 1.003528
624.30 0.979657
624.40 0.9426646
624.50 0.9461275
624.60 0.9393919
624.70 0.9696953
624.80 1.002296
624.90 1.052723
625.00 1.052443
625.10 1.039029
625.20 1.062009
625.30 1.096045
625.40 1.125768
625.50 1.11555
625.60 1.11099
625.70 1.131726
625.80 1.141807
625.90 1.12681
626.00 1.098464
626.10 1.058448
626.20 1.058226
626.30 1.137368
626.40 1.204703
626.50 1.250359
626.60 1.258626
626.70 1.267257
626.80 1.290028
626.90 1.274742
627.00 1.280665
627.10 1.280917
627.20 1.201811
627.30 1.192101
627.40 1.270407
627.50 1.392039
627.60 1.382021
627.70 1.334953
627.80 1.315987
627.90 1.281496
628.00 1.263073
628.10 1.320549
628.20 1.3981
628.30 1.371952
628.40 1.380836
628.50 1.492009
628.60 1.554627
628.70 1.490559
628.80 1.529524
628.90 1.688293
629.00 1.729312
629.10 1.622827
629.20 1.531313
629.30 1.59814
629.40 1.663317
629.50 1.671294
629.60 1.685433
629.70 1.79721
629.80 1.879714
629.90 1.748202
630.00 1.581708
630.10 1.559302
630.20 1.891585
630.30 2.186239
630.40 2.110477
630.50 2.046511
630.60 1.979936
630.70 2.048212
630.80 2.174557
630.90 2.225367
631.00 2.217907
631.10 2.202621
631.20 2.257829
631.30 2.312672
631.40 2.392504
631.50 2.445053
631.60 2.434556
631.70 2.496557
631.80 2.603949
631.90 2.613476
632.00 2.55799
632.10 2.596375
632.20 2.551639
632.30 2.436446
632.40 2.407538
632.50 2.453156
632.60 2.518761
632.70 2.544254
632.80 2.574007
632.90 2.62667
633.00 2.681777
633.10 2.708215
633.20 2.741446
633.30 2.759631
633.40 2.801998
633.50 2.863708
633.60 2.894784
633.70 2.922105
633.80 2.981081
633.90 3.055204
634.00 3.070465
634.10 3.125371
634.20 3.16368
634.30 3.191215
634.40 3.253316
634.50 3.293705
634.60 3.338466
634.70 3.365648
634.80 3.359083
634.90 3.432614
635.00 3.491741
635.10 3.45468
635.20 3.345473
635.30 3.226399
635.40 3.120469
635.50 3.029005
635.60 2.964774
635.70 2.882586
635.80 2.833061
635.90 2.812129
636.00 2.836854
636.10 2.86086
636.20 2.847036
636.30 2.753267
636.40 2.746437
636.50 2.923327
636.60 3.047316
636.70 2.958864
636.80 2.780033
636.90 2.754981
637.00 2.891961
637.10 3.000135
637.20 3.004797
637.30 3.02772
637.40 3.090905
637.50 3.063396
637.60 3.01125
637.70 3.005831
637.80 3.007028
637.90 3.003525
638.00 2.927826
638.10 2.806081
638.20 2.68426
638.30 2.620432
638.40 2.614408
638.50 2.653574
638.60 2.676825
638.70 2.665483
638.80 2.65554
638.90 2.61248
639.00 2.618252
639.10 2.659207
639.20 2.774652
639.30 2.90813
639.40 2.962279
639.50 3.04501
639.60 3.189312
639.70 3.353488
639.80 3.454566
639.90 3.400543
640.00 3.360935
640.10 3.364829
640.20 3.376763
640.30 3.461888
640.40 3.519881
640.50 3.612995
640.60 3.703766
640.70 3.719026
640.80 3.706072
640.90 3.663012
641.00 3.654783
641.10 3.644437
641.20 3.646907
641.30 3.67429
641.40 3.705958
641.50 3.67894
641.60 3.592669
641.70 3.485201
641.80 3.452537
641.90 3.413938
642.00 3.334547
642.10 3.29024
642.20 3.265565
642.30 3.193723
642.40 3.132604
642.50 3.149264
642.60 3.225983
642.70 3.279906
642.80 3.315355
642.90 3.34783
643.00 3.396397
643.10 3.496102
643.20 3.525527
643.30 3.511766
643.40 3.48786
643.50 3.492888
643.60 3.569872
643.70 3.599423
643.80 3.597319
643.90 3.572569
644.00 3.542577
644.10 3.570855
644.20 3.639157
644.30 3.770416
644.40 3.933042
644.50 4.037246
644.60 4.032281
644.70 3.944812
644.80 3.840394
644.90 3.712436
645.00 3.616511
645.10 3.644563
645.20 3.730797
645.30 3.784051
645.40 3.840734
645.50 3.893611
645.60 3.930862
645.70 3.922179
645.80 3.918449
645.90 3.969763
646.00 3.993064
646.10 3.963778
646.20 3.936306
646.30 3.933609
646.40 3.988653
646.50 4.041644
646.60 4.12474
646.70 4.235345
646.80 4.319638
646.90 4.376207
647.00 4.455876
647.10 4.480058
647.20 4.486334
647.30 4.537686
647.40 4.609075
647.50 4.656924
647.60 4.689764
647.70 4.706751
647.80 4.694389
647.90 4.577533
648.00 4.353625
648.10 4.129062
648.20 4.055115
648.30 4.065637
648.40 4.065524
648.50 4.031625
648.60 3.907964
648.70 3.8504
648.80 3.929728
648.90 4.094508
649.00 4.244103
649.10 4.315921
649.20 4.309217
649.30 4.275015
649.40 4.252988
649.50 4.296476
649.60 4.369012
649.70 4.447281
649.80 4.534851
649.90 4.612818
650.00 4.643276
650.10 4.749043
650.20 4.865445
650.30 4.978331
650.40 5.090449
650.50 5.144838
650.60 5.205654
650.70 5.281227
650.80 5.343366
650.90 5.410722
651.00 5.487089
651.10 5.608797
651.20 5.664622
651.30 5.536437
651.40 5.37109
651.50 5.262538
651.60 5.264983
651.70 5.36615
651.80 5.546078
651.90 5.721166
652.00 5.827853
652.10 5.919064
652.20 6.019008
652.30 6.100151
652.40 6.158069
652.50 6.163298
652.60 6.173077
652.70 6.294243
652.80 6.50967
652.90 6.65735
653.00 6.681545
653.10 6.674866
653.20 6.691652
653.30 6.734094
653.40 6.775516
653.50 6.896266
653.60 7.024791
653.70 7.1203
653.80 7.308898
653.90 7.4686
654.00 7.53922
654.10 7.610067
654.20 7.663763
654.30 7.57395
654.40 7.302836
654.50 6.980005
654.60 6.722098
654.70 6.55423
654.80 6.4251
654.90 6.318993
655.00 6.238191
655.10 6.054356
655.20 5.824135
655.30 5.695509
655.40 5.685579
655.50 5.715458
655.60 5.711639
655.70 5.824979
655.80 5.9947
655.90 6.095098
656.00 6.252531
656.10 6.89086
656.20 8.537454
656.30 10.80388
656.40 12.41855
656.50 12.10549
656.60 10.01222
656.70 7.393292
656.80 5.679064
656.90 5.056689
657.00 4.962377
657.10 4.944294
657.20 4.842888
657.30 4.71309
657.40 4.604916
657.50 4.612944
657.60 4.753478
657.70 4.914403
657.80 4.964003
657.90 4.787843
658.00 4.510933
658.10 4.342737
658.20 4.306053
658.30 4.374645
658.40 4.550641
658.50 4.750366
658.60 4.939127
658.70 5.088483
658.80 5.213757
658.90 5.298201
659.00 5.315718
659.10 5.308812
659.20 5.284579
659.30 5.168214
659.40 4.944924
659.50 4.696241
659.60 4.545902
659.70 4.544768
659.80 4.607223
659.90 4.641877
660.00 4.62213
660.10 4.615401
660.20 4.624663
660.30 4.666111
660.40 4.725124
660.50 4.734513
660.60 4.720941
660.70 4.673961
660.80 4.588597
660.90 4.586367
661.00 4.624487
661.10 4.6803
661.20 4.749421
661.30 4.854229
661.40 4.935674
661.50 4.9419
661.60 4.923955
661.70 4.825157
661.80 4.712636
661.90 4.600783
662.00 4.437452
662.10 4.303584
662.20 4.267908
662.30 4.244406
662.40 4.197817
662.50 4.118086
662.60 3.968604
662.70 3.777347
662.80 3.600255
662.90 3.610374
663.00 3.804945
663.10 4.029899
663.20 4.225768
663.30 4.321932
663.40 4.302953
663.50 4.175285
663.60 3.944547
663.70 3.692008
663.80 3.452512
663.90 3.375604
664.00 3.482857
664.10 3.609631
664.20 3.745377
664.30 3.833816
664.40 3.900479
664.50 3.95764
664.60 3.974741
664.70 3.986851
664.80 3.958233
664.90 3.863115
665.00 3.692361
665.10 3.425494
665.20 3.109001
665.30 2.853929
665.40 2.742404
665.50 2.770266
665.60 2.868081
665.70 2.938651
665.80 2.991629
665.90 3.005554
666.00 2.979594
666.10 3.00631
666.20 3.074901
666.30 3.165949
666.40 3.224711
666.50 3.285048
666.60 3.379233
666.70 3.4913
666.80 3.592102
666.90 3.618301
667.00 3.641387
667.10 3.664524
667.20 3.687648
667.30 3.690458
667.40 3.630172
667.50 3.600973
667.60 3.600797
667.70 3.644197
667.80 3.718459
667.90 3.708743
668.00 3.574686
668.10 3.315935
668.20 2.953042
668.30 2.640153
668.40 2.517488
668.50 2.555407
668.60 2.651029
668.70 2.708052
668.80 2.760072
668.90 2.86265
669.00 2.946918
669.10 2.945897
669.20 2.881288
669.30 2.815129
669.40 2.810151
669.50 2.849695
669.60 2.899384
669.70 2.99212
669.80 3.090754
669.90 3.105889
670.00 3.091409
670.10 3.093237
670.20 3.125409
670.30 3.161261
670.40 3.223072
670.50 3.288248
670.60 3.311902
670.70 3.341579
670.80 3.398274
670.90 3.482996
671.00 3.480186
671.10 3.430812
671.20 3.393145
671.30 3.327994
671.40 3.247545
671.50 3.121212
671.60 2.929653
671.70 2.728933
671.80 2.545351
671.90 2.412213
672.00 2.341631
672.10 2.344542
672.20 2.404211
672.30 2.479569
672.40 2.534236
672.50 2.541734
672.60 2.587415
672.70 2.653234
672.80 2.684071
672.90 2.728908
673.00 2.780877
673.10 2.807555
673.20 2.792836
673.30 2.784028
673.40 2.80758
673.50 2.83175
673.60 2.810882
673.70 2.828423
673.80 2.918186
673.90 3.015194
674.00 3.057964
674.10 3.065298
674.20 3.086936
674.30 3.16988
674.40 3.281066
674.50 3.305841
674.60 3.246121
674.70 3.139107
674.80 2.962846
674.90 2.784128
675.00 2.65733
675.10 2.593451
675.20 2.647588
675.30 2.736683
675.40 2.821656
675.50 2.869291
675.60 2.90537
675.70 2.951606
675.80 2.982896
675.90 2.973822
676.00 2.951467
676.10 2.941259
676.20 2.96054
676.30 3.057548
676.40 3.179798
676.50 3.255749
676.60 3.335971
676.70 3.410019
676.80 3.432841
676.90 3.452021
677.00 3.48132
677.10 3.506649
677.20 3.521658
677.30 3.540611
677.40 3.535646
677.50 3.56497
677.60 3.70088
677.70 3.792898
677.80 3.782212
677.90 3.763536
678.00 3.748086
678.10 3.670749
678.20 3.446602
678.30 3.169527
678.40 2.932766
678.50 2.786737
678.60 2.741207
678.70 2.729361
678.80 2.734414
678.90 2.743866
679.00 2.8193
679.10 2.913057
679.20 2.93322
679.30 2.939571
679.40 2.946577
679.50 2.989638
679.60 3.057145
679.70 3.10851
679.80 3.135944
679.90 3.146996
680.00 3.197957
680.10 3.232498
680.20 3.25968
680.30 3.335757
680.40 3.385269
680.50 3.36803
680.60 3.307403
680.70 3.2482
680.80 3.242051
680.90 3.335782
681.00 3.453621
681.10 3.512849
681.20 3.548752
681.30 3.576009
681.40 3.584692
681.50 3.535986
681.60 3.422898
681.70 3.299174
681.80 3.272748
681.90 3.28753
682.00 3.328209
682.10 3.379573
682.20 3.374394
682.30 3.361805
682.40 3.342776
682.50 3.342688
682.60 3.396321
682.70 3.458133
682.80 3.491653
682.90 3.542186
683.00 3.667926
683.10 3.717666
683.20 3.632226
683.30 3.556918
683.40 3.557686
683.50 3.663138
683.60 3.730078
683.70 3.681498
683.80 3.593664
683.90 3.548285
684.00 3.604338
684.10 3.681511
684.20 3.73677
684.30 3.754211
684.40 3.794914
684.50 3.871331
684.60 3.868924
684.70 3.809633
684.80 3.744028
684.90 3.734678
685.00 3.709424
685.10 3.61815
685.20 3.448051
685.30 3.288362
685.40 3.24786
685.50 3.269888
685.60 3.349984
685.70 3.389151
685.80 3.404399
685.90 3.456368
686.00 3.44112
686.10 3.413825
686.20 3.422596
686.30 3.435172
686.40 3.499126
686.50 3.549659
686.60 3.616511
686.70 3.728881
686.80 3.705744
686.90 3.535205
687.00 3.396586
687.10 3.446363
687.20 3.587414
687.30 3.691769
687.40 3.786295
687.50 3.924851
687.60 4.01615
687.70 4.032457
687.80 4.071321
687.90 4.081995
688.00 4.065108
688.10 4.032003
688.20 4.027391
688.30 4.030844
688.40 3.991312
688.50 3.917529
688.60 3.782842
688.70 3.698561
688.80 3.775092
688.90 3.950899
689.00 4.068057
689.10 4.071737
689.20 3.961119
689.30 3.905053
689.40 3.995862
689.50 4.113007
689.60 4.223033
689.70 4.277586
689.80 4.230519
689.90 4.190848
690.00 4.151758
690.10 4.044013
690.20 3.864035
690.30 3.713217
690.40 3.778582
690.50 3.986864
690.60 4.186098
690.70 4.394316
690.80 4.583456
690.90 4.731829
691.00 4.787667
691.10 4.762325
691.20 4.72089
691.30 4.73261
691.40 4.782954
691.50 4.844476
691.60 4.885456
691.70 4.786281
691.80 4.559878
691.90 4.225503
692.00 3.914076
692.10 3.858855
692.20 4.073072
692.30 4.403137
692.40 4.691717
692.50 4.908858
692.60 5.068913
692.70 5.136685
692.80 5.115148
692.90 5.050678
693.00 5.052833
693.10 5.148001
693.20 5.332982
693.30 5.543822
693.40 5.667609
693.50 5.683197
693.60 5.633748
693.70 5.608797
693.80 5.618374
693.90 5.63308
694.00 5.673632
694.10 5.748008
694.20 5.919102
694.30 6.181142
694.40 6.41827
694.50 6.631
694.60 6.814141
694.70 6.957208
694.80 7.078601
694.90 7.185451
695.00 7.264073
695.10 7.23272
695.20 7.03728
695.30 6.798603
695.40 6.544967
695.50 6.362658
695.60 6.343894
695.70 6.395813
695.80 6.428956
695.90 6.415837
696.00 6.440184
696.10 6.474587
696.20 6.531358
696.30 6.61216
696.40 6.706522
696.50 6.84872
696.60 6.976464
696.70 7.069767
696.80 7.139165
696.90 7.156013
697.00 7.09889
697.10 6.979173
697.20 6.850144
697.30 6.740231
697.40 6.748397
697.50 6.90142
697.60 7.15028
697.70 7.413895
697.80 7.589173
697.90 7.701077
698.00 7.710351
698.10 7.651464
698.20 7.610054
698.30 7.655609
698.40 7.772541
698.50 7.881912
698.60 7.920927
698.70 7.894362
698.80 7.862064
698.90 7.80523
699.00 7.728813
699.10 7.63241
699.20 7.51854
699.30 7.464769
699.40 7.482928
699.50 7.511698
699.60 7.6235
699.70 7.753424
699.80 7.794947
699.90 7.772339
700.00 7.710288
700.10 7.746707
700.20 7.893556
700.30 8.01985
700.40 8.060025
700.50 7.970086
700.60 7.827333
700.70 7.862971
700.80 8.077793
700.90 8.326539
701.00 8.471862
701.10 8.460092
701.20 8.456085
701.30 8.569589
701.40 8.792388
701.50 9.006441
701.60 9.068076
701.70 8.992944
701.80 8.931523
701.90 8.963696
702.00 9.11561
702.10 9.341937
702.20 9.504247
702.30 9.457659
702.40 9.161971
702.50 8.776144
702.60 8.592612
702.70 8.723532
702.80 9.151714
702.90 9.787106
703.00 10.38614
703.10 10.66012
703.20 10.58127
703.30 10.41777
703.40 10.40333
703.50 10.65776
703.60 11.14172
703.70 11.57846
703.80 11.76344
703.90 11.72238
704.00 11.60425
704.10 11.69158
704.20 11.95433
704.30 12.22391
704.40 12.42401
704.50 12.52001
704.60 12.56826
704.70 12.62417
704.80 12.68416
704.90 12.70684
705.00 12.68592
705.10 12.67383
705.20 12.63615
705.30 12.34513
705.40 11.34503
705.50 9.476927
705.60 7.245876
705.70 5.502526
705.80 4.689613
705.90 4.638072
706.00 4.720966
706.10 4.554119
706.20 4.306595
706.30 4.199241
706.40 4.310262
706.50 4.507505
706.60 4.693973
706.70 4.877593
706.80 5.004341
706.90 5.108054
707.00 5.266256
707.10 5.425328
707.20 5.561401
707.30 5.679291
707.40 5.791383
707.50 5.850448
707.60 5.81016
707.70 5.770187
707.80 5.839018
707.90 5.981796
708.00 6.079409
708.10 6.122469
708.20 6.19382
708.30 6.300015
708.40 6.415459
708.50 6.52115
708.60 6.520066
708.70 6.22448
708.80 5.544717
708.90 4.636559
709.00 3.773353
709.10 3.267481
709.20 3.20635
709.30 3.340117
709.40 3.451466
709.50 3.43453
709.60 3.369731
709.70 3.369126
709.80 3.443615
709.90 3.571107
710.00 3.658084
710.10 3.714263
710.20 3.768388
710.30 3.792583
710.40 3.803269
710.50 3.823495
710.60 3.908859
710.70 4.078327
710.80 4.322133
710.90 4.597456
711.00 4.818491
711.10 4.991903
711.20 5.121285
711.30 5.179342
711.40 5.167168
711.50 5.095553
711.60 5.027075
711.70 4.98903
711.80 5.045032
711.90 5.204533
712.00 5.425378
712.10 5.658435
712.20 5.811584
712.30 5.861524
712.40 5.775051
712.50 5.41754
712.60 4.656369
712.70 3.695197
712.80 2.932968
712.90 2.584958
713.00 2.608321
713.10 2.766851
713.20 2.831876
713.30 2.759253
713.40 2.681361
713.50 2.675867
713.60 2.764986
713.70 2.907814
713.80 2.999694
713.90 2.991326
714.00 2.97047
714.10 3.019491
714.20 3.128484
714.30 3.284329
714.40 3.410233
714.50 3.447295
714.60 3.423944
714.70 3.426616
714.80 3.492863
714.90 3.573804
715.00 3.617129
715.10 3.635074
715.20 3.68354
715.30 3.752824
715.40 3.846418
715.50 4.00375
715.60 4.198485
715.70 4.294851
715.80 4.230103
715.90 4.058089
716.00 3.854508
716.10 3.679381
716.20 3.603053
716.30 3.645659
716.40 3.731893
716.50 3.769156
716.60 3.758193
716.70 3.78448
716.80 3.839109
716.90 3.870147
717.00 3.928455
717.10 4.029294
717.20 4.183539
717.30 4.327124
717.40 4.381198
717.50 4.369415
717.60 4.333677
717.70 4.341212
717.80 4.390422
717.90 4.445933
718.00 4.527706
718.10 4.659356
718.20 4.779677
718.30 4.848357
718.40 4.94166
718.50 5.075944
718.60 5.230832
718.70 5.352112
718.80 5.431389
718.90 5.50545
719.00 5.554407
719.10 5.57273
719.20 5.547237
719.30 5.531523
719.40 5.587222
719.50 5.642758
719.60 5.571987
719.70 5.323241
719.80 4.958282
719.90 4.61399
720.00 4.46205
720.10 4.459001
720.20 4.505312
720.30 4.561894
720.40 4.537812
720.50 4.509055
720.60 4.544012
720.70 4.561188
720.80 4.616951
720.90 4.725679
721.00 4.822574
721.10 4.920338
721.20 4.99334
721.30 5.067148
721.40 5.165291
721.50 5.228715
721.60 5.279148
721.70 5.367272
721.80 5.471135
721.90 5.5551
722.00 5.593989
722.10 5.62126
722.20 5.703952
722.30 5.813915
722.40 5.94336
722.50 6.122217
722.60 6.259475
722.70 6.379229
722.80 6.529656
722.90 6.60286
723.00 6.544363
723.10 6.364901
723.20 6.14117
723.30 6.025322
723.40 6.092237
723.50 6.345709
723.60 6.64253
723.70 6.834354
723.80 6.953554
723.90 7.027652
724.00 7.04663
724.10 7.061576
724.20 7.04159
724.30 7.06276
724.40 7.165515
724.50 7.353092
724.60 7.60979
724.70 7.716615
724.80 7.769592
724.90 7.964642
725.00 8.190012
725.10 8.408513
725.20 8.455165
725.30 8.328404
725.40 8.259359
725.50 8.351024
725.60 8.563742
725.70 8.766075
725.80 8.846021
725.90 8.818763
726.00 8.754822
726.10 8.783415
726.20 8.977419
726.30 9.277668
726.40 9.568151
726.50 9.69103
726.60 9.70062
726.70 9.737934
726.80 9.810747
726.90 9.860562
727.00 9.761487
727.10 9.41504
727.20 8.912822
727.30 8.585316
727.40 8.699916
727.50 9.196122
727.60 9.673174
727.70 9.908637
727.80 9.904857
727.90 9.657636
728.00 9.438492
728.10 9.418606
728.20 9.532173
728.30 9.731041
728.40 9.919992
728.50 10.05885
728.60 10.22653
728.70 10.40832
728.80 10.5413
728.90 10.6657
729.00 10.80157
729.10 10.89913
729.20 10.9486
729.30 10.98454
729.40 11.05445
729.50 11.18437
729.60 11.39263
729.70 11.65258
729.80 11.83693
729.90 11.87762
730.00 11.78216
730.10 11.73768
730.20 11.97269
730.30 12.32568
730.40 12.54785
730.50 12.60578
730.60 12.61498
730.70 12.71465
730.80 12.88831
730.90 13.06423
731.00 13.20385
731.10 13.25426
731.20 13.20133
731.30 13.21633
731.40 13.41304
731.50 13.69255
731.60 13.88435
731.70 13.95152
731.80 14.02057
731.90 14.13953
732.00 14.26328
732.10 14.32377
732.20 14.38224
732.30 14.52225
732.40 14.63592
732.50 14.58186
732.60 14.39069
732.70 14.16864
732.80 14.05057
732.90 14.24715
733.00 14.67145
733.10 15.02997
733.20 15.16141
733.30 15.08945
733.40 15.08315
733.50 15.27848
733.60 15.57563
733.70 15.87631
733.80 16.1359
733.90 16.3994
734.00 16.59272
734.10 16.65812
734.20 16.65144
734.30 16.5035
734.40 16.12494
734.50 15.50329
734.60 15.04371
734.70 15.07635
734.80 15.34275
734.90 15.66598
735.00 15.97662
735.10 16.21302
735.20 16.3684
735.30 16.42335
735.40 16.42158
735.50 16.30275
735.60 16.01997
735.70 15.74424
735.80 15.68085
735.90 15.95671
736.00 16.38353
736.10 16.67992
736.20 16.80165
736.30 16.82383
736.40 16.93132
736.50 17.17277
736.60 17.4049
736.70 17.59103
736.80 17.75434
736.90 17.85982
737.00 18.0118
737.10 18.20498
737.20 18.24153
737.30 18.08627
737.40 17.79316
737.50 17.49412
737.60 17.3778
737.70 17.39746
737.80 17.54112
737.90 17.79202
738.00 18.01646
738.10 18.15936
738.20 18.16428
738.30 18.09283
738.40 18.06409
738.50 18.12685
738.60 18.29105
738.70 18.44114
738.80 18.55556
738.90 18.75568
739.00 19.0062
739.10 19.17267
739.20 19.08395
739.30 18.70389
739.40 18.22099
739.50 17.8631
739.60 17.75724
739.70 17.86335
739.80 18.08779
739.90 18.35305
740.00 18.53452
740.10 18.66129
740.20 18.83167
740.30 18.96676
740.40 18.9684
740.50 18.7025
740.60 18.1726
740.70 17.72259
740.80 17.57187
740.90 17.73758
741.00 18.15508
741.10 18.62399
741.20 18.91005
741.30 18.96159
741.40 18.96373
741.50 19.06971
741.60 19.16952
741.70 19.01691
741.80 18.54863
741.90 18.00764
742.00 17.71654
742.10 17.76455
742.20 18.02364
742.30 18.33176
742.40 18.56451
742.50 18.74131
742.60 18.91169
742.70 19.0401
742.80 19.11344
742.90 19.18338
743.00 19.2261
743.10 19.26706
743.20 19.34695
743.30 19.37354
743.40 19.25962
743.50 18.90249
743.60 18.37523
743.70 18.07103
743.80 18.22767
743.90 18.7679
744.00 19.35426
744.10 19.52237
744.20 19.29642
744.30 18.94344
744.40 18.62563
744.50 18.45235
744.60 18.39237
744.70 18.3625
744.80 18.33365
744.90 18.30265
745.00 18.29824
745.10 18.43055
745.20 18.69569
745.30 18.94193
745.40 19.03531
745.50 18.9069
745.60 18.70237
745.70 18.59879
745.80 18.62487
745.90 18.70275
746.00 18.75303
746.10 18.81591
746.20 18.91761
746.30 19.03052
746.40 19.16271
746.50 19.25231
746.60 19.2905
746.70 19.291
746.80 19.21879
746.90 19.22119
747.00 19.48419
747.10 19.90609
747.20 20.18736
747.30 20.02266
747.40 19.4339
747.50 18.91849
747.60 18.80231
747.70 19.10865
747.80 19.56332
747.90 19.77503
748.00 19.724
748.10 19.56887
748.20 19.45797
748.30 19.59231
748.40 19.95095
748.50 20.1982
748.60 20.19883
748.70 19.99519
748.80 19.71543
748.90 19.61083
749.00 19.73383
749.10 19.95499
749.20 20.10117
749.30 20.02593
749.40 19.72551
749.50 19.36787
749.60 19.20922
749.70 19.35225
749.80 19.74139
749.90 20.27167
750.00 20.77876
750.10 21.09318
750.20 21.17597
750.30 21.11309
750.40 21.04794
750.50 20.99047
750.60 20.80346
750.70 20.46964
750.80 20.22504
750.90 20.39202
751.00 20.97611
751.10 21.55818
751.20 21.77128
751.30 21.56045
751.40 21.16211
751.50 20.97825
751.60 21.11649
751.70 21.4396
751.80 21.62333
751.90 21.44489
752.00 21.10628
752.10 20.86723
752.20 20.91133
752.30 21.19298
752.40 21.4643
752.50 21.54999
752.60 21.34824
752.70 20.83749
752.80 20.25403
752.90 19.98964
753.00 20.22492
753.10 20.87302
753.20 21.5641
753.30 21.95879
753.40 21.94594
753.50 21.64312
753.60 21.37419
753.70 21.428
753.80 21.85268
753.90 22.43325
754.00 22.95622
754.10 23.27756
754.20 23.32507
754.30 23.22463
754.40 23.18015
754.50 23.24593
754.60 23.32734
754.70 23.28021
754.80 23.02641
754.90 22.76492
755.00 22.71754
755.10 22.88741
755.20 23.14537
755.30 23.25652
755.40 23.1678
755.50 23.01217
755.60 22.9227
755.70 22.99478
755.80 23.14928
755.90 23.31675
756.00 23.49986
756.10 23.62902
756.20 23.63318
756.30 23.47352
756.40 23.2167
756.50 22.95823
756.60 22.6665
756.70 22.30786
756.80 21.91846
756.90 21.61766
757.00 21.6663
757.10 22.1681
757.20 22.93517
757.30 23.68271
757.40 24.09743
757.50 24.18111
757.60 24.0411
757.70 23.68724
757.80 23.26219
757.90 23.00448
758.00 23.06056
758.10 23.52002
758.20 24.22862
758.30 24.87509
758.40 25.24381
758.50 25.221
758.60 24.91919
758.70 24.36459
758.80 23.2201
758.90 21.22751
759.00 18.52343
759.10 15.85703
759.20 14.07602
759.30 13.50592
759.40 13.91384
759.50 14.6707
759.60 15.23412
759.70 15.3648
759.80 15.36291
759.90 15.5876
760.00 15.94121
760.10 16.13464
760.20 15.9286
760.30 15.50342
760.40 15.41105
760.50 15.66069
760.60 15.95103
760.70 16.15392
760.80 16.18505
760.90 16.08373
761.00 15.99464
761.10 16.09822
761.20 16.50841
761.30 17.2693
761.40 18.07821
761.50 18.49142
761.60 18.48953
761.70 18.39237
761.80 18.57207
761.90 19.0275
762.00 19.45382
762.10 19.5196
762.20 19.20884
762.30 18.85536
762.40 18.64075
762.50 18.58366
762.60 18.33087
762.70 17.44094
762.80 15.95343
762.90 14.22611
763.00 12.76506
763.10 11.85107
763.20 11.53829
763.30 11.74757
763.40 12.29349
763.50 12.77023
763.60 12.82605
763.70 12.66992
763.80 12.60061
763.90 12.73318
764.00 12.82492
764.10 12.58001
764.20 12.38874
764.30 12.59767
764.40 12.82958
764.50 12.79795
764.60 12.53703
764.70 12.32972
764.80 12.52351
764.90 12.70092
765.00 12.4854
765.10 12.15156
765.20 11.879
765.30 11.82182
765.40 11.81775
765.50 11.43539
765.60 10.89612
765.70 10.57231
765.80 10.45021
765.90 10.27588
766.00 9.658997
766.10 8.653289
766.20 7.535994
766.30 6.450946
766.40 5.479818
766.50 4.561125
766.60 3.823167
766.70 3.561631
766.80 3.797296
766.90 4.448982
767.00 5.267478
767.10 5.898133
767.20 6.263974
767.30 6.410154
767.40 6.531559
767.50 6.792453
767.60 7.184229
767.70 7.622202
767.80 7.95228
767.90 8.157234
768.00 8.345983
768.10 8.581497
768.20 8.821346
768.30 8.986165
768.40 9.108162
768.50 9.188725
768.60 9.224703
768.70 9.286502
768.80 9.399653
768.90 9.499434
769.00 9.479561
769.10 9.38603
769.20 9.314969
769.30 9.17756
769.40 8.888816
769.50 8.457962
769.60 7.897651
769.70 7.126059
769.80 6.105809
769.90 5.036526
770.00 4.249094
770.10 4.028488
770.20 4.431063
770.30 5.260258
770.40 6.212445
770.50 7.032239
770.60 7.585745
770.70 7.90026
770.80 8.091806
770.90 8.328114
771.00 8.73723
771.10 9.177333
771.20 9.550269
771.30 9.892394
771.40 10.14173
771.50 10.28878
771.60 10.33524
771.70 10.30461
771.80 10.35115
771.90 10.48256
772.00 10.62248
772.10 10.84425
772.20 11.15437
772.30 11.40792
772.40 11.49959
772.50 11.59004
772.60 11.81173
772.70 12.11588
772.80 12.45622
772.90 12.74931
773.00 12.93821
773.10 13.01306
773.20 13.02466
773.30 13.05427
773.40 13.17323
773.50 13.38759
773.60 13.56502
773.70 13.66281
773.80 13.76325
773.90 13.93198
774.00 14.16713
774.10 14.31382
774.20 14.21628
774.30 13.82701
774.40 13.22666
774.50 12.62128
774.60 12.12756
774.70 11.79212
774.80 11.59155
774.90 11.39305
775.00 11.12725
775.10 10.76014
775.20 10.31105
775.30 9.98358
775.40 10.03525
775.50 10.36079
775.60 10.67349
775.70 10.89063
775.80 10.90438
775.90 10.82191
776.00 10.87183
776.10 11.03869
776.20 11.21613
776.30 11.23166
776.40 11.08714
776.50 10.98468
776.60 11.04089
776.70 11.29855
776.80 11.72175
776.90 12.1105
777.00 12.29219
777.10 12.33719
777.20 12.38527
777.30 12.50337
777.40 12.68239
777.50 12.80942
777.60 12.85479
777.70 12.88679
777.80 12.91603
777.90 12.93758
778.00 12.93909
778.10 12.86915
778.20 12.67861
778.30 12.33682
778.40 11.9073
778.50 11.50142
778.60 11.23164
778.70 11.20967
778.80 11.37178
778.90 11.56812
779.00 11.77793
779.10 11.9761
779.20 12.13515
779.30 12.31171
779.40 12.51492
779.50 12.73318
779.60 12.93267
779.70 13.00676
779.80 12.85554
779.90 12.48039
780.00 12.01473
780.10 11.59055
780.20 11.46561
780.30 11.84119
780.40 12.65328
780.50 13.65966
780.60 14.53409
780.70 15.04409
780.80 15.23261
780.90 15.28415
781.00 15.19317
781.10 14.99103
781.20 14.82494
781.30 14.8877
781.40 15.21068
781.50 15.56101
781.60 15.82023
781.70 15.98569
781.80 16.08537
781.90 16.07919
782.00 15.89584
782.10 15.55143
782.20 14.9749
782.30 14.32818
782.40 14.01868
782.50 14.04729
782.60 14.26001
782.70 14.35301
782.80 14.02498
782.90 13.47189
783.00 12.82618
783.10 12.26908
783.20 12.11457
783.30 12.33789
783.40 12.7546
783.50 13.18722
783.60 13.48046
783.70 13.62362
783.80 13.6773
783.90 13.69847
784.00 13.75972
784.10 13.82802
784.20 13.83457
784.30 13.85234
784.40 13.98365
784.50 14.2527
784.60 14.65179
784.70 15.02241
784.80 15.18056
784.90 15.0926
785.00 14.93861
785.10 14.88266
785.20 14.86098
785.30 14.97478
785.40 15.1449
785.50 15.12285
785.60 15.09021
785.70 15.1163
785.80 15.20451
785.90 15.46486
786.00 15.6089
786.10 15.44092
786.20 15.10054
786.30 14.74921
786.40 14.52981
786.50 14.49957
786.60 14.59484
786.70 14.69779
786.80 14.80176
786.90 14.91227
787.00 14.9526
787.10 14.92576
787.20 14.84498
787.30 14.65772
787.40 14.51091
787.50 14.57858
787.60 14.87233
787.70 15.35976
787.80 15.84871
787.90 16.16388
788.00 16.29141
788.10 16.31472
788.20 16.40886
788.30 16.59713
788.40 16.81312
788.50 17.00668
788.60 17.07146
788.70 17.02218
788.80 17.00593
788.90 17.13887
789.00 17.402
789.10 17.60955
789.20 17.65945
789.30 17.62064
789.40 17.61673
789.50 17.71755
789.60 17.72738
789.70 17.52726
789.80 17.21764
789.90 16.82887
790.00 16.411
790.10 16.06798
790.20 15.93087
790.30 16.08398
790.40 16.47817
790.50 16.91204
790.60 17.19218
790.70 17.15778
790.80 16.71823
790.90 15.96603
791.00 15.16872
791.10 14.65709
791.20 14.5036
791.30 14.65822
791.40 15.08328
791.50 15.56769
791.60 15.87593
791.70 15.916
791.80 15.76692
791.90 15.55547
792.00 15.34224
792.10 15.29108
792.20 15.47267
792.30 15.73189
792.40 15.95935
792.50 16.08991
792.60 16.14359
792.70 16.17081
792.80 16.19097
792.90 16.28687
793.00 16.49694
793.10 16.80833
793.20 17.19735
793.30 17.59972
793.40 17.94728
793.50 18.19541
793.60 18.29193
793.70 18.24934
793.80 18.14764
793.90 17.97891
794.00 17.61396
794.10 17.03365
794.20 16.47111
794.30 16.2187
794.40 16.41453
794.50 16.85269
794.60 17.08922
794.70 16.78955
794.80 16.03559
794.90 15.33657
795.00 15.17867
795.10 15.69383
795.20 16.61036
795.30 17.57212
795.40 18.29609
795.50 18.64894
795.60 18.77685
795.70 18.83015
795.80 18.90715
795.90 18.97999
796.00 18.8052
796.10 18.36591
796.20 17.9009
796.30 17.63412
796.40 17.78219
796.50 18.28702
796.60 18.78088
796.70 19.09025
796.80 19.23971
796.90 19.31381
797.00 19.50901
797.10 19.80641
797.20 20.0621
797.30 20.20097
797.40 20.13456
797.50 19.85127
797.60 19.46743
797.70 19.1767
797.80 19.07274
797.90 19.10513
798.00 19.15956
798.10 19.15465
798.20 19.04237
798.30 18.84162
798.40 18.65827
798.50 18.54334
798.60 18.45324
798.70 18.33717
798.80 18.16503
798.90 17.99554
799.00 18.02112
799.10 18.34285
799.20 18.78365
799.30 19.19094
799.40 19.53673
799.50 19.59206
799.60 19.33107
799.70 19.0798
799.80 18.91685
799.90 18.919
800.00 19.16851
800.10 19.44575
800.20 19.65607
800.30 19.86388
800.40 20.03198
800.50 20.13469
800.60 20.21206
800.70 20.3188
800.80 20.47355
800.90 20.63233
801.00 20.76528
801.10 20.86634
801.20 20.96791
801.30 21.12833
801.40 21.33866
801.50 21.54444
801.60 21.68962
801.70 21.79698
801.80 21.8915
801.90 21.98462
802.00 22.11845
802.10 22.1584
802.20 22.01966
802.30 21.83844
802.40 21.7995
802.50 22.00302
802.60 22.30597
802.70 22.58119
802.80 22.852
802.90 23.038
803.00 23.13352
803.10 23.24858
803.20 23.38959
803.30 23.52796
803.40 23.60609
803.50 23.62877
803.60 23.63306
803.70 23.58757
803.80 23.53313
803.90 23.49608
804.00 23.47617
804.10 23.51132
804.20 23.6197
804.30 23.82082
804.40 24.08193
804.50 24.34052
804.60 24.50157
804.70 24.42432
804.80 24.19837
804.90 24.06479
805.00 24.21816
805.10 24.70799
805.20 25.37777
805.30 26.03495
805.40 26.4968
805.50 26.69591
805.60 26.72376
805.70 26.6663
805.80 26.59422
805.90 26.5801
806.00 26.67688
806.10 26.86717
806.20 27.08871
806.30 27.22556
806.40 27.12387
806.50 26.84171
806.60 26.61728
806.70 26.59195
806.80 26.72805
806.90 26.80769
807.00 26.72011
807.10 26.57015
807.20 26.51671
807.30 26.72275
807.40 27.18688
807.50 27.68364
807.60 27.95873
807.70 28.01368
807.80 28.04972
807.90 28.17838
808.00 28.34119
808.10 28.43621
808.20 28.51901
808.30 28.68888
808.40 28.906
808.50 29.12124
808.60 29.32653
808.70 29.42595
808.80 29.34467
808.90 29.2
809.00 29.11078
809.10 29.16308
809.20 29.40529
809.30 29.68378
809.40 29.82165
809.50 29.76998
809.60 29.58625
809.70 29.38336
809.80 29.27738
809.90 29.29527
810.00 29.34455
810.10 29.3826
810.20 29.42936
810.30 29.44309
810.40 29.38903
810.50 29.29653
810.60 29.26188
810.70 29.38979
810.80 29.72814
810.90 30.20688
811.00 30.58897
811.10 30.71763
811.20 30.69873
811.30 30.73275
811.40 30.92039
811.50 31.073
811.60 30.88045
811.70 30.35949
811.80 29.84672
811.90 29.75272
812.00 30.22352
812.10 30.97786
812.20 31.62937
812.30 31.91467
812.40 31.87422
812.50 31.79231
812.60 31.863
812.70 32.1163
812.80 32.40778
812.90 32.56341
813.00 32.56089
813.10 32.46474
813.20 32.36191
813.30 32.32952
813.40 32.38333
813.50 32.48566
813.60 32.60852
813.70 32.75811
813.80 32.97826
813.90 33.29759
814.00 33.58503
814.10 33.60772
814.20 33.26898
814.30 32.73215
814.40 32.24849
814.50 31.99129
814.60 31.98411
814.70 32.09588
814.80 32.22442
814.90 32.25152
815.00 32.09084
815.10 32.00603
815.20 32.23034
815.30 32.54438
815.40 32.69749
815.50 32.65301
815.60 32.47961
815.70 32.34288
815.80 32.31931
815.90 32.31818
816.00 32.2316
816.10 32.01725
816.20 31.76219
816.30 31.65482
816.40 31.83893
816.50 32.25227
816.60 32.73265
816.70 33.16275
816.80 33.44339
816.90 33.56474
817.00 33.51572
817.10 33.33489
817.20 33.18707
817.30 33.09797
817.40 33.05715
817.50 33.03837
817.60 32.87051
817.70 32.44823
817.80 31.84939
817.90 31.18314
818.00 30.41254
818.10 29.13939
818.20 26.94165
818.30 23.79058
818.40 20.47052
818.50 18.52633
818.60 18.84036
818.70 21.11208
818.80 24.16346
818.90 26.5641
819.00 27.79793
819.10 28.07706
819.20 27.48705
819.30 25.91536
819.40 23.30352
819.50 19.99607
819.60 17.23402
819.70 16.23546
819.80 17.22494
819.90 19.56547
820.00 22.14215
820.10 24.261
820.20 25.91246
820.30 27.25896
820.40 28.30969
820.50 28.89126
820.60 28.82901
820.70 28.30301
820.80 27.78521
820.90 27.61773
821.00 27.95974
821.10 28.64376
821.20 29.3046
821.30 29.69651
821.40 29.75057
821.50 29.59986
821.60 29.48442
821.70 29.50686
821.80 29.59557
821.90 29.70445
822.00 29.8534
822.10 30.09889
822.20 30.42414
822.30 30.66181
822.40 30.83332
822.50 31.11799
822.60 31.43921
822.70 31.65533
822.80 31.7666
822.90 31.81461
823.00 32.02909
823.10 32.51376
823.20 32.89105
823.30 32.83724
823.40 32.34048
823.50 31.70838
823.60 31.45156
823.70 31.68078
823.80 32.21006
823.90 32.86068
824.00 33.44175
824.10 33.83883
824.20 33.96548
824.30 33.81401
824.40 33.44994
824.50 33.08764
824.60 33.04908
824.70 33.44553
824.80 34.15035
824.90 34.80614
825.00 35.04255
825.10 34.68101
825.20 33.84589
825.30 32.95532
825.40 32.28214
825.50 31.80277
825.60 31.39283
825.70 30.96349
825.80 30.6274
825.90 30.67781
826.00 31.274
826.10 32.19569
826.20 32.98141
826.30 33.39903
826.40 33.58717
826.50 33.69063
826.60 33.84072
826.70 34.05949
826.80 34.12061
826.90 33.95426
827.00 33.60519
827.10 33.00649
827.20 32.15889
827.30 31.26682
827.40 30.61846
827.50 30.37612
827.60 30.49861
827.70 30.79614
827.80 31.15605
827.90 31.48722
828.00 31.61538
828.10 31.5467
828.20 31.31936
828.30 30.94572
828.40 30.55381
828.50 30.32862
828.60 30.40297
828.70 30.59388
828.80 30.58809
828.90 30.18055
829.00 29.33673
829.10 28.44365
829.20 27.96894
829.30 28.06433
829.40 28.56097
829.50 29.03442
829.60 29.23088
829.70 29.30246
829.80 29.46288
829.90 29.63338
830.00 29.3724
830.10 28.96763
830.20 28.56286
830.30 28.08065
830.40 27.59845
830.50 27.18322
830.60 26.76799
830.70 27.06325
830.80 27.35851
830.90 28.01059
831.00 28.66267
831.10 28.94022
831.20 29.21777
831.30 29.08936
831.40 28.96095
831.50 28.95647
831.60 28.952
831.70 29.13901
831.80 29.32602
831.90 29.77779
832.00 30.22957
832.10 30.16171
832.20 30.09385
832.30 30.32124
832.40 30.54864
832.50 30.58859
832.60 30.62854
832.70 29.89997
832.80 29.1714
832.90 28.80072
833.00 28.43004
833.10 29.24316
833.20 30.05629
833.30 30.62117
833.40 31.18604
833.50 30.33227
833.60 29.4785
833.70 29.01287
833.80 28.54723
833.90 28.97834
834.00 29.40944
834.10 29.87218
834.20 30.33492
834.30 30.58909
834.40 30.84327
834.50 30.4627
834.60 30.08213
834.70 29.48172
834.80 28.88131
834.90 28.88641
835.00 28.89151
835.10 29.1656
835.20 29.43969
835.30 29.48316
835.40 29.52664
835.50 29.49161
835.60 29.45658
835.70 29.63892
835.80 29.82127
835.90 30.08717
836.00 30.35306
836.10 30.48034
836.20 30.60762
836.30 30.23366
836.40 29.8597
836.50 29.54094
836.60 29.22218
836.70 29.5831
836.80 29.94401
836.90 30.63767
837.00 31.33134
837.10 31.64947
837.20 31.9676
837.30 31.2803
837.40 30.593
837.50 29.50289
837.60 28.41277
837.70 28.06522
837.80 27.71766
837.90 27.95344
838.00 28.18922
838.10 28.56935
838.20 28.94948
838.30 28.75081
838.40 28.55215
838.50 28.19753
838.60 27.84292
838.70 27.33772
838.80 26.83251
838.90 26.09254
839.00 25.35257
839.10 26.01542
839.20 26.67827
839.30 27.35813
839.40 28.038
839.50 27.95621
839.60 27.87443
839.70 27.79655
839.80 27.71867
839.90 28.22879
840.00 28.73891
840.10 28.69109
840.20 28.80756
840.30 29.30734
840.40 29.80712
840.50 30.13363
840.60 30.4566
840.70 30.77923
840.80 31.10168
840.90 31.273
841.00 31.13748
841.10 30.99773
841.20 30.43978
841.30 29.88183
841.40 29.69511
841.50 29.67517
841.60 29.98968
841.70 30.87364
841.80 31.7176
841.90 31.60152
842.00 31.48544
842.10 30.52352
842.20 29.23266
842.30 28.59263
842.40 28.92886
842.50 29.21798
842.60 28.96535
842.70 28.71272
842.80 28.07727
842.90 27.31421
843.00 27.19084
843.10 27.91544
843.20 28.4827
843.30 27.77689
843.40 27.07109
843.50 24.87052
843.60 22.27262
843.70 20.61564
843.80 20.06322
843.90 19.84495
844.00 21.67921
844.10 23.51347
844.20 23.78889
844.30 23.72214
844.40 22.78213
844.50 20.96889
844.60 19.41867
844.70 19.15262
844.80 18.88657
844.90 19.65473
845.00 20.6054
845.10 20.80694
845.20 20.34415
845.30 19.64996
845.40 18.08523
845.50 16.52051
845.60 16.13863
845.70 15.91804
845.80 15.94345
845.90 16.16213
846.00 16.37924
846.10 16.59135
846.20 16.80346
846.30 17.322
846.40 17.86719
846.50 17.69079
846.60 17.03332
846.70 16.4837
846.80 16.21139
846.90 15.93907
847.00 16.11695
847.10 16.31852
847.20 16.26854
847.30 16.07083
847.40 16.06177
847.50 16.47263
847.60 16.88349
847.70 17.43013
847.80 17.97814
847.90 18.04173
848.00 17.86672
848.10 17.78609
848.20 17.88077
848.30 17.97831
848.40 18.16831
848.50 18.35831
848.60 18.69382
848.70 19.0917
848.80 19.29549
848.90 19.18262
849.00 19.1032
849.10 19.54784
849.20 19.99249
849.30 20.30236
849.40 20.56488
849.50 20.52473
849.60 20.06661
849.70 19.6028
849.80 19.08776
849.90 18.57272
850.00 18.7576
850.10 19.13989
850.20 19.4429
850.30 19.65286
850.40 19.80374
850.50 19.55925
850.60 19.31477
850.70 18.74959
850.80 18.10918
850.90 17.85829
851.00 18.01283
851.10 18.24497
851.20 18.85605
851.30 19.46713
851.40 19.30365
851.50 19.00349
851.60 18.62471
851.70 18.17621
851.80 17.73393
851.90 17.31509
852.00 16.89624
852.10 16.89793
852.20 16.9516
852.30 16.99053
852.40 17.01834
852.50 17.20492
852.60 17.86781
852.70 18.53071
852.80 19.09338
852.90 19.64851
853.00 19.92548
853.10 20.02461
853.20 20.16832
853.30 20.42117
853.40 20.67402
853.50 20.80653
853.60 20.93531
853.70 20.89456
853.80 20.76251
853.90 20.75205
854.00 20.98844
854.10 21.21913
854.20 20.88469
854.30 20.55026
854.40 20.38335
854.50 20.29172
854.60 20.46059
854.70 21.07302
854.80 21.66934
854.90 21.95934
855.00 22.24934
855.10 22.66465
855.20 23.12629
855.30 23.51309
855.40 23.79218
855.50 24.0459
855.60 24.04324
855.70 24.04058
855.80 23.94908
855.90 23.83105
856.00 23.38015
856.10 22.52242
856.20 21.77655
856.30 21.77932
856.40 21.78209
856.50 22.2167
856.60 22.7526
856.70 23.26771
856.80 23.76119
856.90 24.15914
857.00 24.0907
857.10 24.02226
857.20 23.58695
857.30 23.0869
857.40 22.868
857.50 22.89841
857.60 22.97216
857.70 23.20887
857.80 23.44559
857.90 24.05189
858.00 24.70387
858.10 24.68371
858.20 24.1565
858.30 23.77133
858.40 23.81229
858.50 23.85324
858.60 23.86242
858.70 23.86921
858.80 24.08256
858.90 24.42797
859.00 24.66983
859.10 24.65821
859.20 24.64659
859.30 24.5702
859.40 24.4918
859.50 24.66157
859.60 24.95918
859.70 25.20384
859.80 25.34572
859.90 25.48577
860.00 25.53662
860.10 25.58746
860.20 25.84834
860.30 26.19923
860.40 26.36464
860.50 26.22744
860.60 26.11288
860.70 26.35318
860.80 26.59349
860.90 26.76598
861.00 26.91465
861.10 26.70234
861.20 25.99153
861.30 25.29821
861.40 24.76217
861.50 24.22613
861.60 24.13974
861.70 24.17287
861.80 23.9853
861.90 23.54886
862.00 23.22291
862.10 23.52313
862.20 23.82334
862.30 24.23794
862.40 24.67596
862.50 24.5381
862.60 23.84696
862.70 23.38473
862.80 23.89836
862.90 24.41199
863.00 24.2799
863.10 24.05132
863.20 23.86457
863.30 23.71069
863.40 23.71692
863.50 24.23017
863.60 24.74342
863.70 24.58339
863.80 24.36481
863.90 24.3792
864.00 24.54889
864.10 24.7613
864.20 25.08357
864.30 25.40583
864.40 25.79124
864.50 26.17927
864.60 25.97741
864.70 25.45792
864.80 25.12296
864.90 25.16267
865.00 25.20534
865.10 25.54167
865.20 25.87801
865.30 26.06799
865.40 26.19221
865.50 26.38527
865.60 26.69551
865.70 26.98501
865.80 26.94954
865.90 26.91407
866.00 26.65355
866.10 26.31395
866.20 25.78793
866.30 25.00444
866.40 24.34107
866.50 24.75862
866.60 25.17616
866.70 26.01887
866.80 26.97459
866.90 27.46731
867.00 27.43793
867.10 27.3384
867.20 26.84139
867.30 26.34438
867.40 26.6541
867.50 27.12906
867.60 27.34376
867.70 27.30841
867.80 27.37843
867.90 27.86995
868.00 28.36148
868.10 28.31559
868.20 28.19641
868.30 27.81613
868.40 27.23069
868.50 26.8727
868.60 27.23493
868.70 27.59716
868.80 27.01977
868.90 26.37164
869.00 25.62584
869.10 24.8176
869.20 24.06242
869.30 23.43719
869.40 22.81196
869.50 22.12283
869.60 21.43239
869.70 21.41712
869.80 21.74965
869.90 22.06122
870.00 22.33211
870.10 22.60453
870.20 22.95253
870.30 23.30052
870.40 23.72373
870.50 24.17767
870.60 24.69261
870.70 25.30298
870.80 25.83803
870.90 25.37236
871.00 24.9067
871.10 24.15503
871.20 23.31305
871.30 22.82142
871.40 22.77568
871.50 22.76478
871.60 23.00934
871.70 23.2539
871.80 23.05579
871.90 22.75384
872.00 22.77891
872.10 23.14436
872.20 23.46723
872.30 23.58217
872.40 23.69711
872.50 23.75838
872.60 23.8109
872.70 24.31684
872.80 25.20901
872.90 26.08779
873.00 26.91913
873.10 27.75046
873.20 27.37567
873.30 26.8816
873.40 26.39826
873.50 25.92238
873.60 25.54461
873.70 25.43213
873.80 25.31964
873.90 25.31936
874.00 25.32376
874.10 25.8234
874.20 26.60161
874.30 27.26145
874.40 27.66972
874.50 28.08029
874.60 28.71787
874.70 29.35545
874.80 28.87829
874.90 27.9003
875.00 27.00222
875.10 26.24023
875.20 25.58225
875.30 26.554
875.40 27.52575
875.50 28.18714
875.60 28.73949
875.70 28.93528
875.80 28.65842
875.90 28.47409
876.00 29.0384
876.10 29.60271
876.20 30.0815
876.30 30.53756
876.40 30.32783
876.50 29.39683
876.60 28.5502
876.70 28.14656
876.80 27.74292
876.90 27.70357
877.00 27.7285
877.10 28.53913
877.20 30.0465
877.30 31.39109
877.40 32.1233
877.50 32.85551
877.60 33.7181
877.70 34.59517
877.80 34.39229
877.90 33.4074
878.00 32.32846
878.10 30.99528
878.20 29.66211
878.30 30.10634
878.40 30.64412
878.50 31.04954
878.60 31.3805
878.70 31.62853
878.80 31.70034
878.90 31.77215
879.00 32.04524
879.10 32.31833
879.20 32.81968
879.30 33.42359
879.40 33.59163
879.50 33.01751
879.60 32.51211
879.70 33.08326
879.80 33.65442
879.90 34.0006
880.00 34.26775
880.10 33.60945
880.20 31.72441
880.30 29.9455
880.40 29.02535
880.50 28.10521
880.60 28.3678
880.70 28.92608
880.80 29.33095
880.90 29.56962
881.00 29.84146
881.10 30.2753
881.20 30.70914
881.30 32.23519
881.40 33.954
881.50 35.3113
881.60 36.36067
881.70 37.13741
881.80 36.94757
881.90 36.75772
882.00 36.96307
882.10 37.2075
882.20 36.36308
882.30 34.762
882.40 33.18004
882.50 31.64725
882.60 30.11445
882.70 30.05524
882.80 30.05742
882.90 30.66913
883.00 31.60904
883.10 32.62725
883.20 33.80439
883.30 34.96991
883.40 35.56589
883.50 36.16186
883.60 36.30915
883.70 36.26414
883.80 36.28012
883.90 36.39147
884.00 36.50169
884.10 36.59694
884.20 36.69219
884.30 36.75766
884.40 36.81371
884.50 36.39687
884.60 35.37814
884.70 34.35664
884.80 33.3165
884.90 32.27637
885.00 31.76859
885.10 31.38568
885.20 32.10657
885.30 33.93126
885.40 35.69972
885.50 37.22844
885.60 38.75716
885.70 38.26429
885.80 37.46935
885.90 35.759
886.00 33.32942
886.10 30.95273
886.20 28.74355
886.30 26.53438
886.40 26.38913
886.50 26.39923
886.60 27.4956
886.70 29.28647
886.80 30.43041
886.90 30.06485
887.00 29.69929
887.10 27.99415
887.20 26.27547
887.30 24.66852
887.40 23.1166
887.50 22.37509
887.60 23.07433
887.70 23.79884
887.80 25.12998
887.90 26.46113
888.00 27.58707
888.10 28.6371
888.20 29.24086
888.30 29.22831
888.40 29.09218
888.50 27.84379
888.60 26.5954
888.70 26.34379
888.80 26.35715
888.90 26.89329
889.00 28.01893
889.10 29.00875
889.20 29.28544
889.30 29.56213
889.40 29.50354
889.50 29.38578
889.60 28.76697
889.70 27.70384
889.80 26.81625
889.90 26.55102
890.00 26.28578
890.10 27.56224
890.20 28.99118
890.30 29.95504
890.40 30.59571
890.50 31.29039
890.60 32.12396
890.70 32.95752
890.80 32.93121
890.90 32.86907
891.00 32.38082
891.10 31.66312
891.20 30.97979
891.30 30.36317
891.40 29.77389
891.50 30.52366
891.60 31.27344
891.70 31.75519
891.80 32.12746
891.90 32.42493
892.00 32.61021
892.10 32.78453
892.20 32.83292
892.30 32.88131
892.40 32.36896
892.50 31.68912
892.60 31.24795
892.70 31.08695
892.80 30.98373
892.90 31.23544
893.00 31.48715
893.10 32.07207
893.20 32.72523
893.30 33.54409
893.40 34.51589
893.50 35.35669
893.60 35.70465
893.70 36.05261
893.80 34.80392
893.90 33.35788
894.00 31.9034
894.10 30.44279
894.20 29.4512
894.30 29.72768
894.40 30.00416
894.50 29.5941
894.60 29.14791
894.70 29.31806
894.80 29.8349
894.90 30.47966
895.00 31.38416
895.10 32.27923
895.20 32.24066
895.30 32.20209
895.40 31.68913
895.50 30.97285
895.60 30.90729
895.70 31.85954
895.80 32.76226
895.90 33.00698
896.00 33.25171
896.10 33.15878
896.20 32.95922
896.30 32.78017
896.40 32.62616
896.50 32.51912
896.60 32.70054
896.70 32.88196
896.80 32.63928
896.90 32.30351
897.00 32.28051
897.10 32.55802
897.20 32.82517
897.30 33.05086
897.40 33.27654
897.50 33.58528
897.60 33.90429
897.70 34.50276
897.80 35.31206
897.90 35.79949
898.00 35.37087
898.10 34.94225
898.20 34.361
898.30 33.77172
898.40 34.10654
898.50 34.96118
898.60 35.7871
898.70 36.55199
898.80 37.31111
898.90 37.49943
899.00 37.68774
899.10 37.33942
899.20 36.7611
899.30 36.29691
899.40 36.01121
899.50 35.72153
899.60 35.38601
899.70 35.05049
899.80 34.64749
899.90 34.22317
900.00 33.60392
900.10 32.7464
900.20 32.25024
900.30 33.9739
900.40 35.69756
900.50 36.85114
900.60 37.88796
900.70 38.57484
900.80 38.92551
900.90 39.04072
901.00 38.21414
901.10 37.38755
901.20 37.10251
901.30 36.88441
901.40 37.01939
901.50 37.41004
901.60 37.68859
901.70 37.66404
901.80 37.63949
901.90 36.88454
902.00 36.09916
902.10 35.24607
902.20 34.35489
902.30 33.59828
902.40 33.11489
902.50 32.63181
902.60 32.16407
902.70 31.69633
902.80 31.46037
902.90 31.31908
903.00 31.63847
903.10 32.64889
903.20 33.61114
903.30 34.01942
903.40 34.42769
903.50 35.33558
903.60 36.39271
903.70 37.11839
903.80 37.45498
903.90 37.83281
904.00 38.44429
904.10 39.05578
904.20 38.661
904.30 38.07456
904.40 37.5719
904.50 37.14355
904.60 36.95239
904.70 37.6535
904.80 38.35462
904.90 38.85556
905.00 39.33427
905.10 39.34778
905.20 39.03803
905.30 38.62413
905.40 37.94244
905.50 37.26074
905.60 36.91052
905.70 36.57054
905.80 36.25426
905.90 35.95018
906.00 35.66128
906.10 35.40058
906.20 35.17617
906.30 35.82298
906.40 36.4698
906.50 36.77275
906.60 36.94197
906.70 36.93513
906.80 36.67491
906.90 36.38153
907.00 35.78968
907.10 35.19784
907.20 35.38971
907.30 35.78991
907.40 36.13036
907.50 36.40607
907.60 36.68376
907.70 36.97115
907.80 37.25853
907.90 37.98983
908.00 38.7934
908.10 39.51115
908.20 40.1587
908.30 40.42997
908.40 39.50971
908.50 38.58946
908.60 38.59778
908.70 38.676
908.80 38.64398
908.90 38.54147
909.00 38.44353
909.10 38.35625
909.20 38.26896
909.30 38.62227
909.40 38.98003
909.50 39.26575
909.60 39.51757
909.70 39.78359
909.80 40.07381
909.90 40.37115
910.00 40.77997
910.10 41.18879
910.20 41.14821
910.30 40.95782
910.40 40.8294
910.50 40.77987
910.60 40.66984
910.70 40.15497
910.80 39.6401
910.90 39.54514
911.00 39.54236
911.10 39.7338
911.20 40.11185
911.30 40.5469
911.40 41.20994
911.50 41.87298
911.60 41.87303
911.70 41.79115
911.80 41.63083
911.90 41.41371
912.00 41.25707
912.10 41.26397
912.20 41.27087
912.30 41.3332
912.40 41.39844
912.50 41.33583
912.60 41.2013
912.70 41.24212
912.80 41.63894
912.90 42.03423
913.00 42.35484
913.10 42.67545
913.20 42.80484
913.30 42.85612
913.40 43.01015
913.50 43.31832
913.60 43.56057
913.70 43.13625
913.80 42.71194
913.90 41.93564
914.00 41.06007
914.10 40.18295
914.20 39.3041
914.30 38.66655
914.40 39.29576
914.50 39.92497
914.60 40.84215
914.70 41.81013
914.80 42.13413
914.90 41.90953
915.00 41.58899
915.10 40.94723
915.20 40.30547
915.30 40.5802
915.40 40.93463
915.50 41.92509
915.60 43.3222
915.70 44.57577
915.80 45.49444
915.90 46.41312
916.00 45.69034
916.10 44.95098
916.20 44.27161
916.30 43.62046
916.40 43.09002
916.50 42.76511
916.60 42.5071
916.70 43.2973
916.80 44.0875
916.90 44.31696
917.00 44.35951
917.10 44.45247
917.20 44.60958
917.30 44.68885
917.40 44.24713
917.50 43.80542
917.60 43.42176
917.70 43.05086
917.80 43.04412
917.90 43.38725
918.00 43.6765
918.10 43.75021
918.20 43.82391
918.30 43.92368
918.40 44.02668
918.50 43.73877
918.60 43.1678
918.70 42.81634
918.80 43.02931
918.90 43.24229
919.00 44.7986
919.10 46.39646
919.20 46.84673
919.30 46.70582
919.40 46.18275
919.50 44.94996
919.60 43.77895
919.70 44.09067
919.80 44.40238
919.90 45.09649
920.00 45.93202
920.10 46.26912
920.20 45.91791
920.30 45.65192
920.40 46.07541
920.50 46.49891
920.60 46.20811
920.70 45.73873
920.80 44.88863
920.90 43.64226
921.00 42.42053
921.10 41.31109
921.20 40.20164
921.30 40.36392
921.40 40.71622
921.50 41.28164
921.60 42.0145
921.70 42.75604
921.80 43.5236
921.90 44.29116
922.00 43.65202
922.10 42.92308
922.20 42.64692
922.30 42.63667
922.40 42.43731
922.50 41.85397
922.60 41.28835
922.70 41.59074
922.80 41.89313
922.90 42.44123
923.00 43.0897
923.10 43.05735
923.20 42.00377
923.30 40.96275
923.40 40.04871
923.50 39.13468
923.60 39.12303
923.70 39.3659
923.80 39.51987
923.90 39.57361
924.00 39.58755
924.10 39.39258
924.20 39.19761
924.30 40.74965
924.40 42.61
924.50 43.34583
924.60 43.16161
924.70 42.73316
924.80 41.53136
924.90 40.32956
925.00 39.72317
925.10 39.1616
925.20 38.91222
925.30 38.85418
925.40 38.8745
925.50 39.06925
925.60 39.26401
925.70 40.70328
925.80 42.14255
925.90 43.12572
926.00 43.90397
926.10 44.19805
926.20 43.70214
926.30 43.19274
926.40 42.52818
926.50 41.86361
926.60 42.11036
926.70 42.62933
926.80 43.19464
926.90 43.81436
927.00 44.32394
927.10 44.20938
927.20 44.09482
927.30 43.67956
927.40 43.20702
927.50 42.49699
927.60 41.57635
927.70 40.7554
927.80 40.28787
927.90 39.82035
928.00 39.30917
928.10 38.79419
928.20 38.92771
928.30 39.47586
928.40 40.06822
928.50 40.76371
928.60 41.45921
928.70 41.41707
928.80 41.36748
928.90 41.08352
929.00 40.68926
929.10 40.34422
929.20 40.08297
929.30 39.84818
929.40 40.028
929.50 40.20782
929.60 40.47159
929.70 40.76186
929.80 40.75004
929.90 40.36899
930.00 39.90955
930.10 38.96862
930.20 38.02769
930.30 37.94421
930.40 38.03635
930.50 38.34751
930.60 38.86084
930.70 39.16001
930.80 38.69991
930.90 38.23981
931.00 38.25515
931.10 38.3175
931.20 39.11102
931.30 40.39198
931.40 41.51837
931.50 42.26635
931.60 43.01432
931.70 42.00746
931.80 40.96479
931.90 40.09412
932.00 40.08607
932.10 40.5156
932.20 40.94512
932.30 41.22968
932.40 41.50164
932.50 41.63886
932.60 41.23713
932.70 40.83541
932.80 40.58234
932.90 40.49033
933.00 40.39832
933.10 40.75283
933.20 41.24834
933.30 41.7173
933.40 41.68172
933.50 41.64614
933.60 41.6188
933.70 41.60819
933.80 41.59758
933.90 41.6908
934.00 41.85041
934.10 42.01001
934.20 41.95772
934.30 41.87924
934.40 41.81736
934.50 41.83657
934.60 41.85577
934.70 41.89118
934.80 41.94562
934.90 42.00006
935.00 41.7228
935.10 41.32899
935.20 40.94119
935.30 40.84737
935.40 40.75355
935.50 40.73689
935.60 40.90024
935.70 41.0636
935.80 41.1463
935.90 41.17294
936.00 41.19957
936.10 41.79575
936.20 42.47703
936.30 43.04862
936.40 42.99858
936.50 42.94855
936.60 42.85668
936.70 42.70937
936.80 42.56205
936.90 42.42313
937.00 42.28748
937.10 42.15182
937.20 41.58864
937.30 41.02545
937.40 40.66879
937.50 40.84322
937.60 41.01764
937.70 41.10762
937.80 41.13389
937.90 41.16016
938.00 41.3002
938.10 41.46031
938.20 41.55175
938.30 41.18356
938.40 40.81536
938.50 40.7057
938.60 40.95305
938.70 41.20041
938.80 41.34428
938.90 41.44379
939.00 41.54331
939.10 41.86093
939.20 42.18299
939.30 42.43176
939.40 42.48235
939.50 42.53294
939.60 42.24682
939.70 41.68521
939.80 41.1236
939.90 40.78636
940.00 40.49508
940.10 40.28321
940.20 40.65366
940.30 41.02412
940.40 41.23603
940.50 41.21013
940.60 41.18423
940.70 41.57614
940.80 42.15578
940.90 42.73541
941.00 43.17689
941.10 43.61409
941.20 43.81674
941.30 43.35182
941.40 42.8869
941.50 42.31297
941.60 41.64619
941.70 40.97941
941.80 41.02221
941.90 41.22077
942.00 41.40167
942.10 41.4397
942.20 41.47774
942.30 41.52463
942.40 41.58536
942.50 41.64609
942.60 41.76652
942.70 41.91506
942.80 42.06359
942.90 42.08976
943.00 42.11082
943.10 42.34472
943.20 43.21711
943.30 44.0895
943.40 44.58024
943.50 44.73253
943.60 44.88482
943.70 44.76267
943.80 44.58027
943.90 44.3741
944.00 43.95406
944.10 43.53402
944.20 43.22232
944.30 43.08009
944.40 42.93785
944.50 42.54185
944.60 42.02085
944.70 41.49986
944.80 41.60769
944.90 41.74172
945.00 41.89983
945.10 42.1342
945.20 42.36856
945.30 42.56271
945.40 42.72121
945.50 42.8797
945.60 43.02696
945.70 43.17158
945.80 43.25675
945.90 42.80688
946.00 42.35702
946.10 42.13771
946.20 42.29455
946.30 42.4514
946.40 43.11714
946.50 44.03354
946.60 44.94993
946.70 44.80441
946.80 44.61464
946.90 44.49288
947.00 44.58649
947.10 44.6801
947.20 44.72635
947.30 44.73061
947.40 44.73487
947.50 44.83335
947.60 44.95393
947.70 45.07385
947.80 45.18787
947.90 45.30189
948.00 45.49245
948.10 45.80272
948.20 46.11299
948.30 46.14472
948.40 46.03926
948.50 45.93379
948.60 46.19848
948.70 46.47859
948.80 46.67333
948.90 46.59772
949.00 46.52211
949.10 46.67311
949.20 47.02508
949.30 47.37704
949.40 47.07911
949.50 46.63851
949.60 46.18469
949.70 45.61184
949.80 45.039
949.90 44.86767
950.00 45.32435
950.10 45.78104
950.20 46.17093
950.30 46.52938
950.40 46.88784
950.50 46.38845
950.60 45.85332
950.70 45.43974
950.80 45.39082
950.90 45.3419
951.00 45.48006
951.10 45.7776
951.20 46.07513
951.30 46.10504
951.40 46.07621
951.50 46.03193
951.60 45.86262
951.70 45.69331
951.80 45.50949
951.90 45.30391
952.00 45.09833
952.10 45.07053
952.20 45.1226
952.30 45.17468
952.40 45.737
952.50 46.3151
952.60 46.86755
952.70 47.34702
952.80 47.82649
952.90 47.98896
953.00 47.89205
953.10 47.79514
953.20 47.61618
953.30 47.4216
953.40 47.21141
953.50 46.88684
953.60 46.56226
953.70 46.22838
953.80 45.88111
953.90 45.53384
954.00 45.62161
954.10 45.89583
954.20 46.17005
954.30 46.20031
954.40 46.22811
954.50 46.11185
954.60 45.6061
954.70 45.10036
954.80 44.89221
954.90 44.91788
955.00 44.94354
955.10 45.35992
955.20 45.84525
955.30 46.28434
955.40 46.43932
955.50 46.59431
955.60 46.8147
955.70 47.12177
955.80 47.42885
955.90 47.73039
956.00 48.02967
956.10 48.32895
956.20 48.28942
956.30 48.24989
956.40 48.0726
956.50 47.55802
956.60 47.04345
956.70 47.10204
956.80 47.5757
956.90 48.04936
957.00 47.96283
957.10 47.79259
957.20 47.66005
957.30 47.72548
957.40 47.79091
957.50 47.59908
957.60 47.09282
957.70 46.58657
957.80 46.22973
957.90 45.92539
958.00 45.63684
958.10 46.12226
958.20 46.60769
958.30 46.95563
958.40 46.99757
958.50 47.03952
958.60 47.0311
958.70 46.98911
958.80 46.94712
958.90 46.39509
959.00 45.78002
959.10 45.2476
959.20 45.09163
959.30 44.93567
959.40 45.03946
959.50 45.43615
959.60 45.83285
959.70 45.13777
959.80 44.09792
959.90 43.06084
960.00 42.07641
960.10 41.09199
960.20 40.67288
960.30 41.35114
960.40 42.0294
960.50 43.14467
960.60 44.51658
960.70 45.8885
960.80 46.40908
960.90 46.85563
961.00 47.16935
961.10 46.98339
961.20 46.79743
961.30 46.52329
961.40 46.16095
961.50 45.79862
961.60 45.46813
961.70 45.14611
961.80 44.91028
961.90 45.6656
962.00 46.42091
962.10 47.02193
962.20 47.36022
962.30 47.69851
962.40 47.60717
962.50 47.2945
962.60 46.98183
962.70 47.2104
962.80 47.46745
962.90 47.64311
963.00 47.56099
963.10 47.47887
963.20 47.24229
963.30 46.86875
963.40 46.49521
963.50 45.86741
963.60 45.1838
963.70 44.30029
963.80 41.79938
963.90 39.29847
964.00 37.56596
964.10 36.98604
964.20 36.40613
964.30 37.87107
964.40 40.2547
964.50 42.63834
964.60 42.94253
964.70 43.20428
964.80 43.29316
964.90 42.91465
965.00 42.53613
965.10 42.58645
965.20 42.97371
965.30 43.36097
965.40 43.92178
965.50 44.51323
965.60 45.06246
965.70 45.35239
965.80 45.64233
965.90 45.95765
966.00 46.30664
966.10 46.65563
966.20 47.0763
966.30 47.52485
966.40 47.96916
966.50 47.99367
966.60 48.01817
966.70 47.89249
966.80 47.41638
966.90 46.94027
967.00 46.86926
967.10 47.06833
967.20 47.2674
967.30 46.74868
967.40 46.14124
967.50 45.32317
967.60 43.54558
967.70 41.76799
967.80 40.94358
967.90 41.19403
968.00 41.44449
968.10 42.87394
968.20 44.67571
968.30 46.39098
968.40 46.46264
968.50 46.53429
968.60 46.46325
968.70 46.11521
968.80 45.76717
968.90 45.10056
969.00 44.25476
969.10 43.40895
969.20 43.98018
969.30 44.65807
969.40 45.44577
969.50 46.6228
969.60 47.79984
969.70 48.49788
969.80 48.73574
969.90 48.97359
970.00 49.09479
970.10 49.18683
970.20 49.23267
970.30 48.86276
970.40 48.49285
970.50 47.52791
970.60 45.6323
970.70 43.73669
970.80 42.93778
970.90 42.65496
971.00 42.37214
971.10 44.22261
971.20 46.13905
971.30 47.80822
971.40 48.7736
971.50 49.73899
971.60 50.27813
971.70 50.48236
971.80 50.68659
971.90 50.27695
972.00 49.75898
972.10 49.24406
972.20 48.74789
972.30 48.25173
972.40 48.06493
972.50 48.28821
972.60 48.51149
972.70 48.00177
972.80 47.22092
972.90 46.4242
973.00 44.84912
973.10 43.27404
973.20 42.48557
973.30 43.44796
973.40 44.41034
973.50 45.33145
973.60 46.22506
973.70 47.11866
973.80 47.08896
973.90 46.95666
974.00 46.83116
974.10 46.73462
974.20 46.63809
974.30 46.05337
974.40 44.9398
974.50 43.82623
974.60 43.28407
974.70 42.90309
974.80 42.63424
974.90 43.85512
975.00 45.076
975.10 45.99701
975.20 46.38491
975.30 46.77281
975.40 47.13709
975.50 47.48919
975.60 47.8413
975.70 47.75416
975.80 47.64391
975.90 47.68478
976.00 48.2042
976.10 48.72363
976.20 48.80532
976.30 48.51413
976.40 48.22294
976.50 48.48942
976.60 48.87013
976.70 49.19479
976.80 49.10854
976.90 49.02229
977.00 48.44541
977.10 47.19101
977.20 45.9366
977.30 45.4711
977.40 45.32783
977.50 45.18456
977.60 46.33832
977.70 47.49208
977.80 48.3988
977.90 48.72909
978.00 49.05939
978.10 48.69958
978.20 47.86021
978.30 47.02084
978.40 45.0239
978.50 42.88388
978.60 41.13308
978.70 41.1554
978.80 41.17772
978.90 41.47571
979.00 42.08456
979.10 42.69342
979.20 44.10996
979.30 45.76776
979.40 47.38909
979.50 48.43901
979.60 49.48892
979.70 50.04241
979.80 49.71337
979.90 49.38433
980.00 49.395
980.10 49.5886
980.20 49.7822
980.30 49.81962
980.40 49.84883
980.50 49.85319
980.60 49.77888
980.70 49.70458
980.80 49.63186
980.90 49.56048
981.00 49.4891
981.10 49.72811
981.20 50.03069
981.30 50.27069
981.40 50.0518
981.50 49.8329
981.60 49.43484
981.70 48.78936
981.80 48.14388
981.90 48.25357
982.00 48.67172
982.10 49.08445
982.20 48.96131
982.30 48.83818
982.40 48.76502
982.50 48.80847
982.60 48.85193
982.70 49.0385
982.80 49.32048
982.90 49.60246
983.00 49.34607
983.10 49.02314
983.20 48.74429
983.30 48.65338
983.40 48.56247
983.50 48.40283
983.60 48.16871
983.70 47.9346
983.80 47.69878
983.90 47.46247
984.00 47.28169
984.10 47.73939
984.20 48.1971
984.30 48.54164
984.40 48.69346
984.50 48.84529
984.60 49.00357
984.70 49.16502
984.80 49.32647
984.90 49.40901
985.00 49.48826
985.10 49.40388
985.20 48.85377
985.30 48.30367
985.40 48.11221
985.50 48.21419
985.60 48.31617
985.70 48.73613
985.80 49.21221
985.90 49.60543
986.00 49.48968
986.10 49.37393
986.20 49.29089
986.30 49.24949
986.40 49.2081
986.50 49.45971
986.60 49.81428
986.70 50.14211
986.80 49.60513
986.90 49.06816
987.00 48.57147
987.10 48.15659
987.20 47.74171
987.30 48.14397
987.40 49.04704
987.50 49.95012
987.60 50.33402
987.70 50.67277
987.80 50.81002
987.90 50.2328
988.00 49.65558
988.10 49.2092
988.20 48.8885
988.30 48.56781
988.40 48.97575
988.50 49.55459
988.60 50.10402
988.70 50.38878
988.80 50.67353
988.90 50.75591
989.00 50.53472
989.10 50.31354
989.20 50.00514
989.30 49.65936
989.40 49.31358
989.50 48.26086
989.60 47.20101
989.70 45.6968
989.80 43.10466
989.90 40.51253
990.00 39.02909
990.10 38.31609
990.20 37.60309
990.30 36.82624
990.40 36.04069
990.50 35.10596
990.60 33.49168
990.70 31.8774
990.80 30.66647
990.90 29.89251
991.00 29.11854
991.10 29.29751
991.20 29.76111
991.30 30.15783
991.40 29.66589
991.50 29.17396
991.60 28.68403
991.70 28.19751
991.80 27.71099
991.90 28.29135
992.00 29.39718
992.10 30.50302
992.20 30.86023
992.30 31.18624
992.40 31.15676
992.50 30.11548
992.60 29.0742
992.70 29.01972
992.80 29.74058
992.90 30.46143
993.00 31.76381
993.10 33.16881
993.20 34.375
993.30 34.45458
993.40 34.53416
993.50 34.4368
993.60 34.12321
993.70 33.80961
993.80 34.80378
993.90 36.23387
994.00 37.64883
994.10 38.70065
994.20 39.75248
994.30 40.31283
994.40 39.91914
994.50 39.52545
994.60 39.28602
994.70 39.13335
994.80 38.98068
994.90 39.6424
995.00 40.35609
995.10 41.03857
995.20 41.61652
995.30 42.19447
995.40 42.70121
995.50 43.14479
995.60 43.58837
995.70 42.7074
995.80 41.55513
995.90 40.5036
996.00 40.1262
996.10 39.7488
996.20 39.76061
996.30 40.28835
996.40 40.81609
996.50 42.00301
996.60 43.44629
996.70 44.85336
996.80 44.48646
996.90 44.11956
997.00 43.08365
997.10 40.62607
997.20 38.1685
997.30 36.62914
997.40 35.65255
997.50 34.67596
997.60 35.37654
997.70 36.22296
997.80 37.10744
997.90 38.12688
998.00 39.14632
998.10 40.054
998.20 40.8543
998.30 41.6546
998.40 40.88852
998.50 39.75502
998.60 38.67626
998.70 38.04038
998.80 37.40451
998.90 37.13388
999.00 37.38886
999.10 37.64383
999.20 37.65123
999.30 37.55751
999.40 37.47054
999.50 38.05176
999.60 38.63298
999.70 38.92458
999.80 38.57155
999.90 38.21851
1000.00 38.69253
1000.10 39.69533
1000.20 40.69812
1000.30 41.84711
1000.40 43.01235
1000.50 43.97049
1000.60 44.10019
1000.70 44.2299
1000.80 43.79556
1000.90 42.79717
1001.00 41.79879
1001.10 40.68398
1001.20 39.54007
1001.30 38.59567
1001.40 39.4469
1001.50 40.29812
1001.60 41.28683
1001.70 42.48175
1001.80 43.67668
1001.90 43.99843
1002.00 43.94597
1002.10 43.89351
1002.20 43.25633
1002.30 42.61915
1002.40 42.39235
1002.50 43.12311
1002.60 43.85387
1002.70 44.27693
1002.80 44.49484
1002.90 44.71276
1003.00 44.12269
1003.10 43.44285
1003.20 42.83228
1003.30 42.49875
1003.40 42.16522
1003.50 41.67828
1003.60 41.03793
1003.70 40.39757
1003.80 40.00313
1003.90 39.67016
1004.00 39.49854
1004.10 40.77907
1004.20 42.05959
1004.30 43.34226
1004.40 44.62815
1004.50 45.91405
1004.60 46.20271
1004.70 46.064
1004.80 45.92529
1004.90 44.87491
1005.00 43.82453
1005.10 42.53073
1005.20 40.66894
1005.30 38.80715
1005.40 37.35125
1005.50 36.16593
1005.60 34.98062
1005.70 35.06448
1005.80 35.28935
1005.90 35.66468
1006.00 36.64188
1006.10 37.61907
1006.20 38.17815
1006.30 38.3191
1006.40 38.46005
1006.50 38.61628
1006.60 38.77632
1006.70 39.05645
1006.80 40.41734
1006.90 41.77824
1007.00 42.78195
1007.10 43.2499
1007.20 43.71784
1007.30 43.44461
1007.40 42.85373
1007.50 42.26284
1007.60 42.95463
1007.70 43.64642
1007.80 44.33241
1007.90 45.00488
1008.00 45.67735
1008.10 45.96773
1008.20 46.00339
1008.30 46.03905
1008.40 46.01695
1008.50 45.98843
1008.60 46.01606
1008.70 46.26828
1008.80 46.5205
1008.90 46.08719
1009.00 44.96834
1009.10 43.84949
1009.20 43.0612
1009.30 42.35555
1009.40 41.80042
1009.50 42.59998
1009.60 43.39954
1009.70 44.27368
1009.80 45.25969
1009.90 46.24571
1010.00 47.28933
1010.10 48.35763
1010.20 49.42593
1010.30 50.17223
1010.40 50.91853
1010.50 51.25462
1010.60 50.63354
1010.70 50.01246
1010.80 49.28491
1010.90 48.48638
1011.00 47.68785
1011.10 46.56424
1011.20 45.40451
1011.30 44.37337
1011.40 43.8566
1011.50 43.33984
1011.60 42.9089
1011.70 42.5638
1011.80 42.2187
1011.90 42.02736
1012.00 41.87446
1012.10 41.9303
1012.20 43.86481
1012.30 45.79931
1012.40 47.33301
1012.50 48.26549
1012.60 49.19798
1012.70 49.14457
1012.80 48.66865
1012.90 48.19272
1013.00 48.39804
1013.10 48.60335
1013.20 48.63161
1013.30 48.24675
1013.40 47.86188
1013.50 46.59822
1013.60 44.74871
1013.70 42.89919
1013.80 41.65321
1013.90 40.4743
1014.00 39.68543
1014.10 40.45675
1014.20 41.22807
1014.30 42.26823
1014.40 43.57722
1014.50 44.88621
1014.60 44.79468
1014.70 44.35301
1014.80 43.89652
1014.90 43.30662
1015.00 42.71672
1015.10 43.11681
1015.20 45.00189
1015.30 46.88697
1015.40 47.51552
1015.50 47.60555
1015.60 47.69558
1015.70 45.98777
1015.80 44.27995
1015.90 42.9687
1016.00 42.58276
1016.10 42.19682
1016.20 42.51036
1016.30 43.29022
1016.40 44.07008
1016.50 44.2062
1016.60 44.2708
1016.70 44.46514
1016.80 45.1785
1016.90 45.89185
1017.00 45.89724
1017.10 45.19467
1017.20 44.4921
1017.30 44.37787
1017.40 44.41073
1017.50 44.62103
1017.60 46.4283
1017.70 48.23558
1017.80 49.00369
1017.90 48.21305
1018.00 47.4224
1018.10 46.35036
1018.20 45.15773
1018.30 43.96509
1018.40 43.51879
1018.50 43.0725
1018.60 42.6653
1018.70 42.31674
1018.80 41.96819
1018.90 42.58039
1019.00 43.60436
1019.10 44.62832
1019.20 45.28286
1019.30 45.93741
1019.40 46.31362
1019.50 46.04039
1019.60 45.76717
1019.70 45.72114
1019.80 45.82658
1019.90 45.93201
1020.00 45.70505
1020.10 45.44116
1020.20 45.26873
1020.30 45.46215
1020.40 45.65556
1020.50 45.96526
1020.60 46.39125
1020.70 46.81723
1020.80 47.07908
1020.90 47.29989
1021.00 47.4743
1021.10 47.23108
1021.20 46.98787
1021.30 46.37564
1021.40 45.20988
1021.50 44.04413
1021.60 43.21459
1021.70 42.52915
1021.80 41.84371
1021.90 41.29829
1022.00 40.75287
1022.10 40.36765
1022.20 40.35627
1022.30 40.34488
1022.40 41.29965
1022.50 42.89853
1022.60 44.49741
1022.70 44.93903
1022.80 45.25207
1022.90 45.45985
1023.00 45.2466
1023.10 45.03335
1023.20 44.58921
1023.30 43.91418
1023.40 43.23914
1023.50 43.75151
1023.60 44.56073
1023.70 45.36731
1023.80 46.15011
1023.90 46.93291
1024.00 47.47107
1024.10 47.64227
1024.20 47.81346
1024.30 48.25067
1024.40 48.80188
1024.50 49.35309
1024.60 48.22355
1024.70 47.09402
1024.80 46.22797
1024.90 45.97673
1025.00 45.72549
1025.10 45.17074
1025.20 44.41365
1025.30 43.65657
1025.40 43.21545
1025.50 42.80944
1025.60 42.66608
1025.70 43.57331
1025.80 44.48055
1025.90 44.27871
1026.00 42.9678
1026.10 41.65689
1026.20 40.50445
1026.30 39.39162
1026.40 38.44282
1026.50 38.97028
1026.60 39.49773
1026.70 40.59929
1026.80 42.56201
1026.90 44.52473
1027.00 45.5555
1027.10 46.35329
1027.20 47.01141
1027.30 46.41259
1027.40 45.81378
1027.50 45.14514
1027.60 44.37177
1027.70 43.59839
1027.80 43.35213
1027.90 43.33179
1028.00 43.31144
1028.10 42.68616
1028.20 42.06088
1028.30 41.38169
1028.40 40.57672
1028.50 39.77175
1028.60 40.15254
1028.70 41.32385
1028.80 42.49516
1028.90 44.13412
1029.00 45.82504
1029.10 47.04131
1029.20 46.359
1029.30 45.67668
1029.40 45.13857
1029.50 44.74465
1029.60 44.35072
1029.70 44.48664
1029.80 44.75501
1029.90 44.96117
1030.00 44.60748
1030.10 44.25379
1030.20 43.95303
1030.30 43.73166
1030.40 43.51029
1030.50 44.22979
1030.60 45.35251
1030.70 46.47523
1030.80 46.62183
1030.90 46.76843
1031.00 46.66792
1031.10 45.99084
1031.20 45.31375
1031.30 45.39579
1031.40 45.98392
1031.50 46.57205
1031.60 46.45078
1031.70 46.25069
1031.80 45.90407
1031.90 44.97131
1032.00 44.03855
1032.10 43.719
1032.20 44.01267
1032.30 44.30633
1032.40 43.89651
1032.50 43.31081
1032.60 42.84437
1032.70 43.45136
1032.80 44.05834
1032.90 45.05867
1033.00 46.64901
1033.10 48.23935
1033.20 49.19785
1033.30 49.99838
1033.40 50.60981
1033.50 49.51919
1033.60 48.42858
1033.70 47.05911
1033.80 45.27134
1033.90 43.48358
1034.00 42.70597
1034.10 42.36129
1034.20 42.01661
1034.30 41.71491
1034.40 41.41322
1034.50 41.09336
1034.60 40.73113
1034.70 40.3689
1034.80 41.01263
1034.90 42.32699
1035.00 43.64135
1035.10 43.6345
1035.20 43.48085
1035.30 43.42197
1035.40 43.74215
1035.50 44.06233
1035.60 44.42276
1035.70 44.82345
1035.80 45.22414
1035.90 45.82462
1036.00 46.47506
1036.10 47.15169
1036.20 48.06406
1036.30 48.97642
1036.40 49.49942
1036.50 49.43838
1036.60 49.37733
1036.70 49.3891
1036.80 49.43209
1036.90 49.47507
1037.00 50.04561
1037.10 50.61614
1037.20 51.20963
1037.30 51.85671
1037.40 52.50379
1037.50 52.53352
1037.60 52.15168
1037.70 51.76985
1037.80 50.15658
1037.90 48.40647
1038.00 46.7167
1038.10 45.26822
1038.20 43.81975
1038.30 43.52337
1038.40 43.99505
1038.50 44.46673
1038.60 45.64818
1038.70 46.90849
1038.80 47.8993
1038.90 47.81206
1039.00 47.72483
1039.10 47.48414
1039.20 47.08998
1039.30 46.69583
1039.40 46.28816
1039.50 45.87711
1039.60 45.45303
1039.70 44.91172
1039.80 44.3704
1039.90 44.23514
1040.00 44.70897
1040.10 45.18279
1040.20 46.11026
1040.30 47.23214
1040.40 48.35402
1040.50 48.92162
1040.60 49.48921
1040.70 49.95293
1040.80 50.1743
1040.90 50.39567
1041.00 50.26644
1041.10 49.90346
1041.20 49.54048
1041.30 48.33302
1041.40 47.03173
1041.50 46.01435
1041.60 46.13262
1041.70 46.25089
1041.80 47.18575
1041.90 48.9372
1042.00 50.68866
1042.10 51.02013
1042.20 50.99661
1042.30 50.85583
1042.40 49.65973
1042.50 48.46363
1042.60 47.10329
1042.70 45.57871
1042.80 44.05414
1042.90 43.30915
1043.00 42.75906
1043.10 42.46771
1043.20 44.50504
1043.30 46.54237
1043.40 48.3162
1043.50 49.69478
1043.60 51.07337
1043.70 51.34417
1043.80 51.14021
1043.90 50.93625
1044.00 50.94936
1044.10 50.96248
1044.20 50.97976
1044.30 51.00679
1044.40 51.03381
1044.50 50.86999
1044.60 50.57894
1044.70 50.28788
1044.80 50.49447
1044.90 50.75635
1045.00 51.17508
1045.10 52.22116
1045.20 53.26725
1045.30 54.12876
1045.40 54.80571
1045.50 55.48266
1045.60 55.77289
1045.70 55.96644
1045.80 56.02853
1045.90 54.90739
1046.00 53.78626
1046.10 52.66122
1046.20 51.53033
1046.30 50.39944
1046.40 49.77219
1046.50 49.3608
1046.60 48.91401
1046.70 48.14876
1046.80 47.38351
1046.90 46.639
1047.00 45.9256
1047.10 45.2122
1047.20 45.11723
1047.30 45.28731
1047.40 45.45739
1047.50 45.85943
1047.60 46.26147
1047.70 46.60616
1047.80 46.81703
1047.90 47.0279
1048.00 47.08578
1048.10 47.04168
1048.20 46.99757
1048.30 47.8166
1048.40 48.73153
1048.50 49.56772
1048.60 50.08892
1048.70 50.61012
1048.80 50.89496
1048.90 50.94346
1049.00 50.99195
1049.10 51.07013
1049.20 51.15573
1049.30 51.22364
1049.40 51.13234
1049.50 51.04105
1049.60 50.30985
1049.70 48.61879
1049.80 46.92773
1049.90 46.45099
1050.00 46.49468
1050.10 46.53836
1050.20 47.69196
1050.30 48.84555
1050.40 49.53539
1050.50 49.5296
1050.60 49.52382
1050.70 49.39884
1050.80 49.22279
1050.90 49.04674
1051.00 49.09295
1051.10 49.13915
1051.20 48.8118
1051.30 47.61282
1051.40 46.41383
1051.50 45.692
1051.60 45.28828
1051.70 44.88456
1051.80 45.21035
1051.90 45.6172
1052.00 45.92957
1052.10 45.86404
1052.20 45.79852
1052.30 45.90283
1052.40 46.17699
1052.50 46.45115
1052.60 47.51378
1052.70 48.77354
1052.80 49.96685
1052.90 50.56221
1053.00 51.15758
1053.10 51.23586
1053.20 50.53851
1053.30 49.84117
1053.40 49.82375
1053.50 50.09772
1053.60 50.37169
1053.70 50.4899
1053.80 50.60812
1053.90 50.4533
1054.00 49.88892
1054.10 49.32455
1054.20 49.46918
1054.30 49.91766
1054.40 50.36614
1054.50 50.17908
1054.60 49.99201
1054.70 49.57718
1054.80 48.63088
1054.90 47.68458
1055.00 47.57843
1055.10 48.03237
1055.20 48.48631
1055.30 49.09135
1055.40 49.71318
1055.50 50.07703
1055.60 49.409
1055.70 48.74097
1055.80 47.93373
1055.90 46.98729
1056.00 46.04086
1056.10 45.41381
1056.20 44.86662
1056.30 44.39755
1056.40 44.63161
1056.50 44.86568
1056.60 45.26194
1056.70 45.9015
1056.80 46.54107
1056.90 46.72859
1057.00 46.72239
1057.10 46.74023
1057.20 46.97448
1057.30 47.20873
1057.40 47.57868
1057.50 48.15215
1057.60 48.72562
1057.70 48.98375
1057.80 49.10673
1057.90 49.22972
1058.00 49.22416
1058.10 49.21861
1058.20 49.23505
1058.30 49.30282
1058.40 49.37059
1058.50 48.73222
1058.60 47.62308
1058.70 46.51394
1058.80 46.13666
1058.90 45.84071
1059.00 45.66867
1059.10 45.9923
1059.20 46.31593
1059.30 46.62783
1059.40 46.92798
1059.50 47.22814
1059.60 47.88611
1059.70 48.63353
1059.80 49.27081
1059.90 48.91685
1060.00 48.56288
1060.10 48.1972
1060.20 47.81396
1060.30 47.43072
1060.40 47.06664
1060.50 46.70735
1060.60 46.33707
1060.70 45.86782
1060.80 45.39856
1060.90 45.07652
1061.00 44.97529
1061.10 44.87405
1061.20 45.41739
1061.30 46.23697
1061.40 47.05655
1061.50 47.57896
1061.60 48.10137
1061.70 48.36392
1061.80 48.02013
1061.90 47.67633
1062.00 47.38482
1062.10 47.12817
1062.20 46.87151
1062.30 46.80708
1062.40 46.764
1062.50 46.89945
1062.60 47.74904
1062.70 48.59863
1062.80 49.50407
1062.90 50.46535
1063.00 51.42663
1063.10 51.46022
1063.20 51.26189
1063.30 50.98627
1063.40 50.4015
1063.50 49.81673
1063.60 49.60656
1063.70 49.77099
1063.80 49.93542
1063.90 50.4676
1064.00 51.09171
1064.10 51.67473
1064.20 51.88788
1064.30 52.10104
1064.40 52.17136
1064.50 52.02742
1064.60 51.88348
1064.70 51.77342
1064.80 51.67788
1064.90 51.58234
1065.00 51.68941
1065.10 51.79647
1065.20 51.69364
1065.30 51.10103
1065.40 50.50842
1065.50 49.69091
1065.60 48.72347
1065.70 47.75603
1065.80 47.54965
1065.90 47.42784
1066.00 47.3104
1066.10 47.21045
1066.20 47.11051
1066.30 46.4668
1066.40 45.46057
1066.50 44.45435
1066.60 44.636
1066.70 44.94965
1066.80 45.22394
1066.90 45.34081
1067.00 45.45768
1067.10 45.51233
1067.20 45.50477
1067.30 45.49721
1067.40 46.3714
1067.50 47.46602
1067.60 48.51893
1067.70 49.19644
1067.80 49.87395
1067.90 50.42561
1068.00 50.78849
1068.10 51.15137
1068.20 51.46054
1068.30 51.7467
1068.40 52.03285
1068.50 52.39699
1068.60 52.76114
1068.70 53.00449
1068.80 52.96601
1068.90 52.92753
1069.00 52.74449
1069.10 52.4995
1069.20 52.25451
1069.30 52.14768
1069.40 52.04085
1069.50 51.73821
1069.60 50.9787
1069.70 50.21918
1069.80 49.81815
1069.90 49.6561
1070.00 49.49405
1070.10 49.47159
1070.20 49.46463
1070.30 49.38409
1070.40 49.00922
1070.50 48.63434
1070.60 48.71548
1070.70 49.25264
1070.80 49.7898
1070.90 49.95018
1071.00 50.01636
1071.10 50.05706
1071.20 49.86846
1071.30 49.67985
1071.40 49.93305
1071.50 50.84896
1071.60 51.76486
1071.70 51.84006
1071.80 51.70508
1071.90 51.57569
1072.00 51.49658
1072.10 51.41747
1072.20 51.29136
1072.30 51.09478
1072.40 50.89819
1072.50 50.15498
1072.60 49.17751
1072.70 48.20003
1072.80 48.53524
1072.90 48.87044
1073.00 49.26492
1073.10 49.79769
1073.20 50.33047
1073.30 50.27569
1073.40 49.82922
1073.50 49.38274
1073.60 49.40925
1073.70 49.48832
1073.80 49.67914
1073.90 50.31702
1074.00 50.95491
1074.10 51.57462
1074.20 52.17616
1074.30 52.7777
1074.40 52.68499
1074.50 52.51515
1074.60 52.38301
1074.70 52.40168
1074.80 52.42034
1074.90 52.46237
1075.00 52.52776
1075.10 52.59315
1075.20 52.10444
1075.30 51.4772
1075.40 50.86201
1075.50 50.35533
1075.60 49.84865
1075.70 49.86076
1075.80 50.65108
1075.90 51.44139
1076.00 51.84413
1076.10 52.08076
1076.20 52.3174
1076.30 52.20711
1076.40 52.09682
1076.50 52.06244
1076.60 52.20518
1076.70 52.34792
1076.80 52.4682
1076.90 52.57887
1077.00 52.68953
1077.10 52.69998
1077.20 52.71044
1077.30 52.64688
1077.40 52.41062
1077.50 52.17436
1077.60 51.61194
1077.70 50.83208
1077.80 50.05222
1077.90 50.42676
1078.00 50.92957
1078.10 51.39661
1078.20 51.72057
1078.30 52.04452
1078.40 52.18104
1078.50 52.13012
1078.60 52.0792
1078.70 51.78999
1078.80 51.4412
1078.90 51.05552
1079.00 50.33785
1079.10 49.62018
1079.20 49.04341
1079.30 48.60753
1079.40 48.17165
1079.50 48.19828
1079.60 48.34054
1079.70 48.51146
1079.80 48.94029
1079.90 49.36912
1080.00 49.76599
1080.10 50.11492
1080.20 50.46385
1080.30 50.65145
1080.40 50.7699
1080.50 50.88836
1080.60 51.37959
1080.70 51.87083
1080.80 52.25367
1080.90 52.38361
1081.00 52.51355
1081.10 52.55796
1081.20 52.54536
1081.30 52.53276
1081.40 52.52016
1081.50 52.50756
1081.60 52.57817
1081.70 52.98162
1081.80 53.38507
1081.90 53.54446
1082.00 53.54114
1082.10 53.53783
1082.20 53.00818
1082.30 52.42006
1082.40 51.8855
1082.50 51.56523
1082.60 51.24496
1082.70 51.096
1082.80 51.11836
1082.90 51.14071
1083.00 51.38953
1083.10 51.69496
1083.20 52.01232
1083.30 52.43709
1083.40 52.86186
1083.50 53.096
1083.60 53.0442
1083.70 52.99239
1083.80 52.89033
1083.90 52.76674
1084.00 52.64315
1084.10 52.65314
1084.20 52.66312
1084.30 52.62011
1084.40 52.49759
1084.50 52.37507
1084.60 51.84299
1084.70 51.13538
1084.80 50.42777
1084.90 50.62113
1085.00 50.8145
1085.10 51.14551
1085.20 51.79767
1085.30 52.44983
1085.40 52.3886
1085.50 51.85176
1085.60 51.31493
1085.70 51.74608
1085.80 52.28478
1085.90 52.82031
1086.00 53.34319
1086.10 53.86607
1086.20 54.31252
1086.30 54.68252
1086.40 55.05253
1086.50 54.76293
1086.60 54.40005
1086.70 54.02962
1086.80 53.62903
1086.90 53.22843
1087.00 53.32148
1087.10 53.90816
1087.20 54.49484
1087.30 54.48997
1087.40 54.33721
1087.50 54.10837
1087.60 53.19483
1087.70 52.2813
1087.80 51.95755
1087.90 52.51847
1088.00 53.07938
1088.10 53.11789
1088.20 52.9325
1088.30 52.74712
1088.40 52.5018
1088.50 52.25649
1088.60 52.25424
1088.70 52.81914
1088.80 53.38403
1088.90 53.29138
1089.00 52.91692
1089.10 52.54246
1089.20 52.45183
1089.30 52.36119
1089.40 52.25837
1089.50 52.12712
1089.60 51.99588
1089.70 52.24372
1089.80 52.74429
1089.90 53.24486
1090.00 53.92366
1090.10 54.62226
1090.20 55.18672
1090.30 55.21458
1090.40 55.24244
1090.50 55.1144
1090.60 54.83044
1090.70 54.54648
1090.80 54.0634
1090.90 53.53054
1091.00 52.94698
1091.10 52.16063
1091.20 51.37428
1091.30 51.14612
1091.40 51.47615
1091.50 51.80617
1091.60 52.57011
1091.70 53.44252
1091.80 54.24476
1091.90 54.4154
1092.00 54.58603
1092.10 54.52629
1092.20 54.12098
1092.30 53.71567
1092.40 53.71764
1092.50 53.89416
1092.60 54.07068
1092.70 53.92342
1092.80 53.77617
1092.90 53.64573
1093.00 53.55453
1093.10 53.46333
1093.20 53.33851
1093.30 53.19126
1093.40 53.04401
1093.50 52.85919
1093.60 52.67436
1093.70 52.4745
1093.80 52.23955
1093.90 52.00459
1094.00 52.40088
1094.10 53.21798
1094.20 54.03509
1094.30 53.99221
1094.40 53.85378
1094.50 53.55913
1094.60 52.63962
1094.70 51.72012
1094.80 51.31425
1094.90 51.42202
1095.00 51.52978
1095.10 52.17814
1095.20 52.96164
1095.30 53.73261
1095.40 54.39081
1095.50 55.04901
1095.60 55.27564
1095.70 55.0707
1095.80 54.86575
1095.90 54.67411
1096.00 54.48578
1096.10 54.32436
1096.20 54.40505
1096.30 54.48575
1096.40 54.54946
1096.50 54.58769
1096.60 54.62591
1096.70 54.24973
1096.80 53.69596
1096.90 53.14218
1097.00 52.13418
1097.10 51.12618
1097.20 50.36096
1097.30 50.16223
1097.40 49.96349
1097.50 50.29806
1097.60 50.98815
1097.70 51.67824
1097.80 52.17503
1097.90 52.67181
1098.00 53.16659
1098.10 53.65665
1098.20 54.14672
1098.30 53.97279
1098.40 53.35619
1098.50 52.73959
1098.60 52.45925
1098.70 52.21627
1098.80 52.02808
1098.90 52.05902
1099.00 52.08996
1099.10 52.20683
1099.20 52.40963
1099.30 52.61242
1099.40 53.18707
1099.50 53.85468
1099.60 54.43505
1099.70 54.23023
1099.80 54.0254
1099.90 53.87454
1100.00 53.77765
1100.10 53.68075
1100.20 53.44175
1100.30 53.16722
1100.40 52.87446
1100.50 52.41762
1100.60 51.96078
1100.70 51.85409
1100.80 52.27261
1100.90 52.69112
1101.00 52.9606
1101.10 53.16619
1101.20 53.37179
1101.30 53.62709
1101.40 53.88239
1101.50 54.11621
1101.60 54.29992
1101.70 54.48362
1101.80 54.05668
1101.90 53.22264
1102.00 52.3886
1102.10 51.85942
1102.20 51.33024
1102.30 50.7779
1102.40 50.17152
1102.50 49.56514
1102.60 49.96167
1102.70 51.0268
1102.80 52.09192
1102.90 52.63517
1103.00 53.12043
1103.10 53.44194
1103.20 53.10841
1103.30 52.77488
1103.40 51.9693
1103.50 50.69167
1103.60 49.41404
1103.70 49.24399
1103.80 49.35082
1103.90 49.49529
1104.00 49.97842
1104.10 50.46155
1104.20 50.93179
1104.30 51.38914
1104.40 51.84649
1104.50 51.99001
1104.60 52.05507
1104.70 52.09691
1104.80 51.92973
1104.90 51.76254
1105.00 51.68245
1105.10 51.733
1105.20 51.78355
1105.30 50.97157
1105.40 49.78995
1105.50 48.60833
1105.60 48.34546
1105.70 48.0826
1105.80 48.10232
1105.90 48.78141
1106.00 49.4605
1106.10 49.71398
1106.20 49.78507
1106.30 49.85615
1106.40 49.95211
1106.50 50.04807
1106.60 50.07182
1106.70 49.92709
1106.80 49.78236
1106.90 49.32345
1107.00 48.65509
1107.10 47.98673
1107.20 47.94463
1107.30 47.97213
1107.40 48.15579
1107.50 48.96417
1107.60 49.77255
1107.70 50.06218
1107.80 49.83306
1107.90 49.60394
1108.00 49.74242
1108.10 49.97279
1108.20 50.28795
1108.30 50.94231
1108.40 51.59667
1108.50 52.15212
1108.60 52.60868
1108.70 53.06524
1108.80 52.94114
1108.90 52.67188
1109.00 52.38041
1109.10 51.88894
1109.20 51.39747
1109.30 51.31516
1109.40 51.84658
1109.50 52.378
1109.60 52.78968
1109.70 53.15004
1109.80 53.5104
1109.90 53.34742
1110.00 53.18444
1110.10 52.76231
1110.20 51.73551
1110.30 50.70871
1110.40 49.71193
1110.50 48.72802
1110.60 47.7441
1110.70 48.12257
1110.80 48.50104
1110.90 48.75991
1111.00 48.7397
1111.10 48.71949
1111.20 48.52286
1111.30 48.20861
1111.40 47.89436
1111.50 48.09241
1111.60 48.34739
1111.70 48.62884
1111.80 49.01623
1111.90 49.40362
1112.00 49.47636
1112.10 49.23445
1112.20 48.99255
1112.30 48.90224
1112.40 48.82878
1112.50 48.88032
1112.60 49.43191
1112.70 49.98349
1112.80 50.64839
1112.90 51.42662
1113.00 52.20485
1113.10 52.44876
1113.20 52.5591
1113.30 52.65453
1113.40 52.61579
1113.50 52.57705
1113.60 52.07417
1113.70 50.8751
1113.80 49.67602
1113.90 49.35582
1114.00 49.4123
1114.10 49.46877
1114.20 50.12227
1114.30 50.77577
1114.40 51.58669
1114.50 52.63376
1114.60 53.68082
1114.70 53.70799
1114.80 53.29806
1114.90 52.88813
1115.00 51.98001
1115.10 51.07189
1115.20 50.62976
1115.30 51.27492
1115.40 51.92008
1115.50 52.16347
1115.60 52.13902
1115.70 52.11456
1115.80 52.13551
1115.90 52.16151
1116.00 52.16877
1116.10 52.10111
1116.20 52.03345
1116.30 52.08102
1116.40 52.2054
1116.50 52.32978
1116.60 52.3854
1116.70 52.43338
1116.80 52.34159
1116.90 51.69068
1117.00 51.03978
1117.10 50.31878
1117.20 49.52767
1117.30 48.73656
1117.40 48.19285
1117.50 47.711
1117.60 47.30464
1117.70 47.57772
1117.80 47.85081
1117.90 48.35384
1118.00 49.20179
1118.10 50.04974
1118.20 50.64372
1118.30 51.17421
1118.40 51.72714
1118.50 52.48203
1118.60 53.23692
1118.70 53.53646
1118.80 53.15297
1118.90 52.75864
1119.00 52.35347
1119.10 51.94831
1119.20 51.5306
1119.30 51.06272
1119.40 50.59484
1119.50 50.12696
1119.60 50.0593
1119.70 49.99163
1119.80 49.92396
1119.90 49.86948
1120.00 49.82065
1120.10 49.77181
1120.20 49.71746
1120.30 49.65758
1120.40 49.5977
1120.50 49.7195
1120.60 50.56798
1120.70 51.41646
1120.80 52.26494
1120.90 52.16368
1121.00 51.95689
1121.10 51.7501
1121.20 51.53762
1121.30 51.32271
1121.40 51.10779
1121.50 50.96162
1121.60 50.91858
1121.70 50.87554
1121.80 50.79847
1121.90 50.58531
1122.00 50.37215
1122.10 50.15899
1122.20 50.05492
1122.30 49.96296
1122.40 49.87101
1122.50 50.38104
1122.60 51.14906
1122.70 51.91707
1122.80 52.60081
1122.90 53.15812
1123.00 53.71543
1123.10 54.06093
1123.20 53.55915
1123.30 53.05737
1123.40 52.55559
1123.50 51.8662
1123.60 51.15596
1123.70 50.44571
1123.80 50.47119
1123.90 50.98716
1124.00 51.50312
1124.10 51.96917
1124.20 52.36036
1124.30 52.75155
1124.40 53.12724
1124.50 53.3634
1124.60 53.59957
1124.70 53.83573
1124.80 53.44727
1124.90 52.98941
1125.00 52.53154
1125.10 51.72024
1125.20 50.67331
1125.30 49.62638
1125.40 49.41712
1125.50 50.46436
1125.60 51.51161
1125.70 52.48299
1125.80 52.77165
1125.90 53.06031
1126.00 53.34897
1126.10 53.19713
1126.20 52.99634
1126.30 52.79555
1126.40 52.7185
1126.50 52.72393
1126.60 52.72936
1126.70 52.79597
1126.80 52.95433
1126.90 53.11269
1127.00 53.25891
1127.10 53.2958
1127.20 53.33269
1127.30 53.36957
1127.40 53.46715
1127.50 53.5799
1127.60 53.69264
1127.70 53.5428
1127.80 53.21791
1127.90 52.89301
1128.00 52.64257
1128.10 52.56586
1128.20 52.48914
1128.30 52.44895
1128.40 52.73746
1128.50 53.02596
1128.60 53.31446
1128.70 53.28723
1128.80 53.18106
1128.90 53.07489
1129.00 52.89165
1129.10 52.65703
1129.20 52.4224
1129.30 52.36366
1129.40 52.71529
1129.50 53.06691
1129.60 53.40985
1129.70 53.67456
1129.80 53.93928
1129.90 54.20399
1130.00 54.03086
1130.10 53.74826
1130.20 53.46567
1130.30 52.96518
1130.40 52.31944
1130.50 51.6737
1130.60 51.104
1130.70 50.71173
1130.80 50.31946
1130.90 49.97243
1131.00 50.03253
1131.10 50.09264
1131.20 50.15275
1131.30 50.42908
1131.40 50.75948
1131.50 51.08987
1131.60 51.36124
1131.70 51.57358
1131.80 51.78592
1131.90 51.94783
1132.00 51.99209
1132.10 52.03635
1132.20 52.08061
1132.30 52.09396
1132.40 52.10731
1132.50 52.12066
1132.60 51.97733
1132.70 51.79484
1132.80 51.61234
1132.90 51.51578
1133.00 51.50514
1133.10 51.49451
1133.20 51.43749
1133.30 51.27221
1133.40 51.10694
1133.50 50.94167
1133.60 50.50041
1133.70 50.05915
1133.80 49.61789
1133.90 48.97043
1134.00 48.27141
1134.10 47.5724
1134.20 47.09804
1134.30 46.84832
1134.40 46.59861
1134.50 46.58293
1134.60 47.11331
1134.70 47.64369
1134.80 48.17407
1134.90 49.58042
1135.00 50.98678
1135.10 52.39313
1135.20 52.38232
1135.30 52.01721
1135.40 51.65211
1135.50 51.11729
1135.60 50.41278
1135.70 49.70826
1135.80 49.16153
1135.90 48.98297
1136.00 48.80441
1136.10 48.62584
1136.20 49.01591
1136.30 49.40597
1136.40 49.79603
1136.50 49.61657
1136.60 49.29473
1136.70 48.97289
1136.80 48.49191
1136.90 47.85178
1137.00 47.21165
1137.10 46.66915
1137.20 46.35445
1137.30 46.03975
1137.40 45.72505
1137.50 45.09784
1137.60 44.47062
1137.70 43.84341
1137.80 42.74133
1137.90 41.52052
1138.00 40.29972
1138.10 38.75295
1138.20 36.88021
1138.30 35.00747
1138.40 33.78113
1138.50 34.06302
1138.60 34.34492
1138.70 34.62682
1138.80 36.42387
1138.90 38.22091
1139.00 40.01796
1139.10 41.3001
1139.20 42.36156
1139.30 43.42302
1139.40 43.89557
1139.50 43.77921
1139.60 43.66286
1139.70 43.40068
1139.80 42.55522
1139.90 41.70976
1140.00 40.8643
1140.10 39.17609
1140.20 37.48788
1140.30 35.79966
1140.40 33.74899
1140.50 31.54297
1140.60 29.33696
1140.70 28.59058
1140.80 29.30384
1140.90 30.0171
1141.00 31.05936
1141.10 33.41762
1141.20 35.77588
1141.30 38.13414
1141.40 39.92752
1141.50 41.7209
1141.60 43.51428
1141.70 44.67686
1141.80 45.5691
1141.90 46.46135
1142.00 47.20615
1142.10 47.80351
1142.20 48.40087
1142.30 48.85814
1142.40 48.75504
1142.50 48.65194
1142.60 48.54885
1142.70 48.81994
1142.80 49.09103
1142.90 49.36212
1143.00 49.49259
1143.10 49.56281
1143.20 49.63303
1143.30 49.67703
1143.40 49.69483
1143.50 49.71262
1143.60 49.73425
1143.70 49.77123
1143.80 49.80821
1143.90 49.84519
1144.00 49.9701
1144.10 50.09501
1144.20 50.21992
1144.30 50.37251
1144.40 50.53696
1144.50 50.70141
1144.60 50.69084
1144.70 50.50526
1144.80 50.31967
1144.90 50.22819
1145.00 50.51319
1145.10 50.79819
1145.20 51.08318
1145.30 51.07673
1145.40 51.07028
1145.50 51.06382
1145.60 50.9656
1145.70 50.82804
1145.80 50.69048
1145.90 50.75282
1146.00 51.01505
1146.10 51.27728
1146.20 51.50242
1146.30 51.57917
1146.40 51.65592
1146.50 51.73268
1146.60 52.01198
1146.70 52.29128
1146.80 52.57058
1146.90 52.65577
1147.00 52.65778
1147.10 52.65979
1147.20 52.56583
1147.30 52.3759
1147.40 52.18597
1147.50 52.01602
1147.60 51.89272
1147.70 51.76941
1147.80 51.6461
1147.90 51.64492
1148.00 51.64374
1148.10 51.64256
1148.20 51.75682
1148.30 51.89995
1148.40 52.04307
1148.50 52.15087
1148.60 52.22333
1148.70 52.29579
1148.80 52.45319
1148.90 52.80879
1149.00 53.16438
1149.10 53.51998
1149.20 53.26929
1149.30 53.01859
1149.40 52.76789
1149.50 52.64627
1149.60 52.55691
1149.70 52.46755
1149.80 52.44861
1149.90 52.50008
1150.00 52.55155
1150.10 52.50201
1150.20 52.21679
1150.30 51.93157
1150.40 51.64635
1150.50 51.75678
1150.60 51.8672
1150.70 51.97762
1150.80 52.25361
1150.90 52.57098
1151.00 52.88835
1151.10 52.99604
1151.20 52.89405
1151.30 52.79205
1151.40 52.64338
1151.50 52.38581
1151.60 52.12824
1151.70 51.87067
1151.80 51.72917
1151.90 51.58768
1152.00 51.44618
1152.10 51.54045
1152.20 51.69366
1152.30 51.84686
1152.40 51.65107
1152.50 51.10628
1152.60 50.56149
1152.70 50.18557
1152.80 50.20367
1152.90 50.22177
1153.00 50.23987
1153.10 50.33577
1153.20 50.43166
1153.30 50.52755
1153.40 50.539
1153.50 50.52934
1153.60 50.51967
1153.70 50.68006
1153.80 51.01051
1153.90 51.34095
1154.00 51.65731
1154.10 51.94081
1154.20 52.22431
1154.30 52.50781
1154.40 52.3343
1154.50 52.16079
1154.60 51.98728
1154.70 51.65059
1154.80 51.27311
1154.90 50.89563
1155.00 50.78709
1155.10 50.94749
1155.20 51.10789
1155.30 51.21582
1155.40 51.20132
1155.50 51.18683
1155.60 51.19876
1155.70 51.44842
1155.80 51.69809
1155.90 51.94776
1156.00 52.05059
1156.10 52.11671
1156.20 52.18283
1156.30 52.18256
1156.40 52.13803
1156.50 52.09351
1156.60 52.09059
1156.70 52.18474
1156.80 52.2789
1156.90 52.3221
1157.00 51.90666
1157.10 51.49123
1157.20 51.07579
1157.30 51.10962
1157.40 51.25576
1157.50 51.4019
1157.60 51.43685
1157.70 51.39767
1157.80 51.35849
1157.90 51.35725
1158.00 51.44456
1158.10 51.53186
1158.20 51.62282
1158.30 51.74666
1158.40 51.87051
1158.50 51.99435
1158.60 51.80589
1158.70 51.53937
1158.80 51.27284
1158.90 50.96604
1159.00 50.6324
1159.10 50.29876
1159.20 49.90043
1159.30 49.35115
1159.40 48.80187
1159.50 48.27651
1159.60 47.96643
1159.70 47.65635
1159.80 47.34627
1159.90 47.72088
1160.00 48.17156
1160.10 48.62225
1160.20 49.0273
1160.30 49.40192
1160.40 49.77655
1160.50 49.96141
1160.60 49.86163
1160.70 49.76184
1160.80 49.59588
1160.90 48.83426
1161.00 48.07264
1161.10 47.31102
1161.20 47.61989
1161.30 48.0477
1161.40 48.47551
1161.50 49.29438
1161.60 50.37396
1161.70 51.45353
1161.80 51.95629
1161.90 51.59382
1162.00 51.23134
1162.10 50.89067
1162.20 50.74614
1162.30 50.60162
1162.40 50.45709
1162.50 50.65792
1162.60 50.89712
1162.70 51.13633
1162.80 51.3489
1162.90 51.54371
1163.00 51.73853
1163.10 51.91964
1163.20 52.08019
1163.30 52.24075
1163.40 52.28546
1163.50 51.86682
1163.60 51.44817
1163.70 51.02953
1163.80 50.06609
1163.90 49.04212
1164.00 48.01815
1164.10 47.77006
1164.20 47.85449
1164.30 47.93892
1164.40 48.34533
1164.50 49.2347
1164.60 50.12406
1164.70 50.86917
1164.80 51.03723
1164.90 51.20529
1165.00 51.37336
1165.10 51.13444
1165.20 50.85031
1165.30 50.56618
1165.40 50.18856
1165.50 49.77087
1165.60 49.35318
1165.70 49.15663
1165.80 49.29178
1165.90 49.42694
1166.00 49.63735
1166.10 50.14878
1166.20 50.66021
1166.30 51.17165
1166.40 51.36025
1166.50 51.54886
1166.60 51.73747
1166.70 51.69175
1166.80 51.54561
1166.90 51.39947
1167.00 51.14562
1167.10 50.78406
1167.20 50.42251
1167.30 50.12098
1167.40 50.05959
1167.50 49.9982
1167.60 49.9368
1167.70 49.8416
1167.80 49.7464
1167.90 49.6512
1168.00 49.5145
1168.10 49.36001
1168.20 49.20552
1168.30 48.81291
1168.40 48.18217
1168.50 47.55143
1168.60 46.754
1168.70 45.28975
1168.80 43.82551
1168.90 42.36126
1169.00 39.14337
1169.10 35.92548
1169.20 32.70758
1169.30 31.66808
1169.40 31.17317
1169.50 30.67827
1169.60 31.88905
1169.70 34.80553
1169.80 37.72201
1169.90 40.3413
1170.00 42.26715
1170.10 44.193
1170.20 46.11885
1170.30 47.17448
1170.40 48.23012
1170.50 49.28575
1170.60 49.69441
1170.70 49.94133
1170.80 50.18825
1170.90 50.26571
1171.00 50.17372
1171.10 50.08172
1171.20 50.01994
1171.30 50.02864
1171.40 50.03734
1171.50 50.05215
1171.60 50.12192
1171.70 50.19169
1171.80 50.26146
1171.90 50.01531
1172.00 49.69019
1172.10 49.36506
1172.20 49.26959
1172.30 49.32721
1172.40 49.38483
1172.50 49.48588
1172.60 49.68826
1172.70 49.89064
1172.80 50.08637
1172.90 50.22232
1173.00 50.35826
1173.10 50.49421
1173.20 50.47263
1173.30 50.41167
1173.40 50.35071
1173.50 50.13444
1173.60 49.81463
1173.70 49.49482
1173.80 49.36162
1173.90 49.50834
1174.00 49.65505
1174.10 49.82248
1174.20 50.17631
1174.30 50.53014
1174.40 50.88398
1174.50 50.95613
1174.60 50.99699
1174.70 51.03785
1174.80 50.97601
1174.90 50.8457
1175.00 50.71539
1175.10 50.45281
1175.20 49.99181
1175.30 49.53082
1175.40 49.10501
1175.50 48.99589
1175.60 48.88677
1175.70 48.77764
1175.80 48.81837
1175.90 48.87575
1176.00 48.93312
1176.10 48.65662
1176.20 48.23702
1176.30 47.81742
1176.40 47.32829
1176.50 46.73486
1176.60 46.14144
1176.70 45.31769
1176.80 43.57266
1176.90 41.82762
1177.00 40.08259
1177.10 36.73627
1177.20 33.21204
1177.30 29.6878
1177.40 27.49826
1177.50 25.88073
1177.60 24.2632
1177.70 24.3394
1177.80 26.95619
1177.90 29.57298
1178.00 32.19166
1178.10 34.81786
1178.20 37.44406
1178.30 40.07027
1178.40 41.40918
1178.50 42.7481
1178.60 44.08702
1178.70 45.05882
1178.80 45.87328
1178.90 46.68775
1179.00 47.27971
1179.10 47.64917
1179.20 48.01863
1179.30 48.31605
1179.40 48.32531
1179.50 48.33456
1179.60 48.34382
1179.70 48.46444
1179.80 48.58506
1179.90 48.70568
1180.00 48.72516
1180.10 48.71936
1180.20 48.71355
1180.30 48.91
1180.40 49.30868
1180.50 49.70737
1180.60 49.96691
1180.70 49.90176
1180.80 49.83661
1180.90 49.77147
1181.00 49.65908
1181.10 49.54668
1181.20 49.43429
1181.30 49.31881
1181.40 49.20256
1181.50 49.08631
1181.60 49.06254
1181.70 49.10042
1181.80 49.1383
1181.90 49.23488
1182.00 49.4684
1182.10 49.70193
1182.20 49.90883
1182.30 49.87606
1182.40 49.8433
1182.50 49.81053
1182.60 49.33961
1182.70 48.75914
1182.80 48.17867
1182.90 47.69637
1183.00 47.27952
1183.10 46.86267
1183.20 46.67227
1183.30 47.01023
1183.40 47.34819
1183.50 47.6596
1183.60 47.73198
1183.70 47.80436
1183.80 47.87674
1183.90 47.84659
1184.00 47.80504
1184.10 47.76349
1184.20 48.22485
1184.30 49.02147
1184.40 49.8181
1184.50 50.24698
1184.60 50.12425
1184.70 50.00152
1184.80 49.83721
1184.90 49.29876
1185.00 48.76032
1185.10 48.22187
1185.20 48.05035
1185.30 47.91961
1185.40 47.78887
1185.50 47.98627
1185.60 48.3243
1185.70 48.66233
1185.80 48.94145
1185.90 49.13221
1186.00 49.32297
1186.10 49.48147
1186.20 49.51091
1186.30 49.54035
1186.40 49.56979
1186.50 49.62098
1186.60 49.67457
1186.70 49.72817
1186.80 49.46809
1186.90 49.07357
1187.00 48.67906
1187.10 48.46634
1187.20 48.43541
1187.30 48.40448
1187.40 48.47631
1187.50 48.95919
1187.60 49.44207
1187.70 49.92496
1187.80 49.68598
1187.90 49.44701
1188.00 49.20803
1188.10 48.42948
1188.20 47.41969
1188.30 46.4099
1188.40 45.11347
1188.50 43.53042
1188.60 41.94736
1188.70 41.12707
1188.80 42.08656
1188.90 43.04605
1189.00 44.00554
1189.10 45.33853
1189.20 46.67152
1189.30 48.00451
1189.40 48.32305
1189.50 48.38799
1189.60 48.45293
1189.70 48.65171
1189.80 48.93972
1189.90 49.22773
1190.00 49.45778
1190.10 49.55261
1190.20 49.64743
1190.30 49.6975
1190.40 49.34473
1190.50 48.99196
1190.60 48.63919
1190.70 48.41164
1190.80 48.21541
1190.90 48.01918
1191.00 48.09285
1191.10 48.34646
1191.20 48.60007
1191.30 48.82563
1191.40 49.00912
1191.50 49.19261
1191.60 49.36575
1191.70 49.44569
1191.80 49.52563
1191.90 49.60557
1192.00 49.63244
1192.10 49.6534
1192.20 49.67437
1192.30 49.56504
1192.40 49.36884
1192.50 49.17265
1192.60 49.05218
1192.70 49.04528
1192.80 49.03839
1192.90 49.0517
1193.00 49.14579
1193.10 49.23988
1193.20 49.33398
1193.30 49.37472
1193.40 49.40953
1193.50 49.44434
1193.60 49.07363
1193.70 48.52912
1193.80 47.98461
1193.90 47.47581
1194.00 47.02057
1194.10 46.56533
1194.20 46.2239
1194.30 46.33767
1194.40 46.45144
1194.50 46.56521
1194.60 46.49632
1194.70 46.42743
1194.80 46.35854
1194.90 45.82219
1195.00 45.0855
1195.10 44.34881
1195.20 44.15972
1195.30 44.51824
1195.40 44.87676
1195.50 45.34933
1195.60 46.08802
1195.70 46.82671
1195.80 47.56541
1195.90 47.23666
1196.00 46.90791
1196.10 46.57916
1196.20 46.23798
1196.30 45.89368
1196.40 45.54939
1196.50 45.39402
1196.60 45.42757
1196.70 45.46112
1196.80 45.47171
1196.90 45.4287
1197.00 45.3857
1197.10 45.23619
1197.20 44.12811
1197.30 43.02004
1197.40 41.91196
1197.50 40.78538
1197.60 39.65418
1197.70 38.52298
1197.80 38.5273
1197.90 39.28864
1198.00 40.04999
1198.10 40.77496
1198.20 41.44537
1198.30 42.11578
1198.40 42.79463
1198.50 43.54944
1198.60 44.30424
1198.70 45.05905
1198.80 45.1281
1198.90 45.12096
1199.00 45.11382
1199.10 44.67273
1199.20 43.94234
1199.30 43.21195
1199.40 42.75595
1199.50 42.71153
1199.60 42.66711
1199.70 42.69566
1199.80 43.01609
1199.90 43.33651
1200.00 43.65694
