# Version 2.1 - nm, norm@500 to 1, cut digits
# Wavelength(nm)  Flambda(ergs/cm^s/s/nm)
300.00 0.006560051
300.10 0.008740316
300.20 0.01005832
300.30 0.01059075
300.40 0.01071768
300.50 0.01074725
300.60 0.01078158
300.70 0.01081973
300.80 0.01086209
300.90 0.01091099
301.00 0.01096935
301.10 0.01103852
301.20 0.01111683
301.30 0.01120059
301.40 0.01128645
301.50 0.01137267
301.60 0.01145884
301.70 0.01154498
301.80 0.01163111
301.90 0.01171723
302.00 0.01180335
302.10 0.01188947
302.20 0.01197559
302.30 0.01206171
302.40 0.01214781
302.50 0.01223389
302.60 0.01231993
302.70 0.01240625
302.80 0.01249416
302.90 0.0125862
303.00 0.0126852
303.10 0.01279239
303.20 0.01290653
303.30 0.01302481
303.40 0.01314467
303.50 0.01326482
303.60 0.01338492
303.70 0.01350501
303.80 0.01362508
303.90 0.01374515
304.00 0.01386521
304.10 0.01398528
304.20 0.01410535
304.30 0.01422543
304.40 0.01434555
304.50 0.01446574
304.60 0.01458605
304.70 0.0147055
304.80 0.0148201
304.90 0.01492203
305.00 0.01500272
305.10 0.01505834
305.20 0.01509271
305.30 0.01511442
305.40 0.01513127
305.50 0.01514727
305.60 0.01516338
305.70 0.01517957
305.80 0.01519579
305.90 0.01521203
306.00 0.01522827
306.10 0.01524451
306.20 0.01526074
306.30 0.01527698
306.40 0.01529322
306.50 0.01530946
306.60 0.0153257
306.70 0.01534194
306.80 0.01535819
306.90 0.01537447
307.00 0.01539079
307.10 0.01540717
307.20 0.0154236
307.30 0.01544005
307.40 0.01545651
307.50 0.01547298
307.60 0.01548944
307.70 0.0155059
307.80 0.01552237
307.90 0.01553883
308.00 0.0155553
308.10 0.01557176
308.20 0.01558822
308.30 0.01560464
308.40 0.01562097
308.50 0.01563713
308.60 0.015653
308.70 0.01567099
308.80 0.01570115
308.90 0.01576299
309.00 0.01587802
309.10 0.01605577
309.20 0.01628671
309.30 0.01654934
309.40 0.01682413
309.50 0.01710105
309.60 0.01737767
309.70 0.01765412
309.80 0.01793048
309.90 0.01820681
310.00 0.01848313
310.10 0.01875945
310.20 0.01903578
310.30 0.01931214
310.40 0.01958859
310.50 0.01986521
310.60 0.02014213
310.70 0.02041692
310.80 0.02067947
310.90 0.02091017
311.00 0.02108741
311.10 0.02120158
311.20 0.0212623
311.30 0.02129116
311.40 0.02130779
311.50 0.02132228
311.60 0.02133707
311.70 0.02135204
311.80 0.02136709
311.90 0.02138218
312.00 0.02139727
312.10 0.02141237
312.20 0.02142745
312.30 0.02144249
312.40 0.02145743
312.50 0.02147215
312.60 0.0214865
312.70 0.02150348
312.80 0.02153558
312.90 0.02160702
313.00 0.02174449
313.10 0.02195984
313.20 0.02224121
313.30 0.02256193
313.40 0.02289777
313.50 0.02323623
313.60 0.02357432
313.70 0.02391221
313.80 0.02424998
313.90 0.02458771
314.00 0.02492543
314.10 0.02526315
314.20 0.02560087
314.30 0.02593855
314.40 0.02627616
314.50 0.02661362
314.60 0.02695082
314.70 0.02728986
314.80 0.02763941
314.90 0.02801636
315.00 0.02843926
315.10 0.02891638
315.20 0.02943945
315.30 0.02998992
315.40 0.0305509
315.50 0.03111372
315.60 0.03167628
315.70 0.03223869
315.80 0.03280103
315.90 0.03336333
316.00 0.03392563
316.10 0.03448793
316.20 0.03505025
316.30 0.03561269
316.40 0.0361754
316.50 0.03673866
316.60 0.03730286
316.70 0.03786033
316.80 0.03837912
316.90 0.03879725
317.00 0.03904644
317.10 0.03909634
317.20 0.0389773
317.30 0.03875759
317.40 0.03849921
317.50 0.0382341
317.60 0.03796993
317.70 0.0377063
317.80 0.03744296
317.90 0.03717972
318.00 0.03691651
318.10 0.0366533
318.20 0.03639007
318.30 0.03612675
318.40 0.03586322
318.50 0.03559927
318.60 0.03533461
318.70 0.0350751
318.80 0.03484519
318.90 0.03469234
319.00 0.03466881
319.10 0.03479783
319.20 0.03505618
319.30 0.03539159
319.40 0.0357566
319.50 0.03612676
319.60 0.0364962
319.70 0.03686523
319.80 0.03723404
319.90 0.03760277
320.00 0.03797147
320.10 0.03834018
320.20 0.0387089
320.30 0.03907764
320.40 0.03944647
320.50 0.03981545
320.60 0.04018469
320.70 0.04055204
320.80 0.04090843
320.90 0.04123632
321.00 0.04151638
321.10 0.04174002
321.20 0.04191583
321.30 0.04206314
321.40 0.0421995
321.50 0.04233395
321.60 0.04246867
321.70 0.04260355
321.80 0.0427385
321.90 0.04287349
322.00 0.04300848
322.10 0.04314347
322.20 0.04327844
322.30 0.04341329
322.40 0.04354785
322.50 0.04368185
322.60 0.04381488
322.70 0.04395487
322.80 0.04413485
322.90 0.04441893
323.00 0.04487772
323.10 0.0455426
323.20 0.04638218
323.30 0.04732587
323.40 0.04830955
323.50 0.04930019
323.60 0.05028986
323.70 0.05127896
323.80 0.05226778
323.90 0.05325648
324.00 0.05424516
324.10 0.05523383
324.20 0.05622251
324.30 0.05721121
324.40 0.05819995
324.50 0.05918879
324.60 0.06017778
324.70 0.06116565
324.80 0.06214702
324.90 0.06311147
325.00 0.06404755
325.10 0.06495015
325.20 0.06582437
325.30 0.06668168
325.40 0.0675325
325.50 0.06838218
325.60 0.06923202
325.70 0.07008195
325.80 0.07093193
325.90 0.07178193
326.00 0.07263193
326.10 0.07348194
326.20 0.07433193
326.30 0.07518188
326.40 0.07603174
326.50 0.07688139
326.60 0.07773071
326.70 0.07858246
326.80 0.07944821
326.90 0.08035041
327.00 0.08131378
327.10 0.0823493
327.20 0.08344599
327.30 0.08457913
327.40 0.08572626
327.50 0.08687584
327.60 0.08802507
327.70 0.08917411
327.80 0.09032305
327.90 0.09147194
328.00 0.09262083
328.10 0.09376971
328.20 0.09491866
328.30 0.09606783
328.40 0.09721759
328.50 0.09836853
328.60 0.09952144
328.70 0.1006601
328.80 0.1017165
328.90 0.1025592
329.00 0.1030429
329.10 0.1031033
329.20 0.1028048
329.30 0.1022924
329.40 0.1016979
329.50 0.1010891
329.60 0.1004822
329.70 0.09987659
329.80 0.09927153
329.90 0.0986667
330.00 0.09806192
330.10 0.09745714
330.20 0.09685232
330.30 0.09624733
330.40 0.0956419
330.50 0.09503561
330.60 0.09442784
330.70 0.09383068
330.80 0.09329445
330.90 0.09291687
331.00 0.0928055
331.10 0.09300819
331.20 0.09347711
331.30 0.09410465
331.40 0.09479315
331.50 0.09549224
331.60 0.09618986
331.70 0.09688662
331.80 0.09758293
331.90 0.09827908
332.00 0.09897518
332.10 0.09967128
332.20 0.1003674
332.30 0.1010637
332.40 0.1017602
332.50 0.1024572
332.60 0.1031552
332.70 0.1038465
332.80 0.1044992
332.90 0.1050515
333.00 0.1054352
333.10 0.10562
333.20 0.1056363
333.30 0.1055522
333.40 0.1054295
333.50 0.1053
333.60 0.1051715
333.70 0.1050436
333.80 0.1049159
333.90 0.1047883
334.00 0.1046608
334.10 0.1045329
334.20 0.1044042
334.30 0.1042742
334.40 0.104143
334.50 0.1040108
334.60 0.1039868
334.70 0.1043172
334.80 0.1050947
334.90 0.1058766
335.00 0.1058233
335.10 0.104703
335.20 0.1038288
335.30 0.1056613
335.40 0.1119173
335.50 0.1216395
335.60 0.1310904
335.70 0.1359306
335.80 0.1340213
335.90 0.1264858
336.00 0.116509
336.10 0.1073659
336.20 0.1013354
336.30 0.099366
336.40 0.10067
336.50 0.1028206
336.60 0.1032024
336.70 0.1011803
336.80 0.09890949
336.90 0.09964778
337.00 0.1049689
337.10 0.1132341
337.20 0.1205329
337.30 0.1233737
337.40 0.1211365
337.50 0.1164611
337.60 0.1132288
337.70 0.1136828
337.80 0.1171114
337.90 0.1211523
338.00 0.1240014
338.10 0.1251652
338.20 0.1243825
338.30 0.120791
338.40 0.1140911
338.50 0.1062673
338.60 0.1012821
338.70 0.1022234
338.80 0.1084189
338.90 0.1156496
339.00 0.1195391
339.10 0.1191395
339.20 0.1175173
339.30 0.1187423
339.40 0.1241453
339.50 0.131459
339.60 0.1372758
339.70 0.1399163
339.80 0.1398586
339.90 0.1380468
340.00 0.1348559
340.10 0.1306706
340.20 0.1263808
340.30 0.1226594
340.40 0.1190412
340.50 0.1144032
340.60 0.1084688
340.70 0.1024295
340.80 0.09799583
340.90 0.0961394
341.00 0.09679357
341.10 0.09936454
341.20 0.1031706
341.30 0.1074118
341.40 0.1111445
341.50 0.1136485
341.60 0.114858
341.70 0.1153925
341.80 0.1160891
341.90 0.1173867
342.00 0.1189376
342.10 0.1196763
342.20 0.118466
342.30 0.1150529
342.40 0.1105799
342.50 0.107006
342.60 0.1057872
342.70 0.1069676
342.80 0.1093688
342.90 0.1115207
343.00 0.1125658
343.10 0.112645
343.20 0.1125765
343.30 0.113063
343.40 0.1140814
343.50 0.1150272
343.60 0.1153551
343.70 0.1149149
343.80 0.1138215
343.90 0.1123468
344.00 0.1109886
344.10 0.110323
344.20 0.1104996
344.30 0.1109862
344.40 0.1110351
344.50 0.1103966
344.60 0.1095204
344.70 0.1091594
344.80 0.1098894
344.90 0.1119145
345.00 0.1151291
345.10 0.1191993
345.20 0.1235797
345.30 0.1275133
345.40 0.1301527
345.50 0.1309693
345.60 0.1301981
345.70 0.1287978
345.80 0.1277962
345.90 0.1275705
346.00 0.1276786
346.10 0.1272437
346.20 0.1255647
346.30 0.1226666
346.40 0.1194772
346.50 0.1172862
346.60 0.1167198
346.70 0.117195
346.80 0.1174616
346.90 0.1166194
347.00 0.1145813
347.10 0.1119011
347.20 0.1094986
347.30 0.1083996
347.40 0.1092565
347.50 0.1118327
347.60 0.1151133
347.70 0.1180857
347.80 0.1204193
347.90 0.1224538
348.00 0.1246704
348.10 0.1271584
348.20 0.1294429
348.30 0.1308007
348.40 0.1308476
348.50 0.1298753
348.60 0.1285504
348.70 0.127305
348.80 0.1261329
348.90 0.1248906
349.00 0.1235822
349.10 0.1223239
349.20 0.1212205
349.30 0.1204236
349.40 0.1202064
349.50 0.1207433
349.60 0.1217665
349.70 0.1226073
349.80 0.1227863
349.90 0.1226866
350.00 0.1235084
350.10 0.1263242
350.20 0.1310537
350.30 0.136355
350.40 0.1405441
350.50 0.1426622
350.60 0.1427929
350.70 0.1416093
350.80 0.1398042
350.90 0.137763
351.00 0.1354138
351.10 0.1322595
351.20 0.1277628
351.30 0.1220296
351.40 0.1161827
351.50 0.1118201
351.60 0.1098794
351.70 0.1099746
351.80 0.1108432
351.90 0.1113983
352.00 0.1113353
352.10 0.1108758
352.20 0.1102756
352.30 0.1097551
352.40 0.10979
352.50 0.1112551
352.60 0.1149439
352.70 0.1207493
352.80 0.1273496
352.90 0.1329473
353.00 0.136596
353.10 0.1388074
353.20 0.1407713
353.30 0.1431458
353.40 0.1457684
353.50 0.1483145
353.60 0.1508492
353.70 0.1536223
353.80 0.1566319
353.90 0.1596081
354.00 0.1621967
354.10 0.1639359
354.20 0.164266
354.30 0.162962
354.40 0.1606173
354.50 0.1584428
354.60 0.1573595
354.70 0.1573181
354.80 0.1575546
354.90 0.1573911
355.00 0.1567009
355.10 0.1557572
355.20 0.1548505
355.30 0.1541159
355.40 0.1536194
355.50 0.1533907
355.60 0.1532726
355.70 0.1528222
355.80 0.1515182
355.90 0.1491946
356.00 0.1462393
356.10 0.1432784
356.20 0.1406388
356.30 0.1380861
356.40 0.1350781
356.50 0.1313514
356.60 0.1273472
356.70 0.1240534
356.80 0.1223147
356.90 0.1222077
357.00 0.123048
357.10 0.1239201
357.20 0.1241581
357.30 0.1234799
357.40 0.1219033
357.50 0.1196543
357.60 0.1171019
357.70 0.1146283
357.80 0.1124729
357.90 0.1106783
358.00 0.1092262
358.10 0.1082757
358.20 0.1082252
358.30 0.1094517
358.40 0.1119336
358.50 0.1151139
358.60 0.1181168
358.70 0.1201234
358.80 0.1207134
358.90 0.1200692
359.00 0.1189892
359.10 0.118589
359.20 0.1196868
359.30 0.1222327
359.40 0.1252431
359.50 0.1274173
359.60 0.1280198
359.70 0.127338
359.80 0.1263593
359.90 0.1259373
360.00 0.1261148
360.10 0.1261248
360.20 0.1250441
360.30 0.122532
360.40 0.1191135
360.50 0.1159153
360.60 0.1141411
360.70 0.1145925
360.80 0.1173067
360.90 0.1214724
361.00 0.1258289
361.10 0.1293855
361.20 0.1318925
361.30 0.133644
361.40 0.134893
361.50 0.1355855
361.60 0.1357064
361.70 0.1356564
361.80 0.1360332
361.90 0.1370236
362.00 0.1381786
362.10 0.1388831
362.20 0.1389214
362.30 0.1385379
362.40 0.138142
362.50 0.1380756
362.60 0.1384529
362.70 0.1389633
362.80 0.1389273
362.90 0.1378359
363.00 0.1359426
363.10 0.1341877
363.20 0.1334397
363.30 0.1338472
363.40 0.1349023
363.50 0.1359731
363.60 0.1367111
363.70 0.137085
363.80 0.1371689
363.90 0.1369359
364.00 0.1362053
364.10 0.1347687
364.20 0.1326001
364.30 0.1299729
364.40 0.1274019
364.50 0.1254754
364.60 0.1246262
364.70 0.1248891
364.80 0.1258482
364.90 0.1269513
365.00 0.1280144
365.10 0.1294101
365.20 0.1316116
365.30 0.1344942
365.40 0.137164
365.50 0.138579
365.60 0.1384098
365.70 0.1372901
365.80 0.1362053
365.90 0.135692
366.00 0.1356366
366.10 0.1357264
366.20 0.1359394
366.30 0.136502
366.40 0.137475
366.50 0.1385255
366.60 0.1391024
366.70 0.138793
366.80 0.1375385
366.90 0.1356023
367.00 0.1334313
367.10 0.1315337
367.20 0.1303709
367.30 0.130239
367.40 0.1311403
367.50 0.1327566
367.60 0.1346053
367.70 0.1362902
367.80 0.1376674
367.90 0.1388175
368.00 0.1398812
368.10 0.1408927
368.20 0.1417214
368.30 0.142136
368.40 0.1419544
368.50 0.1412144
368.60 0.1402443
368.70 0.1395264
368.80 0.1394021
368.90 0.1398623
369.00 0.1406435
369.10 0.141538
369.20 0.1425369
369.30 0.1436325
369.40 0.1445666
369.50 0.1448951
369.60 0.1443722
369.70 0.143251
369.80 0.1421952
369.90 0.1419024
370.00 0.1427413
370.10 0.1446072
370.20 0.1470409
370.30 0.1494765
370.40 0.1514361
370.50 0.1526106
370.60 0.1528935
370.70 0.1524667
370.80 0.1518123
370.90 0.1514977
371.00 0.151808
371.10 0.1525099
371.20 0.15294
371.30 0.1523476
371.40 0.1503129
371.50 0.1470252
371.60 0.1432549
371.70 0.1399923
371.80 0.1379949
371.90 0.137542
372.00 0.1384585
372.10 0.1401656
372.20 0.1416385
372.30 0.1415836
372.40 0.1390364
372.50 0.1341168
372.60 0.1282573
372.70 0.123561
372.80 0.1217275
372.90 0.123308
373.00 0.1276655
373.10 0.1334389
373.20 0.1391087
373.30 0.1434093
373.40 0.1455818
373.50 0.1454264
373.60 0.1431598
373.70 0.1392093
373.80 0.1341228
373.90 0.1286211
374.00 0.1236096
374.10 0.1200214
374.20 0.118578
374.30 0.1196625
374.40 0.1233506
374.50 0.1294382
374.60 0.1373622
374.70 0.1460895
374.80 0.15418
374.90 0.1601535
375.00 0.163
375.10 0.1625064
375.20 0.1592208
375.30 0.1541668
375.40 0.1485295
375.50 0.1434062
375.60 0.1395446
375.70 0.1371407
375.80 0.1358517
375.90 0.1350743
376.00 0.1343594
376.10 0.1337378
376.20 0.1337901
376.30 0.1354055
376.40 0.139348
376.50 0.1459284
376.60 0.1549979
376.70 0.1660493
376.80 0.1781441
376.90 0.1897093
377.00 0.1986646
377.10 0.2031381
377.20 0.202327
377.30 0.19681
377.40 0.1881216
377.50 0.1780239
377.60 0.1680013
377.70 0.1591176
377.80 0.15198
377.90 0.1467079
378.00 0.1430108
378.10 0.1404344
378.20 0.1386244
378.30 0.1373914
378.40 0.1366042
378.50 0.1361533
378.60 0.1360544
378.70 0.1365059
378.80 0.1378025
378.90 0.1402753
379.00 0.1443946
379.10 0.150831
379.20 0.1601791
379.30 0.1724423
379.40 0.1867148
379.50 0.2013121
379.60 0.2141623
379.70 0.2232188
379.80 0.2269255
379.90 0.2247027
380.00 0.2172459
380.10 0.2063236
380.20 0.1941005
380.30 0.1823931
380.40 0.1722866
380.50 0.1641656
380.60 0.1579321
380.70 0.1531924
380.80 0.1493944
380.90 0.1460654
381.00 0.1430448
381.10 0.1404757
381.20 0.1385228
381.30 0.1371063
381.40 0.1359815
381.50 0.1350877
381.60 0.1346135
381.70 0.1347254
381.80 0.1351586
381.90 0.1351216
382.00 0.1337916
382.10 0.1295833
382.20 0.115895
382.30 0.0932688
382.40 0.06378414
382.50 0.04693696
382.60 0.07951585
382.70 0.1743763
382.80 0.2935007
382.90 0.3770552
383.00 0.4164805
383.10 0.4411277
383.20 0.4716547
383.30 0.5274326
383.40 0.588545
383.50 0.6178595
383.60 0.5918097
383.70 0.520388
383.80 0.4371276
383.90 0.3674359
384.00 0.3108627
384.10 0.2540071
384.20 0.196844
384.30 0.159113
384.40 0.1606865
384.50 0.2008282
384.60 0.2361572
384.70 0.2569927
384.80 0.2542354
384.90 0.2331377
385.00 0.1884566
385.10 0.1172007
385.20 0.04706859
385.30 0.02817692
385.40 0.07978043
385.50 0.1675934
385.60 0.237553
385.70 0.2586892
385.80 0.234313
385.90 0.189818
386.00 0.1581373
386.10 0.1581408
386.20 0.1795533
386.30 0.1970635
386.40 0.2027053
386.50 0.2135517
386.60 0.2463149
386.70 0.298512
386.80 0.3528885
386.90 0.3901272
387.00 0.3966871
387.10 0.3712073
387.20 0.3307525
387.30 0.3011441
387.40 0.2950136
387.50 0.2982434
387.60 0.286644
387.70 0.2576643
387.80 0.2371917
387.90 0.2474379
388.00 0.2780967
388.10 0.304846
388.20 0.3230435
388.30 0.3427415
388.40 0.3532521
388.50 0.3326935
388.60 0.3000195
388.70 0.3154918
388.80 0.4058068
388.90 0.5149369
389.00 0.5597592
389.10 0.5212773
389.20 0.4505599
389.30 0.3926798
389.40 0.3426093
389.50 0.2791821
389.60 0.2129002
389.70 0.1466242
389.80 0.1175339
389.90 0.1049378
390.00 0.09614562
390.10 0.117796
390.20 0.1544055
390.30 0.2101561
390.40 0.2861263
390.50 0.3399018
390.60 0.3618187
390.70 0.3589594
390.80 0.3399657
390.90 0.3037921
391.00 0.249451
391.10 0.1874499
391.20 0.1366968
391.30 0.1453232
391.40 0.1700218
391.50 0.1847898
391.60 0.1878006
391.70 0.1925402
391.80 0.212732
391.90 0.2518178
392.00 0.2977508
392.10 0.3339755
392.20 0.3406678
392.30 0.3176174
392.40 0.2581007
392.50 0.1922114
392.60 0.1582768
392.70 0.1459172
392.80 0.1487218
392.90 0.185628
393.00 0.3344094
393.10 0.651237
393.20 1.093307
393.30 1.528661
393.40 1.760362
393.50 1.663262
393.60 1.296366
393.70 0.8596346
393.80 0.5330459
393.90 0.3576067
394.00 0.2602213
394.10 0.1659489
394.20 0.06969876
394.30 0.02628104
394.40 0.03822126
394.50 0.09521038
394.60 0.1728734
394.70 0.2503603
394.80 0.2953286
394.90 0.3214411
395.00 0.3311768
395.10 0.3291045
395.20 0.3132729
395.30 0.2910153
395.40 0.2861693
395.50 0.3377846
395.60 0.4281071
395.70 0.4809434
395.80 0.4640305
395.90 0.3914337
396.00 0.3052193
396.10 0.2305579
396.20 0.1754245
396.30 0.1597761
396.40 0.1915663
396.50 0.2989837
396.60 0.5271666
396.70 0.8946117
396.80 1.335365
396.90 1.686785
397.00 1.790606
397.10 1.607155
397.20 1.23303
397.30 0.8160576
397.40 0.4785689
397.50 0.2795134
397.60 0.2180981
397.70 0.2482199
397.80 0.30346
397.90 0.3371274
398.00 0.3413724
398.10 0.330613
398.20 0.3168256
398.30 0.3088303
398.40 0.3169703
398.50 0.3416264
398.60 0.3665175
398.70 0.371263
398.80 0.366316
398.90 0.3417302
399.00 0.3112828
399.10 0.2876107
399.20 0.274971
399.30 0.2654585
399.40 0.2470936
399.50 0.2225793
399.60 0.2162701
399.70 0.2424892
399.80 0.2824721
399.90 0.307761
400.00 0.3003169
400.10 0.2698706
400.20 0.2443146
400.30 0.2417804
400.40 0.2559674
400.50 0.2698578
400.60 0.2752634
400.70 0.2692162
400.80 0.2681998
400.90 0.2849029
401.00 0.3001268
401.10 0.3016644
401.20 0.289877
401.30 0.2852582
401.40 0.2839308
401.50 0.2685761
401.60 0.2403787
401.70 0.2296417
401.80 0.235907
401.90 0.2545841
402.00 0.2735532
402.10 0.2853228
402.20 0.2922423
402.30 0.2997609
402.40 0.3077668
402.50 0.3127989
402.60 0.3123982
402.70 0.3031357
402.80 0.2813651
402.90 0.2514307
403.00 0.2254692
403.10 0.2099616
403.20 0.1989729
403.30 0.1844368
403.40 0.1681567
403.50 0.1579935
403.60 0.1570338
403.70 0.166226
403.80 0.1831382
403.90 0.2087379
404.00 0.2452649
404.10 0.2825753
404.20 0.3096823
404.30 0.3279069
404.40 0.3521068
404.50 0.3897009
404.60 0.422095
404.70 0.4186779
404.80 0.3726697
404.90 0.3146644
405.00 0.2822359
405.10 0.2853019
405.20 0.3061387
405.30 0.3232972
405.40 0.327839
405.50 0.3194392
405.60 0.2995561
405.70 0.2735425
405.80 0.2536424
405.90 0.2486641
406.00 0.2566976
406.10 0.2657157
406.20 0.2666778
406.30 0.2643961
406.40 0.2713851
406.50 0.2890195
406.60 0.3070536
406.70 0.3137679
406.80 0.3075823
406.90 0.2971207
407.00 0.2882435
407.10 0.2777587
407.20 0.2659742
407.30 0.2448927
407.40 0.2160349
407.50 0.2035479
407.60 0.2012553
407.70 0.2017269
407.80 0.2074894
407.90 0.2248589
408.00 0.2531134
408.10 0.2804645
408.20 0.2922631
408.30 0.2829915
408.40 0.2586961
408.50 0.2323908
408.60 0.2145168
408.70 0.2057407
408.80 0.1982135
408.90 0.1855999
409.00 0.1721493
409.10 0.1687821
409.20 0.1788151
409.30 0.1908426
409.40 0.1848199
409.50 0.1603302
409.60 0.1473504
409.70 0.1838403
409.80 0.2852465
409.90 0.4405227
410.00 0.6255282
410.10 0.8018388
410.20 0.909435
410.30 0.8925426
410.40 0.751056
410.50 0.5542107
410.60 0.388277
410.70 0.3082077
410.80 0.2704838
410.90 0.2470027
411.00 0.2306198
411.10 0.2238195
411.20 0.2198578
411.30 0.2080756
411.40 0.1906646
411.50 0.1821184
411.60 0.2148517
411.70 0.2772879
411.80 0.3231085
411.90 0.3323164
412.00 0.3062776
412.10 0.2636477
412.20 0.2257002
412.30 0.205263
412.40 0.1998926
412.50 0.2003952
412.60 0.1997739
412.70 0.1948907
412.80 0.1843797
412.90 0.1697433
413.00 0.1581682
413.10 0.1586397
413.20 0.1724155
413.30 0.1912555
413.40 0.2049238
413.50 0.2078156
413.60 0.2017913
413.70 0.1945211
413.80 0.1922673
413.90 0.1923163
414.00 0.185678
414.10 0.1665898
414.20 0.1579331
414.30 0.1497921
414.40 0.1438481
414.50 0.1478557
414.60 0.1720422
414.70 0.2128967
414.80 0.2624976
414.90 0.2827634
415.00 0.2556079
415.10 0.2123399
415.20 0.1800225
415.30 0.1541459
415.40 0.1409056
415.50 0.1511781
415.60 0.1881838
415.70 0.2375949
415.80 0.2744128
415.90 0.2853762
416.00 0.2811804
416.10 0.2704541
416.20 0.252801
416.30 0.2208518
416.40 0.1732452
416.50 0.1261587
416.60 0.1210034
416.70 0.148814
416.80 0.1893706
416.90 0.2141798
417.00 0.2175432
417.10 0.2179967
417.20 0.2088843
417.30 0.1979106
417.40 0.190921
417.50 0.196202
417.60 0.2190663
417.70 0.2509585
417.80 0.2741687
417.90 0.2905541
418.00 0.2886836
418.10 0.2787918
418.20 0.2596228
418.30 0.2213514
418.40 0.1681188
418.50 0.1245335
418.60 0.1300765
418.70 0.1707592
418.80 0.2325651
418.90 0.2971428
419.00 0.3488135
419.10 0.3726622
419.20 0.3594203
419.30 0.3170969
419.40 0.2698618
419.50 0.2382765
419.60 0.2230694
419.70 0.2127888
419.80 0.2025393
419.90 0.2001039
420.00 0.2093875
420.10 0.2206333
420.20 0.2193015
420.30 0.2105625
420.40 0.205798
420.50 0.2111493
420.60 0.2303026
420.70 0.2562481
420.80 0.2857803
420.90 0.2984502
421.00 0.287934
421.10 0.2568774
421.20 0.2161468
421.30 0.1828771
421.40 0.1704071
421.50 0.1833822
421.60 0.2082248
421.70 0.2242235
421.80 0.218247
421.90 0.1947542
422.00 0.1716171
422.10 0.1673945
422.20 0.1855372
422.30 0.2063227
422.40 0.2001367
422.50 0.1554709
422.60 0.09514039
422.70 0.067028
422.80 0.06134899
422.90 0.06663458
423.00 0.06822543
423.10 0.06133982
423.20 0.04956871
423.30 0.03748181
423.40 0.02896662
423.50 0.03893237
423.60 0.0725772
423.70 0.1102551
423.80 0.1448636
423.90 0.1681162
424.00 0.1722943
424.10 0.1552294
424.20 0.1242517
424.30 0.09306101
424.40 0.07772175
424.50 0.07439549
424.60 0.07073653
424.70 0.06354934
424.80 0.07024114
424.90 0.09383594
425.00 0.1274471
425.10 0.1546832
425.20 0.1586483
425.30 0.137856
425.40 0.1087451
425.50 0.09225297
425.60 0.09807888
425.70 0.1207272
425.80 0.1480069
425.90 0.1708124
426.00 0.1863896
426.10 0.1956146
426.20 0.1989903
426.30 0.1955409
426.40 0.1873936
426.50 0.1797564
426.60 0.1751048
426.70 0.1700539
426.80 0.1604877
426.90 0.1571192
427.00 0.1714155
427.10 0.179177
427.20 0.1776973
427.30 0.169575
427.40 0.1578377
427.50 0.1422429
427.60 0.1218407
427.70 0.09779257
427.80 0.07887553
427.90 0.06569779
428.00 0.06655082
428.10 0.09259195
428.20 0.1420681
428.30 0.1982936
428.40 0.2342304
428.50 0.2300099
428.60 0.1862372
428.70 0.1301061
428.80 0.09702389
428.90 0.1062988
429.00 0.1500707
429.10 0.2111459
429.20 0.2574541
429.30 0.2765318
429.40 0.2795906
429.50 0.278585
429.60 0.2737364
429.70 0.25825
429.80 0.2324518
429.90 0.2077807
430.00 0.1965336
430.10 0.2006202
430.20 0.2122755
430.30 0.2240722
430.40 0.2353004
430.50 0.2493393
430.60 0.2643346
430.70 0.2717101
430.80 0.2659933
430.90 0.2505434
431.00 0.2330731
431.10 0.2191808
431.20 0.2102265
431.30 0.2040834
431.40 0.1946219
431.50 0.1755878
431.60 0.1528862
431.70 0.1346881
431.80 0.1216625
431.90 0.1155921
432.00 0.1229854
432.10 0.1548658
432.20 0.2003998
432.30 0.2422628
432.40 0.2635232
432.50 0.2614506
432.60 0.2463887
432.70 0.2323261
432.80 0.2294983
432.90 0.2411923
433.00 0.2624204
433.10 0.2821489
433.20 0.2985163
433.30 0.3117808
433.40 0.3167476
433.50 0.3185033
433.60 0.3302083
433.70 0.3845382
433.80 0.5429946
433.90 0.801662
434.00 1.091874
434.10 1.281726
434.20 1.267275
434.30 1.057738
434.40 0.7668558
434.50 0.52127
434.60 0.3796238
434.70 0.3265102
434.80 0.3180322
434.90 0.3204867
435.00 0.3176413
435.10 0.3044575
435.20 0.2839539
435.30 0.2638907
435.40 0.2516707
435.50 0.2523709
435.60 0.27069
435.70 0.3042317
435.80 0.3401475
435.90 0.3572757
436.00 0.3409981
436.10 0.2960877
436.20 0.2526878
436.30 0.2143476
436.40 0.1985279
436.50 0.2101379
436.60 0.2332884
436.70 0.2610535
436.80 0.2876091
436.90 0.304941
437.00 0.3056443
437.10 0.2911225
437.20 0.2733489
437.30 0.2641057
437.40 0.2645361
437.50 0.2695738
437.60 0.2784686
437.70 0.2936946
437.80 0.3125874
437.90 0.3225247
438.00 0.3151679
438.10 0.2970552
438.20 0.2829619
438.30 0.2771636
438.40 0.2747184
438.50 0.269575
438.60 0.2639656
438.70 0.2693033
438.80 0.2873124
438.90 0.303198
439.00 0.3078107
439.10 0.3044026
439.20 0.3036778
439.30 0.3110501
439.40 0.3196051
439.50 0.3183965
439.60 0.3049282
439.70 0.2870889
439.80 0.2758362
439.90 0.283242
440.00 0.2970389
440.10 0.300446
440.20 0.2864445
440.30 0.2568349
440.40 0.2304675
440.50 0.2027058
440.60 0.1821405
440.70 0.1793628
440.80 0.1996668
440.90 0.2551386
441.00 0.3183833
441.10 0.3609534
441.20 0.3684179
441.30 0.3548394
441.40 0.351949
441.50 0.3813409
441.60 0.4381179
441.70 0.4967781
441.80 0.5293956
441.90 0.5209357
442.00 0.4759039
442.10 0.4155403
442.20 0.3655948
442.30 0.3400306
442.40 0.3338611
442.50 0.3310957
442.60 0.320331
442.70 0.3059893
442.80 0.3043277
442.90 0.3273338
443.00 0.3695341
443.10 0.4096279
443.20 0.4270987
443.30 0.4173908
443.40 0.3921631
443.50 0.3719887
443.60 0.3699704
443.70 0.3832119
443.80 0.4178763
443.90 0.4496466
444.00 0.4646747
444.10 0.4617342
444.20 0.4477465
444.30 0.4319709
444.40 0.4246912
444.50 0.4313664
444.60 0.448325
444.70 0.4652214
444.80 0.4751747
444.90 0.4817962
445.00 0.4899975
445.10 0.4984261
445.20 0.5027937
445.30 0.5002963
445.40 0.4900194
445.50 0.4740829
445.60 0.4582272
445.70 0.4538319
445.80 0.4600146
445.90 0.4660934
446.00 0.4650498
446.10 0.4618683
446.20 0.4648475
446.30 0.4734884
446.40 0.4798236
446.50 0.4790767
446.60 0.4753983
446.70 0.4768834
446.80 0.4878549
446.90 0.5062284
447.00 0.5264501
447.10 0.5439128
447.20 0.5564937
447.30 0.5639645
447.40 0.5668981
447.50 0.5669751
447.60 0.5656867
447.70 0.5617855
447.80 0.5526775
447.90 0.5386929
448.00 0.5349809
448.10 0.5300525
448.20 0.5319617
448.30 0.5538742
448.40 0.577737
448.50 0.595083
448.60 0.6054683
448.70 0.613728
448.80 0.6211031
448.90 0.6253207
449.00 0.629838
449.10 0.6440879
449.20 0.6706469
449.30 0.6960673
449.40 0.6998439
449.50 0.6739729
449.60 0.6317585
449.70 0.5967419
449.80 0.5839155
449.90 0.5914393
450.00 0.6086097
450.10 0.6271196
450.20 0.64001
450.30 0.6368085
450.40 0.6109216
450.50 0.5721266
450.60 0.542829
450.70 0.5371182
450.80 0.5489045
450.90 0.5639773
451.00 0.5774822
451.10 0.5930432
451.20 0.6091858
451.30 0.6168252
451.40 0.6120575
451.50 0.6028862
451.60 0.5993737
451.70 0.6029856
451.80 0.6115252
451.90 0.6284971
452.00 0.657359
452.10 0.6898955
452.20 0.7107079
452.30 0.7143447
452.40 0.7112456
452.50 0.7144083
452.60 0.7249669
452.70 0.734593
452.80 0.7375368
452.90 0.7373026
453.00 0.7421216
453.10 0.752242
453.20 0.7538368
453.30 0.7300266
453.40 0.6806166
453.50 0.6303906
453.60 0.614693
453.70 0.6536888
453.80 0.7383159
453.90 0.8365551
454.00 0.9115747
454.10 0.9409935
454.20 0.9250787
454.30 0.8806737
454.40 0.8283708
454.50 0.7818283
454.60 0.7444584
454.70 0.7132336
454.80 0.684552
454.90 0.6586103
455.00 0.6415949
455.10 0.6420828
455.20 0.6631196
455.30 0.6963153
455.40 0.7261521
455.50 0.7442237
455.60 0.7570639
455.70 0.7752382
455.80 0.7971766
455.90 0.8111161
456.00 0.8128239
456.10 0.8151089
456.20 0.835853
456.30 0.8800864
456.40 0.9375678
456.50 0.9936623
456.60 1.038173
456.70 1.067885
456.80 1.085414
456.90 1.095143
457.00 1.099786
457.10 1.10004
457.20 1.098163
457.30 1.098738
457.40 1.102324
457.50 1.100425
457.60 1.081824
457.70 1.044614
457.80 1.000125
457.90 0.9658001
458.00 0.9531013
458.10 0.9614288
458.20 0.9773238
458.30 0.9767322
458.40 0.9357017
458.50 0.8498699
458.60 0.7454369
458.70 0.6623823
458.80 0.622277
458.90 0.6145986
459.00 0.6158628
459.10 0.6152758
459.20 0.6180311
459.30 0.6307607
459.40 0.651528
459.50 0.6743462
459.60 0.6979661
459.70 0.7279415
459.80 0.7688437
459.90 0.8136477
460.00 0.8438605
460.10 0.8450409
460.20 0.8220275
460.30 0.7931118
460.40 0.7681872
460.50 0.7395602
460.60 0.7002326
460.70 0.6648692
460.80 0.6640557
460.90 0.716169
461.00 0.8080595
461.10 0.9043178
461.20 0.9739337
461.30 1.011152
461.40 1.035316
461.50 1.069445
461.60 1.115822
461.70 1.153678
461.80 1.162917
461.90 1.14753
462.00 1.131053
462.10 1.130085
462.20 1.137164
462.30 1.130342
462.40 1.094747
462.50 1.032025
462.60 0.9527028
462.70 0.8663325
462.80 0.7809252
462.90 0.7088346
463.00 0.665846
463.10 0.6608029
463.20 0.6871155
463.30 0.7248021
463.40 0.7530942
463.50 0.7630491
463.60 0.7601097
463.70 0.7548702
463.80 0.7521296
463.90 0.7510214
464.00 0.7539657
464.10 0.7693024
464.20 0.8018467
464.30 0.8442536
464.40 0.8806993
464.50 0.8995457
464.60 0.9017639
464.70 0.8978938
464.80 0.897944
464.90 0.9025081
465.00 0.9044372
465.10 0.8998439
465.20 0.8939609
465.30 0.8939374
465.40 0.8995786
465.50 0.906361
465.60 0.9163648
465.70 0.9408866
465.80 0.9884801
465.90 1.05199
466.00 1.110215
466.10 1.143219
466.20 1.147869
466.30 1.138211
466.40 1.129443
466.50 1.121687
466.60 1.099863
466.70 1.048139
466.80 0.9631637
466.90 0.8562533
467.00 0.7478528
467.10 0.6604846
467.20 0.6118574
467.30 0.6078729
467.40 0.6390722
467.50 0.6852254
467.60 0.7264633
467.70 0.7528508
467.80 0.7661166
467.90 0.7725205
468.00 0.7750329
468.10 0.774442
468.20 0.7743745
468.30 0.7813927
468.40 0.797855
468.50 0.8163019
468.60 0.8253101
468.70 0.8212267
468.80 0.8123023
468.90 0.8100856
469.00 0.8182295
469.10 0.8306412
469.20 0.8403456
469.30 0.8472905
469.40 0.8546951
469.50 0.8628225
469.60 0.8717984
469.70 0.8892725
469.80 0.92567
469.90 0.9778318
470.00 1.025045
470.10 1.048026
470.20 1.049065
470.30 1.046258
470.40 1.051283
470.50 1.058922
470.60 1.057732
470.70 1.045352
470.80 1.030589
470.90 1.024103
471.00 1.028571
471.10 1.036502
471.20 1.035643
471.30 1.015903
471.40 0.9745516
471.50 0.920439
471.60 0.8729095
471.70 0.8509541
471.80 0.8588
471.90 0.8815956
472.00 0.8982534
472.10 0.8997996
472.20 0.895856
472.30 0.9043763
472.40 0.9336128
472.50 0.9724153
472.60 1.000071
472.70 1.006313
472.80 0.9992729
472.90 0.9944874
473.00 0.9993335
473.10 1.011083
473.20 1.026234
473.30 1.044672
473.40 1.064203
473.50 1.074848
473.60 1.063485
473.70 1.027616
473.80 0.9842591
473.90 0.9599634
474.00 0.9684926
474.10 1.000242
474.20 1.03439
474.30 1.059138
474.40 1.077002
474.50 1.093894
474.60 1.109695
474.70 1.119821
474.80 1.122492
474.90 1.121978
475.00 1.125516
475.10 1.137297
475.20 1.156739
475.30 1.181119
475.40 1.205453
475.50 1.219617
475.60 1.210107
475.70 1.169015
475.80 1.099908
475.90 1.013041
476.00 0.9160561
476.10 0.8131444
476.20 0.7123544
476.30 0.627535
476.40 0.5756831
476.50 0.5472782
476.60 0.5269112
476.70 0.5138417
476.80 0.5032945
476.90 0.4928587
477.00 0.4847907
477.10 0.4855937
477.20 0.5047424
477.30 0.5469661
477.40 0.6056591
477.50 0.6657848
477.60 0.712112
477.70 0.7354008
477.80 0.7341816
477.90 0.7126677
478.00 0.6778002
478.10 0.6378464
478.20 0.6030383
478.30 0.5846977
478.40 0.5904148
478.50 0.6192597
478.60 0.6620469
478.70 0.7061493
478.80 0.7414681
478.90 0.7650098
479.00 0.7819378
479.10 0.8014171
479.20 0.8292085
479.30 0.8627577
479.40 0.892676
479.50 0.9099455
479.60 0.9126439
479.70 0.9065264
479.80 0.9012462
479.90 0.9052782
480.00 0.9217525
480.10 0.947104
480.20 0.9689133
480.30 0.9653834
480.40 0.9160559
480.50 0.8201432
480.60 0.7043093
480.70 0.6071782
480.80 0.5517674
480.90 0.5347438
481.00 0.5403121
481.10 0.5568471
481.20 0.5808762
481.30 0.6123432
481.40 0.6500383
481.50 0.6887429
481.60 0.7178476
481.70 0.7265633
481.80 0.7158507
481.90 0.7030559
482.00 0.7080194
482.10 0.7347085
482.20 0.7699333
482.30 0.7987126
482.40 0.8158046
482.50 0.8236336
482.60 0.8272329
482.70 0.8326929
482.80 0.8442546
482.90 0.8574417
483.00 0.8603755
483.10 0.8478254
483.20 0.8317353
483.30 0.8326435
483.40 0.86006
483.50 0.9035077
483.60 0.9432413
483.70 0.9685629
483.80 0.982701
483.90 0.9909452
484.00 0.987992
484.10 0.9612593
484.20 0.9075187
484.30 0.8433714
484.40 0.7955183
484.50 0.7794144
484.60 0.7874181
484.70 0.7978305
484.80 0.7958815
484.90 0.7841436
485.00 0.7733297
485.10 0.7686642
485.20 0.7698967
485.30 0.7798634
485.40 0.8031044
485.50 0.8345014
485.60 0.8604754
485.70 0.8882529
485.80 0.9788642
485.90 1.226981
486.00 1.666737
486.10 2.179998
486.20 2.527852
486.30 2.519936
486.40 2.169325
486.50 1.673302
486.60 1.246585
486.70 0.9834495
486.80 0.8588917
486.90 0.8128896
487.00 0.8082951
487.10 0.8304218
487.20 0.8687817
487.30 0.9113916
487.40 0.9481205
487.50 0.9724912
487.60 0.9816201
487.70 0.9775829
487.80 0.9672592
487.90 0.9580767
488.00 0.9520206
488.10 0.9449671
488.20 0.9349009
488.30 0.9304119
488.40 0.946516
488.50 0.9881032
488.60 1.039733
488.70 1.076958
488.80 1.088883
488.90 1.086621
489.00 1.088941
489.10 1.102918
489.20 1.119375
489.30 1.124014
489.40 1.111509
489.50 1.090341
489.60 1.075736
489.70 1.077043
489.80 1.091658
489.90 1.110648
490.00 1.128747
490.10 1.14666
490.20 1.165602
490.30 1.184377
490.40 1.202099
490.50 1.220909
490.60 1.242229
490.70 1.262855
490.80 1.278975
490.90 1.292912
491.00 1.312911
491.10 1.34496
491.20 1.385502
491.30 1.423308
491.40 1.447384
491.50 1.451899
491.60 1.438679
491.70 1.41845
491.80 1.407781
491.90 1.420737
492.00 1.458562
492.10 1.50903
492.20 1.55688
492.30 1.593473
492.40 1.619481
492.50 1.642031
492.60 1.668333
492.70 1.698386
492.80 1.722262
492.90 1.72795
493.00 1.712702
493.10 1.684343
493.20 1.654451
493.30 1.634563
493.40 1.634902
493.50 1.658749
493.60 1.696743
493.70 1.731985
493.80 1.754439
493.90 1.767724
494.00 1.782869
494.10 1.808198
494.20 1.844723
494.30 1.889181
494.40 1.939177
494.50 1.994373
494.60 2.053449
494.70 2.110974
494.80 2.158523
494.90 2.189812
495.00 2.201517
495.10 2.185785
495.20 2.121318
495.30 1.976435
495.40 1.73213
495.50 1.409567
495.60 1.071916
495.70 0.7913587
495.80 0.6075745
495.90 0.5137272
496.00 0.4780139
496.10 0.4725547
496.20 0.4836787
496.30 0.5061829
496.40 0.5370493
496.50 0.575667
496.60 0.6239971
496.70 0.6832556
496.80 0.7508031
496.90 0.818538
497.00 0.8725725
497.10 0.9000698
497.20 0.9007429
497.30 0.8901334
497.40 0.8885198
497.50 0.9051562
497.60 0.9353455
497.70 0.9697717
497.80 1.000165
497.90 1.01671
498.00 1.007969
498.10 0.9713259
498.20 0.9260517
498.30 0.9081819
498.40 0.9434068
498.50 1.02262
498.60 1.106191
498.70 1.155407
498.80 1.161351
498.90 1.145151
499.00 1.134898
499.10 1.144109
499.20 1.167453
499.30 1.192458
499.40 1.212026
499.50 1.226797
499.60 1.227903
499.70 1.179354
499.80 1.033696
499.90 0.7802383
500.00 1
500.10 0.8391704
500.20 0.8047678
500.30 0.7807642
500.40 0.7065054
500.50 0.729727
500.60 0.7797286
500.70 0.7205907
500.80 0.7850928
500.90 0.9554799
501.00 1.081071
501.10 1.019382
501.20 0.9092154
501.30 0.8640924
501.40 0.9454356
501.50 0.855759
501.60 0.7471615
501.70 0.8261126
501.80 0.8851151
501.90 0.9252372
502.00 1.0776
502.10 1.029509
502.20 1.039388
502.30 0.9600387
502.40 0.9879961
502.50 1.049429
502.60 1.037088
502.70 1.019394
502.80 1.006716
502.90 1.040675
503.00 1.1212
503.10 1.122679
503.20 1.115564
503.30 1.032028
503.40 0.9898849
503.50 0.9906626
503.60 1.146979
503.70 1.295254
503.80 1.252076
503.90 1.234555
504.00 1.284076
504.10 1.211688
504.20 1.280303
504.30 1.328997
504.40 1.373054
504.50 1.309489
504.60 1.338774
504.70 1.501161
504.80 1.507093
504.90 1.361487
505.00 1.270622
505.10 1.227252
505.20 1.266102
505.30 1.283015
505.40 1.236796
505.50 1.173626
505.60 1.21379
505.70 1.282978
505.80 1.307623
505.90 1.232157
506.00 1.245587
506.10 1.300932
506.20 1.41795
506.30 1.489383
506.40 1.33152
506.50 1.279187
506.60 1.341919
506.70 1.351879
506.80 1.325352
506.90 1.456002
507.00 1.480927
507.10 1.356775
507.20 1.421076
507.30 1.376652
507.40 1.392135
507.50 1.623694
507.60 1.632828
507.70 1.499195
507.80 1.499706
507.90 1.609679
508.00 1.639431
508.10 1.481589
508.20 1.361154
508.30 1.379225
508.40 1.441922
508.50 1.470696
508.60 1.424006
508.70 1.503351
508.80 1.497046
508.90 1.433524
509.00 1.425985
509.10 1.356825
509.20 1.414542
509.30 1.564693
509.40 1.611224
509.50 1.513164
509.60 1.461001
509.70 1.466777
509.80 1.602101
509.90 1.659214
510.00 1.545003
510.10 1.32899
510.20 1.318382
510.30 1.397635
510.40 1.396763
510.50 1.396181
510.60 1.353915
510.70 1.277197
510.80 1.292312
510.90 1.494037
511.00 1.609447
511.10 1.484637
511.20 1.498079
511.30 1.622932
511.40 1.541324
511.50 1.513877
511.60 1.730824
511.70 1.85089
511.80 1.690634
511.90 1.628851
512.00 1.622497
512.10 1.586969
512.20 1.627583
512.30 1.742409
512.40 1.693298
512.50 1.54938
512.60 1.451492
512.70 1.457497
512.80 1.426763
512.90 1.340372
513.00 1.354235
513.10 1.418036
513.20 1.544318
513.30 1.785187
513.40 1.797564
513.50 1.646626
513.60 1.654161
513.70 1.726864
513.80 1.874737
513.90 1.848574
514.00 1.69995
514.10 1.590561
514.20 1.557417
514.30 1.635129
514.40 1.664355
514.50 1.647757
514.60 1.562999
514.70 1.487115
514.80 1.561567
514.90 1.630825
515.00 1.53191
515.10 1.49317
515.20 1.596037
515.30 1.57542
515.40 1.431553
515.50 1.409593
515.60 1.446311
515.70 1.549599
515.80 1.820693
515.90 2.045898
516.00 1.949423
516.10 1.983675
516.20 2.207669
516.30 2.175953
516.40 2.17846
516.50 2.212596
516.60 2.022908
516.70 1.51852
516.80 1.087271
516.90 0.6679987
517.00 0.5915988
517.10 0.5494285
517.20 0.55591
517.30 0.6115777
517.40 0.5549902
517.50 0.5365128
517.60 0.6091658
517.70 0.5680609
517.80 0.5560408
517.90 0.5852515
518.00 0.5981321
518.10 0.6048615
518.20 0.6203228
518.30 0.6260542
518.40 0.6189974
518.50 0.7359674
518.60 0.9472626
518.70 0.9448582
518.80 0.9473132
518.90 1.054853
519.00 1.084763
519.10 1.142492
519.20 1.188933
519.30 1.049156
519.40 0.9673664
519.50 1.087991
519.60 1.168944
519.70 1.293309
519.80 1.325147
519.90 1.239296
520.00 1.057506
520.10 1.039181
520.20 1.136971
520.30 1.136966
520.40 1.129432
520.50 1.147753
520.60 1.02043
520.70 0.8161068
520.80 0.8563001
520.90 0.8627418
521.00 0.7937242
521.10 0.8091403
521.20 1.103488
521.30 1.371599
521.40 1.529319
521.50 1.591537
521.60 1.645659
521.70 1.682677
521.80 1.705595
521.90 1.789584
522.00 1.856418
522.10 1.828536
522.20 1.832514
522.30 1.810408
522.40 1.841406
522.50 1.818675
522.60 1.828203
522.70 1.816263
522.80 1.787433
522.90 1.725254
523.00 1.878315
523.10 2.132188
523.20 2.106873
523.30 1.878512
523.40 1.87363
523.50 1.975478
523.60 1.998683
523.70 1.949539
523.80 1.95139
523.90 2.000416
524.00 1.965993
524.10 1.798177
524.20 1.606887
524.30 1.447707
524.40 1.448071
524.50 1.51228
524.60 1.627823
524.70 1.556174
524.80 1.505131
524.90 1.49727
525.00 1.578531
525.10 1.536404
525.20 1.596777
525.30 1.764219
525.40 1.916067
525.50 1.855118
525.60 1.96328
525.70 2.101021
525.80 2.011276
525.90 1.908071
526.00 1.868926
526.10 1.742608
526.20 1.652639
526.30 1.717429
526.40 1.715563
526.50 1.544846
526.60 1.462271
526.70 1.508442
526.80 1.55448
526.90 1.549562
527.00 1.487282
527.10 1.452754
527.20 1.474215
527.30 1.695951
527.40 1.85122
527.50 2.016186
527.60 2.052051
527.70 1.991742
527.80 1.90185
527.90 1.90297
528.00 1.865489
528.10 1.821431
528.20 1.786374
528.30 1.893018
528.40 1.967119
528.50 1.96912
528.60 2.04603
528.70 2.157624
528.80 2.244737
528.90 2.267532
529.00 2.180549
529.10 2.1467
529.20 2.227491
529.30 2.21689
529.40 2.13839
529.50 2.190968
529.60 2.26906
529.70 2.274723
529.80 1.976736
529.90 1.869615
530.00 2.064914
530.10 2.154058
530.20 2.101368
530.30 2.148847
530.40 2.386677
530.50 2.456531
530.60 2.337062
530.70 2.233392
530.80 2.122805
530.90 2.04845
531.00 2.023502
531.10 1.970219
531.20 1.943873
531.30 1.991576
531.40 2.020231
531.50 1.941196
531.60 1.971111
531.70 2.111647
531.80 2.145199
531.90 2.034156
532.00 2.026896
532.10 2.132835
532.20 2.075238
532.30 2.017041
532.40 2.138095
532.50 2.22631
532.60 2.154056
532.70 1.967858
532.80 1.917552
532.90 1.915032
533.00 1.886893
533.10 2.045209
533.20 2.135443
533.30 2.142066
533.40 2.077393
533.50 1.969632
533.60 2.028161
533.70 2.017207
533.80 2.02835
533.90 2.098118
534.00 2.19474
534.10 2.160549
534.20 2.069246
534.30 2.191253
534.40 2.33815
534.50 2.374199
534.60 2.322053
534.70 2.267526
534.80 2.06536
534.90 2.135571
535.00 2.362179
535.10 2.519483
535.20 2.58382
535.30 2.612497
535.40 2.717279
535.50 2.792693
535.60 2.692307
535.70 2.594728
535.80 2.503287
535.90 2.376449
536.00 2.231983
536.10 2.156367
536.20 2.138006
536.30 2.222227
536.40 2.172228
536.50 2.182795
536.60 2.141569
536.70 2.161284
536.80 2.126799
536.90 2.125907
537.00 2.104628
537.10 2.177493
537.20 2.101959
537.30 2.026426
537.40 2.130137
537.50 2.440579
537.60 2.542484
537.70 2.373946
537.80 2.34781
537.90 2.583036
538.00 2.734999
538.10 2.768785
538.20 2.741891
538.30 2.680403
538.40 2.679056
538.50 2.639764
538.60 2.598497
538.70 2.526817
538.80 2.54592
538.90 2.603431
539.00 2.711262
539.10 2.713693
539.20 2.608324
539.30 2.516841
539.40 2.595535
539.50 2.704829
539.60 2.63533
539.70 2.416013
539.80 2.376153
539.90 2.623518
540.00 2.775289
540.10 2.950546
540.20 3.082456
540.30 3.036131
540.40 2.981607
540.50 2.931475
540.60 2.760866
540.70 2.609634
540.80 2.696877
540.90 2.689632
541.00 2.52602
541.10 2.360437
541.20 2.448365
541.30 2.57119
541.40 2.557707
541.50 2.613981
541.60 2.742198
541.70 2.955691
541.80 2.984337
541.90 2.861784
542.00 2.785361
542.10 2.969604
542.20 3.04144
542.30 3.045822
542.40 2.975239
542.50 2.987341
542.60 2.974185
542.70 2.915556
542.80 2.936955
542.90 2.984463
543.00 2.768065
543.10 2.549262
543.20 2.52058
543.30 2.605364
543.40 2.713022
543.50 2.723505
543.60 2.777915
543.70 2.948953
543.80 3.072173
543.90 3.108679
544.00 3.149242
544.10 3.275059
544.20 3.397856
544.30 3.529877
544.40 3.449602
544.50 3.37689
544.60 3.327914
544.70 3.075292
544.80 2.517041
544.90 2.018246
545.00 1.609399
545.10 1.19231
545.20 1.046977
545.30 1.089947
545.40 1.0879
545.50 1.182875
545.60 1.205389
545.70 1.215598
545.80 1.279412
545.90 1.331824
546.00 1.372139
546.10 1.506255
546.20 1.598831
546.30 1.512294
546.40 1.563681
546.50 1.609385
546.60 1.657335
546.70 1.671221
546.80 1.831195
546.90 1.884566
547.00 1.7741
547.10 1.58317
547.20 1.477396
547.30 1.511845
547.40 1.637217
547.50 1.699001
547.60 1.66508
547.70 1.581622
547.80 1.619466
547.90 1.667928
548.00 1.640191
548.10 1.646948
548.20 1.738606
548.30 1.810763
548.40 1.740977
548.50 1.812413
548.60 1.902439
548.70 1.867821
548.80 1.738554
548.90 1.676791
549.00 1.693722
549.10 1.712691
549.20 1.851599
549.30 1.83931
549.40 1.829415
549.50 1.855819
549.60 1.713976
549.70 1.502261
549.80 1.503416
549.90 1.494965
550.00 1.290596
550.10 1.082081
550.20 0.966793
550.30 1.005547
550.40 0.9674436
550.50 1.038461
550.60 1.10159
550.70 1.057279
550.80 0.9959075
550.90 0.9958786
551.00 0.9456683
551.10 0.9204631
551.20 0.8765443
551.30 0.7840709
551.40 0.7914488
551.50 0.847366
551.60 0.8618035
551.70 0.8692062
551.80 0.8421088
551.90 0.8208427
552.00 0.8410523
552.10 0.7774594
552.20 0.7100056
552.30 0.7344627
552.40 0.770653
552.50 0.7596343
552.60 0.8207344
552.70 0.8314684
552.80 0.8851562
552.90 0.8268618
553.00 0.6948315
553.10 0.7462213
553.20 0.8795995
553.30 0.9070863
553.40 0.7226268
553.50 0.6329533
553.60 0.6170669
553.70 0.718094
553.80 0.7333419
553.90 0.6926382
554.00 0.6607173
554.10 0.6483072
554.20 0.6819077
554.30 0.6425365
554.40 0.6572961
554.50 0.6581647
554.60 0.6730643
554.70 0.655632
554.80 0.6660716
554.90 0.7212891
555.00 0.7113106
555.10 0.7196199
555.20 0.7864407
555.30 0.8113184
555.40 0.7795958
555.50 0.7468831
555.60 0.7975604
555.70 0.9102613
555.80 0.9216942
555.90 0.9200439
556.00 1.027098
556.10 1.175467
556.20 1.173165
556.30 1.162586
556.40 1.165365
556.50 1.291741
556.60 1.336746
556.70 1.390422
556.80 1.375851
556.90 1.367082
557.00 1.444365
557.10 1.569611
557.20 1.597967
557.30 1.592465
557.40 1.592005
557.50 1.592005
557.60 1.592005
557.70 1.592005
557.80 1.592005
557.90 1.592005
558.00 1.592005
558.10 1.592005
558.20 1.591685
558.30 1.590383
558.40 1.58431
558.50 1.696241
558.60 1.874064
558.70 1.949893
558.80 1.977934
558.90 1.91193
559.00 1.910235
559.10 1.904228
559.20 1.883362
559.30 1.958568
559.40 2.004597
559.50 1.936427
559.60 1.901398
559.70 1.822862
559.80 1.644133
559.90 1.380839
560.00 1.268674
560.10 1.30661
560.20 1.489622
560.30 1.547588
560.40 1.60927
560.50 1.644224
560.60 1.564595
560.70 1.579602
560.80 1.653808
560.90 1.684654
561.00 1.676752
561.10 1.788446
561.20 1.726014
561.30 1.634169
561.40 1.701358
561.50 1.766964
561.60 1.746766
561.70 1.642685
561.80 1.459119
561.90 1.422105
562.00 1.480914
562.10 1.448042
562.20 1.481289
562.30 1.570024
562.40 1.532076
562.50 1.463923
562.60 1.521776
562.70 1.602358
562.80 1.593976
562.90 1.496605
563.00 1.489914
563.10 1.469521
563.20 1.314811
563.30 1.311659
563.40 1.537994
563.50 1.732319
563.60 1.666197
563.70 1.476673
563.80 1.342171
563.90 1.424961
564.00 1.485899
564.10 1.451369
564.20 1.410886
564.30 1.458443
564.40 1.524833
564.50 1.588973
564.60 1.682202
564.70 1.65176
564.80 1.662541
564.90 1.728576
565.00 1.750951
565.10 1.741088
565.20 1.820147
565.30 1.895605
565.40 1.900925
565.50 1.90854
565.60 1.927136
565.70 2.016993
565.80 1.953774
565.90 2.008233
566.00 2.060489
566.10 1.997011
566.20 1.943127
566.30 1.9301
566.40 1.831347
566.50 1.654463
566.60 1.6581
566.70 1.755297
566.80 1.770335
566.90 1.600494
567.00 1.571127
567.10 1.564039
567.20 1.555119
567.30 1.618978
567.40 1.720948
567.50 1.744742
567.60 1.710039
567.70 1.734192
567.80 1.839233
567.90 1.914967
568.00 1.831855
568.10 1.715991
568.20 1.723001
568.30 1.886016
568.40 1.98432
568.50 1.977832
568.60 2.025898
568.70 2.086411
568.80 2.056804
568.90 1.947259
569.00 1.941784
569.10 1.856894
569.20 1.868552
569.30 1.911729
569.40 2.005643
569.50 2.043983
569.60 1.990051
569.70 1.986395
569.80 2.055781
569.90 2.173057
570.00 2.199548
570.10 2.265452
570.20 2.336984
570.30 2.260987
570.40 2.198948
570.50 2.259611
570.60 2.393968
570.70 2.435129
570.80 2.419075
570.90 2.48141
571.00 2.554042
571.10 2.550402
571.20 2.499444
571.30 2.396344
571.40 2.287991
571.50 2.165941
571.60 2.144053
571.70 2.220455
571.80 2.242193
571.90 2.079897
572.00 1.961212
572.10 1.980054
572.20 2.143169
572.30 2.215872
572.40 2.179185
572.50 2.133813
572.60 2.165411
572.70 2.218226
572.80 2.19857
572.90 2.183342
573.00 2.225999
573.10 2.306848
573.20 2.281024
573.30 2.400435
573.40 2.527091
573.50 2.499398
573.60 2.404758
573.70 2.28429
573.80 2.237946
573.90 2.108343
574.00 2.160224
574.10 2.23179
574.20 2.131417
574.30 2.077384
574.40 2.1561
574.50 2.195988
574.60 2.34621
574.70 2.475893
574.80 2.54302
574.90 2.452579
575.00 2.516291
575.10 2.610591
575.20 2.615096
575.30 2.567332
575.40 2.585314
575.50 2.751845
575.60 2.773792
575.70 2.723341
575.80 2.709933
575.90 2.637588
576.00 2.41069
576.10 2.150064
576.20 2.07928
576.30 2.033443
576.40 1.898127
576.50 1.844031
576.60 1.878977
576.70 1.788218
576.80 1.781067
576.90 1.840451
577.00 1.946658
577.10 1.971335
577.20 1.90374
577.30 1.976987
577.40 2.080588
577.50 2.147397
577.60 2.109584
577.70 2.078966
577.80 2.035976
577.90 2.038075
578.00 2.108759
578.10 2.222375
578.20 2.367271
578.30 2.420671
578.40 2.362906
578.50 2.445552
578.60 2.569978
578.70 2.537051
578.80 2.373645
578.90 2.418085
579.00 2.475915
579.10 2.547743
579.20 2.553151
579.30 2.45541
579.40 2.505357
579.50 2.70025
579.60 2.689917
579.70 2.678767
579.80 2.681733
579.90 2.726632
580.00 2.817088
580.10 2.875697
580.20 2.86346
580.30 2.829436
580.40 2.80392
580.50 2.900449
580.60 3.033482
580.70 3.088425
580.80 3.046909
580.90 2.976331
581.00 2.854343
581.10 2.603781
581.20 2.283728
581.30 2.108915
581.40 2.082571
581.50 2.053757
581.60 1.995747
581.70 1.968521
581.80 2.024241
581.90 2.039644
582.00 1.959689
582.10 1.890392
582.20 1.849723
582.30 1.919919
582.40 1.871925
582.50 1.866261
582.60 2.008835
582.70 2.104785
582.80 2.129529
582.90 2.123076
583.00 2.123593
583.10 2.207378
583.20 2.265927
583.30 2.256768
583.40 2.251473
583.50 2.232921
583.60 2.1995
583.70 2.210171
583.80 2.239375
583.90 2.151968
584.00 1.946358
584.10 1.880628
584.20 2.01346
584.30 2.179277
584.40 2.199089
584.50 2.123529
584.60 2.093782
584.70 2.129251
584.80 1.910385
584.90 1.656497
585.00 1.555382
585.10 1.410211
585.20 1.286413
585.30 1.352419
585.40 1.484419
585.50 1.528266
585.60 1.57641
585.70 1.470675
585.80 1.425344
585.90 1.560317
586.00 1.61278
586.10 1.519988
586.20 1.359868
586.30 1.289023
586.40 1.261555
586.50 1.232063
586.60 1.30408
586.70 1.369058
586.80 1.303393
586.90 1.328113
587.00 1.432178
587.10 1.436147
587.20 1.299107
587.30 1.239426
587.40 1.28287
587.50 1.185884
587.60 1.24198
587.70 1.356812
587.80 1.364161
587.90 1.219037
588.00 1.08199
588.10 0.9743071
588.20 0.9226176
588.30 0.9510479
588.40 1.01575
588.50 0.9890645
588.60 0.8506247
588.70 0.8101462
588.80 0.8364986
588.90 0.8779025
589.00 0.7466095
589.10 0.6714008
589.20 0.8930933
589.30 1.032465
589.40 0.9627507
589.50 0.7119319
589.60 0.6844042
589.70 0.6571409
589.80 0.7507425
589.90 0.8160458
590.00 0.8257849
590.10 0.7561593
590.20 0.7706254
590.30 0.85409
590.40 0.9004416
590.50 0.9224632
590.60 0.9029572
590.70 0.8817138
590.80 0.9522803
590.90 0.9522227
591.00 0.8569663
591.10 0.9108921
591.20 1.058209
591.30 1.072186
591.40 0.9972235
591.50 0.9915302
591.60 1.053864
591.70 1.111717
591.80 1.136779
591.90 1.098912
592.00 1.060562
592.10 1.143456
592.20 1.149651
592.30 1.137223
592.40 1.12758
592.50 1.047514
592.60 1.103227
592.70 1.21486
592.80 1.157006
592.90 1.112535
593.00 1.135051
593.10 1.171271
593.20 1.185843
593.30 1.203805
593.40 1.227607
593.50 1.263387
593.60 1.258689
593.70 1.149694
593.80 1.045615
593.90 1.201461
594.00 1.366831
594.10 1.344707
594.20 1.291919
594.30 1.338529
594.40 1.407926
594.50 1.507655
594.60 1.506079
594.70 1.458098
594.80 1.409693
594.90 1.485445
595.00 1.438045
595.10 1.263184
595.20 1.19049
595.30 1.256292
595.40 1.273133
595.50 1.179855
595.60 1.218629
595.70 1.28386
595.80 1.306817
595.90 1.233039
596.00 1.168818
596.10 1.189534
596.20 1.206253
596.30 1.13578
596.40 1.183855
596.50 1.320601
596.60 1.353686
596.70 1.33475
596.80 1.331673
596.90 1.272266
597.00 1.227585
597.10 1.234046
597.20 1.290622
597.30 1.257033
597.40 1.196155
597.50 1.274035
597.60 1.397671
597.70 1.425854
597.80 1.335032
597.90 1.257556
598.00 1.255601
598.10 1.271427
598.20 1.403391
598.30 1.448228
598.40 1.385992
598.50 1.338068
598.60 1.42929
598.70 1.511835
598.80 1.467101
598.90 1.428584
599.00 1.389446
599.10 1.427359
599.20 1.457118
599.30 1.494556
599.40 1.477933
599.50 1.547593
599.60 1.674779
599.70 1.708745
599.80 1.611535
599.90 1.578842
600.00 1.59654
600.10 1.582123
600.20 1.519957
600.30 1.57402
600.40 1.64267
600.50 1.607723
600.60 1.531776
600.70 1.472988
600.80 1.464514
600.90 1.414138
601.00 1.391064
601.10 1.435204
601.20 1.538101
601.30 1.648193
601.40 1.595496
601.50 1.476365
601.60 1.53413
601.70 1.654907
601.80 1.710705
601.90 1.695223
602.00 1.690899
602.10 1.683659
602.20 1.668618
602.30 1.676357
602.40 1.65947
602.50 1.714166
602.60 1.756305
602.70 1.746799
602.80 1.738119
602.90 1.750356
603.00 1.669178
603.10 1.613118
603.20 1.680418
603.30 1.760596
603.40 1.833726
603.50 1.882969
603.60 1.847772
603.70 1.730135
603.80 1.632766
603.90 1.682937
604.00 1.735647
604.10 1.765892
604.20 1.83669
604.30 1.939602
604.40 1.93529
604.50 1.916714
604.60 1.96222
604.70 1.9433
604.80 1.985947
604.90 2.089244
605.00 2.174461
605.10 2.127384
605.20 2.065797
605.30 2.061564
605.40 2.038368
605.50 2.016135
605.60 2.066094
605.70 2.108676
605.80 2.108955
605.90 2.050467
606.00 2.131482
606.10 2.14816
606.20 2.147829
606.30 2.137299
606.40 2.101679
606.50 2.063837
606.60 1.983255
606.70 1.965436
606.80 2.04819
606.90 2.217262
607.00 2.309577
607.10 2.275078
607.20 2.208155
607.30 2.177869
607.40 2.152337
607.50 2.143374
607.60 2.166565
607.70 2.252706
607.80 2.277518
607.90 2.269706
608.00 2.134575
608.10 1.982037
608.20 1.896486
608.30 1.8728
608.40 1.966562
608.50 2.064376
608.60 2.138955
608.70 2.130809
608.80 2.126436
608.90 2.128059
609.00 2.089978
609.10 2.116935
609.20 2.141223
609.30 2.14607
609.40 2.239093
609.50 2.252283
609.60 2.209976
609.70 2.213066
609.80 2.258155
609.90 2.246923
610.00 2.245369
610.10 2.291162
610.20 2.224841
610.30 2.047809
610.40 1.985953
610.50 2.039617
610.60 2.157909
610.70 2.223847
610.80 2.23182
610.90 2.212974
611.00 2.108628
611.10 2.094118
611.20 2.127065
611.30 2.109497
611.40 2.113478
611.50 2.105208
611.60 2.068911
611.70 1.982318
611.80 1.905091
611.90 1.905251
612.00 1.994006
612.10 2.035399
612.20 1.981102
612.30 1.913423
612.40 1.925643
612.50 1.935931
612.60 1.895786
612.70 1.947051
612.80 2.00777
612.90 2.031438
613.00 2.063218
613.10 2.066957
613.20 2.015444
613.30 1.983955
613.40 1.958807
613.50 1.935384
613.60 1.938261
613.70 2.009365
613.80 2.080788
613.90 2.019513
614.00 1.965807
614.10 1.952546
614.20 1.856419
614.30 1.775364
614.40 1.866761
614.50 1.972484
614.60 2.026848
614.70 1.943159
614.80 1.780738
614.90 1.643308
615.00 1.583622
615.10 1.532539
615.20 1.448196
615.30 1.476751
615.40 1.551882
615.50 1.57487
615.60 1.595169
615.70 1.53525
615.80 1.47964
615.90 1.394021
616.00 1.308165
616.10 1.184524
616.20 1.08263
616.30 1.058014
616.40 1.088899
616.50 1.132887
616.60 1.103904
616.70 1.084843
616.80 1.094411
616.90 1.105861
617.00 1.086156
617.10 1.138273
617.20 1.12537
617.30 1.058512
617.40 1.00614
617.50 0.9910528
617.60 1.021833
617.70 1.050068
617.80 1.009493
617.90 1.04153
618.00 1.09896
618.10 1.0589
618.20 1.024681
618.30 1.063996
618.40 1.175958
618.50 1.17404
618.60 1.083443
618.70 1.012022
618.80 0.8744091
618.90 0.7935153
619.00 0.8333263
619.10 0.8671057
619.20 0.8710088
619.30 0.8897501
619.40 0.8824035
619.50 0.9138651
619.60 0.9588433
619.70 1.038579
619.80 1.015203
619.90 0.9432589
620.00 0.8859191
620.10 0.9242112
620.20 1.046685
620.30 1.07171
620.40 0.9943802
620.50 0.9770641
620.60 1.020097
620.70 1.037616
620.80 1.051413
620.90 1.073577
621.00 1.07149
621.10 1.072205
621.20 1.061192
621.30 1.062684
621.40 1.013987
621.50 0.9643625
621.60 0.9833779
621.70 0.9395654
621.80 0.8938469
621.90 0.9112615
622.00 0.9298444
622.10 1.023919
622.20 1.055294
622.30 0.9867763
622.40 0.9360075
622.50 0.9095901
622.60 0.877054
622.70 0.8011347
622.80 0.7846628
622.90 0.8668909
623.00 0.9425339
623.10 0.9619175
623.20 0.9292687
623.30 0.9393443
623.40 0.9329714
623.50 0.929699
623.60 0.940358
623.70 1.008591
623.80 1.004951
623.90 0.9250209
624.00 0.9764199
624.10 1.032785
624.20 1.023087
624.30 0.9172614
624.40 0.8736808
624.50 0.9392732
624.60 0.944941
624.70 0.9598008
624.80 0.9734737
624.90 1.018153
625.00 1.021572
625.10 0.9996098
625.20 1.047522
625.30 1.092853
625.40 1.126535
625.50 1.136536
625.60 1.119293
625.70 1.133814
625.80 1.130596
625.90 1.141274
626.00 1.109474
626.10 1.059413
626.20 1.058491
626.30 1.104911
626.40 1.148156
626.50 1.21753
626.60 1.237385
626.70 1.225649
626.80 1.215641
626.90 1.20802
627.00 1.241595
627.10 1.2553
627.20 1.162812
627.30 1.168303
627.40 1.264974
627.50 1.376947
627.60 1.364882
627.70 1.337803
627.80 1.348728
627.90 1.296097
628.00 1.256974
628.10 1.290354
628.20 1.354354
628.30 1.334538
628.40 1.354754
628.50 1.457204
628.60 1.515331
628.70 1.435446
628.80 1.511159
628.90 1.660181
629.00 1.676823
629.10 1.584529
629.20 1.521685
629.30 1.614714
629.40 1.648249
629.50 1.62651
629.60 1.656351
629.70 1.844571
629.80 1.927685
629.90 1.781647
630.00 1.612094
630.10 1.520577
630.20 1.764008
630.30 1.993313
630.40 2.065644
630.50 2.094005
630.60 1.995879
630.70 2.038892
630.80 2.127995
630.90 2.176637
631.00 2.16389
631.10 2.170722
631.20 2.242369
631.30 2.278556
631.40 2.344318
631.50 2.372481
631.60 2.353525
631.70 2.435866
631.80 2.539847
631.90 2.538127
632.00 2.489833
632.10 2.568079
632.20 2.512426
632.30 2.36366
632.40 2.348521
632.50 2.416478
632.60 2.480353
632.70 2.475922
632.80 2.495927
632.90 2.561302
633.00 2.64049
633.10 2.640941
633.20 2.638503
633.30 2.648217
633.40 2.716542
633.50 2.800066
633.60 2.830171
633.70 2.855856
633.80 2.908551
633.90 2.985964
634.00 3.000206
634.10 3.0717
634.20 3.112089
634.30 3.113414
634.40 3.146976
634.50 3.187807
634.60 3.252954
634.70 3.299052
634.80 3.300046
634.90 3.351302
635.00 3.411746
635.10 3.391468
635.20 3.271765
635.30 3.134874
635.40 3.053264
635.50 2.999333
635.60 2.926415
635.70 2.832811
635.80 2.77627
635.90 2.723892
636.00 2.74206
636.10 2.835054
636.20 2.902227
636.30 2.793496
636.40 2.685287
636.50 2.799168
636.60 2.92177
636.70 2.855773
636.80 2.728006
636.90 2.706965
637.00 2.821977
637.10 2.938875
637.20 2.970529
637.30 2.991577
637.40 3.018001
637.50 2.968422
637.60 2.939001
637.70 2.953782
637.80 2.956364
637.90 2.944152
638.00 2.873433
638.10 2.770949
638.20 2.621404
638.30 2.548561
638.40 2.569522
638.50 2.625689
638.60 2.643055
638.70 2.621214
638.80 2.614578
638.90 2.569117
639.00 2.576327
639.10 2.612511
639.20 2.732095
639.30 2.869593
639.40 2.934988
639.50 3.003639
639.60 3.118698
639.70 3.27571
639.80 3.389193
639.90 3.341445
640.00 3.301797
640.10 3.312192
640.20 3.310441
640.30 3.376454
640.40 3.44384
640.50 3.567419
640.60 3.672559
640.70 3.664699
640.80 3.626412
640.90 3.565551
641.00 3.555488
641.10 3.549147
641.20 3.544855
641.30 3.587234
641.40 3.632719
641.50 3.603449
641.60 3.505033
641.70 3.393145
641.80 3.373705
641.90 3.349624
642.00 3.272711
642.10 3.225514
642.20 3.199548
642.30 3.129047
642.40 3.075475
642.50 3.066647
642.60 3.122685
642.70 3.181845
642.80 3.242633
642.90 3.29866
643.00 3.32677
643.10 3.411892
643.20 3.436985
643.30 3.420381
643.40 3.388611
643.50 3.378188
643.60 3.455061
643.70 3.495976
643.80 3.510784
643.90 3.503774
644.00 3.461361
644.10 3.463981
644.20 3.515784
644.30 3.662336
644.40 3.828695
644.50 3.920592
644.60 3.9162
644.70 3.834161
644.80 3.75437
644.90 3.627667
645.00 3.521322
645.10 3.554576
645.20 3.650708
645.30 3.714186
645.40 3.759037
645.50 3.814056
645.60 3.825294
645.70 3.800647
645.80 3.800611
645.90 3.862439
646.00 3.900203
646.10 3.879338
646.20 3.845747
646.30 3.835835
646.40 3.906807
646.50 3.957768
646.60 4.014385
646.70 4.085149
646.80 4.176247
646.90 4.269765
647.00 4.3659
647.10 4.348074
647.20 4.336285
647.30 4.441374
647.40 4.558804
647.50 4.58953
647.60 4.558807
647.70 4.555487
647.80 4.552811
647.90 4.449075
648.00 4.219265
648.10 4.002074
648.20 3.93659
648.30 3.951807
648.40 3.95552
648.50 3.917707
648.60 3.78748
648.70 3.752296
648.80 3.848543
648.90 4.008003
649.00 4.140317
649.10 4.188813
649.20 4.184567
649.30 4.171312
649.40 4.160225
649.50 4.212257
649.60 4.30518
649.70 4.386398
649.80 4.443421
649.90 4.491805
650.00 4.543007
650.10 4.619736
650.20 4.723425
650.30 4.870923
650.40 5.019153
650.50 5.07324
650.60 5.100615
650.70 5.17075
650.80 5.245826
650.90 5.319885
651.00 5.392107
651.10 5.510709
651.20 5.564866
651.30 5.447779
651.40 5.283567
651.50 5.179087
651.60 5.187818
651.70 5.302149
651.80 5.469057
651.90 5.640179
652.00 5.747731
652.10 5.823749
652.20 5.932318
652.30 6.025182
652.40 6.067971
652.50 6.034563
652.60 6.04867
652.70 6.226854
652.80 6.470732
652.90 6.606999
653.00 6.625632
653.10 6.65022
653.20 6.674252
653.30 6.67994
653.40 6.674652
653.50 6.764443
653.60 6.92847
653.70 7.064974
653.80 7.265319
653.90 7.4272
654.00 7.484953
654.10 7.531548
654.20 7.592028
654.30 7.540718
654.40 7.27773
654.50 6.942463
654.60 6.674295
654.70 6.503947
654.80 6.380068
654.90 6.273362
655.00 6.184072
655.10 6.006087
655.20 5.801193
655.30 5.674111
655.40 5.646502
655.50 5.65081
655.60 5.655691
655.70 5.781756
655.80 5.956013
655.90 6.074914
656.00 6.240719
656.10 6.887772
656.20 8.656588
656.30 11.09962
656.40 12.78558
656.50 12.42446
656.60 10.22348
656.70 7.517788
656.80 5.726964
656.90 5.039412
657.00 4.916892
657.10 4.888674
657.20 4.815641
657.30 4.710671
657.40 4.609519
657.50 4.593575
657.60 4.708101
657.70 4.864623
657.80 4.927384
657.90 4.756284
658.00 4.449784
658.10 4.2649
658.20 4.237178
658.30 4.335615
658.40 4.512097
658.50 4.695331
658.60 4.872263
658.70 5.017095
658.80 5.143138
658.90 5.2002
659.00 5.214876
659.10 5.229123
659.20 5.212344
659.30 5.115558
659.40 4.903423
659.50 4.654647
659.60 4.500007
659.70 4.505054
659.80 4.594385
659.90 4.616053
660.00 4.57226
660.10 4.56967
660.20 4.598834
660.30 4.645557
660.40 4.693042
660.50 4.690873
660.60 4.674062
660.70 4.626638
660.80 4.536084
660.90 4.524994
661.00 4.570642
661.10 4.626298
661.20 4.687548
661.30 4.791962
661.40 4.878471
661.50 4.900479
661.60 4.857307
661.70 4.7508
661.80 4.662948
661.90 4.569774
662.00 4.40986
662.10 4.258683
662.20 4.217759
662.30 4.199971
662.40 4.168163
662.50 4.086242
662.60 3.91139
662.70 3.715138
662.80 3.563694
662.90 3.587074
663.00 3.769535
663.10 3.986454
663.20 4.17665
663.30 4.266967
663.40 4.266065
663.50 4.165056
663.60 3.936132
663.70 3.662477
663.80 3.415291
663.90 3.355839
664.00 3.476261
664.10 3.609945
664.20 3.740576
664.30 3.817359
664.40 3.861477
664.50 3.916728
664.60 3.926799
664.70 3.933886
664.80 3.916692
664.90 3.84498
665.00 3.70258
665.10 3.439411
665.20 3.106468
665.30 2.831404
665.40 2.707099
665.50 2.758189
665.60 2.874369
665.70 2.933797
665.80 2.978942
665.90 2.988848
666.00 2.972157
666.10 2.980543
666.20 3.043013
666.30 3.152209
666.40 3.208179
666.50 3.26885
666.60 3.361955
666.70 3.465151
666.80 3.546554
666.90 3.579466
667.00 3.63381
667.10 3.661416
667.20 3.681891
667.30 3.658552
667.40 3.583304
667.50 3.560964
667.60 3.572279
667.70 3.624333
667.80 3.714563
667.90 3.725434
668.00 3.596836
668.10 3.334602
668.20 2.960918
668.30 2.635505
668.40 2.495752
668.50 2.522484
668.60 2.630371
668.70 2.687723
668.80 2.726059
668.90 2.83686
669.00 2.946406
669.10 2.936172
669.20 2.849773
669.30 2.779411
669.40 2.762631
669.50 2.802684
669.60 2.879206
669.70 2.988219
669.80 3.080896
669.90 3.080991
670.00 3.077757
670.10 3.09031
670.20 3.13491
670.30 3.17274
670.40 3.21357
670.50 3.264515
670.60 3.281634
670.70 3.313746
670.80 3.366974
670.90 3.431573
671.00 3.424547
671.10 3.395982
671.20 3.379898
671.30 3.314743
671.40 3.22557
671.50 3.096673
671.60 2.915096
671.70 2.715975
671.80 2.53265
671.90 2.416782
672.00 2.354886
672.10 2.365909
672.20 2.426785
672.30 2.492389
672.40 2.535185
672.50 2.540222
672.60 2.583728
672.70 2.646853
672.80 2.703551
672.90 2.769356
673.00 2.798898
673.10 2.796895
673.20 2.787784
673.30 2.813285
673.40 2.865263
673.50 2.875924
673.60 2.819615
673.70 2.798091
673.80 2.884731
673.90 3.013283
674.00 3.061571
674.10 3.057209
674.20 3.070477
674.30 3.155354
674.40 3.273791
674.50 3.312719
674.60 3.257128
674.70 3.140452
674.80 2.95812
674.90 2.783139
675.00 2.668207
675.10 2.617863
675.20 2.672908
675.30 2.755094
675.40 2.846424
675.50 2.9121
675.60 2.937846
675.70 2.971949
675.80 3.000823
675.90 2.972902
676.00 2.94081
676.10 2.940436
676.20 2.979901
676.30 3.085928
676.40 3.190253
676.50 3.272015
676.60 3.36016
676.70 3.417934
676.80 3.437049
676.90 3.459457
677.00 3.48795
677.10 3.515687
677.20 3.540524
677.30 3.56436
677.40 3.557683
677.50 3.583605
677.60 3.712392
677.70 3.809279
677.80 3.787497
677.90 3.772631
678.00 3.772694
678.10 3.70653
678.20 3.473495
678.30 3.151712
678.40 2.906962
678.50 2.78835
678.60 2.764606
678.70 2.756824
678.80 2.759846
678.90 2.777276
679.00 2.854687
679.10 2.948673
679.20 2.963876
679.30 2.954389
679.40 2.95097
679.50 2.994645
679.60 3.063728
679.70 3.111602
679.80 3.142648
679.90 3.163849
680.00 3.213526
680.10 3.231627
680.20 3.237063
680.30 3.308965
680.40 3.365388
680.50 3.363558
680.60 3.319107
680.70 3.274815
680.80 3.25869
680.90 3.31876
681.00 3.454104
681.10 3.532612
681.20 3.558226
681.30 3.577998
681.40 3.576264
681.50 3.523552
681.60 3.405688
681.70 3.288072
681.80 3.274284
681.90 3.29791
682.00 3.348159
682.10 3.384149
682.20 3.358281
682.30 3.361139
682.40 3.353701
682.50 3.346301
682.60 3.393447
682.70 3.4704
682.80 3.532308
682.90 3.574284
683.00 3.641221
683.10 3.652955
683.20 3.584389
683.30 3.545169
683.40 3.56467
683.50 3.662701
683.60 3.73788
683.70 3.69223
683.80 3.605624
683.90 3.578329
684.00 3.632839
684.10 3.694604
684.20 3.76355
684.30 3.796169
684.40 3.825206
684.50 3.887051
684.60 3.868765
684.70 3.814566
684.80 3.765348
684.90 3.748183
685.00 3.702306
685.10 3.605679
685.20 3.442339
685.30 3.280011
685.40 3.23221
685.50 3.254968
685.60 3.352903
685.70 3.403544
685.80 3.417743
685.90 3.458159
686.00 3.430659
686.10 3.423102
686.20 3.467946
686.30 3.499021
686.40 3.573426
686.50 3.615572
686.60 3.65865
686.70 3.747328
686.80 3.686139
686.90 3.543149
687.00 3.421341
687.10 3.440818
687.20 3.573353
687.30 3.698625
687.40 3.823559
687.50 3.974531
687.60 4.062744
687.70 4.064366
687.80 4.089125
687.90 4.084432
688.00 4.034462
688.10 4.005058
688.20 4.033841
688.30 4.041678
688.40 3.996071
688.50 3.916208
688.60 3.795154
688.70 3.739158
688.80 3.816336
688.90 3.966522
689.00 4.050975
689.10 4.031566
689.20 3.945457
689.30 3.942673
689.40 4.044918
689.50 4.129034
689.60 4.212277
689.70 4.273508
689.80 4.234621
689.90 4.198565
690.00 4.160076
690.10 4.050174
690.20 3.856661
690.30 3.703901
690.40 3.787649
690.50 3.998399
690.60 4.183991
690.70 4.394975
690.80 4.613122
690.90 4.76685
691.00 4.796134
691.10 4.752829
691.20 4.704838
691.30 4.743233
691.40 4.789036
691.50 4.835005
691.60 4.884725
691.70 4.789172
691.80 4.562591
691.90 4.204299
692.00 3.875065
692.10 3.822025
692.20 4.051936
692.30 4.415346
692.40 4.71913
692.50 4.896767
692.60 5.006297
692.70 5.089515
692.80 5.107739
692.90 5.064929
693.00 5.058186
693.10 5.138429
693.20 5.331626
693.30 5.551631
693.40 5.68532
693.50 5.710869
693.60 5.665448
693.70 5.639655
693.80 5.63607
693.90 5.632171
694.00 5.664057
694.10 5.747728
694.20 5.935223
694.30 6.20418
694.40 6.448432
694.50 6.68143
694.60 6.878689
694.70 7.035139
694.80 7.152967
694.90 7.225519
695.00 7.292426
695.10 7.262318
695.20 7.090272
695.30 6.865169
695.40 6.595391
695.50 6.400189
695.60 6.378498
695.70 6.452037
695.80 6.471879
695.90 6.430397
696.00 6.444633
696.10 6.488938
696.20 6.572352
696.30 6.658281
696.40 6.748455
696.50 6.892291
696.60 7.012034
696.70 7.094729
696.80 7.165419
696.90 7.18789
697.00 7.129491
697.10 7.008739
697.20 6.865849
697.30 6.744589
697.40 6.759645
697.50 6.914006
697.60 7.161384
697.70 7.44446
697.80 7.64883
697.90 7.772175
698.00 7.7568
698.10 7.669648
698.20 7.631641
698.30 7.69702
698.40 7.809823
698.50 7.89584
698.60 7.930301
698.70 7.929196
698.80 7.907619
698.90 7.841349
699.00 7.734727
699.10 7.640105
699.20 7.550401
699.30 7.493716
699.40 7.5258
699.50 7.572338
699.60 7.692137
699.70 7.821691
699.80 7.844766
699.90 7.794681
700.00 7.714659
700.10 7.764712
700.20 7.939496
700.30 8.07577
700.40 8.091798
700.50 7.971931
700.60 7.834099
700.70 7.900738
700.80 8.137512
700.90 8.384488
701.00 8.529155
701.10 8.521537
701.20 8.523276
701.30 8.623661
701.40 8.804134
701.50 9.012837
701.60 9.115149
701.70 9.072497
701.80 9.015471
701.90 9.040638
702.00 9.202415
702.10 9.439555
702.20 9.574847
702.30 9.502413
702.40 9.219076
702.50 8.848351
702.60 8.683117
702.70 8.807917
702.80 9.249544
702.90 9.912904
703.00 10.49588
703.10 10.75831
703.20 10.68467
703.30 10.52002
703.40 10.50742
703.50 10.7631
703.60 11.25079
703.70 11.69551
703.80 11.88906
703.90 11.86244
704.00 11.75145
704.10 11.83869
704.20 12.07904
704.30 12.33071
704.40 12.53496
704.50 12.6442
704.60 12.7098
704.70 12.76813
704.80 12.82045
704.90 12.83215
705.00 12.8177
705.10 12.84215
705.20 12.8221
705.30 12.5087
705.40 11.47205
705.50 9.563739
705.60 7.294439
705.70 5.51308
705.80 4.65985
705.90 4.599545
706.00 4.701282
706.10 4.532462
706.20 4.282967
706.30 4.173804
706.40 4.270574
706.50 4.455716
706.60 4.646721
706.70 4.851957
706.80 4.999863
706.90 5.089282
707.00 5.230898
707.10 5.391691
707.20 5.531258
707.30 5.653894
707.40 5.755677
707.50 5.799951
707.60 5.755146
707.70 5.712676
707.80 5.788417
707.90 5.945867
708.00 6.030477
708.10 6.032747
708.20 6.110835
708.30 6.257139
708.40 6.39379
708.50 6.496058
708.60 6.479497
708.70 6.175563
708.80 5.510358
708.90 4.64153
709.00 3.800102
709.10 3.287833
709.20 3.212662
709.30 3.333475
709.40 3.434399
709.50 3.419089
709.60 3.362848
709.70 3.363391
709.80 3.436183
709.90 3.566711
710.00 3.652333
710.10 3.698776
710.20 3.752757
710.30 3.780743
710.40 3.802573
710.50 3.835305
710.60 3.921389
710.70 4.080083
710.80 4.304713
710.90 4.565494
711.00 4.787957
711.10 4.971836
711.20 5.096767
711.30 5.133326
711.40 5.109498
711.50 5.056364
711.60 5.002584
711.70 4.957828
711.80 5.016043
711.90 5.181122
712.00 5.407008
712.10 5.638182
712.20 5.773862
712.30 5.822936
712.40 5.745018
712.50 5.383081
712.60 4.62962
712.70 3.691428
712.80 2.951002
712.90 2.621375
713.00 2.636187
713.10 2.781287
713.20 2.850573
713.30 2.784913
713.40 2.710612
713.50 2.708966
713.60 2.806452
713.70 2.946347
713.80 3.006097
713.90 2.984007
714.00 2.974946
714.10 3.035511
714.20 3.152224
714.30 3.305193
714.40 3.419583
714.50 3.452469
714.60 3.434508
714.70 3.446076
714.80 3.531009
714.90 3.603076
715.00 3.61668
715.10 3.631074
715.20 3.694492
715.30 3.766584
715.40 3.857526
715.50 4.012291
715.60 4.210915
715.70 4.314507
715.80 4.24342
715.90 4.061235
716.00 3.867145
716.10 3.710884
716.20 3.629364
716.30 3.646566
716.40 3.714267
716.50 3.762457
716.60 3.776987
716.70 3.810469
716.80 3.860648
716.90 3.881841
717.00 3.933658
717.10 4.045643
717.20 4.190973
717.30 4.315648
717.40 4.357565
717.50 4.334745
717.60 4.307859
717.70 4.331438
717.80 4.401528
717.90 4.46381
718.00 4.549171
718.10 4.696676
718.20 4.811926
718.30 4.871097
718.40 4.956829
718.50 5.090094
718.60 5.246884
718.70 5.355416
718.80 5.429044
718.90 5.511221
719.00 5.567663
719.10 5.601727
719.20 5.584114
719.30 5.560477
719.40 5.611223
719.50 5.663849
719.60 5.598276
719.70 5.347893
719.80 4.989107
719.90 4.659799
720.00 4.492944
720.10 4.4609
720.20 4.510998
720.30 4.591503
720.40 4.579653
720.50 4.546042
720.60 4.567054
720.70 4.596922
720.80 4.65827
720.90 4.74375
721.00 4.819495
721.10 4.928823
721.20 5.025218
721.30 5.101095
721.40 5.190276
721.50 5.246788
721.60 5.303806
721.70 5.390161
721.80 5.476858
721.90 5.549533
722.00 5.580308
722.10 5.611491
722.20 5.709433
722.30 5.82851
722.40 5.958863
722.50 6.128956
722.60 6.264115
722.70 6.390213
722.80 6.545652
722.90 6.627441
723.00 6.571311
723.10 6.384917
723.20 6.173297
723.30 6.074594
723.40 6.132892
723.50 6.37255
723.60 6.662049
723.70 6.855067
723.80 6.986614
723.90 7.054422
724.00 7.072389
724.10 7.117734
724.20 7.087209
724.30 7.098211
724.40 7.189585
724.50 7.363937
724.60 7.643477
724.70 7.786923
724.80 7.869935
724.90 8.029908
725.00 8.223161
725.10 8.473874
725.20 8.561319
725.30 8.437815
725.40 8.34111
725.50 8.415958
725.60 8.633955
725.70 8.845994
725.80 8.94193
725.90 8.923588
726.00 8.847803
726.10 8.869322
726.20 9.079735
726.30 9.401572
726.40 9.697597
726.50 9.829496
726.60 9.8531
726.70 9.89226
726.80 9.95919
726.90 9.991496
727.00 9.871224
727.10 9.513506
727.20 8.99655
727.30 8.646666
727.40 8.738793
727.50 9.258581
727.60 9.804222
727.70 10.0911
727.80 10.11052
727.90 9.826882
728.00 9.602618
728.10 9.62451
728.20 9.720846
728.30 9.874369
728.40 10.03536
728.50 10.18283
728.60 10.3978
728.70 10.57511
728.80 10.6787
728.90 10.82835
729.00 10.97093
729.10 11.05228
729.20 11.09393
729.30 11.1411
729.40 11.24126
729.50 11.39367
729.60 11.62254
729.70 11.91252
729.80 12.11121
729.90 12.12212
730.00 11.99478
730.10 11.97683
730.20 12.2455
730.30 12.59577
730.40 12.82997
730.50 12.90941
730.60 12.89946
730.70 12.99532
730.80 13.21254
730.90 13.42269
731.00 13.56465
731.10 13.5956
731.20 13.52503
731.30 13.53191
731.40 13.71242
731.50 13.98536
731.60 14.21032
731.70 14.31026
731.80 14.35885
731.90 14.45397
732.00 14.64737
732.10 14.78007
732.20 14.8245
732.30 14.92874
732.40 15.03227
732.50 14.99655
732.60 14.8211
732.70 14.5986
732.80 14.51138
732.90 14.74072
733.00 15.13265
733.10 15.43879
733.20 15.55649
733.30 15.49799
733.40 15.4955
733.50 15.68423
733.60 15.9962
733.70 16.33243
733.80 16.62228
733.90 16.90109
734.00 17.05739
734.10 17.13578
734.20 17.19284
734.30 16.99442
734.40 16.58732
734.50 15.99491
734.60 15.50349
734.70 15.4864
734.80 15.71985
734.90 16.05258
735.00 16.39468
735.10 16.64534
735.20 16.81535
735.30 16.89395
735.40 16.90114
735.50 16.75709
735.60 16.43385
735.70 16.13341
735.80 16.1006
735.90 16.42203
736.00 16.85296
736.10 17.13417
736.20 17.2496
736.30 17.3092
736.40 17.47501
736.50 17.74762
736.60 17.98134
736.70 18.14765
736.80 18.32965
736.90 18.47529
737.00 18.63866
737.10 18.83754
737.20 18.86327
737.30 18.68355
737.40 18.35226
737.50 17.98706
737.60 17.82466
737.70 17.85607
737.80 18.03302
737.90 18.31039
738.00 18.53039
738.10 18.64453
738.20 18.6354
738.30 18.59488
738.40 18.60797
738.50 18.67378
738.60 18.81755
738.70 18.95352
738.80 19.08161
738.90 19.32934
739.00 19.62161
739.10 19.81015
739.20 19.71625
739.30 19.29907
739.40 18.76021
739.50 18.34795
739.60 18.2024
739.70 18.29369
739.80 18.54199
739.90 18.84317
740.00 19.05117
740.10 19.21256
740.20 19.41235
740.30 19.55884
740.40 19.53123
740.50 19.18307
740.60 18.57919
740.70 18.12796
740.80 17.99673
740.90 18.14918
741.00 18.57402
741.10 19.07844
741.20 19.38669
741.30 19.43307
741.40 19.43038
741.50 19.56483
741.60 19.7037
741.70 19.54523
741.80 19.00538
741.90 18.39735
742.00 18.06615
742.10 18.10752
742.20 18.40049
742.30 18.73057
742.40 18.97381
742.50 19.18597
742.60 19.38574
742.70 19.52709
742.80 19.59124
742.90 19.63627
743.00 19.6889
743.10 19.75416
743.20 19.83924
743.30 19.88332
743.40 19.78935
743.50 19.37666
743.60 18.75248
743.70 18.38313
743.80 18.53506
743.90 19.14802
744.00 19.81205
744.10 19.97789
744.20 19.703
744.30 19.33997
744.40 19.02473
744.50 18.82999
744.60 18.74029
744.70 18.69306
744.80 18.66037
744.90 18.63743
745.00 18.65961
745.10 18.81394
745.20 19.1107
745.30 19.38977
745.40 19.47731
745.50 19.32724
745.60 19.11118
745.70 18.99528
745.80 19.00265
745.90 19.05956
746.00 19.0979
746.10 19.1732
746.20 19.30418
746.30 19.45936
746.40 19.62804
746.50 19.71441
746.60 19.73491
746.70 19.72551
746.80 19.64763
746.90 19.6483
747.00 19.91198
747.10 20.34518
747.20 20.63935
747.30 20.49132
747.40 19.87817
747.50 19.30794
747.60 19.19107
747.70 19.51721
747.80 19.98277
747.90 20.22205
748.00 20.18645
748.10 20.01579
748.20 19.90991
748.30 20.05364
748.40 20.42227
748.50 20.70732
748.60 20.70788
748.70 20.47515
748.80 20.18407
748.90 20.08849
749.00 20.22126
749.10 20.44721
749.20 20.59779
749.30 20.5074
749.40 20.17759
749.50 19.79782
749.60 19.6373
749.70 19.80067
749.80 20.22334
749.90 20.78255
750.00 21.3083
750.10 21.6299
750.20 21.70542
750.30 21.63667
750.40 21.57212
750.50 21.49328
750.60 21.26156
750.70 20.91531
750.80 20.70125
750.90 20.90808
751.00 21.52738
751.10 22.12402
751.20 22.34834
751.30 22.15155
751.40 21.74336
751.50 21.5284
751.60 21.63229
751.70 21.95657
751.80 22.1653
751.90 21.9808
752.00 21.62555
752.10 21.39958
752.20 21.43684
752.30 21.70208
752.40 21.98795
752.50 22.08319
752.60 21.93516
752.70 21.47951
752.80 20.8445
752.90 20.51971
753.00 20.73314
753.10 21.40961
753.20 22.16048
753.30 22.54758
753.40 22.49346
753.50 22.19104
753.60 21.93241
753.70 21.99626
753.80 22.45042
753.90 23.06968
754.00 23.63951
754.10 23.97913
754.20 24.00885
754.30 23.90451
754.40 23.86792
754.50 23.94624
754.60 24.03149
754.70 23.96109
754.80 23.68264
754.90 23.39933
755.00 23.32079
755.10 23.47252
755.20 23.76865
755.30 23.93807
755.40 23.87548
755.50 23.71067
755.60 23.60477
755.70 23.67931
755.80 23.83072
755.90 23.99885
756.00 24.19756
756.10 24.32907
756.20 24.33228
756.30 24.17948
756.40 23.9201
756.50 23.64454
756.60 23.34612
756.70 22.98402
756.80 22.57293
756.90 22.23746
757.00 22.25696
757.10 22.77747
757.20 23.62844
757.30 24.45411
757.40 24.86196
757.50 24.90221
757.60 24.76459
757.70 24.41527
757.80 23.93847
757.90 23.62579
758.00 23.68509
758.10 24.21147
758.20 25.01191
758.30 25.71514
758.40 26.09309
758.50 26.04582
758.60 25.69043
758.70 25.08733
758.80 23.8756
758.90 21.73703
759.00 18.86754
759.10 16.08331
759.20 14.22778
759.30 13.62498
759.40 14.0199
759.50 14.78465
759.60 15.36499
759.70 15.48823
759.80 15.48452
759.90 15.74614
760.00 16.14034
760.10 16.29763
760.20 16.0137
760.30 15.57304
760.40 15.53687
760.50 15.85384
760.60 16.16052
760.70 16.33807
760.80 16.36579
760.90 16.28486
761.00 16.22281
761.10 16.32427
761.20 16.69581
761.30 17.41279
761.40 18.23437
761.50 18.7321
761.60 18.78574
761.70 18.70178
761.80 18.86753
761.90 19.27416
762.00 19.68941
762.10 19.76309
762.20 19.41454
762.30 19.05485
762.40 18.87681
762.50 18.82295
762.60 18.54681
762.70 17.5972
762.80 16.05089
762.90 14.31919
763.00 12.83641
763.10 11.87917
763.20 11.56324
763.30 11.77799
763.40 12.3278
763.50 12.80572
763.60 12.853
763.70 12.70472
763.80 12.64785
763.90 12.76794
764.00 12.85914
764.10 12.60738
764.20 12.37923
764.30 12.56898
764.40 12.80731
764.50 12.7955
764.60 12.51969
764.70 12.2558
764.80 12.4307
764.90 12.63045
765.00 12.43166
765.10 12.09827
765.20 11.80857
765.30 11.74407
765.40 11.7473
765.50 11.34052
765.60 10.75126
765.70 10.40512
765.80 10.28513
765.90 10.10816
766.00 9.482008
766.10 8.484883
766.20 7.404699
766.30 6.358654
766.40 5.435303
766.50 4.578905
766.60 3.88261
766.70 3.636101
766.80 3.845667
766.90 4.429799
767.00 5.207402
767.10 5.846829
767.20 6.230981
767.30 6.376142
767.40 6.491194
767.50 6.746716
767.60 7.140959
767.70 7.590706
767.80 7.917042
767.90 8.116611
768.00 8.308316
768.10 8.530739
768.20 8.744177
768.30 8.898917
768.40 9.037559
768.50 9.14663
768.60 9.20194
768.70 9.262168
768.80 9.367485
768.90 9.458382
769.00 9.430745
769.10 9.339628
769.20 9.2626
769.30 9.114871
769.40 8.814058
769.50 8.365022
769.60 7.808279
769.70 7.055271
769.80 6.058906
769.90 5.02259
770.00 4.259686
770.10 4.044354
770.20 4.422354
770.30 5.208255
770.40 6.141653
770.50 6.965858
770.60 7.529035
770.70 7.860335
770.80 8.051074
770.90 8.291095
771.00 8.72895
771.10 9.16709
771.20 9.515702
771.30 9.853385
771.40 10.11658
771.50 10.28923
771.60 10.35044
771.70 10.3512
771.80 10.44096
771.90 10.52901
772.00 10.63609
772.10 10.90771
772.20 11.26086
772.30 11.51837
772.40 11.57742
772.50 11.6653
772.60 11.91768
772.70 12.24439
772.80 12.59457
772.90 12.88871
773.00 13.06444
773.10 13.12068
773.20 13.13454
773.30 13.1804
773.40 13.32493
773.50 13.56052
773.60 13.73295
773.70 13.82527
773.80 13.94734
773.90 14.13223
774.00 14.35394
774.10 14.48381
774.20 14.39378
774.30 14.01873
774.40 13.40139
774.50 12.76375
774.60 12.25959
774.70 11.92132
774.80 11.70618
774.90 11.50686
775.00 11.23826
775.10 10.86203
775.20 10.42538
775.30 10.06275
775.40 10.07276
775.50 10.4371
775.60 10.79816
775.70 11.02638
775.80 11.04118
775.90 10.97533
776.00 11.03414
776.10 11.20528
776.20 11.40143
776.30 11.41997
776.40 11.25389
776.50 11.13731
776.60 11.1989
776.70 11.46453
776.80 11.90242
776.90 12.31093
777.00 12.48972
777.10 12.51737
777.20 12.55962
777.30 12.688
777.40 12.8893
777.50 13.02619
777.60 13.05875
777.70 13.08514
777.80 13.10295
777.90 13.10638
778.00 13.11743
778.10 13.06898
778.20 12.89544
778.30 12.56425
778.40 12.12007
778.50 11.70173
778.60 11.4356
778.70 11.40935
778.80 11.55692
778.90 11.73739
779.00 11.95318
779.10 12.16592
779.20 12.30577
779.30 12.43648
779.40 12.65544
779.50 12.95364
779.60 13.19425
779.70 13.26653
779.80 13.08526
779.90 12.64487
780.00 12.09891
780.10 11.6181
780.20 11.4981
780.30 11.92526
780.40 12.80974
780.50 13.90052
780.60 14.84901
780.70 15.41062
780.80 15.61905
780.90 15.64037
781.00 15.51216
781.10 15.29857
781.20 15.10849
781.30 15.16988
781.40 15.55493
781.50 15.96556
781.60 16.24613
781.70 16.40568
781.80 16.48714
781.90 16.46972
782.00 16.2782
782.10 15.94392
782.20 15.33249
782.30 14.5784
782.40 14.23386
782.50 14.3191
782.60 14.61715
782.70 14.77002
782.80 14.4041
782.90 13.77797
783.00 13.09003
783.10 12.51267
783.20 12.34854
783.30 12.58238
783.40 13.02518
783.50 13.4762
783.60 13.77785
783.70 13.9247
783.80 13.98658
783.90 14.02811
784.00 14.09921
784.10 14.16587
784.20 14.17803
784.30 14.18913
784.40 14.31019
784.50 14.58597
784.60 15.00485
784.70 15.4032
784.80 15.56374
784.90 15.45338
785.00 15.27115
785.10 15.179
785.20 15.15294
785.30 15.308
785.40 15.51224
785.50 15.49534
785.60 15.47853
785.70 15.51399
785.80 15.59796
785.90 15.87038
786.00 15.99994
786.10 15.80543
786.20 15.48925
786.30 15.15705
786.40 14.8903
786.50 14.82129
786.60 14.90995
786.70 14.98869
786.80 15.08427
786.90 15.19512
787.00 15.24872
787.10 15.25276
787.20 15.16261
787.30 14.93403
787.40 14.75135
787.50 14.82075
787.60 15.15166
787.70 15.66887
787.80 16.19003
787.90 16.58002
788.00 16.76002
788.10 16.77026
788.20 16.81332
788.30 16.94511
788.40 17.18311
788.50 17.42908
788.60 17.50894
788.70 17.46555
788.80 17.43043
788.90 17.55349
789.00 17.83309
789.10 18.04708
789.20 18.10165
789.30 18.07121
789.40 18.08549
789.50 18.21061
789.60 18.21393
789.70 17.9618
789.80 17.59773
789.90 17.17869
790.00 16.72784
790.10 16.35412
790.20 16.21068
790.30 16.37858
790.40 16.82012
790.50 17.30643
790.60 17.61502
790.70 17.60685
790.80 17.17206
790.90 16.36029
791.00 15.4762
791.10 14.88525
791.20 14.65108
791.30 14.81045
791.40 15.33754
791.50 15.91278
791.60 16.26503
791.70 16.27695
791.80 16.05754
791.90 15.80457
792.00 15.56895
792.10 15.5165
792.20 15.74949
792.30 16.05778
792.40 16.25925
792.50 16.34518
792.60 16.41603
792.70 16.48464
792.80 16.52028
792.90 16.60129
793.00 16.78381
793.10 17.10667
793.20 17.55019
793.30 18.00304
793.40 18.37867
793.50 18.61745
793.60 18.69431
793.70 18.66546
793.80 18.59353
793.90 18.44222
794.00 18.04964
794.10 17.3922
794.20 16.75417
794.30 16.46381
794.40 16.67668
794.50 17.15614
794.60 17.39578
794.70 17.06153
794.80 16.26918
794.90 15.52452
795.00 15.34758
795.10 15.90739
795.20 16.88998
795.30 17.92585
795.40 18.71774
795.50 19.08842
795.60 19.20993
795.70 19.2635
795.80 19.3514
795.90 19.41737
796.00 19.20193
796.10 18.72738
796.20 18.23032
796.30 17.92016
796.40 18.05072
796.50 18.58474
796.60 19.14586
796.70 19.53596
796.80 19.72206
796.90 19.7843
797.00 19.97068
797.10 20.2905
797.20 20.59694
797.30 20.76835
797.40 20.67244
797.50 20.31979
797.60 19.8644
797.70 19.527
797.80 19.39688
797.90 19.41392
798.00 19.47473
798.10 19.49351
798.20 19.40907
798.30 19.22252
798.40 19.021
798.50 18.87077
798.60 18.75234
798.70 18.61138
798.80 18.41416
798.90 18.24756
799.00 18.32584
799.10 18.71762
799.20 19.21135
799.30 19.64849
799.40 19.98442
799.50 19.99126
799.60 19.69222
799.70 19.4673
799.80 19.35538
799.90 19.36273
800.00 19.59204
800.10 19.86419
800.20 20.08802
800.30 20.30799
800.40 20.48604
800.50 20.612
800.60 20.71011
800.70 20.82272
800.80 20.98825
800.90 21.17837
801.00 21.3361
801.10 21.42872
801.20 21.51309
801.30 21.66812
801.40 21.88537
801.50 22.10689
801.60 22.26669
801.70 22.3998
801.80 22.53188
801.90 22.6462
802.00 22.78907
802.10 22.83878
802.20 22.70566
802.30 22.529
802.40 22.49765
802.50 22.73136
802.60 23.09667
802.70 23.42718
802.80 23.69016
802.90 23.8174
803.00 23.89427
803.10 24.04371
803.20 24.21247
803.30 24.35393
803.40 24.41615
803.50 24.42612
803.60 24.42957
803.70 24.39278
803.80 24.36464
803.90 24.34516
804.00 24.30162
804.10 24.30306
804.20 24.41013
804.30 24.62365
804.40 24.91115
804.50 25.21679
804.60 25.39922
804.70 25.32575
804.80 25.09599
804.90 24.91176
805.00 25.04367
805.10 25.60782
805.20 26.3634
805.30 27.08848
805.40 27.61435
805.50 27.82539
805.60 27.83162
805.70 27.76343
805.80 27.67543
805.90 27.65581
806.00 27.78164
806.10 28.00792
806.20 28.24542
806.30 28.36498
806.40 28.22972
806.50 27.93875
806.60 27.7066
806.70 27.69502
806.80 27.90284
806.90 28.02313
807.00 27.9256
807.10 27.76195
807.20 27.68849
807.30 27.90809
807.40 28.44161
807.50 29.00431
807.60 29.30214
807.70 29.36867
807.80 29.41938
807.90 29.56013
808.00 29.74026
808.10 29.86214
808.20 29.98144
808.30 30.17384
808.40 30.39574
808.50 30.62458
808.60 30.85083
808.70 30.95034
808.80 30.83999
808.90 30.65713
809.00 30.54311
809.10 30.59975
809.20 30.86028
809.30 31.16479
809.40 31.34738
809.50 31.32972
809.60 31.13788
809.70 30.89481
809.80 30.73666
809.90 30.72207
810.00 30.78045
810.10 30.83973
810.20 30.90876
810.30 30.95549
810.40 30.91701
810.50 30.8125
810.60 30.77676
810.70 30.93705
810.80 31.32976
810.90 31.85979
811.00 32.26604
811.10 32.39087
811.20 32.35702
811.30 32.39693
811.40 32.63111
811.50 32.81814
811.60 32.61336
811.70 32.0646
811.80 31.52924
811.90 31.45498
812.00 32.00495
812.10 32.84627
812.20 33.53921
812.30 33.8166
812.40 33.7459
812.50 33.6343
812.60 33.69877
812.70 33.98101
812.80 34.3211
812.90 34.51691
813.00 34.53203
813.10 34.42946
813.20 34.29713
813.30 34.25381
813.40 34.33353
813.50 34.45727
813.60 34.59247
813.70 34.74588
813.80 34.96863
813.90 35.35022
814.00 35.73919
814.10 35.77698
814.20 35.34349
814.30 34.68767
814.40 34.10887
814.50 33.80454
814.60 33.82209
814.70 33.99261
814.80 34.14535
814.90 34.15856
815.00 33.95491
815.10 33.81309
815.20 34.04872
815.30 34.4566
815.40 34.70276
815.50 34.68045
815.60 34.4683
815.70 34.30012
815.80 34.28458
815.90 34.31606
816.00 34.23702
816.10 33.99707
816.20 33.73077
816.30 33.64117
816.40 33.87333
816.50 34.34791
816.60 34.85907
816.70 35.27347
816.80 35.53264
816.90 35.69479
817.00 35.72693
817.10 35.58855
817.20 35.44061
817.30 35.33648
817.40 35.25703
817.50 35.18611
817.60 35.01087
817.70 34.61833
817.80 34.00759
817.90 33.2805
818.00 32.40528
818.10 30.98007
818.20 28.62812
818.30 25.27839
818.40 21.70739
818.50 19.61785
818.60 19.9747
818.70 22.42262
818.80 25.69802
818.90 28.27945
819.00 29.5945
819.10 29.87659
819.20 29.24257
819.30 27.57025
819.40 24.77439
819.50 21.20891
819.60 18.21895
819.70 17.13644
819.80 18.22014
819.90 20.73444
820.00 23.44704
820.10 25.68614
820.20 27.44584
820.30 28.88519
820.40 30.04599
820.50 30.67843
820.60 30.55646
820.70 29.91278
820.80 29.2701
820.90 29.03597
821.00 29.39943
821.10 30.15532
821.20 30.90024
821.30 31.35527
821.40 31.42878
821.50 31.2444
821.60 31.07592
821.70 31.08266
821.80 31.20293
821.90 31.37343
822.00 31.58641
822.10 31.87769
822.20 32.24012
822.30 32.51344
822.40 32.71155
822.50 33.01492
822.60 33.36287
822.70 33.60841
822.80 33.72959
822.90 33.77961
823.00 34.01789
823.10 34.56609
823.20 35.02414
823.30 34.99022
823.40 34.4305
823.50 33.7114
823.60 33.39311
823.70 33.61708
823.80 34.19501
823.90 34.9167
824.00 35.57086
824.10 36.03048
824.20 36.19812
824.30 36.04564
824.40 35.62386
824.50 35.18061
824.60 35.09289
824.70 35.51348
824.80 36.32875
824.90 37.09884
825.00 37.34629
825.10 36.91331
825.20 35.9783
825.30 34.97305
825.40 34.21034
825.50 33.68203
825.60 33.24903
825.70 32.81718
825.80 32.4957
825.90 32.5711
826.00 33.18777
826.10 34.14601
826.20 34.99936
826.30 35.48194
826.40 35.71676
826.50 35.8343
826.60 35.96043
826.70 36.18781
826.80 36.30662
826.90 36.17008
827.00 35.78908
827.10 35.09401
827.20 34.12271
827.30 33.15068
827.40 32.46714
827.50 32.1975
827.60 32.3013
827.70 32.61606
827.80 33.04436
827.90 33.44878
828.00 33.60044
828.10 33.51922
828.20 33.22818
828.30 32.74542
828.40 32.27797
828.50 31.98843
828.60 32.00406
828.70 32.22145
828.80 32.30725
828.90 31.9671
829.00 31.11613
829.10 30.12482
829.20 29.50029
829.30 29.5101
829.40 30.03523
829.50 30.58477
829.60 30.83337
829.70 30.92167
829.80 31.1106
829.90 31.29455
830.00 31.1086
830.10 30.62666
830.20 30.14471
830.30 29.58819
830.40 29.03168
830.50 28.60169
830.60 28.17171
830.70 28.4742
830.80 28.77669
830.90 29.47781
831.00 30.17893
831.10 30.46922
831.20 30.75951
831.30 30.64286
831.40 30.52621
831.50 30.48259
831.60 30.43898
831.70 30.68687
831.80 30.93477
831.90 31.42527
832.00 31.91577
832.10 31.87978
832.20 31.84379
832.30 32.11556
832.40 32.38733
832.50 32.45518
832.60 32.52302
832.70 31.71351
832.80 30.90399
832.90 30.43097
833.00 29.95796
833.10 30.9064
833.20 31.85484
833.30 32.45342
833.40 33.05199
833.50 32.10891
833.60 31.16582
833.70 30.65634
833.80 30.14686
833.90 30.58474
834.00 31.02263
834.10 31.51667
834.20 32.01072
834.30 32.33023
834.40 32.64975
834.50 32.27187
834.60 31.89399
834.70 31.18748
834.80 30.48097
834.90 30.51131
835.00 30.54165
835.10 30.85421
835.20 31.16677
835.30 31.20241
835.40 31.23806
835.50 31.1959
835.60 31.15374
835.70 31.29534
835.80 31.43694
835.90 31.79026
836.00 32.14358
836.10 32.29553
836.20 32.44749
836.30 32.01676
836.40 31.58603
836.50 31.22389
836.60 30.86175
836.70 31.25798
836.80 31.65422
836.90 32.44097
837.00 33.22772
837.10 33.66925
837.20 34.11078
837.30 33.25764
837.40 32.40451
837.50 31.21365
837.60 30.0228
837.70 29.66813
837.80 29.31347
837.90 29.60114
838.00 29.88881
838.10 30.29184
838.20 30.69487
838.30 30.52951
838.40 30.36415
838.50 29.95883
838.60 29.55352
838.70 28.96436
838.80 28.3752
838.90 27.57965
839.00 26.78411
839.10 27.4897
839.20 28.19528
839.30 28.91338
839.40 29.63149
839.50 29.54708
839.60 29.46268
839.70 29.39028
839.80 29.31788
839.90 29.81718
840.00 30.31649
840.10 30.48622
840.20 30.63286
840.30 31.12509
840.40 31.61277
840.50 31.93395
840.60 32.24944
840.70 32.5646
840.80 32.9015
840.90 33.09276
841.00 32.93938
841.10 32.7392
841.20 32.11274
841.30 31.54021
841.40 31.34502
841.50 31.4758
841.60 31.93765
841.70 32.82538
841.80 33.5746
841.90 33.3895
842.00 33.30502
842.10 32.38325
842.20 31.03261
842.30 30.317
842.40 30.69452
842.50 31.05976
842.60 30.85435
842.70 30.58159
842.80 29.92649
842.90 29.11775
843.00 28.93893
843.10 29.6602
843.20 30.23713
843.30 29.46844
843.40 28.61238
843.50 26.26942
843.60 23.47213
843.70 21.60396
843.80 21.03922
843.90 20.85494
844.00 22.75543
844.10 24.65699
844.20 24.95849
844.30 24.85795
844.40 23.89662
844.50 22.04367
844.60 20.43424
844.70 20.12294
844.80 19.79589
844.90 20.50397
845.00 21.46718
845.10 21.69187
845.20 21.21521
845.30 20.53726
845.40 18.9398
845.50 17.25697
845.60 16.77175
845.70 16.55887
845.80 16.58807
845.90 16.7855
846.00 16.98235
846.10 17.21415
846.20 17.45395
846.30 17.98188
846.40 18.52025
846.50 18.35187
846.60 17.75061
846.70 17.29342
846.80 17.02555
846.90 16.62552
847.00 16.70399
847.10 17.02819
847.20 17.1067
847.30 16.88749
847.40 16.82259
847.50 17.18495
847.60 17.5701
847.70 18.12829
847.80 18.74459
847.90 18.88309
848.00 18.7018
848.10 18.61336
848.20 18.69355
848.30 18.77814
848.40 18.96427
848.50 19.17633
848.60 19.5306
848.70 19.94369
848.80 20.16496
848.90 20.1084
849.00 20.10339
849.10 20.60812
849.20 21.08662
849.30 21.43174
849.40 21.72369
849.50 21.72122
849.60 21.19212
849.70 20.61336
849.80 20.0092
849.90 19.46765
850.00 19.62253
850.10 19.94333
850.20 20.1675
850.30 20.44504
850.40 20.75095
850.50 20.56701
850.60 20.22666
850.70 19.571
850.80 18.93119
850.90 18.68602
851.00 18.86
851.10 19.08062
851.20 19.70324
851.30 20.33088
851.40 20.17738
851.50 19.88429
851.60 19.51904
851.70 19.06597
851.80 18.6429
851.90 18.22949
852.00 17.74636
852.10 17.68427
852.20 17.74191
852.30 17.78712
852.40 17.82724
852.50 17.99733
852.60 18.67372
852.70 19.38949
852.80 19.98461
852.90 20.58471
853.00 20.91108
853.10 21.01201
853.20 21.14842
853.30 21.40747
853.40 21.65632
853.50 21.78658
853.60 21.97782
853.70 22.00379
853.80 21.85041
853.90 21.78614
854.00 21.98638
854.10 22.22627
854.20 21.92434
854.30 21.62111
854.40 21.47868
854.50 21.37565
854.60 21.51536
854.70 22.14845
854.80 22.82248
854.90 23.18165
855.00 23.47598
855.10 23.89624
855.20 24.39163
855.30 24.81661
855.40 25.09829
855.50 25.33436
855.60 25.33712
855.70 25.41843
855.80 25.40045
855.90 25.20995
856.00 24.67735
856.10 23.7835
856.20 23.02839
856.30 23.03382
856.40 23.04715
856.50 23.4972
856.60 24.06319
856.70 24.60046
856.80 25.10666
856.90 25.53694
857.00 25.47723
857.10 25.43211
857.20 25.02469
857.30 24.50444
857.40 24.25295
857.50 24.27559
857.60 24.30934
857.70 24.52409
857.80 24.78776
857.90 25.41311
858.00 26.09753
858.10 26.12472
858.20 25.54986
858.30 25.10402
858.40 25.13265
858.50 25.21721
858.60 25.28062
858.70 25.26704
858.80 25.44634
858.90 25.75745
859.00 25.99019
859.10 25.97928
859.20 25.98896
859.30 25.92467
859.40 25.84669
859.50 26.01479
859.60 26.35047
859.70 26.60499
859.80 26.76252
859.90 26.94996
860.00 27.02605
860.10 27.05148
860.20 27.28407
860.30 27.57802
860.40 27.67031
860.50 27.57453
860.60 27.63119
860.70 28.01218
860.80 28.24791
860.90 28.41125
861.00 28.52762
861.10 28.29916
861.20 27.59645
861.30 26.90027
861.40 26.33004
861.50 25.75514
861.60 25.62717
861.70 25.61297
861.80 25.37077
861.90 24.94968
862.00 24.67111
862.10 25.00853
862.20 25.3107
862.30 25.72137
862.40 26.14958
862.50 26.01631
862.60 25.25689
862.70 24.742
862.80 25.23845
862.90 25.71269
863.00 25.54239
863.10 25.31699
863.20 25.14925
863.30 25.04982
863.40 25.07527
863.50 25.5905
863.60 26.14758
863.70 26.04122
863.80 25.80785
863.90 25.79212
864.00 25.93473
864.10 26.12618
864.20 26.42575
864.30 26.78131
864.40 27.23376
864.50 27.63685
864.60 27.44709
864.70 26.89547
864.80 26.58845
864.90 26.61973
865.00 26.57464
865.10 26.86343
865.20 27.2961
865.30 27.58839
865.40 27.75399
865.50 27.9636
865.60 28.30224
865.70 28.61305
865.80 28.57404
865.90 28.51876
866.00 28.2395
866.10 27.84272
866.20 27.26636
866.30 26.45796
866.40 25.78667
866.50 26.23376
866.60 26.74895
866.70 27.67083
866.80 28.64284
866.90 29.16034
867.00 29.11293
867.10 28.94984
867.20 28.39208
867.30 27.94556
867.40 28.30647
867.50 28.8102
867.60 29.02369
867.70 28.96704
867.80 29.00387
867.90 29.45609
868.00 29.98652
868.10 29.98796
868.20 29.9466
868.30 29.65807
868.40 29.02653
868.50 28.53475
868.60 28.84348
868.70 29.30093
868.80 28.80736
868.90 28.0899
869.00 27.25981
869.10 26.37835
869.20 25.6088
869.30 24.98598
869.40 24.35038
869.50 23.6446
869.60 22.86466
869.70 22.73827
869.80 23.12911
869.90 23.52146
870.00 23.81263
870.10 24.04015
870.20 24.36358
870.30 24.73115
870.40 25.17296
870.50 25.65996
870.60 26.21752
870.70 26.88271
870.80 27.45248
870.90 26.96761
871.00 26.48557
871.10 25.73563
871.20 24.87159
871.30 24.30169
871.40 24.22635
871.50 24.27471
871.60 24.57059
871.70 24.7623
871.80 24.51499
871.90 24.17311
872.00 24.16945
872.10 24.55696
872.20 24.91145
872.30 25.05513
872.40 25.21947
872.50 25.32976
872.60 25.38005
872.70 25.8597
872.80 26.85283
872.90 27.85245
873.00 28.73414
873.10 29.557
873.20 29.16637
873.30 28.60339
873.40 28.06124
873.50 27.54074
873.60 27.11164
873.70 27.01021
873.80 26.97746
873.90 27.04311
874.00 27.01918
874.10 27.46651
874.20 28.27385
874.30 28.97757
874.40 29.47383
874.50 29.96044
874.60 30.63444
874.70 31.29365
874.80 30.86112
874.90 29.79795
875.00 28.83245
875.10 28.05865
875.20 27.38672
875.30 28.36582
875.40 29.40142
875.50 30.12558
875.60 30.74193
875.70 31.04346
875.80 30.79352
875.90 30.5291
876.00 31.04957
876.10 31.68565
876.20 32.22225
876.30 32.65174
876.40 32.44183
876.50 31.45426
876.60 30.52235
876.70 30.05669
876.80 29.58435
876.90 29.49448
877.00 29.57049
877.10 30.41839
877.20 32.02984
877.30 33.49371
877.40 34.34082
877.50 35.12255
877.60 36.02208
877.70 36.99934
877.80 36.94837
877.90 35.8427
878.00 34.60064
878.10 33.15494
878.20 31.75423
878.30 32.15753
878.40 32.74917
878.50 33.19985
878.60 33.57535
878.70 33.8524
878.80 33.87001
878.90 33.88801
879.00 34.13196
879.10 34.45984
879.20 35.01711
879.30 35.69228
879.40 35.93959
879.50 35.41382
879.60 34.905
879.70 35.49693
879.80 36.17173
879.90 36.62028
880.00 36.90169
880.10 36.2716
880.20 34.20057
880.30 32.20278
880.40 31.127
880.50 30.10542
880.60 30.27772
880.70 30.93052
880.80 31.42241
880.90 31.68403
881.00 32.01414
881.10 32.60686
881.20 33.12353
881.30 34.69868
881.40 36.47917
881.50 37.93351
881.60 39.02857
881.70 39.84796
881.80 39.70494
881.90 39.57308
882.00 39.8078
882.10 40.06566
882.20 39.2707
882.30 37.56446
882.40 35.8496
882.50 34.1844
882.60 32.55608
882.70 32.45989
882.80 32.48286
882.90 33.07186
883.00 34.04995
883.10 35.12189
883.20 36.36742
883.30 37.63852
883.40 38.29761
883.50 38.89697
883.60 39.06268
883.70 39.05221
883.80 39.0916
883.90 39.23317
884.00 39.30914
884.10 39.35023
884.20 39.51736
884.30 39.67077
884.40 39.74334
884.50 39.31957
884.60 38.19353
884.70 37.08212
884.80 35.96181
884.90 34.88126
885.00 34.35046
885.10 33.96395
885.20 34.59621
885.30 36.61211
885.40 38.61134
885.50 40.24735
885.60 41.88728
885.70 41.45767
885.80 40.48071
885.90 38.63688
886.00 36.03199
886.10 33.42648
886.20 30.95566
886.30 28.49657
886.40 28.17026
886.50 28.227
886.60 29.33144
886.70 31.32075
886.80 32.65199
886.90 32.25761
887.00 31.82052
887.10 30.00347
887.20 28.03326
887.30 26.17214
887.40 24.63055
887.50 23.87602
887.60 24.62268
887.70 25.39112
887.80 26.79419
887.90 28.25321
888.00 29.50656
888.10 30.64038
888.20 31.34645
888.30 31.28794
888.40 31.10545
888.50 29.84468
888.60 28.52383
888.70 28.18148
888.80 28.20181
888.90 28.7661
889.00 30.02024
889.10 31.05593
889.20 31.32093
889.30 31.64618
889.40 31.62292
889.50 31.49529
889.60 30.89492
889.70 29.75098
889.80 28.70055
889.90 28.34947
890.00 28.07019
890.10 29.35736
890.20 30.97379
890.30 32.14222
890.40 32.87514
890.50 33.60601
890.60 34.42295
890.70 35.28743
890.80 35.25896
890.90 35.17341
891.00 34.69431
891.10 33.94435
891.20 33.15749
891.30 32.48729
891.40 31.89586
891.50 32.69347
891.60 33.60524
891.70 34.24103
891.80 34.58282
891.90 34.83955
892.00 35.07572
892.10 35.3535
892.20 35.45043
892.30 35.48727
892.40 34.96702
892.50 34.20173
892.60 33.66339
892.70 33.45704
892.80 33.28384
892.90 33.47378
893.00 33.75291
893.10 34.39189
893.20 35.2047
893.30 36.15646
893.40 37.23176
893.50 38.19125
893.60 38.56333
893.70 38.88302
893.80 37.56271
893.90 35.85175
894.00 34.15269
894.10 32.63554
894.20 31.56442
894.30 31.85554
894.40 32.20307
894.50 31.83552
894.60 31.33776
894.70 31.44658
894.80 32.10788
894.90 32.86699
895.00 33.79405
895.10 34.70972
895.20 34.677
895.30 34.59269
895.40 34.0471
895.50 33.35023
895.60 33.2709
895.70 34.291
895.80 35.28302
895.90 35.58622
896.00 35.85094
896.10 35.77499
896.20 35.49188
896.30 35.22892
896.40 35.07295
896.50 35.03379
896.60 35.24822
896.70 35.37554
896.80 35.0855
896.90 34.68092
897.00 34.56987
897.10 34.92947
897.20 35.33102
897.30 35.62567
897.40 35.82514
897.50 36.12921
897.60 36.536
897.70 37.22211
897.80 38.11591
897.90 38.72787
898.00 38.30087
898.10 37.71496
898.20 36.99057
898.30 36.33308
898.40 36.59688
898.50 37.60987
898.60 38.55021
898.70 39.41186
898.80 40.32798
898.90 40.57965
899.00 40.6926
899.10 40.29221
899.20 39.67497
899.30 39.12386
899.40 38.78499
899.50 38.44922
899.60 38.05965
899.70 37.74632
899.80 37.37298
899.90 36.91044
900.00 36.22587
900.10 35.31774
900.20 34.75551
900.30 36.49474
900.40 38.33105
900.50 39.60983
900.60 40.76607
900.70 41.57447
900.80 41.88431
900.90 42.0362
901.00 41.226
901.10 40.26715
901.20 39.89099
901.30 39.78217
901.40 40.03398
901.50 40.43779
901.60 40.70075
901.70 40.63248
901.80 40.57223
901.90 39.78557
902.00 38.96916
902.10 38.09445
902.20 37.16516
902.30 36.34296
902.40 35.77806
902.50 35.18843
902.60 34.62942
902.70 34.13282
902.80 33.87127
902.90 33.73089
903.00 34.02117
903.10 35.06222
903.20 36.11533
903.30 36.63948
903.40 37.13172
903.50 38.10622
903.60 39.21159
903.70 39.98978
903.80 40.38802
903.90 40.84711
904.00 41.50459
904.10 42.19892
904.20 41.88857
904.30 41.24272
904.40 40.65149
904.50 40.14933
904.60 39.8898
904.70 40.60961
904.80 41.39962
904.90 41.99206
905.00 42.56199
905.10 42.6763
905.20 42.22011
905.30 41.69287
905.40 40.97925
905.50 40.2911
905.60 39.93742
905.70 39.55527
905.80 39.18379
905.90 38.87585
906.00 38.59244
906.10 38.36301
906.20 38.17653
906.30 38.86876
906.40 39.63023
906.50 40.0445
906.60 40.07881
906.70 39.91923
906.80 39.55426
906.90 39.21369
907.00 38.6153
907.10 37.97441
907.20 38.11124
907.30 38.61052
907.40 39.08314
907.50 39.41849
907.60 39.72759
907.70 40.06489
907.80 40.3227
907.90 41.04489
908.00 42.03685
908.10 42.9762
908.20 43.6665
908.30 43.95572
908.40 42.97982
908.50 41.93989
908.60 41.86184
908.70 42.00684
908.80 42.04408
908.90 41.90819
909.00 41.70813
909.10 41.52047
909.20 41.40762
909.30 41.77044
909.40 42.21003
909.50 42.57765
909.60 42.89034
909.70 43.21191
909.80 43.4971
909.90 43.74086
910.00 44.11106
910.10 44.57906
910.20 44.60793
910.30 44.38982
910.40 44.22188
910.50 44.09344
910.60 43.8707
910.70 43.24401
910.80 42.71203
910.90 42.63326
911.00 42.77529
911.10 43.06709
911.20 43.5294
911.30 44.05469
911.40 44.75479
911.50 45.48167
911.60 45.52343
911.70 45.31701
911.80 45.01399
911.90 44.76168
912.00 44.61464
912.10 44.6913
912.20 44.81001
912.30 44.95382
912.40 45.0072
912.50 44.92871
912.60 44.7681
912.70 44.77811
912.80 45.16461
912.90 45.5786
913.00 45.94187
913.10 46.25757
913.20 46.3768
913.30 46.50948
913.40 46.76867
913.50 47.1188
913.60 47.33864
913.70 46.83035
913.80 46.32205
913.90 45.46117
914.00 44.48678
914.10 43.54588
914.20 42.65097
914.30 41.93213
914.40 42.57835
914.50 43.27596
914.60 44.25505
914.70 45.3166
914.80 45.7615
914.90 45.4659
915.00 45.09088
915.10 44.40393
915.20 43.66414
915.30 43.89476
915.40 44.41207
915.50 45.55331
915.60 47.14678
915.70 48.5328
915.80 49.44193
915.90 50.4274
916.00 49.7563
916.10 48.94962
916.20 48.19642
916.30 47.39428
916.40 46.69022
916.50 46.36596
916.60 46.16329
916.70 47.01114
916.80 47.86802
916.90 48.16425
917.00 48.24678
917.10 48.41682
917.20 48.57029
917.30 48.58836
917.40 48.0621
917.50 47.53011
917.60 47.07372
917.70 46.70473
917.80 46.6836
917.90 47.02697
918.00 47.31406
918.10 47.41683
918.20 47.5687
918.30 47.73094
918.40 47.86168
918.50 47.61081
918.60 46.97513
918.70 46.55893
918.80 46.82919
918.90 47.00782
919.00 48.5578
919.10 50.42682
919.20 51.20136
919.30 50.98877
919.40 50.43876
919.50 49.06908
919.60 47.63298
919.70 47.79559
919.80 48.14533
919.90 48.86765
920.00 49.80233
920.10 50.28348
920.20 49.90786
920.30 49.53251
920.40 49.88308
920.50 50.34316
920.60 50.09108
920.70 49.62099
920.80 48.79569
920.90 47.35064
921.00 45.86066
921.10 44.63527
921.20 43.56163
921.30 43.76871
921.40 44.14333
921.50 44.67982
921.60 45.34952
921.70 46.0728
921.80 46.82662
921.90 47.61363
922.00 46.995
922.10 46.25685
922.20 45.97289
922.30 45.94669
922.40 45.70702
922.50 45.08409
922.60 44.4931
922.70 44.80148
922.80 45.18154
922.90 45.79826
923.00 46.43219
923.10 46.37495
923.20 45.16048
923.30 43.93488
923.40 42.92055
923.50 42.08937
923.60 42.15892
923.70 42.48378
923.80 42.67775
923.90 42.6993
924.00 42.67813
924.10 42.48933
924.20 42.29751
924.30 43.83599
924.40 45.81159
924.50 46.70307
924.60 46.51256
924.70 46.0973
924.80 44.87558
924.90 43.53804
925.00 42.82554
925.10 42.30381
925.20 42.0948
925.30 42.02715
925.40 42.02196
925.50 42.24338
925.60 42.49338
925.70 44.01818
925.80 45.60484
925.90 46.73322
926.00 47.42625
926.10 47.66085
926.20 47.07234
926.30 46.49599
926.40 45.82312
926.50 45.15204
926.60 45.39152
926.70 46.10381
926.80 46.86748
926.90 47.5219
927.00 48.03275
927.10 47.89134
927.20 47.71515
927.30 47.23337
927.40 46.64889
927.50 45.83456
927.60 44.82488
927.70 43.94456
927.80 43.39865
927.90 42.80382
928.00 42.23469
928.10 41.7948
928.20 41.97415
928.30 42.55995
928.40 43.21517
928.50 44.01946
928.60 44.84169
928.70 44.84486
928.80 44.67581
928.90 44.28068
929.00 43.89739
929.10 43.56319
929.20 43.25772
929.30 42.94752
929.40 43.09053
929.50 43.26677
929.60 43.52586
929.70 43.88988
929.80 43.98214
929.90 43.57505
930.00 43.08468
930.10 42.11881
930.20 41.00059
930.30 40.75124
930.40 40.89785
930.50 41.26923
930.60 41.78522
930.70 42.11224
930.80 41.70887
930.90 41.27027
931.00 41.31634
931.10 41.45118
931.20 42.29733
931.30 43.61968
931.40 44.78356
931.50 45.47388
931.60 46.17617
931.70 45.13339
931.80 44.09079
931.90 43.24131
932.00 43.23994
932.10 43.74308
932.20 44.20439
932.30 44.43703
932.40 44.65928
932.50 44.73925
932.60 44.25319
932.70 43.81904
932.80 43.56702
932.90 43.50713
933.00 43.43351
933.10 43.79715
933.20 44.27981
933.30 44.73778
933.40 44.76531
933.50 44.80452
933.60 44.77216
933.70 44.70493
933.80 44.66668
933.90 44.83494
934.00 45.0694
934.10 45.23301
934.20 45.1311
934.30 44.99015
934.40 44.94678
934.50 45.03247
934.60 45.01057
934.70 45.00664
934.80 45.1556
934.90 45.32966
935.00 45.10811
935.10 44.65665
935.20 44.21053
935.30 44.05417
935.40 43.92874
935.50 43.87794
935.60 44.00759
935.70 44.14503
935.80 44.21078
935.90 44.34665
936.00 44.48209
936.10 45.16115
936.20 45.92331
936.30 46.57726
936.40 46.53404
936.50 46.41732
936.60 46.26271
936.70 46.13408
936.80 46.01521
936.90 45.87864
937.00 45.65056
937.10 45.42178
937.20 44.84088
937.30 44.30926
937.40 43.98097
937.50 44.09312
937.60 44.21995
937.70 44.27833
937.80 44.30165
937.90 44.32809
938.00 44.46478
938.10 44.61853
938.20 44.709
938.30 44.37814
938.40 44.05307
938.50 43.97977
938.60 44.21195
938.70 44.44899
938.80 44.59275
938.90 44.73307
939.00 44.87321
939.10 45.22809
939.20 45.57142
939.30 45.8428
939.40 45.89909
939.50 45.95192
939.60 45.67708
939.70 45.04378
939.80 44.40704
939.90 44.02529
940.00 43.80884
940.10 43.66513
940.20 44.04806
940.30 44.40469
940.40 44.60762
940.50 44.64534
940.60 44.69948
940.70 45.15513
940.80 45.79186
940.90 46.42616
941.00 46.90158
941.10 47.31753
941.20 47.50459
941.30 47.01565
941.40 46.51537
941.50 45.91182
941.60 45.18935
941.70 44.45765
941.80 44.41889
941.90 44.58105
942.00 44.72084
942.10 44.76473
942.20 44.86506
942.30 44.97448
942.40 45.02861
942.50 45.06876
942.60 45.1732
942.70 45.25573
942.80 45.33863
942.90 45.37687
943.00 45.54629
943.10 45.92453
943.20 46.85756
943.30 47.76924
943.40 48.30994
943.50 48.43164
943.60 48.54729
943.70 48.40637
943.80 48.19033
943.90 47.95501
944.00 47.47189
944.10 46.96121
944.20 46.55673
944.30 46.40181
944.40 46.26326
944.50 45.87633
944.60 45.42652
944.70 44.97519
944.80 45.11147
944.90 45.2425
945.00 45.39698
945.10 45.67969
945.20 45.96879
945.30 46.21381
945.40 46.30719
945.50 46.3926
945.60 46.48249
945.70 46.63963
945.80 46.74115
945.90 46.28758
946.00 45.79369
946.10 45.52557
946.20 45.72504
946.30 45.95913
946.40 46.69573
946.50 47.58514
946.60 48.48232
946.70 48.34272
946.80 48.16486
946.90 48.05112
947.00 48.18901
947.10 48.33747
947.20 48.43596
947.30 48.42872
947.40 48.42252
947.50 48.52235
947.60 48.69375
947.70 48.8639
947.80 48.97721
947.90 49.04551
948.00 49.18898
948.10 49.54252
948.20 49.91011
948.30 49.99922
948.40 49.97657
948.50 49.95348
948.60 50.23079
948.70 50.42764
948.80 50.54105
948.90 50.4678
949.00 50.4166
949.10 50.58718
949.20 50.93914
949.30 51.29743
949.40 51.01688
949.50 50.51793
949.60 50.00839
949.70 49.40142
949.80 48.84406
949.90 48.68246
950.00 49.17696
950.10 49.66643
950.20 50.08122
950.30 50.48616
950.40 50.89588
950.50 50.43727
950.60 49.86418
950.70 49.41018
950.80 49.3461
950.90 49.30601
951.00 49.44782
951.10 49.71955
951.20 49.99223
951.30 50.01365
951.40 49.95408
951.50 49.88167
951.60 49.67562
951.70 49.46743
951.80 49.24531
951.90 48.99809
952.00 48.75083
952.10 48.67931
952.20 48.77775
952.30 48.87437
952.40 49.49563
952.50 50.17808
952.60 50.83525
952.70 51.37765
952.80 51.9009
952.90 52.11128
953.00 51.97671
953.10 51.82877
953.20 51.60916
953.30 51.39159
953.40 51.16226
953.50 50.78019
953.60 50.35046
953.70 49.91106
953.80 49.58339
953.90 49.29294
954.00 49.41658
954.10 49.61249
954.20 49.80372
954.30 49.77432
954.40 49.78014
954.50 49.64444
954.60 49.17275
954.70 48.73737
954.80 48.5967
954.90 48.65336
955.00 48.69176
955.10 49.10521
955.20 49.57038
955.30 49.99002
955.40 50.1556
955.50 50.34367
955.60 50.59453
955.70 50.99004
955.80 51.40248
955.90 51.8035
956.00 52.1407
956.10 52.47959
956.20 52.42612
956.30 52.2742
956.40 51.98856
956.50 51.46287
956.60 50.96075
956.70 51.01235
956.80 51.53284
956.90 52.06314
957.00 52.04087
957.10 51.91719
957.20 51.83231
957.30 51.88807
957.40 51.89421
957.50 51.64815
957.60 51.10195
957.70 50.543
957.80 50.12172
957.90 49.75725
958.00 49.40157
958.10 49.85409
958.20 50.38727
958.30 50.78602
958.40 50.87294
958.50 50.9607
958.60 51.00201
958.70 50.92109
958.80 50.83758
958.90 50.2229
959.00 49.45989
959.10 48.77692
959.20 48.58922
959.30 48.5109
959.40 48.68781
959.50 49.14175
959.60 49.60538
959.70 48.98923
959.80 47.85682
959.90 46.73191
960.00 45.67462
960.10 44.63766
960.20 44.15715
960.30 44.87231
960.40 45.63589
960.50 46.83251
960.60 48.25219
960.70 49.68001
960.80 50.25092
960.90 50.69835
961.00 51.01841
961.10 50.84015
961.20 50.65503
961.30 50.38245
961.40 50.0129
961.50 49.62871
961.60 49.26459
961.70 48.93182
961.80 48.67793
961.90 49.4601
962.00 50.34526
962.10 51.07817
962.20 51.4648
962.30 51.81202
962.40 51.73443
962.50 51.36856
962.60 50.99352
962.70 51.15894
962.80 51.39346
962.90 51.55083
963.00 51.4935
963.10 51.44153
963.20 51.23902
963.30 50.77471
963.40 50.30323
963.50 49.5877
963.60 48.83003
963.70 47.88586
963.80 45.29477
963.90 42.60936
964.00 40.68043
964.10 40.09979
964.20 39.57602
964.30 41.06189
964.40 43.5752
964.50 46.09432
964.60 46.53125
964.70 46.83386
964.80 46.97241
964.90 46.63583
965.00 46.27709
965.10 46.34383
965.20 46.74534
965.30 47.13836
965.40 47.69288
965.50 48.27172
965.60 48.80898
965.70 49.1289
965.80 49.50348
965.90 49.90216
966.00 50.31709
966.10 50.72444
966.20 51.20206
966.30 51.65996
966.40 52.11501
966.50 52.12881
966.60 52.09426
966.70 51.9142
966.80 51.43103
966.90 50.96635
967.00 50.89748
967.10 51.09772
967.20 51.29976
967.30 50.78394
967.40 50.15472
967.50 49.32562
967.60 47.48111
967.70 45.54083
967.80 44.53904
967.90 44.78942
968.00 45.06648
968.10 46.51781
968.20 48.4889
968.30 50.38673
968.40 50.56583
968.50 50.58012
968.60 50.45457
968.70 50.01827
968.80 49.57122
968.90 48.81005
969.00 47.97503
969.10 47.13462
969.20 47.71848
969.30 48.49059
969.40 49.36427
969.50 50.60471
969.60 51.84358
969.70 52.61216
969.80 52.83759
969.90 53.05624
970.00 53.17282
970.10 53.3188
970.20 53.42211
970.30 53.06079
970.40 52.65287
970.50 51.66075
970.60 49.67459
970.70 47.63422
970.80 46.66436
970.90 46.38658
971.00 46.08647
971.10 47.93815
971.20 50.01297
971.30 51.84567
971.40 52.94524
971.50 54.01931
971.60 54.67292
971.70 54.88405
971.80 55.09195
971.90 54.68902
972.00 54.11043
972.10 53.53654
972.20 52.9946
972.30 52.44273
972.40 52.19398
972.50 52.40465
972.60 52.64662
972.70 52.16609
972.80 51.33661
972.90 50.50538
973.00 48.89341
973.10 47.20108
973.20 46.27785
973.30 47.21027
973.40 48.23177
973.50 49.21243
973.60 50.14589
973.70 51.07979
973.80 51.09496
973.90 50.97178
974.00 50.85628
974.10 50.74705
974.20 50.62348
974.30 50.0188
974.40 48.8049
974.50 47.56674
974.60 46.90364
974.70 46.55723
974.80 46.31004
974.90 47.5329
975.00 48.77739
975.10 49.72863
975.20 50.14828
975.30 50.56587
975.40 50.95956
975.50 51.42273
975.60 51.88681
975.70 51.88446
975.80 51.77394
975.90 51.81165
976.00 52.31477
976.10 52.81563
976.20 52.88672
976.30 52.55223
976.40 52.20683
976.50 52.43245
976.60 52.91007
976.70 53.33209
976.80 53.30655
976.90 53.2497
977.00 52.71012
977.10 51.35104
977.20 49.92504
977.30 49.27825
977.40 49.18857
977.50 49.08202
977.60 50.26673
977.70 51.50803
977.80 52.5081
977.90 52.86129
978.00 53.17236
978.10 52.80364
978.20 51.91619
978.30 51.03594
978.40 49.00269
978.50 46.74842
978.60 44.86964
978.70 44.81909
978.80 44.84304
978.90 45.14197
979.00 45.77243
979.10 46.39957
979.20 47.82698
979.30 49.64082
979.40 51.41933
979.50 52.56422
979.60 53.61319
979.70 54.17641
979.80 53.88396
979.90 53.59552
980.00 53.63837
980.10 53.83871
980.20 54.03765
980.30 54.08215
980.40 54.11658
980.50 54.12774
980.60 54.04056
980.70 53.93399
980.80 53.82872
980.90 53.76296
981.00 53.70093
981.10 53.95256
981.20 54.33558
981.30 54.65939
981.40 54.43449
981.50 54.08335
981.60 53.55696
981.70 52.83932
981.80 52.13069
981.90 52.16386
982.00 52.67233
982.10 53.17703
982.20 53.12118
982.30 52.98465
982.40 52.89737
982.50 52.93166
982.60 52.96991
982.70 53.14796
982.80 53.44356
982.90 53.74583
983.00 53.50319
983.10 53.12569
983.20 52.79232
983.30 52.68953
983.40 52.63099
983.50 52.5047
983.60 52.25084
983.70 51.98087
983.80 51.71698
983.90 51.53639
984.00 51.40558
984.10 51.89591
984.20 52.38119
984.30 52.75533
984.40 52.87735
984.50 52.97423
984.60 53.07674
984.70 53.31
984.80 53.54466
984.90 53.67308
985.00 53.72328
985.10 53.6149
985.20 53.02806
985.30 52.42205
985.40 52.16862
985.50 52.30302
985.60 52.44568
985.70 52.89352
985.80 53.37236
985.90 53.77465
986.00 53.67457
986.10 53.57045
986.20 53.49832
986.30 53.46365
986.40 53.42463
986.50 53.6742
986.60 54.07914
986.70 54.46148
986.80 53.94377
986.90 53.3216
987.00 52.73956
987.10 52.25798
987.20 51.77464
987.30 52.09291
987.40 53.10546
987.50 54.13767
987.60 54.64034
987.70 55.0294
987.80 55.22421
987.90 54.61951
988.00 53.91861
988.10 53.34715
988.20 53.0086
988.30 52.68424
988.40 53.08939
988.50 53.80552
988.60 54.4927
988.70 54.85815
988.80 55.1428
988.90 55.22785
989.00 54.95932
989.10 54.6686
989.20 54.29224
989.30 53.88684
989.40 53.48736
989.50 52.36158
989.60 51.18834
989.70 49.58311
989.80 46.85985
989.90 44.0808
990.00 42.39163
990.10 41.6125
990.20 40.8437
990.30 40.00074
990.40 39.12405
990.50 38.10833
990.60 36.37411
990.70 34.56171
990.80 33.14695
990.90 32.3353
991.00 31.55779
991.10 31.72332
991.20 32.25727
991.30 32.72658
991.40 32.24554
991.50 31.6472
991.60 31.05241
991.70 30.5216
991.80 29.99835
991.90 30.5244
992.00 31.76468
992.10 33.00897
992.20 33.46678
992.30 33.77941
992.40 33.74951
992.50 32.68143
992.60 31.56212
992.70 31.41195
992.80 32.19103
992.90 32.97737
993.00 34.34961
993.10 35.92771
993.20 37.31427
993.30 37.46886
993.40 37.50387
993.50 37.36463
993.60 37.01967
993.70 36.64362
993.80 37.56391
993.90 39.21771
994.00 40.85231
994.10 42.06263
994.20 43.17334
994.30 43.8028
994.40 43.41488
994.50 42.98794
994.60 42.71372
994.70 42.56471
994.80 42.40696
994.90 43.06592
995.00 43.82934
995.10 44.56079
995.20 45.19995
995.30 45.85884
995.40 46.44612
995.50 46.92595
995.60 47.41417
995.70 46.57809
995.80 45.28585
995.90 44.09141
996.00 43.61041
996.10 43.18178
996.20 43.13664
996.30 43.71429
996.40 44.31759
996.50 45.56905
996.60 47.20066
996.70 48.80475
996.80 48.53271
996.90 48.05003
997.00 46.91676
997.10 44.30552
997.20 41.62155
997.30 39.84019
997.40 38.80393
997.50 37.75319
997.60 38.39226
997.70 39.33528
997.80 40.31338
997.90 41.41937
998.00 42.53287
998.10 43.53641
998.20 44.37556
998.30 45.22058
998.40 44.50694
998.50 43.25971
998.60 42.06801
998.70 41.37344
998.80 40.74602
998.90 40.47761
999.00 40.70132
999.10 40.91757
999.20 40.89174
999.30 40.77711
999.40 40.6598
999.50 41.22585
999.60 41.89315
999.70 42.27852
999.80 41.9321
999.90 41.49286
1000.00 41.86589
1000.10 43.0114
1000.20 44.1742
1000.30 45.46441
1000.40 46.75653
1000.50 47.84977
1000.60 48.05963
1000.70 48.24141
1000.80 47.86828
1000.90 46.77405
1001.00 45.64636
1001.10 44.41768
1001.20 43.13607
1001.30 42.0377
1001.40 42.83292
1001.50 43.79479
1001.60 44.89193
1001.70 46.1955
1001.80 47.50607
1001.90 47.95732
1002.00 47.85499
1002.10 47.77896
1002.20 47.12893
1002.30 46.42839
1002.40 46.12765
1002.50 46.88507
1002.60 47.72981
1002.70 48.27277
1002.80 48.41696
1002.90 48.55089
1003.00 47.90722
1003.10 47.23413
1003.20 46.62589
1003.30 46.25184
1003.40 45.85507
1003.50 45.30722
1003.60 44.59139
1003.70 43.87084
1003.80 43.41807
1003.90 43.09089
1004.00 42.91102
1004.10 44.22426
1004.20 45.62112
1004.30 47.01955
1004.40 48.40458
1004.50 49.81355
1004.60 50.24418
1004.70 50.11553
1004.80 50.00366
1004.90 48.9265
1005.00 47.7326
1005.10 46.30202
1005.20 44.27331
1005.30 42.21033
1005.40 40.54563
1005.50 39.26684
1005.60 37.97137
1005.70 37.98274
1005.80 38.31199
1005.90 38.78384
1006.00 39.85842
1006.10 40.95228
1006.20 41.636
1006.30 41.76791
1006.40 41.8898
1006.50 42.04593
1006.60 42.22112
1006.70 42.50434
1006.80 43.92306
1006.90 45.4614
1007.00 46.6491
1007.10 47.11
1007.20 47.52839
1007.30 47.21809
1007.40 46.60615
1007.50 45.97685
1007.60 46.67018
1007.70 47.48441
1007.80 48.29131
1007.90 49.01084
1008.00 49.70699
1008.10 50.02813
1008.20 50.08884
1008.30 50.1476
1008.40 50.15709
1008.50 50.14686
1008.60 50.18923
1008.70 50.40964
1008.80 50.64216
1008.90 50.20211
1009.00 48.94569
1009.10 47.65099
1009.20 46.69991
1009.30 45.91776
1009.40 45.27315
1009.50 46.05647
1009.60 46.95261
1009.70 47.92229
1009.80 49.05496
1009.90 50.20613
1010.00 51.41414
1010.10 52.66653
1010.20 53.92499
1010.30 54.78638
1010.40 55.53264
1010.50 55.87968
1010.60 55.21589
1010.70 54.50609
1010.80 53.69089
1010.90 52.84401
1011.00 52.01048
1011.10 50.83835
1011.20 49.52431
1011.30 48.33581
1011.40 47.73701
1011.50 47.20594
1011.60 46.75898
1011.70 46.36315
1011.80 45.95899
1011.90 45.73057
1012.00 45.5918
1012.10 45.64579
1012.20 47.6526
1012.30 49.82319
1012.40 51.59909
1012.50 52.68154
1012.60 53.75668
1012.70 53.8644
1012.80 53.2719
1012.90 52.67744
1013.00 52.7856
1013.10 52.98338
1013.20 53.00778
1013.30 52.58899
1013.40 52.19248
1013.50 50.93257
1013.60 48.82269
1013.70 46.68097
1013.80 45.20184
1013.90 43.97107
1014.00 43.11274
1014.10 43.90936
1014.20 44.79327
1014.30 45.94121
1014.40 47.34893
1014.50 48.77882
1014.60 48.79547
1014.70 48.24842
1014.80 47.69287
1014.90 47.07063
1015.00 46.45798
1015.10 46.81728
1015.20 48.81982
1015.30 50.91411
1015.40 51.77416
1015.50 51.79071
1015.60 51.84018
1015.70 50.08375
1015.80 48.20998
1015.90 46.72523
1016.00 46.28461
1016.10 45.89703
1016.20 46.19701
1016.30 47.02703
1016.40 47.86751
1016.50 48.06813
1016.60 48.15382
1016.70 48.36404
1016.80 49.10928
1016.90 49.92135
1017.00 50.03679
1017.10 49.23076
1017.20 48.3716
1017.30 48.13657
1017.40 48.24717
1017.50 48.51439
1017.60 50.41421
1017.70 52.4825
1017.80 53.5277
1017.90 52.66544
1018.00 51.67766
1018.10 50.41383
1018.20 49.18872
1018.30 47.9539
1018.40 47.44572
1018.50 46.90825
1018.60 46.4104
1018.70 46.0221
1018.80 45.63773
1018.90 46.19738
1019.00 47.33309
1019.10 48.47469
1019.20 49.22971
1019.30 49.9621
1019.40 50.42763
1019.50 50.18685
1019.60 49.87174
1019.70 49.77978
1019.80 49.89357
1019.90 50.02511
1020.00 49.81994
1020.10 49.51394
1020.20 49.29785
1020.30 49.48348
1020.40 49.71593
1020.50 50.0635
1020.60 50.5294
1020.70 50.98773
1020.80 51.28426
1020.90 51.52094
1021.00 51.72765
1021.10 51.47587
1021.20 51.1214
1021.30 50.40568
1021.40 49.11785
1021.50 47.81627
1021.60 46.84617
1021.70 46.09293
1021.80 45.3466
1021.90 44.75014
1022.00 44.18476
1022.10 43.77538
1022.20 43.80055
1022.30 43.79821
1022.40 44.74455
1022.50 46.48392
1022.60 48.25069
1022.70 48.83083
1022.80 49.18422
1022.90 49.44138
1023.00 49.2362
1023.10 49.01511
1023.20 48.56739
1023.30 47.85945
1023.40 47.10456
1023.50 47.5414
1023.60 48.47931
1023.70 49.40796
1023.80 50.25556
1023.90 51.02766
1024.00 51.55959
1024.10 51.78344
1024.20 52.03044
1024.30 52.53873
1024.40 53.07967
1024.50 53.65482
1024.60 52.53352
1024.70 51.30096
1024.80 50.32602
1024.90 50.01389
1025.00 49.73036
1025.10 49.14895
1025.20 48.27867
1025.30 47.41214
1025.40 46.9138
1025.50 46.51799
1025.60 46.37284
1025.70 47.27841
1025.80 48.27203
1025.90 48.17626
1026.00 46.72146
1026.10 45.22263
1026.20 43.90395
1026.30 42.74217
1026.40 41.72211
1026.50 42.24338
1026.60 42.79276
1026.70 43.90523
1026.80 46.02615
1026.90 48.23051
1027.00 49.51973
1027.10 50.37888
1027.20 51.14319
1027.30 50.60229
1027.40 49.92116
1027.50 49.17316
1027.60 48.29449
1027.70 47.37691
1027.80 46.97728
1027.90 46.96595
1028.00 46.97462
1028.10 46.36587
1028.20 45.68921
1028.30 44.96369
1028.40 44.10806
1028.50 43.19433
1028.60 43.4457
1028.70 44.78457
1028.80 46.17116
1028.90 47.98963
1029.00 49.78338
1029.10 51.12627
1029.20 50.48777
1029.30 49.70162
1029.40 49.05673
1029.50 48.67633
1029.60 48.29417
1029.70 48.42464
1029.80 48.62186
1029.90 48.76193
1030.00 48.35998
1030.10 48.01439
1030.20 47.72182
1030.30 47.53146
1030.40 47.30484
1030.50 48.00098
1030.60 49.25684
1030.70 50.49198
1030.80 50.67779
1030.90 50.81502
1031.00 50.71369
1031.10 50.03178
1031.20 49.28878
1031.30 49.29026
1031.40 49.95695
1031.50 50.6471
1031.60 50.57536
1031.70 50.3122
1031.80 49.91112
1031.90 48.93899
1032.00 47.91892
1032.10 47.50097
1032.20 47.80169
1032.30 48.13249
1032.40 47.75478
1032.50 47.04462
1032.60 46.44914
1032.70 47.06112
1032.80 47.78551
1032.90 48.89722
1033.00 50.62739
1033.10 52.38677
1033.20 53.52469
1033.30 54.3975
1033.40 55.13482
1033.50 54.06724
1033.60 52.77179
1033.70 51.20613
1033.80 49.26732
1033.90 47.31488
1034.00 46.35424
1034.10 46.03773
1034.20 45.712
1034.30 45.39607
1034.40 45.0443
1034.50 44.67964
1034.60 44.30889
1034.70 43.89957
1034.80 44.48022
1034.90 45.90005
1035.00 47.39555
1035.10 47.53303
1035.20 47.26684
1035.30 47.09598
1035.40 47.40412
1035.50 47.79759
1035.60 48.23096
1035.70 48.682
1035.80 49.11456
1035.90 49.75396
1036.00 50.52559
1036.10 51.32152
1036.20 52.30871
1036.30 53.26709
1036.40 53.84489
1036.50 53.79202
1036.60 53.73397
1036.70 53.74786
1036.80 53.79634
1036.90 53.82656
1037.00 54.41652
1037.10 55.06915
1037.20 55.74341
1037.30 56.45145
1037.40 57.18592
1037.50 57.31285
1037.60 56.8595
1037.70 56.43517
1037.80 54.76337
1037.90 52.81065
1038.00 50.9191
1038.10 49.31546
1038.20 47.67566
1038.30 47.16805
1038.40 47.67899
1038.50 48.20105
1038.60 49.42153
1038.70 50.83316
1038.80 51.99738
1038.90 51.98659
1039.00 51.86646
1039.10 51.59575
1039.20 51.17766
1039.30 50.75291
1039.40 50.31365
1039.50 49.86775
1039.60 49.41301
1039.70 48.87329
1039.80 48.34278
1039.90 48.20938
1040.00 48.70576
1040.10 49.17011
1040.20 50.08095
1040.30 51.32228
1040.40 52.59375
1040.50 53.27759
1040.60 53.86298
1040.70 54.34852
1040.80 54.6024
1040.90 54.88309
1041.00 54.81855
1041.10 54.34785
1041.20 53.89725
1041.30 52.61804
1041.40 51.15675
1041.50 49.9686
1041.60 50.074
1041.70 50.23704
1041.80 51.20213
1041.90 53.13613
1042.00 55.15437
1042.10 55.7198
1042.20 55.56565
1042.30 55.32395
1042.40 54.04148
1042.50 52.76588
1042.60 51.32919
1042.70 49.66812
1042.80 47.96956
1042.90 47.03689
1043.00 46.4798
1043.10 46.11456
1043.20 48.16984
1043.30 50.46343
1043.40 52.49558
1043.50 54.03282
1043.60 55.59785
1043.70 56.07509
1043.80 55.82756
1043.90 55.55541
1044.00 55.51722
1044.10 55.53948
1044.20 55.56485
1044.30 55.58311
1044.40 55.61138
1044.50 55.45154
1044.60 55.14602
1044.70 54.83254
1044.80 55.02251
1044.90 55.25856
1045.00 55.63406
1045.10 56.75762
1045.20 57.96006
1045.30 58.98241
1045.40 59.77357
1045.50 60.60474
1045.60 61.03017
1045.70 61.24067
1045.80 61.35169
1045.90 60.19303
1046.00 58.9365
1046.10 57.67534
1046.20 56.3691
1046.30 54.99707
1046.40 54.1189
1046.50 53.66372
1046.60 53.167
1046.70 52.3547
1046.80 51.5763
1046.90 50.81899
1047.00 50.05333
1047.10 49.22472
1047.20 49.00401
1047.30 49.22802
1047.40 49.45979
1047.50 49.9168
1047.60 50.36417
1047.70 50.75673
1047.80 50.96538
1047.90 51.15639
1048.00 51.19713
1048.10 51.12464
1048.20 51.01388
1048.30 51.79663
1048.40 52.87168
1048.50 53.87033
1048.60 54.465
1048.70 55.01431
1048.80 55.33192
1048.90 55.36403
1049.00 55.37088
1049.10 55.416
1049.20 55.54477
1049.30 55.65458
1049.40 55.57386
1049.50 55.49514
1049.60 54.79138
1049.70 52.97301
1049.80 51.09828
1049.90 50.41766
1050.00 50.54917
1050.10 50.6369
1050.20 51.82621
1050.30 53.04567
1050.40 53.81056
1050.50 53.82368
1050.60 53.82948
1050.70 53.71783
1050.80 53.53727
1050.90 53.34886
1051.00 53.36908
1051.10 53.39064
1051.20 53.0502
1051.30 51.78856
1051.40 50.46223
1051.50 49.60454
1051.60 49.22092
1051.70 48.83989
1051.80 49.1659
1051.90 49.56361
1052.00 49.87353
1052.10 49.80585
1052.20 49.70961
1052.30 49.78085
1052.40 50.11904
1052.50 50.46537
1052.60 51.59554
1052.70 53.0056
1052.80 54.353
1052.90 55.00474
1053.00 55.59433
1053.10 55.67836
1053.20 54.92893
1053.30 54.12779
1053.40 53.99475
1053.50 54.36412
1053.60 54.71982
1053.70 54.88581
1053.80 55.00708
1053.90 54.86269
1054.00 54.25159
1054.10 53.58591
1054.20 53.61583
1054.30 54.16105
1054.40 54.7301
1054.50 54.60694
1054.60 54.30138
1054.70 53.77762
1054.80 52.74092
1054.90 51.65594
1055.00 51.39638
1055.10 51.95545
1055.20 52.55236
1055.30 53.24818
1055.40 53.91098
1055.50 54.34493
1055.60 53.65632
1055.70 52.89672
1055.80 52.0001
1055.90 50.98692
1056.00 49.94391
1056.10 49.22275
1056.20 48.64037
1056.30 48.12841
1056.40 48.34653
1056.50 48.58946
1056.60 48.9913
1056.70 49.67132
1056.80 50.36694
1056.90 50.61835
1057.00 50.59765
1057.10 50.61584
1057.20 50.8892
1057.30 51.19194
1057.40 51.62672
1057.50 52.24211
1057.60 52.85166
1057.70 53.15165
1057.80 53.25615
1057.90 53.3712
1058.00 53.37204
1058.10 53.36938
1058.20 53.38648
1058.30 53.44091
1058.40 53.52934
1058.50 52.92417
1058.60 51.74115
1058.70 50.54295
1058.80 50.08605
1058.90 49.77252
1059.00 49.57187
1059.10 49.88182
1059.20 50.19827
1059.30 50.50283
1059.40 50.86306
1059.50 51.22382
1059.60 51.93397
1059.70 52.71915
1059.80 53.39886
1059.90 53.0314
1060.00 52.61032
1060.10 52.17959
1060.20 51.7837
1060.30 51.41045
1060.40 51.05633
1060.50 50.66238
1060.60 50.26958
1060.70 49.77819
1060.80 49.21223
1060.90 48.79098
1061.00 48.6671
1061.10 48.57102
1061.20 49.10805
1061.30 50.00283
1061.40 50.89603
1061.50 51.4727
1061.60 52.09556
1061.70 52.46692
1061.80 52.14993
1061.90 51.79733
1062.00 51.49645
1062.10 51.15756
1062.20 50.79099
1062.30 50.65604
1062.40 50.66933
1062.50 50.85071
1062.60 51.78146
1062.70 52.71921
1062.80 53.71157
1062.90 54.75724
1063.00 55.84028
1063.10 55.98466
1063.20 55.70502
1063.30 55.36598
1063.40 54.75142
1063.50 54.16268
1063.60 53.94134
1063.70 54.13112
1063.80 54.2966
1063.90 54.82297
1064.00 55.49434
1064.10 56.13522
1064.20 56.37909
1064.30 56.56948
1064.40 56.62146
1064.50 56.46881
1064.60 56.33425
1064.70 56.2323
1064.80 56.1575
1064.90 56.06505
1065.00 56.16676
1065.10 56.31919
1065.20 56.26684
1065.30 55.60862
1065.40 54.88619
1065.50 53.94348
1065.60 52.91117
1065.70 51.87577
1065.80 51.61549
1065.90 51.48836
1066.00 51.35842
1066.10 51.2145
1066.20 51.09832
1066.30 50.44863
1066.40 49.36699
1066.50 48.24662
1066.60 48.31776
1066.70 48.69517
1066.80 49.02225
1066.90 49.14755
1067.00 49.21795
1067.10 49.22688
1067.20 49.22796
1067.30 49.22545
1067.40 50.1079
1067.50 51.37602
1067.60 52.6045
1067.70 53.39846
1067.80 54.11623
1067.90 54.71244
1068.00 55.10596
1068.10 55.50888
1068.20 55.86033
1068.30 56.38097
1068.40 56.88659
1068.50 57.42096
1068.60 57.87565
1068.70 58.2129
1068.80 58.16052
1068.90 58.07062
1069.00 57.83841
1069.10 57.55163
1069.20 57.24019
1069.30 57.05148
1069.40 56.89295
1069.50 56.55324
1069.60 55.67837
1069.70 54.71072
1069.80 54.09581
1069.90 53.92738
1070.00 53.76276
1070.10 53.71222
1070.20 53.65765
1070.30 53.54251
1070.40 53.18475
1070.50 52.82741
1070.60 52.91824
1070.70 53.59698
1070.80 54.32013
1070.90 54.64182
1071.00 54.6116
1071.10 54.56663
1071.20 54.33333
1071.30 54.08824
1071.40 54.27353
1071.50 55.22519
1071.60 56.23653
1071.70 56.4233
1071.80 56.22805
1071.90 56.0562
1072.00 55.95244
1072.10 55.89292
1072.20 55.78656
1072.30 55.53645
1072.40 55.28724
1072.50 54.50109
1072.60 53.48179
1072.70 52.41846
1072.80 52.72628
1072.90 53.19315
1073.00 53.71278
1073.10 54.31146
1073.20 54.93954
1073.30 54.98928
1073.40 54.40379
1073.50 53.78568
1073.60 53.68401
1073.70 53.79615
1073.80 54.00729
1073.90 54.69147
1074.00 55.3537
1074.10 55.99639
1074.20 56.6511
1074.30 57.35938
1074.40 57.37241
1074.50 57.16441
1074.60 56.99406
1074.70 57.00805
1074.80 57.11086
1074.90 57.23738
1075.00 57.28716
1075.10 57.30564
1075.20 56.78199
1075.30 56.06878
1075.40 55.36888
1075.50 54.85128
1075.60 54.29009
1075.70 54.23694
1075.80 55.10371
1075.90 56.04765
1076.00 56.61079
1076.10 56.82038
1076.20 57.06015
1076.30 56.94956
1076.40 56.79747
1076.50 56.71884
1076.60 56.82395
1076.70 56.92418
1076.80 57.00205
1076.90 57.1639
1077.00 57.33994
1077.10 57.39283
1077.20 57.38804
1077.30 57.31696
1077.40 57.05112
1077.50 56.77199
1077.60 56.17387
1077.70 55.36449
1077.80 54.52899
1077.90 54.84369
1078.00 55.40968
1078.10 55.93188
1078.20 56.25757
1078.30 56.56368
1078.40 56.68608
1078.50 56.68228
1078.60 56.71123
1078.70 56.48482
1078.80 56.02073
1078.90 55.52661
1079.00 54.73722
1079.10 53.97165
1079.20 53.34426
1079.30 52.8613
1079.40 52.38738
1079.50 52.36764
1079.60 52.56308
1079.70 52.74715
1079.80 53.19541
1079.90 53.67198
1080.00 54.11814
1080.10 54.4881
1080.20 54.84613
1080.30 55.04715
1080.40 55.18105
1080.50 55.32553
1080.60 55.84528
1080.70 56.39767
1080.80 56.84346
1080.90 57.00382
1081.00 57.13046
1081.10 57.17325
1081.20 57.16329
1081.30 57.17256
1081.40 57.18656
1081.50 57.1745
1081.60 57.23699
1081.70 57.6829
1081.80 58.17602
1081.90 58.43
1082.00 58.40809
1082.10 58.40558
1082.20 57.87954
1082.30 57.22871
1082.40 56.62675
1082.50 56.24755
1082.60 55.85969
1082.70 55.64172
1082.80 55.6641
1082.90 55.70164
1083.00 55.97006
1083.10 56.29486
1083.20 56.60011
1083.30 57.01946
1083.40 57.54899
1083.50 57.8923
1083.60 57.84512
1083.70 57.77387
1083.80 57.65688
1083.90 57.52506
1084.00 57.37465
1084.10 57.35677
1084.20 57.36529
1084.30 57.32309
1084.40 57.20657
1084.50 57.12716
1084.60 56.6467
1084.70 55.84786
1084.80 55.01207
1084.90 55.11589
1085.00 55.33909
1085.10 55.68344
1085.20 56.33641
1085.30 57.12374
1085.40 57.2104
1085.50 56.6454
1085.60 55.96436
1085.70 56.27773
1085.80 56.86503
1085.90 57.44613
1086.00 58.03162
1086.10 58.65959
1086.20 59.21213
1086.30 59.61178
1086.40 60.01931
1086.50 59.76299
1086.60 59.29764
1086.70 58.8311
1086.80 58.3865
1086.90 57.98945
1087.00 58.07485
1087.10 58.70904
1087.20 59.36536
1087.30 59.44019
1087.40 59.21113
1087.50 58.94497
1087.60 58.02363
1087.70 57.03707
1087.80 56.62679
1087.90 57.22118
1088.00 57.88294
1088.10 58.03248
1088.20 57.77124
1088.30 57.52524
1088.40 57.25832
1088.50 57.00182
1088.60 56.98105
1088.70 57.52785
1088.80 58.10993
1088.90 58.04763
1089.00 57.64859
1089.10 57.2399
1089.20 57.11868
1089.30 57.08064
1089.40 57.0382
1089.50 56.93721
1089.60 56.73911
1089.70 56.91424
1089.80 57.4915
1089.90 58.08954
1090.00 58.84006
1090.10 59.57677
1090.20 60.19807
1090.30 60.2454
1090.40 60.24291
1090.50 60.08719
1090.60 59.75819
1090.70 59.46897
1090.80 58.97215
1090.90 58.31324
1091.00 57.60323
1091.10 56.7434
1091.20 55.88361
1091.30 55.56973
1091.40 55.90535
1091.50 56.2393
1091.60 56.99944
1091.70 57.95205
1091.80 58.84734
1091.90 59.07335
1092.00 59.29506
1092.10 59.29438
1092.20 58.91352
1092.30 58.50174
1092.40 58.48791
1092.50 58.67539
1092.60 58.85844
1092.70 58.73527
1092.80 58.6284
1092.90 58.53683
1093.00 58.44193
1093.10 58.3111
1093.20 58.14727
1093.30 57.98026
1093.40 57.82927
1093.50 57.64498
1093.60 57.51632
1093.70 57.379
1093.80 57.18141
1093.90 56.82368
1094.00 57.08526
1094.10 57.89573
1094.20 58.76641
1094.30 58.76099
1094.40 58.53176
1094.50 58.18912
1094.60 57.23995
1094.70 56.23574
1094.80 55.73643
1094.90 55.96465
1095.00 56.16116
1095.10 56.88935
1095.20 57.74194
1095.30 58.57954
1095.40 59.26165
1095.50 59.99175
1095.60 60.30202
1095.70 60.07614
1095.80 59.80921
1095.90 59.55496
1096.00 59.42597
1096.10 59.30109
1096.20 59.40387
1096.30 59.50158
1096.40 59.58336
1096.50 59.60692
1096.60 59.63096
1096.70 59.24647
1096.80 58.61385
1096.90 58.00689
1097.00 56.93713
1097.10 55.79118
1097.20 54.87748
1097.30 54.69588
1097.40 54.53179
1097.50 54.8911
1097.60 55.60805
1097.70 56.32033
1097.80 56.8478
1097.90 57.43868
1098.00 58.03372
1098.10 58.54201
1098.20 58.98432
1098.30 58.77482
1098.40 58.1324
1098.50 57.53363
1098.60 57.26903
1098.70 56.98808
1098.80 56.73625
1098.90 56.72989
1099.00 56.75643
1099.10 56.86783
1099.20 57.09109
1099.30 57.30068
1099.40 57.87525
1099.50 58.60613
1099.60 59.27721
1099.70 59.13705
1099.80 58.94807
1099.90 58.81168
1100.00 58.69189
1100.10 58.5441
1100.20 58.25711
1100.30 57.91662
1100.40 57.57413
1100.50 57.08862
1100.60 56.59311
1100.70 56.43758
1100.80 56.8782
1100.90 57.36455
1101.00 57.70553
1101.10 57.90254
1101.20 58.08553
1101.30 58.35173
1101.40 58.69594
1101.50 59.01611
1101.60 59.17541
1101.70 59.33229
1101.80 58.88975
1101.90 57.95953
1102.00 57.04111
1102.10 56.43345
1102.20 55.85967
1102.30 55.25972
1102.40 54.64635
1102.50 53.93124
1102.60 54.20051
1102.70 55.36423
1102.80 56.59204
1102.90 57.28831
1103.00 57.87954
1103.10 58.35048
1103.20 58.0474
1103.30 57.61431
1103.40 56.71831
1103.50 55.28447
1103.60 53.78261
1103.70 53.40697
1103.80 53.55203
1103.90 53.68683
1104.00 54.19273
1104.10 54.82446
1104.20 55.44486
1104.30 55.90582
1104.40 56.29406
1104.50 56.37559
1104.60 56.4802
1104.70 56.56056
1104.80 56.43724
1104.90 56.37591
1105.00 56.40116
1105.10 56.40257
1105.20 56.35098
1105.30 55.45374
1105.40 54.16402
1105.50 52.86442
1105.60 52.54774
1105.70 52.23441
1105.80 52.17551
1105.90 52.83209
1106.00 53.60898
1106.10 53.96829
1106.20 54.04654
1106.30 54.1193
1106.40 54.23316
1106.50 54.36252
1106.60 54.41374
1106.70 54.25038
1106.80 54.12327
1106.90 53.68751
1107.00 52.95257
1107.10 52.16559
1107.20 52.01852
1107.30 52.08892
1107.40 52.2896
1107.50 53.09915
1107.60 54.00185
1107.70 54.39648
1107.80 54.21476
1107.90 53.98101
1108.00 54.11165
1108.10 54.33036
1108.20 54.6185
1108.30 55.27799
1108.40 56.02041
1108.50 56.66605
1108.60 57.16795
1108.70 57.69023
1108.80 57.64346
1108.90 57.34048
1109.00 57.01232
1109.10 56.49851
1109.20 55.96789
1109.30 55.83732
1109.40 56.36526
1109.50 56.90843
1109.60 57.33435
1109.70 57.73285
1109.80 58.1506
1109.90 58.00557
1110.00 57.80357
1110.10 57.35582
1110.20 56.25728
1110.30 55.1703
1110.40 54.11188
1110.50 53.04889
1110.60 51.9402
1110.70 52.22041
1110.80 52.66452
1110.90 52.98293
1111.00 52.95656
1111.10 52.91151
1111.20 52.69333
1111.30 52.36765
1111.40 52.03411
1111.50 52.20981
1111.60 52.46129
1111.70 52.72487
1111.80 53.12417
1111.90 53.58607
1112.00 53.73839
1112.10 53.49404
1112.20 53.23146
1112.30 53.12529
1112.40 53.04545
1112.50 53.07126
1112.60 53.63707
1112.70 54.27921
1112.80 55.03133
1112.90 55.8751
1113.00 56.72772
1113.10 57.0549
1113.20 57.12789
1113.30 57.19138
1113.40 57.11421
1113.50 57.04537
1113.60 56.52351
1113.70 55.25523
1113.80 53.9746
1113.90 53.55473
1114.00 53.7047
1114.10 53.80914
1114.20 54.51846
1114.30 55.20597
1114.40 56.04428
1114.50 57.1064
1114.60 58.19079
1114.70 58.27612
1114.80 57.75004
1114.90 57.24167
1115.00 56.26644
1115.10 55.36047
1115.20 54.90561
1115.30 55.58267
1115.40 56.35373
1115.50 56.73274
1115.60 56.73779
1115.70 56.69528
1115.80 56.687
1115.90 56.60195
1116.00 56.49735
1116.10 56.35627
1116.20 56.2797
1116.30 56.31566
1116.40 56.45228
1116.50 56.5934
1116.60 56.6704
1116.70 56.81486
1116.80 56.82385
1116.90 56.19661
1117.00 55.45804
1117.10 54.64959
1117.20 53.7719
1117.30 52.8843
1117.40 52.23718
1117.50 51.79546
1117.60 51.42138
1117.70 51.71806
1117.80 51.93655
1117.90 52.37889
1118.00 53.2239
1118.10 54.12974
1118.20 54.78079
1118.30 55.45265
1118.40 56.14887
1118.50 57.01178
1118.60 57.75529
1118.70 58.0531
1118.80 57.60619
1118.90 57.15408
1119.00 56.77769
1119.10 56.40127
1119.20 55.99788
1119.30 55.54244
1119.40 55.04551
1119.50 54.53793
1119.60 54.41514
1119.70 54.25348
1119.80 54.08734
1119.90 53.9508
1120.00 53.86151
1120.10 53.77563
1120.20 53.7505
1120.30 53.84308
1120.40 53.92945
1120.50 54.06037
1120.60 54.89978
1120.70 55.7628
1120.80 56.65886
1120.90 56.5551
1121.00 56.27011
1121.10 56.00479
1121.20 55.73038
1121.30 55.5801
1121.40 55.42574
1121.50 55.33144
1121.60 55.2005
1121.70 55.0423
1121.80 54.86701
1121.90 54.59866
1122.00 54.3554
1122.10 54.05277
1122.20 53.90552
1122.30 53.86286
1122.40 53.78665
1122.50 54.30001
1122.60 55.32807
1122.70 56.38236
1122.80 57.34424
1122.90 57.95748
1123.00 58.5052
1123.10 58.85512
1123.20 58.23988
1123.30 57.47047
1123.40 56.71268
1123.50 55.88659
1123.60 55.36938
1123.70 54.81251
1123.80 54.91397
1123.90 55.45561
1124.00 56.00429
1124.10 56.50848
1124.20 56.90483
1124.30 57.27945
1124.40 57.64078
1124.50 57.92073
1124.60 58.21206
1124.70 58.51106
1124.80 58.15815
1124.90 57.4781
1125.00 56.81026
1125.10 55.79662
1125.20 54.94628
1125.30 54.12393
1125.40 54.10681
1125.50 55.22502
1125.60 56.33374
1125.70 57.36221
1125.80 57.65446
1125.90 57.80317
1126.00 57.96124
1126.10 57.72918
1126.20 57.55043
1126.30 57.36911
1126.40 57.29062
1126.50 57.30615
1126.60 57.32297
1126.70 57.39922
1126.80 57.50196
1126.90 57.57946
1127.00 57.64733
1127.10 57.66494
1127.20 57.71424
1127.30 57.77096
1127.40 57.88814
1127.50 57.98753
1127.60 58.08594
1127.70 57.92288
1127.80 57.65972
1127.90 57.39576
1128.00 57.19706
1128.10 57.10603
1128.20 57.00766
1128.30 56.94655
1128.40 57.22985
1128.50 57.53218
1128.60 57.83291
1128.70 57.84672
1128.80 57.7119
1128.90 57.58425
1129.00 57.36467
1129.10 57.06976
1129.20 56.77929
1129.30 56.66487
1129.40 57.04165
1129.50 57.45339
1129.60 57.8485
1129.70 58.17727
1129.80 58.55509
1129.90 58.93383
1130.00 58.86978
1130.10 58.48764
1130.20 58.13614
1130.30 57.58464
1130.40 56.88305
1130.50 56.17213
1130.60 55.53358
1130.70 55.08571
1130.80 54.66114
1130.90 54.26942
1131.00 54.28227
1131.10 54.37961
1131.20 54.47449
1131.30 54.7862
1131.40 55.14032
1131.50 55.49949
1131.60 55.79529
1131.70 56.01032
1131.80 56.22718
1131.90 56.39649
1132.00 56.46581
1132.10 56.50638
1132.20 56.54922
1132.30 56.57003
1132.40 56.61338
1132.50 56.65388
1132.60 56.52154
1132.70 56.31155
1132.80 56.10087
1132.90 55.98023
1133.00 55.93514
1133.10 55.89018
1133.20 55.80132
1133.30 55.60938
1133.40 55.40446
1133.50 55.19783
1133.60 54.72207
1133.70 54.2042
1133.80 53.68664
1133.90 52.9544
1134.00 52.17974
1134.10 51.40625
1134.20 50.8527
1134.30 50.70356
1134.40 50.59841
1134.50 50.72141
1134.60 51.41264
1134.70 52.09306
1134.80 52.76004
1134.90 54.14862
1135.00 55.4895
1135.10 56.85253
1135.20 56.91504
1135.30 56.50726
1135.40 56.10783
1135.50 55.53582
1135.60 54.66142
1135.70 53.75282
1135.80 52.99647
1135.90 52.86121
1136.00 52.92673
1136.10 52.98244
1136.20 53.46431
1136.30 53.81102
1136.40 54.17579
1136.50 54.03461
1136.60 53.64766
1136.70 53.26372
1136.80 52.72417
1136.90 52.04802
1137.00 51.37283
1137.10 50.79216
1137.20 50.38981
1137.30 49.98094
1137.40 49.57836
1137.50 48.92916
1137.60 48.32889
1137.70 47.75293
1137.80 46.73841
1137.90 45.30296
1138.00 43.90464
1138.10 42.18568
1138.20 40.17778
1138.30 38.12306
1138.40 36.67616
1138.50 36.82924
1138.60 37.30455
1138.70 37.71362
1138.80 39.60524
1138.90 41.52201
1139.00 43.48434
1139.10 45.00112
1139.20 46.09985
1139.30 47.23977
1139.40 47.81541
1139.50 47.66666
1139.60 47.4867
1139.70 47.16948
1139.80 46.31347
1139.90 45.46659
1140.00 44.64293
1140.10 42.9661
1140.20 41.05639
1140.30 39.18094
1140.40 36.92161
1140.50 34.53259
1140.60 32.05537
1140.70 30.964
1140.80 31.70533
1140.90 32.59963
1141.00 33.78067
1141.10 36.21405
1141.20 38.69202
1141.30 41.1985
1141.40 43.2267
1141.50 45.26091
1141.60 47.32097
1141.70 48.76805
1141.80 49.66708
1141.90 50.58662
1142.00 51.36989
1142.10 52.0097
1142.20 52.64523
1142.30 53.14684
1142.40 53.07109
1142.50 52.96051
1142.60 52.84504
1142.70 53.1212
1142.80 53.43895
1142.90 53.75909
1143.00 53.93991
1143.10 53.95416
1143.20 53.97431
1143.30 53.97084
1143.40 53.98438
1143.50 54.01414
1143.60 54.04749
1143.70 54.05114
1143.80 54.03702
1143.90 54.03412
1144.00 54.16876
1144.10 54.40414
1144.20 54.62317
1144.30 54.86716
1144.40 55.06561
1144.50 55.26352
1144.60 55.2799
1144.70 55.06054
1144.80 54.82941
1144.90 54.68947
1145.00 54.97999
1145.10 55.29905
1145.20 55.62014
1145.30 55.63335
1145.40 55.58481
1145.50 55.53786
1145.60 55.40563
1145.70 55.24793
1145.80 55.08902
1145.90 55.11016
1146.00 55.33325
1146.10 55.58229
1146.20 55.79304
1146.30 55.89262
1146.40 55.97587
1146.50 56.05863
1146.60 56.35176
1146.70 56.69303
1146.80 57.04653
1146.90 57.20602
1147.00 57.09559
1147.10 56.99186
1147.20 56.80062
1147.30 56.64587
1147.40 56.52231
1147.50 56.41314
1147.60 56.33715
1147.70 56.27507
1147.80 56.21237
1147.90 56.23699
1148.00 56.1958
1148.10 56.15867
1148.20 56.26694
1148.30 56.35122
1148.40 56.45041
1148.50 56.51059
1148.60 56.61948
1148.70 56.75457
1148.80 56.9652
1148.90 57.3376
1149.00 57.74081
1149.10 58.14736
1149.20 57.94834
1149.30 57.55788
1149.40 57.17729
1149.50 56.93582
1149.60 56.90642
1149.70 56.86552
1149.80 56.89203
1149.90 57.00398
1150.00 57.13189
1150.10 57.16507
1150.20 56.86064
1150.30 56.48814
1150.40 56.11424
1150.50 56.16397
1150.60 56.30398
1150.70 56.43798
1150.80 56.72996
1150.90 57.08284
1151.00 57.44107
1151.10 57.59782
1151.20 57.52026
1151.30 57.42557
1151.40 57.28673
1151.50 56.99486
1151.60 56.659
1151.70 56.32196
1151.80 56.13516
1151.90 56.04058
1152.00 55.94466
1152.10 56.08866
1152.20 56.16033
1152.30 56.24707
1152.40 55.99428
1152.50 55.46774
1152.60 54.95586
1152.70 54.60543
1152.80 54.59004
1152.90 54.62937
1153.00 54.66871
1153.10 54.79719
1153.20 54.83718
1153.30 54.87797
1153.40 54.84486
1153.50 54.83523
1153.60 54.81718
1153.70 54.95793
1153.80 55.31412
1153.90 55.70344
1154.00 56.07823
1154.10 56.41363
1154.20 56.74392
1154.30 57.08058
1154.40 56.99712
1154.50 56.81205
1154.60 56.63666
1154.70 56.28603
1154.80 55.85486
1154.90 55.408
1155.00 55.21312
1155.10 55.34735
1155.20 55.50337
1155.30 55.60555
1155.40 55.60214
1155.50 55.59834
1155.60 55.62157
1155.70 55.90009
1155.80 56.22498
1155.90 56.55554
1156.00 56.75186
1156.10 56.77302
1156.20 56.79333
1156.30 56.74204
1156.40 56.71768
1156.50 56.71515
1156.60 56.75336
1156.70 56.86494
1156.80 56.93703
1156.90 56.96569
1157.00 56.53331
1157.10 56.06832
1157.20 55.59531
1157.30 55.55833
1157.40 55.70781
1157.50 55.85673
1157.60 55.89545
1157.70 55.87785
1157.80 55.86338
1157.90 55.88611
1158.00 55.99324
1158.10 56.1112
1158.20 56.23306
1158.30 56.37968
1158.40 56.47706
1158.50 56.5771
1158.60 56.3731
1158.70 56.07694
1158.80 55.78581
1158.90 55.46019
1159.00 55.11382
1159.10 54.77511
1159.20 54.37603
1159.30 53.7757
1159.40 53.12078
1159.50 52.48718
1159.60 52.08172
1159.70 51.77001
1159.80 51.43604
1159.90 51.76064
1160.00 52.26366
1160.10 52.7644
1160.20 53.21811
1160.30 53.64505
1160.40 54.08763
1160.50 54.34651
1160.60 54.30482
1160.70 54.19224
1160.80 54.02991
1160.90 53.24025
1161.00 52.38024
1161.10 51.48901
1161.20 51.65037
1161.30 52.19554
1161.40 52.71349
1161.50 53.62625
1161.60 54.77815
1161.70 55.94155
1161.80 56.54595
1161.90 56.22731
1162.00 55.82259
1162.10 55.44498
1162.20 55.24985
1162.30 55.0937
1162.40 54.92963
1162.50 55.09661
1162.60 55.3815
1162.70 55.66187
1162.80 55.91496
1162.90 56.16306
1163.00 56.41737
1163.10 56.65821
1163.20 56.85459
1163.30 57.01337
1163.40 57.0631
1163.50 56.65833
1163.60 56.15748
1163.70 55.67338
1163.80 54.62931
1163.90 53.51297
1164.00 52.37884
1164.10 51.99491
1164.20 52.09059
1164.30 52.19974
1164.40 52.62062
1164.50 53.54308
1164.60 54.50627
1164.70 55.33725
1164.80 55.60906
1164.90 55.81624
1165.00 56.0313
1165.10 55.8327
1165.20 55.50079
1165.30 55.17269
1165.40 54.75222
1165.50 54.29065
1165.60 53.82109
1165.70 53.56741
1165.80 53.70634
1165.90 53.91788
1166.00 54.19929
1166.10 54.77158
1166.20 55.34251
1166.30 55.91523
1166.40 56.17504
1166.50 56.33324
1166.60 56.49575
1166.70 56.43374
1166.80 56.25706
1166.90 56.08758
1167.00 55.81435
1167.10 55.442
1167.20 55.07041
1167.30 54.75641
1167.40 54.68892
1167.50 54.61517
1167.60 54.54034
1167.70 54.40901
1167.80 54.27329
1167.90 54.13365
1168.00 53.96423
1168.10 53.76837
1168.20 53.579
1168.30 53.16405
1168.40 52.48696
1168.50 51.78654
1168.60 50.92907
1168.70 49.37682
1168.80 47.71509
1168.90 46.09474
1169.00 42.70287
1169.10 39.15981
1169.20 35.56475
1169.30 34.0368
1169.40 33.64729
1169.50 33.22714
1169.60 34.45828
1169.70 37.54326
1169.80 40.76012
1169.90 43.69381
1170.00 45.90744
1170.10 47.99819
1170.20 50.10949
1170.30 51.34948
1170.40 52.45705
1170.50 53.57749
1170.60 54.07996
1170.70 54.36209
1170.80 54.64223
1170.90 54.75633
1171.00 54.6487
1171.10 54.51595
1171.20 54.41249
1171.30 54.42163
1171.40 54.46711
1171.50 54.51934
1171.60 54.61311
1171.70 54.63673
1171.80 54.66623
1171.90 54.38988
1172.00 54.07201
1172.10 53.7487
1172.20 53.64802
1172.30 53.70747
1172.40 53.77799
1172.50 53.89016
1172.60 54.0955
1172.70 54.30295
1172.80 54.50048
1172.90 54.64639
1173.00 54.81334
1173.10 54.98391
1173.20 55.01343
1173.30 54.90658
1173.40 54.81109
1173.50 54.5628
1173.60 54.21049
1173.70 53.85458
1173.80 53.68055
1173.90 53.83185
1174.00 54.0326
1174.10 54.24984
1174.20 54.63452
1174.30 55.02431
1174.40 55.41217
1174.50 55.53317
1174.60 55.60635
1174.70 55.68945
1174.80 55.67757
1174.90 55.55645
1175.00 55.4239
1175.10 55.16272
1175.20 54.71862
1175.30 54.2687
1175.40 53.85106
1175.50 53.72089
1175.60 53.62351
1175.70 53.51929
1175.80 53.56911
1175.90 53.54432
1176.00 53.5303
1176.10 53.1927
1176.20 52.6854
1176.30 52.17051
1176.40 51.58825
1176.50 50.91902
1176.60 50.26822
1176.70 49.40636
1176.80 47.60817
1176.90 45.60246
1177.00 43.63865
1177.10 40.06711
1177.20 36.19052
1177.30 32.27131
1177.40 29.6253
1177.50 27.93829
1177.60 26.25454
1177.70 26.21916
1177.80 28.91719
1177.90 31.8603
1178.00 34.79711
1178.10 37.69184
1178.20 40.51012
1178.30 43.36806
1178.40 44.96812
1178.50 46.41578
1178.60 47.87413
1178.70 48.98065
1178.80 49.85603
1178.90 50.72332
1179.00 51.37284
1179.10 51.79993
1179.20 52.20831
1179.30 52.5508
1179.40 52.59231
1179.50 52.60062
1179.60 52.61126
1179.70 52.72239
1179.80 52.83754
1179.90 52.94813
1180.00 52.96266
1180.10 53.01125
1180.20 53.06031
1180.30 53.30655
1180.40 53.73594
1180.50 54.16293
1180.60 54.45621
1180.70 54.40228
1180.80 54.28648
1180.90 54.17224
1181.00 54.01784
1181.10 53.87741
1181.20 53.73648
1181.30 53.59475
1181.40 53.4643
1181.50 53.33527
1181.60 53.29484
1181.70 53.35019
1181.80 53.42131
1181.90 53.54767
1182.00 53.78791
1182.10 54.03573
1182.20 54.25665
1182.30 54.25019
1182.40 54.19261
1182.50 54.14903
1182.60 53.67885
1182.70 53.02749
1182.80 52.38353
1182.90 51.83313
1183.00 51.39321
1183.10 50.95964
1183.20 50.74244
1183.30 51.08805
1183.40 51.46255
1183.50 51.81207
1183.60 51.91744
1183.70 51.93715
1183.80 51.96334
1183.90 51.86424
1184.00 51.86868
1184.10 51.85342
1184.20 52.32819
1184.30 53.18326
1184.40 54.07043
1184.50 54.59994
1184.60 54.56739
1184.70 54.43977
1184.80 54.27902
1184.90 53.73908
1185.00 53.17713
1185.10 52.6058
1185.20 52.36109
1185.30 52.21227
1185.40 52.05067
1185.50 52.2108
1185.60 52.55471
1185.70 52.91795
1185.80 53.22536
1185.90 53.44015
1186.00 53.63241
1186.10 53.79226
1186.20 53.84709
1186.30 53.93657
1186.40 54.02879
1186.50 54.13346
1186.60 54.16149
1186.70 54.19613
1186.80 53.92716
1186.90 53.5001
1187.00 53.05583
1187.10 52.7892
1187.20 52.72242
1187.30 52.69148
1187.40 52.75791
1187.50 53.25515
1187.60 53.7823
1187.70 54.31573
1187.80 54.14431
1187.90 53.88353
1188.00 53.64378
1188.10 52.88353
1188.20 51.7478
1188.30 50.61495
1188.40 49.20471
1188.50 47.49341
1188.60 45.76453
1188.70 44.76108
1188.80 45.6303
1188.90 46.75362
1189.00 47.85768
1189.10 49.33714
1189.20 50.75632
1189.30 52.21396
1189.40 52.68481
1189.50 52.83002
1189.60 52.96323
1189.70 53.22812
1189.80 53.52433
1189.90 53.80492
1190.00 54.02857
1190.10 54.10525
1190.20 54.14212
1190.30 54.14071
1190.40 53.75079
1190.50 53.36015
1190.60 52.97161
1190.70 52.68873
1190.80 52.47086
1190.90 52.23595
1191.00 52.2669
1191.10 52.5464
1191.20 52.85671
1191.30 53.1406
1191.40 53.35237
1191.50 53.52859
1191.60 53.69656
1191.70 53.77373
1191.80 53.8347
1191.90 53.89426
1192.00 53.90213
1192.10 53.95692
1192.20 54.01706
1192.30 53.95091
1192.40 53.75046
1192.50 53.53422
1192.60 53.3923
1192.70 53.37017
1192.80 53.36804
1192.90 53.38193
1193.00 53.47178
1193.10 53.5794
1193.20 53.68953
1193.30 53.76117
1193.40 53.79507
1193.50 53.8402
1193.60 53.49081
1193.70 52.89505
1193.80 52.27626
1193.90 51.69308
1194.00 51.1791
1194.10 50.68967
1194.20 50.30565
1194.30 50.38734
1194.40 50.53273
1194.50 50.68112
1194.60 50.65053
1194.70 50.50922
1194.80 50.38162
1194.90 49.78795
1195.00 48.98461
1195.10 48.16196
1195.20 47.87435
1195.30 48.21919
1195.40 48.65295
1195.50 49.1928
1195.60 50.01806
1195.70 50.83253
1195.80 51.66391
1195.90 51.4512
1196.00 51.07617
1196.10 50.70446
1196.20 50.31362
1196.30 49.9394
1196.40 49.56226
1196.50 49.37027
1196.60 49.38452
1196.70 49.41324
1196.80 49.41834
1196.90 49.36101
1197.00 49.29916
1197.10 49.15299
1197.20 48.05224
1197.30 46.79636
1197.40 45.5451
1197.50 44.25975
1197.60 43.11659
1197.70 41.90508
1197.80 41.80926
1197.90 42.57374
1198.00 43.42345
1198.10 44.23667
1198.20 44.96697
1198.30 45.66095
1198.40 46.36711
1198.50 47.16213
1198.60 48.02761
1198.70 48.90273
1198.80 49.13581
1198.90 49.09038
1199.00 49.07132
1199.10 48.62475
1199.20 47.83001
1199.30 47.01235
1199.40 46.46056
1199.50 46.35949
1199.60 46.32861
1199.70 46.36452
1199.80 46.69397
1199.90 47.05553
1200.00 47.42197
