# Version 2.1 - nm, norm@500 to 1, cut digits
# Wavelength(nm)  Flambda(ergs/cm^s/s/nm)
300.00 0.006266696
300.10 0.008373992
300.20 0.009636397
300.30 0.01013146
300.40 0.01023437
300.50 0.01024822
300.60 0.01027237
300.70 0.01030424
300.80 0.01034264
300.90 0.01038859
301.00 0.01044408
301.10 0.01051002
301.20 0.01058481
301.30 0.01066483
301.40 0.01074678
301.50 0.01082901
301.60 0.01091112
301.70 0.01099318
301.80 0.01107519
301.90 0.0111572
302.00 0.0112392
302.10 0.01132121
302.20 0.01140321
302.30 0.0114852
302.40 0.01156717
302.50 0.01164909
302.60 0.01173092
302.70 0.01181296
302.80 0.01189648
302.90 0.01198396
303.00 0.01207815
303.10 0.01218029
303.20 0.01228914
303.30 0.01240196
303.40 0.01251625
303.50 0.01263074
303.60 0.01274516
303.70 0.01285952
303.80 0.01297386
303.90 0.01308819
304.00 0.01320252
304.10 0.01331685
304.20 0.01343118
304.30 0.01354555
304.40 0.01365999
304.50 0.01377458
304.60 0.01388942
304.70 0.01400363
304.80 0.01411334
304.90 0.01421092
305.00 0.01428795
305.10 0.01434071
305.20 0.01437292
305.30 0.01439301
305.40 0.01440858
305.50 0.01442353
305.60 0.01443873
305.70 0.01445408
305.80 0.01446951
305.90 0.01448496
306.00 0.01450042
306.10 0.01451589
306.20 0.01453135
306.30 0.01454681
306.40 0.01456227
306.50 0.01457774
306.60 0.0145932
306.70 0.01460866
306.80 0.01462413
306.90 0.01463963
307.00 0.01465518
307.10 0.01467077
307.20 0.01468641
307.30 0.01470208
307.40 0.01471776
307.50 0.01473344
307.60 0.01474911
307.70 0.01476479
307.80 0.01478047
307.90 0.01479615
308.00 0.01481182
308.10 0.0148275
308.20 0.01484316
308.30 0.01485875
308.40 0.01487414
308.50 0.01488916
308.60 0.01490355
308.70 0.01491951
308.80 0.01494676
308.90 0.01500436
309.00 0.01511337
309.10 0.01528315
309.20 0.01550434
309.30 0.01575588
309.40 0.01601871
309.50 0.01628311
309.60 0.01654688
309.70 0.01681027
309.80 0.01707348
309.90 0.01733661
310.00 0.01759972
310.10 0.01786283
310.20 0.01812596
310.30 0.01838916
310.40 0.01865256
310.50 0.01891633
310.60 0.01918074
310.70 0.01944357
310.80 0.01969505
310.90 0.01991601
311.00 0.02008531
311.10 0.0201935
311.20 0.02025002
311.30 0.02027602
311.40 0.02029068
311.50 0.02030376
311.60 0.02031747
311.70 0.02033157
311.80 0.02034585
311.90 0.0203602
312.00 0.02037458
312.10 0.02038895
312.20 0.0204033
312.30 0.02041756
312.40 0.02043159
312.50 0.02044515
312.60 0.02045792
312.70 0.02047264
312.80 0.02050139
312.90 0.02056781
313.00 0.02069806
313.10 0.02090376
313.20 0.02117329
313.30 0.0214805
313.40 0.02180173
313.50 0.02212491
313.60 0.02244731
313.70 0.02276923
313.80 0.02309093
313.90 0.02341253
314.00 0.02373411
314.10 0.02405569
314.20 0.02437725
314.30 0.02469875
314.40 0.02502009
314.50 0.0253411
314.60 0.02566157
314.70 0.02598339
314.80 0.02631497
314.90 0.02667278
315.00 0.02707502
315.10 0.02752978
315.20 0.02802897
315.30 0.0285544
315.40 0.02908958
315.50 0.02962611
315.60 0.0301621
315.70 0.03069777
315.80 0.03123327
315.90 0.03176871
316.00 0.03230414
316.10 0.03283956
316.20 0.03337504
316.30 0.03391075
316.40 0.03444707
316.50 0.03498458
316.60 0.03552409
316.70 0.03605863
316.80 0.03655729
316.90 0.03695953
317.00 0.03719846
317.10 0.03724432
317.20 0.03712687
317.30 0.036913
317.40 0.03666326
317.50 0.03640854
317.60 0.03615583
317.70 0.0359043
317.80 0.03565338
317.90 0.03540269
318.00 0.03515206
318.10 0.03490143
318.20 0.03465076
318.30 0.0343999
318.40 0.03414859
318.50 0.03389637
318.60 0.0336426
318.70 0.03339265
318.80 0.03317016
318.90 0.03302148
319.00 0.03299781
319.10 0.03312193
319.20 0.03337107
319.30 0.03369401
319.40 0.03404442
319.50 0.03439864
319.60 0.03475132
319.70 0.03510308
319.80 0.03545439
319.90 0.03580552
320.00 0.03615661
320.10 0.03650769
320.20 0.03685879
320.30 0.03720996
320.40 0.0375613
320.50 0.03791297
320.60 0.03826522
320.70 0.03861605
320.80 0.03895673
320.90 0.03927011
321.00 0.03953725
321.10 0.03974973
321.20 0.03991598
321.30 0.04005493
321.40 0.04018372
321.50 0.0403111
321.60 0.04043905
321.70 0.04056734
321.80 0.0406958
321.90 0.04082432
322.00 0.04095286
322.10 0.0410814
322.20 0.04120989
322.30 0.04133813
322.40 0.04146574
322.50 0.04159213
322.60 0.04171644
322.70 0.0418459
322.80 0.04201246
322.90 0.04227872
323.00 0.04271387
323.10 0.04334868
323.20 0.04415238
323.30 0.04505578
323.40 0.04599628
323.50 0.04694194
323.60 0.04788551
323.70 0.04882786
323.80 0.04976958
323.90 0.05071106
324.00 0.05165248
324.10 0.0525939
324.20 0.05353533
324.30 0.0544768
324.40 0.05541837
324.50 0.05636014
324.60 0.05730225
324.70 0.05824352
324.80 0.05917877
324.90 0.06009782
325.00 0.06098943
325.10 0.06184861
325.20 0.06268036
325.30 0.06349591
325.40 0.06430544
325.50 0.06511413
325.60 0.06592315
325.70 0.06673238
325.80 0.06754171
325.90 0.06835107
326.00 0.06916045
326.10 0.06996983
326.20 0.07077918
326.30 0.07158845
326.40 0.07239751
326.50 0.07320613
326.60 0.07401402
326.70 0.07482372
326.80 0.07564641
326.90 0.076504
327.00 0.07742073
327.10 0.07840735
327.20 0.07945311
327.30 0.08053378
327.40 0.08162743
327.50 0.08272289
327.60 0.08381761
327.70 0.08491191
327.80 0.08600599
327.90 0.08709999
328.00 0.08819396
328.10 0.08928794
328.20 0.09038203
328.30 0.09147663
328.40 0.0925725
328.50 0.09367089
328.60 0.09477357
328.70 0.09586565
328.80 0.09688153
328.90 0.09769258
329.00 0.09815671
329.10 0.09821068
329.20 0.09791773
329.30 0.09741996
329.40 0.09684598
329.50 0.09626141
329.60 0.09568112
329.70 0.09510335
329.80 0.09452685
329.90 0.09395087
330.00 0.09337499
330.10 0.09279912
330.20 0.09222316
330.30 0.09164683
330.40 0.09106955
330.50 0.0904904
330.60 0.08990808
330.70 0.08933361
330.80 0.08881567
330.90 0.08844967
331.00 0.08834102
331.10 0.08853663
331.20 0.08898959
331.30 0.08959449
331.40 0.09025592
331.50 0.09092521
331.60 0.09159132
331.70 0.09225556
331.80 0.09291885
331.90 0.09358177
332.00 0.09424461
332.10 0.09490744
332.20 0.09557033
332.30 0.09623345
332.40 0.09689717
332.50 0.09756208
332.60 0.098229
332.70 0.09889095
332.80 0.0995171
332.90 0.1000471
333.00 0.1004141
333.10 0.1005884
333.20 0.1005999
333.30 0.1005151
333.40 0.1003946
333.50 0.100269
333.60 0.1001455
333.70 0.1000232
333.80 0.09990143
333.90 0.09977993
334.00 0.09965848
334.10 0.09953631
334.20 0.0994122
334.30 0.09928549
334.40 0.09915613
334.50 0.09902465
334.60 0.09899872
334.70 0.09931984
334.80 0.1000766
334.90 0.1008284
335.00 0.1007428
335.10 0.09958683
335.20 0.09865227
335.30 0.1003664
335.40 0.1064303
335.50 0.1159164
335.60 0.1251603
335.70 0.1299012
335.80 0.1280396
335.90 0.1206795
336.00 0.1109478
336.10 0.1020544
336.20 0.09622699
336.30 0.09438463
336.40 0.09574112
336.50 0.09790042
336.60 0.09828569
336.70 0.09627375
336.80 0.09399233
336.90 0.09465694
337.00 0.09982518
337.10 0.107891
337.20 0.1150112
337.30 0.1177525
337.40 0.1155057
337.50 0.1108689
337.60 0.1076607
337.70 0.1080875
337.80 0.1114483
337.90 0.1154191
338.00 0.1182281
338.10 0.1193936
338.20 0.1186594
338.30 0.1151728
338.40 0.1086302
338.50 0.1009752
338.60 0.09609904
338.70 0.09703504
338.80 0.1031179
338.90 0.1101941
339.00 0.1139581
339.10 0.113482
339.20 0.1117918
339.30 0.1129016
339.40 0.1181284
339.50 0.1252457
339.60 0.1309051
339.70 0.1334596
339.80 0.1333863
339.90 0.1316187
340.00 0.1285266
340.10 0.124486
340.20 0.1203678
340.30 0.1168269
340.40 0.1133963
340.50 0.1089604
340.60 0.1032372
340.70 0.09739176
340.80 0.09310091
340.90 0.09131614
341.00 0.09197019
341.10 0.09448104
341.20 0.09818358
341.30 0.1022983
341.40 0.1059046
341.50 0.1083013
341.60 0.1094304
341.70 0.1099072
341.80 0.1105588
341.90 0.1118193
342.00 0.1133468
342.10 0.1140906
342.20 0.1129279
342.30 0.1096037
342.40 0.1052373
342.50 0.1017516
342.60 0.1005755
342.70 0.1017493
342.80 0.1041122
342.90 0.1062186
343.00 0.1072277
343.10 0.1072825
343.20 0.1071929
343.30 0.1076543
343.40 0.1086456
343.50 0.1095723
343.60 0.1098971
343.70 0.1094712
343.80 0.1084066
343.90 0.1069696
344.00 0.1056485
344.10 0.1050092
344.20 0.1051973
344.30 0.105687
344.40 0.1057399
344.50 0.1051077
344.60 0.1042305
344.70 0.1038472
344.80 0.1045231
344.90 0.1064597
345.00 0.1095556
345.10 0.1134873
345.20 0.1177243
345.30 0.121528
345.40 0.1240695
345.50 0.1248322
345.60 0.1240487
345.70 0.1226629
345.80 0.1216849
345.90 0.1214838
346.00 0.1216212
346.10 0.1212311
346.20 0.1196205
346.30 0.1168115
346.40 0.1137156
346.50 0.111602
346.60 0.1110866
346.70 0.1115951
346.80 0.1118962
346.90 0.1111026
347.00 0.1091269
347.10 0.1065117
347.20 0.1041591
347.30 0.1030761
347.40 0.1039025
347.50 0.1064048
347.60 0.1095852
347.70 0.1124504
347.80 0.1146801
347.90 0.1166146
348.00 0.1187335
348.10 0.121129
348.20 0.123337
348.30 0.1246468
348.40 0.1246807
348.50 0.1237252
348.60 0.1224348
348.70 0.1212326
348.80 0.1201088
348.90 0.1189185
349.00 0.117662
349.10 0.1164511
349.20 0.1153867
349.30 0.1146169
349.40 0.1144102
349.50 0.1149374
349.60 0.115934
349.70 0.1167395
349.80 0.1168805
349.90 0.1167334
350.00 0.1174808
350.10 0.1201822
350.20 0.1247634
350.30 0.1299099
350.40 0.1339709
350.50 0.1360099
350.60 0.1361155
350.70 0.1349545
350.80 0.1332105
350.90 0.1312613
351.00 0.1290321
351.10 0.1260268
351.20 0.1217087
351.30 0.1161733
351.40 0.1105187
351.50 0.1063125
351.60 0.1044738
351.70 0.1046215
351.80 0.1055134
351.90 0.1060813
352.00 0.1060277
352.10 0.1055713
352.20 0.1049628
352.30 0.1044169
352.40 0.1043991
352.50 0.1057691
352.60 0.1093094
352.70 0.1149182
352.80 0.1212997
352.90 0.1266906
353.00 0.1301648
353.10 0.1322304
353.20 0.1340609
353.30 0.1363036
353.40 0.1387963
353.50 0.1412174
353.60 0.14363
353.70 0.1462814
353.80 0.1491725
353.90 0.1520409
354.00 0.1545417
354.10 0.1562226
354.20 0.1565329
354.30 0.1552489
354.40 0.152952
354.50 0.1508303
354.60 0.1497874
354.70 0.1497711
354.80 0.1500273
354.90 0.1498874
355.00 0.1492272
355.10 0.1483162
355.20 0.1474416
355.30 0.1467376
355.40 0.1462707
355.50 0.1460718
355.60 0.1459876
355.70 0.145584
355.80 0.144349
355.90 0.1421204
356.00 0.1392803
356.10 0.1364442
356.20 0.1339321
356.30 0.1315096
356.40 0.1286388
356.50 0.1250555
356.60 0.1211899
356.70 0.1180121
356.80 0.1163523
356.90 0.1162871
357.00 0.1171455
357.10 0.1180304
357.20 0.118291
357.30 0.1176542
357.40 0.11614
357.50 0.1139715
357.60 0.11151
357.70 0.1091279
357.80 0.1070555
357.90 0.105329
358.00 0.1039259
358.10 0.1029995
358.20 0.1029418
358.30 0.1041259
358.40 0.1065347
358.50 0.1096251
358.60 0.1125395
358.70 0.1144753
358.80 0.1150207
358.90 0.1143547
359.00 0.1132621
359.10 0.1128391
359.20 0.1138904
359.30 0.1163665
359.40 0.1193004
359.50 0.1214135
359.60 0.1219846
359.70 0.1213
359.80 0.1203342
359.90 0.119929
360.00 0.1201264
360.10 0.120169
360.20 0.119144
360.30 0.1167103
360.40 0.1133787
360.50 0.1102517
360.60 0.1085092
360.70 0.108937
360.80 0.1115716
360.90 0.1156173
361.00 0.119839
361.10 0.1232683
361.20 0.1256665
361.30 0.1273288
361.40 0.1285071
361.50 0.1291483
361.60 0.1292359
361.70 0.1291622
361.80 0.129514
361.90 0.1304733
362.00 0.1315972
362.10 0.1322797
362.20 0.1323085
362.30 0.1319252
362.40 0.1315332
362.50 0.1314699
362.60 0.1318478
362.70 0.1323613
362.80 0.1323401
362.90 0.1312816
363.00 0.1294329
363.10 0.1277181
363.20 0.1269907
363.30 0.1273959
363.40 0.1284336
363.50 0.1294837
363.60 0.1302062
363.70 0.130574
363.80 0.1306638
363.90 0.1304515
364.00 0.1297597
364.10 0.1283821
364.20 0.1262896
364.30 0.123747
364.40 0.1212565
364.50 0.1193927
364.60 0.1185778
364.70 0.1188433
364.80 0.1197789
364.90 0.1208417
365.00 0.1218531
365.10 0.1231842
365.20 0.1253059
365.30 0.1281003
365.40 0.1306913
365.50 0.1320555
365.60 0.1318695
365.70 0.1307565
365.80 0.1296847
365.90 0.129179
366.00 0.1291244
366.10 0.1292107
366.20 0.1294156
366.30 0.1299634
366.40 0.1309163
366.50 0.1319497
366.60 0.1325236
366.70 0.1322331
366.80 0.1310193
366.90 0.1291388
367.00 0.1270279
367.10 0.1251821
367.20 0.1240515
367.30 0.1239248
367.40 0.1248031
367.50 0.1263739
367.60 0.1281643
367.70 0.1297877
367.80 0.1311062
367.90 0.132203
368.00 0.1332195
368.10 0.1341913
368.20 0.1349905
368.30 0.1353893
368.40 0.1352072
368.50 0.1344791
368.60 0.1335258
368.70 0.1328197
368.80 0.1326946
368.90 0.1331404
369.00 0.1338977
369.10 0.1347634
369.20 0.1357312
369.30 0.1367957
369.40 0.1377046
369.50 0.1380206
369.60 0.1375004
369.70 0.1363906
369.80 0.1353416
369.90 0.1350374
370.00 0.1358396
370.10 0.1376459
370.20 0.1400062
370.30 0.1423667
370.40 0.1442606
370.50 0.1453865
370.60 0.1456414
370.70 0.1452051
370.80 0.1445524
370.90 0.1442421
371.00 0.1445553
371.10 0.1452635
371.20 0.1457146
371.30 0.1451693
371.40 0.1432129
371.50 0.1400283
371.60 0.136369
371.70 0.1332053
371.80 0.13128
371.90 0.1308677
372.00 0.1317991
372.10 0.1335094
372.20 0.1349951
372.30 0.134986
372.40 0.1325314
372.50 0.1277439
372.60 0.1220253
372.70 0.1174358
372.80 0.1156406
372.90 0.1171784
373.00 0.1214245
373.10 0.127047
373.20 0.1325634
373.30 0.1367421
373.40 0.1388491
373.50 0.1386959
373.60 0.1364981
373.70 0.1326715
373.80 0.1277447
373.90 0.1224126
374.00 0.1175503
374.10 0.1140613
374.20 0.1126444
374.30 0.1136708
374.40 0.1172158
374.50 0.1230862
374.60 0.1307419
374.70 0.1391833
374.80 0.1470112
374.90 0.1527846
375.00 0.1555207
375.10 0.1550144
375.20 0.1518033
375.30 0.146887
375.40 0.1414204
375.50 0.1364709
375.60 0.1327626
375.70 0.1304785
375.80 0.1292734
375.90 0.1285479
376.00 0.1278549
376.10 0.1272197
376.20 0.127209
376.30 0.1286943
376.40 0.1324261
376.50 0.1387142
376.60 0.1474213
376.70 0.1580645
376.80 0.1697412
376.90 0.1809265
377.00 0.189594
377.10 0.1939171
377.20 0.1931132
377.30 0.1877507
377.40 0.1793297
377.50 0.1695676
377.60 0.1599051
377.70 0.1513692
377.80 0.1445407
377.90 0.1395253
378.00 0.1360307
378.10 0.133608
378.20 0.13191
378.30 0.1307531
378.40 0.1300107
378.50 0.1295753
378.60 0.1294602
378.70 0.1298561
378.80 0.1310471
378.90 0.1333525
379.00 0.1372308
379.10 0.1433425
379.20 0.1522795
379.30 0.1640596
379.40 0.1778119
379.50 0.191904
379.60 0.2043225
379.70 0.2130766
379.80 0.2166499
379.90 0.2144775
380.00 0.2072391
380.10 0.196661
380.20 0.184853
380.30 0.1735796
380.40 0.1638869
380.50 0.1561357
380.60 0.1502177
380.70 0.1457402
380.80 0.1421588
380.90 0.1390111
381.00 0.1361426
381.10 0.1336982
381.20 0.1318429
381.30 0.1305004
381.40 0.1294317
381.50 0.128579
381.60 0.1280464
381.70 0.1278991
381.80 0.1278218
381.90 0.1269682
382.00 0.1244012
382.10 0.1170874
382.20 0.09439659
382.30 0.06513594
382.40 0.03214931
382.50 0.01041821
382.60 0.0352809
382.70 0.1197043
382.80 0.2285499
382.90 0.3054173
383.00 0.3628601
383.10 0.4267355
383.20 0.4774025
383.30 0.530715
383.40 0.5712366
383.50 0.574887
383.60 0.5354599
383.70 0.4731593
383.80 0.414609
383.90 0.3675212
384.00 0.3212621
384.10 0.2647971
384.20 0.2020958
384.30 0.1506153
384.40 0.1326487
384.50 0.1695695
384.60 0.2198183
384.70 0.293565
384.80 0.3509924
384.90 0.3657008
385.00 0.3139915
385.10 0.2003618
385.20 0.08175747
385.30 0.04044059
385.40 0.1068726
385.50 0.2288008
385.60 0.3237773
385.70 0.3455294
385.80 0.2996275
385.90 0.2216712
386.00 0.1559703
386.10 0.1320064
386.20 0.1461585
386.30 0.1701571
386.40 0.1865337
386.50 0.2058547
386.60 0.2442471
386.70 0.3008017
386.80 0.3581473
386.90 0.3990009
387.00 0.4146402
387.10 0.4045264
387.20 0.3799321
387.30 0.3605057
387.40 0.3596991
387.50 0.3669577
387.60 0.3560359
387.70 0.3195594
387.80 0.2884357
387.90 0.2976
388.00 0.3394259
388.10 0.3738637
388.20 0.3778379
388.30 0.3633606
388.40 0.3390809
388.50 0.2999543
388.60 0.2667523
388.70 0.2922893
388.80 0.3973549
388.90 0.5236542
389.00 0.5856709
389.10 0.5588331
389.20 0.4876185
389.30 0.4142458
389.40 0.3378057
389.50 0.2521405
389.60 0.1902208
389.70 0.1279907
389.80 0.117837
389.90 0.1068324
390.00 0.0756049
390.10 0.09251482
390.20 0.1248898
390.30 0.1810685
390.40 0.2696778
390.50 0.3145819
390.60 0.3191986
390.70 0.3158076
390.80 0.3209921
390.90 0.3161695
391.00 0.2754297
391.10 0.1956142
391.20 0.1006369
391.30 0.1009955
391.40 0.1261127
391.50 0.1433256
391.60 0.1507326
391.70 0.1606281
391.80 0.1855697
391.90 0.2285108
392.00 0.2740861
392.10 0.3085882
392.20 0.3143519
392.30 0.3039949
392.40 0.2465786
392.50 0.1725147
392.60 0.140649
392.70 0.1287522
392.80 0.130133
392.90 0.162691
393.00 0.3294624
393.10 0.6880377
393.20 1.16544
393.30 1.624748
393.40 1.855734
393.50 1.724305
393.60 1.304695
393.70 0.8278973
393.80 0.4932148
393.90 0.3341964
394.00 0.255423
394.10 0.1642112
394.20 0.05544397
394.30 0.01459039
394.40 0.02581464
394.50 0.07932268
394.60 0.1521405
394.70 0.2297394
394.80 0.2623177
394.90 0.2850355
395.00 0.2935203
395.10 0.2920327
395.20 0.2783764
395.30 0.2588905
395.40 0.255428
395.50 0.3312985
395.60 0.4640496
395.70 0.5297703
395.80 0.48991
395.90 0.3779606
396.00 0.2701285
396.10 0.1956344
396.20 0.1400869
396.30 0.1225032
396.40 0.1494622
396.50 0.2623651
396.60 0.5111711
396.70 0.9038861
396.80 1.366691
396.90 1.731091
397.00 1.840955
397.10 1.661053
397.20 1.286487
397.30 0.8551517
397.40 0.4921427
397.50 0.2698143
397.60 0.2001329
397.70 0.2391838
397.80 0.3108884
397.90 0.3578183
398.00 0.3709029
398.10 0.3711716
398.20 0.3730394
398.30 0.3764213
398.40 0.3789135
398.50 0.3775135
398.60 0.3665876
398.70 0.3397143
398.80 0.3321693
398.90 0.3086529
399.00 0.2800993
399.10 0.2580703
399.20 0.2456967
399.30 0.2353412
399.40 0.2167371
399.50 0.1931914
399.60 0.1913455
399.70 0.2206186
399.80 0.254787
399.90 0.2735566
400.00 0.266752
400.10 0.2444254
400.20 0.2263141
400.30 0.2213563
400.40 0.222503
400.50 0.2236305
400.60 0.2284745
400.70 0.223101
400.80 0.2240125
400.90 0.2535261
401.00 0.2803908
401.10 0.2858901
401.20 0.2643122
401.30 0.254148
401.40 0.2541755
401.50 0.2406395
401.60 0.2148496
401.70 0.2223593
401.80 0.2413379
401.90 0.2621894
402.00 0.2777007
402.10 0.2889885
402.20 0.3040607
402.30 0.3248865
402.40 0.3402967
402.50 0.3392466
402.60 0.3229465
402.70 0.2964512
402.80 0.259987
402.90 0.2179863
403.00 0.1848043
403.10 0.1718873
403.20 0.1730733
403.30 0.1716613
403.40 0.1594584
403.50 0.1412235
403.60 0.1257922
403.70 0.126843
403.80 0.1414777
403.90 0.1636103
404.00 0.1957224
404.10 0.2296188
404.20 0.2611806
404.30 0.294145
404.40 0.3386501
404.50 0.3944707
404.60 0.436563
404.70 0.4296651
404.80 0.3674164
404.90 0.289572
405.00 0.2455958
405.10 0.2490208
405.20 0.2754499
405.30 0.2968579
405.40 0.3062919
405.50 0.3081643
405.60 0.2995915
405.70 0.2755218
405.80 0.2479967
405.90 0.2353194
406.00 0.2459002
406.10 0.2671872
406.20 0.2809575
406.30 0.285574
406.40 0.2948806
406.50 0.3119753
406.60 0.3290487
406.70 0.3355261
406.80 0.3277261
406.90 0.3103987
407.00 0.28577
407.10 0.2531627
407.20 0.2316479
407.30 0.2121679
407.40 0.1859339
407.50 0.1872363
407.60 0.1962325
407.70 0.2022266
407.80 0.2108717
407.90 0.2282023
408.00 0.2516289
408.10 0.2708706
408.20 0.2753611
408.30 0.2633519
408.40 0.2408335
408.50 0.2195465
408.60 0.2087617
408.70 0.2062148
408.80 0.1988228
408.90 0.1770347
409.00 0.1509909
409.10 0.1438453
409.20 0.1636789
409.30 0.1913178
409.40 0.1914272
409.50 0.1596732
409.60 0.137684
409.70 0.1776976
409.80 0.297633
409.90 0.4773697
410.00 0.6811318
410.10 0.8629864
410.20 0.9614391
410.30 0.9244974
410.40 0.7584224
410.50 0.5377901
410.60 0.3522829
410.70 0.2793325
410.80 0.2446938
410.90 0.2220472
411.00 0.2058947
411.10 0.1990999
411.20 0.1953486
411.30 0.1844193
411.40 0.1682281
411.50 0.1606035
411.60 0.2206873
411.70 0.3304114
411.80 0.4086921
411.90 0.4286739
412.00 0.3958283
412.10 0.3381052
412.20 0.2833918
412.30 0.2490546
412.40 0.2322881
412.50 0.222083
412.60 0.2108105
412.70 0.1960175
412.80 0.1772565
412.90 0.1562802
413.00 0.1400476
413.10 0.1373658
413.20 0.14878
413.30 0.1659339
413.40 0.1797177
413.50 0.1854016
413.60 0.1842426
413.70 0.1824164
413.80 0.1844917
413.90 0.18492
414.00 0.1710987
414.10 0.1355367
414.20 0.1281948
414.30 0.1235648
414.40 0.1216478
414.50 0.1290241
414.60 0.1547401
414.70 0.1940147
414.80 0.256141
414.90 0.2858244
415.00 0.2478138
415.10 0.1927556
415.20 0.1610554
415.30 0.1350274
415.40 0.1211398
415.50 0.1301391
415.60 0.1652791
415.70 0.2130508
415.80 0.2483906
415.90 0.258649
416.00 0.2615222
416.10 0.2628084
416.20 0.2569074
416.30 0.2300718
416.40 0.1753199
416.50 0.1099521
416.60 0.1028024
416.70 0.1289544
416.80 0.167249
416.90 0.1900689
417.00 0.1991973
417.10 0.2199823
417.20 0.2174086
417.30 0.2049787
417.40 0.1984962
417.50 0.2058824
417.60 0.223416
417.70 0.2387197
417.80 0.2420176
417.90 0.2585862
418.00 0.2580732
418.10 0.2496625
418.20 0.2323278
418.30 0.1959886
418.40 0.145982
418.50 0.110328
418.60 0.1482266
418.70 0.2202238
418.80 0.3075419
418.90 0.3899822
419.00 0.453448
419.10 0.4840085
419.20 0.4701184
419.30 0.4169401
419.40 0.3495441
419.50 0.2925603
419.60 0.2522004
419.70 0.2230354
419.80 0.2031703
419.90 0.1997826
420.00 0.2099158
420.10 0.2159124
420.20 0.2014474
420.30 0.1860804
420.40 0.1841527
420.50 0.1915776
420.60 0.2104357
420.70 0.2352229
420.80 0.2743751
420.90 0.2927519
421.00 0.2809841
421.10 0.247948
421.20 0.2140637
421.30 0.1992353
421.40 0.2076178
421.50 0.2361343
421.60 0.2665299
421.70 0.2807919
421.80 0.2706027
421.90 0.242125
422.00 0.2123915
422.10 0.2006588
422.20 0.2134338
422.30 0.2316029
422.40 0.2201438
422.50 0.1615462
422.60 0.08264853
422.70 0.05743177
422.80 0.05284542
422.90 0.05779974
423.00 0.05856496
423.10 0.05098956
423.20 0.03870156
423.30 0.02585284
423.40 0.01576693
423.50 0.03595688
423.60 0.09456034
423.70 0.1482036
423.80 0.1872821
423.90 0.2053236
424.00 0.1979786
424.10 0.1668427
424.20 0.1221938
424.30 0.0786446
424.40 0.05990985
424.50 0.05872157
424.60 0.05656195
424.70 0.05011801
424.80 0.06956217
424.90 0.1096049
425.00 0.1562326
425.10 0.1900772
425.20 0.1927021
425.30 0.1642983
425.40 0.1251835
425.50 0.1012618
425.60 0.1061994
425.70 0.134738
425.80 0.1702366
425.90 0.1964816
426.00 0.2065412
426.10 0.2043531
426.20 0.1973126
426.30 0.1890425
426.40 0.1834941
426.50 0.1851198
426.60 0.1905431
426.70 0.1849802
426.80 0.156314
426.90 0.1316294
427.00 0.1455391
427.10 0.1537503
427.20 0.1537108
427.30 0.1478997
427.40 0.1391503
427.50 0.1262189
427.60 0.1077331
427.70 0.085064
427.80 0.07173524
427.90 0.05941096
428.00 0.05546473
428.10 0.0772641
428.20 0.123805
428.30 0.1767513
428.40 0.2081183
428.50 0.201239
428.60 0.1573779
428.70 0.1027392
428.80 0.07076222
428.90 0.07913895
429.00 0.1198277
429.10 0.1880396
429.20 0.2437707
429.30 0.2688805
429.40 0.2769313
429.50 0.2815367
429.60 0.28298
429.70 0.2715456
429.80 0.2439834
429.90 0.2139307
430.00 0.2023077
430.10 0.2158257
430.20 0.2400407
430.30 0.2565447
430.40 0.2626454
430.50 0.2705355
430.60 0.2852663
430.70 0.2945248
430.80 0.2852072
430.90 0.2591129
431.00 0.2282848
431.10 0.2024602
431.20 0.1841394
431.30 0.1708368
431.40 0.1555078
431.50 0.1304191
431.60 0.1058009
431.70 0.09061576
431.80 0.08055759
431.90 0.07688993
432.00 0.08812963
432.10 0.1326544
432.20 0.1922619
432.30 0.2489135
432.40 0.2822759
432.50 0.2840418
432.60 0.260903
432.70 0.2307137
432.80 0.2142714
432.90 0.2216411
433.00 0.2426703
433.10 0.2552553
433.20 0.2629985
433.30 0.2740392
433.40 0.2773641
433.50 0.2778454
433.60 0.2873804
433.70 0.3388381
433.80 0.5160918
433.90 0.7976666
434.00 1.113201
434.10 1.324426
434.20 1.319146
434.30 1.103919
434.40 0.7989484
434.50 0.5411473
434.60 0.3947185
434.70 0.3419807
434.80 0.3328094
434.90 0.3291464
435.00 0.3153304
435.10 0.2909189
435.20 0.2639592
435.30 0.2440153
435.40 0.2365422
435.50 0.2444787
435.60 0.2757828
435.70 0.3284037
435.80 0.3813629
435.90 0.3986736
436.00 0.3589798
436.10 0.2794064
436.20 0.224457
436.30 0.187045
436.40 0.1838416
436.50 0.2109437
436.60 0.2355413
436.70 0.2590746
436.80 0.2891594
436.90 0.3212129
437.00 0.3385983
437.10 0.331025
437.20 0.3060047
437.30 0.2797255
437.40 0.2617112
437.50 0.2530218
437.60 0.254156
437.70 0.266242
437.80 0.2875791
437.90 0.3054325
438.00 0.3079651
438.10 0.293353
438.20 0.2719856
438.30 0.251693
438.40 0.2393371
438.50 0.2322995
438.60 0.2259546
438.70 0.232772
438.80 0.2609661
438.90 0.2934218
439.00 0.3136227
439.10 0.3139404
439.20 0.3026912
439.30 0.2938644
439.40 0.2900736
439.50 0.2840607
439.60 0.2706762
439.70 0.2532163
439.80 0.242383
439.90 0.2618514
440.00 0.2902578
440.10 0.2975833
440.20 0.2738047
440.30 0.2281455
440.40 0.2027972
440.50 0.1780081
440.60 0.1586476
440.70 0.155735
440.80 0.1745681
440.90 0.2466277
441.00 0.3303116
441.10 0.3893766
441.20 0.4044093
441.30 0.3887238
441.40 0.378561
441.50 0.4014021
441.60 0.4551778
441.70 0.5128656
441.80 0.5426061
441.90 0.5269456
442.00 0.4723559
442.10 0.4053643
442.20 0.3559842
442.30 0.3377505
442.40 0.3400639
442.50 0.3402272
442.60 0.3246373
442.70 0.3017244
442.80 0.2946927
442.90 0.3194378
443.00 0.3676408
443.10 0.4109348
443.20 0.4235848
443.30 0.4015536
443.40 0.3615284
443.50 0.3325057
443.60 0.3287529
443.70 0.3394694
443.80 0.3875726
443.90 0.4343827
444.00 0.4589992
444.10 0.4593178
444.20 0.4474831
444.30 0.4365774
444.40 0.4339681
444.50 0.4375622
444.60 0.4419865
444.70 0.4442139
444.80 0.4457237
444.90 0.4542068
445.00 0.4731624
445.10 0.4984716
445.20 0.5238696
445.30 0.5416018
445.40 0.5411289
445.50 0.5170603
445.60 0.4766659
445.70 0.4481286
445.80 0.4411644
445.90 0.4439519
446.00 0.4425047
446.10 0.4399395
446.20 0.4492861
446.30 0.4735155
446.40 0.5007218
446.50 0.5164402
446.60 0.5154888
446.70 0.5039367
446.80 0.4946272
446.90 0.4988876
447.00 0.5178074
447.10 0.5410144
447.20 0.5559646
447.30 0.558964
447.40 0.554918
447.50 0.5495723
447.60 0.54332
447.70 0.5304353
447.80 0.5059235
447.90 0.4736
448.00 0.4686354
448.10 0.4633197
448.20 0.469574
448.30 0.5114071
448.40 0.5504665
448.50 0.5752436
448.60 0.5895841
448.70 0.6031771
448.80 0.61707
448.90 0.6257221
449.00 0.6318438
449.10 0.6478413
449.20 0.6789889
449.30 0.7102549
449.40 0.7162043
449.50 0.6857704
449.60 0.6343146
449.70 0.5901416
449.80 0.5716251
449.90 0.576858
450.00 0.5928998
450.10 0.6097996
450.20 0.6204713
450.30 0.6160557
450.40 0.5922329
450.50 0.5585088
450.60 0.5331752
450.70 0.5263334
450.80 0.5323381
450.90 0.5415795
451.00 0.5535101
451.10 0.5721245
451.20 0.5937811
451.30 0.6068661
451.40 0.6051581
451.50 0.5944038
451.60 0.5831728
451.70 0.5741479
451.80 0.5698365
451.90 0.5794419
452.00 0.6088104
452.10 0.6476244
452.20 0.6767497
452.30 0.6891378
452.40 0.6962553
452.50 0.7120281
452.60 0.7358042
452.70 0.7545431
452.80 0.7571307
452.90 0.745933
453.00 0.7356439
453.10 0.7367655
453.20 0.7416068
453.30 0.7304755
453.40 0.6937822
453.50 0.6469976
453.60 0.6216235
453.70 0.6409785
453.80 0.7045714
453.90 0.788631
454.00 0.8587391
454.10 0.889352
454.20 0.8760151
454.30 0.8337045
454.40 0.7847306
454.50 0.7437837
454.60 0.7107639
454.70 0.6769646
454.80 0.6369411
454.90 0.5959353
455.00 0.5685939
455.10 0.5705229
455.20 0.6088006
455.30 0.6725031
455.40 0.7336315
455.50 0.7677207
455.60 0.7748361
455.70 0.7736502
455.80 0.7756695
455.90 0.7755162
456.00 0.7683287
456.10 0.7655111
456.20 0.7849345
456.30 0.8311225
456.40 0.8920457
456.50 0.9517174
456.60 0.9996722
456.70 1.03274
456.80 1.053127
456.90 1.064389
457.00 1.069189
457.10 1.069171
457.20 1.067807
457.30 1.071129
457.40 1.080777
457.50 1.085991
457.60 1.06883
457.70 1.021046
457.80 0.9559797
457.90 0.9020554
458.00 0.8806163
458.10 0.8927343
458.20 0.9207483
458.30 0.9351733
458.40 0.907043
458.50 0.8273657
458.60 0.7204956
458.70 0.6297176
458.80 0.5829628
458.90 0.5745449
459.00 0.5805083
459.10 0.5836982
459.20 0.5831627
459.30 0.5874961
459.40 0.6036339
459.50 0.6313306
459.60 0.6648664
459.70 0.7007791
459.80 0.7407444
459.90 0.7822964
460.00 0.8115083
460.10 0.8133719
460.20 0.7892501
460.30 0.7553965
460.40 0.7223924
460.50 0.6850966
460.60 0.6395289
460.70 0.6012945
460.80 0.5993496
460.90 0.6517814
461.00 0.7490792
461.10 0.8586435
461.20 0.9439429
461.30 0.9879324
461.40 1.005032
461.50 1.024998
461.60 1.060049
461.70 1.092174
461.80 1.097873
461.90 1.079281
462.00 1.062153
462.10 1.065302
462.20 1.080994
462.30 1.086645
462.40 1.066846
462.50 1.019929
462.60 0.9497177
462.70 0.8607775
462.80 0.7618716
462.90 0.6710669
463.00 0.6121945
463.10 0.6012312
463.20 0.6337734
463.30 0.6846191
463.40 0.724447
463.50 0.7403515
463.60 0.7405584
463.70 0.7385526
463.80 0.7370747
463.90 0.7314653
464.00 0.7239357
464.10 0.7271461
464.20 0.7510698
464.30 0.7904428
464.40 0.8281952
464.50 0.8505939
464.60 0.8580161
464.70 0.8622052
464.80 0.8735468
464.90 0.8892758
465.00 0.8965105
465.10 0.8882124
465.20 0.8718738
465.30 0.8600524
465.40 0.8572165
465.50 0.861084
465.60 0.8742707
465.70 0.9073404
465.80 0.9659567
465.90 1.038824
466.00 1.101065
466.10 1.130612
466.20 1.125457
466.30 1.104944
466.40 1.091063
466.50 1.087722
466.60 1.07819
466.70 1.041262
466.80 0.9673356
466.90 0.8620425
467.00 0.7442271
467.10 0.6427985
467.20 0.5867819
467.30 0.5881408
467.40 0.6324552
467.50 0.6891612
467.60 0.7321913
467.70 0.7520021
467.80 0.7540532
467.90 0.7492581
468.00 0.7451092
468.10 0.7444036
468.20 0.7483773
468.30 0.7597697
468.40 0.7795675
468.50 0.8014674
468.60 0.814621
468.70 0.8134799
468.80 0.8040659
468.90 0.7976799
469.00 0.7988092
469.10 0.801477
469.20 0.7996128
469.30 0.7980141
469.40 0.8051106
469.50 0.8189577
469.60 0.8304003
469.70 0.8416031
469.80 0.8680626
469.90 0.9142732
470.00 0.9589364
470.10 0.9765523
470.20 0.9690429
470.30 0.9615982
470.40 0.9711435
470.50 0.9885074
470.60 0.9931191
470.70 0.9784813
470.80 0.9574869
470.90 0.9484232
471.00 0.9587732
471.10 0.980318
471.20 0.9957707
471.30 0.988948
471.40 0.9541461
471.50 0.9029549
471.60 0.8606013
471.70 0.8477231
471.80 0.8627069
471.90 0.8828888
472.00 0.8859779
472.10 0.8705207
472.20 0.8565802
472.30 0.8680024
472.40 0.9102493
472.50 0.9633234
472.60 0.9990466
472.70 1.007147
472.80 1.001432
472.90 1.000421
473.00 1.007152
473.10 1.012661
473.20 1.012957
473.30 1.013228
473.40 1.016579
473.50 1.014868
473.60 0.995657
473.70 0.9588322
473.80 0.9237257
473.90 0.9151253
474.00 0.9397951
474.10 0.9796348
474.20 1.009664
474.30 1.021417
474.40 1.0258
474.50 1.035788
474.60 1.052222
474.70 1.066132
474.80 1.070584
474.90 1.067961
475.00 1.067603
475.10 1.077564
475.20 1.100686
475.30 1.135008
475.40 1.171943
475.50 1.194477
475.60 1.183121
475.70 1.129766
475.80 1.044986
475.90 0.9486596
476.00 0.8526759
476.10 0.7563163
476.20 0.6586006
476.30 0.569624
476.40 0.5184014
476.50 0.4921483
476.60 0.4732392
476.70 0.4704909
476.80 0.4724568
476.90 0.46867
477.00 0.4609152
477.10 0.4605892
477.20 0.4829593
477.30 0.5334
477.40 0.6002745
477.50 0.6634937
477.60 0.7069326
477.70 0.7229607
477.80 0.7108519
477.90 0.6758952
478.00 0.6295835
478.10 0.5861331
478.20 0.5567812
478.30 0.5461764
478.40 0.5536623
478.50 0.577752
478.60 0.6168041
478.70 0.6637387
478.80 0.7045652
478.90 0.726956
479.00 0.7323723
479.10 0.7371526
479.20 0.7581058
479.30 0.7973093
479.40 0.840852
479.50 0.8711861
479.60 0.8805813
479.70 0.8747819
479.80 0.8675089
479.90 0.8710149
480.00 0.8882415
480.10 0.9122888
480.20 0.9290039
480.30 0.9188628
480.40 0.8649142
480.50 0.7681003
480.60 0.6553771
480.70 0.5663587
480.80 0.5252026
480.90 0.5270365
481.00 0.5511129
481.10 0.580059
481.20 0.6080275
481.30 0.6373758
481.40 0.6704766
481.50 0.7020138
481.60 0.7184733
481.70 0.7089403
481.80 0.6798817
481.90 0.6558398
482.00 0.6587333
482.10 0.688493
482.20 0.7267989
482.30 0.7566392
482.40 0.7737903
482.50 0.7827466
482.60 0.7907162
482.70 0.8044291
482.80 0.8248161
482.90 0.8412038
483.00 0.8390232
483.10 0.8170599
483.20 0.7921679
483.30 0.7848859
483.40 0.803083
483.50 0.8399142
483.60 0.8821717
483.70 0.9196804
483.80 0.9487468
483.90 0.9684881
484.00 0.9738752
484.10 0.9560409
484.20 0.9133924
484.30 0.8600016
484.40 0.8174517
484.50 0.7969221
484.60 0.7916124
484.70 0.7878051
484.80 0.7812288
484.90 0.7786054
485.00 0.7838948
485.10 0.7897842
485.20 0.7882459
485.30 0.7848989
485.40 0.7928948
485.50 0.8116505
485.60 0.8254198
485.70 0.8407463
485.80 0.9269633
485.90 1.190649
486.00 1.667443
486.10 2.223586
486.20 2.597158
486.30 2.584399
486.40 2.203288
486.50 1.669647
486.60 1.217299
486.70 0.9482265
486.80 0.8307796
486.90 0.7910451
487.00 0.7814815
487.10 0.7871645
487.20 0.8063544
487.30 0.8381986
487.40 0.8789096
487.50 0.9199876
487.60 0.9506402
487.70 0.9645648
487.80 0.9635974
487.90 0.9538887
488.00 0.9392404
488.10 0.9202514
488.20 0.9009163
488.30 0.8938811
488.40 0.9139674
488.50 0.9623842
488.60 1.019014
488.70 1.05624
488.80 1.062507
488.90 1.050401
489.00 1.042023
489.10 1.049447
489.20 1.067732
489.30 1.081358
489.40 1.077079
489.50 1.055265
489.60 1.031334
489.70 1.022689
489.80 1.033754
489.90 1.056495
490.00 1.083596
490.10 1.113821
490.20 1.144558
490.30 1.168429
490.40 1.181761
490.50 1.192101
490.60 1.209136
490.70 1.231233
490.80 1.248722
490.90 1.258876
491.00 1.271799
491.10 1.298822
491.20 1.338276
491.30 1.376802
491.40 1.401609
491.50 1.40699
491.60 1.395247
491.70 1.376909
491.80 1.368208
491.90 1.382795
492.00 1.420197
492.10 1.466171
492.20 1.506533
492.30 1.537021
492.40 1.561348
492.50 1.583988
492.60 1.605753
492.70 1.624566
492.80 1.636936
492.90 1.639689
493.00 1.631952
493.10 1.615161
493.20 1.594198
493.30 1.579787
493.40 1.584857
493.50 1.61392
493.60 1.657168
493.70 1.697942
493.80 1.726837
493.90 1.746305
494.00 1.765112
494.10 1.790969
494.20 1.826145
494.30 1.868569
494.40 1.916479
494.50 1.970137
494.60 2.028229
494.70 2.083914
494.80 2.126746
494.90 2.149974
495.00 2.151814
495.10 2.127634
495.20 2.06119
495.30 1.924992
495.40 1.698386
495.50 1.394296
495.60 1.067425
495.70 0.7879629
495.80 0.5988892
495.90 0.4956462
496.00 0.4465578
496.10 0.4261735
496.20 0.4266305
496.30 0.4475224
496.40 0.4855603
496.50 0.5353084
496.60 0.5925147
496.70 0.6540616
496.80 0.7182108
496.90 0.7829638
497.00 0.8386049
497.10 0.8676361
497.20 0.8603362
497.30 0.8298485
497.40 0.8056497
497.50 0.8095058
497.60 0.8430043
497.70 0.8956795
497.80 0.9536711
497.90 0.9975536
498.00 1.003794
498.10 0.9630736
498.20 0.9010045
498.30 0.8691342
498.40 0.9048012
498.50 0.9979662
498.60 1.098214
498.70 1.155752
498.80 1.157343
498.90 1.127454
499.00 1.101148
499.10 1.097036
499.20 1.110372
499.30 1.126997
499.40 1.139665
499.50 1.151306
499.60 1.155941
499.70 1.118432
499.80 0.9887123
499.90 0.7512039
500.00 1
500.10 0.8753916
500.20 0.7847769
500.30 0.6884164
500.40 0.6414779
500.50 0.7205837
500.60 0.779745
500.70 0.7327629
500.80 0.7869257
500.90 0.9431709
501.00 1.062477
501.10 1.026871
501.20 0.8970144
501.30 0.83089
501.40 0.9427618
501.50 0.8356507
501.60 0.6722674
501.70 0.7680194
501.80 0.8473972
501.90 0.8981483
502.00 1.097845
502.10 0.961955
502.20 0.9879118
502.30 0.9109327
502.40 0.9122852
502.50 0.9855205
502.60 1.020834
502.70 1.002129
502.80 0.9785782
502.90 1.034432
503.00 1.152706
503.10 1.166262
503.20 1.092239
503.30 0.9930524
503.40 0.9650325
503.50 0.8826295
503.60 1.052027
503.70 1.313554
503.80 1.269064
503.90 1.196359
504.00 1.266856
504.10 1.133656
504.20 1.18012
504.30 1.280491
504.40 1.318648
504.50 1.206117
504.60 1.246964
504.70 1.423309
504.80 1.391369
504.90 1.319601
505.00 1.276511
505.10 1.204296
505.20 1.221777
505.30 1.249851
505.40 1.162976
505.50 1.055739
505.60 1.167819
505.70 1.277654
505.80 1.265613
505.90 1.172519
506.00 1.216045
506.10 1.261858
506.20 1.328663
506.30 1.459034
506.40 1.30743
506.50 1.217925
506.60 1.267971
506.70 1.274006
506.80 1.276455
506.90 1.419556
507.00 1.48902
507.10 1.37885
507.20 1.385126
507.30 1.331341
507.40 1.388687
507.50 1.629111
507.60 1.635411
507.70 1.518061
507.80 1.507745
507.90 1.631307
508.00 1.639128
508.10 1.462209
508.20 1.345448
508.30 1.366034
508.40 1.383949
508.50 1.360188
508.60 1.33898
508.70 1.493886
508.80 1.506021
508.90 1.403463
509.00 1.401757
509.10 1.321329
509.20 1.36017
509.30 1.532148
509.40 1.583115
509.50 1.474075
509.60 1.473831
509.70 1.542996
509.80 1.616103
509.90 1.64577
510.00 1.468013
510.10 1.210727
510.20 1.232947
510.30 1.323207
510.40 1.311172
510.50 1.356905
510.60 1.312849
510.70 1.176747
510.80 1.235792
510.90 1.502043
511.00 1.628056
511.10 1.477893
511.20 1.502588
511.30 1.656535
511.40 1.519075
511.50 1.468725
511.60 1.735157
511.70 1.883373
511.80 1.640762
511.90 1.579313
512.00 1.601934
512.10 1.578741
512.20 1.612875
512.30 1.746904
512.40 1.69671
512.50 1.55353
512.60 1.410186
512.70 1.428401
512.80 1.41493
512.90 1.265138
513.00 1.301737
513.10 1.435626
513.20 1.519298
513.30 1.748956
513.40 1.800042
513.50 1.624458
513.60 1.636034
513.70 1.672073
513.80 1.795253
513.90 1.796807
514.00 1.674987
514.10 1.487699
514.20 1.459973
514.30 1.594326
514.40 1.633686
514.50 1.654609
514.60 1.553092
514.70 1.44817
514.80 1.489385
514.90 1.553646
515.00 1.424077
515.10 1.401618
515.20 1.547397
515.30 1.567535
515.40 1.43492
515.50 1.381614
515.60 1.376514
515.70 1.540655
515.80 1.829739
515.90 2.044445
516.00 1.908247
516.10 1.916076
516.20 2.163434
516.30 2.147151
516.40 2.169337
516.50 2.177879
516.60 1.961332
516.70 1.474563
516.80 1.071109
516.90 0.6173227
517.00 0.5413334
517.10 0.4941383
517.20 0.5129332
517.30 0.6010405
517.40 0.5589357
517.50 0.5255403
517.60 0.6435149
517.70 0.5929605
517.80 0.5632865
517.90 0.598359
518.00 0.6096986
518.10 0.5754098
518.20 0.5842587
518.30 0.5576159
518.40 0.5496052
518.50 0.6896039
518.60 0.9549822
518.70 0.9404064
518.80 0.957988
518.90 1.04679
519.00 1.055983
519.10 1.117082
519.20 1.167562
519.30 0.9973148
519.40 0.9366045
519.50 1.066748
519.60 1.160675
519.70 1.261751
519.80 1.235407
519.90 1.122408
520.00 0.9247065
520.10 0.9078815
520.20 1.034243
520.30 1.120455
520.40 1.167005
520.50 1.163064
520.60 0.9873539
520.70 0.8135905
520.80 0.897076
520.90 0.8935779
521.00 0.7695872
521.10 0.7768591
521.20 1.098683
521.30 1.365727
521.40 1.51064
521.50 1.521329
521.60 1.564337
521.70 1.633385
521.80 1.66318
521.90 1.742986
522.00 1.842457
522.10 1.775453
522.20 1.725482
522.30 1.674926
522.40 1.71519
522.50 1.797936
522.60 1.858506
522.70 1.855486
522.80 1.764861
522.90 1.61942
523.00 1.784114
523.10 2.059533
523.20 2.064173
523.30 1.832621
523.40 1.822214
523.50 1.903551
523.60 1.949153
523.70 1.877341
523.80 1.898099
523.90 1.97345
524.00 1.926422
524.10 1.722513
524.20 1.600782
524.30 1.445438
524.40 1.404185
524.50 1.421754
524.60 1.551755
524.70 1.500517
524.80 1.453419
524.90 1.468298
525.00 1.557388
525.10 1.453202
525.20 1.50034
525.30 1.72908
525.40 1.968702
525.50 1.813449
525.60 1.845139
525.70 2.01134
525.80 1.998415
525.90 1.885662
526.00 1.821134
526.10 1.666782
526.20 1.620177
526.30 1.708779
526.40 1.673365
526.50 1.50976
526.60 1.453353
526.70 1.487447
526.80 1.520627
526.90 1.484728
527.00 1.494466
527.10 1.48863
527.20 1.449625
527.30 1.620531
527.40 1.755514
527.50 1.945282
527.60 2.040482
527.70 1.96834
527.80 1.877272
527.90 1.85689
528.00 1.808036
528.10 1.74423
528.20 1.682108
528.30 1.878084
528.40 1.984093
528.50 1.911704
528.60 1.93183
528.70 2.07873
528.80 2.220604
528.90 2.238276
529.00 2.11437
529.10 2.061346
529.20 2.140965
529.30 2.143547
529.40 2.080178
529.50 2.133727
529.60 2.214819
529.70 2.264514
529.80 1.983856
529.90 1.838818
530.00 2.011774
530.10 2.13708
530.20 2.110736
530.30 2.113265
530.40 2.341379
530.50 2.43447
530.60 2.301923
530.70 2.212384
530.80 2.072716
530.90 1.984541
531.00 1.970786
531.10 1.885978
531.20 1.846081
531.30 1.943592
531.40 1.929309
531.50 1.818734
531.60 1.88953
531.70 2.060083
531.80 2.094409
531.90 1.933841
532.00 1.924553
532.10 2.115823
532.20 2.039124
532.30 1.954346
532.40 2.076611
532.50 2.191247
532.60 2.117907
532.70 1.887807
532.80 1.838345
532.90 1.899961
533.00 1.847299
533.10 1.95499
533.20 2.046938
533.30 2.146346
533.40 2.066588
533.50 1.893963
533.60 1.936561
533.70 1.884959
533.80 1.926769
533.90 2.036952
534.00 2.187363
534.10 2.133314
534.20 2.000902
534.30 2.112993
534.40 2.266409
534.50 2.312304
534.60 2.303714
534.70 2.252132
534.80 1.995488
534.90 2.045262
535.00 2.265979
535.10 2.499613
535.20 2.574184
535.30 2.578196
535.40 2.671077
535.50 2.744629
535.60 2.624419
535.70 2.537887
535.80 2.430026
535.90 2.302678
536.00 2.164401
536.10 2.141563
536.20 2.117006
536.30 2.14959
536.40 2.069394
536.50 2.141499
536.60 2.05198
536.70 2.020685
536.80 1.974769
536.90 2.007795
537.00 1.984807
537.10 2.061633
537.20 2.055814
537.30 2.018091
537.40 2.063316
537.50 2.320752
537.60 2.406308
537.70 2.272795
537.80 2.29245
537.90 2.584658
538.00 2.724284
538.10 2.678538
538.20 2.623489
538.30 2.589296
538.40 2.629717
538.50 2.569861
538.60 2.511468
538.70 2.375873
538.80 2.437025
538.90 2.494107
539.00 2.623006
539.10 2.658337
539.20 2.518456
539.30 2.371308
539.40 2.523138
539.50 2.652357
539.60 2.583648
539.70 2.374334
539.80 2.393825
539.90 2.631723
540.00 2.7095
540.10 2.893149
540.20 3.074934
540.30 3.009507
540.40 2.926776
540.50 2.849449
540.60 2.666484
540.70 2.587291
540.80 2.69624
540.90 2.57172
541.00 2.388183
541.10 2.236598
541.20 2.380951
541.30 2.539926
541.40 2.490893
541.50 2.524067
541.60 2.635682
541.70 2.862013
541.80 2.928667
541.90 2.818501
542.00 2.684426
542.10 2.872147
542.20 2.959797
542.30 2.99123
542.40 2.940676
542.50 2.972325
542.60 2.972984
542.70 2.856429
542.80 2.807449
542.90 2.863279
543.00 2.670787
543.10 2.458087
543.20 2.444849
543.30 2.481657
543.40 2.583276
543.50 2.636292
543.60 2.705097
543.70 2.831014
543.80 2.941075
543.90 3.061466
544.00 3.109166
544.10 3.195331
544.20 3.346596
544.30 3.459802
544.40 3.329749
544.50 3.266486
544.60 3.276065
544.70 3.07549
544.80 2.527157
544.90 2.045166
545.00 1.61601
545.10 1.097945
545.20 0.9379039
545.30 1.0187
545.40 1.020209
545.50 1.134644
545.60 1.128885
545.70 1.100422
545.80 1.201407
545.90 1.295619
546.00 1.349341
546.10 1.533167
546.20 1.640418
546.30 1.551039
546.40 1.578944
546.50 1.544075
546.60 1.565747
546.70 1.581609
546.80 1.773171
546.90 1.842691
547.00 1.731444
547.10 1.503853
547.20 1.403178
547.30 1.394735
547.40 1.486845
547.50 1.592366
547.60 1.64332
547.70 1.529045
547.80 1.572546
547.90 1.638205
548.00 1.626584
548.10 1.591301
548.20 1.644191
548.30 1.689643
548.40 1.649315
548.50 1.738062
548.60 1.807796
548.70 1.762548
548.80 1.65521
548.90 1.597071
549.00 1.609977
549.10 1.583139
549.20 1.750792
549.30 1.751455
549.40 1.765677
549.50 1.816457
549.60 1.689606
549.70 1.429359
549.80 1.442731
549.90 1.482121
550.00 1.249643
550.10 1.018736
550.20 0.9053694
550.30 0.9895707
550.40 0.9262246
550.50 0.9585701
550.60 1.039711
550.70 1.002049
550.80 0.9248658
550.90 0.9277692
551.00 0.8758819
551.10 0.8471964
551.20 0.7744036
551.30 0.683815
551.40 0.706031
551.50 0.8094371
551.60 0.8597489
551.70 0.883796
551.80 0.7978881
551.90 0.7317053
552.00 0.7897208
552.10 0.7145725
552.20 0.616223
552.30 0.667282
552.40 0.7216556
552.50 0.7206148
552.60 0.8316648
552.70 0.8135993
552.80 0.8370029
552.90 0.7786687
553.00 0.610333
553.10 0.6822115
553.20 0.8278439
553.30 0.8598544
553.40 0.6875201
553.50 0.6261711
553.60 0.5642866
553.70 0.6769528
553.80 0.6879271
553.90 0.6309229
554.00 0.637572
554.10 0.628351
554.20 0.6471189
554.30 0.60548
554.40 0.6451891
554.50 0.6444494
554.60 0.5956983
554.70 0.5736489
554.80 0.5776272
554.90 0.6579234
555.00 0.6802971
555.10 0.6888189
555.20 0.6962687
555.30 0.7596906
555.40 0.7762394
555.50 0.7179577
555.60 0.7448647
555.70 0.851645
555.80 0.8902023
555.90 0.8452564
556.00 0.9711198
556.10 1.161254
556.20 1.122681
556.30 1.08416
556.40 1.106695
556.50 1.274022
556.60 1.315177
556.70 1.315195
556.80 1.272242
556.90 1.270973
557.00 1.369847
557.10 1.501277
557.20 1.528509
557.30 1.522755
557.40 1.522328
557.50 1.522329
557.60 1.522329
557.70 1.522329
557.80 1.522329
557.90 1.522329
558.00 1.522329
558.10 1.522329
558.20 1.522028
558.30 1.520573
558.40 1.513067
558.50 1.630469
558.60 1.826388
558.70 1.893482
558.80 1.894906
558.90 1.821023
559.00 1.810675
559.10 1.790542
559.20 1.785552
559.30 1.897812
559.40 1.926469
559.50 1.856059
559.60 1.870649
559.70 1.749251
559.80 1.527796
559.90 1.296605
560.00 1.23152
560.10 1.244326
560.20 1.449528
560.30 1.526918
560.40 1.597924
560.50 1.619508
560.60 1.531461
560.70 1.491024
560.80 1.558251
560.90 1.606192
561.00 1.653342
561.10 1.797842
561.20 1.680973
561.30 1.542759
561.40 1.626679
561.50 1.722795
561.60 1.685659
561.70 1.624176
561.80 1.441895
561.90 1.355621
562.00 1.389314
562.10 1.387816
562.20 1.452308
562.30 1.531366
562.40 1.481624
562.50 1.397705
562.60 1.439738
562.70 1.501416
562.80 1.477166
562.90 1.417651
563.00 1.508068
563.10 1.455559
563.20 1.236266
563.30 1.207598
563.40 1.481076
563.50 1.7034
563.60 1.627798
563.70 1.399231
563.80 1.232042
563.90 1.372966
564.00 1.464797
564.10 1.372613
564.20 1.291096
564.30 1.369654
564.40 1.487923
564.50 1.515846
564.60 1.589513
564.70 1.5484
564.80 1.605959
564.90 1.689776
565.00 1.696611
565.10 1.657293
565.20 1.77179
565.30 1.896866
565.40 1.876889
565.50 1.855023
565.60 1.838482
565.70 1.949347
565.80 1.889275
565.90 1.959769
566.00 2.017754
566.10 1.913933
566.20 1.847531
566.30 1.860387
566.40 1.821145
566.50 1.620723
566.60 1.612002
566.70 1.719352
566.80 1.75669
566.90 1.570808
567.00 1.535876
567.10 1.527748
567.20 1.533038
567.30 1.617397
567.40 1.674413
567.50 1.68261
567.60 1.64373
567.70 1.710598
567.80 1.796717
567.90 1.856486
568.00 1.788746
568.10 1.660345
568.20 1.656329
568.30 1.853268
568.40 1.996232
568.50 1.95115
568.60 1.909905
568.70 1.992577
568.80 2.0198
568.90 1.980007
569.00 2.000133
569.10 1.827534
569.20 1.839046
569.30 1.892632
569.40 1.995459
569.50 1.993551
569.60 1.890181
569.70 1.863503
569.80 1.936703
569.90 2.098891
570.00 2.169936
570.10 2.234018
570.20 2.274812
570.30 2.125339
570.40 2.075952
570.50 2.202531
570.60 2.3944
570.70 2.394115
570.80 2.366272
570.90 2.433512
571.00 2.489591
571.10 2.484884
571.20 2.43647
571.30 2.346209
571.40 2.199215
571.50 2.051744
571.60 2.031287
571.70 2.144155
571.80 2.256589
571.90 2.085267
572.00 1.905348
572.10 1.889879
572.20 2.078948
572.30 2.148245
572.40 2.137389
572.50 2.121018
572.60 2.158508
572.70 2.211645
572.80 2.165759
572.90 2.118559
573.00 2.159868
573.10 2.251604
573.20 2.203127
573.30 2.331451
573.40 2.511548
573.50 2.474879
573.60 2.359039
573.70 2.233879
573.80 2.205291
573.90 2.065547
574.00 2.056951
574.10 2.126645
574.20 2.063013
574.30 2.032128
574.40 2.124117
574.50 2.18363
574.60 2.312205
574.70 2.385657
574.80 2.50381
574.90 2.34715
575.00 2.343556
575.10 2.488382
575.20 2.586048
575.30 2.510722
575.40 2.451896
575.50 2.649202
575.60 2.696509
575.70 2.626874
575.80 2.638623
575.90 2.58433
576.00 2.343613
576.10 2.016192
576.20 1.956402
576.30 1.942667
576.40 1.860795
576.50 1.843864
576.60 1.882173
576.70 1.800464
576.80 1.785879
576.90 1.769868
577.00 1.82687
577.10 1.895618
577.20 1.811919
577.30 1.831676
577.40 1.945031
577.50 2.078652
577.60 2.095451
577.70 2.045911
577.80 1.961093
577.90 1.935666
578.00 2.073459
578.10 2.235804
578.20 2.367376
578.30 2.350959
578.40 2.20744
578.50 2.308218
578.60 2.523948
578.70 2.551477
578.80 2.335091
578.90 2.365931
579.00 2.463121
579.10 2.560768
579.20 2.566997
579.30 2.419153
579.40 2.454378
579.50 2.664183
579.60 2.664827
579.70 2.672956
579.80 2.65562
579.90 2.634545
580.00 2.762265
580.10 2.876763
580.20 2.836517
580.30 2.75904
580.40 2.723786
580.50 2.873488
580.60 3.013362
580.70 3.042548
580.80 3.014938
580.90 2.966919
581.00 2.80106
581.10 2.581021
581.20 2.277178
581.30 2.054675
581.40 2.025913
581.50 2.008685
581.60 1.98168
581.70 1.974706
581.80 2.073579
581.90 2.078009
582.00 1.895276
582.10 1.83716
582.20 1.839371
582.30 1.917744
582.40 1.851771
582.50 1.778681
582.60 1.928238
582.70 2.076968
582.80 2.140871
582.90 2.062
583.00 2.069944
583.10 2.219991
583.20 2.290718
583.30 2.244514
583.40 2.290378
583.50 2.250692
583.60 2.074657
583.70 2.059557
583.80 2.127775
583.90 2.037365
584.00 1.843385
584.10 1.827246
584.20 2.018255
584.30 2.196147
584.40 2.222067
584.50 2.131126
584.60 2.032612
584.70 2.036541
584.80 1.837411
584.90 1.671643
585.00 1.605485
585.10 1.445366
585.20 1.265021
585.30 1.328887
585.40 1.49896
585.50 1.5599
585.60 1.62084
585.70 1.478628
585.80 1.403303
585.90 1.55339
586.00 1.6245
586.10 1.452032
586.20 1.237195
586.30 1.187576
586.40 1.219966
586.50 1.207123
586.60 1.280404
586.70 1.311693
586.80 1.250275
586.90 1.338285
587.00 1.437188
587.10 1.386175
587.20 1.227195
587.30 1.176324
587.40 1.262853
587.50 1.17369
587.60 1.221603
587.70 1.321624
587.80 1.350985
587.90 1.203434
588.00 1.064216
588.10 0.9220198
588.20 0.8785263
588.30 0.9472811
588.40 1.017391
588.50 0.9772966
588.60 0.7922518
588.70 0.7558029
588.80 0.8608354
588.90 1.028124
589.00 0.9259124
589.10 0.6799749
589.20 0.8869785
589.30 1.195548
589.40 1.162241
589.50 0.8097041
589.60 0.6917437
589.70 0.5979992
589.80 0.7248097
589.90 0.8574435
590.00 0.8709198
590.10 0.7354636
590.20 0.7836693
590.30 0.8482675
590.40 0.8425206
590.50 0.8647398
590.60 0.8838764
590.70 0.9323443
590.80 0.9997474
590.90 0.9697995
591.00 0.8272643
591.10 0.9080492
591.20 1.072381
591.30 1.047
591.40 0.9743537
591.50 0.9724343
591.60 1.056593
591.70 1.082662
591.80 1.086974
591.90 1.095959
592.00 1.068309
592.10 1.123477
592.20 1.095966
592.30 1.155903
592.40 1.16656
592.50 0.9887153
592.60 1.074561
592.70 1.2449
592.80 1.145469
592.90 1.051011
593.00 1.092737
593.10 1.182423
593.20 1.194291
593.30 1.193717
593.40 1.189485
593.50 1.18732
593.60 1.188186
593.70 1.130507
593.80 1.029094
593.90 1.157176
594.00 1.318138
594.10 1.296098
594.20 1.21023
594.30 1.29289
594.40 1.379828
594.50 1.468007
594.60 1.454194
594.70 1.440716
594.80 1.419119
594.90 1.493216
595.00 1.474185
595.10 1.265647
595.20 1.134891
595.30 1.152553
595.40 1.181176
595.50 1.095982
595.60 1.177901
595.70 1.34846
595.80 1.397495
595.90 1.26427
596.00 1.142211
596.10 1.158592
596.20 1.144784
596.30 1.03617
596.40 1.104443
596.50 1.324431
596.60 1.364004
596.70 1.322525
596.80 1.313889
596.90 1.21932
597.00 1.161123
597.10 1.147699
597.20 1.189029
597.30 1.14276
597.40 1.09465
597.50 1.226691
597.60 1.378339
597.70 1.411102
597.80 1.268498
597.90 1.192106
598.00 1.215859
598.10 1.273082
598.20 1.388806
598.30 1.413253
598.40 1.336544
598.50 1.271865
598.60 1.369979
598.70 1.44562
598.80 1.423803
598.90 1.395802
599.00 1.340326
599.10 1.387241
599.20 1.435418
599.30 1.455251
599.40 1.385302
599.50 1.42214
599.60 1.569521
599.70 1.618247
599.80 1.502585
599.90 1.52176
600.00 1.585683
600.10 1.581221
600.20 1.497735
600.30 1.549827
600.40 1.636031
600.50 1.57764
600.60 1.482606
600.70 1.420136
600.80 1.462043
600.90 1.416665
601.00 1.337766
601.10 1.34098
601.20 1.463291
601.30 1.613347
601.40 1.55679
601.50 1.406595
601.60 1.479137
601.70 1.614751
601.80 1.698067
601.90 1.676973
602.00 1.632483
602.10 1.563794
602.20 1.548895
602.30 1.574011
602.40 1.595385
602.50 1.680668
602.60 1.717686
602.70 1.674458
602.80 1.636489
602.90 1.666652
603.00 1.598501
603.10 1.507009
603.20 1.573676
603.30 1.664714
603.40 1.787472
603.50 1.872226
603.60 1.811773
603.70 1.692961
603.80 1.576948
603.90 1.60694
604.00 1.660069
604.10 1.681819
604.20 1.760574
604.30 1.879872
604.40 1.899678
604.50 1.880772
604.60 1.894441
604.70 1.884626
604.80 1.981684
604.90 2.088529
605.00 2.115799
605.10 2.03856
605.20 1.999946
605.30 1.981548
605.40 1.935297
605.50 1.922264
605.60 1.984776
605.70 2.055216
605.80 2.061354
605.90 1.953917
606.00 2.004648
606.10 2.03184
606.20 2.052499
606.30 2.049423
606.40 2.023852
606.50 1.999558
606.60 1.906618
606.70 1.912293
606.80 2.036823
606.90 2.215664
607.00 2.279109
607.10 2.214998
607.20 2.14033
607.30 2.077931
607.40 2.06573
607.50 2.072525
607.60 2.094048
607.70 2.167033
607.80 2.176947
607.90 2.183552
608.00 2.037322
608.10 1.905434
608.20 1.828978
608.30 1.813795
608.40 1.947283
608.50 2.02953
608.60 2.073292
608.70 2.058898
608.80 2.078989
608.90 2.061558
609.00 1.95729
609.10 2.013864
609.20 2.079492
609.30 2.088782
609.40 2.150537
609.50 2.163484
609.60 2.11612
609.70 2.108589
609.80 2.185248
609.90 2.167124
610.00 2.121748
610.10 2.194849
610.20 2.17091
610.30 1.989617
610.40 1.872264
610.50 1.945885
610.60 2.101256
610.70 2.159536
610.80 2.121
610.90 2.109449
611.00 2.015755
611.10 2.019816
611.20 2.073342
611.30 2.048238
611.40 2.02196
611.50 2.009819
611.60 1.965559
611.70 1.886479
611.80 1.823472
611.90 1.852876
612.00 1.969821
612.10 1.998087
612.20 1.919368
612.30 1.837187
612.40 1.85356
612.50 1.876035
612.60 1.794538
612.70 1.825775
612.80 1.883253
612.90 1.911711
613.00 1.992943
613.10 2.012427
613.20 1.899202
613.30 1.887167
613.40 1.922087
613.50 1.895822
613.60 1.851196
613.70 1.91169
613.80 1.994425
613.90 1.904064
614.00 1.840582
614.10 1.852128
614.20 1.760492
614.30 1.662337
614.40 1.771832
614.50 1.893562
614.60 1.950238
614.70 1.866851
614.80 1.752402
614.90 1.606189
615.00 1.541157
615.10 1.463154
615.20 1.34676
615.30 1.38521
615.40 1.481482
615.50 1.504569
615.60 1.497909
615.70 1.478559
615.80 1.475059
615.90 1.360689
616.00 1.268773
616.10 1.175004
616.20 1.079881
616.30 1.047942
616.40 1.08175
616.50 1.134396
616.60 1.07894
616.70 1.041543
616.80 1.064384
616.90 1.063695
617.00 1.047986
617.10 1.102776
617.20 1.11577
617.30 1.059747
617.40 0.9765746
617.50 0.9844548
617.60 1.044109
617.70 1.037803
617.80 0.9520214
617.90 1.014189
618.00 1.064336
618.10 0.9814106
618.20 0.9025613
618.30 0.9728533
618.40 1.192008
618.50 1.210683
618.60 1.090996
618.70 1.009278
618.80 0.8596213
618.90 0.7580909
619.00 0.7984016
619.10 0.8470094
619.20 0.8350843
619.30 0.8786804
619.40 0.8742588
619.50 0.9011032
619.60 0.9417816
619.70 1.051897
619.80 1.018399
619.90 0.9126634
620.00 0.8424634
620.10 0.8994456
620.20 1.052106
620.30 1.058676
620.40 0.9780492
620.50 0.9482593
620.60 0.9646563
620.70 0.9792191
620.80 1.027116
620.90 1.082733
621.00 1.068285
621.10 1.085015
621.20 1.08179
621.30 1.056963
621.40 1.012938
621.50 0.9785569
621.60 1.007441
621.70 0.9329901
621.80 0.842871
621.90 0.8679079
622.00 0.9157088
622.10 1.016956
622.20 1.057207
622.30 0.9778275
622.40 0.9389575
622.50 0.8958829
622.60 0.8486448
622.70 0.7530324
622.80 0.7544963
622.90 0.8814805
623.00 0.951683
623.10 0.9641549
623.20 0.9099267
623.30 0.8988933
623.40 0.9216606
623.50 0.9601674
623.60 0.9346731
623.70 0.9944459
623.80 0.9734521
623.90 0.8294116
624.00 0.9278731
624.10 1.067788
624.20 1.046763
624.30 0.8417028
624.40 0.7906986
624.50 0.9318766
624.60 0.953924
624.70 0.9503818
624.80 0.9397534
624.90 0.976205
625.00 0.9850325
625.10 0.954252
625.20 1.03108
625.30 1.089548
625.40 1.128772
625.50 1.160825
625.60 1.127492
625.70 1.13499
625.80 1.116984
625.90 1.161215
626.00 1.127264
626.10 1.066824
626.20 1.065394
626.30 1.069856
626.40 1.082953
626.50 1.180046
626.60 1.213845
626.70 1.17652
626.80 1.125439
626.90 1.128001
627.00 1.19507
627.10 1.22576
627.20 1.119701
627.30 1.144711
627.40 1.263586
627.50 1.361294
627.60 1.34579
627.70 1.342602
627.80 1.388551
627.90 1.313646
628.00 1.25041
628.10 1.255414
628.20 1.302768
628.30 1.292586
628.40 1.326776
628.50 1.415979
628.60 1.467387
628.70 1.372452
628.80 1.492426
628.90 1.624393
629.00 1.610772
629.10 1.539359
629.20 1.513276
629.30 1.636715
629.40 1.630697
629.50 1.573565
629.60 1.622596
629.70 1.899277
629.80 1.982295
629.90 1.826186
630.00 1.659383
630.10 1.48468
630.20 1.607468
630.30 1.745978
630.40 2.00511
630.50 2.153526
630.60 2.020308
630.70 2.030017
630.80 2.070956
630.90 2.116157
631.00 2.098138
631.10 2.133077
631.20 2.224858
631.30 2.238806
631.40 2.28632
631.50 2.283727
631.60 2.255196
631.70 2.361578
631.80 2.459683
631.90 2.445118
632.00 2.407217
632.10 2.532394
632.20 2.463086
632.30 2.274684
632.40 2.276296
632.50 2.370439
632.60 2.431785
632.70 2.391475
632.80 2.400095
632.90 2.480877
633.00 2.588454
633.10 2.55623
633.20 2.508708
633.30 2.509573
633.40 2.610015
633.50 2.719994
633.60 2.74878
633.70 2.772575
633.80 2.816696
633.90 2.896333
634.00 2.90877
634.10 3.000706
634.20 3.047268
634.30 3.018578
634.40 3.014326
634.50 3.053451
634.60 3.14346
634.70 3.212949
634.80 3.224308
634.90 3.247689
635.00 3.308962
635.10 3.308923
635.20 3.176464
635.30 3.018437
635.40 2.967187
635.50 2.95943
635.60 2.87631
635.70 2.771561
635.80 2.707331
635.90 2.614326
636.00 2.62211
636.10 2.79874
636.20 2.965944
636.30 2.843082
636.40 2.612491
636.50 2.644833
636.60 2.762962
636.70 2.723573
636.80 2.662212
636.90 2.648876
637.00 2.735482
637.10 2.861981
637.20 2.927035
637.30 2.944572
637.40 2.923272
637.50 2.847038
637.60 2.847112
637.70 2.88738
637.80 2.891132
637.90 2.867566
638.00 2.80301
638.10 2.723133
638.20 2.538848
638.30 2.455503
638.40 2.510767
638.50 2.588438
638.60 2.600005
638.70 2.566017
638.80 2.561375
638.90 2.513166
639.00 2.522901
639.10 2.554796
639.20 2.677917
639.30 2.817572
639.40 2.897658
639.50 2.949849
639.60 3.027879
639.70 3.174039
639.80 3.301754
639.90 3.264517
640.00 3.226304
640.10 3.244253
640.20 3.225891
640.30 3.267777
640.40 3.347419
640.50 3.507364
640.60 3.628916
640.70 3.593574
640.80 3.525916
640.90 3.445224
641.00 3.432506
641.10 3.432022
641.20 3.420226
641.30 3.478674
641.40 3.538742
641.50 3.506242
641.60 3.394148
641.70 3.279745
641.80 3.277167
641.90 3.270224
642.00 3.196899
642.10 3.146685
642.20 3.118425
642.30 3.049395
642.40 3.005374
642.50 2.966824
642.60 2.99775
642.70 3.062697
642.80 3.153846
642.90 3.238667
643.00 3.241649
643.10 3.307066
643.20 3.328111
643.30 3.309007
643.40 3.268156
643.50 3.238599
643.60 3.313817
643.70 3.368407
643.80 3.403389
643.90 3.417629
644.00 3.360083
644.10 3.331988
644.20 3.36633
644.30 3.531905
644.40 3.699899
644.50 3.774103
644.60 3.770915
644.70 3.697534
644.80 3.647427
644.90 3.52284
645.00 3.404814
645.10 3.441835
645.20 3.548237
645.30 3.626941
645.40 3.659492
645.50 3.716415
645.60 3.695669
645.70 3.652615
645.80 3.656762
645.90 3.729186
646.00 3.784441
646.10 3.775987
646.20 3.734887
646.30 3.714085
646.40 3.80132
646.50 3.849874
646.60 3.875792
646.70 3.898906
646.80 3.99926
646.90 4.138176
647.00 4.252684
647.10 4.183922
647.20 4.150381
647.30 4.320896
647.40 4.493106
647.50 4.501039
647.60 4.392099
647.70 4.364391
647.80 4.373438
647.90 4.286806
648.00 4.052331
648.10 3.84557
648.20 3.78939
648.30 3.808806
648.40 3.816746
648.50 3.773297
648.60 3.635987
648.70 3.629818
648.80 3.746295
648.90 3.896731
649.00 4.006872
649.10 4.028876
649.20 4.029068
649.30 4.03949
649.40 4.039613
649.50 4.100409
649.60 4.217538
649.70 4.302494
649.80 4.321437
649.90 4.334156
650.00 4.412496
650.10 4.452139
650.20 4.538286
650.30 4.726756
650.40 4.918345
650.50 4.972489
650.60 4.958933
650.70 5.023409
650.80 5.114488
650.90 5.193643
651.00 5.25899
651.10 5.373201
651.20 5.424601
651.30 5.323041
651.40 5.161784
651.50 5.063275
651.60 5.079399
651.70 5.207238
651.80 5.355653
651.90 5.519703
652.00 5.628273
652.10 5.685536
652.20 5.805213
652.30 5.913343
652.40 5.937371
652.50 5.856531
652.60 5.874618
652.70 6.119779
652.80 6.394519
652.90 6.515604
653.00 6.529183
653.10 6.592548
653.20 6.626007
653.30 6.586846
653.40 6.524213
653.50 6.575632
653.60 6.781762
653.70 6.966925
653.80 7.177586
653.90 7.340436
654.00 7.384381
654.10 7.401438
654.20 7.467714
654.30 7.462307
654.40 7.21298
654.50 6.866372
654.60 6.586607
654.70 6.414529
654.80 6.300273
654.90 6.193885
655.00 6.091123
655.10 5.919505
655.20 5.74836
655.30 5.625028
655.40 5.575627
655.50 5.549516
655.60 5.567312
655.70 5.707085
655.80 5.883369
655.90 6.025378
656.00 6.202103
656.10 6.849439
656.20 8.742334
656.30 11.36788
656.40 13.11676
656.50 12.70035
656.60 10.39578
656.70 7.620931
656.80 5.760108
656.90 5.002428
657.00 4.84705
657.10 4.80587
657.20 4.767387
657.30 4.692705
657.40 4.60235
657.50 4.55832
657.60 4.640421
657.70 4.790195
657.80 4.86786
657.90 4.705794
658.00 4.366701
658.10 4.162178
658.20 4.145784
658.30 4.281285
658.40 4.457477
658.50 4.617837
658.60 4.777371
658.70 4.916518
658.80 5.043699
658.90 5.0675
659.00 5.078355
659.10 5.116484
659.20 5.10816
659.30 5.036195
659.40 4.839848
659.50 4.593202
659.60 4.434017
659.70 4.445093
659.80 4.565827
659.90 4.572141
660.00 4.501401
660.10 4.503266
660.20 4.554618
660.30 4.607185
660.40 4.640324
660.50 4.625229
660.60 4.604502
660.70 4.556636
660.80 4.462002
660.90 4.44121
661.00 4.494936
661.10 4.548324
661.20 4.599049
661.30 4.702859
661.40 4.796244
661.50 4.836809
661.60 4.761017
661.70 4.645988
661.80 4.589525
661.90 4.518322
662.00 4.363951
662.10 4.194717
662.20 4.147262
662.30 4.135654
662.40 4.121397
662.50 4.037366
662.60 3.832013
662.70 3.630187
662.80 3.512498
662.90 3.552325
663.00 3.717523
663.10 3.922905
663.20 4.104473
663.30 4.187739
663.40 4.210653
663.50 4.143201
663.60 3.917705
663.70 3.618828
663.80 3.364301
663.90 3.327642
664.00 3.462539
664.10 3.603399
664.20 3.726318
664.30 3.789398
664.40 3.807029
664.50 3.859732
664.60 3.86098
664.70 3.861487
664.80 3.858912
664.90 3.816119
665.00 3.707697
665.10 3.449173
665.20 3.097634
665.30 2.800306
665.40 2.661777
665.50 2.741448
665.60 2.879857
665.70 2.924591
665.80 2.958107
665.90 2.962928
666.00 2.959323
666.10 2.945456
666.20 2.99917
666.30 3.129765
666.40 3.183767
666.50 3.244515
666.60 3.334801
666.70 3.425752
666.80 3.482555
666.90 3.524321
667.00 3.61661
667.10 3.649223
667.20 3.666407
667.30 3.611537
667.40 3.519081
667.50 3.505117
667.60 3.529822
667.70 3.591334
667.80 3.69922
667.90 3.734724
668.00 3.614064
668.10 3.349889
668.20 2.965906
668.30 2.626978
668.40 2.466949
668.50 2.479663
668.60 2.601793
668.70 2.659956
668.80 2.681226
668.90 2.799764
669.00 2.93779
669.10 2.917271
669.20 2.806578
669.30 2.731837
669.40 2.699798
669.50 2.739504
669.60 2.848436
669.70 2.97651
669.80 3.060871
669.90 3.043321
670.00 3.054832
670.10 3.081086
670.20 3.140884
670.30 3.182039
670.40 3.197402
670.50 3.229893
670.60 3.239255
670.70 3.274248
670.80 3.322698
670.90 3.360261
671.00 3.347941
671.10 3.346556
671.20 3.357047
671.30 3.292892
671.40 3.193052
671.50 3.059841
671.60 2.889951
671.70 2.69264
671.80 2.511091
671.90 2.417302
672.00 2.366366
672.10 2.387236
672.20 2.449574
672.30 2.502545
672.40 2.530163
672.50 2.533208
672.60 2.574684
672.70 2.635224
672.80 2.724252
672.90 2.815046
673.00 2.815439
673.10 2.77778
673.20 2.776617
673.30 2.844251
673.40 2.92999
673.50 2.923692
673.60 2.824899
673.70 2.75594
673.80 2.837478
673.90 3.003833
674.00 3.059365
674.10 3.040891
674.20 3.043934
674.30 3.129653
674.40 3.254937
674.50 3.311526
674.60 3.263548
674.70 3.136518
674.80 2.946919
674.90 2.775972
675.00 2.676073
675.10 2.644032
675.20 2.699202
675.30 2.771112
675.40 2.86824
675.50 2.956379
675.60 2.970031
675.70 2.988391
675.80 3.014864
675.90 2.965146
676.00 2.92145
676.10 2.933787
676.20 2.998487
676.30 3.114521
676.40 3.195038
676.50 3.282691
676.60 3.380765
676.70 3.419031
676.80 3.433703
676.90 3.459896
677.00 3.486788
677.10 3.516923
677.20 3.553465
677.30 3.582719
677.40 3.575122
677.50 3.596993
677.60 3.713638
677.70 3.815003
677.80 3.781002
677.90 3.771112
678.00 3.789599
678.10 3.736114
678.20 3.493463
678.30 3.119817
678.40 2.867205
678.50 2.782345
678.60 2.783927
678.70 2.781567
678.80 2.784135
678.90 2.813606
679.00 2.892731
679.10 2.98494
679.20 2.994217
679.30 2.965165
679.40 2.948502
679.50 2.992478
679.60 3.06387
679.70 3.107973
679.80 3.143465
679.90 3.176356
680.00 3.222431
680.10 3.220354
680.20 3.200995
680.30 3.267496
680.40 3.331879
680.50 3.349015
680.60 3.324327
680.70 3.29829
680.80 3.270087
680.90 3.288125
681.00 3.442335
681.10 3.543015
681.20 3.556672
681.30 3.568539
681.40 3.554724
681.50 3.497528
681.60 3.374598
681.70 3.265261
681.80 3.265879
681.90 3.299879
682.00 3.360907
682.10 3.377338
682.20 3.327623
682.30 3.350066
682.40 3.356369
682.50 3.33984
682.60 3.379248
682.70 3.475148
682.80 3.571737
682.90 3.603017
683.00 3.597294
683.10 3.56275
683.20 3.517589
683.30 3.522045
683.40 3.561834
683.50 3.648812
683.60 3.733854
683.70 3.693654
683.80 3.608928
683.90 3.602794
684.00 3.654141
684.10 3.698082
684.20 3.784352
684.30 3.835796
684.40 3.850147
684.50 3.892342
684.60 3.853945
684.70 3.805589
684.80 3.777686
684.90 3.750766
685.00 3.679126
685.10 3.576018
685.20 3.422773
685.30 3.259892
685.40 3.203379
685.50 3.226799
685.60 3.345817
685.70 3.410829
685.80 3.423636
685.90 3.448176
686.00 3.405644
686.10 3.422817
686.20 3.511027
686.30 3.564084
686.40 3.651325
686.50 3.685319
686.60 3.698887
686.70 3.753877
686.80 3.644955
686.90 3.539731
687.00 3.441796
687.10 3.422705
687.20 3.542589
687.30 3.693328
687.40 3.855575
687.50 4.020221
687.60 4.105094
687.70 4.090434
687.80 4.09674
687.90 4.073439
688.00 3.983973
688.10 3.959122
688.20 4.027431
688.30 4.039202
688.40 3.986292
688.50 3.899108
688.60 3.79674
688.70 3.776579
688.80 3.853193
688.90 3.970835
689.00 4.015058
689.10 3.967346
689.20 3.9128
689.30 3.975678
689.40 4.090653
689.50 4.133836
689.60 4.183079
689.70 4.251542
689.80 4.22324
689.90 4.192274
690.00 4.155143
690.10 4.041899
690.20 3.831702
690.30 3.679911
690.40 3.787955
690.50 4.000439
690.60 4.167533
690.70 4.379631
690.80 4.631789
690.90 4.791318
691.00 4.787746
691.10 4.721742
691.20 4.665662
691.30 4.737328
691.40 4.779719
691.50 4.806756
691.60 4.865135
691.70 4.774546
691.80 4.548351
691.90 4.162925
692.00 3.814868
692.10 3.764514
692.20 4.010515
692.30 4.412192
692.40 4.734704
692.50 4.864307
692.60 4.910031
692.70 5.010001
692.80 5.076486
692.90 5.061537
693.00 5.044929
693.10 5.107413
693.20 5.309734
693.30 5.537135
693.40 5.680623
693.50 5.71816
693.60 5.678532
693.70 5.653264
693.80 5.635106
693.90 5.608873
694.00 5.628871
694.10 5.721724
694.20 5.92572
694.30 6.200203
694.40 6.453474
694.50 6.709979
694.60 6.921947
694.70 7.094137
694.80 7.207044
694.90 7.236863
695.00 7.287761
695.10 7.259703
695.20 7.119965
695.30 6.913596
695.40 6.626378
695.50 6.417056
695.60 6.39197
695.70 6.491543
695.80 6.495437
695.90 6.419778
696.00 6.419619
696.10 6.474066
696.20 6.58834
696.30 6.680276
696.40 6.765946
696.50 6.910976
696.60 7.019887
696.70 7.088175
696.80 7.158838
696.90 7.188326
697.00 7.130467
697.10 7.0108
697.20 6.852786
697.30 6.72015
697.40 6.74367
697.50 6.896103
697.60 7.137686
697.70 7.44161
697.80 7.680972
697.90 7.817545
698.00 7.772462
698.10 7.651789
698.20 7.618431
698.30 7.707926
698.40 7.814743
698.50 7.871085
698.60 7.899708
698.70 7.930453
698.80 7.922716
698.90 7.844973
699.00 7.701712
699.10 7.609051
699.20 7.54851
699.30 7.488647
699.40 7.538927
699.50 7.608979
699.60 7.737176
699.70 7.86377
699.80 7.864108
699.90 7.781202
700.00 7.680218
700.10 7.745959
700.20 7.95226
700.30 8.100412
700.40 8.086916
700.50 7.930383
700.60 7.799741
700.70 7.903423
700.80 8.164738
700.90 8.407729
701.00 8.550836
701.10 8.54928
701.20 8.558568
701.30 8.643272
701.40 8.770612
701.50 8.969193
701.60 9.119956
701.70 9.117734
701.80 9.066169
701.90 9.082244
702.00 9.254911
702.10 9.504426
702.20 9.606052
702.30 9.501716
702.40 9.23478
702.50 8.884902
702.60 8.743571
702.70 8.860904
702.80 9.316173
702.90 10.00797
703.00 10.5649
703.10 10.81132
703.20 10.74672
703.30 10.58295
703.40 10.57197
703.50 10.82589
703.60 11.31263
703.70 11.76352
703.80 11.96633
703.90 11.95774
704.00 11.85794
704.10 11.94488
704.20 12.15647
704.30 12.38461
704.40 12.59085
704.50 12.71442
704.60 12.80129
704.70 12.86255
704.80 12.90452
704.90 12.90218
705.00 12.89606
705.10 12.9653
705.20 12.96693
705.30 12.62772
705.40 11.55386
705.50 9.61329
705.60 7.31761
705.70 5.505609
705.80 4.613081
705.90 4.543731
706.00 4.667871
706.10 4.498708
706.20 4.248069
706.30 4.135773
706.40 4.213643
706.50 4.384157
706.60 4.58136
706.70 4.811252
706.80 4.983013
706.90 5.054533
707.00 5.174372
707.10 5.335433
707.20 5.479003
707.30 5.608045
707.40 5.696819
707.50 5.722214
707.60 5.671893
707.70 5.626642
707.80 5.709656
707.90 5.882654
708.00 5.950545
708.10 5.904328
708.20 5.991464
708.30 6.185379
708.40 6.345841
708.50 6.441753
708.60 6.405416
708.70 6.094456
708.80 5.452036
708.90 4.63496
709.00 3.824203
709.10 3.307914
709.20 3.217638
709.30 3.322782
709.40 3.409554
709.50 3.395149
709.60 3.348798
709.70 3.350899
709.80 3.422568
709.90 3.556928
710.00 3.640827
710.10 3.675173
710.20 3.727958
710.30 3.759301
710.40 3.793844
710.50 3.842148
710.60 3.929227
710.70 4.073424
710.80 4.2726
710.90 4.513834
711.00 4.737129
711.10 4.93296
711.20 5.051428
711.30 5.06129
711.40 5.023629
711.50 4.994044
711.60 4.958656
711.70 4.905644
711.80 4.965667
711.90 5.137234
712.00 5.369158
712.10 5.596278
712.20 5.709526
712.30 5.757007
712.40 5.688623
712.50 5.321406
712.60 4.58126
712.70 3.677472
712.80 2.968226
712.90 2.662938
713.00 2.667769
713.10 2.795916
713.20 2.86935
713.30 2.81211
713.40 2.742815
713.50 2.747012
713.60 2.854559
713.70 2.988256
713.80 3.006347
713.90 2.967743
714.00 2.974076
714.10 3.048239
714.20 3.174293
714.30 3.323598
714.40 3.423538
714.50 3.451573
714.60 3.440914
714.70 3.463743
714.80 3.570611
714.90 3.630676
715.00 3.607753
715.10 3.617762
715.20 3.698535
715.30 3.773198
715.40 3.860673
715.50 4.012101
715.60 4.214424
715.70 4.327353
715.80 4.249602
715.90 4.054771
716.00 3.872806
716.10 3.741428
716.20 3.654762
716.30 3.639614
716.40 3.682459
716.50 3.744092
716.60 3.791959
716.70 3.834889
716.80 3.878478
716.90 3.887182
717.00 3.930907
717.10 4.056403
717.20 4.189713
717.30 4.290056
717.40 4.316704
717.50 4.280567
717.60 4.265086
717.70 4.30715
717.80 4.401534
717.90 4.472028
718.00 4.562219
718.10 4.728727
718.20 4.836447
718.30 4.883571
718.40 4.959586
718.50 5.091042
718.60 5.249103
718.70 5.34071
718.80 5.405679
718.90 5.496447
719.00 5.562851
719.10 5.617166
719.20 5.610293
719.30 5.577091
719.40 5.619824
719.50 5.667924
719.60 5.610116
719.70 5.360827
719.80 5.01284
719.90 4.703829
720.00 4.518593
720.10 4.450872
720.20 4.505822
720.30 4.61472
720.40 4.617664
720.50 4.578424
720.60 4.582143
720.70 4.627615
720.80 4.695309
720.90 4.751781
721.00 4.801051
721.10 4.922454
721.20 5.046252
721.30 5.125538
721.40 5.204802
721.50 5.252927
721.60 5.316091
721.70 5.398372
721.80 5.464688
721.90 5.524026
722.00 5.544575
722.10 5.579808
722.20 5.694333
722.30 5.823373
722.40 5.954331
722.50 6.112678
722.60 6.245204
722.70 6.378407
722.80 6.538101
722.90 6.629546
723.00 6.576854
723.10 6.383205
723.20 6.188361
723.30 6.112484
723.40 6.160765
723.50 6.381129
723.60 6.657825
723.70 6.849746
723.80 6.994339
723.90 7.053346
724.00 7.069556
724.10 7.151728
724.20 7.109777
724.30 7.106615
724.40 7.18457
724.50 7.342359
724.60 7.645056
724.70 7.83438
724.80 7.954444
724.90 8.06777
725.00 8.219765
725.10 8.506193
725.20 8.642625
725.30 8.52618
725.40 8.397078
725.50 8.451293
725.60 8.674058
725.70 8.895079
725.80 9.008733
725.90 9.000813
726.00 8.91228
726.10 8.926373
726.20 9.154391
726.30 9.49794
726.40 9.797364
726.50 9.941777
726.60 9.984282
726.70 10.02292
726.80 10.08016
726.90 10.09197
727.00 9.947855
727.10 9.579354
727.20 9.049387
727.30 8.676959
727.40 8.741385
727.50 9.28329
727.60 9.907177
727.70 10.2547
727.80 10.29905
727.90 9.972317
728.00 9.745419
728.10 9.820169
728.20 9.897128
728.30 9.991856
728.40 10.11473
728.50 10.27369
728.60 10.54759
728.70 10.71879
728.80 10.7835
728.90 10.96007
729.00 11.10995
729.10 11.17177
729.20 11.20362
729.30 11.26376
729.40 11.39892
729.50 11.57693
729.60 11.82856
729.70 12.15291
729.80 12.36759
729.90 12.34069
730.00 12.17611
730.10 12.1927
730.20 12.49945
730.30 12.84111
730.40 13.08728
730.50 13.19298
730.60 13.15881
730.70 13.24722
730.80 13.5157
730.90 13.7677
731.00 13.91151
731.10 13.91604
731.20 13.82429
731.30 13.82328
731.40 13.98352
731.50 14.24489
731.60 14.5095
731.70 14.65053
731.80 14.67204
731.90 14.73338
732.00 15.00623
732.10 15.22672
732.20 15.25653
732.30 15.31631
732.40 15.40507
732.50 15.3913
732.60 15.23565
732.70 15.01252
732.80 14.96383
732.90 15.23365
733.00 15.58422
733.10 15.82464
733.20 15.92412
733.30 15.88083
733.40 15.88144
733.50 16.0585
733.60 16.38511
733.70 16.7631
733.80 17.08775
733.90 17.38079
734.00 17.48971
734.10 17.58601
734.20 17.72484
734.30 17.46653
734.40 17.02346
734.50 16.47281
734.60 15.9502
734.70 15.8711
734.80 16.06156
734.90 16.40303
735.00 16.78038
735.10 17.04593
735.20 17.23154
735.30 17.33947
735.40 17.35876
735.50 17.18529
735.60 16.8158
735.70 16.48707
735.80 16.4912
735.90 16.86482
736.00 17.29512
736.10 17.55333
736.20 17.65847
736.30 17.76296
736.40 17.99942
736.50 18.30797
736.60 18.54107
736.70 18.67995
736.80 18.88218
736.90 19.07787
737.00 19.25675
737.10 19.46116
737.20 19.47159
737.30 19.26237
737.40 18.88919
737.50 18.45016
737.60 18.23315
737.70 18.27769
737.80 18.49356
737.90 18.80079
738.00 19.01325
738.10 19.0894
738.20 19.06246
738.30 19.06085
738.40 19.12558
738.50 19.19472
738.60 19.31094
738.70 19.42805
738.80 19.57279
738.90 19.87655
739.00 20.21594
739.10 20.42829
739.20 20.33001
739.30 19.8737
739.40 19.27271
739.50 18.7977
739.60 18.60328
739.70 18.67552
739.80 18.95233
739.90 19.29406
740.00 19.53005
740.10 19.72921
740.20 19.96172
740.30 20.12426
740.40 20.06441
740.50 19.6186
740.60 18.92999
740.70 18.48308
740.80 18.37971
740.90 18.51565
741.00 18.94282
741.10 19.4826
741.20 19.81316
741.30 19.85301
741.40 19.84607
741.50 20.0139
741.60 20.19775
741.70 20.03314
741.80 19.41276
741.90 18.73236
742.00 18.35796
742.10 18.39119
742.20 18.7214
742.30 19.07276
742.40 19.32461
742.50 19.57795
742.60 19.81148
742.70 19.96657
742.80 20.01925
742.90 20.03415
743.00 20.10152
743.10 20.19853
743.20 20.28711
743.30 20.34939
743.40 20.27909
743.50 19.80332
743.60 19.06945
743.70 18.62462
743.80 18.76962
743.90 19.46476
744.00 20.21497
744.10 20.37706
744.20 20.04513
744.30 19.67088
744.40 19.36278
744.50 19.1477
744.60 19.02502
744.70 18.95797
744.80 18.9188
744.90 18.90248
745.00 18.9569
745.10 19.13853
745.20 19.4726
745.30 19.78884
745.40 19.86753
745.50 19.69309
745.60 19.46555
745.70 19.33589
745.80 19.32001
745.90 19.35058
746.00 19.37449
746.10 19.46309
746.20 19.62633
746.30 19.83114
746.40 20.0421
746.50 20.12329
746.60 20.1235
746.70 20.104
746.80 20.02193
746.90 20.02001
747.00 20.27804
747.10 20.71908
747.20 21.02717
747.30 20.90216
747.40 20.2671
747.50 19.63693
747.60 19.52071
747.70 19.86687
747.80 20.33947
747.90 20.60983
748.00 20.59413
748.10 20.4063
748.20 20.30693
748.30 20.45877
748.40 20.83471
748.50 21.16499
748.60 21.16683
748.70 20.90011
748.80 20.59719
748.90 20.5127
749.00 20.6549
749.10 20.8827
749.20 21.03637
749.30 20.93024
749.40 20.57091
749.50 20.16953
749.60 20.00692
749.70 20.19104
749.80 20.64999
749.90 21.24027
750.00 21.785
750.10 22.11161
750.20 22.17525
750.30 22.09968
750.40 22.03795
750.50 21.93502
750.60 21.65182
750.70 21.29422
750.80 21.11946
750.90 21.37182
751.00 22.02654
751.10 22.63494
751.20 22.87051
751.30 22.692
751.40 22.27657
751.50 22.02772
751.60 22.08976
751.70 22.41036
751.80 22.6461
751.90 22.45793
752.00 22.08769
752.10 21.87911
752.20 21.90418
752.30 22.14501
752.40 22.44911
752.50 22.55852
752.60 22.47735
752.70 22.09169
752.80 21.39871
752.90 21.00382
753.00 21.18862
753.10 21.89066
753.20 22.70564
753.30 23.08061
753.40 22.9781
753.50 22.67971
753.60 22.43489
753.70 22.50866
753.80 22.9941
753.90 23.65574
754.00 24.27778
754.10 24.63553
754.20 24.6425
754.30 24.53304
754.40 24.5056
754.50 24.59874
754.60 24.68805
754.70 24.59095
754.80 24.28697
754.90 23.98089
755.00 23.86514
755.10 23.99294
755.20 24.33188
755.30 24.57033
755.40 24.54038
755.50 24.36588
755.60 24.24123
755.70 24.31693
755.80 24.46149
755.90 24.62943
756.00 24.84613
756.10 24.97896
756.20 24.97953
756.30 24.83571
756.40 24.5775
756.50 24.28557
756.60 23.98208
756.70 23.61912
756.80 23.18638
756.90 22.813
757.00 22.79514
757.10 23.33117
757.20 24.27697
757.30 25.19235
757.40 25.59042
757.50 25.57474
757.60 25.43664
757.70 25.09757
757.80 24.56496
757.90 24.1874
758.00 24.24926
758.10 24.85183
758.20 25.7559
758.30 26.51933
758.40 26.9011
758.50 26.82406
758.60 26.40955
758.70 25.756
758.80 24.47613
758.90 22.18197
759.00 19.14263
759.10 16.24677
759.20 14.32164
759.30 13.6867
759.40 14.06433
759.50 14.83207
759.60 15.42496
759.70 15.53621
759.80 15.52907
759.90 15.83527
760.00 16.28265
760.10 16.39614
760.20 16.01298
760.30 15.55207
760.40 15.58491
760.50 15.98431
760.60 16.30745
760.70 16.44804
760.80 16.46972
760.90 16.41594
761.00 16.38866
761.10 16.48479
761.20 16.80455
761.30 17.46186
761.40 18.29129
761.50 18.88729
761.60 19.00603
761.70 18.93704
761.80 19.08562
761.90 19.43165
762.00 19.83172
762.10 19.91464
762.20 19.52218
762.30 19.158
762.40 19.028
762.50 18.98092
762.60 18.67999
762.70 17.66761
762.80 16.0672
762.90 14.34907
763.00 12.8543
763.10 11.85308
763.20 11.53564
763.30 11.75477
763.40 12.30236
763.50 12.77324
763.60 12.80779
763.70 12.67194
763.80 12.63325
763.90 12.73809
764.00 12.82717
764.10 12.56945
764.20 12.3
764.30 12.46604
764.40 12.71132
764.50 12.72547
764.60 12.43409
764.70 12.10266
764.80 12.25385
764.90 12.48239
765.00 12.30739
765.10 11.97581
765.20 11.66707
765.30 11.59551
765.40 11.60978
765.50 11.17885
765.60 10.53518
765.70 10.16743
765.80 10.05577
765.90 9.883304
766.00 9.255365
766.10 8.275822
766.20 7.245916
766.30 6.250918
766.40 5.385727
766.50 4.602455
766.60 3.951784
766.70 3.718878
766.80 3.897841
766.90 4.403457
767.00 5.132955
767.10 5.782518
767.20 6.186598
767.30 6.328655
767.40 6.434243
767.50 6.680207
767.60 7.072867
767.70 7.531853
767.80 7.85076
767.90 8.042523
768.00 8.23596
768.10 8.4394
768.20 8.618082
768.30 8.75998
768.40 8.918253
768.50 9.06076
768.60 9.138339
768.70 9.195063
768.80 9.288835
768.90 9.367959
769.00 9.33397
769.10 9.249931
769.20 9.16681
769.30 9.008883
769.40 8.698925
769.50 8.23321
769.60 7.685507
769.70 6.960051
769.80 5.997542
769.90 5.003312
770.00 4.268511
770.10 4.057653
770.20 4.406384
770.30 5.141404
770.40 6.051082
770.50 6.875993
770.60 7.443916
770.70 7.788937
770.80 7.975338
770.90 8.218225
771.00 8.687027
771.10 9.119131
771.20 9.436141
771.30 9.764871
771.40 10.04078
771.50 10.23965
771.60 10.31448
771.70 10.35321
771.80 10.49697
771.90 10.53153
772.00 10.59609
772.10 10.92433
772.20 11.32439
772.30 11.58416
772.40 11.60549
772.50 11.69116
772.60 11.97869
772.70 12.32896
772.80 12.68647
772.90 12.97833
773.00 13.13623
773.10 13.17011
773.20 13.1879
773.30 13.25421
773.40 13.42885
773.50 13.68649
773.60 13.84905
773.70 13.93319
773.80 14.08132
773.90 14.28471
774.00 14.48773
774.10 14.59555
774.20 14.5158
774.30 14.16332
774.40 13.53168
774.50 12.8584
774.60 12.34471
774.70 12.00744
774.80 11.77746
774.90 11.57768
775.00 11.30336
775.10 10.9152
775.20 10.50146
775.30 10.10727
775.40 10.06937
775.50 10.4752
775.60 10.88981
775.70 11.12835
775.80 11.14484
775.90 11.10188
776.00 11.17158
776.10 11.34665
776.20 11.56392
776.30 11.58542
776.40 11.39408
776.50 11.26019
776.60 11.32627
776.70 11.59853
776.80 12.04985
776.90 12.47877
777.00 12.6535
777.10 12.65971
777.20 12.69329
777.30 12.8325
777.40 13.0588
777.50 13.20729
777.60 13.22566
777.70 13.24505
777.80 13.24768
777.90 13.22904
778.00 13.25302
778.10 13.23237
778.20 13.08121
778.30 12.76478
778.40 12.30448
778.50 11.87286
778.60 11.61373
778.70 11.58283
778.80 11.71055
778.90 11.87025
779.00 12.09167
779.10 12.32203
779.20 12.44178
779.30 12.51821
779.40 12.75456
779.50 13.14625
779.60 13.43183
779.70 13.49949
779.80 13.28343
779.90 12.76791
780.00 12.13006
780.10 11.58551
780.20 11.47246
780.30 11.95913
780.40 12.92362
780.50 14.10446
780.60 15.13028
780.70 15.74703
780.80 15.97842
780.90 15.96369
781.00 15.79121
781.10 15.56609
781.20 15.34998
781.30 15.40869
781.40 15.86395
781.50 16.34428
781.60 16.64917
781.70 16.80015
781.80 16.8577
781.90 16.82681
782.00 16.62774
782.10 16.30721
782.20 15.6589
782.30 14.78372
782.40 14.40071
782.50 14.553
782.60 14.94911
782.70 15.17215
782.80 14.76691
782.90 14.05951
783.00 13.32572
783.10 12.72972
783.20 12.55682
783.30 12.80246
783.40 13.27269
783.50 13.7399
783.60 14.04856
783.70 14.19959
783.80 14.27173
783.90 14.33827
784.00 14.4201
784.10 14.4843
784.20 14.50463
784.30 14.50679
784.40 14.61244
784.50 14.89291
784.60 15.32992
784.70 15.75562
784.80 15.91642
784.90 15.78136
785.00 15.56719
785.10 15.43084
785.20 15.40005
785.30 15.60246
785.40 15.84751
785.50 15.8427
785.60 15.84665
785.70 15.89261
785.80 15.96914
785.90 16.24988
786.00 16.35979
786.10 16.13719
786.20 15.85641
786.30 15.55125
786.40 15.22776
786.50 15.10984
786.60 15.18852
786.70 15.23947
786.80 15.32479
786.90 15.4342
787.00 15.50599
787.10 15.55064
787.20 15.45021
787.30 15.17218
787.40 14.94637
787.50 15.01723
787.60 15.39079
787.70 15.93796
787.80 16.49047
787.90 16.96767
788.00 17.21213
788.10 17.20795
788.20 17.18861
788.30 17.24968
788.40 17.51164
788.50 17.8176
788.60 17.9127
788.70 17.87626
788.80 17.81986
788.90 17.93107
789.00 18.22862
789.10 18.4473
789.20 18.50431
789.30 18.48356
789.40 18.52122
789.50 18.67447
789.60 18.67019
789.70 18.35883
789.80 17.9325
789.90 17.48179
790.00 16.99677
790.10 16.59042
790.20 16.44098
790.30 16.62433
790.40 17.11843
790.50 17.66358
790.60 18.00301
790.70 18.02546
790.80 17.60011
790.90 16.72581
791.00 15.74933
791.10 15.07122
791.20 14.74012
791.30 14.89933
791.40 15.54155
791.50 16.21978
791.60 16.62305
791.70 16.60326
791.80 16.30108
791.90 15.99942
792.00 15.73972
792.10 15.68779
792.20 15.98133
792.30 16.34539
792.40 16.5118
792.50 16.54145
792.60 16.63192
792.70 16.75077
792.80 16.8064
792.90 16.86916
793.00 17.01581
793.10 17.3495
793.20 17.8571
793.30 18.3699
793.40 18.77538
793.50 18.99601
793.60 19.04547
793.70 19.03361
793.80 18.99952
793.90 18.87179
794.00 18.4505
794.10 17.70828
794.20 16.9876
794.30 16.65505
794.40 16.88569
794.50 17.40857
794.60 17.64754
794.70 17.27368
794.80 16.44321
794.90 15.65151
795.00 15.45462
795.10 16.06583
795.20 17.11875
795.30 18.2301
795.40 19.09411
795.50 19.48261
795.60 19.59536
795.70 19.64999
795.80 19.7492
795.90 19.80279
796.00 19.54046
796.10 19.03037
796.20 18.5009
796.30 18.14284
796.40 18.25051
796.50 18.81344
796.60 19.45017
796.70 19.93047
796.80 20.15499
796.90 20.20348
797.00 20.38053
797.10 20.7261
797.20 21.08975
797.30 21.29638
797.40 21.16618
797.50 20.73623
797.60 20.20191
797.70 19.81216
797.80 19.65001
797.90 19.64637
798.00 19.71446
798.10 19.76321
798.20 19.71403
798.30 19.5463
798.40 19.32432
798.50 19.13363
798.60 18.98384
798.70 18.81413
798.80 18.58663
798.90 18.42462
799.00 18.56663
799.10 19.03963
799.20 19.59535
799.30 20.06739
799.40 20.38475
799.50 20.32745
799.60 19.98236
799.70 19.79132
799.80 19.74627
799.90 19.76179
800.00 19.96081
800.10 20.22286
800.20 20.46257
800.30 20.69528
800.40 20.8835
800.50 21.03629
800.60 21.1578
800.70 21.27593
800.80 21.45299
800.90 21.68013
801.00 21.86695
801.10 21.94825
801.20 22.0111
801.30 22.15772
801.40 22.38027
801.50 22.6179
801.60 22.79299
801.70 22.95588
801.80 23.13304
801.90 23.27181
802.00 23.42346
802.10 23.48506
802.20 23.36054
802.30 23.19063
802.40 23.16761
802.50 23.43451
802.60 23.87335
802.70 24.26934
802.80 24.51709
802.90 24.56762
803.00 24.62159
803.10 24.8143
803.20 25.01683
803.30 25.16043
803.40 25.20158
803.50 25.19507
803.60 25.19761
803.70 25.17243
803.80 25.17619
803.90 25.17865
804.00 25.10791
804.10 25.06838
804.20 25.17248
804.30 25.39774
804.40 25.71316
804.50 26.0728
804.60 26.27878
804.70 26.21009
804.80 25.97799
804.90 25.73347
805.00 25.83787
805.10 26.48836
805.20 27.34197
805.30 28.14131
805.40 28.7372
805.50 28.95808
805.60 28.93686
805.70 28.8563
805.80 28.7499
805.90 28.72436
806.00 28.88502
806.10 29.15353
806.20 29.40894
806.30 29.50634
806.40 29.33073
806.50 29.0317
806.60 28.79289
806.70 28.79844
806.80 29.09122
806.90 29.25932
807.00 29.15029
807.10 28.97187
807.20 28.8763
807.30 29.11091
807.40 29.72132
807.50 30.35545
807.60 30.67711
807.70 30.7576
807.80 30.82608
807.90 30.9809
808.00 31.1807
808.10 31.33415
808.20 31.4964
808.30 31.71337
808.40 31.93817
808.50 32.18129
808.60 32.43103
808.70 32.52967
808.80 32.38533
808.90 32.15767
809.00 32.01392
809.10 32.07527
809.20 32.35579
809.30 32.68891
809.40 32.92409
809.50 32.948
809.60 32.74836
809.70 32.45928
809.80 32.2387
809.90 32.18318
810.00 32.25168
810.10 32.33713
810.20 32.4341
810.30 32.52213
810.40 32.50325
810.50 32.38395
810.60 32.34657
810.70 32.54522
810.80 33.00025
810.90 33.58641
811.00 34.01728
811.10 34.13521
811.20 34.08194
811.30 34.12715
811.40 34.41417
811.50 34.64077
811.60 34.42399
811.70 33.84796
811.80 33.2914
811.90 33.24278
812.00 33.88433
812.10 34.82207
812.20 35.55558
812.30 35.81926
812.40 35.7135
812.50 35.56863
812.60 35.62543
812.70 35.93773
812.80 36.3314
812.90 36.57515
813.00 36.61345
813.10 36.50489
813.20 36.33793
813.30 36.28163
813.40 36.39257
813.50 36.5425
813.60 36.69156
813.70 36.84598
813.80 37.06826
813.90 37.52179
814.00 38.02986
814.10 38.08523
814.20 37.54074
814.30 36.74683
814.40 36.05845
814.50 35.69982
814.60 35.74858
814.70 35.99153
814.80 36.1717
814.90 36.16556
815.00 35.91207
815.10 35.70388
815.20 35.95105
815.30 36.46788
815.40 36.82364
815.50 36.82746
815.60 36.56963
815.70 36.36605
815.80 36.36227
815.90 36.433
816.00 36.36227
816.10 36.09221
816.20 35.81477
816.30 35.7486
816.40 36.03705
816.50 36.58065
816.60 37.12397
816.70 37.51426
816.80 37.74295
816.90 37.95324
817.00 38.08545
817.10 38.00189
817.20 37.85649
817.30 37.73526
817.40 37.60965
817.50 37.47502
817.60 37.29072
817.70 36.93844
817.80 36.31994
817.90 35.52655
818.00 34.53544
818.10 32.94222
818.20 30.42598
818.30 26.86685
818.40 23.02479
818.50 20.77764
818.60 21.1834
818.70 23.82255
818.80 27.33852
818.90 30.11439
819.00 31.51474
819.10 31.79786
819.20 31.11805
819.30 29.3396
819.40 26.34516
819.50 22.50034
819.60 19.26306
819.70 18.08934
819.80 19.27746
819.90 21.97878
820.00 24.83118
820.10 27.1963
820.20 29.07166
820.30 30.61029
820.40 31.89311
820.50 32.58016
820.60 32.38682
820.70 31.60663
820.80 30.81733
820.90 30.50488
821.00 30.89317
821.10 31.72944
821.20 32.5679
821.30 33.09404
821.40 33.18928
821.50 32.96493
821.60 32.73299
821.70 32.71951
821.80 32.8765
821.90 33.12118
822.00 33.41062
822.10 33.75298
822.20 34.15496
822.30 34.46975
822.40 34.70014
822.50 35.02367
822.60 35.40011
822.70 35.6783
822.80 35.80945
822.90 35.86042
823.00 36.12349
823.10 36.74197
823.20 37.29509
823.30 37.28876
823.40 36.66048
823.50 35.84323
823.60 35.45122
823.70 35.66433
823.80 36.29499
823.90 37.09636
824.00 37.83321
824.10 38.36399
824.20 38.57982
824.30 38.42735
824.40 37.93871
824.50 37.40176
824.60 37.25708
824.70 37.70458
824.80 38.64736
824.90 39.54926
825.00 39.80546
825.10 39.2881
825.20 38.24199
825.30 37.10807
825.40 36.24428
825.50 35.66308
825.60 35.20729
825.70 34.77627
825.80 34.47537
825.90 34.58018
826.00 35.21418
826.10 36.20525
826.20 37.13248
826.30 37.6911
826.40 37.98113
826.50 38.115
826.60 38.21017
826.70 38.44403
826.80 38.63261
826.90 38.53649
827.00 38.12264
827.10 37.31886
827.20 36.20781
827.30 35.14771
827.40 34.42501
827.50 34.12127
827.60 34.20086
827.70 34.53444
827.80 35.04201
827.90 35.53357
828.00 35.71561
828.10 35.62016
828.20 35.25045
828.30 34.63552
828.40 34.08174
828.50 33.72158
828.60 33.66918
828.70 33.91497
828.80 34.10536
828.90 33.84797
829.00 32.99949
829.10 31.90368
829.20 31.11005
829.30 31.01805
829.40 31.56739
829.50 32.19705
829.60 32.50226
829.70 32.61175
829.80 32.83852
829.90 33.03894
830.00 32.92627
830.10 32.35808
830.20 31.78988
830.30 31.15002
830.40 30.51015
830.50 30.07251
830.60 29.63487
830.70 29.94345
830.80 30.25203
830.90 31.00348
831.00 31.75492
831.10 32.05739
831.20 32.35985
831.30 32.25714
831.40 32.15443
831.50 32.0649
831.60 31.97536
831.70 32.29951
831.80 32.62366
831.90 33.1505
832.00 33.67734
832.10 33.68364
832.20 33.68993
832.30 34.01115
832.40 34.33236
832.50 34.43223
832.60 34.53211
832.70 33.63322
832.80 32.73433
832.90 32.14475
833.00 31.55516
833.10 32.65653
833.20 33.75789
833.30 34.3827
833.40 35.0075
833.50 33.96908
833.60 32.93065
833.70 32.3771
833.80 31.82355
833.90 32.26535
834.00 32.70716
834.10 33.23246
834.20 33.75776
834.30 34.15188
834.40 34.54599
834.50 34.17393
834.60 33.80187
834.70 32.97384
834.80 32.1458
834.90 32.20608
835.00 32.26636
835.10 32.62708
835.20 32.98781
835.30 33.01329
835.40 33.03877
835.50 32.98808
835.60 32.93739
835.70 33.02985
835.80 33.1223
835.90 33.57547
836.00 34.02865
836.10 34.20922
836.20 34.3898
836.30 33.89673
836.40 33.40366
836.50 32.9941
836.60 32.58453
836.70 33.02021
836.80 33.45589
836.90 34.348
837.00 35.2401
837.10 35.82022
837.20 36.40033
837.30 35.35543
837.40 34.31052
837.50 33.01449
837.60 31.71845
837.70 31.36005
837.80 31.00165
837.90 31.35026
838.00 31.69886
838.10 32.12483
838.20 32.55079
838.30 32.4246
838.40 32.2984
838.50 31.83778
838.60 31.37715
838.70 30.68887
838.80 30.0006
838.90 29.15041
839.00 28.30023
839.10 29.05003
839.20 29.79983
839.30 30.55675
839.40 31.31368
839.50 31.23178
839.60 31.14989
839.70 31.08833
839.80 31.02677
839.90 31.50544
840.00 31.98412
840.10 32.42086
840.20 32.60981
840.30 33.08053
840.40 33.53926
840.50 33.84606
840.60 34.14586
840.70 34.44528
840.80 34.79214
840.90 35.00495
841.00 34.83676
841.10 34.57329
841.20 33.88167
841.30 33.29649
841.40 33.08643
841.50 33.40724
841.60 34.04166
841.70 34.91412
841.80 35.5361
841.90 35.2683
842.00 35.20011
842.10 34.33581
842.20 32.94306
842.30 32.1442
842.40 32.56328
842.50 33.01685
842.60 32.87621
842.70 32.58241
842.80 31.92033
842.90 31.083
843.00 30.84156
843.10 31.53637
843.20 32.10992
843.30 31.26494
843.40 30.20693
843.50 27.72351
843.60 24.73017
843.70 22.61716
843.80 22.07362
843.90 21.95526
844.00 23.89488
844.10 25.84389
844.20 26.18097
844.30 26.00625
844.40 25.01712
844.50 23.14509
844.60 21.4846
844.70 21.1214
844.80 20.73892
844.90 21.35791
845.00 22.31348
845.10 22.57026
845.20 22.06851
845.30 21.40724
845.40 19.79859
845.50 18.00452
845.60 17.39537
845.70 17.20342
845.80 17.24025
845.90 17.41359
846.00 17.58687
846.10 17.84292
846.20 18.118
846.30 18.64611
846.40 19.15782
846.50 19.00401
846.60 18.47793
846.70 18.13503
846.80 17.87871
846.90 17.33953
847.00 17.2974
847.10 17.76044
847.20 17.99228
847.30 17.75656
847.40 17.62981
847.50 17.92417
847.60 18.2672
847.70 18.82687
847.80 19.51787
847.90 19.75352
848.00 19.57201
848.10 19.4789
848.20 19.53727
848.30 19.60049
848.40 19.77659
848.50 20.01348
848.60 20.38424
848.70 20.80855
848.80 21.05053
848.90 21.06914
849.00 21.15891
849.10 21.72702
849.20 22.24132
849.30 22.62581
849.40 22.94067
849.50 22.98141
849.60 22.3702
849.70 21.65519
849.80 20.9512
849.90 20.38733
850.00 20.49664
850.10 20.74321
850.20 20.87727
850.30 21.23702
850.40 21.72921
850.50 21.61898
850.60 21.15791
850.70 20.39909
850.80 19.7671
850.90 19.52138
851.00 19.72357
851.10 19.93531
851.20 20.56069
851.30 21.19666
851.40 21.06588
851.50 20.78398
851.60 20.44064
851.70 19.98541
851.80 19.58634
851.90 19.18438
852.00 18.6342
852.10 18.49401
852.20 18.55642
852.30 18.60966
852.40 18.67705
852.50 18.8359
852.60 19.51868
852.70 20.28635
852.80 20.90948
852.90 21.54542
853.00 21.92343
853.10 22.02583
853.20 22.15088
853.30 22.41262
853.40 22.65359
853.50 22.78219
853.60 23.04671
853.70 23.15577
853.80 22.98099
853.90 22.85456
854.00 23.005
854.10 23.24662
854.20 22.9915
854.30 22.73463
854.40 22.62689
854.50 22.51839
854.60 22.62436
854.70 23.27356
854.80 24.03163
854.90 24.47183
855.00 24.76843
855.10 25.18696
855.20 25.71243
855.30 26.17496
855.40 26.45234
855.50 26.66102
855.60 26.67376
855.70 26.85774
855.80 26.92969
855.90 26.64424
856.00 26.01805
856.10 25.09876
856.20 24.34546
856.30 24.35303
856.40 24.38686
856.50 24.84944
856.60 25.4494
856.70 26.01168
856.80 26.51899
856.90 26.97681
857.00 26.92631
857.10 26.90137
857.20 26.53156
857.30 25.9968
857.40 25.70732
857.50 25.72436
857.60 25.71389
857.70 25.9027
857.80 26.19914
857.90 26.83416
858.00 27.53841
858.10 27.62574
858.20 27.00617
858.30 26.49553
858.40 26.50752
858.50 26.64316
858.60 26.77145
858.70 26.73919
858.80 26.87764
858.90 27.1418
859.00 27.3607
859.10 27.35068
859.20 27.38313
859.30 27.33238
859.40 27.25299
859.50 27.40895
859.60 27.78831
859.70 28.05536
859.80 28.23247
859.90 28.47572
860.00 28.58323
860.10 28.57794
860.20 28.76927
860.30 28.98801
860.40 28.99242
860.50 28.95299
860.60 29.2163
860.70 29.75715
860.80 29.98467
860.90 30.13629
861.00 30.20657
861.10 29.96324
861.20 29.28622
861.30 28.60179
861.40 28.00353
861.50 27.39613
861.60 27.21676
861.70 27.14098
861.80 26.83615
861.90 26.45099
862.00 26.24263
862.10 26.61832
862.20 26.91896
862.30 27.31603
862.40 27.71683
862.50 27.59209
862.60 26.76604
862.70 26.19354
862.80 26.64755
862.90 27.05888
863.00 26.84819
863.10 26.6309
863.20 26.48834
863.30 26.46579
863.40 26.52157
863.50 27.02691
863.60 27.62121
863.70 27.58512
863.80 27.34176
863.90 27.29086
864.00 27.39417
864.10 27.55168
864.20 27.81762
864.30 28.20698
864.40 28.72944
864.50 29.14182
864.60 28.97748
864.70 28.39527
864.80 28.12122
864.90 28.1364
865.00 27.98471
865.10 28.2086
865.20 28.7513
865.30 29.16535
865.40 29.38513
865.50 29.61858
865.60 29.9895
865.70 30.32465
865.80 30.28644
865.90 30.20641
866.00 29.90999
866.10 29.44355
866.20 28.81117
866.30 27.99328
866.40 27.32956
866.50 27.80241
866.60 28.43437
866.70 29.43602
866.80 30.40285
866.90 30.94103
867.00 30.87219
867.10 30.63557
867.20 30.02194
867.30 29.64924
867.40 30.05828
867.50 30.58092
867.60 30.78798
867.70 30.71583
867.80 30.71879
867.90 31.11498
868.00 31.68032
868.10 31.74174
868.20 31.78945
868.30 31.6159
868.40 30.94785
868.50 30.30943
868.60 30.54432
868.70 31.10355
868.80 30.72366
868.90 29.92966
869.00 29.00989
869.10 28.05715
869.20 27.28178
869.30 26.66829
869.40 26.02755
869.50 25.3135
869.60 24.44408
869.70 24.18106
869.80 24.63906
869.90 25.12487
870.00 25.43836
870.10 25.61131
870.20 25.90185
870.30 26.28919
870.40 26.74715
870.50 27.26385
870.60 27.86038
870.70 28.57353
870.80 29.17091
870.90 28.67622
871.00 28.17621
871.10 27.43959
871.20 26.5709
871.30 25.9191
871.40 25.8126
871.50 25.93334
871.60 26.28082
871.70 26.40068
871.80 26.10122
871.90 25.72288
872.00 25.68324
872.10 26.09004
872.20 26.47802
872.30 26.65912
872.40 26.88478
872.50 27.05718
872.60 27.10835
872.70 27.54484
872.80 28.65001
872.90 29.78731
873.00 30.71034
873.10 31.49614
873.20 31.09587
873.30 30.45196
873.40 29.84052
873.50 29.27814
873.60 28.7956
873.70 28.71071
873.80 28.77768
873.90 28.923
874.00 28.86911
874.10 29.2418
874.20 30.07301
874.30 30.82156
874.40 31.42541
874.50 32.00798
874.60 32.71625
874.70 33.37855
874.80 33.0126
874.90 31.86185
875.00 30.8259
875.10 30.06261
875.20 29.40129
875.30 30.36626
875.40 31.46119
875.50 32.25228
875.60 32.92378
875.70 33.34112
875.80 33.13662
875.90 32.79057
876.00 33.25068
876.10 33.96621
876.20 34.56538
876.30 34.93971
876.40 34.72772
876.50 33.68528
876.60 32.66171
876.70 32.12615
876.80 31.58246
876.90 31.43503
877.00 31.59413
877.10 32.48218
877.20 34.19271
877.30 35.77984
877.40 36.75913
877.50 37.59287
877.60 38.52097
877.70 39.58829
877.80 39.72486
877.90 38.47618
878.00 37.0441
878.10 35.49217
878.20 34.04534
878.30 34.38223
878.40 35.03422
878.50 35.5393
878.60 35.96362
878.70 36.27468
878.80 36.22989
878.90 36.18286
879.00 36.38649
879.10 36.77644
879.20 37.38952
879.30 38.13433
879.40 38.4752
879.50 38.02709
879.60 37.53171
879.70 38.13516
879.80 38.92601
879.90 39.49294
880.00 39.76516
880.10 39.17608
880.20 36.9113
880.30 34.66994
880.40 33.41628
880.50 32.30171
880.60 32.35605
880.70 33.113
880.80 33.7045
880.90 33.99619
881.00 34.39519
881.10 35.18159
881.20 35.81588
881.30 37.4303
881.40 39.24942
881.50 40.79652
881.60 41.922
881.70 42.77676
881.80 42.70482
881.90 42.65574
882.00 42.91924
882.10 43.16623
882.20 42.44091
882.30 40.62608
882.40 38.76929
882.50 36.97464
882.60 35.26543
882.70 35.11912
882.80 35.1858
882.90 35.74483
883.00 36.76061
883.10 37.88585
883.20 39.19455
883.30 40.57229
883.40 41.2997
883.50 41.88359
883.60 42.06708
883.70 42.10187
883.80 42.17243
883.90 42.35322
884.00 42.39445
884.10 42.3781
884.20 42.63368
884.30 42.89116
884.40 42.96573
884.50 42.53453
884.60 41.29168
884.70 40.0804
884.80 38.87871
884.90 37.76892
885.00 37.2173
885.10 36.85826
885.20 37.38041
885.30 39.60745
885.40 41.87141
885.50 43.60762
885.60 45.32976
885.70 44.98308
885.80 43.77078
885.90 41.7808
886.00 38.98941
886.10 36.13316
886.20 33.38039
886.30 30.65908
886.40 30.10062
886.50 30.23493
886.60 31.33292
886.70 33.52273
886.80 35.06525
886.90 34.63799
887.00 34.09687
887.10 32.16857
887.20 29.91275
887.30 27.76048
887.40 26.27892
887.50 25.52796
887.60 26.32385
887.70 27.14515
887.80 28.61599
887.90 30.21302
888.00 31.60866
888.10 32.81757
888.20 33.63665
888.30 33.51263
888.40 33.26096
888.50 32.01066
888.60 30.63347
888.70 30.18403
888.80 30.2245
888.90 30.81506
889.00 32.20384
889.10 33.28552
889.20 33.54173
889.30 33.91772
889.40 33.93871
889.50 33.79144
889.60 33.22136
889.70 31.99995
889.80 30.76996
889.90 30.32596
890.00 30.04961
890.10 31.32314
890.20 33.14651
890.30 34.55615
890.40 35.39404
890.50 36.1635
890.60 36.94253
890.70 37.81816
890.80 37.78611
890.90 37.6618
891.00 37.19683
891.10 36.41962
891.20 35.52166
891.30 34.80828
891.40 34.23683
891.50 35.07299
891.60 36.16662
891.70 36.98346
891.80 37.27977
891.90 37.48225
892.00 37.77629
892.10 38.17383
892.20 38.32621
892.30 38.3428
892.40 37.82523
892.50 36.97277
892.60 36.3251
892.70 36.06783
892.80 35.81492
892.90 35.92849
893.00 36.24018
893.10 36.93488
893.20 37.9404
893.30 39.04783
893.40 40.2327
893.50 41.32337
893.60 41.70899
893.70 41.96308
893.80 40.57399
893.90 38.55096
894.00 36.56326
894.10 35.01352
894.20 33.86864
894.30 34.1678
894.40 34.59826
894.50 34.29955
894.60 33.75435
894.70 33.78407
894.80 34.61498
894.90 35.50481
895.00 36.43516
895.10 37.34651
895.20 37.31983
895.30 37.17509
895.40 36.60157
895.50 35.95731
895.60 35.86936
895.70 36.95247
895.80 38.03809
895.90 38.4135
896.00 38.69579
896.10 38.64507
896.20 38.26695
896.30 37.90841
896.40 37.75394
896.50 37.79651
896.60 38.03656
896.70 38.08224
896.80 37.73522
896.90 37.26593
897.00 37.05692
897.10 37.51831
897.20 38.08516
897.30 38.46227
897.40 38.62679
897.50 38.9208
897.60 39.43375
897.70 40.21574
897.80 41.19347
897.90 41.94723
898.00 41.53156
898.10 40.76071
898.20 39.87685
898.30 39.15583
898.40 39.32079
898.50 40.52301
898.60 41.60294
898.70 42.57059
898.80 43.65689
898.90 43.9788
899.00 43.98011
899.10 43.51364
899.20 42.8626
899.30 42.21688
899.40 41.82351
899.50 41.44443
899.60 41.00071
899.70 40.71699
899.80 40.38405
899.90 39.87897
900.00 39.12791
900.10 38.18915
900.20 37.56722
900.30 39.2863
900.40 41.2356
900.50 42.65727
900.60 43.94374
900.70 44.89865
900.80 45.13965
900.90 45.31621
901.00 44.53566
901.10 43.43025
901.20 42.94454
901.30 42.98342
901.40 43.37859
901.50 43.78915
901.60 44.02932
901.70 43.89995
901.80 43.77882
901.90 42.96436
902.00 42.12855
902.10 41.24642
902.20 40.28681
902.30 39.39757
902.40 38.74197
902.50 38.03479
902.60 37.37863
902.70 36.86171
902.80 36.5762
902.90 36.44554
903.00 36.69349
903.10 37.75109
903.20 38.89651
903.30 39.55962
903.40 40.15315
903.50 41.19253
903.60 42.33529
903.70 43.16779
903.80 43.63978
903.90 44.19247
904.00 44.88956
904.10 45.66167
904.20 45.46187
904.30 44.75112
904.40 44.05931
904.50 43.48472
904.60 43.15242
904.70 43.88228
904.80 44.77265
904.90 45.47141
905.00 46.1404
905.10 46.38251
905.20 45.74197
905.30 45.07022
905.40 44.3249
905.50 43.63993
905.60 43.28339
905.70 42.857
905.80 42.42417
905.90 42.11886
906.00 41.84895
906.10 41.66669
906.20 41.53591
906.30 42.2652
906.40 43.14705
906.50 43.68821
906.60 43.55016
906.70 43.2037
906.80 42.71502
906.90 42.31835
907.00 41.72515
907.10 41.04516
907.20 41.11232
907.30 41.7305
907.40 42.36221
907.50 42.76475
907.60 43.10574
907.70 43.49977
907.80 43.72583
907.90 44.42706
908.00 45.63447
908.10 46.83134
908.20 47.55017
908.30 47.85007
908.40 46.83269
908.50 45.67135
908.60 45.48148
908.70 45.69717
908.80 45.81293
908.90 45.63244
909.00 45.30696
909.10 45.00772
909.20 44.87556
909.30 45.24696
909.40 45.78558
909.50 46.25395
909.60 46.63756
909.70 47.02477
909.80 47.30289
909.90 47.48241
910.00 47.80225
910.10 48.33316
910.20 48.44974
910.30 48.19855
910.40 47.9828
910.50 47.75093
910.60 47.38591
910.70 46.63417
910.80 46.08931
910.90 46.02647
911.00 46.35624
911.10 46.77593
911.20 47.33932
911.30 47.97034
911.40 48.70109
911.50 49.48527
911.60 49.57803
911.70 49.21756
911.80 48.74243
911.90 48.45623
912.00 48.32577
912.10 48.48981
912.20 48.74856
912.30 48.99071
912.40 49.02535
912.50 48.92902
912.60 48.73739
912.70 48.70533
912.80 49.0661
912.90 49.48969
913.00 49.89501
913.10 50.20227
913.20 50.31385
913.30 50.55352
913.40 50.94383
913.50 51.34173
913.60 51.53546
913.70 50.9389
913.80 50.32592
913.90 49.37156
914.00 48.27911
914.10 47.25898
914.20 46.36978
914.30 45.57877
914.40 46.23866
914.50 47.0236
914.60 48.06858
914.70 49.21667
914.80 49.80311
914.90 49.41691
915.00 48.96991
915.10 48.23926
915.20 47.39926
915.30 47.57019
915.40 48.29072
915.50 49.60006
915.60 51.41144
915.70 52.94544
915.80 53.82563
915.90 54.85865
916.00 54.26717
916.10 53.38896
916.20 52.55466
916.30 51.57778
916.40 50.66836
916.50 50.35689
916.60 50.23674
916.70 51.13741
916.80 52.06279
916.90 52.44522
917.00 52.56991
917.10 52.8238
917.20 52.96452
917.30 52.9055
917.40 52.28967
917.50 51.65824
917.60 51.12199
917.70 50.76507
917.80 50.7239
917.90 51.0585
918.00 51.33692
918.10 51.47723
918.20 51.72574
918.30 51.96287
918.40 52.12008
918.50 51.92175
918.60 51.22036
918.70 50.7292
918.80 51.06948
918.90 51.22563
919.00 52.74323
919.10 54.90851
919.20 56.08013
919.30 55.76814
919.40 55.18452
919.50 53.67319
919.60 51.94209
919.70 51.91231
919.80 52.3169
919.90 53.06788
920.00 54.10021
920.10 54.74876
920.20 54.35248
920.30 53.84982
920.40 54.09651
920.50 54.58521
920.60 54.38615
920.70 53.91327
920.80 53.12865
920.90 51.45341
921.00 49.64653
921.10 48.30135
921.20 47.30528
921.30 47.55992
921.40 47.96752
921.50 48.47064
921.60 49.05125
921.70 49.73734
921.80 50.45598
921.90 51.24432
922.00 50.67006
922.10 49.93115
922.20 49.6324
922.30 49.57822
922.40 49.28925
922.50 48.6333
922.60 48.02608
922.70 48.32921
922.80 48.79446
922.90 49.47721
923.00 50.06695
923.10 49.97769
923.20 48.59122
923.30 47.15937
923.40 46.0452
923.50 45.34393
923.60 45.51019
923.70 45.92966
923.80 46.17244
923.90 46.15716
924.00 46.09621
924.10 45.93161
924.20 45.76913
924.30 47.2588
924.40 49.3272
924.50 50.39733
924.60 50.18685
924.70 49.77676
924.80 48.54937
924.90 47.07303
925.00 46.24139
925.10 45.78227
925.20 45.62574
925.30 45.55133
925.40 45.5175
925.50 45.77603
925.60 46.10248
925.70 47.70056
925.80 49.43964
925.90 50.73246
926.00 51.29458
926.10 51.44531
926.20 50.75474
926.30 50.10395
926.40 49.43785
926.50 48.78717
926.60 49.01626
926.70 49.95813
926.80 50.95599
926.90 51.63492
927.00 52.13136
927.10 51.95689
927.20 51.69908
927.30 51.13876
927.40 50.42115
927.50 49.49125
927.60 48.38991
927.70 47.44885
927.80 46.80895
927.90 46.06384
928.00 45.43271
928.10 45.1056
928.20 45.34031
928.30 45.97021
928.40 46.69836
928.50 47.62057
928.60 48.57867
928.70 48.6378
928.80 48.31239
928.90 47.77984
929.00 47.41708
929.10 47.10175
929.20 46.74722
929.30 46.34942
929.40 46.44076
929.50 46.61323
929.60 46.86461
929.70 47.30894
929.80 47.52679
929.90 47.08605
930.00 46.55305
930.10 45.57041
930.20 44.26696
930.30 43.82333
930.40 44.03752
930.50 44.47662
930.60 44.98216
930.70 45.33383
930.80 45.0151
930.90 44.62227
931.00 44.71288
931.10 44.94689
931.20 45.84358
931.30 47.1845
931.40 48.36646
931.50 48.96997
931.60 49.58562
931.70 48.52555
931.80 47.50856
931.90 46.70282
932.00 46.69891
932.10 47.27343
932.20 47.76205
932.30 47.92843
932.40 48.08731
932.50 48.10045
932.60 47.53269
932.70 47.07103
932.80 46.82473
932.90 46.80511
933.00 46.75826
933.10 47.1216
933.20 47.57058
933.30 47.99723
933.40 48.09717
933.50 48.22308
933.60 48.18443
933.70 48.05493
933.80 47.99306
933.90 48.25228
934.00 48.57379
934.10 48.74125
934.20 48.58501
934.30 48.36419
934.40 48.33443
934.50 48.49607
934.60 48.4376
934.70 48.39753
934.80 48.66094
934.90 48.97347
935.00 48.8242
935.10 48.30587
935.20 47.79219
935.30 47.55719
935.40 47.39592
935.50 47.30428
935.60 47.38934
935.70 47.49229
935.80 47.53648
935.90 47.80756
936.00 48.07982
936.10 48.84614
936.20 49.6941
936.30 50.43963
936.40 50.41281
936.50 50.20971
936.60 49.97546
936.70 49.86347
936.80 49.76981
936.90 49.62857
937.00 49.28259
937.10 48.93548
937.20 48.34031
937.30 47.86793
937.40 47.58775
937.50 47.62817
937.60 47.7056
937.70 47.73612
937.80 47.76205
937.90 47.79174
938.00 47.92563
938.10 48.06446
938.20 48.14648
938.30 47.86767
938.40 47.6087
938.50 47.58463
938.60 47.79396
938.70 48.0125
938.80 48.15454
938.90 48.344
939.00 48.53315
939.10 48.92417
939.20 49.28545
939.30 49.57887
939.40 49.64193
939.50 49.6926
939.60 49.43829
939.70 48.72868
939.80 48.0077
939.90 47.57188
940.00 47.45507
940.10 47.40327
940.20 47.7933
940.30 48.12771
940.40 48.31856
940.50 48.43935
940.60 48.59676
940.70 49.12291
940.80 49.81927
940.90 50.51164
941.00 51.02405
941.10 51.40192
941.20 51.56484
941.30 51.05988
941.40 50.52066
941.50 49.88812
941.60 49.109
941.70 48.31238
941.80 48.16753
941.90 48.2853
942.00 48.37847
942.10 48.43656
942.20 48.61407
942.30 48.80044
942.40 48.84742
942.50 48.86261
942.60 48.94541
942.70 48.94201
942.80 48.9392
942.90 48.99125
943.00 49.34395
943.10 49.89355
943.20 50.87838
943.30 51.81813
943.40 52.41105
943.50 52.49333
943.60 52.55841
943.70 52.39777
943.80 52.13528
943.90 51.85741
944.00 51.30035
944.10 50.68806
944.20 50.17585
944.30 50.00514
944.40 49.87371
944.50 49.50775
944.60 49.16106
944.70 48.81187
944.80 48.98104
944.90 49.10983
945.00 49.26059
945.10 49.59691
945.20 49.94853
945.30 50.2529
945.40 50.26655
945.50 50.26111
945.60 50.28063
945.70 50.44797
945.80 50.56476
945.90 50.1194
946.00 49.58762
946.10 49.26839
946.20 49.51977
946.30 49.85265
946.40 50.66273
946.50 51.49067
946.60 52.33134
946.70 52.20001
946.80 52.04537
946.90 51.94939
947.00 52.14074
947.10 52.35543
947.20 52.51829
947.30 52.5003
947.40 52.48267
947.50 52.58241
947.60 52.81419
947.70 53.04436
947.80 53.15763
947.90 53.17647
948.00 53.26626
948.10 53.66514
948.20 54.09028
948.30 54.24815
948.40 54.33152
948.50 54.41418
948.60 54.70047
948.70 54.78778
948.80 54.79663
948.90 54.72836
949.00 54.71503
949.10 54.91002
949.20 55.25298
949.30 55.60547
949.40 55.35283
949.50 54.78646
949.60 54.21177
949.70 53.57545
949.80 53.06572
949.90 52.93039
950.00 53.45877
950.10 53.97372
950.20 54.40908
950.30 54.8602
950.40 55.31916
950.50 54.92249
950.60 54.3161
950.70 53.82188
950.80 53.73906
950.90 53.71515
951.00 53.86108
951.10 54.09527
951.20 54.32979
951.30 54.33976
951.40 54.23527
951.50 54.12029
951.60 53.86806
951.70 53.61866
951.80 53.35634
951.90 53.06744
952.00 52.78074
952.10 52.66087
952.20 52.82049
952.30 52.97714
952.40 53.65953
952.50 54.46162
952.60 55.2398
952.70 55.85152
952.80 56.41123
952.90 56.67436
953.00 56.4983
953.10 56.294
953.20 56.03244
953.30 55.78766
953.40 55.53426
953.50 55.08505
953.60 54.53084
953.70 53.96714
953.80 53.66904
953.90 53.45532
954.00 53.61612
954.10 53.71047
954.20 53.79716
954.30 53.69938
954.40 53.68003
954.50 53.52711
954.60 53.11475
954.70 52.77649
954.80 52.71877
954.90 52.81118
955.00 52.87056
955.10 53.27231
955.20 53.70284
955.30 54.09034
955.40 54.26944
955.50 54.49639
955.60 54.7816
955.70 55.27953
955.80 55.81525
955.90 56.33169
956.00 56.70868
956.10 57.08843
956.20 57.02171
956.30 56.72672
956.40 56.30664
956.50 55.77437
956.60 55.30116
956.70 55.34108
956.80 55.91
956.90 56.50321
957.00 56.56921
957.10 56.50936
957.20 56.48734
957.30 56.52816
957.40 56.44807
957.50 56.13033
957.60 55.53993
957.70 54.92537
957.80 54.42863
957.90 54.00249
958.00 53.57995
958.10 53.98278
958.20 54.56525
958.30 55.02128
958.40 55.16532
958.50 55.30382
958.60 55.40123
958.70 55.26436
958.80 55.11838
958.90 54.43386
959.00 53.50119
959.10 52.64324
959.20 52.41544
959.30 52.44287
959.40 52.7112
959.50 53.22257
959.60 53.7471
959.70 53.24118
959.80 52.01195
959.90 50.79312
960.00 49.66198
960.10 48.5981
960.20 48.06015
960.30 48.80892
960.40 49.68255
960.50 50.9702
960.60 52.41899
960.70 53.87812
960.80 54.5026
960.90 54.93861
961.00 55.25658
961.10 55.09209
961.20 54.90719
961.30 54.63918
961.40 54.26512
961.50 53.86103
961.60 53.46247
961.70 53.13632
961.80 52.88058
961.90 53.68279
962.00 54.7087
962.10 55.59044
962.20 56.02826
962.30 56.37144
962.40 56.30978
962.50 55.89342
962.60 55.46155
962.70 55.55189
962.80 55.75159
962.90 55.88044
963.00 55.84997
963.10 55.8271
963.20 55.66298
963.30 55.09475
963.40 54.51019
963.50 53.70186
963.60 52.84987
963.70 51.82873
963.80 49.17861
963.90 46.32101
964.00 44.17846
964.10 43.60915
964.20 43.20712
964.30 44.70082
964.40 47.31998
964.50 49.94866
964.60 50.55995
964.70 50.89501
964.80 51.07923
964.90 50.79827
965.00 50.48037
965.10 50.56692
965.20 50.97487
965.30 51.36726
965.40 51.90219
965.50 52.455
965.60 52.96849
965.70 53.32494
965.80 53.79982
965.90 54.29685
966.00 54.78801
966.10 55.26282
966.20 55.80389
966.30 56.26351
966.40 56.72137
966.50 56.72627
966.60 56.61914
966.70 56.3761
966.80 55.89709
966.90 55.45867
967.00 55.39231
967.10 55.58432
967.20 55.77942
967.30 55.28011
967.40 54.62363
967.50 53.78341
967.60 51.89253
967.70 49.80122
967.80 48.59707
967.90 48.84582
968.00 49.18084
968.10 50.64333
968.20 52.77625
968.30 54.84817
968.40 55.16399
968.50 55.0955
968.60 54.89528
968.70 54.35186
968.80 53.7799
968.90 52.91022
969.00 52.11303
969.10 51.31221
969.20 51.89595
969.30 52.78218
969.40 53.75989
969.50 55.06125
969.60 56.34661
969.70 57.18829
969.80 57.39796
969.90 57.58628
970.00 57.69465
970.10 57.89608
970.20 58.0591
970.30 57.71337
970.40 57.24964
970.50 56.2348
970.60 54.17863
970.70 52.0081
970.80 50.83829
970.90 50.59098
971.00 50.31126
971.10 52.13434
971.20 54.36246
971.30 56.36264
971.40 57.61131
971.50 58.78857
971.60 59.56782
971.70 59.78225
971.80 59.98311
971.90 59.59667
972.00 58.95229
972.10 58.31353
972.20 57.72063
972.30 57.11682
972.40 56.79852
972.50 56.98476
972.60 57.23456
972.70 56.80101
972.80 55.91633
972.90 55.03959
973.00 53.40387
973.10 51.61588
973.20 50.55121
973.30 51.42166
973.40 52.50443
973.50 53.54844
973.60 54.50922
973.70 55.46433
973.80 55.53767
973.90 55.43279
974.00 55.33589
974.10 55.21303
974.20 55.04581
974.30 54.42348
974.40 53.11214
974.50 51.74715
974.60 50.94236
974.70 50.65526
974.80 50.45421
974.90 51.65112
975.00 52.89648
975.10 53.86604
975.20 54.32096
975.30 54.7678
975.40 55.19257
975.50 55.7804
975.60 56.36934
975.70 56.47436
975.80 56.37193
975.90 56.40923
976.00 56.8787
976.10 57.33937
976.20 57.39465
976.30 57.01905
976.40 56.62174
976.50 56.79238
976.60 57.37864
976.70 57.91204
976.80 57.96616
976.90 57.93116
977.00 57.44008
977.10 55.98195
977.20 54.38016
977.30 53.51755
977.40 53.5058
977.50 53.46639
977.60 54.6684
977.70 55.98699
977.80 57.07892
977.90 57.45317
978.00 57.72186
978.10 57.3477
978.20 56.40725
978.30 55.47098
978.40 53.42713
978.50 51.0911
978.60 49.10465
978.70 48.95762
978.80 48.99477
978.90 49.29432
979.00 49.94604
979.10 50.59957
979.20 52.01833
979.30 53.99304
979.40 55.93477
979.50 57.18582
979.60 58.20366
979.70 58.76443
979.80 58.52659
979.90 58.29332
980.00 58.37102
980.10 58.57309
980.20 58.77327
980.30 58.82584
980.40 58.86225
980.50 58.87748
980.60 58.77266
980.70 58.62465
980.80 58.47771
980.90 58.42094
981.00 58.37616
981.10 58.63828
981.20 59.10873
981.30 59.52487
981.40 59.29689
981.50 58.78042
981.60 58.09907
981.70 57.30859
981.80 56.54792
981.90 56.48785
982.00 57.09423
982.10 57.69809
982.20 57.72885
982.30 57.58045
982.40 57.47865
982.50 57.50308
982.60 57.53985
982.70 57.70799
982.80 58.01179
982.90 58.32678
983.00 58.10678
983.10 57.66998
983.20 57.27543
983.30 57.15618
983.40 57.13631
983.50 57.05236
983.60 56.77916
983.70 56.47059
983.80 56.17717
983.90 56.07652
984.00 56.01954
984.10 56.54178
984.20 57.05123
984.30 57.45584
984.40 57.5407
984.50 57.56494
984.60 57.59399
984.70 57.9103
984.80 58.23233
984.90 58.41712
985.00 58.42443
985.10 58.28359
985.20 57.66413
985.30 57.00276
985.40 56.67429
985.50 56.84902
985.60 57.0506
985.70 57.53184
985.80 58.00459
985.90 58.40846
986.00 58.33233
986.10 58.24299
986.20 58.18373
986.30 58.15824
986.40 58.12636
986.50 58.36801
986.60 58.82077
986.70 59.25475
986.80 58.77303
986.90 58.05391
987.00 57.37302
987.10 56.81968
987.20 56.27625
987.30 56.48853
987.40 57.61639
987.50 58.78831
987.60 59.43357
987.70 59.86744
987.80 60.12056
987.90 59.49368
988.00 58.65156
988.10 57.93225
988.20 57.5826
988.30 57.27467
988.40 57.67313
988.50 58.54908
988.60 59.39768
988.70 59.86165
988.80 60.13357
988.90 60.21659
989.00 59.89418
989.10 59.51974
989.20 59.06451
989.30 58.58458
989.40 58.1143
989.50 56.91638
989.60 55.5958
989.70 53.87067
989.80 51.03044
989.90 48.07944
990.00 46.15752
990.10 45.30338
990.20 44.48095
990.30 43.5732
990.40 42.58225
990.50 41.46531
990.60 39.60643
990.70 37.58574
990.80 35.94127
990.90 35.09982
991.00 34.34958
991.10 34.49746
991.20 35.10537
991.30 35.65304
991.40 35.20411
991.50 34.47826
991.60 33.75688
991.70 33.18048
991.80 32.63885
991.90 33.08834
992.00 34.47324
992.10 35.87051
992.20 36.45884
992.30 36.73531
992.40 36.69317
992.50 35.6149
992.60 34.43134
992.70 34.16224
992.80 35.00357
992.90 35.8764
993.00 37.31949
993.10 39.08089
993.20 40.66415
993.30 40.92082
993.40 40.88192
993.50 40.67828
993.60 40.30396
993.70 39.88377
993.80 40.70109
993.90 42.60705
994.00 44.49188
994.10 45.8883
994.20 47.03812
994.30 47.73486
994.40 47.36603
994.50 46.90304
994.60 46.58503
994.70 46.44718
994.80 46.29698
994.90 46.93995
995.00 47.75698
995.10 48.54293
995.20 49.2522
995.30 49.9984
995.40 50.67588
995.50 51.18285
995.60 51.69572
995.70 50.92903
995.80 49.49046
995.90 48.14338
996.00 47.53647
996.10 47.05865
996.20 46.94353
996.30 47.57463
996.40 48.27946
996.50 49.59643
996.60 51.42791
996.70 53.23927
996.80 53.10541
996.90 52.45025
997.00 51.1857
997.10 48.42479
997.20 45.51388
997.30 43.4552
997.40 42.3732
997.50 41.27815
997.60 41.83236
997.70 42.88635
997.80 43.97184
997.90 45.17051
998.00 46.37915
998.10 47.48391
998.20 48.34707
998.30 49.20943
998.40 48.57526
998.50 47.21138
998.60 45.90113
998.70 45.14081
998.80 44.54592
998.90 44.28996
999.00 44.46698
999.10 44.62483
999.20 44.555
999.30 44.42275
999.40 44.28179
999.50 44.82102
999.60 45.57203
999.70 46.05877
999.80 45.73352
999.90 45.21342
1000.00 45.45976
1000.10 46.76631
1000.20 48.1174
1000.30 49.56742
1000.40 50.98625
1000.50 52.22056
1000.60 52.52777
1000.70 52.75149
1000.80 52.45094
1000.90 51.25231
1001.00 49.9752
1001.10 48.61896
1001.20 47.2062
1001.30 45.95753
1001.40 46.66298
1001.50 47.75462
1001.60 48.97408
1001.70 50.39159
1001.80 51.81807
1001.90 52.43251
1002.00 52.26685
1002.10 52.1506
1002.20 51.49343
1002.30 50.74353
1002.40 50.36862
1002.50 51.14215
1002.60 52.10538
1002.70 52.78415
1002.80 52.82632
1002.90 52.83833
1003.00 52.13677
1003.10 51.48941
1003.20 50.90104
1003.30 50.48391
1003.40 50.00746
1003.50 49.38818
1003.60 48.58878
1003.70 47.78139
1003.80 47.25907
1003.90 46.96192
1004.00 46.79603
1004.10 48.12694
1004.20 49.6503
1004.30 51.17478
1004.40 52.65681
1004.50 54.17872
1004.60 54.77821
1004.70 54.65737
1004.80 54.56624
1004.90 53.47387
1005.00 52.10357
1005.10 50.51162
1005.20 48.30479
1005.30 46.0275
1005.40 44.12577
1005.50 42.75981
1005.60 41.37019
1005.70 41.29106
1005.80 41.75839
1005.90 42.35665
1006.00 43.53839
1006.10 44.75849
1006.20 45.59194
1006.30 45.71334
1006.40 45.80271
1006.50 45.94891
1006.60 46.15486
1006.70 46.45587
1006.80 47.92412
1006.90 49.65305
1007.00 51.05123
1007.10 51.49379
1007.20 51.82009
1007.30 51.4583
1007.40 50.83932
1007.50 50.19023
1007.60 50.87082
1007.70 51.82878
1007.80 52.77869
1007.90 53.5471
1008.00 54.24966
1008.10 54.59855
1008.20 54.68925
1008.30 54.7772
1008.40 54.82788
1008.50 54.85032
1008.60 54.92064
1008.70 55.10037
1008.80 55.28252
1008.90 54.83055
1009.00 53.42528
1009.10 51.93563
1009.20 50.79374
1009.30 49.94094
1009.40 49.21077
1009.50 49.95526
1009.60 50.96353
1009.70 52.04141
1009.80 53.34226
1009.90 54.68671
1010.00 56.085
1010.10 57.54628
1010.20 59.01923
1010.30 60.01322
1010.40 60.72556
1010.50 61.06377
1010.60 60.35676
1010.70 59.54385
1010.80 58.63091
1010.90 57.73211
1011.00 56.86037
1011.10 55.64397
1011.20 54.16214
1011.30 52.79825
1011.40 52.10052
1011.50 51.56344
1011.60 51.10561
1011.70 50.65368
1011.80 50.18319
1011.90 49.9099
1012.00 49.81416
1012.10 49.89177
1012.20 51.95099
1012.30 54.37141
1012.40 56.41867
1012.50 57.66925
1012.60 58.88744
1012.70 59.19338
1012.80 58.4744
1012.90 57.75166
1013.00 57.73579
1013.10 57.9169
1013.20 57.93476
1013.30 57.47746
1013.40 57.04515
1013.50 55.79792
1013.60 53.39765
1013.70 50.92728
1013.80 49.17222
1013.90 47.91744
1014.00 47.00669
1014.10 47.81866
1014.20 48.84073
1014.30 50.11195
1014.40 51.61269
1014.50 53.14874
1014.60 53.30317
1014.70 52.62985
1014.80 51.95273
1014.90 51.29678
1015.00 50.69857
1015.10 51.01722
1015.20 53.1211
1015.30 55.42336
1015.40 56.56089
1015.50 56.47274
1015.60 56.4445
1015.70 54.66022
1015.80 52.62522
1015.90 50.95697
1016.00 50.45439
1016.10 50.08816
1016.20 50.37108
1016.30 51.24498
1016.40 52.14029
1016.50 52.42197
1016.60 52.54503
1016.70 52.78355
1016.80 53.55636
1016.90 54.45527
1017.00 54.69593
1017.10 53.77612
1017.20 52.73835
1017.30 52.34757
1017.40 52.57568
1017.50 52.93932
1017.60 54.92464
1017.70 57.25283
1017.80 58.61394
1017.90 57.68188
1018.00 56.45344
1018.10 54.96476
1018.20 53.7217
1018.30 52.46177
1018.40 51.88079
1018.50 51.23614
1018.60 50.62972
1018.70 50.19822
1018.80 49.79354
1018.90 50.27991
1019.00 51.5371
1019.10 52.81252
1019.20 53.69241
1019.30 54.50127
1019.40 55.06284
1019.50 54.87053
1019.60 54.51481
1019.70 54.36965
1019.80 54.48993
1019.90 54.64669
1020.00 54.47286
1020.10 54.11991
1020.20 53.85186
1020.30 54.01726
1020.40 54.29642
1020.50 54.68483
1020.60 55.19262
1020.70 55.68661
1020.80 56.02752
1020.90 56.27527
1021.00 56.50962
1021.10 56.24989
1021.20 55.75377
1021.30 54.9176
1021.40 53.50387
1021.50 52.05877
1021.60 50.92735
1021.70 50.09785
1021.80 49.28488
1021.90 48.63019
1022.00 48.05232
1022.10 47.6207
1022.20 47.69022
1022.30 47.72454
1022.40 48.65386
1022.50 50.53411
1022.60 52.47117
1022.70 53.22443
1022.80 53.61941
1022.90 53.92858
1023.00 53.73709
1023.10 53.50063
1023.20 53.05041
1023.30 52.32045
1023.40 51.49564
1023.50 51.82828
1023.60 52.91073
1023.70 53.97917
1023.80 54.89711
1023.90 55.64096
1024.00 56.15825
1024.10 56.45142
1024.20 56.79611
1024.30 57.38738
1024.40 57.891
1024.50 58.46176
1024.60 57.37224
1024.70 56.0378
1024.80 54.94562
1024.90 54.55599
1025.00 54.23085
1025.10 53.62476
1025.20 52.6266
1025.30 51.63395
1025.40 51.06266
1025.50 50.70124
1025.60 50.57125
1025.70 51.45393
1025.80 52.51068
1025.90 52.53941
1026.00 50.93239
1026.10 49.21856
1026.20 47.70636
1026.30 46.51509
1026.40 45.43955
1026.50 45.93723
1026.60 46.5299
1026.70 47.65338
1026.80 49.93515
1026.90 52.39784
1027.00 53.99712
1027.10 54.91039
1027.20 55.77619
1027.30 55.3193
1027.40 54.53983
1027.50 53.69847
1027.60 52.70115
1027.70 51.62792
1027.80 51.0436
1027.90 51.03791
1028.00 51.07628
1028.10 50.50203
1028.20 49.76658
1028.30 48.98787
1028.40 48.08247
1028.50 47.07333
1028.60 47.16391
1028.70 48.69205
1028.80 50.3404
1028.90 52.3615
1029.00 54.23294
1029.10 55.6896
1029.20 55.12442
1029.30 54.22072
1029.40 53.45003
1029.50 53.09287
1029.60 52.74181
1029.70 52.8651
1029.80 52.96671
1029.90 53.01658
1030.00 52.56348
1030.10 52.23181
1030.20 51.9509
1030.30 51.80298
1030.40 51.58807
1030.50 52.24295
1030.60 53.64248
1030.70 54.99857
1030.80 55.24692
1030.90 55.35726
1031.00 55.24538
1031.10 54.57216
1031.20 53.77888
1031.30 53.68735
1031.40 54.43686
1031.50 55.23624
1031.60 55.23311
1031.70 54.881
1031.80 54.40291
1031.90 53.3944
1032.00 52.29611
1032.10 51.76587
1032.20 52.06146
1032.30 52.42054
1032.40 52.08806
1032.50 51.2429
1032.60 50.50529
1032.70 51.10588
1032.80 51.98735
1032.90 53.23499
1033.00 55.11409
1033.10 57.05392
1033.20 58.40673
1033.30 59.34303
1033.40 60.20271
1033.50 59.18803
1033.60 57.64427
1033.70 55.84811
1033.80 53.75246
1033.90 51.64183
1034.00 50.46683
1034.10 50.18915
1034.20 49.89663
1034.30 49.5735
1034.40 49.15924
1034.50 48.73628
1034.60 48.35621
1034.70 47.92279
1034.80 48.42487
1034.90 49.94372
1035.00 51.62472
1035.10 51.94605
1035.20 51.54821
1035.30 51.24048
1035.40 51.52279
1035.50 52.0043
1035.60 52.52369
1035.70 53.03441
1035.80 53.50831
1035.90 54.19103
1036.00 55.10556
1036.10 56.04117
1036.20 57.10608
1036.30 58.09464
1036.40 58.72535
1036.50 58.68509
1036.60 58.62989
1036.70 58.64286
1036.80 58.7008
1036.90 58.72145
1037.00 59.32427
1037.10 60.07615
1037.20 60.84782
1037.30 61.62245
1037.40 62.44172
1037.50 62.6869
1037.60 62.14178
1037.70 61.64808
1037.80 59.9279
1037.90 57.75002
1038.00 55.63122
1038.10 53.85458
1038.20 52.02625
1038.30 51.26669
1038.40 51.8219
1038.50 52.41988
1038.60 53.67854
1038.70 55.24564
1038.80 56.59598
1038.90 56.68748
1039.00 56.52014
1039.10 56.21083
1039.20 55.76741
1039.30 55.30979
1039.40 54.83763
1039.50 54.35188
1039.60 53.86063
1039.70 53.32804
1039.80 52.83428
1039.90 52.71403
1040.00 53.23305
1040.10 53.69603
1040.20 54.58099
1040.30 55.94901
1040.40 57.37866
1040.50 58.19857
1040.60 58.7941
1040.70 59.2969
1040.80 59.58807
1040.90 59.92842
1041.00 59.94242
1041.10 59.33553
1041.20 58.76086
1041.30 57.40473
1041.40 55.77999
1041.50 54.40899
1041.60 54.49409
1041.70 54.7465
1041.80 55.75574
1041.90 57.88201
1042.00 60.18193
1042.10 61.03603
1042.20 60.70783
1042.30 60.32346
1042.40 58.95125
1042.50 57.58818
1042.60 56.07327
1042.70 54.26837
1042.80 52.38601
1042.90 51.22648
1043.00 50.68805
1043.10 50.26674
1043.20 52.30157
1043.30 54.8838
1043.40 57.2175
1043.50 58.9365
1043.60 60.68604
1043.70 61.4093
1043.80 61.11418
1043.90 60.76099
1044.00 60.65588
1044.10 60.68979
1044.20 60.72596
1044.30 60.7331
1044.40 60.76151
1044.50 60.61197
1044.60 60.29724
1044.70 59.96176
1044.80 60.11978
1044.90 60.32678
1045.00 60.65281
1045.10 61.85516
1045.20 63.23995
1045.30 64.45561
1045.40 65.38144
1045.50 66.38318
1045.60 66.96948
1045.70 67.18154
1045.80 67.33113
1045.90 66.14267
1046.00 64.7246
1046.10 63.3016
1046.20 61.79381
1046.30 60.15272
1046.40 58.97707
1046.50 58.47228
1046.60 57.91977
1046.70 57.06529
1046.80 56.27932
1046.90 55.51373
1047.00 54.69491
1047.10 53.74962
1047.20 53.37831
1047.30 53.6689
1047.40 53.98188
1047.50 54.50321
1047.60 54.9978
1047.70 55.44171
1047.80 55.64345
1047.90 55.79646
1048.00 55.80768
1048.10 55.70449
1048.20 55.52703
1048.30 56.25164
1048.40 57.50529
1048.50 58.68829
1048.60 59.36831
1048.70 59.93252
1048.80 60.27841
1048.90 60.2884
1049.00 60.24649
1049.10 60.2524
1049.20 60.43522
1049.30 60.59818
1049.40 60.5378
1049.50 60.46019
1049.60 59.79521
1049.70 57.85859
1049.80 55.79949
1049.90 54.86817
1050.00 55.11057
1050.10 55.26896
1050.20 56.48178
1050.30 57.75309
1050.40 58.59607
1050.50 58.6377
1050.60 58.6513
1050.70 58.55379
1050.80 58.36914
1050.90 58.16839
1051.00 58.15266
1051.10 58.12791
1051.20 57.76497
1051.30 56.44874
1051.40 54.99237
1051.50 53.97822
1051.60 53.62855
1051.70 53.29651
1051.80 53.61965
1051.90 53.99535
1052.00 54.29301
1052.10 54.22631
1052.20 54.10199
1052.30 54.13616
1052.40 54.55409
1052.50 54.99843
1052.60 56.19442
1052.70 57.76231
1052.80 59.27255
1052.90 59.98686
1053.00 60.54114
1053.10 60.61997
1053.20 59.82231
1053.30 58.91551
1053.40 58.63933
1053.50 59.1184
1053.60 59.56966
1053.70 59.79496
1053.80 59.9096
1053.90 59.77531
1054.00 59.11959
1054.10 58.35081
1054.20 58.23789
1054.30 58.88835
1054.40 59.59101
1054.50 59.5533
1054.60 59.09335
1054.70 58.43135
1054.80 57.29955
1054.90 56.07758
1055.00 55.63466
1055.10 56.31702
1055.20 57.09478
1055.30 57.90328
1055.40 58.59396
1055.50 59.09249
1055.60 58.39094
1055.70 57.52009
1055.80 56.51976
1055.90 55.43899
1056.00 54.2973
1056.10 53.46887
1056.20 52.85629
1056.30 52.30771
1056.40 52.4998
1056.50 52.75414
1056.60 53.15816
1056.70 53.87427
1056.80 54.62165
1056.90 54.94971
1057.00 54.91375
1057.10 54.93287
1057.20 55.24719
1057.30 55.6361
1057.40 56.14875
1057.50 56.8068
1057.60 57.44983
1057.70 57.80086
1057.80 57.8814
1057.90 57.98126
1058.00 57.98843
1058.10 57.99313
1058.20 58.01518
1058.30 58.05348
1058.40 58.14872
1058.50 57.58945
1058.60 56.33756
1058.70 55.05327
1058.80 54.4966
1058.90 54.16896
1059.00 53.94167
1059.10 54.227
1059.20 54.52726
1059.30 54.81604
1059.40 55.24616
1059.50 55.68264
1059.60 56.44681
1059.70 57.26093
1059.80 57.97578
1059.90 57.60732
1060.00 57.10751
1060.10 56.5999
1060.20 56.19285
1060.30 55.83904
1060.40 55.5035
1060.50 55.06991
1060.60 54.65097
1060.70 54.13781
1060.80 53.46559
1060.90 52.93001
1061.00 52.78157
1061.10 52.70762
1061.20 53.23109
1061.30 54.20678
1061.40 55.18161
1061.50 55.82543
1061.60 56.5552
1061.70 57.05023
1061.80 56.77572
1061.90 56.41219
1062.00 56.09772
1062.10 55.6599
1062.20 55.16703
1062.30 54.94748
1062.40 55.03817
1062.50 55.28043
1062.60 56.29192
1062.70 57.33077
1062.80 58.42098
1062.90 59.5533
1063.00 60.75635
1063.10 61.03869
1063.20 60.66089
1063.30 60.24328
1063.40 59.60126
1063.50 59.02435
1063.60 58.79377
1063.70 59.01113
1063.80 59.18269
1063.90 59.69457
1064.00 60.41223
1064.10 61.11327
1064.20 61.39602
1064.30 61.54986
1064.40 61.5744
1064.50 61.41247
1064.60 61.2914
1064.70 61.20062
1064.80 61.15432
1064.90 61.06937
1065.00 61.16161
1065.10 61.35966
1065.20 61.36542
1065.30 60.63828
1065.40 59.75951
1065.50 58.67333
1065.60 57.58116
1065.70 56.48994
1065.80 56.16564
1065.90 56.03458
1066.00 55.8923
1066.10 55.69709
1066.20 55.54472
1066.30 54.88934
1066.40 53.73641
1066.50 52.50854
1066.60 52.43629
1066.70 52.88634
1066.80 53.27675
1066.90 53.41642
1067.00 53.42517
1067.10 53.37568
1067.20 53.39332
1067.30 53.4164
1067.40 54.29879
1067.50 55.75981
1067.60 57.18367
1067.70 58.11337
1067.80 58.86493
1067.90 59.50321
1068.00 59.9273
1068.10 60.37373
1068.20 60.77249
1068.30 61.57868
1068.40 62.35275
1068.50 63.09273
1068.60 63.64912
1068.70 64.09552
1068.80 64.02856
1068.90 63.86937
1069.00 63.57567
1069.10 63.243
1069.20 62.86018
1069.30 62.57646
1069.40 62.34559
1069.50 61.95531
1069.60 60.95003
1069.70 59.74477
1069.80 58.87282
1069.90 58.69998
1070.00 58.54391
1070.10 58.46603
1070.20 58.34882
1070.30 58.18608
1070.40 57.85427
1070.50 57.53919
1070.60 57.64717
1070.70 58.48812
1070.80 59.42556
1070.90 59.94392
1071.00 59.79138
1071.10 59.63393
1071.20 59.34605
1071.30 59.04976
1071.40 59.15711
1071.50 60.13463
1071.60 61.23839
1071.70 61.5649
1071.80 61.30173
1071.90 61.08052
1072.00 60.94748
1072.10 60.91365
1072.20 60.83513
1072.30 60.5216
1072.40 60.19562
1072.50 59.36294
1072.60 58.31558
1072.70 57.17823
1072.80 57.44029
1072.90 58.06753
1073.00 58.73977
1073.10 59.4101
1073.20 60.12937
1073.30 60.30201
1073.40 59.55479
1073.50 58.7347
1073.60 58.46855
1073.70 58.62513
1073.80 58.86607
1073.90 59.59756
1074.00 60.28556
1074.10 60.95394
1074.20 61.66617
1074.30 62.48708
1074.40 62.63382
1074.50 62.38184
1074.60 62.16337
1074.70 62.16575
1074.80 62.36417
1074.90 62.58548
1075.00 62.60667
1075.10 62.55898
1075.20 62.00118
1075.30 61.1967
1075.40 60.40756
1075.50 59.88784
1075.60 59.28941
1075.70 59.16931
1075.80 60.11661
1075.90 61.23636
1076.00 61.99666
1076.10 62.16932
1076.20 62.40034
1076.30 62.2883
1076.40 62.08754
1076.50 61.95532
1076.60 62.00972
1076.70 62.05678
1076.80 62.08254
1076.90 62.30606
1077.00 62.55969
1077.10 62.6655
1077.20 62.63665
1077.30 62.55164
1077.40 62.25023
1077.50 61.91401
1077.60 61.27775
1077.70 60.45093
1077.80 59.5748
1077.90 59.80537
1078.00 60.43961
1078.10 61.02389
1078.20 61.35097
1078.30 61.62455
1078.40 61.72504
1078.50 61.77869
1078.60 61.90352
1078.70 61.76009
1078.80 61.15827
1078.90 60.53314
1079.00 59.66894
1079.10 58.86032
1079.20 58.18196
1079.30 57.64748
1079.40 57.13364
1079.50 57.04831
1079.60 57.30808
1079.70 57.51629
1079.80 57.98778
1079.90 58.51863
1080.00 59.02145
1080.10 59.41479
1080.20 59.7796
1080.30 59.99727
1080.40 60.15005
1080.50 60.32433
1080.60 60.86511
1080.70 61.48132
1080.80 61.99769
1080.90 62.19734
1081.00 62.31837
1081.10 62.36039
1081.20 62.35438
1081.30 62.3893
1081.40 62.43441
1081.50 62.4277
1081.60 62.48426
1081.70 62.97584
1081.80 63.56879
1081.90 63.93648
1082.00 63.88893
1082.10 63.87452
1082.20 63.35814
1082.30 62.63912
1082.40 61.96172
1082.50 61.51023
1082.60 61.04965
1082.70 60.75049
1082.80 60.77232
1082.90 60.83255
1083.00 61.12111
1083.10 61.46852
1083.20 61.76026
1083.30 62.17269
1083.40 62.81269
1083.50 63.27769
1083.60 63.23317
1083.70 63.13458
1083.80 62.99532
1083.90 62.85841
1084.00 62.68795
1084.10 62.64338
1084.20 62.65041
1084.30 62.61052
1084.40 62.50428
1084.50 62.46997
1084.60 62.05808
1084.70 61.16253
1084.80 60.18903
1084.90 60.17301
1085.00 60.43905
1085.10 60.80466
1085.20 61.44867
1085.30 62.3666
1085.40 62.62339
1085.50 62.03936
1085.60 61.21026
1085.70 61.37591
1085.80 62.01845
1085.90 62.65226
1086.00 63.31125
1086.10 64.05898
1086.20 64.7353
1086.30 65.16392
1086.40 65.60313
1086.50 65.39498
1086.60 64.80979
1086.70 64.22878
1086.80 63.73458
1086.90 63.35764
1087.00 63.43429
1087.10 64.11122
1087.20 64.83751
1087.30 65.01476
1087.40 64.6888
1087.50 64.36802
1087.60 63.45038
1087.70 62.40643
1087.80 61.90419
1087.90 62.52398
1088.00 63.29177
1088.10 63.57685
1088.20 63.22638
1088.30 62.90682
1088.40 62.61609
1088.50 62.3593
1088.60 62.32284
1088.70 62.83462
1088.80 63.41586
1088.90 63.39006
1089.00 62.97176
1089.10 62.53591
1089.20 62.38319
1089.30 62.40748
1089.40 62.43481
1089.50 62.36905
1089.60 62.10011
1089.70 62.18399
1089.80 62.84874
1089.90 63.56587
1090.00 64.39833
1090.10 65.16393
1090.20 65.83724
1090.30 65.9085
1090.40 65.86969
1090.50 65.68623
1090.60 65.30744
1090.70 65.00707
1090.80 64.49535
1090.90 63.68667
1091.00 62.82854
1091.10 61.89219
1091.20 60.97075
1091.30 60.56283
1091.40 60.90193
1091.50 61.24962
1091.60 61.99948
1091.70 63.03493
1091.80 64.02573
1091.90 64.32276
1092.00 64.59817
1092.10 64.66645
1092.20 64.32358
1092.30 63.91442
1092.40 63.87933
1092.50 64.07255
1092.60 64.25554
1092.70 64.16393
1092.80 64.11017
1092.90 64.06965
1093.00 63.97264
1093.10 63.7942
1093.20 63.58463
1093.30 63.39496
1093.40 63.24045
1093.50 63.05853
1093.60 62.99582
1093.70 62.93164
1093.80 62.77983
1093.90 62.29465
1094.00 62.39342
1094.10 63.18118
1094.20 64.09895
1094.30 64.15073
1094.40 63.80043
1094.50 63.38506
1094.60 62.40623
1094.70 61.32756
1094.80 60.72564
1094.90 61.10332
1095.00 61.42468
1095.10 62.24821
1095.20 63.17961
1095.30 64.09412
1095.40 64.8044
1095.50 65.59688
1095.60 65.99601
1095.70 65.74479
1095.80 65.40224
1095.90 65.07138
1096.00 65.02135
1096.10 64.95172
1096.20 65.0835
1096.30 65.2005
1096.40 65.30299
1096.50 65.30697
1096.60 65.30423
1096.70 64.91495
1096.80 64.18835
1096.90 63.51071
1097.00 62.37359
1097.10 61.07831
1097.20 59.9971
1097.30 59.83523
1097.40 59.73345
1097.50 60.12528
1097.60 60.86526
1097.70 61.59325
1097.80 62.15349
1097.90 62.85008
1098.00 63.55705
1098.10 64.07681
1098.20 64.44146
1098.30 64.1913
1098.40 63.53043
1098.50 62.96106
1098.60 62.71216
1098.70 62.38838
1098.80 62.06382
1098.90 62.00984
1099.00 62.03589
1099.10 62.14235
1099.20 62.3922
1099.30 62.61757
1099.40 63.18804
1099.50 63.97868
1099.60 64.73933
1099.70 64.682
1099.80 64.51412
1099.90 64.39555
1100.00 64.24704
1100.10 64.03691
1100.20 63.69571
1100.30 63.27631
1100.40 62.87262
1100.50 62.35711
1100.60 61.83068
1100.70 61.62232
1100.80 62.08026
1100.90 62.64441
1101.00 63.0721
1101.10 63.25638
1101.20 63.40571
1101.30 63.67789
1101.40 64.13202
1101.50 64.56212
1101.60 64.69501
1101.70 64.80197
1101.80 64.34356
1101.90 63.30614
1102.00 62.2869
1102.10 61.57566
1102.20 60.94489
1102.30 60.28674
1102.40 59.66788
1102.50 58.86153
1102.60 58.98361
1102.70 60.25461
1102.80 61.6695
1102.90 62.55866
1103.00 63.26572
1103.10 63.89973
1103.20 63.63598
1103.30 63.06108
1103.40 62.04988
1103.50 60.44228
1103.60 58.6977
1103.70 58.06497
1103.80 58.26152
1103.90 58.39964
1104.00 58.93692
1104.10 59.73813
1104.20 60.52957
1104.30 60.98335
1104.40 61.27421
1104.50 61.27672
1104.60 61.43198
1104.70 61.56564
1104.80 61.50796
1104.90 61.57744
1105.00 61.72935
1105.10 61.6625
1105.20 61.4613
1105.30 60.46317
1105.40 59.06251
1105.50 57.64607
1105.60 57.26079
1105.70 56.90401
1105.80 56.76143
1105.90 57.37978
1106.00 58.25876
1106.10 58.74398
1106.20 58.83097
1106.30 58.90207
1106.40 59.0338
1106.50 59.20611
1106.60 59.29679
1106.70 59.1203
1106.80 59.00399
1106.90 58.5964
1107.00 57.7916
1107.10 56.8802
1107.20 56.60405
1107.30 56.73476
1107.40 56.96488
1107.50 57.76394
1107.60 58.75034
1107.70 59.25835
1107.80 59.14018
1107.90 58.91461
1108.00 59.03843
1108.10 59.2475
1108.20 59.50613
1108.30 60.16357
1108.40 60.9994
1108.50 61.74414
1108.60 62.29094
1108.70 62.87701
1108.80 62.92697
1108.90 62.58947
1109.00 62.2234
1109.10 61.69579
1109.20 61.13598
1109.30 60.9524
1109.40 61.4632
1109.50 62.01228
1109.60 62.45095
1109.70 62.88956
1109.80 63.36788
1109.90 63.25228
1110.00 62.99916
1110.10 62.52289
1110.20 61.35682
1110.30 60.20749
1110.40 59.08445
1110.50 57.9438
1110.60 56.71121
1110.70 56.85521
1110.80 57.3718
1110.90 57.76196
1111.00 57.73536
1111.10 57.65215
1111.20 57.40568
1111.30 57.06932
1111.40 56.71818
1111.50 56.85647
1111.60 57.09757
1111.70 57.33427
1111.80 57.73861
1111.90 58.27792
1112.00 58.52472
1112.10 58.28505
1112.20 58.00555
1112.30 57.8831
1112.40 57.80607
1112.50 57.81076
1112.60 58.38719
1112.70 59.13359
1112.80 59.98284
1112.90 60.89236
1113.00 61.8167
1113.10 62.24478
1113.20 62.27305
1113.30 62.29604
1113.40 62.17385
1113.50 62.06289
1113.60 61.52642
1113.70 60.20363
1113.80 58.84992
1113.90 58.30673
1114.00 58.56717
1114.10 58.73461
1114.20 59.4961
1114.30 60.21983
1114.40 61.08319
1114.50 62.14625
1114.60 63.24768
1114.70 63.40822
1114.80 62.75189
1114.90 62.12881
1115.00 61.09598
1115.10 60.22337
1115.20 59.7703
1115.30 60.46733
1115.40 61.36656
1115.50 61.89763
1115.60 61.93328
1115.70 61.85986
1115.80 61.80592
1115.90 61.58182
1116.00 61.34084
1116.10 61.11209
1116.20 61.02731
1116.30 61.04826
1116.40 61.19495
1116.50 61.34649
1116.60 61.44476
1116.70 61.70377
1116.80 61.83654
1116.90 61.25324
1117.00 60.41488
1117.10 59.50987
1117.20 58.54245
1117.30 57.55409
1117.40 56.79091
1117.50 56.41446
1117.60 56.09417
1117.70 56.41065
1117.80 56.56159
1117.90 56.92237
1118.00 57.74543
1118.10 58.7042
1118.20 59.41882
1118.30 60.25972
1118.40 61.12544
1118.50 62.10324
1118.60 62.81696
1118.70 63.11118
1118.80 62.59374
1118.90 62.07183
1119.00 61.73367
1119.10 61.39744
1119.20 61.01818
1119.30 60.58548
1119.40 60.0654
1119.50 59.52587
1119.60 59.33777
1119.70 59.06538
1119.80 58.78565
1119.90 58.55495
1120.00 58.42179
1120.10 58.29418
1120.20 58.30462
1120.30 58.58425
1120.40 58.85369
1120.50 59.00341
1120.60 59.81427
1120.70 60.67295
1120.80 61.59863
1120.90 61.49403
1121.00 61.11385
1121.10 60.77671
1121.20 60.42758
1121.30 60.3592
1121.40 60.28414
1121.50 60.25657
1121.60 60.01763
1121.70 59.71526
1121.80 59.41491
1121.90 59.07898
1122.00 58.80235
1122.10 58.40176
1122.20 58.21028
1122.30 58.23765
1122.40 58.19236
1122.50 58.70221
1122.60 60.02733
1122.70 61.41389
1122.80 62.70079
1122.90 63.37088
1123.00 63.88697
1123.10 64.22353
1123.20 63.47888
1123.30 62.38837
1123.40 61.31689
1123.50 60.32935
1123.60 60.05687
1123.70 59.71941
1123.80 59.92399
1123.90 60.49542
1124.00 61.07838
1124.10 61.62386
1124.20 62.02236
1124.30 62.37085
1124.40 62.70815
1124.50 63.03764
1124.60 63.39011
1124.70 63.75514
1124.80 63.45225
1124.90 62.50694
1125.00 61.58166
1125.10 60.33135
1125.20 59.74011
1125.30 59.2203
1125.40 59.44325
1125.50 60.62293
1125.60 61.78626
1125.70 62.86988
1125.80 63.16245
1125.90 63.13338
1126.00 63.11963
1126.10 62.79397
1126.20 62.64903
1126.30 62.49987
1126.40 62.42464
1126.50 62.4561
1126.60 62.49236
1126.70 62.5842
1126.80 62.61904
1126.90 62.59646
1127.00 62.56639
1127.10 62.55971
1127.20 62.62091
1127.30 62.69427
1127.40 62.82657
1127.50 62.90045
1127.60 62.97273
1127.70 62.79318
1127.80 62.61116
1127.90 62.43316
1128.00 62.30829
1128.10 62.20658
1128.20 62.08766
1128.30 62.00488
1128.40 62.27521
1128.50 62.58805
1128.60 62.89827
1128.70 62.96476
1128.80 62.79844
1128.90 62.64387
1129.00 62.38301
1129.10 62.02192
1129.20 61.66891
1129.30 61.48575
1129.40 61.87787
1129.50 62.35237
1129.60 62.80553
1129.70 63.21166
1129.80 63.72708
1129.90 64.24399
1130.00 64.32489
1130.10 63.83514
1130.20 63.39559
1130.30 62.78405
1130.40 62.01932
1130.50 61.23675
1130.60 60.52086
1130.70 60.00837
1130.80 59.55432
1130.90 59.12324
1131.00 59.08235
1131.10 59.23015
1131.20 59.37393
1131.30 59.72812
1131.40 60.1084
1131.50 60.49695
1131.60 60.81889
1131.70 61.03593
1131.80 61.25454
1131.90 61.42964
1132.00 61.52626
1132.10 61.55765
1132.20 61.59275
1132.30 61.61878
1132.40 61.69547
1132.50 61.7675
1132.60 61.65255
1132.70 61.41507
1132.80 61.17646
1132.90 61.02939
1133.00 60.941
1133.10 60.84966
1133.20 60.71806
1133.30 60.49364
1133.40 60.24131
1133.50 59.98618
1133.60 59.47672
1133.70 58.87288
1133.80 58.26954
1133.90 57.44848
1134.00 56.59873
1134.10 55.75088
1134.20 55.10989
1134.30 55.08595
1134.40 55.16122
1134.50 55.45061
1134.60 56.31602
1134.70 57.16471
1134.80 57.9914
1134.90 59.33435
1135.00 60.57206
1135.10 61.84606
1135.20 61.99728
1135.30 61.54039
1135.40 61.09716
1135.50 60.48536
1135.60 59.41799
1135.70 58.27724
1135.80 57.27828
1135.90 57.1957
1136.00 57.56495
1136.10 57.91814
1136.20 58.50902
1136.30 58.79909
1136.40 59.11873
1136.50 59.02464
1136.60 58.55933
1136.70 58.09896
1136.80 57.49293
1136.90 56.78355
1137.00 56.078
1137.10 55.46072
1137.20 54.95526
1137.30 54.43168
1137.40 53.91841
1137.50 53.24853
1137.60 52.68272
1137.70 52.15672
1137.80 51.25022
1137.90 49.55531
1138.00 47.92125
1138.10 45.9817
1138.20 43.81106
1138.30 41.57126
1138.40 39.88622
1138.50 39.87511
1138.60 40.60551
1138.70 41.2274
1138.80 43.24041
1138.90 45.30282
1139.00 47.43989
1139.10 49.23154
1139.20 50.36677
1139.30 51.56948
1139.40 52.25411
1139.50 52.06606
1139.60 51.8004
1139.70 51.40934
1139.80 50.55249
1139.90 49.70684
1140.00 48.89923
1140.10 47.25214
1140.20 45.08155
1140.30 42.96709
1140.40 40.456
1140.50 37.85441
1140.60 35.1083
1140.70 33.61647
1140.80 34.37185
1140.90 35.51567
1141.00 36.90478
1141.10 39.42589
1141.20 42.03613
1141.30 44.69307
1141.40 46.99489
1141.50 49.30439
1141.60 51.65623
1141.70 53.43727
1141.80 54.33903
1141.90 55.27441
1142.00 56.09118
1142.10 56.77388
1142.20 57.44279
1142.30 57.98788
1142.40 57.95178
1142.50 57.84005
1142.60 57.72032
1142.70 57.99962
1142.80 58.37053
1142.90 58.74535
1143.00 58.98721
1143.10 58.93469
1143.20 58.89181
1143.30 58.82886
1143.40 58.83628
1143.50 58.87958
1143.60 58.92616
1143.70 58.89021
1143.80 58.81063
1143.90 58.74944
1144.00 58.88253
1144.10 59.24121
1144.20 59.5731
1144.30 59.92487
1144.40 60.16014
1144.50 60.3945
1144.60 60.44526
1144.70 60.19366
1144.80 59.91724
1144.90 59.726
1145.00 60.01725
1145.10 60.37087
1145.20 60.72781
1145.30 60.76677
1145.40 60.66845
1145.50 60.57273
1145.60 60.40267
1145.70 60.22512
1145.80 60.04559
1145.90 60.01604
1146.00 60.188
1146.10 60.42022
1146.20 60.61505
1146.30 60.74584
1146.40 60.84009
1146.50 60.93352
1146.60 61.24119
1146.70 61.65417
1146.80 62.08717
1146.90 62.33207
1147.00 62.08124
1147.10 61.84139
1147.20 61.52743
1147.30 61.41462
1147.40 61.37897
1147.50 61.35327
1147.60 61.34118
1147.70 61.36062
1147.80 61.37902
1147.90 61.44157
1148.00 61.35784
1148.10 61.28077
1148.20 61.37965
1148.30 61.38579
1148.40 61.41637
1148.50 61.40458
1148.60 61.54774
1148.70 61.76009
1148.80 62.03824
1148.90 62.43044
1149.00 62.88974
1149.10 63.3545
1149.20 63.23015
1149.30 62.67751
1149.40 62.14107
1149.50 61.75307
1149.60 61.79543
1149.70 61.81898
1149.80 61.90425
1149.90 62.09155
1150.00 62.31043
1150.10 62.44303
1150.20 62.12121
1150.30 61.64925
1150.40 61.17502
1150.50 61.14634
1150.60 61.31899
1150.70 61.48177
1150.80 61.78846
1150.90 62.17904
1151.00 62.5784
1151.10 62.79303
1151.20 62.74917
1151.30 62.66578
1151.40 62.5419
1151.50 62.21369
1151.60 61.78847
1151.70 61.36129
1151.80 61.12237
1151.90 61.08833
1152.00 61.05208
1152.10 61.25249
1152.20 61.21716
1152.30 61.20651
1152.40 60.87936
1152.50 60.38172
1152.60 59.92238
1152.70 59.61233
1152.80 59.55922
1152.90 59.62873
1153.00 59.69827
1153.10 59.86491
1153.20 59.83357
1153.30 59.80354
1153.40 59.71564
1153.50 59.70591
1153.60 59.68239
1153.70 59.79883
1153.80 60.18257
1153.90 60.64079
1154.00 61.08479
1154.10 61.48248
1154.20 61.86503
1154.30 62.25804
1154.40 62.28616
1154.50 62.08526
1154.60 61.90021
1154.70 61.53165
1154.80 61.03677
1154.90 60.51618
1155.00 60.21892
1155.10 60.31864
1155.20 60.47039
1155.30 60.56971
1155.40 60.58662
1155.50 60.60184
1155.60 60.6433
1155.70 60.95457
1155.80 61.36732
1155.90 61.78935
1156.00 62.09574
1156.10 62.05757
1156.20 62.018
1156.30 61.90365
1156.40 61.90685
1156.50 61.95939
1156.60 62.05031
1156.70 62.18005
1156.80 62.21805
1156.90 62.21966
1157.00 61.77246
1157.10 61.25469
1157.20 60.72376
1157.30 60.59832
1157.40 60.74675
1157.50 60.89424
1157.60 60.93683
1157.70 60.94787
1157.80 60.96681
1157.90 61.02081
1158.00 61.15119
1158.10 61.3056
1158.20 61.4639
1158.30 61.63517
1158.40 61.69586
1158.50 61.76089
1158.60 61.54243
1158.70 61.21704
1158.80 60.89989
1158.90 60.55642
1159.00 60.19933
1159.10 59.85261
1159.20 59.45113
1159.30 58.79156
1159.40 58.01189
1159.50 57.25081
1159.60 56.72881
1159.70 56.42162
1159.80 56.07796
1159.90 56.33875
1160.00 56.9013
1160.10 57.46013
1160.20 57.97202
1160.30 58.46331
1160.40 58.9819
1160.50 59.32899
1160.60 59.362
1160.70 59.22437
1160.80 59.0504
1160.90 58.23112
1161.00 57.2638
1161.10 56.24532
1161.20 56.22252
1161.30 56.90693
1161.40 57.54676
1161.50 58.57244
1161.60 59.79929
1161.70 61.03596
1161.80 61.75039
1161.90 61.49563
1162.00 61.04453
1162.10 60.62296
1162.20 60.36441
1162.30 60.19534
1162.40 60.01329
1162.50 60.13409
1162.60 60.47019
1162.70 60.79891
1162.80 61.10017
1162.90 61.41277
1163.00 61.73829
1163.10 62.05111
1163.20 62.28871
1163.30 62.43876
1163.40 62.48917
1163.50 62.10843
1163.60 61.50839
1163.70 60.93578
1163.80 59.80485
1163.90 58.59231
1164.00 57.35062
1164.10 56.80166
1164.20 56.90356
1164.30 57.05745
1164.40 57.50238
1164.50 58.4561
1164.60 59.49225
1164.70 60.41024
1164.80 60.80694
1164.90 61.05581
1165.00 61.31762
1165.10 61.17142
1165.20 60.78581
1165.30 60.40643
1165.40 59.93904
1165.50 59.43064
1165.60 58.90918
1165.70 58.59052
1165.80 58.73119
1165.90 59.03661
1166.00 59.40516
1166.10 60.04229
1166.20 60.6758
1166.30 61.31224
1166.40 61.65755
1166.50 61.77564
1166.60 61.90078
1166.70 61.82116
1166.80 61.61215
1166.90 61.413
1167.00 61.11736
1167.10 60.73605
1167.20 60.35796
1167.30 60.03326
1167.40 59.95429
1167.50 59.86155
1167.60 59.76702
1167.70 59.5909
1167.80 59.40723
1167.90 59.21714
1168.00 59.01223
1168.10 58.76922
1168.20 58.53462
1168.30 58.09645
1168.40 57.37072
1168.50 56.58437
1168.60 55.65447
1168.70 54.01449
1168.80 52.11427
1168.90 50.28186
1169.00 46.71646
1169.10 42.82352
1169.20 38.84539
1169.30 36.72884
1169.40 36.46879
1169.50 36.20887
1169.60 37.48565
1169.70 40.74547
1169.80 44.28692
1169.90 47.56724
1170.00 50.11481
1170.10 52.37623
1170.20 54.6713
1170.30 56.12188
1170.40 57.27544
1170.50 58.45009
1170.60 59.06239
1170.70 59.38559
1170.80 59.69902
1170.90 59.85607
1171.00 59.73296
1171.10 59.55467
1171.20 59.40376
1171.30 59.41365
1171.40 59.50374
1171.50 59.60072
1171.60 59.72091
1171.70 59.68395
1171.80 59.65664
1171.90 59.34595
1172.00 59.04185
1172.10 58.72886
1172.20 58.62244
1172.30 58.68118
1172.40 58.76673
1172.50 58.89091
1172.60 59.09573
1172.70 59.30739
1172.80 59.50733
1172.90 59.66751
1173.00 59.87343
1173.10 60.08526
1173.20 60.18028
1173.30 60.02024
1173.40 59.87881
1173.50 59.59298
1173.60 59.20628
1173.70 58.81348
1173.80 58.59132
1173.90 58.74127
1174.00 59.00331
1174.10 59.27823
1174.20 59.69203
1174.30 60.11831
1174.40 60.54145
1174.50 60.72419
1174.60 60.8384
1174.70 60.96885
1174.80 61.01691
1174.90 60.90676
1175.00 60.76828
1175.10 60.50932
1175.20 60.09208
1175.30 59.6636
1175.40 59.26399
1175.50 59.10825
1175.60 59.02845
1175.70 58.93743
1175.80 58.99971
1175.90 58.87253
1176.00 58.763
1176.10 58.35308
1176.20 57.7447
1176.30 57.11739
1176.40 56.42718
1176.50 55.67295
1176.60 54.94654
1176.70 54.03151
1176.80 52.18866
1176.90 49.86599
1177.00 47.61195
1177.10 43.79758
1177.20 39.53322
1177.30 35.19906
1177.40 32.01942
1177.50 30.26178
1177.60 28.59042
1177.70 28.46395
1177.80 31.23024
1177.90 34.54834
1178.00 37.85481
1178.10 41.05872
1178.20 44.07659
1178.30 47.15944
1178.40 49.06261
1178.50 50.62388
1178.60 52.20266
1178.70 53.45902
1178.80 54.39686
1178.90 55.31461
1179.00 56.02743
1179.10 56.52261
1179.20 56.96957
1179.30 57.35774
1179.40 57.43958
1179.50 57.44658
1179.60 57.45741
1179.70 57.55234
1179.80 57.65754
1179.90 57.75527
1180.00 57.76529
1180.10 57.88216
1180.20 58.00338
1180.30 58.30964
1180.40 58.76902
1180.50 59.21929
1180.60 59.54543
1180.70 59.50672
1180.80 59.32929
1180.90 59.15442
1181.00 58.94936
1181.10 58.77524
1181.20 58.6003
1181.30 58.427
1181.40 58.27936
1181.50 58.13456
1181.60 58.07106
1181.70 58.14426
1181.80 58.2556
1181.90 58.4174
1182.00 58.66281
1182.10 58.92623
1182.20 59.16374
1182.30 59.19466
1182.40 59.10742
1182.50 59.04312
1182.60 58.58135
1182.70 57.85412
1182.80 57.13902
1182.90 56.50861
1183.00 56.04314
1183.10 55.60655
1183.20 55.36995
1183.30 55.71822
1183.40 56.12973
1183.50 56.51843
1183.60 56.6642
1183.70 56.61729
1183.80 56.58101
1183.90 56.39649
1184.00 56.45887
1184.10 56.48899
1184.20 56.9773
1184.30 57.89176
1184.40 58.87004
1184.50 59.51329
1184.60 59.59416
1184.70 59.45647
1184.80 59.29286
1184.90 58.75673
1185.00 58.17424
1185.10 57.57636
1185.20 57.24511
1185.30 57.07972
1185.40 56.8934
1185.50 57.01047
1185.60 57.35955
1185.70 57.74678
1185.80 58.08275
1185.90 58.32201
1186.00 58.51168
1186.10 58.67028
1186.20 58.75659
1186.30 58.91866
1186.40 59.08521
1186.50 59.25259
1186.60 59.24615
1186.70 59.25054
1186.80 58.97347
1186.90 58.51271
1187.00 58.01776
1187.10 57.6898
1187.20 57.58069
1187.30 57.55444
1187.40 57.61759
1187.50 58.12179
1187.60 58.68966
1187.70 59.26781
1187.80 59.18441
1187.90 58.89836
1188.00 58.64679
1188.10 57.91685
1188.20 56.64036
1188.30 55.35594
1188.40 53.81264
1188.50 51.96417
1188.60 50.10827
1188.70 48.9204
1188.80 49.66176
1188.90 50.9777
1189.00 52.26207
1189.10 53.9105
1189.20 55.41708
1189.30 56.98666
1189.40 57.63675
1189.50 57.88051
1189.60 58.09821
1189.70 58.4403
1189.80 58.74088
1189.90 59.00645
1190.00 59.21829
1190.10 59.2728
1190.20 59.23522
1190.30 59.16548
1190.40 58.73733
1190.50 58.30671
1190.60 57.87952
1190.70 57.53097
1190.80 57.29012
1190.90 57.02137
1191.00 57.0046
1191.10 57.31369
1191.20 57.68874
1191.30 58.03963
1191.40 58.28249
1191.50 58.44505
1191.60 58.60117
1191.70 58.67211
1191.80 58.70718
1191.90 58.73995
1192.00 58.72433
1192.10 58.82004
1192.20 58.92453
1192.30 58.91187
1192.40 58.70894
1192.50 58.47079
1192.60 58.30275
1192.70 58.25952
1192.80 58.26421
1192.90 58.28136
1193.00 58.36673
1193.10 58.49164
1193.20 58.62066
1193.30 58.73018
1193.40 58.7605
1193.50 58.80924
1193.60 58.48994
1193.70 57.83943
1193.80 57.136
1193.90 56.46656
1194.00 55.8859
1194.10 55.36537
1194.20 54.93989
1194.30 54.97886
1194.40 55.15855
1194.50 55.34317
1194.60 55.35826
1194.70 55.12486
1194.80 54.91394
1194.90 54.2546
1195.00 53.38281
1195.10 52.48046
1195.20 52.08102
1195.30 52.40376
1195.40 52.93214
1195.50 53.55651
1195.60 54.47788
1195.70 55.36723
1195.80 56.28428
1195.90 56.2191
1196.00 55.79114
1196.10 55.36862
1196.20 54.91971
1196.30 54.51344
1196.40 54.10543
1196.50 53.87184
1196.60 53.86071
1196.70 53.88314
1196.80 53.88257
1196.90 53.81019
1197.00 53.71609
1197.10 53.55652
1197.20 52.47843
1197.30 51.05239
1197.40 49.6339
1197.50 48.16282
1197.60 47.01577
1197.70 45.75675
1197.80 45.55077
1197.90 46.31058
1198.00 47.26091
1198.10 48.17627
1198.20 48.97549
1198.30 49.69163
1198.40 50.42196
1198.50 51.25555
1198.60 52.24344
1198.70 53.24712
1198.80 53.68307
1198.90 53.59105
1199.00 53.54222
1199.10 53.08783
1199.20 52.22394
1199.30 51.31618
1199.40 50.6568
1199.50 50.4851
1199.60 50.47424
1199.70 50.52302
1199.80 50.8584
1199.90 51.26432
1200.00 51.67821
