# Version 2.1 - nm, norm@500 to 1, cut digits
# Wavelength(nm)  Flambda(ergs/cm^s/s/nm)
300.00 0.005664508
300.10 0.007618848
300.20 0.008766684
300.30 0.009186808
300.40 0.009242758
300.50 0.00922622
300.60 0.009230594
300.70 0.009250165
300.80 0.00928069
300.90 0.009320693
301.00 0.009370305
301.10 0.009429664
301.20 0.009497229
301.30 0.009569542
301.40 0.009643494
301.50 0.009717533
301.60 0.00979135
301.70 0.009865037
301.80 0.009938657
301.90 0.01001225
302.00 0.01008584
302.10 0.01015943
302.20 0.01023301
302.30 0.01030658
302.40 0.01038009
302.50 0.0104535
302.60 0.01052675
302.70 0.01060006
302.80 0.01067462
302.90 0.01075278
303.00 0.01083717
303.10 0.01092897
303.20 0.01102699
303.30 0.01112861
303.40 0.01123149
303.50 0.01133442
303.60 0.01143719
303.70 0.01153986
303.80 0.01164248
303.90 0.01174508
304.00 0.01184768
304.10 0.01195027
304.20 0.01205288
304.30 0.01215555
304.40 0.01225838
304.50 0.0123615
304.60 0.01246515
304.70 0.01256859
304.80 0.01266822
304.90 0.01275683
305.00 0.01282638
305.10 0.0128733
305.20 0.01290116
305.30 0.012918
305.40 0.01293103
305.50 0.01294386
305.60 0.01295721
305.70 0.01297085
305.80 0.01298466
305.90 0.01299852
306.00 0.01301239
306.10 0.01302627
306.20 0.01304014
306.30 0.01305402
306.40 0.0130679
306.50 0.01308177
306.60 0.01309564
306.70 0.01310952
306.80 0.0131234
306.90 0.01313731
307.00 0.01315125
307.10 0.01316525
307.20 0.01317929
307.30 0.01319335
307.40 0.01320742
307.50 0.01322149
307.60 0.01323556
307.70 0.01324963
307.80 0.0132637
307.90 0.01327777
308.00 0.01329184
308.10 0.01330591
308.20 0.01331994
308.30 0.01333382
308.40 0.01334732
308.50 0.01336006
308.60 0.01337151
308.70 0.01338346
308.80 0.01340494
308.90 0.01345402
309.00 0.01355079
309.10 0.0137042
309.20 0.0139053
309.30 0.014134
309.40 0.01437223
309.50 0.01461096
309.60 0.0148484
309.70 0.01508508
309.80 0.01532138
309.90 0.01555753
310.00 0.01579364
310.10 0.01602975
310.20 0.0162659
310.30 0.0165022
310.40 0.01673888
310.50 0.01697633
310.60 0.01721507
310.70 0.01745331
310.80 0.01768197
310.90 0.01788289
311.00 0.01803587
311.10 0.0181319
311.20 0.01817999
311.30 0.01820034
311.40 0.01821111
311.50 0.01822138
311.60 0.01823294
311.70 0.01824527
311.80 0.01825798
311.90 0.01827084
312.00 0.01828374
312.10 0.01829664
312.20 0.0183095
312.30 0.01832216
312.40 0.01833435
312.50 0.0183456
312.60 0.01835525
312.70 0.01836553
312.80 0.01838763
312.90 0.01844399
313.00 0.01855956
313.10 0.01874547
313.20 0.01899058
313.30 0.01926996
313.40 0.01956116
313.50 0.01985299
313.60 0.02014322
313.70 0.02043251
313.80 0.02072132
313.90 0.02100994
314.00 0.02129852
314.10 0.0215871
314.20 0.02187565
314.30 0.02216406
314.40 0.02245215
314.50 0.02273958
314.60 0.0230259
314.70 0.02331265
314.80 0.02360763
314.90 0.02392647
315.00 0.02428651
315.10 0.02469552
315.20 0.02514575
315.30 0.02561982
315.40 0.02610213
315.50 0.02658487
315.60 0.02706649
315.70 0.02754746
315.80 0.02802811
315.90 0.02850861
316.00 0.02898909
316.10 0.02946957
316.20 0.02995016
316.30 0.03043123
316.40 0.03091352
316.50 0.03139823
316.60 0.03188702
316.70 0.03237421
316.80 0.03283114
316.90 0.03320041
317.00 0.03341818
317.10 0.03345598
317.20 0.03334228
317.30 0.03314091
317.40 0.03290929
317.50 0.03267606
317.60 0.03244693
317.70 0.0322202
317.80 0.0319947
317.90 0.03176968
318.00 0.03154476
318.10 0.03131985
318.20 0.03109486
318.30 0.03086949
318.40 0.03064319
318.50 0.03041505
318.60 0.03018377
318.70 0.02995372
318.80 0.02974683
318.90 0.02960705
319.00 0.02958325
319.10 0.0296972
319.20 0.02992713
319.30 0.03022416
319.40 0.03054436
319.50 0.03086578
319.60 0.03118407
319.70 0.03150051
319.80 0.03181602
319.90 0.03213117
320.00 0.03244622
320.10 0.03276128
320.20 0.03307637
320.30 0.03339159
320.40 0.03370716
320.50 0.03402342
320.60 0.03434083
320.70 0.03465779
320.80 0.03496618
320.90 0.03524975
321.00 0.03549043
321.10 0.03568015
321.20 0.03582699
321.30 0.03594901
321.40 0.03606245
321.50 0.03617545
321.60 0.0362896
321.70 0.03640444
321.80 0.03651962
321.90 0.03663494
322.00 0.03675029
322.10 0.03686564
322.20 0.03698087
322.30 0.03709561
322.40 0.03720908
322.50 0.03732007
322.60 0.03742682
322.70 0.03753522
322.80 0.03767492
322.90 0.03790528
323.00 0.03829231
323.10 0.03886544
323.20 0.03959525
323.30 0.04041571
323.40 0.04126747
323.50 0.04212088
323.60 0.04297006
323.70 0.04381674
323.80 0.04466217
323.90 0.0455071
324.00 0.04635191
324.10 0.04719672
324.20 0.04804155
324.30 0.04888647
324.40 0.04973158
324.50 0.05057711
324.60 0.05142331
324.70 0.05226926
324.80 0.05311011
324.90 0.05393624
325.00 0.05473692
325.10 0.05550737
325.20 0.05625237
325.30 0.05698265
325.40 0.05770784
325.50 0.05843276
325.60 0.05915837
325.70 0.05988438
325.80 0.0606106
325.90 0.0613369
326.00 0.06206322
326.10 0.06278954
326.20 0.06351581
326.30 0.06424192
326.40 0.06496758
326.50 0.06569237
326.60 0.06641568
326.70 0.06713956
326.80 0.06787441
326.90 0.06864099
327.00 0.06946243
327.10 0.07034902
327.20 0.07129047
327.30 0.07226365
327.40 0.0732478
327.50 0.07423252
327.60 0.07521576
327.70 0.07619813
327.80 0.07718005
327.90 0.0781618
328.00 0.07914352
328.10 0.08012523
328.20 0.08110717
328.30 0.08209015
328.40 0.08307571
328.50 0.0840664
328.60 0.08506576
328.70 0.08606174
328.80 0.08699343
328.90 0.08773889
329.00 0.08816252
329.10 0.08820383
329.20 0.0879233
329.30 0.08745655
329.40 0.0869255
329.50 0.08639107
329.60 0.08586532
329.70 0.0853447
329.80 0.08482666
329.90 0.08430965
330.00 0.08379287
330.10 0.0832761
330.20 0.08275914
330.30 0.08224143
330.40 0.0817218
330.50 0.08119837
330.60 0.08066849
330.70 0.08014113
330.80 0.07966146
330.90 0.07931994
331.00 0.07921716
331.10 0.07939798
331.20 0.07981754
331.30 0.08037525
331.40 0.08098064
331.50 0.08158855
331.60 0.08219002
331.70 0.08278769
331.80 0.08338344
331.90 0.08397843
332.00 0.08457324
332.10 0.08516806
332.20 0.08576298
332.30 0.08635839
332.40 0.08695501
332.50 0.08755404
332.60 0.08815714
332.70 0.08875866
332.80 0.08932998
332.90 0.08981383
333.00 0.09014652
333.10 0.09029966
333.20 0.09030164
333.30 0.09021615
333.40 0.09010046
333.50 0.08998319
333.60 0.08986999
333.70 0.0897592
333.80 0.08964963
333.90 0.08954053
334.00 0.08943155
334.10 0.08932108
334.20 0.08920669
334.30 0.08908703
334.40 0.08896198
334.50 0.08883263
334.60 0.08880305
334.70 0.08910444
334.80 0.08981692
334.90 0.09050623
335.00 0.09035871
335.10 0.08914069
335.20 0.08809504
335.30 0.08957074
335.40 0.09522908
335.50 0.1042051
335.60 0.1129959
335.70 0.117518
335.80 0.1157589
335.90 0.10878
336.00 0.09957742
336.10 0.09121715
336.20 0.08581514
336.30 0.08422862
336.40 0.08567843
336.50 0.08784217
336.60 0.08823182
336.70 0.08625111
336.80 0.08396246
336.90 0.08448106
337.00 0.0893244
337.10 0.09695912
337.20 0.1036936
337.30 0.106227
337.40 0.1039748
337.50 0.09943895
337.60 0.09629586
337.70 0.0966679
337.80 0.09987846
337.90 0.1036912
338.00 0.1064065
338.10 0.1075684
338.20 0.106932
338.30 0.103668
338.40 0.09746688
338.50 0.09018146
338.60 0.08554403
338.70 0.08646442
338.80 0.09229478
338.90 0.09903198
339.00 0.102532
339.10 0.1019111
339.20 0.1000996
339.30 0.1009807
339.40 0.1058372
339.50 0.1125347
339.60 0.1178576
339.70 0.1202314
339.80 0.1201284
339.90 0.1184563
340.00 0.1155728
340.10 0.1118347
340.20 0.1080712
340.30 0.104899
340.40 0.1018502
340.50 0.09782973
340.60 0.09254725
340.70 0.08710955
340.80 0.0831191
340.90 0.08148288
341.00 0.08213291
341.10 0.08451327
341.20 0.08799467
341.30 0.09184157
341.40 0.09518328
341.50 0.09735909
341.60 0.09832667
341.70 0.09868909
341.80 0.0992502
341.90 0.1004318
342.00 0.1019054
342.10 0.1026547
342.20 0.1015906
342.30 0.09845701
342.40 0.09432148
342.50 0.09102622
342.60 0.08993932
342.70 0.09109359
342.80 0.09336908
342.90 0.09537545
343.00 0.09630912
343.10 0.09631657
343.20 0.09618697
343.30 0.09659716
343.40 0.09753056
343.50 0.09841503
343.60 0.0987319
343.70 0.09833603
343.80 0.09733325
343.90 0.09597711
344.00 0.09473538
344.10 0.09415045
344.20 0.09435969
344.30 0.09485262
344.40 0.09491291
344.50 0.09429645
344.60 0.09342236
344.70 0.09299816
344.80 0.09356589
344.90 0.09532039
345.00 0.09816953
345.10 0.1018113
345.20 0.1057471
345.30 0.1092782
345.40 0.1116163
345.50 0.1122704
345.60 0.1114678
345.70 0.110118
345.80 0.1091913
345.90 0.1090385
346.00 0.1092318
346.10 0.1089305
346.20 0.1074611
346.30 0.1048401
346.40 0.1019426
346.50 0.09999036
346.60 0.09957631
346.70 0.1001462
346.80 0.100512
346.90 0.09981679
347.00 0.09797296
347.10 0.09549832
347.20 0.09325583
347.30 0.0922097
347.40 0.09297245
347.50 0.09531785
347.60 0.09828668
347.70 0.1009284
347.80 0.1029446
347.90 0.1046752
348.00 0.1065932
348.10 0.1087966
348.20 0.110844
348.30 0.1120538
348.40 0.1120624
348.50 0.1111447
348.60 0.1099285
348.70 0.1088165
348.80 0.1077926
348.90 0.1067094
349.00 0.1055603
349.10 0.1044475
349.20 0.1034645
349.30 0.1027516
349.40 0.1025663
349.50 0.103072
349.60 0.1040112
349.70 0.1047441
349.80 0.1048109
349.90 0.1045731
350.00 0.105173
350.10 0.1076379
350.20 0.1119064
350.30 0.1167245
350.40 0.120515
350.50 0.1223895
350.60 0.122446
350.70 0.1213354
350.80 0.1197193
350.90 0.1179591
351.00 0.1159741
351.10 0.1132738
351.20 0.109325
351.30 0.1042033
351.40 0.09895252
351.50 0.09507211
351.60 0.09344114
351.70 0.09368927
351.80 0.09462071
351.90 0.09521025
352.00 0.09517493
352.10 0.09472705
352.20 0.09410635
352.30 0.09351448
352.40 0.09339503
352.50 0.09457385
352.60 0.09780717
352.70 0.1030042
352.80 0.1089268
352.90 0.1138874
353.00 0.1170049
353.10 0.1187773
353.20 0.1203397
353.30 0.1223152
353.40 0.124543
353.50 0.1267086
353.60 0.1288719
353.70 0.1312733
353.80 0.133919
353.90 0.1365629
354.00 0.1388799
354.10 0.1404386
354.20 0.1407087
354.30 0.1394708
354.40 0.1372792
354.50 0.1352719
354.60 0.1343127
354.70 0.1343452
354.80 0.1346378
354.90 0.1345444
355.00 0.1339456
355.10 0.133103
355.20 0.1322954
355.30 0.1316546
355.40 0.1312475
355.50 0.1311071
355.60 0.1310891
355.70 0.130778
355.80 0.1296833
355.90 0.1276508
356.00 0.1250493
356.10 0.1224704
356.20 0.1202187
356.30 0.1180616
356.40 0.1154719
356.50 0.112186
356.60 0.1086104
356.70 0.1056746
356.80 0.1041767
356.90 0.1041925
357.00 0.1050807
357.10 0.1059853
357.20 0.1062882
357.30 0.1057347
357.40 0.1043498
357.50 0.1023491
357.60 0.1000772
357.70 0.09788535
357.80 0.09598505
357.90 0.09440008
358.00 0.09309936
358.10 0.09222487
358.20 0.09215345
358.30 0.09324897
358.40 0.09550291
358.50 0.09840178
358.60 0.1011287
358.70 0.102917
358.80 0.103373
358.90 0.1026689
359.00 0.1015581
359.10 0.1010937
359.20 0.1020492
359.30 0.1043765
359.40 0.1071456
359.50 0.1091286
359.60 0.1096361
359.70 0.1089499
359.80 0.1080144
359.90 0.1076441
360.00 0.1078786
360.10 0.107984
360.20 0.1070723
360.30 0.1048041
360.40 0.1016593
360.50 0.09868792
360.60 0.09701654
360.70 0.0973963
360.80 0.09986206
360.90 0.1036531
361.00 0.1075901
361.10 0.1107541
361.20 0.1129285
361.30 0.1144089
361.40 0.115444
361.50 0.1159825
361.60 0.1160054
361.70 0.1158866
361.80 0.1161879
361.90 0.1170817
362.00 0.1181391
362.10 0.1187751
362.20 0.1187857
362.30 0.1184049
362.40 0.1180228
362.50 0.1179656
362.60 0.1183427
362.70 0.118859
362.80 0.1188667
362.90 0.1178775
363.00 0.1161258
363.10 0.1144984
363.20 0.1138148
363.30 0.1142129
363.40 0.1152113
363.50 0.1162154
363.60 0.1169038
363.70 0.1172578
363.80 0.1173584
363.90 0.1171872
364.00 0.1165745
364.10 0.1153184
364.20 0.1133847
364.30 0.1110202
364.40 0.1086995
364.50 0.1069673
364.60 0.1062231
364.70 0.1064922
364.80 0.1073771
364.90 0.108356
365.00 0.1092619
365.10 0.1104607
365.20 0.1124162
365.30 0.1150243
365.40 0.1174483
365.50 0.1187066
365.60 0.1184892
365.70 0.1173957
365.80 0.1163549
365.90 0.1158669
366.00 0.1158142
366.10 0.1158933
366.20 0.1160815
366.30 0.1165973
366.40 0.1175059
366.50 0.1185004
366.60 0.1190654
366.70 0.1188127
366.80 0.1176844
366.90 0.1159225
367.00 0.1139397
367.10 0.1122044
367.20 0.1111425
367.30 0.1110266
367.40 0.1118555
367.50 0.1133293
367.60 0.1149969
367.70 0.1164923
367.80 0.1176901
367.90 0.1186777
368.00 0.1195971
368.10 0.1204866
368.20 0.1212245
368.30 0.1215905
368.40 0.1214083
368.50 0.1207075
368.60 0.1197923
368.70 0.1191128
368.80 0.1189869
368.90 0.1194023
369.00 0.1201092
369.10 0.1209144
369.20 0.1218164
369.30 0.122815
369.40 0.1236698
369.50 0.1239598
369.60 0.1234479
369.70 0.1223665
369.80 0.1213366
369.90 0.1210121
370.00 0.1217393
370.10 0.12342
370.20 0.125625
370.30 0.1278269
370.40 0.1295832
370.50 0.1306088
370.60 0.1308082
370.70 0.1303562
370.80 0.1297105
370.90 0.1294101
371.00 0.1297272
371.10 0.1304436
371.20 0.1309323
371.30 0.1304812
371.40 0.1286872
371.50 0.1257198
371.60 0.1222957
371.70 0.1193413
371.80 0.1175662
371.90 0.1172347
372.00 0.1181893
372.10 0.1198958
372.20 0.1213978
372.30 0.121477
372.40 0.1192153
372.50 0.1147106
372.60 0.1092965
372.70 0.1049397
372.80 0.1032287
372.90 0.1046754
373.00 0.1086818
373.10 0.113981
373.20 0.1191695
373.30 0.1230889
373.40 0.1250571
373.50 0.1249092
373.60 0.1228568
373.70 0.1192913
373.80 0.1147012
373.90 0.109727
374.00 0.1051806
374.10 0.1019031
374.20 0.1005456
374.30 0.1014539
374.40 0.1047024
374.50 0.1101202
374.60 0.1172138
374.70 0.1250547
374.80 0.1323306
374.90 0.1376848
375.00 0.1401921
375.10 0.1396644
375.20 0.1366154
375.30 0.131993
375.40 0.1268875
375.50 0.122302
375.60 0.1189108
375.70 0.1168709
375.80 0.1158348
375.90 0.1152136
376.00 0.1145668
376.10 0.1139091
376.20 0.113777
376.30 0.1150025
376.40 0.1183065
376.50 0.1239941
376.60 0.1319519
376.70 0.141746
376.80 0.1525486
376.90 0.1629362
377.00 0.1709983
377.10 0.1750062
377.20 0.174221
377.30 0.1691875
377.40 0.161331
377.50 0.1522728
377.60 0.1433609
377.70 0.1355453
377.80 0.1293527
377.90 0.1248616
378.00 0.1217779
378.10 0.1196656
378.20 0.1181935
378.30 0.1171903
378.40 0.1165386
378.50 0.1161356
378.60 0.1159898
378.70 0.1162763
378.80 0.1172566
378.90 0.1192256
379.00 0.1226166
379.10 0.1280664
379.20 0.1361587
379.30 0.1469386
379.40 0.159608
379.50 0.1726437
379.60 0.1841579
379.70 0.1922777
379.80 0.195573
379.90 0.1935106
380.00 0.1867354
380.10 0.1768824
380.20 0.1659434
380.30 0.1555726
380.40 0.1467342
380.50 0.1397411
380.60 0.1344662
380.70 0.1305202
380.80 0.1273777
380.90 0.1245979
381.00 0.1220395
381.10 0.1198496
381.20 0.1181934
381.30 0.1170015
381.40 0.1160471
381.50 0.1152787
381.60 0.1146366
381.70 0.1139899
381.80 0.1129281
381.90 0.1105041
382.00 0.1055656
382.10 0.09202136
382.20 0.05063257
382.30 0.009989241
382.40 0
382.50 0
382.60 0
382.70 0.01335524
382.80 0.09170505
382.90 0.1469104
383.00 0.2429817
383.10 0.3970768
383.20 0.4939675
383.30 0.5396417
383.40 0.5297394
383.50 0.4724127
383.60 0.4028288
383.70 0.3638739
383.80 0.3639606
383.90 0.3689392
384.00 0.3463002
384.10 0.2926592
384.20 0.2206855
384.30 0.1393454
384.40 0.07448752
384.50 0.1002724
384.60 0.1828487
384.70 0.3791811
384.80 0.5771285
384.90 0.6758929
385.00 0.6098047
385.10 0.4017093
385.20 0.1751169
385.30 0.08361409
385.40 0.1819544
385.50 0.3781186
385.60 0.527568
385.70 0.5507114
385.80 0.4574093
385.90 0.304346
386.00 0.1602547
386.10 0.07928967
386.20 0.07503543
386.30 0.1140039
386.40 0.1565644
386.50 0.1966134
386.60 0.2477597
386.70 0.3129319
386.80 0.3753111
386.90 0.4229394
387.00 0.45851
387.10 0.4834955
387.20 0.4957258
387.30 0.5005759
387.40 0.5134875
387.50 0.5319462
387.60 0.5239669
387.70 0.4696861
387.80 0.4111938
387.90 0.413794
388.00 0.4777058
388.10 0.5277081
388.20 0.4983332
388.30 0.4059814
388.40 0.3043374
388.50 0.2275407
388.60 0.1991526
388.70 0.251693
388.80 0.3902568
388.90 0.5525343
389.00 0.6505032
389.10 0.6480264
389.20 0.5732538
389.30 0.4612221
389.40 0.322632
389.50 0.187112
389.60 0.138857
389.70 0.09001804
389.80 0.1267068
389.90 0.1221378
390.00 0.04233809
390.10 0.05013959
390.20 0.07178307
390.30 0.1251461
390.40 0.2381275
390.50 0.2591382
390.60 0.2225019
390.70 0.2182271
390.80 0.2808388
390.90 0.3512818
391.00 0.345743
391.10 0.2285071
391.20 0.03395142
391.30 0.01554892
391.40 0.04036777
391.50 0.06107058
391.60 0.07580234
391.70 0.0937696
391.80 0.1243871
391.90 0.1696689
392.00 0.2091941
392.10 0.2367982
392.20 0.2407614
392.30 0.2631479
392.40 0.215578
392.50 0.1268136
392.60 0.101802
392.70 0.09215102
392.80 0.09188539
392.90 0.1151803
393.00 0.3190133
393.10 0.7612268
393.20 1.302074
393.30 1.799855
393.40 2.020445
393.50 1.812314
393.60 1.282346
393.70 0.7272305
393.80 0.3856648
393.90 0.2725357
394.00 0.2426697
394.10 0.1647754
394.20 0.0327406
394.30 0.0005851819
394.40 0.009408065
394.50 0.05139956
394.60 0.1084358
394.70 0.1827886
394.80 0.1848304
394.90 0.1989049
395.00 0.2041935
395.10 0.2040612
395.20 0.1962133
395.30 0.1846179
395.40 0.1851698
395.50 0.3154614
395.60 0.5419769
395.70 0.6326397
395.80 0.5375843
395.90 0.336637
396.00 0.1844722
396.10 0.1171331
396.20 0.06548164
396.30 0.04487822
396.40 0.05964768
396.50 0.1823807
396.60 0.4728003
396.70 0.9130453
396.80 1.412757
396.90 1.795357
397.00 1.914873
397.10 1.747628
397.20 1.382502
397.30 0.9317748
397.40 0.5219311
397.50 0.2526107
397.60 0.1648411
397.70 0.2220648
397.80 0.329231
397.90 0.4057841
398.00 0.4392753
398.10 0.4650811
398.20 0.5033162
398.30 0.5333499
398.40 0.5222876
398.50 0.4584983
398.60 0.3619682
398.70 0.2606999
398.80 0.2479956
398.90 0.2290749
399.00 0.2067035
399.10 0.1896282
399.20 0.1793726
399.30 0.1697118
399.40 0.1536456
399.50 0.1341513
399.60 0.1426009
399.70 0.176316
399.80 0.1939695
399.90 0.1962048
400.00 0.1918286
400.10 0.190912
400.20 0.1926076
400.30 0.1830548
400.40 0.1531691
400.50 0.1230904
400.60 0.1255796
400.70 0.1220709
400.80 0.1285325
400.90 0.1884607
401.00 0.2422093
401.10 0.2556343
401.20 0.2096542
401.30 0.184704
401.40 0.1860979
401.50 0.1764241
401.60 0.1569231
401.70 0.2068983
401.80 0.2559302
401.90 0.2816555
402.00 0.2891609
402.10 0.29995
402.20 0.3346249
402.30 0.3860599
402.40 0.417216
402.50 0.4006564
402.60 0.3478024
402.70 0.2840127
402.80 0.2172414
402.90 0.1498771
403.00 0.1001543
403.10 0.09190581
403.20 0.1203328
403.30 0.1497055
403.40 0.1481649
403.50 0.1124262
403.60 0.06441028
403.70 0.04739204
403.80 0.057436
403.90 0.07187643
404.00 0.09343946
404.10 0.118635
404.20 0.15982
404.30 0.22626
404.40 0.3159582
404.50 0.4100731
404.60 0.4698887
404.70 0.4521279
404.80 0.3525932
404.90 0.2304441
405.00 0.1601799
405.10 0.1633001
405.20 0.2015619
405.30 0.2332159
405.40 0.2558702
405.50 0.2837733
405.60 0.3032352
405.70 0.2848503
405.80 0.239458
405.90 0.2079158
406.00 0.2232689
406.10 0.2723133
406.20 0.3155734
406.30 0.3360606
406.40 0.3503223
406.50 0.3662687
406.60 0.3815773
406.70 0.3876406
406.80 0.3755811
406.90 0.3410249
407.00 0.2783225
407.10 0.1936706
407.20 0.1502012
407.30 0.1361003
407.40 0.1175105
407.50 0.151062
407.60 0.1858692
407.70 0.2047373
407.80 0.2206072
407.90 0.2379795
408.00 0.2492682
408.10 0.2481008
408.20 0.2345985
408.30 0.2163566
408.40 0.1992231
408.50 0.1914429
408.60 0.1988073
408.70 0.2116233
408.80 0.2046899
408.90 0.1616789
409.00 0.10682
409.10 0.09155132
409.20 0.1344548
409.30 0.1982424
409.40 0.2129179
409.50 0.1655727
409.60 0.1239074
409.70 0.1714532
409.80 0.3308416
409.90 0.5613629
410.00 0.8016803
410.10 0.990276
410.20 1.064035
410.30 0.9805902
410.40 0.7600728
410.50 0.4874953
410.60 0.2592393
410.70 0.2047429
410.80 0.1797722
410.90 0.1618086
411.00 0.1480068
411.10 0.1415626
411.20 0.1379833
411.30 0.1293253
411.40 0.1171139
411.50 0.1124833
411.60 0.2345201
411.70 0.4499554
411.80 0.5992703
411.90 0.6417259
412.00 0.5939199
412.10 0.5051449
412.20 0.417089
412.30 0.3549869
412.40 0.3140555
412.50 0.2793069
412.60 0.242546
412.70 0.2038268
412.80 0.165431
412.90 0.1297149
413.00 0.1026873
413.10 0.09240099
413.20 0.09788046
413.30 0.1108464
413.40 0.1249199
413.50 0.1373706
413.60 0.1480932
413.70 0.1597771
413.80 0.1729206
413.90 0.1753883
414.00 0.1462194
414.10 0.07357812
414.20 0.06905857
414.30 0.07101838
414.40 0.07595891
414.50 0.08810095
414.60 0.1137451
414.70 0.145925
414.80 0.2341619
414.90 0.2847373
415.00 0.2232342
415.10 0.1441436
415.20 0.1178046
415.30 0.09551262
415.40 0.08304548
415.50 0.08926631
415.60 0.1170815
415.70 0.1563893
415.80 0.1849534
415.90 0.1929659
416.00 0.2137005
416.10 0.2449362
416.20 0.2681682
416.30 0.2551055
416.40 0.1861204
416.50 0.08052008
416.60 0.06903098
416.70 0.08959745
416.80 0.1198818
416.90 0.1362438
417.00 0.1581244
417.10 0.2257168
417.20 0.2381955
417.30 0.2226956
417.40 0.2182956
417.50 0.231407
417.60 0.2362557
417.70 0.2114324
417.80 0.1665448
417.90 0.1819831
418.00 0.1843957
418.10 0.1805015
418.20 0.1695854
418.30 0.1410487
418.40 0.1017774
418.50 0.08672664
418.60 0.2001184
418.70 0.3437818
418.80 0.487755
418.90 0.6077787
419.00 0.6945084
419.10 0.7379231
419.20 0.7220901
419.30 0.6448846
419.40 0.5319864
419.50 0.4167049
419.60 0.3184354
419.70 0.2464106
419.80 0.2058032
419.90 0.201242
420.00 0.2133613
420.10 0.2066314
420.20 0.1612782
420.30 0.1299893
420.40 0.1331993
420.50 0.1431544
420.60 0.1588961
420.70 0.1788077
420.80 0.2388259
420.90 0.2703108
421.00 0.2571072
421.10 0.2225707
421.20 0.2085428
421.30 0.2399436
421.40 0.2993071
421.50 0.364549
421.60 0.4073985
421.70 0.4169857
421.80 0.3966047
421.90 0.3563818
422.00 0.3110928
422.10 0.2810374
422.20 0.2795166
422.30 0.2895706
422.40 0.2650679
422.50 0.1751912
422.60 0.05500051
422.70 0.0371699
422.80 0.03507307
422.90 0.03949731
423.00 0.03946397
423.10 0.03179218
423.20 0.01937978
423.30 0.005320843
423.40 0
423.50 0.03673009
423.60 0.1535381
423.70 0.2438553
423.80 0.2921528
423.90 0.2970939
424.00 0.2632634
424.10 0.2011729
424.20 0.1269823
424.30 0.05610815
424.40 0.02931742
424.50 0.03200648
424.60 0.03247088
424.70 0.02774732
424.80 0.07707302
424.90 0.1552177
425.00 0.2313497
425.10 0.2795999
425.20 0.2787743
425.30 0.2333533
425.40 0.1721838
425.50 0.131747
425.60 0.1341978
425.70 0.1747454
425.80 0.2268599
425.90 0.2585799
426.00 0.2541467
426.10 0.2250849
426.20 0.1944645
426.30 0.1758888
426.40 0.1771632
426.50 0.2011628
426.60 0.2311516
426.70 0.2256811
426.80 0.1536284
426.90 0.0795494
427.00 0.09165171
427.10 0.09997901
427.20 0.1025597
427.30 0.1013936
427.40 0.0986175
427.50 0.0911504
427.60 0.07736522
427.70 0.05947841
427.80 0.06159126
427.90 0.05359782
428.00 0.03947796
428.10 0.05021486
428.20 0.08683232
428.30 0.1285503
428.40 0.1480842
428.50 0.1368351
428.60 0.09685226
428.70 0.04952272
428.80 0.02134137
428.90 0.02567051
429.00 0.05540313
429.10 0.1365132
429.20 0.2123631
429.30 0.2518499
429.40 0.27277
429.50 0.2914807
429.60 0.3084749
429.70 0.3078456
429.80 0.2778
429.90 0.2359494
430.00 0.2224994
430.10 0.2559336
430.20 0.3077236
430.30 0.3347288
430.40 0.3290908
430.50 0.3224125
430.60 0.3355714
430.70 0.3484801
430.80 0.3312848
430.90 0.2821514
431.00 0.2223446
431.10 0.1705162
431.20 0.1317556
431.30 0.1030309
431.40 0.07534961
431.50 0.03738698
431.60 0.009022022
431.70 0.001100607
431.80 0
431.90 0.0006581948
432.00 0.02072187
432.10 0.09290921
432.20 0.1821122
432.30 0.2698122
432.40 0.3291493
432.50 0.3393142
432.60 0.2979133
432.70 0.2308407
432.80 0.1827622
432.90 0.179298
433.00 0.1986713
433.10 0.1938563
433.20 0.1815244
433.30 0.1878606
433.40 0.1878938
433.50 0.1856689
433.60 0.190177
433.70 0.2340752
433.80 0.4510599
433.90 0.7784221
434.00 1.143869
434.10 1.398783
434.20 1.415305
434.30 1.193384
434.40 0.8644871
434.50 0.5856684
434.60 0.4326345
434.70 0.3828187
434.80 0.3722537
434.90 0.3531762
435.00 0.3119946
435.10 0.2599023
435.20 0.2170802
435.30 0.1971046
435.40 0.2006422
435.50 0.2255638
435.60 0.2862667
435.70 0.3813805
435.80 0.4717611
435.90 0.4883999
436.00 0.3952933
436.10 0.2380891
436.20 0.1596087
436.30 0.1267778
436.40 0.1540997
436.50 0.2176524
436.60 0.2458433
436.70 0.2591799
436.80 0.2963374
436.90 0.3613506
437.00 0.4169898
437.10 0.425878
437.20 0.3843314
437.30 0.317931
437.40 0.2557147
437.50 0.2136786
437.60 0.1957741
437.70 0.2001435
437.80 0.2265886
437.90 0.2622344
438.00 0.2876183
438.10 0.2820049
438.20 0.2451138
438.30 0.1930793
438.40 0.1602392
438.50 0.1515193
438.60 0.1452276
438.70 0.1550914
438.80 0.2044928
438.90 0.272504
439.00 0.326971
439.10 0.3353113
439.20 0.2996123
439.30 0.2531254
439.40 0.2208001
439.50 0.2046825
439.60 0.1936343
439.70 0.1793787
439.80 0.1706911
439.90 0.2174625
440.00 0.2781561
440.10 0.2934134
440.20 0.2468838
440.30 0.1648857
440.40 0.1430147
440.50 0.1263163
440.60 0.1111787
440.70 0.1085648
440.80 0.123096
440.90 0.2307832
441.00 0.3583571
441.10 0.4533567
441.20 0.4858815
441.30 0.4666596
441.40 0.4403422
441.50 0.4466927
441.60 0.4905879
441.70 0.5431427
441.80 0.5649887
441.90 0.5336887
442.00 0.4597827
442.10 0.3808528
442.20 0.3355614
442.30 0.3358597
442.40 0.3583985
442.50 0.3656098
442.60 0.3391997
442.70 0.2966449
442.80 0.2766651
442.90 0.3040075
443.00 0.3643082
443.10 0.4137576
443.20 0.4149715
443.30 0.3647132
443.40 0.2906666
443.50 0.2415085
443.60 0.2342715
443.70 0.2398113
443.80 0.3196215
443.90 0.4019852
444.00 0.4495446
444.10 0.4577539
444.20 0.4506737
444.30 0.4504932
444.40 0.4579663
444.50 0.453783
444.60 0.4284675
444.70 0.3958952
444.80 0.3775566
444.90 0.3906486
445.00 0.4350314
445.10 0.4998853
445.20 0.5742218
445.30 0.6386867
445.40 0.6604105
445.50 0.6168884
445.60 0.520162
445.70 0.4360644
445.80 0.3987981
445.90 0.3940404
446.00 0.3917873
446.10 0.3908131
446.20 0.4151088
446.30 0.4757619
446.40 0.5516996
446.50 0.6057339
446.60 0.6107876
446.70 0.5682897
446.80 0.5111893
446.90 0.4822863
447.00 0.4982486
447.10 0.5352263
447.20 0.5562189
447.30 0.5491879
447.40 0.5288499
447.50 0.5102247
447.60 0.4913032
447.70 0.4566115
447.80 0.3964373
447.90 0.3230321
448.00 0.3171664
448.10 0.3128488
448.20 0.3300607
448.30 0.4175353
448.40 0.4906327
448.50 0.531411
448.60 0.5539573
448.70 0.5793516
448.80 0.60842
448.90 0.6280288
449.00 0.6384285
449.10 0.6579205
449.20 0.6978659
449.30 0.7407031
449.40 0.7511766
449.50 0.7118472
449.60 0.6421505
449.70 0.5799344
449.80 0.5502747
449.90 0.5509891
450.00 0.5643881
450.10 0.5768979
450.20 0.581226
450.30 0.5729075
450.40 0.553861
450.50 0.5331393
450.60 0.5185166
450.70 0.5098267
450.80 0.5024566
450.90 0.498004
451.00 0.5058699
451.10 0.5304003
451.20 0.5631505
451.30 0.5878009
451.40 0.5934969
451.50 0.5801694
451.60 0.5518734
451.70 0.5138819
451.80 0.4800312
451.90 0.4727864
452.00 0.5031782
452.10 0.5560582
452.20 0.6041107
452.30 0.6367244
452.40 0.6672801
452.50 0.7114277
452.60 0.7645336
452.70 0.8030955
452.80 0.8037831
452.90 0.7661299
453.00 0.7194376
453.10 0.6979937
453.20 0.7091002
453.30 0.7275881
453.40 0.7223127
453.50 0.6859387
453.60 0.639152
453.70 0.6115458
453.80 0.6231568
453.90 0.6710761
454.00 0.7280534
454.10 0.7617793
454.20 0.7564544
454.30 0.7219029
454.40 0.6835902
454.50 0.6579547
454.60 0.6364115
454.70 0.5971397
454.80 0.5307308
454.90 0.4543768
455.00 0.402334
455.10 0.4064028
455.20 0.4832433
455.30 0.6167581
455.40 0.7506542
455.50 0.8230761
455.60 0.8182058
455.70 0.7729143
455.80 0.7294103
455.90 0.6978371
456.00 0.6717622
456.10 0.658252
456.20 0.6741549
456.30 0.7228371
456.40 0.7889537
456.50 0.8543004
456.60 0.9083872
456.70 0.9482554
456.80 0.9747774
456.90 0.989192
457.00 0.9941674
457.10 0.9940727
457.20 0.9952727
457.30 1.006382
457.40 1.03069
457.50 1.052355
457.60 1.038891
457.70 0.968107
457.80 0.8577413
457.90 0.7606098
458.00 0.7199743
458.10 0.7404898
458.20 0.7952171
458.30 0.8430721
458.40 0.8445378
458.50 0.7802514
458.60 0.6693986
458.70 0.5614558
458.80 0.4985188
458.90 0.4870684
459.00 0.5033782
459.10 0.5156525
459.20 0.5076377
459.30 0.4917349
459.40 0.4959261
459.50 0.5342587
459.60 0.5908681
459.70 0.6405552
459.80 0.6773258
459.90 0.7093755
460.00 0.7346032
460.10 0.737919
460.20 0.7127237
460.30 0.6695999
460.40 0.6198493
460.50 0.5641412
460.60 0.5056502
460.70 0.4618789
460.80 0.4574208
460.90 0.5095738
461.00 0.6179595
461.10 0.7573827
461.20 0.8787902
461.30 0.9384969
461.40 0.938797
461.50 0.9247909
461.60 0.9321501
461.70 0.9500415
461.80 0.9475631
461.90 0.9222274
462.00 0.9039861
462.10 0.9161758
462.20 0.9509179
462.30 0.9853207
462.40 1.003233
462.50 0.9944563
462.60 0.9460882
462.70 0.8510021
462.80 0.7206314
462.90 0.5869969
463.00 0.4922803
463.10 0.4682833
463.20 0.5153814
463.30 0.5964364
463.40 0.662528
463.50 0.6917527
463.60 0.6989822
463.70 0.7045422
463.80 0.7063866
463.90 0.6908519
464.00 0.6593003
464.10 0.6341066
464.20 0.6372283
464.30 0.6685468
464.40 0.7083742
464.50 0.7380816
464.60 0.7565225
464.70 0.7783169
464.80 0.8150041
464.90 0.8562434
465.00 0.8758969
465.10 0.8595142
465.20 0.8196873
465.30 0.7814532
465.40 0.7600664
465.50 0.7582413
465.60 0.7793905
465.70 0.8319184
465.80 0.9147333
465.90 1.007504
466.00 1.077696
466.10 1.098945
466.20 1.071921
466.30 1.027754
466.40 1.003627
466.50 1.011934
466.60 1.032026
466.70 1.03016
466.80 0.9822159
466.90 0.8808057
467.00 0.7412871
467.10 0.6073276
467.20 0.5337694
467.30 0.546193
467.40 0.6186492
467.50 0.6971599
467.60 0.742149
467.70 0.745626
467.80 0.7216371
467.90 0.6912681
468.00 0.6720548
468.10 0.6715691
468.20 0.685812
468.30 0.7085679
468.40 0.7373003
468.50 0.7684989
468.60 0.7932551
468.70 0.8018027
468.80 0.794121
468.90 0.7796629
469.00 0.7643668
469.10 0.7432166
469.20 0.713332
469.30 0.6913566
469.40 0.6978247
469.50 0.7254099
469.60 0.7429445
469.70 0.739108
469.80 0.7406004
469.90 0.7701171
470.00 0.8064876
470.10 0.811072
470.20 0.784678
470.30 0.7673648
470.40 0.7868689
470.50 0.8249132
470.60 0.8408688
470.70 0.8195246
470.80 0.7833809
470.90 0.7682731
471.00 0.7928497
471.10 0.8471728
471.20 0.9017942
471.30 0.9258745
471.40 0.9069417
471.50 0.8634581
471.60 0.8342531
471.70 0.84301
471.80 0.8740375
471.90 0.8871283
472.00 0.8583733
472.10 0.8042898
472.20 0.768565
472.30 0.7876673
472.40 0.860054
472.50 0.9455706
472.60 0.9994695
472.70 1.011808
472.80 1.00939
472.90 1.017445
473.00 1.02901
473.10 1.020584
473.20 0.9864438
473.30 0.9434371
473.40 0.907194
473.50 0.8751051
473.60 0.8377571
473.70 0.8010051
473.80 0.7884958
473.90 0.8190924
474.00 0.882051
474.10 0.9396969
474.20 0.9586218
474.30 0.9392151
474.40 0.9120162
474.50 0.9057803
474.60 0.9229841
474.70 0.9444871
474.80 0.9518991
474.90 0.9436569
475.00 0.9339981
475.10 0.9396104
475.20 0.9709211
475.30 1.027598
475.40 1.0929
475.50 1.134333
475.60 1.118966
475.70 1.038115
475.80 0.9178968
475.90 0.7997244
476.00 0.7051113
476.10 0.6224885
476.20 0.5307725
476.30 0.4318806
476.40 0.382999
476.50 0.3628452
476.60 0.3482363
476.70 0.3706523
476.80 0.4032967
476.90 0.4169851
477.00 0.412055
477.10 0.4103134
477.20 0.4395078
477.30 0.5064661
477.40 0.58903
477.50 0.6569092
477.60 0.6927275
477.70 0.6924254
477.80 0.6563429
477.90 0.5918223
478.00 0.5209907
478.10 0.4720752
478.20 0.4583168
478.30 0.4678329
478.40 0.479736
478.50 0.4910722
478.60 0.5187178
478.70 0.5698617
478.80 0.6222329
478.90 0.6416301
479.00 0.6202657
479.10 0.5907285
479.20 0.5954985
479.30 0.6475593
479.40 0.7226331
479.50 0.7835631
479.60 0.8093676
479.70 0.8057865
479.80 0.7955203
479.90 0.7987614
480.00 0.8172736
480.10 0.8361143
480.20 0.8375753
480.30 0.8088441
480.40 0.742834
480.50 0.645123
480.60 0.5421717
480.70 0.4739845
480.80 0.4666428
480.90 0.5126469
481.00 0.5808556
481.10 0.6403996
481.20 0.6788256
481.30 0.7033507
481.40 0.7249053
481.50 0.738724
481.60 0.725231
481.70 0.673585
481.80 0.6029133
481.90 0.5537687
482.00 0.5521342
482.10 0.5885252
482.20 0.6333921
482.30 0.6655039
482.40 0.6827066
482.50 0.6937217
482.60 0.7107092
482.70 0.7422839
482.80 0.7820405
482.90 0.8050475
483.00 0.7906763
483.10 0.7472398
483.20 0.7027794
483.30 0.6771144
483.40 0.6736661
483.50 0.6941637
483.60 0.7414131
483.70 0.8071284
483.80 0.8714608
483.90 0.9186142
484.00 0.9438763
484.10 0.9472983
484.20 0.9314916
484.30 0.9044922
484.40 0.8752929
484.50 0.8445993
484.60 0.807705
484.70 0.7699665
484.80 0.7517141
484.90 0.7690379
485.00 0.8099918
485.10 0.8384092
485.20 0.8287335
485.30 0.7933401
485.40 0.7653239
485.50 0.7545314
485.60 0.7402012
485.70 0.7269501
485.80 0.8017875
485.90 1.096266
486.00 1.648183
486.10 2.290328
486.20 2.713999
486.30 2.690011
486.40 2.247656
486.50 1.640331
486.60 1.140198
486.70 0.8646123
486.80 0.7672732
486.90 0.7435464
487.00 0.7225616
487.10 0.6892934
487.20 0.6629839
487.30 0.6692985
487.40 0.719317
487.50 0.7993931
487.60 0.8798753
487.70 0.9349292
487.80 0.9550129
487.90 0.9436766
488.00 0.9090973
488.10 0.8628985
488.20 0.822954
488.30 0.81081
488.40 0.8399415
488.50 0.9026097
488.60 0.9686494
488.70 1.004464
488.80 0.9974822
488.90 0.9629252
489.00 0.9296448
489.10 0.9212161
489.20 0.9432849
489.30 0.9781986
489.40 0.9943619
489.50 0.972676
489.60 0.9281782
489.70 0.8964571
489.80 0.8982963
489.90 0.9281961
490.00 0.97464
490.10 1.03236
490.20 1.090178
490.30 1.126275
490.40 1.130001
490.50 1.120936
490.60 1.128039
490.70 1.15396
490.80 1.17575
490.90 1.178349
491.00 1.175141
491.10 1.189433
491.20 1.224395
491.30 1.262478
491.40 1.287228
491.50 1.293634
491.60 1.285502
491.70 1.272898
491.80 1.270605
491.90 1.290332
492.00 1.327147
492.10 1.362376
492.20 1.384812
492.30 1.400639
492.40 1.420736
492.50 1.443396
492.60 1.454378
492.70 1.446654
492.80 1.432017
492.90 1.42851
493.00 1.439898
493.10 1.452349
493.20 1.454449
493.30 1.454353
493.40 1.470712
493.50 1.51064
493.60 1.563681
493.70 1.614645
493.80 1.656253
493.90 1.688267
494.00 1.713904
494.10 1.739417
494.20 1.770291
494.30 1.807419
494.40 1.850179
494.50 1.899573
494.60 1.95395
494.70 2.003702
494.80 2.034753
494.90 2.039876
495.00 2.020498
495.10 1.978624
495.20 1.909446
495.30 1.795788
495.40 1.613793
495.50 1.356941
495.60 1.059093
495.70 0.7847999
495.80 0.5846573
495.90 0.4601207
496.00 0.3803612
496.10 0.3254591
496.20 0.3006785
496.30 0.3168121
496.40 0.3705218
496.50 0.445654
496.60 0.5234303
496.70 0.5901875
496.80 0.6459174
496.90 0.7028358
497.00 0.7613331
497.10 0.7935021
497.20 0.7677694
497.30 0.6914375
497.40 0.615053
497.50 0.5893565
497.60 0.6304973
497.70 0.725183
497.80 0.8465523
497.90 0.9532632
498.00 0.9943456
498.10 0.9452535
498.20 0.8458086
498.30 0.7824151
498.40 0.8185495
498.50 0.9421988
498.60 1.079153
498.70 1.155249
498.80 1.14773
498.90 1.088215
499.00 1.026724
499.10 0.9925362
499.20 0.981931
499.30 0.977484
499.40 0.9726145
499.50 0.9760492
499.60 0.9882769
499.70 0.975842
499.80 0.8828312
499.90 0.6827735
500.00 1
500.10 0.9640777
500.20 0.7409258
500.30 0.474532
500.40 0.5027565
500.50 0.7121234
500.60 0.7849824
500.70 0.7714957
500.80 0.7976446
500.90 0.9015159
501.00 1.003078
501.10 1.034161
501.20 0.8724708
501.30 0.7558662
501.40 0.9361658
501.50 0.8011036
501.60 0.5081341
501.70 0.6351419
501.80 0.7633588
501.90 0.8430833
502.00 1.146385
502.10 0.8046536
502.20 0.8635584
502.30 0.7996626
502.40 0.7350677
502.50 0.8287772
502.60 0.9855087
502.70 0.9691053
502.80 0.9226777
502.90 1.02225
503.00 1.220897
503.10 1.259636
503.20 1.0387
503.30 0.9145306
503.40 0.9231047
503.50 0.650581
503.60 0.8403599
503.70 1.347026
503.80 1.302438
503.90 1.105826
504.00 1.221362
504.10 0.9537873
504.20 0.9431372
504.30 1.15994
504.40 1.185655
504.50 0.9685098
504.60 1.038209
504.70 1.240666
504.80 1.12368
504.90 1.217853
505.00 1.282675
505.10 1.140796
505.20 1.110711
505.30 1.174077
505.40 0.9935591
505.50 0.7787435
505.60 1.057297
505.70 1.262864
505.80 1.166145
505.90 1.035035
506.00 1.149101
506.10 1.1676
506.20 1.10443
506.30 1.373158
506.40 1.255324
506.50 1.07807
506.60 1.09107
506.70 1.087116
506.80 1.158658
506.90 1.323199
507.00 1.501711
507.10 1.435298
507.20 1.299052
507.30 1.214343
507.40 1.373988
507.50 1.63756
507.60 1.641807
507.70 1.559852
507.80 1.523581
507.90 1.675963
508.00 1.627473
508.10 1.412899
508.20 1.315041
508.30 1.335159
508.40 1.232347
508.50 1.087617
508.60 1.144312
508.70 1.471532
508.80 1.527288
508.90 1.338449
509.00 1.343993
509.10 1.236168
509.20 1.237153
509.30 1.454056
509.40 1.507495
509.50 1.375345
509.60 1.503217
509.70 1.714878
509.80 1.636377
509.90 1.608194
510.00 1.29071
510.10 0.9406652
510.20 1.026819
510.30 1.139408
510.40 1.104929
510.50 1.264196
510.60 1.213819
510.70 0.9467727
510.80 1.107516
510.90 1.508025
511.00 1.648499
511.10 1.451376
511.20 1.506015
511.30 1.718863
511.40 1.46373
511.50 1.366504
511.60 1.737514
511.70 1.946788
511.80 1.515574
511.90 1.451482
512.00 1.545374
512.10 1.556136
512.20 1.57253
512.30 1.745197
512.40 1.693245
512.50 1.546019
512.60 1.306904
512.70 1.35707
512.80 1.381785
512.90 1.083528
513.00 1.173732
513.10 1.473854
513.20 1.4571
513.30 1.654362
513.40 1.795082
513.50 1.564835
513.60 1.592166
513.70 1.541665
513.80 1.600339
513.90 1.662907
514.00 1.615524
514.10 1.251351
514.20 1.23233
514.30 1.48731
514.40 1.556802
514.50 1.666482
514.60 1.524446
514.70 1.34961
514.80 1.313679
514.90 1.364606
515.00 1.169608
515.10 1.18597
515.20 1.430239
515.30 1.540551
515.40 1.428695
515.50 1.309905
515.60 1.211401
515.70 1.519119
515.80 1.844117
515.90 2.026222
516.00 1.812465
516.10 1.758973
516.20 2.04953
516.30 2.072347
516.40 2.141856
516.50 2.088915
516.60 1.809765
516.70 1.369025
516.80 1.03151
516.90 0.5017915
517.00 0.4196458
517.10 0.3643759
517.20 0.4123172
517.30 0.5733053
517.40 0.5665524
517.50 0.5058783
517.60 0.7257347
517.70 0.6556636
517.80 0.5830873
517.90 0.6306498
518.00 0.636301
518.10 0.5082395
518.20 0.5024172
518.30 0.398982
518.40 0.3945145
518.50 0.5888991
518.60 0.9767596
518.70 0.9436348
518.80 0.9919242
518.90 1.027771
519.00 0.9899443
519.10 1.055481
519.20 1.113111
519.30 0.8795361
519.40 0.8712003
519.50 1.017024
519.60 1.138039
519.70 1.183547
519.80 1.024742
519.90 0.857533
520.00 0.6324099
520.10 0.6111401
520.20 0.7941432
520.30 1.086638
520.40 1.253717
520.50 1.187646
520.60 0.9076939
520.70 0.8105521
520.80 0.9917825
520.90 0.9652602
521.00 0.718578
521.10 0.7060343
521.20 1.084202
521.30 1.349494
521.40 1.476904
521.50 1.365303
521.60 1.369393
521.70 1.512345
521.80 1.556913
521.90 1.616466
522.00 1.789824
522.10 1.643474
522.20 1.47701
522.30 1.36099
522.40 1.420874
522.50 1.753691
522.60 1.922089
522.70 1.934183
522.80 1.709185
522.90 1.380538
523.00 1.563692
523.10 1.877085
523.20 1.955418
523.30 1.726731
523.40 1.691261
523.50 1.711088
523.60 1.821889
523.70 1.708052
523.80 1.768274
523.90 1.902878
524.00 1.834927
524.10 1.550052
524.20 1.581362
524.30 1.43317
524.40 1.296089
524.50 1.212657
524.60 1.370455
524.70 1.370758
524.80 1.331585
524.90 1.397227
525.00 1.509589
525.10 1.266658
525.20 1.276293
525.30 1.638588
525.40 2.075015
525.50 1.719271
525.60 1.56416
525.70 1.78724
525.80 1.960828
525.90 1.835373
526.00 1.706018
526.10 1.48914
526.20 1.540524
526.30 1.679878
526.40 1.56864
526.50 1.426858
526.60 1.428217
526.70 1.43449
526.80 1.44934
526.90 1.336532
527.00 1.501222
527.10 1.563138
527.20 1.392342
527.30 1.446851
527.40 1.537988
527.50 1.775637
527.60 2.001457
527.70 1.900012
527.80 1.80805
527.90 1.744405
528.00 1.682794
528.10 1.56479
528.20 1.435899
528.30 1.836137
528.40 2.01605
528.50 1.768729
528.60 1.659806
528.70 1.887917
528.80 2.150962
528.90 2.152069
529.00 1.952963
529.10 1.858535
529.20 1.930408
529.30 1.96369
529.40 1.9404
529.50 1.99486
529.60 2.077723
529.70 2.223577
529.80 1.998655
529.90 1.763377
530.00 1.867368
530.10 2.077466
530.20 2.12748
530.30 2.030404
530.40 2.223488
530.50 2.368277
530.60 2.210817
530.70 2.154351
530.80 1.949596
530.90 1.831949
531.00 1.843306
531.10 1.686896
531.20 1.620182
531.30 1.824042
531.40 1.711489
531.50 1.537476
531.60 1.703103
531.70 1.930734
531.80 1.961551
531.90 1.69918
532.00 1.686257
532.10 2.070677
532.20 1.955804
532.30 1.807588
532.40 1.917775
532.50 2.088546
532.60 2.024446
532.70 1.704282
532.80 1.647289
532.90 1.855924
533.00 1.742833
533.10 1.731096
533.20 1.832636
533.30 2.15268
533.40 2.036417
533.50 1.71232
533.60 1.71852
533.70 1.575222
533.80 1.690121
533.90 1.891003
534.00 2.157479
534.10 2.057806
534.20 1.832234
534.30 1.917049
534.40 2.087059
534.50 2.161566
534.60 2.254113
534.70 2.197166
534.80 1.820236
534.90 1.823712
535.00 2.030089
535.10 2.432919
535.20 2.53551
535.30 2.495015
535.40 2.559473
535.50 2.618419
535.60 2.450231
535.70 2.392037
535.80 2.241808
535.90 2.115946
536.00 1.998318
536.10 2.101743
536.20 2.063552
536.30 1.979272
536.40 1.829653
536.50 2.036796
536.60 1.838866
536.70 1.693996
536.80 1.629826
536.90 1.741145
537.00 1.713186
537.10 1.790968
537.20 1.937769
537.30 1.994001
537.40 1.903379
537.50 2.026833
537.60 2.07959
537.70 2.041897
537.80 2.164818
537.90 2.574921
538.00 2.686459
538.10 2.459083
538.20 2.333081
538.30 2.364743
538.40 2.51082
538.50 2.405754
538.60 2.303507
538.70 2.030305
538.80 2.191199
538.90 2.238691
539.00 2.406637
539.10 2.51741
539.20 2.30544
539.30 2.029554
539.40 2.338509
539.50 2.509102
539.60 2.446406
539.70 2.268058
539.80 2.425305
539.90 2.635004
540.00 2.543142
540.10 2.747349
540.20 3.038815
540.30 2.935658
540.40 2.785632
540.50 2.638516
540.60 2.428575
540.70 2.521728
540.80 2.673844
540.90 2.283131
541.00 2.062298
541.10 1.942701
541.20 2.213849
541.30 2.453192
541.40 2.326223
541.50 2.30344
541.60 2.378848
541.70 2.62498
541.80 2.77749
541.90 2.704022
542.00 2.440212
542.10 2.627961
542.20 2.751556
542.30 2.846882
542.40 2.846672
542.50 2.918114
542.60 2.945426
542.70 2.699609
542.80 2.499233
542.90 2.574978
543.00 2.432886
543.10 2.238544
543.20 2.25985
543.30 2.188578
543.40 2.27165
543.50 2.422234
543.60 2.522613
543.70 2.545144
543.80 2.620325
543.90 2.930101
544.00 2.993595
544.10 2.989864
544.20 3.212777
544.30 3.27945
544.40 3.034705
544.50 2.996146
544.60 3.139204
544.70 3.050754
544.80 2.532001
544.90 2.091561
545.00 1.617707
545.10 0.882193
545.20 0.6913544
545.30 0.8502528
545.40 0.8652658
545.50 1.021317
545.60 0.9535963
545.70 0.8457288
545.80 1.028926
545.90 1.208526
546.00 1.291269
546.10 1.591672
546.20 1.726401
546.30 1.643826
546.40 1.614076
546.50 1.388668
546.60 1.347276
546.70 1.376576
546.80 1.646105
546.90 1.747434
547.00 1.626607
547.10 1.319555
547.20 1.234005
547.30 1.128392
547.40 1.137458
547.50 1.342018
547.60 1.594087
547.70 1.418499
547.80 1.466256
547.90 1.565196
548.00 1.592622
548.10 1.464713
548.20 1.427704
548.30 1.408828
548.40 1.442183
548.50 1.571774
548.60 1.591961
548.70 1.524889
548.80 1.471269
548.90 1.415963
549.00 1.418587
549.10 1.290705
549.20 1.522153
549.30 1.554781
549.40 1.616259
549.50 1.721828
549.60 1.638751
549.70 1.272228
549.80 1.302113
549.90 1.450343
550.00 1.158031
550.10 0.8805828
550.20 0.7790938
550.30 0.9624591
550.40 0.8450657
550.50 0.7894465
550.60 0.9092025
550.70 0.881243
550.80 0.7701682
550.90 0.7813277
551.00 0.7277284
551.10 0.6897781
551.20 0.5495626
551.30 0.4693824
551.40 0.5259744
551.50 0.7382961
551.60 0.8755259
551.70 0.931817
551.80 0.7018424
551.90 0.5319361
552.00 0.681078
552.10 0.5872571
552.20 0.4150173
552.30 0.5239215
552.40 0.6225528
552.50 0.6442516
552.60 0.8664752
552.70 0.7768527
552.80 0.7310915
552.90 0.678693
553.00 0.4357039
553.10 0.5508483
553.20 0.717137
553.30 0.7578258
553.40 0.6224471
553.50 0.63029
553.60 0.4587669
553.70 0.5859769
553.80 0.5868645
553.90 0.5012465
554.00 0.6023308
554.10 0.5960027
554.20 0.5736972
554.30 0.5269007
554.40 0.6317784
554.50 0.6323001
554.60 0.4323615
554.70 0.3932862
554.80 0.3840456
554.90 0.5221212
555.00 0.6190019
555.10 0.6291207
555.20 0.493918
555.30 0.6496119
555.40 0.78061
555.50 0.6647386
555.60 0.6388217
555.70 0.7328885
555.80 0.8368431
555.90 0.6910397
556.00 0.8503638
556.10 1.131142
556.20 1.014373
556.30 0.9128793
556.40 0.9850547
556.50 1.240443
556.60 1.271712
556.70 1.142653
556.80 1.038324
556.90 1.055372
557.00 1.203905
557.10 1.348516
557.20 1.372029
557.30 1.365822
557.40 1.365492
557.50 1.365493
557.60 1.365493
557.70 1.365493
557.80 1.365493
557.90 1.365493
558.00 1.365493
558.10 1.365494
558.20 1.365257
558.30 1.363624
558.40 1.352055
558.50 1.477766
558.60 1.717801
558.70 1.76647
558.80 1.705679
558.90 1.612364
559.00 1.581764
559.10 1.535234
559.20 1.566387
559.30 1.752367
559.40 1.740875
559.50 1.675546
559.60 1.797727
559.70 1.573566
559.80 1.262981
559.90 1.111722
560.00 1.154446
560.10 1.116327
560.20 1.367067
560.30 1.487925
560.40 1.572235
560.50 1.55663
560.60 1.453668
560.70 1.283235
560.80 1.328514
560.90 1.420182
561.00 1.598004
561.10 1.810473
561.20 1.571018
561.30 1.335681
561.40 1.463959
561.50 1.622292
561.60 1.540006
561.70 1.576997
561.80 1.407706
561.90 1.208289
562.00 1.176463
562.10 1.247282
562.20 1.386626
562.30 1.434703
562.40 1.367457
562.50 1.252888
562.60 1.255939
562.70 1.27465
562.80 1.222189
562.90 1.250116
563.00 1.552153
563.10 1.41342
563.20 1.049241
563.30 0.9706595
563.40 1.351808
563.50 1.634134
563.60 1.536434
563.70 1.22301
563.80 0.9898643
563.90 1.261504
564.00 1.417178
564.10 1.196195
564.20 1.022827
564.30 1.16848
564.40 1.399913
564.50 1.344756
564.60 1.376587
564.70 1.311804
564.80 1.476923
564.90 1.604816
565.00 1.580222
565.10 1.470495
565.20 1.653591
565.30 1.894786
565.40 1.826614
565.50 1.732691
565.60 1.624851
565.70 1.776531
565.80 1.735321
565.90 1.847813
566.00 1.916332
566.10 1.722502
566.20 1.626886
566.30 1.698542
566.40 1.794499
566.50 1.540811
566.60 1.505346
566.70 1.638162
566.80 1.722767
566.90 1.504274
567.00 1.45892
567.10 1.454624
567.20 1.492548
567.30 1.617931
567.40 1.560125
567.50 1.534103
567.60 1.485796
567.70 1.650797
567.80 1.691964
567.90 1.715305
568.00 1.689909
568.10 1.534091
568.20 1.502358
568.30 1.776604
568.40 2.02878
568.50 1.901121
568.60 1.645902
568.70 1.76473
568.80 1.921971
568.90 2.053068
569.00 2.133617
569.10 1.757572
569.20 1.775058
569.30 1.856064
569.40 1.971547
569.50 1.869611
569.60 1.656548
569.70 1.58313
569.80 1.669919
569.90 1.929932
570.00 2.09386
570.10 2.146137
570.20 2.115244
570.30 1.807363
570.40 1.792058
570.50 2.071964
570.60 2.389401
570.70 2.292615
570.80 2.239504
570.90 2.31019
571.00 2.321361
571.10 2.318035
571.20 2.282041
571.30 2.229362
571.40 1.996488
571.50 1.788363
571.60 1.773205
571.70 1.964649
571.80 2.278885
571.90 2.094264
572.00 1.779796
572.10 1.675142
572.20 1.915707
572.30 1.985508
572.40 2.040645
572.50 2.090513
572.60 2.140398
572.70 2.191779
572.80 2.085193
572.90 1.967069
573.00 2.009732
573.10 2.120652
573.20 2.02591
573.30 2.170125
573.40 2.461071
573.50 2.406649
573.60 2.251577
573.70 2.117166
573.80 2.124906
573.90 1.96642
574.00 1.818416
574.10 1.883679
574.20 1.915447
574.30 1.943283
574.40 2.065229
574.50 2.166224
574.60 2.233147
574.70 2.171609
574.80 2.412234
574.90 2.107058
575.00 1.939956
575.10 2.19929
575.20 2.511957
575.30 2.372248
575.40 2.13934
575.50 2.406308
575.60 2.508792
575.70 2.399546
575.80 2.472492
575.90 2.460657
576.00 2.187791
576.10 1.711887
576.20 1.676515
576.30 1.737113
576.40 1.782214
576.50 1.844005
576.60 1.883012
576.70 1.827755
576.80 1.802034
576.90 1.613471
577.00 1.557973
577.10 1.727029
577.20 1.609723
577.30 1.497333
577.40 1.631111
577.50 1.918877
577.60 2.066856
577.70 1.974843
577.80 1.793197
577.90 1.70704
578.00 1.99385
578.10 2.267429
578.20 2.359882
578.30 2.172422
578.40 1.836874
578.50 1.988999
578.60 2.410157
578.70 2.573716
578.80 2.246063
578.90 2.244226
579.00 2.427638
579.10 2.579494
579.20 2.591695
579.30 2.33813
579.40 2.335898
579.50 2.56774
579.60 2.601359
579.70 2.660626
579.80 2.595478
579.90 2.421391
580.00 2.631264
580.10 2.867231
580.20 2.765047
580.30 2.59438
580.40 2.535423
580.50 2.798185
580.60 2.951156
580.70 2.921862
580.80 2.935011
580.90 2.941751
581.00 2.673059
581.10 2.517891
581.20 2.260772
581.30 1.935295
581.40 1.898128
581.50 1.89967
581.60 1.944616
581.70 1.984216
581.80 2.184409
581.90 2.159567
582.00 1.743366
582.10 1.719627
582.20 1.823048
582.30 1.911748
582.40 1.805639
582.50 1.582145
582.60 1.743566
582.70 2.009928
582.80 2.16113
582.90 1.916568
583.00 1.944239
583.10 2.244517
583.20 2.337559
583.30 2.199236
583.40 2.371703
583.50 2.294467
583.60 1.792284
583.70 1.718363
583.80 1.865148
583.90 1.770231
584.00 1.611946
584.10 1.71975
584.20 2.033187
584.30 2.223764
584.40 2.270293
584.50 2.154186
584.60 1.894058
584.70 1.816581
584.80 1.669104
584.90 1.714775
585.00 1.727396
585.10 1.533094
585.20 1.220342
585.30 1.275661
585.40 1.529129
585.50 1.628434
585.60 1.72098
585.70 1.501259
585.80 1.359678
585.90 1.533219
586.00 1.63909
586.10 1.283393
586.20 0.9592319
586.30 0.9659682
586.40 1.134553
586.50 1.158523
586.60 1.233339
586.70 1.189157
586.80 1.136001
586.90 1.366328
587.00 1.449549
587.10 1.273003
587.20 1.065157
587.30 1.034566
587.40 1.214081
587.50 1.146143
587.60 1.169531
587.70 1.229685
587.80 1.305128
587.90 1.155348
588.00 1.021791
588.10 0.8060295
588.20 0.7858391
588.30 0.9431731
588.40 1.02303
588.50 0.9465312
588.60 0.6572965
588.70 0.636419
588.80 0.9233044
588.90 1.376147
589.00 1.347468
589.10 0.7032027
589.20 0.8722928
589.30 1.571467
589.40 1.610551
589.50 1.029191
589.60 0.6961292
589.70 0.4698245
589.80 0.6657364
589.90 0.9344193
590.00 0.9667081
590.10 0.6930158
590.20 0.8208289
590.30 0.8367975
590.40 0.7065821
590.50 0.7282903
590.60 0.8397329
590.70 1.051591
590.80 1.102611
590.90 1.001903
591.00 0.7658131
591.10 0.9085588
591.20 1.104459
591.30 0.9868327
591.40 0.9202968
591.50 0.9302894
591.60 1.067194
591.70 1.019117
591.80 0.9678557
591.90 1.087388
592.00 1.087246
592.10 1.07688
592.20 0.9733524
592.30 1.199221
592.40 1.253495
592.50 0.8463997
592.60 1.001584
592.70 1.305053
592.80 1.119692
592.90 0.912173
593.00 0.9927532
593.10 1.201319
593.20 1.209079
593.30 1.166438
593.40 1.099624
593.50 1.007554
593.60 1.020962
593.70 1.094859
593.80 1.008429
593.90 1.062326
594.00 1.202007
594.10 1.186667
594.20 1.029331
594.30 1.191055
594.40 1.316604
594.50 1.374491
594.60 1.33235
594.70 1.405005
594.80 1.45052
594.90 1.514126
595.00 1.560117
595.10 1.27889
595.20 1.01504
595.30 0.9145031
595.40 0.9708844
595.50 0.9091163
595.60 1.088961
595.70 1.5037
595.80 1.604788
595.90 1.332837
596.00 1.08394
596.10 1.093982
596.20 1.007915
596.30 0.8157584
596.40 0.9249938
596.50 1.331087
596.60 1.387551
596.70 1.299686
596.80 1.285346
596.90 1.110409
597.00 1.01851
597.10 0.9582435
597.20 0.9612767
597.30 0.8852886
597.40 0.8671009
597.50 1.118918
597.60 1.323548
597.70 1.365271
597.80 1.11138
597.90 1.044333
598.00 1.128998
598.10 1.288094
598.20 1.360145
598.30 1.333812
598.40 1.230209
598.50 1.134332
598.60 1.242185
598.70 1.290879
598.80 1.326276
598.90 1.329198
599.00 1.236084
599.10 1.302261
599.20 1.39224
599.30 1.371427
599.40 1.184078
599.50 1.143601
599.60 1.334099
599.70 1.415155
599.80 1.264522
599.90 1.40268
600.00 1.565871
600.10 1.580227
600.20 1.448495
600.30 1.491894
600.40 1.617219
600.50 1.507852
600.60 1.372759
600.70 1.30238
600.80 1.459818
600.90 1.433676
601.00 1.228377
601.10 1.136496
601.20 1.297979
601.30 1.537312
601.40 1.470352
601.50 1.250503
601.60 1.361825
601.70 1.527699
601.80 1.672585
601.90 1.643609
602.00 1.509671
602.10 1.296147
602.20 1.280991
602.30 1.349095
602.40 1.456653
602.50 1.604686
602.60 1.624736
602.70 1.510496
602.80 1.406591
602.90 1.475406
603.00 1.439693
603.10 1.271918
603.20 1.338767
603.30 1.452015
603.40 1.689732
603.50 1.850797
603.60 1.732438
603.70 1.614758
603.80 1.457505
603.90 1.432945
604.00 1.485695
604.10 1.493544
604.20 1.589852
604.30 1.746942
604.40 1.821493
604.50 1.79873
604.60 1.735899
604.70 1.754674
604.80 1.984943
604.90 2.09119
605.00 1.970356
605.10 1.826978
605.20 1.85189
605.30 1.803675
605.40 1.699868
605.50 1.704207
605.60 1.795907
605.70 1.936387
605.80 1.958427
605.90 1.738567
606.00 1.715955
606.10 1.764921
606.20 1.831735
606.30 1.84756
606.40 1.846614
606.50 1.848606
606.60 1.726501
606.70 1.793006
606.80 2.012671
606.90 2.209084
607.00 2.203004
607.10 2.074728
607.20 1.987985
607.30 1.849513
607.40 1.864868
607.50 1.90969
607.60 1.928857
607.70 1.969355
607.80 1.944282
607.90 1.98275
608.00 1.81419
608.10 1.732509
608.20 1.677827
608.30 1.684864
608.40 1.909993
608.50 1.951083
608.60 1.915633
608.70 1.887104
608.80 1.967675
608.90 1.91238
609.00 1.657974
609.10 1.779703
609.20 1.940745
609.30 1.965731
609.40 1.949334
609.50 1.957975
609.60 1.903105
609.70 1.874761
609.80 2.026733
609.90 1.993177
610.00 1.846675
610.10 1.979363
610.20 2.048564
610.30 1.86056
610.40 1.61271
610.50 1.731271
610.60 1.964028
610.70 2.003321
610.80 1.864075
610.90 1.878949
611.00 1.818088
611.10 1.862106
611.20 1.957848
611.30 1.915714
611.40 1.819056
611.50 1.795828
611.60 1.732094
611.70 1.67229
611.80 1.640418
611.90 1.738892
612.00 1.919713
612.10 1.91632
612.20 1.782584
612.30 1.670295
612.40 1.695371
612.50 1.744251
612.60 1.57247
612.70 1.557716
612.80 1.601337
612.90 1.637226
613.00 1.837317
613.10 1.896183
613.20 1.639468
613.30 1.672573
613.40 1.844278
613.50 1.81261
613.60 1.659756
613.70 1.694429
613.80 1.799039
613.90 1.641236
614.00 1.562224
614.10 1.632559
614.20 1.553882
614.30 1.414051
614.40 1.559716
614.50 1.722
614.60 1.786653
614.70 1.703738
614.80 1.698415
614.90 1.532296
615.00 1.453662
615.10 1.308166
615.20 1.120501
615.30 1.187845
615.40 1.333844
615.50 1.352158
615.60 1.275631
615.70 1.349132
615.80 1.471756
615.90 1.294131
616.00 1.183262
616.10 1.151039
616.20 1.071135
616.30 1.025653
616.40 1.066027
616.50 1.135221
616.60 1.016149
616.70 0.9386991
616.80 0.9910793
616.90 0.9637484
617.00 0.9638977
617.10 1.020271
617.20 1.091509
617.30 1.066348
617.40 0.9184608
617.50 0.9772741
617.60 1.096403
617.70 1.008294
617.80 0.8234219
617.90 0.9549929
618.00 0.9844496
618.10 0.8049733
618.20 0.6262989
618.30 0.7630423
618.40 1.220852
618.50 1.285768
618.60 1.106337
618.70 1.005372
618.80 0.8346251
618.90 0.688728
619.00 0.7281124
619.10 0.8091083
619.20 0.761366
619.30 0.8707922
619.40 0.8775558
619.50 0.884302
619.60 0.9060157
619.70 1.079777
619.80 1.020018
619.90 0.8395223
620.00 0.7494441
620.10 0.8475915
620.20 1.058461
620.30 1.023618
620.40 0.9458455
620.50 0.8925941
620.60 0.8440153
620.70 0.8488442
620.80 0.9741156
620.90 1.108794
621.00 1.065644
621.10 1.11493
621.20 1.128963
621.30 1.036727
621.40 1.005835
621.50 1.01359
621.60 1.065041
621.70 0.918795
621.80 0.7295015
621.90 0.7765958
622.00 0.892983
622.10 1.001862
622.20 1.058305
622.30 0.9532721
622.40 0.9430013
622.50 0.8637804
622.60 0.7881494
622.70 0.6534775
622.80 0.6918613
622.90 0.9162809
623.00 0.9700081
623.10 0.9683172
623.20 0.8697144
623.30 0.8109031
623.40 0.8969274
623.50 1.026362
623.60 0.9182829
623.70 0.9576549
623.80 0.8933705
623.90 0.6013576
624.00 0.810188
624.10 1.148244
624.20 1.1038
624.30 0.6710516
624.40 0.6037887
624.50 0.9189928
624.60 0.9819376
624.70 0.9348811
624.80 0.8634933
624.90 0.8785533
625.00 0.9017519
625.10 0.8550037
625.20 0.992485
625.30 1.082068
625.40 1.139851
625.50 1.210354
625.60 1.136253
625.70 1.12853
625.80 1.084603
625.90 1.209314
626.00 1.173337
626.10 1.094469
626.20 1.095201
626.30 1.00098
626.40 0.9391295
626.50 1.094167
626.60 1.161289
626.70 1.065897
626.80 0.9206949
626.90 0.9507855
627.00 1.093774
627.10 1.162557
627.20 1.028557
627.30 1.098829
627.40 1.269422
627.50 1.330619
627.60 1.304637
627.70 1.353245
627.80 1.477325
627.90 1.353343
628.00 1.237392
628.10 1.178848
628.20 1.188321
628.30 1.205775
628.40 1.270453
628.50 1.319486
628.60 1.350702
628.70 1.235971
628.80 1.455674
628.90 1.536318
629.00 1.454175
629.10 1.43842
629.20 1.498433
629.30 1.687488
629.40 1.591052
629.50 1.457331
629.60 1.547583
629.70 2.008634
629.80 2.095925
629.90 1.935958
630.00 1.786425
630.10 1.413905
630.20 1.2429
630.30 1.161129
630.40 1.859636
630.50 2.303443
630.60 2.084497
630.70 2.008122
630.80 1.936616
630.90 1.973291
631.00 1.945988
631.10 2.046903
631.20 2.188793
631.30 2.153007
631.40 2.153697
631.50 2.077131
631.60 2.026738
631.70 2.187595
631.80 2.270758
631.90 2.2276
632.00 2.213675
632.10 2.443951
632.20 2.346341
632.30 2.07099
632.40 2.109238
632.50 2.259867
632.60 2.313174
632.70 2.192566
632.80 2.176467
632.90 2.294521
633.00 2.465375
633.10 2.35296
633.20 2.198604
633.30 2.184375
633.40 2.36236
633.50 2.532614
633.60 2.555997
633.70 2.576293
633.80 2.599606
633.90 2.680986
634.00 2.686241
634.10 2.821432
634.20 2.892474
634.30 2.803174
634.40 2.705677
634.50 2.734145
634.60 2.881616
634.70 3.006198
634.80 3.042956
634.90 2.999622
635.00 3.061692
635.10 3.105871
635.20 2.943152
635.30 2.740157
635.40 2.760001
635.50 2.856011
635.60 2.750634
635.70 2.631919
635.80 2.553829
635.90 2.360531
636.00 2.338679
636.10 2.70458
636.20 3.103207
636.30 2.957403
636.40 2.451165
636.50 2.285296
636.60 2.385302
636.70 2.403901
636.80 2.502565
636.90 2.514614
637.00 2.535517
637.10 2.683275
637.20 2.823566
637.30 2.828076
637.40 2.693283
637.50 2.558074
637.60 2.629057
637.70 2.728834
637.80 2.733006
637.90 2.681326
638.00 2.630335
638.10 2.601296
638.20 2.336755
638.30 2.231017
638.40 2.368458
638.50 2.495311
638.60 2.497664
638.70 2.439232
638.80 2.435268
638.90 2.380531
639.00 2.396345
639.10 2.4218
639.20 2.548156
639.30 2.686241
639.40 2.802833
639.50 2.819509
639.60 2.809508
639.70 2.924185
639.80 3.081608
639.90 3.075698
640.00 3.04695
640.10 3.082945
640.20 3.024643
640.30 3.007923
640.40 3.116905
640.50 3.35838
640.60 3.51493
640.70 3.418013
640.80 3.285582
640.90 3.163266
641.00 3.142268
641.10 3.157132
641.20 3.131131
641.30 3.221983
641.40 3.311329
641.50 3.270332
641.60 3.128666
641.70 3.014212
641.80 3.053678
641.90 3.085014
642.00 3.021353
642.10 2.965248
642.20 2.928073
642.30 2.86021
642.40 2.837992
642.50 2.737289
642.60 2.711246
642.70 2.786877
642.80 2.946187
642.90 3.098519
643.00 3.04605
643.10 3.061229
643.20 3.07521
643.30 3.052494
643.40 2.993941
643.50 2.918705
643.60 2.983508
643.70 3.069482
643.80 3.151811
643.90 3.215533
644.00 3.123673
644.10 3.025376
644.20 3.024078
644.30 3.232967
644.40 3.398483
644.50 3.424857
644.60 3.424075
644.70 3.377794
644.80 3.394345
644.90 3.273159
645.00 3.130999
645.10 3.173517
645.20 3.300056
645.30 3.418102
645.40 3.425315
645.50 3.484081
645.60 3.393787
645.70 3.312167
645.80 3.323103
645.90 3.411741
646.00 3.506506
646.10 3.534253
646.20 3.47676
646.30 3.423314
646.40 3.541023
646.50 3.586916
646.60 3.545058
646.70 3.458876
646.80 3.5819
646.90 3.825786
647.00 3.979599
647.10 3.79613
647.20 3.713561
647.30 4.033057
647.40 4.328794
647.50 4.280039
647.60 3.989222
647.70 3.905911
647.80 3.942009
647.90 3.897781
648.00 3.658299
648.10 3.478442
648.20 3.443956
648.30 3.47036
648.40 3.48594
648.50 3.428164
648.60 3.277085
648.70 3.340748
648.80 3.501723
648.90 3.624509
649.00 3.683244
649.10 3.649422
649.20 3.662011
649.30 3.723608
649.40 3.744755
649.50 3.822013
649.60 3.992868
649.70 4.087332
649.80 4.016238
649.90 3.948411
650.00 4.096395
650.10 4.050141
650.20 4.091995
650.30 4.368645
650.40 4.655287
650.50 4.708234
650.60 4.6003
650.70 4.657241
650.80 4.785955
650.90 4.870031
651.00 4.916775
651.10 5.021306
651.20 5.067049
651.30 5.004893
651.40 4.851762
651.50 4.767713
651.60 4.801204
651.70 4.953921
651.80 5.054633
651.90 5.19976
652.00 5.313434
652.10 5.327399
652.20 5.472237
652.30 5.616028
652.40 5.598602
652.50 5.413142
652.60 5.43806
652.70 5.830541
652.80 6.168447
652.90 6.252614
653.00 6.258556
653.10 6.409769
653.20 6.464725
653.30 6.32177
653.40 6.130005
653.50 6.098083
653.60 6.39569
653.70 6.685299
653.80 6.911261
653.90 7.075191
654.00 7.093614
654.10 7.044787
654.20 7.118678
654.30 7.211921
654.40 7.000214
654.50 6.636549
654.60 6.33217
654.70 6.158555
654.80 6.073496
654.90 5.972028
655.00 5.832426
655.10 5.67107
655.20 5.582519
655.30 5.474435
655.40 5.37412
655.50 5.278933
655.60 5.330968
655.70 5.497868
655.80 5.671423
655.90 5.867755
656.00 6.073489
656.10 6.701007
656.20 8.831867
656.30 11.81942
656.40 13.67158
656.50 13.13186
656.60 10.63471
656.70 7.765614
656.80 5.786444
656.90 4.888355
657.00 4.662618
657.10 4.589207
657.20 4.628173
657.30 4.623171
657.40 4.560409
657.50 4.454639
657.60 4.464595
657.70 4.598128
657.80 4.702291
657.90 4.562934
658.00 4.160411
658.10 3.914098
658.20 3.922684
658.30 4.141508
658.40 4.314228
658.50 4.417715
658.60 4.534492
658.70 4.66597
658.80 4.796532
658.90 4.74175
659.00 4.739448
659.10 4.826267
659.20 4.837229
659.30 4.824839
659.40 4.669167
659.50 4.431222
659.60 4.264507
659.70 4.28781
659.80 4.474742
659.90 4.44548
660.00 4.319112
660.10 4.3301
660.20 4.427916
660.30 4.493209
660.40 4.493724
660.50 4.452273
660.60 4.423568
660.70 4.374938
660.80 4.273889
660.90 4.233491
661.00 4.303795
661.10 4.348584
661.20 4.373794
661.30 4.476027
661.40 4.586409
661.50 4.666955
661.60 4.512308
661.70 4.379142
661.80 4.399254
661.90 4.377366
662.00 4.236811
662.10 4.031689
662.20 3.969805
662.30 3.971328
662.40 3.994706
662.50 3.907594
662.60 3.633614
662.70 3.418529
662.80 3.383808
662.90 3.461086
663.00 3.581521
663.10 3.757589
663.20 3.917802
663.30 3.986437
663.40 4.064651
663.50 4.072686
663.60 3.859237
663.70 3.507727
663.80 3.240483
663.90 3.257069
664.00 3.420143
664.10 3.574999
664.20 3.677804
664.30 3.712288
664.40 3.672526
664.50 3.718186
664.60 3.698373
664.70 3.682335
664.80 3.714853
664.90 3.739033
665.00 3.706611
665.10 3.459147
665.20 3.065879
665.30 2.722191
665.40 2.557217
665.50 2.701378
665.60 2.889699
665.70 2.89905
665.80 2.899811
665.90 2.891013
666.00 2.922473
666.10 2.861348
666.20 2.893642
666.30 3.070406
666.40 3.123118
666.50 3.183492
666.60 3.263548
666.70 3.323531
666.80 3.323001
666.90 3.387172
667.00 3.565258
667.10 3.607075
667.20 3.615534
667.30 3.488895
667.40 3.358658
667.50 3.36566
667.60 3.421005
667.70 3.504174
667.80 3.648481
667.90 3.738427
668.00 3.636871
668.10 3.373092
668.20 2.972747
668.30 2.605006
668.40 2.402235
668.50 2.383957
668.60 2.537056
668.70 2.595969
668.80 2.575216
668.90 2.705633
669.00 2.902364
669.10 2.862706
669.20 2.705437
669.30 2.622362
669.40 2.550263
669.50 2.585751
669.60 2.769364
669.70 2.941708
669.80 3.005587
669.90 2.946349
670.00 2.991103
670.10 3.051586
670.20 3.148162
670.30 3.199057
670.40 3.156628
670.50 3.1454
670.60 3.140002
670.70 3.182238
670.80 3.218351
670.90 3.187211
671.00 3.161025
671.10 3.226204
671.20 3.299431
671.30 3.240265
671.40 3.113543
671.50 2.965849
671.60 2.820522
671.70 2.627868
671.80 2.453441
671.90 2.410618
672.00 2.386571
672.10 2.431009
672.20 2.496863
672.30 2.519671
672.40 2.511533
672.50 2.512865
672.60 2.55025
672.70 2.606129
672.80 2.770962
672.90 2.917202
673.00 2.846825
673.10 2.72615
673.20 2.745631
673.30 2.910457
673.40 3.070364
673.50 3.023416
673.60 2.830144
673.70 2.655146
673.80 2.722058
673.90 2.972578
674.00 3.045748
674.10 2.99571
674.20 2.97563
674.30 3.060948
674.40 3.197981
674.50 3.293324
674.60 3.267275
674.70 3.120572
674.80 2.914414
674.90 2.750536
675.00 2.685977
675.10 2.700857
675.20 2.75536
675.30 2.799371
675.40 2.90376
675.50 3.04479
675.60 3.033714
675.70 3.015352
675.80 3.037168
675.90 2.939185
676.00 2.870602
676.10 2.915289
676.20 3.037456
676.30 3.173477
676.40 3.195282
676.50 3.292132
676.60 3.417141
676.70 3.413829
676.80 3.417105
676.90 3.451953
677.00 3.475544
677.10 3.513543
677.20 3.575904
677.30 3.612805
677.40 3.603482
677.50 3.617041
677.60 3.699169
677.70 3.806817
677.80 3.747494
677.90 3.750422
678.00 3.810358
678.10 3.781129
678.20 3.517165
678.30 3.032097
678.40 2.766045
678.50 2.757669
678.60 2.811974
678.70 2.821685
678.80 2.827916
678.90 2.891879
679.00 2.976059
679.10 3.061201
679.20 3.05658
679.30 2.97912
679.40 2.930417
679.50 2.976412
679.60 3.055373
679.70 3.092084
679.80 3.136624
679.90 3.194067
680.00 3.228773
680.10 3.183129
680.20 3.111626
680.30 3.16369
680.40 3.2444
680.50 3.304121
680.60 3.325174
680.70 3.342506
680.80 3.287674
680.90 3.2081
681.00 3.397267
681.10 3.545627
681.20 3.536557
681.30 3.533909
681.40 3.492427
681.50 3.422925
681.60 3.289445
681.70 3.202706
681.80 3.234678
681.90 3.290266
682.00 3.373207
682.10 3.343546
682.20 3.243456
682.30 3.311541
682.40 3.347247
682.50 3.309804
682.60 3.333656
682.70 3.475008
682.80 3.64947
682.90 3.654636
683.00 3.481694
683.10 3.341354
683.20 3.356667
683.30 3.460931
683.40 3.540431
683.50 3.599496
683.60 3.709431
683.70 3.687305
683.80 3.606755
683.90 3.645761
684.00 3.685636
684.10 3.690707
684.20 3.81901
684.30 3.913361
684.40 3.892713
684.50 3.885452
684.60 3.79982
684.70 3.764339
684.80 3.787335
684.90 3.738089
685.00 3.606673
685.10 3.487879
685.20 3.361594
685.30 3.202864
685.40 3.1268
685.50 3.151544
685.60 3.317195
685.70 3.416306
685.80 3.42475
685.90 3.409101
686.00 3.333355
686.10 3.4078
686.20 3.591264
686.30 3.692919
686.40 3.810933
686.50 3.831201
686.60 3.774244
686.70 3.740239
686.80 3.525936
686.90 3.51768
687.00 3.473621
687.10 3.36243
687.20 3.45374
687.30 3.665729
687.40 3.913574
687.50 4.104681
687.60 4.183606
687.70 4.135422
687.80 4.096273
687.90 4.032087
688.00 3.855573
688.10 3.84071
688.20 3.996535
688.30 4.014983
688.40 3.945533
688.50 3.841137
688.60 3.786797
688.70 3.853319
688.80 3.924638
688.90 3.965448
689.00 3.916931
689.10 3.801166
689.20 3.81821
689.30 4.028781
689.40 4.173478
689.50 4.126165
689.60 4.094567
689.70 4.177171
689.80 4.174296
689.90 4.156347
690.00 4.123095
690.10 4.000134
690.20 3.75176
690.30 3.608707
690.40 3.776671
690.50 3.992461
690.60 4.112704
690.70 4.322019
690.80 4.650948
690.90 4.821952
691.00 4.74048
691.10 4.621892
691.20 4.549325
691.30 4.698462
691.40 4.734694
691.50 4.718839
691.60 4.795395
691.70 4.71702
691.80 4.49121
691.90 4.048675
692.00 3.665123
692.10 3.622256
692.20 3.89764
692.30 4.378249
692.40 4.745389
692.50 4.768378
692.60 4.665242
692.70 4.80156
692.80 4.976973
692.90 5.025626
693.00 4.985724
693.10 5.00757
693.20 5.23054
693.30 5.469067
693.40 5.632047
693.50 5.694985
693.60 5.668883
693.70 5.650015
693.80 5.601976
693.90 5.525099
694.00 5.513819
694.10 5.621808
694.20 5.857065
694.30 6.13937
694.40 6.418037
694.50 6.72733
694.60 6.966673
694.70 7.175887
694.80 7.279376
694.90 7.211932
695.00 7.222219
695.10 7.196869
695.20 7.135332
695.30 6.973978
695.40 6.651534
695.50 6.413454
695.60 6.382087
695.70 6.540297
695.80 6.507383
695.90 6.354828
696.00 6.318357
696.10 6.393441
696.20 6.573794
696.30 6.677645
696.40 6.75633
696.50 6.905218
696.60 6.988686
696.70 7.021331
696.80 7.089473
696.90 7.135531
697.00 7.081515
697.10 6.965943
697.20 6.776011
697.30 6.627046
697.40 6.669599
697.50 6.806304
697.60 7.02806
697.70 7.376986
697.80 7.698556
697.90 7.86479
698.00 7.750934
698.10 7.553953
698.20 7.532038
698.30 7.678489
698.40 7.770556
698.50 7.754826
698.60 7.769523
698.70 7.874629
698.80 7.90006
698.90 7.795649
699.00 7.571442
699.10 7.483684
699.20 7.486107
699.30 7.417346
699.40 7.512224
699.50 7.642425
699.60 7.786459
699.70 7.898656
699.80 7.843992
699.90 7.687409
700.00 7.543311
700.10 7.64391
700.20 7.915201
700.30 8.089039
700.40 8.009439
700.50 7.770166
700.60 7.658101
700.70 7.84481
700.80 8.158523
700.90 8.388902
701.00 8.528753
701.10 8.545627
701.20 8.574178
701.30 8.622192
701.40 8.621408
701.50 8.788251
701.60 9.049175
701.70 9.142318
701.80 9.103832
701.90 9.096973
702.00 9.292886
702.10 9.572869
702.20 9.597509
702.30 9.41743
702.40 9.187976
702.50 8.888575
702.60 8.805835
702.70 8.909164
702.80 9.394233
702.90 10.1421
703.00 10.62598
703.10 10.83086
703.20 10.79034
703.30 10.63318
703.40 10.62638
703.50 10.87102
703.60 11.34652
703.70 11.80585
703.80 12.02815
703.90 12.06031
704.00 11.98669
704.10 12.07036
704.20 12.21505
704.30 12.38766
704.40 12.59394
704.50 12.74756
704.60 12.88282
704.70 12.95007
704.80 12.96476
704.90 12.92955
705.00 12.94412
705.10 13.11939
705.20 13.17379
705.30 12.7752
705.40 11.62423
705.50 9.634623
705.60 7.310991
705.70 5.455602
705.80 4.493002
705.90 4.406083
706.00 4.577372
706.10 4.410804
706.20 4.161123
706.30 4.041214
706.40 4.074255
706.50 4.211149
706.60 4.42309
706.70 4.704718
706.80 4.926322
706.90 4.958014
707.00 5.026165
707.10 5.183649
707.20 5.335687
707.30 5.480568
707.40 5.537818
707.50 5.518745
707.60 5.456342
707.70 5.404476
707.80 5.500523
707.90 5.704017
708.00 5.735421
708.10 5.585773
708.20 5.694632
708.30 5.99238
708.40 6.201741
708.50 6.278113
708.60 6.196292
708.70 5.877818
708.80 5.298879
708.90 4.605081
709.00 3.868035
709.10 3.348802
709.20 3.230306
709.30 3.301285
709.40 3.352519
709.50 3.337483
709.60 3.312011
709.70 3.31933
709.80 3.391913
709.90 3.534046
710.00 3.611345
710.10 3.617424
710.20 3.665944
710.30 3.702545
710.40 3.76511
710.50 3.850084
710.60 3.939802
710.70 4.046602
710.80 4.182996
710.90 4.378967
711.00 4.604178
711.10 4.824226
711.20 4.923832
711.30 4.870805
711.40 4.803394
711.50 4.831312
711.60 4.840252
711.70 4.768287
711.80 4.829067
711.90 5.015259
712.00 5.263116
712.10 5.478725
712.20 5.537891
712.30 5.578365
712.40 5.528006
712.50 5.149082
712.60 4.44891
712.70 3.63859
712.80 3.010689
712.90 2.761651
713.00 2.742294
713.10 2.831704
713.20 2.913358
713.30 2.875769
713.40 2.819025
713.50 2.838511
713.60 2.96799
713.70 3.080879
713.80 2.998806
713.90 2.924752
714.00 2.970102
714.10 3.073764
714.20 3.220211
714.30 3.360112
714.40 3.425247
714.50 3.442075
714.60 3.449592
714.70 3.500507
714.80 3.656075
714.90 3.686062
715.00 3.579262
715.10 3.577195
715.20 3.694091
715.30 3.772798
715.40 3.853157
715.50 3.998955
715.60 4.209652
715.70 4.345279
715.80 4.253197
715.90 4.026991
716.00 3.874777
716.10 3.80681
716.20 3.709183
716.30 3.61439
716.40 3.594807
716.50 3.689283
716.60 3.822375
716.70 3.889255
716.80 3.911829
716.90 3.888578
717.00 3.913829
717.10 4.071079
717.20 4.175864
717.30 4.219099
717.40 4.209789
717.50 4.14399
717.60 4.156521
717.70 4.237343
717.80 4.383488
717.90 4.471197
718.00 4.572883
718.10 4.784067
718.20 4.873869
718.30 4.893407
718.40 4.945368
718.50 5.070275
718.60 5.229862
718.70 5.281545
718.80 5.323961
718.90 5.432478
719.00 5.524734
719.10 5.627493
719.20 5.646623
719.30 5.591579
719.40 5.611424
719.50 5.648052
719.60 5.61025
719.70 5.368402
719.80 5.051245
719.90 4.789417
720.00 4.560715
720.10 4.413933
720.20 4.482553
720.30 4.656066
720.40 4.691317
720.50 4.638273
720.60 4.603316
720.70 4.684757
720.80 4.765289
720.90 4.754043
721.00 4.741608
721.10 4.885802
721.20 5.069338
721.30 5.159176
721.40 5.220848
721.50 5.251911
721.60 5.322541
721.70 5.388638
721.80 5.41074
721.90 5.443501
722.00 5.440766
722.10 5.482539
722.20 5.629493
722.30 5.779097
722.40 5.91289
722.50 6.043659
722.60 6.169143
722.70 6.31818
722.80 6.486144
722.90 6.597888
723.00 6.551687
723.10 6.341919
723.20 6.189391
723.30 6.171151
723.40 6.199101
723.50 6.37157
723.60 6.611103
723.70 6.794059
723.80 6.964776
723.90 7.005233
724.00 7.017146
724.10 7.17733
724.20 7.107891
724.30 7.069703
724.40 7.125891
724.50 7.249516
724.60 7.590508
724.70 7.884334
724.80 8.092736
724.90 8.094478
725.00 8.148689
725.10 8.509607
725.20 8.757528
725.30 8.664165
725.40 8.46423
725.50 8.472143
725.60 8.704035
725.70 8.942069
725.80 9.090643
725.90 9.10133
726.00 8.987063
726.10 8.987528
726.20 9.251468
726.30 9.637575
726.40 9.940373
726.50 10.11901
726.60 10.20938
726.70 10.23841
726.80 10.26786
726.90 10.23595
727.00 10.04055
727.10 9.653211
727.20 9.104412
727.30 8.689233
727.40 8.689183
727.50 9.270254
727.60 10.06606
727.70 10.55015
727.80 10.63238
727.90 10.19865
728.00 9.982043
728.10 10.1913
728.20 10.22654
728.30 10.17707
728.40 10.20535
728.50 10.39637
728.60 10.80793
728.70 10.96144
728.80 10.93219
728.90 11.16659
729.00 11.33488
729.10 11.35339
729.20 11.36157
729.30 11.44911
729.40 11.65982
729.50 11.89421
729.60 12.1946
729.70 12.59567
729.80 12.84637
729.90 12.72821
730.00 12.48095
730.10 12.58271
730.20 12.97232
730.30 13.28537
730.40 13.55612
730.50 13.72379
730.60 13.63352
730.70 13.6973
730.80 14.0762
730.90 14.4269
731.00 14.57687
731.10 14.51585
731.20 14.3742
731.30 14.3588
731.40 14.47809
731.50 14.71327
731.60 15.06494
731.70 15.29481
731.80 15.25071
731.90 15.23105
732.00 15.6766
732.10 16.09717
732.20 16.09875
732.30 16.05558
732.40 16.10593
732.50 16.1402
732.60 16.02958
732.70 15.80451
732.80 15.8463
732.90 16.21216
733.00 16.4645
733.10 16.5515
733.20 16.60644
733.30 16.59364
733.40 16.59604
733.50 16.73682
733.60 17.09369
733.70 17.5716
733.80 17.97545
733.90 18.29475
734.00 18.29727
734.10 18.44401
734.20 18.77731
734.30 18.37971
734.40 17.84458
734.50 17.39538
734.60 16.81306
734.70 16.58666
734.80 16.67107
734.90 17.02884
735.00 17.48538
735.10 17.78462
735.20 18.00371
735.30 18.17881
735.40 18.22623
735.50 17.98645
735.60 17.51609
735.70 17.12381
735.80 17.20907
735.90 17.69845
736.00 18.12119
736.10 18.31781
736.20 18.39312
736.30 18.59942
736.40 18.99921
736.50 19.39157
736.60 19.62197
736.70 19.69108
736.80 19.93401
736.90 20.25011
737.00 20.47122
737.10 20.68088
737.20 20.64807
737.30 20.37329
737.40 19.91442
737.50 19.31822
737.60 18.97321
737.70 19.04097
737.80 19.34311
737.90 19.71735
738.00 19.91227
738.10 19.89812
738.20 19.83023
738.30 19.91865
738.40 20.10031
738.50 20.17476
738.60 20.22288
738.70 20.29665
738.80 20.48355
738.90 20.91667
739.00 21.3613
739.10 21.6229
739.20 21.51669
739.30 20.97689
739.40 20.23716
739.50 19.6182
739.60 19.30576
739.70 19.33229
739.80 19.67625
739.90 20.11077
740.00 20.40806
740.10 20.68434
740.20 20.9856
740.30 21.19396
740.40 21.06999
740.50 20.40266
740.60 19.51914
740.70 19.08583
740.80 19.05757
740.90 19.15905
741.00 19.58168
741.10 20.18906
741.20 20.56237
741.30 20.5895
741.40 20.57913
741.50 20.82003
741.60 21.09612
741.70 20.9137
741.80 20.12022
741.90 19.29207
742.00 18.82755
742.10 18.83908
742.20 19.2455
742.30 19.63747
742.40 19.90588
742.50 20.25405
742.60 20.56315
742.70 20.74618
742.80 20.7743
742.90 20.72242
743.00 20.82885
743.10 21.00244
743.20 21.09069
743.30 21.18535
743.40 21.16494
743.50 20.55092
743.60 19.58039
743.70 18.96815
743.80 19.09426
743.90 19.96623
744.00 20.89841
744.10 21.05257
744.20 20.59934
744.30 20.19883
744.40 19.90905
744.50 19.65691
744.60 19.46445
744.70 19.35593
744.80 19.29872
744.90 19.28792
745.00 19.41513
745.10 19.66595
745.20 20.08808
745.30 20.48367
745.40 20.53703
745.50 20.3087
745.60 20.05867
745.70 19.89897
745.80 19.82786
745.90 19.79741
746.00 19.78931
746.10 19.90576
746.20 20.13674
746.30 20.45232
746.40 20.7579
746.50 20.82718
746.60 20.78544
746.70 20.74731
746.80 20.65971
746.90 20.64708
747.00 20.8771
747.10 21.3278
747.20 21.67091
747.30 21.60361
747.40 20.92649
747.50 20.16617
747.60 20.05056
747.70 20.43634
747.80 20.91854
747.90 21.25807
748.00 21.28996
748.10 21.06924
748.20 20.98968
748.30 21.15556
748.40 21.54228
748.50 21.97772
748.60 21.98532
748.70 21.64195
748.80 21.31338
748.90 21.25342
749.00 21.41453
749.10 21.63815
749.20 21.79026
749.30 21.65102
749.40 21.23448
749.50 20.79232
749.60 20.62499
749.70 20.84921
749.80 21.38316
749.90 22.03798
750.00 22.62302
750.10 22.95769
750.20 22.98903
750.30 22.89996
750.40 22.85086
750.50 22.69588
750.60 22.29799
750.70 21.91865
750.80 21.83657
750.90 22.18974
751.00 22.91526
751.10 23.54258
751.20 23.7993
751.30 23.65972
751.40 23.23177
751.50 22.91394
751.60 22.88193
751.70 23.18398
751.80 23.47414
751.90 23.28471
752.00 22.89136
752.10 22.72575
752.20 22.71464
752.30 22.89196
752.40 23.2448
752.50 23.39395
752.60 23.46385
752.70 23.24051
752.80 22.42321
752.90 21.87601
753.00 21.99566
753.10 22.7429
753.20 23.69123
753.30 24.03449
753.40 23.82161
753.50 23.53411
753.60 23.32114
753.70 23.41395
753.80 23.96683
753.90 24.72254
754.00 25.45902
754.10 25.85227
754.20 25.80335
754.30 25.67835
754.40 25.67154
754.50 25.7997
754.60 25.89873
754.70 25.74374
754.80 25.38709
754.90 25.03347
755.00 24.83263
755.10 24.90399
755.20 25.33748
755.30 25.73043
755.40 25.77401
755.50 25.57824
755.60 25.41369
755.70 25.48944
755.80 25.61428
755.90 25.78446
756.00 26.04471
756.10 26.18117
756.20 26.17248
756.30 26.04674
756.40 25.79897
756.50 25.47617
756.60 25.16254
756.70 24.80256
756.80 24.32831
756.90 23.8746
757.00 23.76513
757.10 24.31996
757.20 25.47079
757.30 26.59134
757.40 26.97443
757.50 26.82291
757.60 26.66927
757.70 26.3592
757.80 25.71219
757.90 25.19094
758.00 25.2579
758.10 26.02712
758.20 27.15626
758.30 28.04265
758.40 28.41848
758.50 28.2734
758.60 27.73465
758.70 26.97373
758.80 25.54953
758.90 22.92718
759.00 19.5479
759.10 16.44864
759.20 14.39598
759.30 13.6965
759.40 14.03371
759.50 14.79973
759.60 15.40978
759.70 15.48976
759.80 15.46687
759.90 15.87183
760.00 16.455
760.10 16.47736
760.20 15.86208
760.30 15.34594
760.40 15.52962
760.50 16.11896
760.60 16.4751
760.70 16.51731
760.80 16.51951
760.90 16.53281
761.00 16.59083
761.10 16.67429
761.20 16.87181
761.30 17.38499
761.40 18.22032
761.50 19.02908
761.60 19.28719
761.70 19.24947
761.80 19.36175
761.90 19.57294
762.00 19.94018
762.10 20.04398
762.20 19.55103
762.30 19.17555
762.40 19.15586
762.50 19.12716
762.60 18.77479
762.70 17.63621
762.80 15.94304
762.90 14.28436
763.00 12.7818
763.10 11.69447
763.20 11.38205
763.30 11.613
763.40 12.14339
763.50 12.57883
763.60 12.57533
763.70 12.47122
763.80 12.48284
763.90 12.55432
764.00 12.63255
764.10 12.36486
764.20 12.00927
764.30 12.12108
764.40 12.38136
764.50 12.45836
764.60 12.13502
764.70 11.65045
764.80 11.74369
764.90 12.0387
765.00 11.92423
765.10 11.59902
765.20 11.25038
765.30 11.16774
765.40 11.21136
765.50 10.73323
765.60 9.972194
765.70 9.560916
765.80 9.477897
765.90 9.330779
766.00 8.71843
766.10 7.793565
766.20 6.887996
766.30 6.015285
766.40 5.282729
766.50 4.662786
766.60 4.108454
766.70 3.899579
766.80 4.012252
766.90 4.34666
767.00 4.968947
767.10 5.638307
767.20 6.081789
767.30 6.213491
767.40 6.295416
767.50 6.515244
767.60 6.896307
767.70 7.366715
767.80 7.662498
767.90 7.832915
768.00 8.027461
768.10 8.184979
768.20 8.28163
768.30 8.392547
768.40 8.593845
768.50 8.810447
768.60 8.936245
768.70 8.980727
768.80 9.041448
768.90 9.08964
769.00 9.047705
769.10 8.990184
769.20 8.896367
769.30 8.718617
769.40 8.397327
769.50 7.902735
769.60 7.383315
769.70 6.729641
769.80 5.854325
769.90 4.960765
770.00 4.285607
770.10 4.081776
770.20 4.367609
770.30 4.990564
770.40 5.842972
770.50 6.65876
770.60 7.223804
770.70 7.588301
770.80 7.760576
770.90 8.009391
771.00 8.541954
771.10 8.95519
771.20 9.196287
771.30 9.495433
771.40 9.796293
771.50 10.04909
771.60 10.14366
771.70 10.26649
771.80 10.5351
771.90 10.4494
772.00 10.41859
772.10 10.86723
772.20 11.36001
772.30 11.62344
772.40 11.56808
772.50 11.65142
772.60 12.01359
772.70 12.40711
772.80 12.769
772.90 13.05026
773.00 13.17036
773.10 13.16195
773.20 13.19626
773.30 13.31027
773.40 13.5493
773.50 13.8479
773.60 13.97941
773.70 14.04346
773.80 14.25422
773.90 14.50113
774.00 14.65982
774.10 14.71502
774.20 14.65889
774.30 14.36722
774.40 13.71547
774.50 12.96303
774.60 12.42594
774.70 12.09742
774.80 11.84076
774.90 11.64137
775.00 11.34816
775.10 10.92582
775.20 10.57589
775.30 10.13686
775.40 10.00096
775.50 10.48997
775.60 11.01313
775.70 11.26631
775.80 11.28737
775.90 11.30459
776.00 11.40163
776.10 11.58285
776.20 11.8427
776.30 11.86637
776.40 11.62025
776.50 11.45157
776.60 11.52579
776.70 11.80558
776.80 12.2801
776.90 12.75171
777.00 12.91855
777.10 12.87687
777.20 12.88757
777.30 13.04809
777.40 13.32936
777.50 13.50614
777.60 13.49571
777.70 13.49778
777.80 13.46095
777.90 13.39311
778.00 13.45373
778.10 13.50198
778.20 13.4043
778.30 13.11914
778.40 12.61703
778.50 12.15448
778.60 11.91624
778.70 11.87665
778.80 11.95646
778.90 12.06737
779.00 12.29929
779.10 12.57464
779.20 12.66168
779.30 12.62185
779.40 12.8958
779.50 13.48933
779.60 13.86482
779.70 13.91641
779.80 13.61915
779.90 12.93683
780.00 12.09793
780.10 11.41164
780.20 11.31372
780.30 11.93373
780.40 13.07225
780.50 14.44317
780.60 15.62612
780.70 16.35417
780.80 16.63637
780.90 16.54417
781.00 16.27392
781.10 16.02563
781.20 15.75661
781.30 15.80873
781.40 16.41569
781.50 17.05009
781.60 17.4068
781.70 17.53515
781.80 17.53661
781.90 17.47977
782.00 17.27044
782.10 16.97499
782.20 16.24418
782.30 15.11102
782.40 14.64703
782.50 14.94927
782.60 15.55811
782.70 15.93362
782.80 15.4524
782.90 14.57365
783.00 13.74189
783.10 13.11256
783.20 12.92658
783.30 13.20079
783.40 13.72863
783.50 14.22233
783.60 14.541
783.70 14.70046
783.80 14.79674
783.90 14.92222
784.00 15.02581
784.10 15.08316
784.20 15.12637
784.30 15.10655
784.40 15.17015
784.50 15.45505
784.60 15.9238
784.70 16.40238
784.80 16.56101
784.90 16.3741
785.00 16.08761
785.10 15.84636
785.20 15.80743
785.30 16.11563
785.40 16.45386
785.50 16.48708
785.60 16.53844
785.70 16.6068
785.80 16.66363
785.90 16.95233
786.00 17.01585
786.10 16.73589
786.20 16.54389
786.30 16.30754
786.40 15.85798
786.50 15.62431
786.60 15.67358
786.70 15.66148
786.80 15.72013
786.90 15.82294
787.00 15.94319
787.10 16.08793
787.20 15.9662
787.30 15.57347
787.40 15.24792
787.50 15.3235
787.60 15.79197
787.70 16.39566
787.80 17.00463
787.90 17.67493
788.00 18.06924
788.10 18.03661
788.20 17.8782
788.30 17.77639
788.40 18.08637
788.50 18.52119
788.60 18.64607
788.70 18.62845
788.80 18.53089
788.90 18.61592
789.00 18.94695
789.10 19.16633
789.20 19.22037
789.30 19.22296
789.40 19.32163
789.50 19.53855
789.60 19.51465
789.70 19.07052
789.80 18.50433
789.90 17.98588
790.00 17.43064
790.10 16.95799
790.20 16.79852
790.30 17.015
790.40 17.62343
790.50 18.29628
790.60 18.7009
790.70 18.79059
790.80 18.39075
790.90 17.39101
791.00 16.23054
791.10 15.37212
791.20 14.82192
791.30 14.96778
791.40 15.85059
791.50 16.74807
791.60 17.26279
791.70 17.17495
791.80 16.6931
791.90 16.28487
792.00 15.97129
792.10 15.91882
792.20 16.34406
792.30 16.83044
792.40 16.9154
792.50 16.81761
792.60 16.95273
792.70 17.18576
792.80 17.29033
792.90 17.31271
793.00 17.37292
793.10 17.72445
793.20 18.37368
793.30 19.02504
793.40 19.49708
793.50 19.66694
793.60 19.64843
793.70 19.67389
793.80 19.72778
793.90 19.6589
794.00 19.17669
794.10 18.2498
794.20 17.35193
794.30 16.92797
794.40 17.19441
794.50 17.80595
794.60 18.03695
794.70 17.5759
794.80 16.66508
794.90 15.77312
795.00 15.54013
795.10 16.2741
795.20 17.47725
795.30 18.73637
795.40 19.74769
795.50 20.1744
795.60 20.26955
795.70 20.32971
795.80 20.44856
795.90 20.46139
796.00 20.09525
796.10 19.51585
796.20 18.9179
796.30 18.45659
796.40 18.51408
796.50 19.1337
796.60 19.92754
796.70 20.59409
796.80 20.89469
796.90 20.9205
797.00 21.09045
797.10 21.49722
797.20 21.98105
797.30 22.25901
797.40 22.05223
797.50 21.45321
797.60 20.74867
797.70 20.24587
797.80 20.00937
797.90 19.95364
798.00 20.03575
798.10 20.15476
798.20 20.19076
798.30 20.07014
798.40 19.80354
798.50 19.52265
798.60 19.3042
798.70 19.07016
798.80 18.77497
798.90 18.62751
799.00 18.91498
799.10 19.56588
799.20 20.26082
799.30 20.81542
799.40 21.08114
799.50 20.86246
799.60 20.40666
799.70 20.29626
799.80 20.41555
799.90 20.45538
800.00 20.57541
800.10 20.80877
800.20 21.08663
800.30 21.34743
800.40 21.5588
800.50 21.77066
800.60 21.94002
800.70 22.06867
800.80 22.27365
800.90 22.58808
801.00 22.84059
801.10 22.89271
801.20 22.9044
801.30 23.02844
801.40 23.25817
801.50 23.52482
801.60 23.72628
801.70 23.95567
801.80 24.24075
801.90 24.43812
802.00 24.60706
802.10 24.69376
802.20 24.58931
802.30 24.4349
802.40 24.4292
802.50 24.76599
802.60 25.369
802.70 25.91605
802.80 26.12555
802.90 25.99653
803.00 26.00194
803.10 26.29785
803.20 26.57597
803.30 26.71871
803.40 26.70735
803.50 26.66236
803.60 26.66665
803.70 26.67258
803.80 26.74588
803.90 26.79615
804.00 26.66685
804.10 26.53372
804.20 26.62844
804.30 26.87763
804.40 27.25292
804.50 27.73151
804.60 27.98468
804.70 27.9223
804.80 27.68891
804.90 27.31688
805.00 27.36438
805.10 28.20855
805.20 29.27557
805.30 30.23071
805.40 30.97247
805.50 31.20697
805.60 31.12257
805.70 31.01709
805.80 30.87336
805.90 30.83693
806.00 31.07347
806.10 31.43603
806.20 31.73422
806.30 31.78123
806.40 31.5132
806.50 31.19969
806.60 30.95188
806.70 30.99867
806.80 31.48217
806.90 31.75773
807.00 31.62192
807.10 31.41071
807.20 31.27176
807.30 31.54396
807.40 32.32002
807.50 33.10273
807.60 33.47258
807.70 33.5851
807.80 33.69637
807.90 33.8883
808.00 34.1347
808.10 34.35439
808.20 34.60738
808.30 34.87886
808.40 35.11024
808.50 35.38496
808.60 35.68928
808.70 35.78593
808.80 35.56436
808.90 35.23432
809.00 35.0194
809.10 35.08971
809.20 35.41753
809.30 35.81854
809.40 36.17383
809.50 36.29041
809.60 36.07528
809.70 35.68608
809.80 35.32214
809.90 35.16935
810.00 35.25912
810.10 35.40497
810.20 35.56832
810.30 35.7518
810.40 35.7745
810.50 35.61904
810.60 35.58177
810.70 35.87608
810.80 36.47498
810.90 37.18092
811.00 37.66144
811.10 37.76158
811.20 37.66091
811.30 37.71357
811.40 38.11384
811.50 38.42846
811.60 38.19301
811.70 37.56629
811.80 36.97006
811.90 36.9839
812.00 37.8308
812.10 38.97472
812.20 39.78345
812.30 40.00853
812.40 39.82595
812.50 39.61276
812.60 39.65505
812.70 40.02606
812.80 40.53215
812.90 40.88819
813.00 40.98614
813.10 40.86652
813.20 40.62213
813.30 40.53745
813.40 40.72183
813.50 40.93822
813.60 41.12096
813.70 41.26999
813.80 41.48451
813.90 42.09551
814.00 42.86554
814.10 42.9586
814.20 42.16735
814.30 41.0676
814.40 40.13663
814.50 39.65573
814.60 39.77754
814.70 40.18973
814.80 40.42905
814.90 40.37176
815.00 40.00956
815.10 39.66275
815.20 39.93894
815.30 40.69672
815.40 41.29634
815.50 41.35668
815.60 40.99393
815.70 40.71429
815.80 40.74158
815.90 40.89906
816.00 40.84357
816.10 40.50537
816.20 40.2046
816.30 40.19449
816.40 40.61187
816.50 41.31025
816.60 41.92329
816.70 42.25147
816.80 42.40334
816.90 42.72313
817.00 43.09016
817.10 43.14363
817.20 43.01229
817.30 42.85087
817.40 42.6195
817.50 42.33788
817.60 42.12835
817.70 41.86997
817.80 41.23812
817.90 40.30057
818.00 39.06464
818.10 37.11517
818.20 34.24891
818.30 30.24121
818.40 25.81391
818.50 23.22963
818.60 23.75011
818.70 26.80496
818.80 30.83581
818.90 34.02606
819.00 35.60359
819.10 35.88553
819.20 35.1108
819.30 33.10581
819.40 29.68198
819.50 25.24039
819.60 21.47646
819.70 20.10804
819.80 21.52096
819.90 24.61638
820.00 27.75457
820.10 30.38234
820.20 32.50319
820.30 34.25386
820.40 35.80246
820.50 36.60733
820.60 36.25557
820.70 35.16764
820.80 34.03641
820.90 33.54151
821.00 33.99093
821.10 35.00993
821.20 36.05798
821.30 36.7434
821.40 36.88145
821.50 36.56081
821.60 36.18174
821.70 36.11616
821.80 36.35098
821.90 36.76469
822.00 37.23105
822.10 37.68882
822.20 38.17949
822.30 38.59319
822.40 38.90225
822.50 39.26866
822.60 39.70027
822.70 40.04498
822.80 40.19532
822.90 40.24849
823.00 40.56591
823.10 41.33663
823.20 42.104
823.30 42.16946
823.40 41.39808
823.50 40.36526
823.60 39.80283
823.70 39.98404
823.80 40.72888
823.90 41.70641
824.00 42.62466
824.10 43.31087
824.20 43.63573
824.30 43.48623
824.40 42.84922
824.50 42.10561
824.60 41.83758
824.70 42.34677
824.80 43.57581
824.90 44.77198
825.00 45.0388
825.10 44.32398
825.20 43.02898
825.30 41.60722
825.40 40.5186
825.50 39.82682
825.60 39.32796
825.70 38.90387
825.80 38.65268
825.90 38.82371
826.00 39.49108
826.10 40.54505
826.20 41.63235
826.30 42.36441
826.40 42.78026
826.50 42.95339
826.60 42.97763
826.70 43.21692
826.80 43.55984
826.90 43.55916
827.00 43.07706
827.10 42.03859
827.20 40.62509
827.30 39.37238
827.40 38.55483
827.50 38.16577
827.60 38.19425
827.70 38.57695
827.80 39.26074
827.90 39.94463
828.00 40.19395
828.10 40.0607
828.20 39.50301
828.30 38.58159
828.40 37.83738
828.50 37.33561
828.60 37.1437
828.70 37.45017
828.80 37.86085
828.90 37.77796
829.00 36.93582
829.10 35.621
829.20 34.47202
829.30 34.16269
829.40 34.75454
829.50 35.54306
829.60 35.96369
829.70 36.12774
829.80 36.45139
829.90 36.69053
830.00 36.66868
830.10 35.91898
830.20 35.16928
830.30 34.35618
830.40 33.54308
830.50 33.11226
830.60 32.68143
830.70 33.0012
830.80 33.32097
830.90 34.17478
831.00 35.02859
831.10 35.35911
831.20 35.68963
831.30 35.61316
831.40 35.53669
831.50 35.34866
831.60 35.16063
831.70 35.66491
831.80 36.16919
831.90 36.75577
832.00 37.34235
832.10 37.45284
832.20 37.56333
832.30 37.98654
832.40 38.40975
832.50 38.5742
832.60 38.73866
832.70 37.66042
832.80 36.58217
832.90 35.75661
833.00 34.93105
833.10 36.33841
833.20 37.74577
833.30 38.40426
833.40 39.06276
833.50 37.83141
833.60 36.60005
833.70 35.96302
833.80 35.326
833.90 35.77574
834.00 36.22549
834.10 36.80754
834.20 37.38959
834.30 37.94809
834.40 38.50658
834.50 38.12947
834.60 37.75235
834.70 36.65886
834.80 35.56536
834.90 35.70214
835.00 35.83892
835.10 36.32082
835.20 36.80271
835.30 36.80584
835.40 36.80897
835.50 36.73793
835.60 36.66689
835.70 36.65586
835.80 36.64483
835.90 37.30876
836.00 37.97269
836.10 38.21636
836.20 38.46003
836.30 37.84353
836.40 37.22703
836.50 36.72183
836.60 36.21663
836.70 36.73711
836.80 37.25758
836.90 38.38225
837.00 39.50692
837.10 40.35842
837.20 41.20992
837.30 39.75713
837.40 38.30434
837.50 36.79577
837.60 35.28721
837.70 34.9259
837.80 34.56458
837.90 35.05433
838.00 35.54407
838.10 36.02348
838.20 36.50289
838.30 36.45172
838.40 36.40056
838.50 35.82848
838.60 35.25641
838.70 34.34217
838.80 33.42792
838.90 32.46682
839.00 31.50571
839.10 32.34127
839.20 33.17683
839.30 34.01248
839.40 34.84813
839.50 34.79167
839.60 34.73521
839.70 34.71367
839.80 34.69213
839.90 35.1175
840.00 35.54286
840.10 36.55174
840.20 36.86449
840.30 37.26847
840.40 37.6327
840.50 37.89281
840.60 38.15112
840.70 38.40888
840.80 38.76314
840.90 39.01886
841.00 38.85087
841.10 38.498
841.20 37.71274
841.30 37.07922
841.40 36.79583
841.50 37.53634
841.60 38.52438
841.70 39.33971
841.80 39.6953
841.90 39.26881
842.00 39.16013
842.10 38.41101
842.20 36.97154
842.30 35.98916
842.40 36.47687
842.50 37.11687
842.60 37.13763
842.70 36.81226
842.80 36.1777
842.90 35.3324
843.00 34.96044
843.10 35.55418
843.20 36.09472
843.30 35.07895
843.40 33.51255
843.50 30.76553
843.60 27.40329
843.70 24.74098
843.80 24.30065
843.90 24.36758
844.00 26.31475
844.10 28.33696
844.20 28.79939
844.30 28.35186
844.40 27.25852
844.50 25.37401
844.60 23.6159
844.70 23.13051
844.80 22.67911
844.90 23.0821
845.00 23.98948
845.10 24.34268
845.20 23.75271
845.30 23.09467
845.40 21.50178
845.50 19.52389
845.60 18.63857
845.70 18.51905
845.80 18.58064
845.90 18.70241
846.00 18.82388
846.10 19.14119
846.20 19.513
846.30 20.03169
846.40 20.45336
846.50 20.35065
846.60 19.98219
846.70 19.86309
846.80 19.63663
846.90 18.84918
847.00 18.56346
847.10 19.29663
847.20 19.84682
847.30 19.59603
847.40 19.35226
847.50 19.47936
847.60 19.70345
847.70 20.2407
847.80 21.09014
847.90 21.56493
848.00 21.40198
848.10 21.31152
848.20 21.31446
848.30 21.31924
848.40 21.46232
848.50 21.74886
848.60 22.14143
848.70 22.57482
848.80 22.86136
848.90 23.06049
849.00 23.36695
849.10 24.05321
849.20 24.64051
849.30 25.11036
849.40 25.4503
849.50 25.58216
849.60 24.79739
849.70 23.79026
849.80 22.88365
849.90 22.28206
850.00 22.26152
850.10 22.36371
850.20 22.33232
850.30 22.88174
850.40 23.77304
850.50 23.81751
850.60 23.0821
850.70 22.11118
850.80 21.49107
850.90 21.20555
851.00 21.47368
851.10 21.68235
851.20 22.30135
851.30 22.95019
851.40 22.91097
851.50 22.65781
851.60 22.37153
851.70 21.90024
851.80 21.53021
851.90 21.14692
852.00 20.47508
852.10 20.16401
852.20 20.23233
852.30 20.29915
852.40 20.463
852.50 20.63259
852.60 21.32588
852.70 22.19662
852.80 22.87036
852.90 23.53945
853.00 24.00701
853.10 24.10505
853.20 24.19576
853.30 24.45447
853.40 24.6795
853.50 24.81435
853.60 25.22831
853.70 25.51863
853.80 25.31171
853.90 25.06597
854.00 25.09875
854.10 25.3197
854.20 25.18136
854.30 25.04787
854.40 25.02944
854.50 24.9331
854.60 24.97612
854.70 25.64454
854.80 26.56047
854.90 27.16809
855.00 27.46737
855.10 27.87003
855.20 28.44374
855.30 28.97503
855.40 29.23114
855.50 29.37202
855.60 29.41846
855.70 29.82198
855.80 30.08482
855.90 29.57009
856.00 28.74744
856.10 27.80666
856.20 27.07581
856.30 27.07781
856.40 27.17428
856.50 27.6531
856.60 28.3383
856.70 28.96963
856.80 29.45911
856.90 29.95516
857.00 29.91923
857.10 29.90411
857.20 29.60799
857.30 29.05105
857.40 28.67054
857.50 28.68923
857.60 28.60698
857.70 28.75466
857.80 29.12973
857.90 29.76356
858.00 30.47271
858.10 30.70115
858.20 30.00574
858.30 29.36497
858.40 29.33283
858.50 29.5718
858.60 29.8368
858.70 29.79418
858.80 29.86294
858.90 30.01992
859.00 30.2046
859.10 30.19775
859.20 30.26979
859.30 30.24158
859.40 30.14639
859.50 30.24528
859.60 30.72482
859.70 31.03653
859.80 31.26928
859.90 31.63416
860.00 31.81264
860.10 31.73917
860.20 31.82412
860.30 31.87324
860.40 31.69952
860.50 31.80302
860.60 32.50218
860.70 33.35322
860.80 33.56059
860.90 33.68813
861.00 33.63723
861.10 33.36432
861.20 32.77716
861.30 32.15476
861.40 31.52281
861.50 30.86461
861.60 30.55988
861.70 30.33964
861.80 29.9075
861.90 29.64141
862.00 29.61417
862.10 30.05974
862.20 30.35826
862.30 30.71591
862.40 31.03029
862.50 30.93771
862.60 29.98931
862.70 29.28323
862.80 29.58558
862.90 29.83575
863.00 29.55795
863.10 29.35677
863.20 29.25965
863.30 29.43036
863.40 29.57894
863.50 30.04263
863.60 30.67765
863.70 30.80054
863.80 30.55818
863.90 30.4404
864.00 30.44958
864.10 30.51904
864.20 30.69589
864.30 31.12866
864.40 31.76811
864.50 32.20334
864.60 32.1433
864.70 31.50631
864.80 31.28364
864.90 31.23555
865.00 30.85055
865.10 30.92162
865.20 31.69069
865.30 32.36569
865.40 32.71578
865.50 33.01655
865.60 33.46443
865.70 33.86456
865.80 33.85169
865.90 33.71759
866.00 33.3972
866.10 32.77521
866.20 32.02872
866.30 31.23105
866.40 30.61475
866.50 31.12014
866.60 32.00901
866.70 33.1537
866.80 34.05285
866.90 34.61371
867.00 34.50041
867.10 34.1193
867.20 33.42758
867.30 33.22318
867.40 33.68826
867.50 34.22688
867.60 34.42484
867.70 34.35509
867.80 34.31413
867.90 34.5831
868.00 35.19364
868.10 35.38812
868.20 35.60901
868.30 35.68246
868.40 34.96724
868.50 34.04734
868.60 34.1124
868.70 34.86254
868.80 34.75363
868.90 33.81239
869.00 32.73003
869.10 31.64604
869.20 30.85817
869.30 30.2586
869.40 29.60922
869.50 28.88804
869.60 27.85838
869.70 27.28786
869.80 27.89023
869.90 28.57196
870.00 28.92753
870.10 28.98519
870.20 29.20392
870.30 29.63515
870.40 30.12348
870.50 30.68862
870.60 31.34654
870.70 32.13394
870.80 32.77613
870.90 32.29814
871.00 31.74056
871.10 31.0353
871.20 30.20624
871.30 29.41508
871.40 29.25447
871.50 29.52258
871.60 29.94795
871.70 29.9015
871.80 29.51131
871.90 29.07667
872.00 28.95104
872.10 29.38476
872.20 29.83784
872.30 30.10745
872.40 30.46499
872.50 30.77365
872.60 30.83768
872.70 31.16195
872.80 32.50813
872.90 33.94717
873.00 34.9322
873.10 35.58827
873.20 35.19496
873.30 34.37052
873.40 33.60049
873.50 32.96305
873.60 32.37499
873.70 32.33075
873.80 32.61869
873.90 32.93241
874.00 32.82671
874.10 33.01863
874.20 33.88828
874.30 34.72575
874.40 35.58308
874.50 36.40873
874.60 37.1927
874.70 37.81814
874.80 37.62973
874.90 36.30642
875.00 35.12259
875.10 34.42349
875.20 33.84091
875.30 34.72552
875.40 35.92354
875.50 36.85388
875.60 37.5968
875.70 38.23325
875.80 38.14868
875.90 37.66695
876.00 37.99385
876.10 38.87631
876.20 39.60387
876.30 39.80158
876.40 39.57247
876.50 38.4269
876.60 37.21552
876.70 36.52751
876.80 35.85472
876.90 35.59228
877.00 35.98867
877.10 36.96283
877.20 38.84895
877.30 40.67779
877.40 41.95029
877.50 42.9101
877.60 43.89486
877.70 45.09951
877.80 45.65577
877.90 44.08157
878.00 42.23161
878.10 40.49545
878.20 39.00802
878.30 39.15076
878.40 39.93504
878.50 40.57177
878.60 41.11159
878.70 41.51756
878.80 41.35365
878.90 41.1604
879.00 41.26341
879.10 41.77789
879.20 42.48406
879.30 43.34448
879.40 43.8845
879.50 43.64666
879.60 43.22374
879.70 43.83136
879.80 44.86839
879.90 45.69486
880.00 45.89703
880.10 45.41895
880.20 42.77662
880.30 40.01016
880.40 38.35612
880.50 37.08513
880.60 36.84888
880.70 37.82432
880.80 38.63723
880.90 38.99944
881.00 39.53268
881.10 40.74299
881.20 41.71561
881.30 43.41405
881.40 45.2636
881.50 46.97785
881.60 48.12945
881.70 49.03859
881.80 49.16417
881.90 49.32825
882.00 49.64374
882.10 49.79756
882.20 49.23109
882.30 47.19267
882.40 45.04077
882.50 42.99978
882.60 41.1512
882.70 40.85312
882.80 41.07326
882.90 41.58737
883.00 42.69439
883.10 43.93458
883.20 45.36301
883.30 46.94606
883.40 47.81883
883.50 48.32407
883.60 48.53303
883.70 48.67501
883.80 48.82175
883.90 49.10315
884.00 49.1089
884.10 49.0078
884.20 49.44907
884.30 49.91602
884.40 49.95228
884.50 49.50849
884.60 48.02284
884.70 46.58256
884.80 45.20647
884.90 44.03996
885.00 43.42402
885.10 43.19592
885.20 43.48666
885.30 46.17963
885.40 49.04984
885.50 50.98993
885.60 52.7918
885.70 52.64668
885.80 50.84645
885.90 48.52224
886.00 45.33752
886.10 41.95739
886.20 38.62362
886.30 35.36702
886.40 34.23146
886.50 34.57993
886.60 35.63242
886.70 38.20915
886.80 40.22168
886.90 39.74316
887.00 38.9165
887.10 36.77076
887.20 33.89255
887.30 31.10079
887.40 29.84108
887.50 29.13012
887.60 30.01446
887.70 30.96287
887.80 32.55631
887.90 34.44334
888.00 36.14924
888.10 37.48397
888.20 38.54253
888.30 38.25056
888.40 37.79924
888.50 36.60851
888.60 35.17436
888.70 34.49545
888.80 34.59632
888.90 35.21247
889.00 36.86367
889.10 38.0679
889.20 38.35341
889.30 38.82573
889.40 38.94737
889.50 38.72603
889.60 38.22145
889.70 36.85768
889.80 35.2684
889.90 34.647
890.00 34.42886
890.10 35.6281
890.20 37.8864
890.30 39.83517
890.40 40.91355
890.50 41.78921
890.60 42.47297
890.70 43.32192
890.80 43.28137
890.90 43.01981
891.00 42.55717
891.10 41.72592
891.20 40.60995
891.30 39.84512
891.40 39.35869
891.50 40.23705
891.60 41.71575
891.70 42.93483
891.80 43.1154
891.90 43.19285
892.00 43.61818
892.10 44.27762
892.20 44.54996
892.30 44.50178
892.40 44.00841
892.50 42.98744
892.60 42.10724
892.70 41.74643
892.80 41.33962
892.90 41.29264
893.00 41.67076
893.10 42.46534
893.20 43.91432
893.30 45.37913
893.40 46.79254
893.50 48.1613
893.60 48.55344
893.70 48.59072
893.80 47.07784
893.90 44.34486
894.00 41.6922
894.10 40.12166
894.20 38.84644
894.30 39.13578
894.40 39.74797
894.50 39.64061
894.60 39.01359
894.70 38.84805
894.80 40.0571
894.90 41.24176
895.00 42.14219
895.10 42.98197
895.20 42.96489
895.30 42.66693
895.40 42.04705
895.50 41.58133
895.60 41.49683
895.70 42.69233
895.80 43.97508
895.90 44.53219
896.00 44.84796
896.10 44.87001
896.20 44.29328
896.30 43.73408
896.40 43.58987
896.50 43.79967
896.60 44.0518
896.70 43.87887
896.80 43.40326
896.90 42.83012
897.00 42.4258
897.10 43.13012
897.20 44.07746
897.30 44.63996
897.40 44.73082
897.50 45.00529
897.60 45.76835
897.70 46.75547
897.80 47.88661
897.90 48.9329
898.00 48.55345
898.10 47.3863
898.20 46.18049
898.30 45.35108
898.40 45.25843
898.50 46.89133
898.60 48.3133
898.70 49.51963
898.80 50.94858
898.90 51.41334
899.00 51.09955
899.10 50.45373
899.20 49.74618
899.30 48.91528
899.40 48.42641
899.50 47.98449
899.60 47.45119
899.70 47.22428
899.80 46.97326
899.90 46.37331
900.00 45.49971
900.10 44.55692
900.20 43.84868
900.30 45.44933
900.40 47.62574
900.50 49.37364
900.60 50.94818
900.70 52.25602
900.80 52.30621
900.90 52.46762
901.00 51.74457
901.10 50.34086
901.20 49.61459
901.30 50.01592
901.40 50.73275
901.50 51.13649
901.60 51.32008
901.70 51.03949
901.80 50.73829
901.90 49.87556
902.00 49.01817
902.10 48.14139
902.20 47.13704
902.30 46.1204
902.40 45.27509
902.50 44.33033
902.60 43.48654
902.70 42.94906
902.80 42.61743
902.90 42.52907
903.00 42.67684
903.10 43.7363
903.20 45.05043
903.30 46.02212
903.40 46.85628
903.50 48.02339
903.60 49.22097
903.70 50.17077
903.80 50.81914
903.90 51.57919
904.00 52.33832
904.10 53.22471
904.20 53.2762
904.30 52.43236
904.40 51.53318
904.50 50.83278
904.60 50.35768
904.70 51.08705
904.80 52.19848
904.90 53.1383
905.00 54.01525
905.10 54.56389
905.20 53.48282
905.30 52.44388
905.40 51.61752
905.50 50.94625
905.60 50.56995
905.70 50.05886
905.80 49.5045
905.90 49.22374
906.00 48.99887
906.10 48.94332
906.20 48.96126
906.30 49.74063
906.40 50.85314
906.50 51.65993
906.60 51.11242
906.70 50.34418
906.80 49.58345
906.90 49.04967
907.00 48.48305
907.10 47.77023
907.20 47.68913
907.30 48.57396
907.40 49.55438
907.50 50.09099
907.60 50.488
907.70 50.99947
907.80 51.18774
907.90 51.84744
908.00 53.5222
908.10 55.27563
908.20 56.00727
908.30 56.3056
908.40 55.24259
908.50 53.84596
908.60 53.38056
908.70 53.72818
908.80 54.00247
908.90 53.72087
909.00 53.13633
909.10 52.62646
909.20 52.47166
909.30 52.8545
909.40 53.61989
909.50 54.32314
909.60 54.86665
909.70 55.40453
909.80 55.6708
909.90 55.71975
910.00 55.93216
910.10 56.58179
910.20 56.89687
910.30 56.56767
910.40 56.242
910.50 55.76175
910.60 55.07232
910.70 54.06763
910.80 53.48793
910.90 53.43126
911.00 54.2159
911.10 54.95603
911.20 55.76226
911.30 56.6382
911.40 57.42055
911.50 58.28245
911.60 58.4802
911.70 57.76729
911.80 56.91243
911.90 56.56828
912.00 56.47562
912.10 56.83426
912.20 57.41133
912.30 57.8672
912.40 57.84643
912.50 57.70946
912.60 57.44616
912.70 57.30634
912.80 57.57781
912.90 57.9878
913.00 58.4603
913.10 58.76063
913.20 58.88521
913.30 59.39548
913.40 60.09399
913.50 60.60221
913.60 60.76192
913.70 60.01627
913.80 59.15365
913.90 57.99752
914.00 56.61608
914.10 55.37865
914.20 54.52934
914.30 53.62829
914.40 54.30578
914.50 55.32166
914.60 56.52184
914.70 57.82539
914.80 58.73109
914.90 58.1282
915.00 57.48985
915.10 56.66754
915.20 55.64027
915.30 55.66534
915.40 56.86055
915.50 58.52262
915.60 60.80971
915.70 62.69913
915.80 63.51226
915.90 64.56215
916.00 64.16311
916.10 63.12835
916.20 62.11376
916.30 60.75048
916.40 59.38488
916.50 59.12879
916.60 59.23599
916.70 60.23019
916.80 61.30143
916.90 61.90657
917.00 62.11254
917.10 62.52394
917.20 62.60973
917.30 62.37299
917.40 61.58313
917.50 60.73918
917.60 60.03168
917.70 59.72387
917.80 59.63716
917.90 59.93959
918.00 60.1946
918.10 60.43298
918.20 60.90477
918.30 61.31038
918.40 61.50798
918.50 61.43728
918.60 60.60124
918.70 59.93196
918.80 60.42686
918.90 60.62525
919.00 62.07386
919.10 64.85588
919.20 66.93804
919.30 66.35975
919.40 65.66894
919.50 63.86171
919.60 61.51414
919.70 61.02353
919.80 61.58924
919.90 62.415
920.00 63.62948
920.10 64.63863
920.20 64.21091
920.30 63.43447
920.40 63.41867
920.50 63.93216
920.60 63.85754
920.70 63.35487
920.80 62.65847
920.90 60.4592
921.00 57.93235
921.10 56.33961
921.20 55.57135
921.30 55.90255
921.40 56.42103
921.50 56.88963
921.60 57.26678
921.70 57.84456
921.80 58.45144
921.90 59.19389
922.00 58.75716
922.10 58.02234
922.20 57.66088
922.30 57.51573
922.40 57.11256
922.50 56.4085
922.60 55.78414
922.70 56.04026
922.80 56.67746
922.90 57.47252
923.00 57.91507
923.10 57.76289
923.20 56.0407
923.30 54.17174
923.40 52.87048
923.50 52.50061
923.60 52.85911
923.70 53.48671
923.80 53.85724
923.90 53.77506
924.00 53.63589
924.10 53.56675
924.20 53.54263
924.30 54.8754
924.40 57.06275
924.50 58.51576
924.60 58.22401
924.70 57.77871
924.80 56.55372
924.90 54.81791
925.00 53.73825
925.10 53.44609
925.20 53.40961
925.30 53.32621
925.40 53.23298
925.50 53.58609
925.60 54.10658
925.70 55.81082
925.80 57.86054
925.90 59.52306
926.00 59.7443
926.10 59.68774
926.20 58.78705
926.30 57.96548
926.40 57.33354
926.50 56.79598
926.60 57.0087
926.70 58.47049
926.80 59.99358
926.90 60.69602
927.00 61.12714
927.10 60.8768
927.20 60.41769
927.30 59.68156
927.40 58.66082
927.50 57.48324
927.60 56.19193
927.70 55.11064
927.80 54.23567
927.90 53.14698
928.00 52.38177
928.10 52.37169
928.20 52.75445
928.30 53.49255
928.40 54.38196
928.50 55.54878
928.60 56.78934
928.70 56.9875
928.80 56.28024
928.90 55.42519
929.00 55.11892
929.10 54.85285
929.20 54.3912
929.30 53.80052
929.40 53.75856
929.50 53.93324
929.60 54.17308
929.70 54.77841
929.80 55.2702
929.90 54.73261
930.00 54.06477
930.10 53.04532
930.20 51.39755
930.30 50.54187
930.40 50.92084
930.50 51.50729
930.60 51.9572
930.70 52.33204
930.80 52.22616
930.90 51.981
931.00 52.19074
931.10 52.68577
931.20 53.68535
931.30 55.02248
931.40 56.21144
931.50 56.59836
931.60 56.94948
931.70 55.8993
931.80 54.97603
931.90 54.28898
932.00 54.24065
932.10 54.92383
932.20 55.44361
932.30 55.47222
932.40 55.50037
932.50 55.38901
932.60 54.69911
932.70 54.20061
932.80 53.96748
932.90 54.03616
933.00 54.05794
933.10 54.39652
933.20 54.73512
933.30 55.0571
933.40 55.29295
933.50 55.57883
933.60 55.52067
933.70 55.29044
933.80 55.21794
933.90 55.67591
934.00 56.18005
934.10 56.36882
934.20 56.12034
934.30 55.70328
934.40 55.65546
934.50 55.96235
934.60 55.88082
934.70 55.81538
934.80 56.33281
934.90 56.93698
935.00 56.967
935.10 56.28708
935.20 55.61042
935.30 55.18537
935.40 54.94682
935.50 54.76244
935.60 54.7426
935.70 54.76523
935.80 54.76064
935.90 55.34044
936.00 55.92909
936.10 56.8703
936.20 57.89912
936.30 58.84666
936.40 58.87634
936.50 58.46783
936.60 58.04597
936.70 57.94213
936.80 57.87026
936.90 57.69123
937.00 57.06226
937.10 56.43189
937.20 55.80587
937.30 55.48922
937.40 55.3248
937.50 55.23378
937.60 55.24337
937.70 55.25487
937.80 55.30492
937.90 55.35447
938.00 55.48697
938.10 55.57736
938.20 55.62598
938.30 55.47577
938.40 55.38901
938.50 55.48188
938.60 55.64138
938.70 55.81723
938.80 55.96063
938.90 56.26377
939.00 56.56654
939.10 57.02108
939.20 57.40435
939.30 57.73402
939.40 57.81031
939.50 57.84524
939.60 57.64924
939.70 56.77905
939.80 55.87236
939.90 55.30623
940.00 55.42719
940.10 55.59561
940.20 55.98824
940.30 56.26719
940.40 56.43444
940.50 56.75975
940.60 57.16829
940.70 57.84734
940.80 58.67255
940.90 59.49278
941.00 60.08648
941.10 60.35451
941.20 60.45379
941.30 59.93318
941.40 59.30782
941.50 58.61702
941.60 57.71864
941.70 56.78919
941.80 56.38277
941.90 56.40262
942.00 56.39928
942.10 56.50709
942.20 56.86774
942.30 57.23568
942.40 57.27889
942.50 57.24811
942.60 57.28505
942.70 57.07373
942.80 56.86314
942.90 56.93927
943.00 57.70591
943.10 58.62797
943.20 59.6957
943.30 60.67232
943.40 61.37974
943.50 61.37799
943.60 61.32655
943.70 61.12739
943.80 60.73332
943.90 60.33013
944.00 59.60624
944.10 58.77973
944.20 58.03214
944.30 57.81675
944.40 57.69823
944.50 57.39316
944.60 57.31205
944.70 57.22782
944.80 57.47399
944.90 57.61326
945.00 57.76974
945.10 58.21284
945.20 58.68962
945.30 59.11646
945.40 58.95203
945.50 58.7404
945.60 58.60076
945.70 58.78121
945.80 58.92377
945.90 58.52423
946.00 57.93857
946.10 57.52035
946.20 57.89818
946.30 58.47398
946.40 59.43222
946.50 60.06327
946.60 60.71019
946.70 60.60467
946.80 60.52651
946.90 60.49271
947.00 60.79829
947.10 61.15303
947.20 61.45579
947.30 61.4268
947.40 61.39296
947.50 61.49436
947.60 61.86292
947.70 62.22976
947.80 62.35786
947.90 62.29475
948.00 62.2877
948.10 62.76728
948.20 63.29041
948.30 63.59479
948.40 63.92596
948.50 64.25624
948.60 64.5573
948.70 64.39722
948.80 64.17543
948.90 64.12577
949.00 64.21302
949.10 64.46267
949.20 64.76868
949.30 65.0832
949.40 64.90304
949.50 64.17217
949.60 63.43652
949.70 62.76281
949.80 62.43571
949.90 62.40548
950.00 62.97935
950.10 63.51456
950.20 63.96996
950.30 64.50648
950.40 65.05274
950.50 64.82133
950.60 64.16042
950.70 63.58791
950.80 63.46406
950.90 63.49152
951.00 63.64991
951.10 63.79377
951.20 63.93324
951.30 63.91438
951.40 63.67622
951.50 63.43149
951.60 63.06476
951.70 62.73185
951.80 62.38896
951.90 62.02656
952.00 61.67608
952.10 61.45985
952.20 61.77563
952.30 62.08772
952.40 62.89402
952.50 63.95903
952.60 65.00506
952.70 65.76222
952.80 66.3736
952.90 66.74845
953.00 66.49081
953.10 66.17342
953.20 65.83192
953.30 65.52182
953.40 65.20757
953.50 64.60704
953.60 63.77189
953.70 62.92886
953.80 62.70408
953.90 62.67478
954.00 62.90488
954.10 62.76394
954.20 62.61346
954.30 62.3751
954.40 62.30732
954.50 62.13397
954.60 61.89708
954.70 61.80849
954.80 61.94611
954.90 62.11208
955.00 62.22485
955.10 62.58162
955.20 62.91752
955.30 63.21934
955.40 63.43044
955.50 63.74085
955.60 64.09621
955.70 64.81256
955.80 65.61463
955.90 66.3801
956.00 66.83868
956.10 67.30069
956.20 67.21684
956.30 66.59123
956.40 65.86798
956.50 65.32444
956.60 64.92789
956.70 64.91902
956.80 65.58885
956.90 66.32078
957.00 66.61625
957.10 66.7251
957.20 66.86515
957.30 66.86636
957.40 66.55923
957.50 66.06468
957.60 65.36781
957.70 64.62714
957.80 63.95317
957.90 63.41558
958.00 62.87581
958.10 63.1461
958.20 63.81905
958.30 64.39256
958.40 64.66541
958.50 64.90367
958.60 65.11415
958.70 64.82158
958.80 64.49885
958.90 63.66077
959.00 62.35962
959.10 61.11665
959.20 60.79327
959.30 61.08274
959.40 61.56263
959.50 62.1797
959.60 62.80261
959.70 62.57521
959.80 61.14511
959.90 59.72679
960.00 58.4554
960.10 57.40929
960.20 56.77965
960.30 57.60072
960.40 58.75726
960.50 60.25396
960.60 61.71266
960.70 63.17262
960.80 63.90723
960.90 64.29623
961.00 64.59428
961.10 64.47022
961.20 64.28255
961.30 64.02859
961.40 63.6347
961.50 63.1791
961.60 62.70347
961.70 62.44455
961.80 62.23698
961.90 63.06912
962.00 64.39071
962.10 65.59785
962.20 66.13698
962.30 66.43961
962.40 66.41279
962.50 65.9193
962.60 65.40466
962.70 65.33471
962.80 65.44801
962.90 65.50741
963.00 65.51488
963.10 65.51471
963.20 65.4038
963.30 64.6145
963.40 63.78818
963.50 62.79561
963.60 61.70894
963.70 60.49595
963.80 57.79693
963.90 54.62871
964.00 52.02678
964.10 51.52066
964.20 51.5181
964.30 53.00905
964.40 55.78804
964.50 58.57887
964.60 59.62311
964.70 59.9896
964.80 60.24118
964.90 60.09592
965.00 59.90532
965.10 60.03747
965.20 60.42942
965.30 60.79545
965.40 61.25593
965.50 61.73236
965.60 62.17762
965.70 62.62489
965.80 63.33346
965.90 64.0589
966.00 64.72398
966.10 65.35322
966.20 66.03416
966.30 66.48099
966.40 66.92741
966.50 66.92353
966.60 66.65374
966.70 66.27807
966.80 65.83172
966.90 65.47279
967.00 65.40633
967.10 65.55419
967.20 65.70633
967.30 65.26535
967.40 64.54273
967.50 63.68013
967.60 61.75183
967.70 59.40529
967.80 57.76142
967.90 58.01562
968.00 58.54497
968.10 60.00984
968.20 62.42268
968.30 64.79606
968.40 65.43185
968.50 65.14045
968.60 64.74519
968.70 63.95442
968.80 63.0872
968.90 61.98218
969.00 61.32566
969.10 60.68487
969.20 61.24342
969.30 62.39929
969.40 63.62277
969.50 65.03296
969.60 66.36675
969.70 67.35009
969.80 67.53363
969.90 67.65208
970.00 67.74427
970.10 68.03878
970.20 68.30493
970.30 67.99891
970.40 67.39172
970.50 66.34923
970.60 64.20212
970.70 61.80929
970.80 60.18436
970.90 60.07627
971.00 59.94404
971.10 61.6583
971.20 64.17587
971.30 66.5139
971.40 68.07536
971.50 69.42283
971.60 70.45447
971.70 70.67681
971.80 70.85132
971.90 70.52881
972.00 69.74784
972.10 68.97258
972.20 68.26622
972.30 67.56261
972.40 67.08404
972.50 67.18905
972.60 67.42202
972.70 67.1121
972.80 66.09033
972.90 65.08514
973.00 63.42327
973.10 61.49614
973.20 60.13792
973.30 60.8282
973.40 62.05359
973.50 63.24814
973.60 64.22355
973.70 65.16647
973.80 65.37755
973.90 65.33295
974.00 65.29539
974.10 65.14037
974.20 64.84201
974.30 64.18284
974.40 62.69214
974.50 61.0815
974.60 59.96036
974.70 59.84997
974.80 59.79946
974.90 60.88877
975.00 62.09413
975.10 63.08253
975.20 63.62224
975.30 64.13218
975.40 64.6278
975.50 65.46024
975.60 66.29262
975.70 66.64219
975.80 66.58704
975.90 66.64214
976.00 67.01261
976.10 67.34832
976.20 67.36384
976.30 66.92257
976.40 66.43974
976.50 66.47762
976.60 67.29109
976.70 68.06238
976.80 68.30496
976.90 68.28685
977.00 67.90774
977.10 66.28188
977.20 64.34757
977.30 63.00494
977.40 63.20662
977.50 63.37387
977.60 64.58013
977.70 66.02032
977.80 67.28246
977.90 67.69165
978.00 67.82555
978.10 67.45004
978.20 66.37899
978.30 65.28206
978.40 63.26703
978.50 60.85949
978.60 58.72308
978.70 58.34247
978.80 58.43547
978.90 58.73894
979.00 59.43911
979.10 60.17127
979.20 61.53642
979.30 63.83489
979.40 66.10767
979.50 67.59552
979.60 68.49649
979.70 69.03767
979.80 68.94274
979.90 68.83755
980.00 68.97631
980.10 69.16994
980.20 69.36296
980.30 69.43187
980.40 69.45941
980.50 69.47105
980.60 69.31644
980.70 69.06308
980.80 68.81039
980.90 68.7786
981.00 68.78562
981.10 69.06288
981.20 69.71601
981.30 70.32791
981.40 70.10064
981.50 69.19181
981.60 68.15324
981.70 67.22665
981.80 66.39769
981.90 66.12454
982.00 66.92307
982.10 67.72076
982.20 67.95304
982.30 67.78291
982.40 67.64971
982.50 67.65972
982.60 67.7136
982.70 67.87071
982.80 68.17525
982.90 68.49356
983.00 68.33749
983.10 67.78678
983.20 67.27007
983.30 67.10895
983.40 67.1678
983.50 67.17585
983.60 66.863
983.70 66.4722
983.80 66.11706
983.90 66.22454
984.00 66.36298
984.10 66.94441
984.20 67.49527
984.30 67.9633
984.40 67.96938
984.50 67.82591
984.60 67.6857
984.70 68.17849
984.80 68.69127
984.90 68.99942
985.00 68.88539
985.10 68.65589
985.20 67.97956
985.30 67.21122
985.40 66.70614
985.50 66.98342
985.60 67.34854
985.70 67.91567
985.80 68.37215
985.90 68.7778
986.00 68.7725
986.10 68.71055
986.20 68.67226
986.30 68.66848
986.40 68.662
986.50 68.8749
986.60 69.40393
986.70 69.92084
986.80 69.53939
986.90 68.60123
987.00 67.6937
987.10 67.0017
987.20 66.38293
987.30 66.36054
987.40 67.73413
987.50 69.20879
987.60 70.18784
987.70 70.67886
987.80 71.02978
987.90 70.36301
988.00 69.20497
988.10 68.14466
988.20 67.79752
988.30 67.5788
988.40 67.96511
988.50 69.20494
988.60 70.4231
988.70 71.11725
988.80 71.32715
988.90 71.38718
989.00 70.9427
989.10 70.37334
989.20 69.74015
989.30 69.0738
989.40 68.41909
989.50 67.07012
989.60 65.35522
989.70 63.32399
989.80 60.2695
989.90 57.0065
990.00 54.55731
990.10 53.53587
990.20 52.61536
990.30 51.58329
990.40 50.30079
990.50 48.92431
990.60 46.80432
990.70 44.35707
990.80 42.20817
990.90 41.32874
991.00 40.70482
991.10 40.81038
991.20 41.56803
991.30 42.27887
991.40 41.94051
991.50 40.91947
991.60 39.90314
991.70 39.23705
991.80 38.70482
991.90 38.95674
992.00 40.6508
992.10 42.3843
992.20 43.2989
992.30 43.44713
992.40 43.34856
992.50 42.2831
992.60 40.99995
992.70 40.43928
992.80 41.42614
992.90 42.53719
993.00 44.13932
993.10 46.28086
993.20 48.28443
993.30 48.80018
993.40 48.54301
993.50 48.15533
993.60 47.73959
993.70 47.29505
993.80 47.86317
993.90 50.32391
994.00 52.76472
994.10 54.58375
994.20 55.75393
994.30 56.56721
994.40 56.26111
994.50 55.71916
994.60 55.29268
994.70 55.20354
994.80 55.10882
994.90 55.70186
995.00 56.64647
995.10 57.56556
995.20 58.43804
995.30 59.36598
995.40 60.2384
995.50 60.76668
995.60 61.2683
995.70 60.68193
995.80 58.94614
995.90 57.28179
996.00 56.38036
996.10 55.81461
996.20 55.53635
996.30 56.2883
996.40 57.26315
996.50 58.7222
996.60 60.9683
996.70 63.20547
996.80 63.43255
996.90 62.27516
997.00 60.64114
997.10 57.57344
997.20 54.20287
997.30 51.50623
997.40 50.3775
997.50 49.2822
997.60 49.63342
997.70 50.95339
997.80 52.29654
997.90 53.69982
998.00 55.0976
998.10 56.41315
998.20 57.28407
998.30 58.10929
998.40 57.6856
998.50 56.08297
998.60 54.52403
998.70 53.6151
998.80 53.13837
998.90 52.92964
999.00 52.9832
999.10 52.98694
999.20 52.81157
999.30 52.65574
999.40 52.48733
999.50 52.94544
999.60 53.83613
999.70 54.5199
999.80 54.27641
999.90 53.63959
1000.00 53.60832
1000.10 55.28151
1000.20 57.07427
1000.30 58.88744
1000.40 60.54572
1000.50 62.06158
1000.60 62.58814
1000.70 62.85106
1000.80 62.69908
1000.90 61.26682
1001.00 59.64254
1001.10 57.99552
1001.20 56.36273
1001.30 54.85013
1001.40 55.31394
1001.50 56.70158
1001.60 58.19039
1001.70 59.84815
1001.80 61.5122
1001.90 62.53336
1002.00 62.20726
1002.10 61.96323
1002.20 61.29842
1002.30 60.49622
1002.40 59.98786
1002.50 60.76794
1002.60 61.96288
1002.70 62.9334
1002.80 62.7182
1002.90 62.41332
1003.00 61.59517
1003.10 61.03643
1003.20 60.52193
1003.30 60.0115
1003.40 59.33909
1003.50 58.55353
1003.60 57.56381
1003.70 56.55992
1003.80 55.86215
1003.90 55.69803
1004.00 55.62931
1004.10 56.97766
1004.20 58.7924
1004.30 60.60763
1004.40 62.27553
1004.50 63.98076
1004.60 64.95798
1004.70 64.83491
1004.80 64.7561
1004.90 63.6486
1005.00 61.84255
1005.10 59.86316
1005.20 57.26911
1005.30 54.53054
1005.40 52.08842
1005.50 50.56876
1005.60 49.04074
1005.70 48.7493
1005.80 49.57382
1005.90 50.49793
1006.00 51.92047
1006.10 53.41681
1006.20 54.60805
1006.30 54.7002
1006.40 54.68039
1006.50 54.76804
1006.60 55.09235
1006.70 55.48438
1006.80 57.04749
1006.90 59.18932
1007.00 61.06992
1007.10 61.45625
1007.20 61.50084
1007.30 61.00123
1007.40 60.40317
1007.50 59.76223
1007.60 60.38676
1007.70 61.67812
1007.80 62.96189
1007.90 63.83294
1008.00 64.50737
1008.10 64.90255
1008.20 65.05846
1008.30 65.21147
1008.40 65.36018
1008.50 65.49378
1008.60 65.66331
1008.70 65.74738
1008.80 65.74516
1008.90 65.24245
1009.00 63.52046
1009.10 61.61055
1009.20 60.03441
1009.30 59.06511
1009.40 58.18502
1009.50 58.80864
1009.60 60.08509
1009.70 61.41676
1009.80 63.10549
1009.90 64.90102
1010.00 66.73929
1010.10 68.6635
1010.20 70.60788
1010.30 71.89762
1010.40 72.44701
1010.50 72.70354
1010.60 71.90272
1010.70 70.85612
1010.80 69.72986
1010.90 68.70472
1011.00 67.72981
1011.10 66.41857
1011.20 64.58073
1011.30 62.83551
1011.40 61.90227
1011.50 61.36423
1011.60 60.88866
1011.70 60.30976
1011.80 59.68885
1011.90 59.30362
1012.00 59.38805
1012.10 59.60032
1012.20 61.73878
1012.30 64.69288
1012.40 67.35137
1012.50 68.97076
1012.60 70.45328
1012.70 71.21566
1012.80 70.23932
1012.90 69.25654
1013.00 68.94564
1013.10 69.0713
1013.20 69.06834
1013.30 68.51081
1013.40 67.92258
1013.50 66.69025
1013.60 63.64856
1013.70 60.45015
1013.80 58.05249
1013.90 56.81958
1014.00 55.85056
1014.10 56.67415
1014.20 58.03607
1014.30 59.59485
1014.40 61.26965
1014.50 62.98122
1014.60 63.47821
1014.70 62.50355
1014.80 61.53041
1014.90 60.80546
1015.00 60.34523
1015.10 60.60915
1015.20 62.87555
1015.30 65.5709
1015.40 67.34589
1015.50 66.96946
1015.60 66.687
1015.70 64.88353
1015.80 62.54447
1015.90 60.49485
1016.00 59.85673
1016.10 59.59541
1016.20 59.8474
1016.30 60.7978
1016.40 61.79171
1016.50 62.27547
1016.60 62.51866
1016.70 62.85091
1016.80 63.66965
1016.90 64.70089
1017.00 65.21108
1017.10 64.04684
1017.20 62.61203
1017.30 61.83516
1017.40 62.4102
1017.50 63.07919
1017.60 65.22702
1017.70 68.04019
1017.80 70.08741
1017.90 69.01571
1018.00 67.20817
1018.10 65.19527
1018.20 63.93197
1018.30 62.64448
1018.40 61.88275
1018.50 60.9965
1018.60 60.14135
1018.70 59.62293
1018.80 59.22302
1018.90 59.52745
1019.00 61.05226
1019.10 62.63686
1019.20 63.82653
1019.30 64.77018
1019.40 65.52328
1019.50 65.45927
1019.60 65.03369
1019.70 64.77447
1019.80 64.90679
1019.90 65.11392
1020.00 65.02735
1020.10 64.57383
1020.20 64.18745
1020.30 64.28333
1020.40 64.66513
1020.50 65.13393
1020.60 65.73025
1020.70 66.31004
1020.80 66.76846
1020.90 67.01597
1021.00 67.27947
1021.10 66.99687
1021.20 66.16029
1021.30 65.05593
1021.40 63.39032
1021.50 61.64555
1021.60 60.14957
1021.70 59.1422
1021.80 58.17536
1021.90 57.37957
1022.00 56.78801
1022.10 56.31101
1022.20 56.48668
1022.30 56.6789
1022.40 57.57809
1022.50 59.73972
1022.60 62.01682
1022.70 63.19404
1022.80 63.66367
1022.90 64.07083
1023.00 63.90865
1023.10 63.60452
1023.20 63.1316
1023.30 62.38782
1023.40 61.47168
1023.50 61.55499
1023.60 62.95974
1023.70 64.34619
1023.80 65.42348
1023.90 66.08806
1024.00 66.5737
1024.10 67.05154
1024.20 67.64551
1024.30 68.43433
1024.40 68.7925
1024.50 69.27043
1024.60 68.28193
1024.70 66.74369
1024.80 65.396
1024.90 64.80882
1025.00 64.37757
1025.10 63.72448
1025.20 62.43675
1025.30 61.14866
1025.40 60.38285
1025.50 60.16196
1025.60 60.1185
1025.70 60.91414
1025.80 62.0184
1025.90 62.31032
1026.00 60.37935
1026.10 58.17415
1026.20 56.20986
1026.30 55.00628
1026.40 53.86295
1026.50 54.27891
1026.60 55.03696
1026.70 56.21383
1026.80 58.82881
1026.90 61.83605
1027.00 64.16124
1027.10 65.15465
1027.20 66.18882
1027.30 65.94287
1027.40 64.93098
1027.50 63.87146
1027.60 62.6127
1027.70 61.21597
1027.80 60.20572
1027.90 60.19267
1028.00 60.27769
1028.10 59.8006
1028.20 58.92297
1028.30 58.01419
1028.40 57.01473
1028.50 55.8702
1028.60 55.59493
1028.70 57.55725
1028.80 59.84237
1028.90 62.33348
1029.00 64.28824
1029.10 65.9267
1029.20 65.56498
1029.30 64.3894
1029.40 63.31864
1029.50 63.02263
1029.60 62.77976
1029.70 62.88865
1029.80 62.75999
1029.90 62.59139
1030.00 62.03824
1030.10 61.7246
1030.20 61.45183
1030.30 61.40513
1030.40 61.26313
1030.50 61.80739
1030.60 63.53087
1030.70 65.16949
1030.80 65.62206
1030.90 65.61805
1031.00 65.44155
1031.10 64.80847
1031.20 63.9683
1031.30 63.68177
1031.40 64.6021
1031.50 65.62818
1031.60 65.80558
1031.70 65.19599
1031.80 64.49133
1031.90 63.40121
1032.00 62.17369
1032.10 61.39487
1032.20 61.64875
1032.30 62.03918
1032.40 61.82328
1032.50 60.69624
1032.60 59.65615
1032.70 60.1985
1032.80 61.50744
1032.90 63.10646
1033.00 65.31937
1033.10 67.65347
1033.20 69.5231
1033.30 70.55122
1033.40 71.61674
1033.50 70.7584
1033.60 68.61385
1033.70 66.27263
1033.80 63.84508
1033.90 61.43896
1034.00 59.77186
1034.10 59.60176
1034.20 59.42691
1034.30 59.12861
1034.40 58.56812
1034.50 58.00444
1034.60 57.61166
1034.70 57.20609
1034.80 57.54112
1034.90 59.22534
1035.00 61.24618
1035.10 61.99054
1035.20 61.29675
1035.30 60.67052
1035.40 60.86927
1035.50 61.55129
1035.60 62.26352
1035.70 62.91457
1035.80 63.49838
1035.90 64.28237
1036.00 65.52947
1036.10 66.78908
1036.20 68.01888
1036.30 69.03487
1036.40 69.76948
1036.50 69.76449
1036.60 69.70594
1036.70 69.70156
1036.80 69.79567
1036.90 69.81932
1037.00 70.44389
1037.10 71.44422
1037.20 72.45951
1037.30 73.38564
1037.40 74.35923
1037.50 74.87834
1037.60 74.0861
1037.70 73.35837
1037.80 71.53371
1037.90 68.84401
1038.00 66.20241
1038.10 64.03431
1038.20 61.86125
1038.30 60.53313
1038.40 61.2048
1038.50 62.04285
1038.60 63.40713
1038.70 65.28608
1038.80 67.02409
1038.90 67.37409
1039.00 67.06844
1039.10 66.65072
1039.20 66.14576
1039.30 65.61523
1039.40 65.07229
1039.50 64.49409
1039.60 63.9149
1039.70 63.40471
1039.80 63.05004
1039.90 62.98922
1040.00 63.56482
1040.10 64.06865
1040.20 64.90659
1040.30 66.53414
1040.40 68.27833
1040.50 69.39924
1040.60 69.99872
1040.70 70.52655
1040.80 70.90149
1040.90 71.35501
1041.00 71.55003
1041.10 70.60107
1041.20 69.67928
1041.30 68.14003
1041.40 66.1938
1041.50 64.44381
1041.60 64.47939
1041.70 65.0483
1041.80 66.2152
1041.90 68.7445
1042.00 71.61425
1042.10 73.14857
1042.20 72.36724
1042.30 71.58907
1042.40 70.01452
1042.50 68.44102
1042.60 66.74772
1042.70 64.63053
1042.80 62.35607
1042.90 60.65288
1043.00 60.23051
1043.10 59.77769
1043.20 61.71197
1043.30 64.96051
1043.40 68.0107
1043.50 70.1513
1043.60 72.23358
1043.70 73.50515
1043.80 73.10911
1043.90 72.57248
1044.00 72.30326
1044.10 72.36943
1044.20 72.43665
1044.30 72.41745
1044.40 72.43318
1044.50 72.30781
1044.60 71.98567
1044.70 71.61249
1044.80 71.67588
1044.90 71.83406
1045.00 72.06645
1045.10 73.4364
1045.20 75.26107
1045.30 76.95299
1045.40 78.20198
1045.50 79.5694
1045.60 80.52606
1045.70 80.68899
1045.80 80.8647
1045.90 79.6132
1046.00 77.77863
1046.10 75.93957
1046.20 73.96045
1046.30 71.73729
1046.40 69.88129
1046.50 69.26426
1046.60 68.59038
1046.70 67.66435
1046.80 66.85852
1046.90 66.06933
1047.00 65.13794
1047.10 63.97115
1047.20 63.25824
1047.30 63.70631
1047.40 64.22232
1047.50 64.89064
1047.60 65.48406
1047.70 66.03857
1047.80 66.21736
1047.90 66.24511
1048.00 66.16081
1048.10 66.00079
1048.20 65.71542
1048.30 66.29454
1048.40 67.93581
1048.50 69.52484
1048.60 70.40013
1048.70 70.95817
1048.80 71.34405
1048.90 71.2999
1049.00 71.15302
1049.10 71.07398
1049.20 71.38839
1049.30 71.68275
1049.40 71.68848
1049.50 71.58633
1049.60 71.02268
1049.70 68.88326
1049.80 66.46325
1049.90 64.93538
1050.00 65.43621
1050.10 65.79253
1050.20 67.02163
1050.30 68.36486
1050.40 69.37033
1050.50 69.48917
1050.60 69.49568
1050.70 69.4141
1050.80 69.2146
1050.90 68.98442
1051.00 68.87095
1051.10 68.69692
1051.20 68.25934
1051.30 66.84957
1051.40 65.12783
1051.50 63.75549
1051.60 63.50217
1051.70 63.33553
1051.80 63.65611
1051.90 63.96321
1052.00 64.21731
1052.10 64.16469
1052.20 64.00432
1052.30 63.96969
1052.40 64.58494
1052.50 65.28583
1052.60 66.61133
1052.70 68.50319
1052.80 70.35018
1052.90 71.20612
1053.00 71.60858
1053.10 71.63708
1053.20 70.74944
1053.30 69.63745
1053.40 69.02395
1053.50 69.74362
1053.60 70.41105
1053.70 70.77977
1053.80 70.85782
1053.90 70.74104
1054.00 70.00674
1054.10 69.03944
1054.20 68.58979
1054.30 69.45472
1054.40 70.43647
1054.50 70.60934
1054.60 69.75522
1054.70 68.74553
1054.80 67.41469
1054.90 65.94945
1055.00 65.09995
1055.10 66.07227
1055.20 67.3011
1055.30 68.39504
1055.40 69.09473
1055.50 69.68586
1055.60 68.9632
1055.70 67.81425
1055.80 66.56277
1055.90 65.34342
1056.00 64.0147
1056.10 62.95651
1056.20 62.29517
1056.30 61.6869
1056.40 61.7999
1056.50 62.08537
1056.60 62.48881
1056.70 63.26718
1056.80 64.11002
1056.90 64.62136
1057.00 64.55431
1057.10 64.57101
1057.20 64.96026
1057.30 65.5646
1057.40 66.2658
1057.50 67.01632
1057.60 67.72495
1057.70 68.20298
1057.80 68.22341
1057.90 68.27011
1058.00 68.2816
1058.10 68.3174
1058.20 68.36551
1058.30 68.36861
1058.40 68.43523
1058.50 67.9847
1058.60 66.6101
1058.70 65.16597
1058.80 64.36772
1058.90 64.01312
1059.00 63.73108
1059.10 63.93584
1059.20 64.18412
1059.30 64.42307
1059.40 65.01039
1059.50 65.63118
1059.60 66.50681
1059.70 67.36485
1059.80 68.14033
1059.90 67.81226
1060.00 67.13508
1060.10 66.45311
1060.20 66.02443
1060.30 65.72232
1060.40 65.43489
1060.50 64.90116
1060.60 64.40748
1060.70 63.83727
1060.80 62.94869
1060.90 62.16817
1061.00 61.97643
1061.10 61.99508
1061.20 62.48578
1061.30 63.6432
1061.40 64.80995
1061.50 65.63092
1061.60 66.57018
1061.70 67.32673
1061.80 67.16304
1061.90 66.76399
1062.00 66.40398
1062.10 65.73739
1062.20 64.96876
1062.30 64.55638
1062.40 64.85036
1062.50 65.25122
1062.60 66.42317
1062.70 67.70151
1062.80 69.02025
1062.90 70.33094
1063.00 71.75712
1063.10 72.36653
1063.20 71.76012
1063.30 71.15233
1063.40 70.45767
1063.50 69.9335
1063.60 69.68259
1063.70 69.95871
1063.80 70.17109
1063.90 70.65215
1064.00 71.46283
1064.10 72.28746
1064.20 72.66808
1064.30 72.72308
1064.40 72.67732
1064.50 72.49395
1064.60 72.39603
1064.70 72.32156
1064.80 72.34882
1064.90 72.29635
1065.00 72.36876
1065.10 72.64291
1065.20 72.76616
1065.30 71.89326
1065.40 70.64876
1065.50 69.24083
1065.60 68.03611
1065.70 66.85456
1065.80 66.37029
1065.90 66.23839
1066.00 66.07893
1066.10 65.77276
1066.20 65.49695
1066.30 64.82411
1066.40 63.54212
1066.50 62.12413
1066.60 61.69871
1066.70 62.30675
1066.80 62.84405
1066.90 63.02851
1067.00 62.89082
1067.10 62.70683
1067.20 62.78341
1067.30 62.91595
1067.40 63.78961
1067.50 65.66919
1067.60 67.518
1067.70 68.76035
1067.80 69.57094
1067.90 70.29355
1068.00 70.77983
1068.10 71.31074
1068.20 71.80495
1068.30 73.27124
1068.40 74.67311
1068.50 75.89109
1068.60 76.66717
1068.70 77.35724
1068.80 77.26057
1068.90 76.91748
1069.00 76.46786
1069.10 76.03938
1069.20 75.51869
1069.30 75.03319
1069.40 74.60532
1069.50 74.07396
1069.60 72.77533
1069.70 71.03999
1069.80 69.56851
1069.90 69.39199
1070.00 69.29559
1070.10 69.18552
1070.20 68.91427
1070.30 68.62879
1070.40 68.36618
1070.50 68.19618
1070.60 68.36065
1070.70 69.55631
1070.80 70.96123
1070.90 71.93166
1071.00 71.48675
1071.10 71.05254
1071.20 70.63833
1071.30 70.27212
1071.40 70.22219
1071.50 71.2353
1071.60 72.51614
1071.70 73.18373
1071.80 72.77926
1071.90 72.44885
1072.00 72.24931
1072.10 72.27617
1072.20 72.2672
1072.30 71.80411
1072.40 71.25592
1072.50 70.30732
1072.60 69.24012
1072.70 68.00563
1072.80 68.14894
1072.90 69.15822
1073.00 70.19525
1073.10 71.01844
1073.20 71.88321
1073.30 72.31513
1073.40 71.20257
1073.50 69.92641
1073.60 69.25904
1073.70 69.52444
1073.80 69.84273
1073.90 70.66895
1074.00 71.43521
1074.10 72.18471
1074.20 73.02714
1074.30 74.07097
1074.40 74.53392
1074.50 74.1931
1074.60 73.87011
1074.70 73.84128
1074.80 74.23906
1074.90 74.65549
1075.00 74.58184
1075.10 74.34764
1075.20 73.71196
1075.30 72.70617
1075.40 71.72007
1075.50 71.19746
1075.60 70.595
1075.70 70.36935
1075.80 71.49449
1075.90 73.00669
1076.00 74.23478
1076.10 74.31607
1076.20 74.49902
1076.30 74.37871
1076.40 74.07209
1076.50 73.8188
1076.60 73.74947
1076.70 73.67677
1076.80 73.587
1076.90 73.95439
1077.00 74.38524
1077.10 74.61829
1077.20 74.51689
1077.30 74.38313
1077.40 73.99354
1077.50 73.50832
1077.60 72.78703
1077.70 71.95507
1077.80 71.0433
1077.90 71.0615
1078.00 71.84301
1078.10 72.56886
1078.20 72.9064
1078.30 73.0862
1078.40 73.12952
1078.50 73.30985
1078.60 73.63878
1078.70 73.68568
1078.80 72.76005
1078.90 71.82332
1079.00 70.80019
1079.10 69.9184
1079.20 69.13939
1079.30 68.49084
1079.40 67.88676
1079.50 67.62117
1079.60 68.0332
1079.70 68.3254
1079.80 68.86158
1079.90 69.52324
1080.00 70.16349
1080.10 70.61927
1080.20 71.00248
1080.30 71.2705
1080.40 71.47379
1080.50 71.71674
1080.60 72.28232
1080.70 73.02196
1080.80 73.68584
1080.90 73.9813
1081.00 74.09606
1081.10 74.14851
1081.20 74.1526
1081.30 74.23708
1081.40 74.3437
1081.50 74.36219
1081.60 74.41755
1081.70 75.00801
1081.80 75.82612
1081.90 76.46667
1082.00 76.35432
1082.10 76.27186
1082.20 75.77316
1082.30 74.90379
1082.40 74.05756
1082.50 73.43048
1082.60 72.81602
1082.70 72.33032
1082.80 72.34617
1082.90 72.4671
1083.00 72.79462
1083.10 73.21401
1083.20 73.50859
1083.30 73.93543
1083.40 74.80536
1083.50 75.53778
1083.60 75.49716
1083.70 75.32093
1083.80 75.11526
1083.90 74.97236
1084.00 74.77766
1084.10 74.68297
1084.20 74.67958
1084.30 74.64011
1084.40 74.55218
1084.50 74.58798
1084.60 74.32635
1084.70 73.22859
1084.80 71.97247
1084.90 71.65606
1085.00 72.05426
1085.10 72.50214
1085.20 73.117
1085.30 74.23004
1085.40 74.82071
1085.50 74.21716
1085.60 73.12632
1085.70 72.967
1085.80 73.75134
1085.90 74.52387
1086.00 75.36719
1086.10 76.38713
1086.20 77.35037
1086.30 77.83769
1086.40 78.32084
1086.50 78.23795
1086.60 77.3861
1086.70 76.54583
1086.80 75.9443
1086.90 75.64593
1087.00 75.70417
1087.10 76.45098
1087.20 77.3128
1087.30 77.74044
1087.40 77.17151
1087.50 76.68678
1087.60 75.78385
1087.70 74.67399
1087.80 73.98992
1087.90 74.63772
1088.00 75.61307
1088.10 76.20768
1088.20 75.65268
1088.30 75.15549
1088.40 74.80556
1088.50 74.58511
1088.60 74.5365
1088.70 74.94901
1088.80 75.48617
1088.90 75.54476
1089.00 75.10296
1089.10 74.63111
1089.20 74.41464
1089.30 74.5656
1089.40 74.73181
1089.50 74.73559
1089.60 74.33841
1089.70 74.22065
1089.80 75.09037
1089.90 76.10088
1090.00 77.1298
1090.10 77.93506
1090.20 78.69897
1090.30 78.83173
1090.40 78.71754
1090.50 78.48898
1090.60 77.99918
1090.70 77.64365
1090.80 77.08133
1090.90 75.91761
1091.00 74.71265
1091.10 73.61007
1091.20 72.60498
1091.30 72.00389
1091.40 72.3543
1091.50 72.7733
1091.60 73.51009
1091.70 74.7264
1091.80 75.9212
1091.90 76.40904
1092.00 76.78142
1092.10 76.99305
1092.20 76.74498
1092.30 76.35339
1092.40 76.25582
1092.50 76.43999
1092.60 76.6017
1092.70 76.58199
1092.80 76.65468
1092.90 76.73557
1093.00 76.6379
1093.10 76.35693
1093.20 76.05139
1093.30 75.8092
1093.40 75.6396
1093.50 75.45749
1093.60 75.51887
1093.70 75.59275
1093.80 75.53465
1093.90 74.8346
1094.00 74.59546
1094.10 75.32487
1094.20 76.32764
1094.30 76.54706
1094.40 75.88073
1094.50 75.24525
1094.60 74.18776
1094.70 72.97808
1094.80 72.1454
1094.90 72.87104
1095.00 73.53871
1095.10 74.60358
1095.20 75.7335
1095.30 76.84483
1095.40 77.64331
1095.50 78.52557
1095.60 79.10005
1095.70 78.78667
1095.80 78.2623
1095.90 77.74689
1096.00 77.89335
1096.10 77.97809
1096.20 78.18687
1096.30 78.3469
1096.40 78.49602
1096.50 78.4514
1096.60 78.36392
1096.70 77.96988
1096.80 77.01489
1096.90 76.13821
1097.00 74.83744
1097.10 73.21507
1097.20 71.75428
1097.30 71.61959
1097.40 71.71109
1097.50 72.19232
1097.60 72.98121
1097.70 73.74202
1097.80 74.38762
1097.90 75.31638
1098.00 76.26614
1098.10 76.79711
1098.20 76.9516
1098.30 76.62059
1098.40 75.93387
1098.50 75.42125
1098.60 75.17524
1098.70 74.76039
1098.80 74.28532
1098.90 74.12448
1099.00 74.16516
1099.10 74.26973
1099.20 74.59276
1099.30 74.88233
1099.40 75.44813
1099.50 76.34331
1099.60 77.26538
1099.70 77.40388
1099.80 77.28136
1099.90 77.19749
1100.00 76.97875
1100.10 76.62847
1100.20 76.17493
1100.30 75.5721
1100.40 75.01781
1100.50 74.43437
1100.60 73.87042
1100.70 73.55487
1100.80 74.03371
1100.90 74.76677
1101.00 75.39278
1101.10 75.55156
1101.20 75.62499
1101.30 75.90981
1101.40 76.62705
1101.50 77.32574
1101.60 77.40803
1101.70 77.35545
1101.80 76.85643
1101.90 75.57808
1102.00 74.31392
1102.10 73.33145
1102.20 72.54757
1102.30 71.73842
1102.40 71.10504
1102.50 70.19518
1102.60 70.01841
1102.70 71.52878
1102.80 73.36581
1102.90 74.72575
1103.00 75.66036
1103.10 76.61311
1103.20 76.42571
1103.30 75.45775
1103.40 74.1456
1103.50 72.15321
1103.60 69.90334
1103.70 68.65797
1103.80 68.99192
1103.90 69.18543
1104.00 69.81742
1104.10 70.98377
1104.20 72.14339
1104.30 72.56174
1104.40 72.61378
1104.50 72.43912
1104.60 72.7225
1104.70 72.99625
1104.80 73.11882
1104.90 73.48264
1105.00 73.91238
1105.10 73.65869
1105.20 73.04217
1105.30 71.79709
1105.40 70.15926
1105.50 68.50207
1105.60 67.92638
1105.70 67.53056
1105.80 67.25036
1105.90 67.7824
1106.00 68.85689
1106.10 69.62059
1106.20 69.72401
1106.30 69.78085
1106.40 69.94256
1106.50 70.22987
1106.60 70.43663
1106.70 70.25661
1106.80 70.12851
1106.90 69.77022
1107.00 68.81933
1107.10 67.6603
1107.20 67.08322
1107.30 67.38216
1107.40 67.71477
1107.50 68.4801
1107.60 69.5848
1107.70 70.31258
1107.80 70.34695
1107.90 70.17153
1108.00 70.28865
1108.10 70.50323
1108.20 70.72311
1108.30 71.38058
1108.40 72.41771
1108.50 73.38313
1108.60 74.01682
1108.70 74.70581
1108.80 74.97213
1108.90 74.56202
1109.00 74.11761
1109.10 73.58025
1109.20 72.99664
1109.30 72.70894
1109.40 73.1636
1109.50 73.72588
1109.60 74.20119
1109.70 74.72818
1109.80 75.33109
1109.90 75.30262
1110.00 74.91698
1110.10 74.37126
1110.20 73.07325
1110.30 71.76835
1110.40 70.48354
1110.50 69.18508
1110.60 67.71867
1110.70 67.51091
1110.80 68.18231
1110.90 68.73993
1111.00 68.72877
1111.10 68.53272
1111.20 68.20778
1111.30 67.84649
1111.40 67.46228
1111.50 67.48956
1111.60 67.70405
1111.70 67.88194
1111.80 68.29075
1111.90 68.98288
1112.00 69.44348
1112.10 69.22966
1112.20 68.92534
1112.30 68.76899
1112.40 68.73058
1112.50 68.72155
1112.60 69.32272
1112.70 70.30777
1112.80 71.37311
1112.90 72.41367
1113.00 73.46893
1113.10 74.13161
1113.20 74.06372
1113.30 73.99588
1113.40 73.77952
1113.50 73.56013
1113.60 73.00665
1113.70 71.61279
1113.80 70.12593
1113.90 69.27764
1114.00 69.78108
1114.10 70.10886
1114.20 70.96496
1114.30 71.78261
1114.40 72.70776
1114.50 73.75712
1114.60 74.85646
1114.70 75.21437
1114.80 74.28066
1114.90 73.39222
1115.00 72.2625
1115.10 71.52225
1115.20 71.10285
1115.30 71.80029
1115.40 72.9275
1115.50 73.76574
1115.60 73.85826
1115.70 73.70651
1115.80 73.53813
1115.90 72.991
1116.00 72.43848
1116.10 72.0101
1116.20 71.89492
1116.30 71.86281
1116.40 72.01099
1116.50 72.16033
1116.60 72.29115
1116.70 72.79899
1116.80 73.20966
1116.90 72.74958
1117.00 71.68256
1117.10 70.56211
1117.20 69.40947
1117.30 68.2178
1117.40 67.2022
1117.50 67.00498
1117.60 66.83566
1117.70 67.17829
1117.80 67.19512
1117.90 67.37626
1118.00 68.1306
1118.10 69.18428
1118.20 70.04106
1118.30 71.27103
1118.40 72.5231
1118.50 73.73958
1118.60 74.37073
1118.70 74.67157
1118.80 74.01318
1118.90 73.31022
1119.00 73.04342
1119.10 72.7936
1119.20 72.4714
1119.30 72.09455
1119.40 71.54474
1119.50 70.96428
1119.60 70.63222
1119.70 70.12552
1119.80 69.60968
1119.90 69.18147
1120.00 68.9604
1120.10 68.74627
1120.20 68.8193
1120.30 69.5089
1120.40 70.19651
1120.50 70.43473
1120.60 71.17519
1120.70 72.00257
1120.80 72.95525
1120.90 72.86944
1121.00 72.26142
1121.10 71.7422
1121.20 71.20724
1121.30 71.32204
1121.40 71.42853
1121.50 71.55219
1121.60 71.05887
1121.70 70.41387
1121.80 69.80778
1121.90 69.30623
1122.00 68.95086
1122.10 68.3543
1122.20 68.08443
1122.30 68.30565
1122.40 68.37877
1122.50 68.88926
1122.60 70.85322
1122.70 72.95379
1122.80 74.94706
1122.90 75.72856
1123.00 76.13745
1123.10 76.4121
1123.20 75.38431
1123.30 73.56301
1123.40 71.76542
1123.50 70.40105
1123.60 70.68538
1123.70 70.88881
1123.80 71.34463
1123.90 72.00656
1124.00 72.68284
1124.10 73.33792
1124.20 73.751
1124.30 74.04594
1124.40 74.33348
1124.50 74.76944
1124.60 75.24881
1124.70 75.74381
1124.80 75.56012
1124.90 74.00328
1125.00 72.47138
1125.10 70.68502
1125.20 70.71301
1125.30 70.92911
1125.40 71.70086
1125.50 72.98335
1125.60 74.24244
1125.70 75.43428
1125.80 75.72766
1125.90 75.28468
1126.00 74.86078
1126.10 74.329
1126.20 74.26957
1126.30 74.20488
1126.40 74.14711
1126.50 74.23159
1126.60 74.33247
1126.70 74.47663
1126.80 74.36473
1126.90 74.11903
1127.00 73.86914
1127.10 73.79992
1127.20 73.87318
1127.30 73.96157
1127.40 74.10049
1127.50 74.08541
1127.60 74.06835
1127.70 73.83992
1127.80 73.84913
1127.90 73.88411
1128.00 73.9441
1128.10 73.84196
1128.20 73.6983
1128.30 73.58425
1128.40 73.81804
1128.50 74.14764
1128.60 74.47398
1128.70 74.66166
1128.80 74.41833
1128.90 74.18963
1129.00 73.83423
1129.10 73.3416
1129.20 72.86219
1129.30 72.52476
1129.40 72.91851
1129.50 73.51217
1129.60 74.08293
1129.70 74.66838
1129.80 75.50414
1129.90 76.34176
1130.00 76.78184
1130.10 76.07269
1130.20 75.42603
1130.30 74.67995
1130.40 73.76919
1130.50 72.8264
1130.60 71.93456
1130.70 71.27942
1130.80 70.77568
1130.90 70.28147
1131.00 70.13292
1131.10 70.41719
1131.20 70.69644
1131.30 71.15463
1131.40 71.59481
1131.50 72.04527
1131.60 72.42776
1131.70 72.65911
1131.80 72.88684
1131.90 73.08166
1132.00 73.22784
1132.10 73.22252
1132.20 73.22181
1132.30 73.24577
1132.40 73.38604
1132.50 73.52052
1132.60 73.4526
1132.70 73.16888
1132.80 72.88375
1132.90 72.68499
1133.00 72.4942
1133.10 72.28746
1133.20 72.05016
1133.30 71.74386
1133.40 71.37704
1133.50 71.00673
1133.60 70.42247
1133.70 69.61923
1133.80 68.81659
1133.90 67.80898
1134.00 66.81431
1134.10 65.822
1134.20 64.99186
1134.30 65.25377
1134.40 65.7445
1134.50 66.40313
1134.60 67.60687
1134.70 68.79368
1134.80 69.9531
1134.90 71.16464
1135.00 72.15866
1135.10 73.19784
1135.20 73.56974
1135.30 73.00051
1135.40 72.4483
1135.50 71.75242
1135.60 70.27049
1135.70 68.62993
1135.80 67.09938
1135.90 67.1195
1136.00 68.1787
1136.10 69.21789
1136.20 70.0616
1136.30 70.23548
1136.40 70.44616
1136.50 70.46838
1136.60 69.81693
1136.70 69.17162
1136.80 68.41432
1136.90 67.6397
1137.00 66.87865
1137.10 66.18632
1137.20 65.45165
1137.30 64.66553
1137.40 63.89224
1137.50 63.17001
1137.60 62.66222
1137.70 62.20398
1137.80 61.51767
1137.90 59.19388
1138.00 56.94581
1138.10 54.44644
1138.20 51.88029
1138.30 49.25736
1138.40 47.05259
1138.50 46.69545
1138.60 48.08981
1138.70 49.34911
1138.80 51.69204
1138.90 54.13074
1139.00 56.66235
1139.10 59.08908
1139.20 60.28697
1139.30 61.56885
1139.40 62.46885
1139.50 62.17904
1139.60 61.68984
1139.70 61.10601
1139.80 60.24559
1139.90 59.3828
1140.00 58.56736
1140.10 56.98398
1140.20 54.19269
1140.30 51.47125
1140.40 48.35992
1140.50 45.27739
1140.60 42.01499
1140.70 39.63295
1140.80 40.41699
1140.90 42.21918
1141.00 44.18807
1141.10 46.95362
1141.20 49.89534
1141.30 52.8952
1141.40 55.82749
1141.50 58.74784
1141.60 61.72089
1141.70 64.25909
1141.80 65.17059
1141.90 66.12392
1142.00 67.0049
1142.10 67.77244
1142.20 68.49654
1142.30 69.12554
1142.40 69.19812
1142.50 69.10443
1142.60 69.00078
1142.70 69.28079
1142.80 69.7638
1142.90 70.25167
1143.00 70.6312
1143.10 70.42736
1143.20 70.23552
1143.30 70.03209
1143.40 70.02103
1143.50 70.09077
1143.60 70.16297
1143.70 70.04148
1143.80 69.81002
1143.90 69.60146
1144.00 69.70036
1144.10 70.31073
1144.20 70.88775
1144.30 71.47097
1144.40 71.77495
1144.50 72.07781
1144.60 72.2075
1144.70 71.91084
1144.80 71.56171
1144.90 71.27897
1145.00 71.55758
1145.10 71.97292
1145.20 72.39238
1145.30 72.49301
1145.40 72.28365
1145.50 72.07754
1145.60 71.8265
1145.70 71.60886
1145.80 71.38875
1145.90 71.2431
1146.00 71.31283
1146.10 71.52648
1146.20 71.70921
1146.30 71.92151
1146.40 72.04813
1146.50 72.17374
1146.60 72.5101
1146.70 73.07966
1146.80 73.67415
1146.90 74.10745
1147.00 73.53361
1147.10 72.97345
1147.20 72.37373
1147.30 72.34979
1147.40 72.52297
1147.50 72.70012
1147.60 72.85242
1147.70 73.07907
1147.80 73.30444
1147.90 73.47703
1148.00 73.32014
1148.10 73.17154
1148.20 73.24708
1148.30 73.04867
1148.40 72.88069
1148.50 72.66652
1148.60 72.86448
1148.70 73.25045
1148.80 73.68254
1148.90 74.13473
1149.00 74.73742
1149.10 75.3469
1149.20 75.42451
1149.30 74.51899
1149.40 73.63363
1149.50 72.90663
1149.60 73.10083
1149.70 73.27161
1149.80 73.48742
1149.90 73.84129
1150.00 74.2556
1150.10 74.60505
1150.20 74.26371
1150.30 73.58757
1150.40 72.90858
1150.50 72.6952
1150.60 72.93708
1150.70 73.16667
1150.80 73.49927
1150.90 73.96866
1151.00 74.44898
1151.10 74.79513
1151.20 74.83365
1151.30 74.77843
1151.40 74.69248
1151.50 74.29188
1151.60 73.67392
1151.70 73.05353
1151.80 72.69567
1151.90 72.79918
1152.00 72.89996
1152.10 73.21042
1152.20 72.89969
1152.30 72.61968
1152.40 72.09806
1152.50 71.66182
1152.60 71.32868
1152.70 71.11023
1152.80 70.99534
1152.90 71.16533
1153.00 71.33535
1153.10 71.59739
1153.20 71.40217
1153.30 71.20857
1153.40 70.99675
1153.50 70.98397
1153.60 70.95403
1153.70 71.01307
1153.80 71.46146
1153.90 72.08084
1154.00 72.68847
1154.10 73.23414
1154.20 73.73462
1154.30 74.2481
1154.40 74.52584
1154.50 74.26776
1154.60 74.02941
1154.70 73.60607
1154.80 72.96388
1154.90 72.28969
1155.00 71.76067
1155.10 71.78764
1155.20 71.94265
1155.30 72.05451
1155.40 72.13694
1155.50 72.21261
1155.60 72.30983
1155.70 72.69391
1155.80 73.30237
1155.90 73.92236
1156.00 74.47357
1156.10 74.287
1156.20 74.0987
1156.30 73.83625
1156.40 73.91338
1156.50 74.10462
1156.60 74.32609
1156.70 74.48794
1156.80 74.42975
1156.90 74.34774
1157.00 73.87469
1157.10 73.24696
1157.20 72.60285
1157.30 72.26656
1157.40 72.40069
1157.50 72.53364
1157.60 72.58205
1157.70 72.66238
1157.80 72.76335
1157.90 72.89197
1158.00 73.07808
1158.10 73.31908
1158.20 73.56338
1158.30 73.78412
1158.40 73.7486
1158.50 73.71847
1158.60 73.47202
1158.70 73.08825
1158.80 72.71474
1158.90 72.3342
1159.00 71.94931
1159.10 71.56885
1159.20 71.14749
1159.30 70.34724
1159.40 69.27848
1159.50 68.22278
1159.60 67.432
1159.70 67.15071
1159.80 66.82402
1159.90 66.93741
1160.00 67.63698
1160.10 68.33192
1160.20 68.9843
1160.30 69.63619
1160.40 70.32849
1160.50 70.88728
1160.60 71.08929
1160.70 70.86758
1160.80 70.62853
1160.90 69.75179
1161.00 68.56684
1161.10 67.3182
1161.20 66.8755
1161.30 67.89325
1161.40 68.85549
1161.50 70.15233
1161.60 71.52578
1161.70 72.87641
1161.80 73.82001
1161.90 73.71599
1162.00 73.15299
1162.10 72.61758
1162.20 72.20423
1162.30 72.0059
1162.40 71.79141
1162.50 71.79991
1162.60 72.2541
1162.70 72.69911
1162.80 73.11819
1162.90 73.58978
1163.00 74.08816
1163.10 74.57651
1163.20 74.90223
1163.30 75.01828
1163.40 75.05913
1163.50 74.72975
1163.60 73.87958
1163.70 73.06355
1163.80 71.74156
1163.90 70.33454
1164.00 68.89124
1164.10 67.9607
1164.20 68.07437
1164.30 68.36888
1164.40 68.89
1164.50 69.90967
1164.60 71.09282
1164.70 72.18968
1164.80 72.86321
1164.90 73.18475
1165.00 73.52238
1165.10 73.49421
1165.20 72.98746
1165.30 72.48845
1165.40 71.91769
1165.50 71.30967
1165.60 70.68543
1165.70 70.22046
1165.80 70.36853
1165.90 70.89931
1166.00 71.47697
1166.10 72.25334
1166.20 73.02015
1166.30 73.79059
1166.40 74.3339
1166.50 74.35305
1166.60 74.38098
1166.70 74.26311
1166.80 73.98293
1166.90 73.70752
1167.00 73.35737
1167.10 72.9583
1167.20 72.57092
1167.30 72.22469
1167.40 72.09927
1167.50 71.94157
1167.60 71.78164
1167.70 71.49588
1167.80 71.20784
1167.90 70.91181
1168.00 70.63324
1168.10 70.27967
1168.20 69.92791
1168.30 69.43455
1168.40 68.58405
1168.50 67.57116
1168.60 66.44983
1168.70 64.60136
1168.80 62.11018
1168.90 59.7034
1169.00 55.77822
1169.10 51.13923
1169.20 46.3942
1169.30 42.9228
1169.40 42.99697
1169.50 43.26659
1169.60 44.71466
1169.70 48.36498
1169.80 52.62025
1169.90 56.67568
1170.00 59.98686
1170.10 62.607
1170.20 65.26903
1170.30 67.19773
1170.40 68.44157
1170.50 69.71166
1170.60 70.58251
1170.70 70.99979
1170.80 71.37963
1170.90 71.63631
1171.00 71.48939
1171.10 71.21937
1171.20 70.97069
1171.30 70.98412
1171.40 71.17673
1171.50 71.37534
1171.60 71.54875
1171.70 71.36123
1171.80 71.18571
1171.90 70.79767
1172.00 70.52937
1172.10 70.24999
1172.20 70.1263
1172.30 70.17999
1172.40 70.30072
1172.50 70.45123
1172.60 70.65277
1172.70 70.87643
1172.80 71.0883
1172.90 71.2905
1173.00 71.59278
1173.10 71.90243
1173.20 72.1551
1173.30 71.87354
1173.40 71.61515
1173.50 71.24236
1173.60 70.78355
1173.70 70.31634
1173.80 69.98291
1173.90 70.11214
1174.00 70.50158
1174.10 70.89833
1174.20 71.365
1174.30 71.86653
1174.40 72.36412
1174.50 72.69623
1174.60 72.90708
1174.70 73.13815
1174.80 73.3201
1174.90 73.22556
1175.00 73.05846
1175.10 72.79715
1175.20 72.44031
1175.30 72.06232
1175.40 71.70543
1175.50 71.49164
1175.60 71.4652
1175.70 71.42481
1175.80 71.51744
1175.90 71.13992
1176.00 70.78438
1176.10 70.20192
1176.20 69.35767
1176.30 68.4648
1176.40 67.52291
1176.50 66.56552
1176.60 65.63269
1176.70 64.56213
1176.80 62.60914
1176.90 59.50415
1177.00 56.48459
1177.10 52.13166
1177.20 47.02358
1177.30 41.8286
1177.40 37.44107
1177.50 35.56951
1177.60 34.11937
1177.70 33.8786
1177.80 36.7908
1177.90 40.97278
1178.00 45.13951
1178.10 49.05434
1178.20 52.49731
1178.30 56.02116
1178.40 58.6206
1178.50 60.42763
1178.60 62.25645
1178.70 63.85002
1178.80 64.9215
1178.90 65.9416
1179.00 66.80036
1179.10 67.44912
1179.20 67.96973
1179.30 68.44751
1179.40 68.62436
1179.50 68.62805
1179.60 68.6365
1179.70 68.68863
1179.80 68.77123
1179.90 68.84453
1180.00 68.85344
1180.10 69.13607
1180.20 69.43801
1180.30 69.88507
1180.40 70.40088
1180.50 70.88519
1180.60 71.27362
1180.70 71.27107
1180.80 70.94963
1180.90 70.63136
1181.00 70.3074
1181.10 70.05196
1181.20 69.79549
1181.30 69.54516
1181.40 69.35166
1181.50 69.1637
1181.60 69.03549
1181.70 69.14048
1181.80 69.34068
1181.90 69.57896
1182.00 69.83929
1182.10 70.14685
1182.20 70.43338
1182.30 70.56481
1182.40 70.4102
1182.50 70.28414
1182.60 69.85592
1182.70 68.97173
1182.80 68.10261
1182.90 67.29232
1183.00 66.77975
1183.10 66.3748
1183.20 66.12336
1183.30 66.46169
1183.40 66.93889
1183.50 67.39887
1183.60 67.62847
1183.70 67.41175
1183.80 67.20827
1183.90 66.82138
1184.00 67.02827
1184.10 67.19501
1184.20 67.71544
1184.30 68.75674
1184.40 69.92109
1184.50 70.82335
1184.60 71.157
1184.70 70.97145
1184.80 70.77117
1184.90 70.24116
1185.00 69.61477
1185.10 68.96922
1185.20 68.44193
1185.30 68.26284
1185.40 68.05769
1185.50 68.09261
1185.60 68.46071
1185.70 68.90154
1185.80 69.30339
1185.90 69.59139
1186.00 69.76735
1186.10 69.91824
1186.20 70.07623
1186.30 70.401
1186.40 70.73133
1186.50 71.03483
1186.60 70.93969
1186.70 70.85802
1186.80 70.56437
1186.90 70.03037
1187.00 69.43051
1187.10 68.96193
1187.20 68.76467
1187.30 68.76598
1187.40 68.83526
1187.50 69.33614
1187.60 69.97087
1187.70 70.61841
1187.80 70.74437
1187.90 70.3951
1188.00 70.08874
1188.10 69.43451
1188.20 67.83605
1188.30 66.17858
1188.40 64.31963
1188.50 62.19717
1188.60 60.14835
1188.70 58.60967
1188.80 59.04185
1188.90 60.81441
1189.00 62.54769
1189.10 64.57959
1189.20 66.25555
1189.30 68.00993
1189.40 69.06354
1189.50 69.53289
1189.60 69.94496
1189.70 70.45548
1189.80 70.75904
1189.90 70.98246
1190.00 71.16341
1190.10 71.16454
1190.20 70.94519
1190.30 70.70466
1190.40 70.19729
1190.50 69.67885
1190.60 69.1647
1190.70 68.66624
1190.80 68.38942
1190.90 68.07787
1191.00 67.96817
1191.10 68.34564
1191.20 68.86522
1191.30 69.36655
1191.40 69.67616
1191.50 69.79954
1191.60 69.91925
1191.70 69.97051
1191.80 69.93969
1191.90 69.906
1192.00 69.83477
1192.10 70.02249
1192.20 70.22114
1192.30 70.33169
1192.40 70.12261
1192.50 69.83346
1192.60 69.59968
1192.70 69.50329
1192.80 69.52601
1192.90 69.55573
1193.00 69.63695
1193.10 69.81104
1193.20 69.99025
1193.30 70.18824
1193.40 70.19647
1193.50 70.22762
1193.60 69.9768
1193.70 69.19876
1193.80 68.29596
1193.90 67.42042
1194.00 66.69264
1194.10 66.11841
1194.20 65.61455
1194.30 65.54657
1194.40 65.79592
1194.50 66.05139
1194.60 66.16427
1194.70 65.70039
1194.80 65.26447
1194.90 64.45493
1195.00 63.45305
1195.10 62.41726
1195.20 61.77676
1195.30 62.05855
1195.40 62.83147
1195.50 63.67582
1195.60 64.80236
1195.70 65.82575
1195.80 66.88365
1195.90 67.16104
1196.00 66.60361
1196.10 66.05297
1196.20 65.46321
1196.30 64.98819
1196.40 64.52281
1196.50 64.19495
1196.60 64.12263
1196.70 64.13036
1196.80 64.11911
1196.90 64.01449
1197.00 63.82595
1197.10 63.60081
1197.20 62.59026
1197.30 60.77048
1197.40 58.96009
1197.50 57.06151
1197.60 55.92293
1197.70 54.64498
1197.80 54.19936
1197.90 54.94823
1198.00 56.13162
1198.10 57.28681
1198.20 58.24741
1198.30 59.01185
1198.40 59.79041
1198.50 60.70258
1198.60 61.95769
1198.70 63.23246
1198.80 64.14228
1198.90 63.92364
1199.00 63.75877
1199.10 63.26784
1199.20 62.25456
1199.30 61.16226
1199.40 60.26351
1199.50 59.9282
1199.60 59.97429
1199.70 60.06386
1199.80 60.40849
1199.90 60.91208
1200.00 61.42558
