# Version 2.1 - nm, norm@500 to 1, cut digits
# Wavelength(nm)  Flambda(ergs/cm^s/s/nm)
300.00 0.005152269
300.10 0.006961272
300.20 0.008009582
300.30 0.008374369
300.40 0.008401773
300.50 0.008368316
300.60 0.008361232
300.70 0.008373182
300.80 0.008398295
300.90 0.008433709
301.00 0.00847849
301.10 0.008532324
301.20 0.008593755
301.30 0.008659522
301.40 0.008726706
301.50 0.008793868
301.60 0.008860751
301.70 0.00892747
301.80 0.008994105
301.90 0.009060707
302.00 0.009127302
302.10 0.009193896
302.20 0.009260485
302.30 0.009327049
302.40 0.00939355
302.50 0.009459925
302.60 0.009526089
302.70 0.009592237
302.80 0.00965946
302.90 0.009729975
303.00 0.009806258
303.10 0.009889415
303.20 0.009978339
303.30 0.01007056
303.40 0.01016385
303.50 0.01025712
303.60 0.01035019
303.70 0.01044313
303.80 0.010536
303.90 0.01062885
304.00 0.0107217
304.10 0.01081454
304.20 0.01090741
304.30 0.01100035
304.40 0.01109348
304.50 0.01118699
304.60 0.01128116
304.70 0.01137537
304.80 0.01146629
304.90 0.01154715
305.00 0.01161036
305.10 0.01165255
305.20 0.0116771
305.30 0.01169158
305.40 0.01170277
305.50 0.011714
305.60 0.01172589
305.70 0.01173816
305.80 0.01175062
305.90 0.01176316
306.00 0.01177572
306.10 0.01178828
306.20 0.01180084
306.30 0.01181339
306.40 0.01182595
306.50 0.0118385
306.60 0.01185106
306.70 0.01186361
306.80 0.01187617
306.90 0.01188876
307.00 0.01190138
307.10 0.01191405
307.20 0.01192675
307.30 0.01193948
307.40 0.01195221
307.50 0.01196495
307.60 0.01197768
307.70 0.01199041
307.80 0.01200314
307.90 0.01201588
308.00 0.01202861
308.10 0.01204134
308.20 0.01205403
308.30 0.01206652
308.40 0.01207853
308.50 0.01208959
308.60 0.01209902
308.70 0.01210833
308.80 0.01212587
308.90 0.01216861
309.00 0.01225551
309.10 0.01239502
309.20 0.01257868
309.30 0.01278754
309.40 0.01300464
309.50 0.01322161
309.60 0.01343696
309.70 0.01365135
309.80 0.01386525
309.90 0.01407897
310.00 0.01429264
310.10 0.01450631
310.20 0.01472003
310.30 0.01493394
310.40 0.01514833
310.50 0.01536369
310.60 0.01558068
310.70 0.01579779
310.80 0.01600663
310.90 0.01619013
311.00 0.01632925
311.10 0.01641548
311.20 0.01645732
311.30 0.01647383
311.40 0.01648206
311.50 0.01649042
311.60 0.0165004
311.70 0.01651135
311.80 0.01652279
311.90 0.01653442
312.00 0.01654609
312.10 0.01655776
312.20 0.01656938
312.30 0.01658076
312.40 0.01659154
312.50 0.01660113
312.60 0.01660871
312.70 0.01661613
312.80 0.01663378
312.90 0.01668271
313.00 0.01678646
313.10 0.01695554
313.20 0.01717943
313.30 0.01743461
313.40 0.01770001
313.50 0.01796526
313.60 0.0182285
313.70 0.01849054
313.80 0.01875199
313.90 0.0190132
314.00 0.01927435
314.10 0.0195355
314.20 0.01979662
314.30 0.02005757
314.40 0.0203181
314.50 0.0205778
314.60 0.0208361
314.70 0.0210943
314.80 0.02135961
314.90 0.0216467
315.00 0.02197195
315.10 0.02234267
315.20 0.02275154
315.30 0.0231822
315.40 0.02361997
315.50 0.02405764
315.60 0.0244939
315.70 0.02492934
315.80 0.02536436
315.90 0.02579921
316.00 0.02623403
316.10 0.02666884
316.20 0.0271038
316.30 0.02753936
316.40 0.02797646
316.50 0.0284166
316.60 0.0288619
316.70 0.02930759
316.80 0.02972712
316.90 0.0300666
317.00 0.03026581
317.10 0.03029787
317.20 0.03018968
317.30 0.03000142
317.40 0.02978701
317.50 0.029573
317.60 0.02936413
317.70 0.02915831
317.80 0.02895403
317.90 0.02875035
318.00 0.02854681
318.10 0.02834328
318.20 0.02813963
318.30 0.02793552
318.40 0.02773024
318.50 0.02752262
318.60 0.02731107
318.70 0.0270992
318.80 0.02690736
318.90 0.02677681
319.00 0.02675363
319.10 0.02685839
319.20 0.02707052
319.30 0.02734394
319.40 0.02763738
319.50 0.02793052
319.60 0.02821971
319.70 0.02850657
319.80 0.02879226
319.90 0.02907748
320.00 0.0293626
320.10 0.02964771
320.20 0.02993287
320.30 0.03021819
320.40 0.03050396
320.50 0.03079058
320.60 0.03107866
320.70 0.03136685
320.80 0.03164764
320.90 0.03190576
321.00 0.03212418
321.10 0.03229527
321.20 0.03242665
321.30 0.03253536
321.40 0.03263667
321.50 0.03273809
321.60 0.03284097
321.70 0.03294471
321.80 0.03304888
321.90 0.03315323
322.00 0.03325761
322.10 0.033362
322.20 0.03346624
322.30 0.03356986
322.40 0.03367188
322.50 0.03377076
322.60 0.03386431
322.70 0.03395745
322.80 0.03407764
322.90 0.03428062
323.00 0.03462865
323.10 0.03514953
323.20 0.03581546
323.30 0.03656418
323.40 0.03733995
323.50 0.03811531
323.60 0.03888534
323.70 0.03965223
323.80 0.04041753
323.90 0.04118219
324.00 0.04194672
324.10 0.04271124
324.20 0.04347579
324.30 0.04424044
324.40 0.04500534
324.50 0.04577076
324.60 0.04653705
324.70 0.0473034
324.80 0.04806535
324.90 0.04881386
325.00 0.04953881
325.10 0.05023567
325.20 0.05090898
325.30 0.05156884
325.40 0.0522243
325.50 0.05287983
325.60 0.05353623
325.70 0.05419313
325.80 0.0548503
325.90 0.05550756
326.00 0.05616485
326.10 0.05682214
326.20 0.05747938
326.30 0.0581364
326.40 0.05879287
326.50 0.05944823
326.60 0.06010172
326.70 0.06075508
326.80 0.0614179
326.90 0.06210971
327.00 0.0628523
327.10 0.06365541
327.20 0.0645093
327.30 0.06539218
327.40 0.06628453
327.50 0.06717674
327.60 0.06806708
327.70 0.06895632
327.80 0.069845
327.90 0.07073346
328.00 0.07162187
328.10 0.07251029
328.20 0.07339899
328.30 0.074289
328.40 0.07518226
328.50 0.07608199
328.60 0.07699267
328.70 0.07790418
328.80 0.07876014
328.90 0.07944601
329.00 0.07983391
329.10 0.07986675
329.20 0.07960163
329.30 0.07916643
329.40 0.07867566
329.50 0.07818574
329.60 0.07770676
329.70 0.07723424
329.80 0.07676499
329.90 0.07629703
330.00 0.07582936
330.10 0.0753617
330.20 0.07489382
330.30 0.07442498
330.40 0.07395371
330.50 0.07347765
330.60 0.07299347
330.70 0.07250867
330.80 0.07206509
330.90 0.07174767
331.00 0.07165129
331.10 0.07181829
331.20 0.07220633
331.30 0.07272054
331.40 0.07327596
331.50 0.07383076
331.60 0.07437744
331.70 0.07491932
331.80 0.07545878
331.90 0.07599729
332.00 0.07653557
332.10 0.07707385
332.20 0.07761228
332.30 0.07815131
332.40 0.07869187
332.50 0.07923547
332.60 0.07978421
332.70 0.08033334
332.80 0.08085638
332.90 0.08129954
333.00 0.08160275
333.10 0.0817392
333.20 0.0817357
333.30 0.08165232
333.40 0.08154284
333.50 0.08143376
333.60 0.08132982
333.70 0.08122892
333.80 0.08112954
333.90 0.08103078
334.00 0.08093215
334.10 0.08083166
334.20 0.08072621
334.30 0.08061411
334.40 0.08049523
334.50 0.08037093
334.60 0.08034012
334.70 0.08062131
334.80 0.08128736
334.90 0.08192052
335.00 0.08174192
335.10 0.08052433
335.20 0.07944593
335.30 0.08074149
335.40 0.0860004
335.50 0.09441905
335.60 0.1026908
335.70 0.1069539
335.80 0.1053056
335.90 0.09875107
336.00 0.09012337
336.10 0.08231542
336.20 0.07731665
336.30 0.07592353
336.40 0.07738397
336.50 0.07948633
336.60 0.07986699
336.70 0.07796267
336.80 0.07573748
336.90 0.07615714
337.00 0.08067131
337.10 0.08783359
337.20 0.09414819
337.30 0.09648775
337.40 0.09429893
337.50 0.08995491
337.60 0.08694196
337.70 0.08727162
337.80 0.09030128
337.90 0.09391087
338.00 0.09649224
338.10 0.09761776
338.20 0.0970563
338.30 0.09401616
338.40 0.08819377
338.50 0.08133526
338.60 0.07697155
338.70 0.07785582
338.80 0.08336931
338.90 0.08971334
339.00 0.09295877
339.10 0.09227331
339.20 0.09044578
339.30 0.09116994
339.40 0.09567079
339.50 0.1019301
339.60 0.106903
339.70 0.1091032
339.80 0.1089862
339.90 0.1074183
340.00 0.1047393
340.10 0.1012849
340.20 0.09783582
340.30 0.09496851
340.40 0.09222834
340.50 0.08856466
340.60 0.08369063
340.70 0.07864708
340.80 0.07494655
340.90 0.07344375
341.00 0.07407228
341.10 0.0763076
341.20 0.0795595
341.30 0.08313939
341.40 0.08623081
341.50 0.08821584
341.60 0.0890623
341.70 0.08934853
341.80 0.08984121
341.90 0.09094282
342.00 0.09234191
342.10 0.09307232
342.20 0.09209602
342.30 0.08916421
342.40 0.08528308
342.50 0.08219424
342.60 0.08119049
342.70 0.08229952
342.80 0.08445769
342.90 0.08634751
343.00 0.08721042
343.10 0.08719053
343.20 0.08704182
343.30 0.08741059
343.40 0.08828323
343.50 0.0891174
343.60 0.08942036
343.70 0.08905341
343.80 0.08811562
343.90 0.08684589
344.00 0.08568627
344.10 0.08514975
344.20 0.08536494
344.30 0.08584515
344.40 0.08590789
344.50 0.08531864
344.60 0.08447216
344.70 0.08403708
344.80 0.08452608
344.90 0.08612448
345.00 0.08874809
345.10 0.0921162
345.20 0.09576331
345.30 0.0990339
345.40 0.1011864
345.50 0.101759
345.60 0.1009691
345.70 0.09967982
345.80 0.09880986
345.90 0.09868936
346.00 0.09890891
346.10 0.09866733
346.20 0.09732227
346.30 0.09488641
346.40 0.09218817
346.50 0.09038596
346.60 0.0900422
346.70 0.09063043
346.80 0.09102253
346.90 0.09040415
347.00 0.08869032
347.10 0.08636927
347.20 0.08425606
347.30 0.08326198
347.40 0.08396574
347.50 0.08615197
347.60 0.08891192
347.70 0.0913476
347.80 0.09318201
347.90 0.09474463
348.00 0.09649097
348.10 0.09851921
348.20 0.1004142
348.30 0.1015309
348.40 0.1015248
348.50 0.1006559
348.60 0.09951808
348.70 0.09849053
348.80 0.0975541
348.90 0.0965643
349.00 0.09551062
349.10 0.09448691
349.20 0.09357959
349.30 0.09292038
349.40 0.0927528
349.50 0.09323116
349.60 0.09410983
349.70 0.09477944
349.80 0.09480181
349.90 0.09451914
350.00 0.09501668
350.10 0.09727332
350.20 0.1012368
350.30 0.1057243
350.40 0.1092479
350.50 0.1109729
350.60 0.1109996
350.70 0.1099507
350.80 0.1084556
350.90 0.1068556
351.00 0.1050692
351.10 0.1026233
351.20 0.09900261
351.30 0.09426923
351.40 0.08940478
351.50 0.08582564
351.60 0.08436177
351.70 0.0846601
351.80 0.08558672
351.90 0.08617122
352.00 0.08614742
352.10 0.08571768
352.20 0.08510827
352.30 0.08450757
352.40 0.08433342
352.50 0.08536791
352.60 0.08832989
352.70 0.09313754
352.80 0.0986223
352.90 0.10319
353.00 0.106011
353.10 0.1075631
353.20 0.1089259
353.30 0.1106899
353.40 0.1127002
353.50 0.1146557
353.60 0.1166122
353.70 0.1187995
353.80 0.1212264
353.90 0.1236636
354.00 0.1258068
354.10 0.1272496
354.20 0.1274886
354.30 0.1263138
354.40 0.1242472
354.50 0.1223648
354.60 0.1214819
354.70 0.1215413
354.80 0.1218461
354.90 0.1217821
355.00 0.1212362
355.10 0.1204576
355.20 0.1197123
355.30 0.1191266
355.40 0.1187658
355.50 0.118663
355.60 0.1186835
355.70 0.1184346
355.80 0.1174525
355.90 0.1155924
356.00 0.1132043
356.10 0.1108491
356.20 0.108813
356.30 0.1068715
356.40 0.1045194
356.50 0.1015008
356.60 0.09819701
356.70 0.09548647
356.80 0.09412555
356.90 0.09418726
357.00 0.09506644
357.10 0.09595548
357.20 0.09627363
357.30 0.09578433
357.40 0.09451428
357.50 0.09266883
357.60 0.09057266
357.70 0.0885545
357.80 0.0868089
357.90 0.08535182
358.00 0.08414817
358.10 0.08332925
358.20 0.08325212
358.30 0.08426451
358.40 0.08636316
358.50 0.08906673
358.60 0.09160566
358.70 0.09325667
358.80 0.09364802
358.90 0.0929429
359.00 0.09185442
359.10 0.09138013
359.20 0.09225243
359.30 0.09442575
359.40 0.09701873
359.50 0.09886867
359.60 0.09932474
359.70 0.0986579
359.80 0.09776742
359.90 0.09742793
360.00 0.09767686
360.10 0.09781508
360.20 0.09699516
360.30 0.09488877
360.40 0.09194382
360.50 0.08914937
360.60 0.08756812
360.70 0.08790915
360.80 0.09020537
360.90 0.09373848
361.00 0.09739624
361.10 0.1003147
361.20 0.1022967
361.30 0.1036293
361.40 0.1045518
361.50 0.1050156
361.60 0.1050007
361.70 0.1048596
361.80 0.105123
361.90 0.105953
362.00 0.106941
362.10 0.1075316
362.20 0.1075315
362.30 0.1071633
362.40 0.1067982
362.50 0.1067462
362.60 0.1071116
362.70 0.1076144
362.80 0.1076383
362.90 0.1067181
363.00 0.1050736
363.10 0.1035443
363.20 0.102906
363.30 0.1032884
363.40 0.1042347
363.50 0.1051828
363.60 0.1058313
363.70 0.106167
363.80 0.1062708
363.90 0.1061282
364.00 0.1055789
364.10 0.1044295
364.20 0.102644
364.30 0.1004512
364.40 0.09829626
364.50 0.09669069
364.60 0.09600907
364.70 0.09627227
364.80 0.09710197
364.90 0.09800381
365.00 0.09882258
365.10 0.09991021
365.20 0.1017127
365.30 0.1041371
365.40 0.1063938
365.50 0.1075542
365.60 0.1073253
365.70 0.1062752
365.80 0.105283
365.90 0.1048195
366.00 0.1047695
366.10 0.1048421
366.20 0.1050152
366.30 0.1054975
366.40 0.1063539
366.50 0.1072967
366.60 0.1078398
366.70 0.1076163
366.80 0.1065703
366.90 0.1049284
367.00 0.1030774
367.10 0.1014567
367.20 0.1004656
367.30 0.1003593
367.40 0.1011354
367.50 0.1025101
367.60 0.1040581
367.70 0.105436
367.80 0.1065293
367.90 0.1074252
368.00 0.1082619
368.10 0.1090779
368.20 0.1097588
368.30 0.1100954
368.40 0.1099185
368.50 0.109254
368.60 0.1083875
368.70 0.1077434
368.80 0.1076207
368.90 0.1080066
369.00 0.1086637
369.10 0.1094105
369.20 0.1102482
369.30 0.1111794
369.40 0.111978
369.50 0.1122446
369.60 0.1117526
369.70 0.1107194
369.80 0.1097308
369.90 0.1094044
370.00 0.1100669
370.10 0.1116261
370.20 0.113677
370.30 0.1157232
370.40 0.1173486
370.50 0.1182865
370.60 0.1184483
370.70 0.1180006
370.80 0.117378
370.90 0.1170922
371.00 0.1174021
371.10 0.118102
371.20 0.1185979
371.30 0.118214
371.40 0.1165661
371.50 0.1138107
371.60 0.1106225
371.70 0.1078752
371.80 0.1062386
371.90 0.1059632
372.00 0.1069028
372.10 0.1085568
372.20 0.1100237
372.30 0.1101511
372.40 0.1080668
372.50 0.103857
372.60 0.09877739
372.70 0.09468251
372.80 0.09307033
372.90 0.09442202
373.00 0.09817284
373.10 0.1031304
373.20 0.1079777
373.30 0.1116329
373.40 0.1134635
373.50 0.1133229
373.60 0.1114144
373.70 0.1081039
373.80 0.1038421
373.90 0.0992199
374.00 0.09498868
374.10 0.0919292
374.20 0.09064574
374.30 0.09145962
374.40 0.09444225
374.50 0.09944075
374.60 0.1060029
374.70 0.1132683
374.80 0.1200132
374.90 0.124969
375.00 0.1272712
375.10 0.1267468
375.20 0.1238807
375.30 0.1195633
375.40 0.1148154
375.50 0.1105738
375.60 0.1074645
375.70 0.1056247
375.80 0.104716
375.90 0.1041728
376.00 0.1035716
376.10 0.1029204
376.20 0.1027227
376.30 0.1037632
376.40 0.1067246
376.50 0.1119002
376.60 0.1191937
376.70 0.1282122
376.80 0.1381951
376.90 0.1478189
377.00 0.1552962
377.10 0.1590051
377.20 0.1582538
377.30 0.1535575
377.40 0.1462563
377.50 0.1378689
377.60 0.1296501
377.70 0.122478
377.80 0.1168325
377.90 0.1127744
378.00 0.1100171
378.10 0.1081451
378.20 0.1068457
378.30 0.1059602
378.40 0.1053797
378.50 0.1050071
378.60 0.1048481
378.70 0.1050636
378.80 0.1058942
378.90 0.1076124
379.00 0.1106241
379.10 0.1155337
379.20 0.1229032
379.30 0.1327918
379.40 0.1444666
379.50 0.1565122
379.60 0.1671684
379.70 0.174685
379.80 0.1777238
379.90 0.1757853
380.00 0.1694756
380.10 0.1603289
380.20 0.1502108
380.30 0.1406633
380.40 0.1325753
380.50 0.1262229
380.60 0.1214722
380.70 0.1179473
380.80 0.1151489
380.90 0.1126619
381.00 0.1103568
381.10 0.1083774
381.20 0.1068841
381.30 0.1058136
381.40 0.1049529
381.50 0.1042555
381.60 0.1035697
381.70 0.1026559
381.80 0.1010616
381.90 0.09780967
382.00 0.09165869
382.10 0.07378352
382.20 0.01690953
382.30 0
382.40 0
382.50 0
382.60 0
382.70 0
382.80 0
382.90 0.009804427
383.00 0.1433478
383.10 0.3883809
383.20 0.5315997
383.30 0.5673948
383.40 0.5031939
383.50 0.3814129
383.60 0.2799221
383.70 0.2636997
383.80 0.3211613
383.90 0.3756236
384.00 0.3743695
384.10 0.3238502
384.20 0.2452891
384.30 0.1363932
384.40 0.02434931
384.50 0.03692245
384.60 0.1506362
384.70 0.469844
384.80 0.8089472
384.90 0.9917705
385.00 0.9115655
385.10 0.6108468
385.20 0.2791269
385.30 0.1388076
385.40 0.2674409
385.50 0.5346666
385.60 0.7367358
385.70 0.7623138
385.80 0.6246353
385.90 0.3992562
386.00 0.1776786
386.10 0.03882418
386.20 0.01516765
386.30 0.0696309
386.40 0.1403659
386.50 0.2030678
386.60 0.2675731
386.70 0.3406433
386.80 0.4067022
386.90 0.4597301
387.00 0.5141807
387.10 0.5736704
387.20 0.6223474
387.30 0.6510157
387.40 0.6771304
387.50 0.7064354
387.60 0.7009415
387.70 0.6274368
387.80 0.5387937
387.90 0.5314387
388.00 0.6149139
388.10 0.679914
388.20 0.6185325
388.30 0.4510055
388.40 0.2761395
388.50 0.1674
388.60 0.149502
388.70 0.2313663
388.80 0.4004832
388.90 0.5923602
389.00 0.720175
389.10 0.737824
389.20 0.6559244
389.30 0.5015489
389.40 0.2998419
389.50 0.1163356
389.60 0.08534516
389.70 0.05384009
389.80 0.1401841
389.90 0.1443039
390.00 0.01915283
390.10 0.0197443
390.20 0.0302927
390.30 0.07825239
390.40 0.2123702
390.50 0.2078905
390.60 0.1306624
390.70 0.1279033
390.80 0.2514595
390.90 0.4014955
391.00 0.4357003
391.10 0.2847538
391.20 0
391.30 0
391.40 0
391.50 0
391.60 0.01419668
391.70 0.03500253
391.80 0.06461825
391.90 0.1042157
392.00 0.1325502
392.10 0.1505705
392.20 0.1529
392.30 0.2109756
392.40 0.1778112
392.50 0.07832724
392.60 0.0621916
392.70 0.05583852
392.80 0.05512011
392.90 0.06923215
393.00 0.3048654
393.10 0.8170982
393.20 1.402859
393.30 1.922109
393.40 2.123543
393.50 1.842235
393.60 1.215169
393.70 0.597745
393.80 0.2617846
393.90 0.2019056
394.00 0.2255335
394.10 0.1665919
394.20 0.01675291
394.30 0
394.40 0.00166947
394.50 0.02875646
394.60 0.06550395
394.70 0.1341786
394.80 0.1049589
394.90 0.1103891
395.00 0.1124684
395.10 0.1134375
395.20 0.1113749
395.30 0.1079429
395.40 0.1120822
395.50 0.2944924
395.60 0.6105906
395.70 0.7220793
395.80 0.5714965
395.90 0.285504
396.00 0.0963583
396.10 0.04446375
396.20 0.003208057
396.30 0
396.40 0
396.50 0.1163765
396.60 0.4418823
396.70 0.9169615
396.80 1.436497
396.90 1.821863
397.00 1.943334
397.10 1.790546
397.20 1.443309
397.30 0.9875129
397.40 0.5442919
397.50 0.2355912
397.60 0.1312616
397.70 0.2044559
397.80 0.3444984
397.90 0.4495326
398.00 0.5034083
398.10 0.5549945
398.20 0.6300097
398.30 0.6871361
398.40 0.662001
398.50 0.5337108
398.60 0.3489105
398.70 0.1720067
398.80 0.1548304
398.90 0.1424366
399.00 0.1280206
399.10 0.1170921
399.20 0.1102556
399.30 0.1034018
399.40 0.09244371
399.50 0.07893309
399.60 0.09970579
399.70 0.1371453
399.80 0.1365894
399.90 0.1216537
400.00 0.1211613
400.10 0.1447177
400.20 0.1693186
400.30 0.156909
400.40 0.09613381
400.50 0.0342895
400.60 0.03411756
400.70 0.032587
400.80 0.04427588
400.90 0.132917
401.00 0.2104782
401.10 0.2276734
401.20 0.1543589
401.30 0.1131672
401.40 0.1146228
401.50 0.1087673
401.60 0.09648723
401.70 0.1895059
401.80 0.2717116
401.90 0.304187
402.00 0.3048073
402.10 0.315819
402.20 0.3702201
402.30 0.4513222
402.40 0.4964487
402.50 0.463095
402.60 0.3745224
402.70 0.2770046
402.80 0.1850758
402.90 0.09686693
403.00 0.03290817
403.10 0.02968176
403.20 0.08512848
403.30 0.1453583
403.40 0.1546303
403.50 0.1012287
403.60 0.02034261
403.70 0
403.80 0
403.90 0
404.00 0.009021636
404.10 0.02507666
404.20 0.0755859
404.30 0.175196
404.40 0.3085646
404.50 0.4373767
404.60 0.5104216
404.70 0.4788783
404.80 0.3417522
404.90 0.1759857
405.00 0.07889274
405.10 0.07957123
405.20 0.1272922
405.30 0.1678723
405.40 0.2035529
405.50 0.2575969
405.60 0.3056115
405.70 0.2941642
405.80 0.2309384
405.90 0.1797453
406.00 0.1989391
406.10 0.2752426
406.20 0.3479698
406.30 0.3843435
406.40 0.4031793
406.50 0.4191164
406.60 0.4347663
406.70 0.4420415
406.80 0.4265355
406.90 0.3744536
407.00 0.2726402
407.10 0.1351358
407.20 0.06988952
407.30 0.0622686
407.40 0.05234098
407.50 0.1179923
407.60 0.1777132
407.70 0.2087085
407.80 0.2312885
407.90 0.247751
408.00 0.2450506
408.10 0.2212517
408.20 0.1886013
408.30 0.1643041
408.40 0.1538493
408.50 0.1613909
408.60 0.1885114
408.70 0.2175703
408.80 0.2114741
408.90 0.1479813
409.00 0.06557276
409.10 0.04387205
409.20 0.1114581
409.30 0.2127689
409.40 0.2437027
409.50 0.1830248
409.60 0.1234978
409.70 0.1782477
409.80 0.3737164
409.90 0.6489948
410.00 0.9183786
410.10 1.106473
410.20 1.15061
410.30 1.019459
410.40 0.7465072
410.50 0.4250935
410.60 0.1565447
410.70 0.1219362
410.80 0.1083327
410.90 0.09720057
411.00 0.08749428
411.10 0.0821012
411.20 0.07883
411.30 0.07294949
411.40 0.06565568
411.50 0.06429808
411.60 0.2463721
411.70 0.5637136
411.80 0.7806433
411.90 0.8436855
412.00 0.7818041
412.10 0.665529
412.20 0.5496993
412.30 0.4645208
412.40 0.4021791
412.50 0.3437796
412.60 0.2811836
412.70 0.2176999
412.80 0.1589819
412.90 0.1082054
413.00 0.07021183
413.10 0.05207058
413.20 0.05141494
413.30 0.06035239
413.40 0.07534529
413.50 0.0955898
413.60 0.1194813
413.70 0.1459685
413.80 0.1711953
413.90 0.176437
414.00 0.1324886
414.10 0.02293834
414.20 0.02015644
414.30 0.02643807
414.40 0.03516481
414.50 0.04845596
414.60 0.06981854
414.70 0.09156299
414.80 0.2031907
414.90 0.2737874
415.00 0.1902891
415.10 0.09009222
415.20 0.07250938
415.30 0.05737322
415.40 0.04869522
415.50 0.0521959
415.60 0.0700161
415.70 0.09649888
415.80 0.1152611
415.90 0.1204143
416.00 0.160255
416.10 0.2232994
416.20 0.2774518
416.30 0.2800861
416.40 0.1991731
416.50 0.05537642
416.60 0.03980752
416.70 0.05309163
416.80 0.0727209
416.90 0.08143448
417.00 0.1164301
417.10 0.2316393
417.20 0.260082
417.30 0.242531
417.40 0.2414448
417.50 0.2610792
417.60 0.252602
417.70 0.1855501
417.80 0.08999613
417.90 0.1023018
418.00 0.1067287
418.10 0.1073781
418.20 0.1037383
418.30 0.08581234
418.40 0.06046882
418.50 0.06835515
418.60 0.2578933
418.70 0.4723359
418.80 0.6705582
418.90 0.8246291
419.00 0.9309977
419.10 0.9849881
419.20 0.9670481
419.30 0.8671095
419.40 0.7100384
419.50 0.5370317
419.60 0.3810743
419.70 0.2668174
419.80 0.2072138
419.90 0.2029754
420.00 0.2176513
420.10 0.1980161
420.20 0.1213373
420.30 0.07321945
420.40 0.07952543
420.50 0.08942789
420.60 0.09996436
420.70 0.1129948
420.80 0.1925147
420.90 0.2369126
421.00 0.2235023
421.10 0.1901805
421.20 0.1996259
421.30 0.2805963
421.40 0.3948392
421.50 0.4986183
421.60 0.5542909
421.70 0.5590506
421.80 0.528379
421.90 0.4763783
422.00 0.4151837
422.10 0.3655768
422.20 0.3475156
422.30 0.3471124
422.40 0.3085657
422.50 0.1882692
422.60 0.028361
422.70 0.01846094
422.80 0.0185365
422.90 0.02224676
423.00 0.02214509
423.10 0.01587443
423.20 0.005060378
423.30 0
423.40 0
423.50 0.04859002
423.60 0.2251509
423.70 0.3525422
423.80 0.4090936
423.90 0.3994298
424.00 0.3381562
424.10 0.2450977
424.20 0.1417746
424.30 0.04346253
424.40 0.007489884
424.50 0.01249401
424.60 0.01458852
424.70 0.01168343
424.80 0.09153556
424.90 0.2082632
425.00 0.3139061
425.10 0.3764218
425.20 0.3725281
425.30 0.3112288
425.40 0.2293582
425.50 0.173104
425.60 0.1725802
425.70 0.2236052
425.80 0.2902963
425.90 0.3255219
426.00 0.305277
426.10 0.2489918
426.20 0.1951486
426.30 0.1668277
426.40 0.1754283
426.50 0.2223662
426.60 0.2776605
426.70 0.2729833
426.80 0.1578484
426.90 0.03391822
427.00 0.04298173
427.10 0.05015775
427.20 0.05423766
427.30 0.05654763
427.40 0.05834118
427.50 0.0555934
427.60 0.04699385
427.70 0.03541656
427.80 0.0551568
427.90 0.05345027
428.00 0.02980956
428.10 0.02816693
428.20 0.0518253
428.30 0.07880373
428.40 0.0863869
428.50 0.07358472
428.60 0.04250796
428.70 0.007402403
428.80 0
428.90 0
429.00 0.00141048
429.10 0.09279336
429.20 0.1876243
429.30 0.2419796
429.40 0.2767461
429.50 0.309991
429.60 0.3425072
429.70 0.3528161
429.80 0.3205223
429.90 0.2664113
430.00 0.249483
430.10 0.3005687
430.20 0.3781538
430.30 0.4148405
430.40 0.3971328
430.50 0.375398
430.60 0.3864225
430.70 0.4031984
430.80 0.3799314
430.90 0.3110967
431.00 0.2263607
431.10 0.1524773
431.20 0.0967562
431.30 0.05552246
431.40 0.01778003
431.50 0
431.60 0
431.70 0
431.80 0
431.90 0
432.00 0
432.10 0.07014456
432.20 0.184826
432.30 0.299507
432.40 0.3820111
432.50 0.3993016
432.60 0.3392504
432.70 0.234987
432.80 0.1545716
432.90 0.1390924
433.00 0.155433
433.10 0.1322496
433.20 0.09968848
433.30 0.1018881
433.40 0.09953598
433.50 0.09546961
433.60 0.09552256
433.70 0.1311252
433.80 0.3836048
433.90 0.7484011
434.00 1.153631
434.10 1.445313
434.20 1.483871
434.30 1.262243
434.40 0.9190377
434.50 0.6272357
434.60 0.472368
434.70 0.4274725
434.80 0.4156345
434.90 0.3799555
435.00 0.3095575
435.10 0.2280097
435.20 0.1679468
435.30 0.1468255
435.40 0.1606288
435.50 0.2027648
435.60 0.2922398
435.70 0.4283073
435.80 0.5542511
435.90 0.5691692
436.00 0.4232599
436.10 0.1910287
436.20 0.09302523
436.30 0.06815765
436.40 0.1282041
436.50 0.2293583
436.60 0.261594
436.70 0.2644154
436.80 0.3077149
436.90 0.4047669
437.00 0.4983059
437.10 0.5237196
437.20 0.4652899
437.30 0.3572797
437.40 0.2484642
437.50 0.1706273
437.60 0.1319256
437.70 0.1280127
437.80 0.1589229
437.90 0.2118971
438.00 0.2604912
438.10 0.2658138
438.20 0.2155909
438.30 0.1341102
438.40 0.08333654
438.50 0.0754569
438.60 0.07068964
438.70 0.08302518
438.80 0.1512464
438.90 0.2520687
439.00 0.3389305
439.10 0.3544111
439.20 0.2937176
439.30 0.2089266
439.40 0.1476843
439.50 0.1220569
439.60 0.1150044
439.70 0.105832
439.80 0.1002728
439.90 0.173925
440.00 0.2658265
440.10 0.288309
440.20 0.2191311
440.30 0.1015575
440.40 0.08396419
440.50 0.07592637
440.60 0.06631499
440.70 0.06449584
440.80 0.07376857
440.90 0.2144061
441.00 0.3826312
441.10 0.5114513
441.20 0.5614145
441.30 0.5398277
441.40 0.4978435
441.50 0.4862596
441.60 0.517289
441.70 0.5617569
441.80 0.574323
441.90 0.5282086
442.00 0.4376148
442.10 0.3500518
442.20 0.3116075
442.30 0.3320157
442.40 0.3753782
442.50 0.3899014
442.60 0.3530352
442.70 0.2911038
442.80 0.2577621
442.90 0.286337
443.00 0.3568758
443.10 0.4110348
443.20 0.4003324
443.30 0.3220946
443.40 0.2144075
443.50 0.1462968
443.60 0.1372045
443.70 0.138944
443.80 0.2513771
443.90 0.370026
444.00 0.4410535
444.10 0.4571577
444.20 0.454138
444.30 0.4634107
444.40 0.4791203
444.50 0.4657819
444.60 0.4098488
444.70 0.3414921
444.80 0.3028732
444.90 0.3207283
445.00 0.3909243
445.10 0.4957096
445.20 0.6193012
445.30 0.7306337
445.40 0.7743985
445.50 0.7112104
445.60 0.5603246
445.70 0.4222157
445.80 0.3555494
445.90 0.3437546
446.00 0.3410196
446.10 0.3418072
446.20 0.3811194
446.30 0.4783144
446.40 0.6031945
446.50 0.6955701
446.60 0.7060638
446.70 0.6313554
446.80 0.5248289
446.90 0.4612925
447.00 0.4733909
447.10 0.5238549
447.20 0.5510591
447.30 0.534445
447.40 0.4983997
447.50 0.467039
447.60 0.4358715
447.70 0.3798951
447.80 0.2851089
447.90 0.1723387
448.00 0.1672772
448.10 0.1651306
448.20 0.1933095
448.30 0.3250742
448.40 0.4302702
448.50 0.4852036
448.60 0.5145496
448.70 0.5508956
448.80 0.5949876
448.90 0.6260394
449.00 0.6412167
449.10 0.6638921
449.20 0.7114299
449.30 0.7647912
449.40 0.7803079
449.50 0.7347334
449.60 0.6508154
449.70 0.5744075
449.80 0.5361
449.90 0.5332592
450.00 0.5438739
450.10 0.5510296
450.20 0.547518
450.30 0.5341344
450.40 0.5200467
450.50 0.513923
450.60 0.5119342
450.70 0.5025497
450.80 0.482085
450.90 0.4637924
451.00 0.4669551
451.10 0.4957868
451.20 0.5372726
451.30 0.5715375
451.40 0.5839236
451.50 0.5682039
451.60 0.5231414
451.70 0.4565002
451.80 0.3938149
451.90 0.3707043
452.00 0.402853
452.10 0.4701432
452.20 0.5373885
452.30 0.5904511
452.40 0.6441432
452.50 0.7154457
452.60 0.7959679
452.70 0.8522829
452.80 0.849135
452.90 0.7830768
453.00 0.6977017
453.10 0.6512006
453.20 0.6667069
453.30 0.7145727
453.40 0.7422255
453.50 0.7182728
453.60 0.6507023
453.70 0.574385
453.80 0.5305697
453.90 0.5389695
454.00 0.5811142
454.10 0.6185438
454.20 0.6237092
454.30 0.6003737
454.40 0.5762556
454.50 0.56888
454.60 0.5608095
454.70 0.5170856
454.80 0.424558
454.90 0.3126052
455.00 0.2351539
455.10 0.24018
455.20 0.3542264
455.30 0.5567869
455.40 0.763954
455.50 0.8763269
455.60 0.8613237
455.70 0.773383
455.80 0.6856523
455.90 0.6243394
456.00 0.581257
456.10 0.5580648
456.20 0.5696164
456.30 0.6181854
456.40 0.6860411
456.50 0.7538051
456.60 0.8116545
456.70 0.8569849
456.80 0.8889604
456.90 0.906059
457.00 0.9109508
457.10 0.9111272
457.20 0.9159674
457.30 0.936153
457.40 0.9761381
457.50 1.01533
457.60 1.00756
457.70 0.9170967
457.80 0.7655207
457.90 0.6288295
458.00 0.5711031
458.10 0.6001798
458.20 0.6802591
458.30 0.7597265
458.40 0.7897413
458.50 0.741064
458.60 0.626908
458.70 0.501521
458.80 0.4206006
458.90 0.4037369
459.00 0.4287414
459.10 0.4493347
459.20 0.4330399
459.30 0.3954627
459.40 0.3861507
459.50 0.4343055
459.60 0.5139557
459.70 0.5772596
459.80 0.6096371
459.90 0.6300819
460.00 0.6495492
460.10 0.6540519
460.20 0.6291095
460.30 0.5787604
460.40 0.5143186
460.50 0.4423366
460.60 0.3733198
460.70 0.3261624
460.80 0.3201401
460.90 0.3713605
461.00 0.4893034
461.10 0.6573796
461.20 0.8146232
461.30 0.8903459
461.40 0.8738338
461.50 0.8250267
461.60 0.8033906
461.70 0.806087
461.80 0.7953623
461.90 0.7638116
462.00 0.7446558
462.10 0.7651803
462.20 0.8179145
462.30 0.8808956
462.40 0.9377921
462.50 0.9691107
462.60 0.9440561
462.70 0.843455
462.80 0.6819635
462.90 0.5060148
463.00 0.3758395
463.10 0.3385666
463.20 0.399356
463.30 0.509545
463.40 0.6010184
463.50 0.6431187
463.60 0.6574705
463.70 0.6712269
463.80 0.6774382
463.90 0.6532124
464.00 0.5986914
464.10 0.5455723
464.20 0.5276746
464.30 0.5502563
464.40 0.5913137
464.50 0.6273782
464.60 0.6556674
464.70 0.6937178
464.80 0.7544462
464.90 0.8201777
465.00 0.8516936
465.10 0.8271305
465.20 0.7640172
465.30 0.6997656
465.40 0.6604342
465.50 0.6536602
465.60 0.6833062
465.70 0.7551476
465.80 0.8611904
465.90 0.972526
466.00 1.04978
466.10 1.062907
466.20 1.015217
466.30 0.9489808
466.40 0.9159114
466.50 0.9366648
466.60 0.9868032
466.70 1.020227
466.80 0.9984077
466.90 0.9010024
467.00 0.7398786
467.10 0.5732792
467.20 0.4814771
467.30 0.5033201
467.40 0.6013449
467.50 0.6986993
467.60 0.7431506
467.70 0.7289145
467.80 0.678637
467.90 0.6231302
468.00 0.5896754
468.10 0.5906956
468.20 0.6170632
468.30 0.6533205
468.40 0.6929963
468.50 0.7354872
468.60 0.7743842
468.70 0.7958451
468.80 0.7930251
468.90 0.7724485
469.00 0.7411301
469.10 0.6956168
469.20 0.6371137
469.30 0.5945505
469.40 0.6005199
469.50 0.6420552
469.60 0.6655151
469.70 0.6454128
469.80 0.6192455
469.90 0.6284814
470.00 0.6535413
470.10 0.6437939
470.20 0.5986448
470.30 0.5715976
470.40 0.6000183
470.50 0.6565963
470.60 0.6816113
470.70 0.6519068
470.80 0.5997411
470.90 0.5784172
471.00 0.6177881
471.10 0.7061677
471.20 0.8015151
471.30 0.8578027
471.40 0.8557585
471.50 0.8209767
471.60 0.8057208
471.70 0.8360506
471.80 0.8818473
471.90 0.8860495
472.00 0.8243712
472.10 0.731929
472.20 0.6755382
472.30 0.7032549
472.40 0.80593
472.50 0.9235282
472.60 0.9954652
472.70 1.012536
472.80 1.014394
472.90 1.032648
473.00 1.050175
473.10 1.028749
473.20 0.9604031
473.30 0.8731775
473.40 0.7954697
473.50 0.7313467
473.60 0.675798
473.70 0.6411843
473.80 0.6546131
473.90 0.7273491
474.00 0.8299177
474.10 0.9050978
474.20 0.9120223
474.30 0.8607729
474.40 0.8015374
474.50 0.7782942
474.60 0.7947063
474.70 0.8215842
474.80 0.8296222
474.90 0.8138253
475.00 0.7935172
475.10 0.7939494
475.20 0.8329961
475.30 0.9118451
475.40 1.005608
475.50 1.066469
475.60 1.048174
475.70 0.941168
475.80 0.786404
475.90 0.6461565
476.00 0.5514661
476.10 0.4805004
476.20 0.3929025
476.30 0.282998
476.40 0.2373965
476.50 0.2245781
476.60 0.2152479
476.70 0.2651362
476.80 0.3317875
476.90 0.3665153
477.00 0.3675703
477.10 0.3662361
477.20 0.4019112
477.30 0.4828517
477.40 0.5774432
477.50 0.6467042
477.60 0.6730181
477.70 0.6560586
477.80 0.5968419
477.90 0.5043741
478.00 0.4113356
478.10 0.3599337
478.20 0.3648967
478.30 0.3966927
478.40 0.4131328
478.50 0.409702
478.60 0.4228991
478.70 0.4756403
478.80 0.53817
478.90 0.5542754
479.00 0.506345
479.10 0.4428316
479.20 0.4318531
479.30 0.497381
479.40 0.6048089
479.50 0.6974262
479.60 0.7410871
479.70 0.741457
479.80 0.7297564
479.90 0.733362
480.00 0.7521859
480.10 0.7629727
480.20 0.7449481
480.30 0.6934845
480.40 0.6131619
480.50 0.5149491
480.60 0.4238467
480.70 0.3785311
480.80 0.4062657
480.90 0.4976305
481.00 0.6119557
481.10 0.7046734
481.20 0.7557401
481.30 0.7765548
481.40 0.7867437
481.50 0.7826834
481.60 0.7392926
481.70 0.6461587
481.80 0.5349986
481.90 0.4616937
482.00 0.4554739
482.10 0.4973174
482.20 0.5471114
482.30 0.5800241
482.40 0.5959293
482.50 0.6074408
482.60 0.631651
482.70 0.6793836
482.80 0.7371599
482.90 0.7659281
483.00 0.7392718
483.10 0.6752581
483.20 0.6127584
483.30 0.5698971
483.40 0.5448452
483.50 0.5480652
483.60 0.5992824
483.70 0.6927679
483.80 0.7924176
483.90 0.8670889
484.00 0.912386
484.10 0.9378367
484.20 0.9506704
484.30 0.9524613
484.40 0.9385275
484.50 0.8982521
484.60 0.8290808
484.70 0.756158
484.80 0.7249229
484.90 0.7607315
485.00 0.835446
485.10 0.8841337
485.20 0.8641398
485.30 0.7949429
485.40 0.7297113
485.50 0.6888565
485.60 0.6468053
485.70 0.6058869
485.80 0.6688149
485.90 0.988835
486.00 1.604179
486.10 2.317365
486.20 2.780477
486.30 2.745346
486.40 2.252429
486.50 1.586417
486.60 1.051028
486.70 0.7762968
486.80 0.7023877
486.90 0.6958681
487.00 0.6635076
487.10 0.5906157
487.20 0.5180036
487.30 0.4984631
487.40 0.5580698
487.50 0.6776151
487.60 0.808098
487.70 0.9039634
487.80 0.9444426
487.90 0.9307642
488.00 0.8757382
488.10 0.8022737
488.20 0.7422215
488.30 0.7255909
488.40 0.7635781
488.50 0.8389611
488.60 0.9121626
488.70 0.9448624
488.80 0.9239876
488.90 0.8667582
489.00 0.8079567
489.10 0.7826835
489.20 0.8079926
489.30 0.8648375
489.40 0.9032008
489.50 0.8836901
489.60 0.8200034
489.70 0.7654023
489.80 0.7571059
489.90 0.7925984
490.00 0.8566494
490.10 0.940371
490.20 1.024296
490.30 1.072116
490.40 1.065889
490.50 1.036986
490.60 1.033865
490.70 1.06403
490.80 1.091421
490.90 1.08796
491.00 1.069295
491.10 1.070204
491.20 1.098974
491.30 1.134503
491.40 1.157256
491.50 1.163497
491.60 1.159057
491.70 1.153623
491.80 1.159955
491.90 1.186909
492.00 1.22459
492.10 1.250017
492.20 1.255299
492.30 1.257252
492.40 1.273899
492.50 1.297141
492.60 1.297373
492.70 1.262545
492.80 1.22032
492.90 1.210872
493.00 1.242986
493.10 1.287112
493.20 1.314738
493.30 1.330724
493.40 1.358805
493.50 1.408315
493.60 1.46842
493.70 1.526205
493.80 1.577179
493.90 1.618534
494.00 1.647801
494.10 1.669932
494.20 1.69413
494.30 1.72462
494.40 1.761755
494.50 1.806696
494.60 1.857038
494.70 1.900628
494.80 1.920422
494.90 1.909056
495.00 1.870761
495.10 1.813531
495.20 1.743969
495.30 1.656014
495.40 1.523287
495.50 1.31928
495.60 1.055357
495.70 0.7889709
495.80 0.5781571
495.90 0.43133
496.00 0.3195269
496.10 0.228741
496.20 0.177314
496.30 0.1873073
496.40 0.255658
496.50 0.3556564
496.60 0.4537004
496.70 0.5250781
496.80 0.5712579
496.90 0.6188739
497.00 0.6789491
497.10 0.7135603
497.20 0.6692104
497.30 0.5469682
497.40 0.4181621
497.50 0.3625824
497.60 0.4111568
497.70 0.5478134
497.80 0.7327032
497.90 0.9028142
498.00 0.9801236
498.10 0.9249247
498.20 0.7905933
498.30 0.6971993
498.40 0.7334949
498.50 0.8857877
498.60 1.057446
498.70 1.151367
498.80 1.135708
498.90 1.048541
499.00 0.9536128
499.10 0.8898445
499.20 0.8543065
499.30 0.8269166
499.40 0.8026044
499.50 0.7962821
499.60 0.8148816
499.70 0.8268925
499.80 0.7713097
499.90 0.6112071
500.00 1
500.10 1.056274
500.20 0.6974373
500.30 0.2588247
500.40 0.3814425
500.50 0.7197138
500.60 0.79074
500.70 0.8167734
500.80 0.8119605
500.90 0.8372314
501.00 0.9169305
501.10 1.022815
501.20 0.852119
501.30 0.6762512
501.40 0.9250986
501.50 0.7925284
501.60 0.3566065
501.70 0.4947885
501.80 0.6794463
501.90 0.7968034
502.00 1.199238
502.10 0.6455203
502.20 0.7223858
502.30 0.6846027
502.40 0.5533834
502.50 0.6582239
502.60 0.9517081
502.70 0.9434434
502.80 0.8764047
502.90 1.007965
503.00 1.276384
503.10 1.33491
503.20 0.9816557
503.30 0.8515892
503.40 0.900587
503.50 0.44532
503.60 0.642892
503.70 1.36668
503.80 1.322658
503.90 1.012061
504.00 1.1695
504.10 0.7777151
504.20 0.6985827
504.30 1.023304
504.40 1.040973
504.50 0.733417
504.60 0.8325431
504.70 1.054583
504.80 0.8651104
504.90 1.102842
505.00 1.266498
505.10 1.053103
505.20 0.9847454
505.30 1.104251
505.40 0.8241296
505.50 0.482157
505.60 0.9338811
505.70 1.246982
505.80 1.06941
505.90 0.8936699
506.00 1.073434
506.10 1.060799
506.20 0.8493037
506.30 1.262784
506.40 1.202981
506.50 0.9347482
506.60 0.9064653
506.70 0.8928391
506.80 1.026119
506.90 1.201055
507.00 1.504449
507.10 1.499711
507.20 1.211218
507.30 1.073893
507.40 1.345228
507.50 1.64937
507.60 1.656858
507.70 1.599524
507.80 1.534644
507.90 1.707699
508.00 1.599589
508.10 1.365073
508.20 1.302049
508.30 1.303586
508.40 1.055864
508.50 0.7967252
508.60 0.9530451
508.70 1.446489
508.80 1.546634
508.90 1.281969
509.00 1.290335
509.10 1.139578
509.20 1.10852
509.30 1.37063
509.40 1.41972
509.50 1.268235
509.60 1.541159
509.70 1.878263
509.80 1.641972
509.90 1.571961
510.00 1.130251
510.10 0.6784707
510.20 0.8000125
510.30 0.9349123
510.40 0.8848666
510.50 1.169805
510.60 1.110748
510.70 0.7227113
510.80 0.9784683
510.90 1.490513
511.00 1.631311
511.10 1.40381
511.20 1.501676
511.30 1.76296
511.40 1.40709
511.50 1.271215
511.60 1.733555
511.70 1.994835
511.80 1.369652
511.90 1.302044
512.00 1.478767
512.10 1.533508
512.20 1.533019
512.30 1.738289
512.40 1.681233
512.50 1.509556
512.60 1.193572
512.70 1.283637
512.80 1.340588
512.90 0.886562
513.00 1.03069
513.10 1.509515
513.20 1.393046
513.30 1.547367
513.40 1.773709
513.50 1.493102
513.60 1.550781
513.70 1.414227
513.80 1.397731
513.90 1.50884
514.00 1.556561
514.10 1.026229
514.20 1.00195
514.30 1.357747
514.40 1.476818
514.50 1.67761
514.60 1.48938
514.70 1.238892
514.80 1.129938
514.90 1.160992
515.00 0.9088969
515.10 0.9663935
515.20 1.312606
515.30 1.503789
515.40 1.397102
515.50 1.232048
515.60 1.053433
515.70 1.500046
515.80 1.84948
515.90 1.992959
516.00 1.725556
516.10 1.611268
516.20 1.928632
516.30 1.994974
516.40 2.118525
516.50 1.998797
516.60 1.651729
516.70 1.258305
516.80 0.9909672
516.90 0.388754
517.00 0.2862717
517.10 0.2255529
517.20 0.3093005
517.30 0.5438833
517.40 0.5702362
517.50 0.4962025
517.60 0.8061988
517.70 0.7158628
517.80 0.6002684
517.90 0.6568009
518.00 0.6549822
518.10 0.4412171
518.20 0.4197328
518.30 0.2345771
518.40 0.2479388
518.50 0.4996322
518.60 1.005295
518.70 0.9651344
518.80 1.032595
518.90 1.002014
519.00 0.9199701
519.10 0.9852341
519.20 1.049693
519.30 0.7608557
519.40 0.8054059
519.50 0.9589146
519.60 1.1042
519.70 1.095347
519.80 0.8039636
519.90 0.5929691
520.00 0.3600436
520.10 0.3207752
520.20 0.5466074
520.30 1.057692
520.40 1.334971
520.50 1.19226
520.60 0.8291416
520.70 0.8095586
520.80 1.085111
520.90 1.036466
521.00 0.6723958
521.10 0.6344264
521.20 1.058068
521.30 1.319421
521.40 1.451139
521.50 1.215585
521.60 1.159153
521.70 1.380577
521.80 1.437486
521.90 1.457689
522.00 1.700888
522.10 1.500734
522.20 1.232547
522.30 1.047886
522.40 1.130379
522.50 1.718597
522.60 1.971904
522.70 1.992037
522.80 1.652873
522.90 1.156255
523.00 1.339785
523.10 1.670317
523.20 1.828541
523.30 1.618535
523.40 1.538728
523.50 1.480358
523.60 1.672585
523.70 1.53152
523.80 1.625531
523.90 1.816594
524.00 1.740687
524.10 1.383993
524.20 1.552251
524.30 1.400519
524.40 1.168791
524.50 0.9964262
524.60 1.174368
524.70 1.235527
524.80 1.201896
524.90 1.303136
525.00 1.451528
525.10 1.088467
525.20 1.053843
525.30 1.535053
525.40 2.149246
525.50 1.628978
525.60 1.28168
525.70 1.547326
525.80 1.907964
525.90 1.782686
526.00 1.58041
526.10 1.308526
526.20 1.448863
526.30 1.636494
526.40 1.454942
526.50 1.33683
526.60 1.385265
526.70 1.370814
526.80 1.390543
526.90 1.190594
527.00 1.490303
527.10 1.628087
527.20 1.332884
527.30 1.276331
527.40 1.332128
527.50 1.603212
527.60 1.945501
527.70 1.804974
527.80 1.710256
527.90 1.623496
528.00 1.573878
528.10 1.381259
528.20 1.178665
528.30 1.781697
528.40 2.03619
528.50 1.610447
528.60 1.379911
528.70 1.689889
528.80 2.05551
528.90 2.035792
529.00 1.785763
529.10 1.656675
529.20 1.71959
529.30 1.778301
529.40 1.795558
529.50 1.847082
529.60 1.924434
529.70 2.155603
529.80 2.007761
529.90 1.675339
530.00 1.691393
530.10 1.987413
530.20 2.138604
530.30 1.948277
530.40 2.087427
530.50 2.282401
530.60 2.106053
530.70 2.072382
530.80 1.811392
530.90 1.676183
531.00 1.708356
531.10 1.483068
531.20 1.399599
531.30 1.690041
531.40 1.482117
531.50 1.261114
531.60 1.516548
531.70 1.779215
531.80 1.802757
531.90 1.463057
532.00 1.449195
532.10 2.021039
532.20 1.877291
532.30 1.654111
532.40 1.728811
532.50 1.951581
532.60 1.915883
532.70 1.521875
532.80 1.442804
532.90 1.805209
533.00 1.624197
533.10 1.489039
533.20 1.609066
533.30 2.158148
533.40 1.997319
533.50 1.511527
533.60 1.490523
533.70 1.265417
533.80 1.453615
533.90 1.73651
534.00 2.106216
534.10 1.961944
534.20 1.641758
534.30 1.703349
534.40 1.901608
534.50 2.014862
534.60 2.201443
534.70 2.114458
534.80 1.617422
534.90 1.579281
535.00 1.780436
535.10 2.339998
535.20 2.472804
535.30 2.410149
535.40 2.452678
535.50 2.479195
535.60 2.253663
535.70 2.223903
535.80 2.017837
535.90 1.900931
536.00 1.821194
536.10 2.05267
536.20 1.997909
536.30 1.806962
536.40 1.584583
536.50 1.907706
536.60 1.613649
536.70 1.368433
536.80 1.296666
536.90 1.482773
537.00 1.449662
537.10 1.521866
537.20 1.798656
537.30 1.953362
537.40 1.729368
537.50 1.710608
537.60 1.741159
537.70 1.815065
537.80 2.029561
537.90 2.541782
538.00 2.6349
538.10 2.232048
538.20 2.020356
538.30 2.121594
538.40 2.392785
538.50 2.248459
538.60 2.089899
538.70 1.695988
538.80 1.960024
538.90 1.982944
539.00 2.171767
539.10 2.358076
539.20 2.087079
539.30 1.683129
539.40 2.127328
539.50 2.339507
539.60 2.288835
539.70 2.146334
539.80 2.44092
539.90 2.620185
540.00 2.360911
540.10 2.588528
540.20 2.981092
540.30 2.850608
540.40 2.628218
540.50 2.406255
540.60 2.174202
540.70 2.446406
540.80 2.627085
540.90 1.977896
541.00 1.731342
541.10 1.638651
541.20 2.031669
541.30 2.346666
541.40 2.14779
541.50 2.063953
541.60 2.105992
541.70 2.360908
541.80 2.603011
541.90 2.573339
542.00 2.178004
542.10 2.358681
542.20 2.525169
542.30 2.690393
542.40 2.742675
542.50 2.838385
542.60 2.881597
542.70 2.516272
542.80 2.184759
542.90 2.286344
543.00 2.181432
543.10 2.009278
543.20 2.06144
543.30 1.899714
543.40 1.95839
543.50 2.199924
543.60 2.326127
543.70 2.249761
543.80 2.282746
543.90 2.772984
544.00 2.850623
544.10 2.761986
544.20 3.067756
544.30 3.088241
544.40 2.724489
544.50 2.713444
544.60 2.991885
544.70 3.001667
544.80 2.51676
544.90 2.114799
545.00 1.592123
545.10 0.6574653
545.20 0.4435703
545.30 0.6651327
545.40 0.6981205
545.50 0.8907046
545.60 0.7758933
545.70 0.6175277
545.80 0.870773
545.90 1.109512
546.00 1.222678
546.10 1.650666
546.20 1.801698
546.30 1.73879
546.40 1.644199
546.50 1.221587
546.60 1.117125
546.70 1.169367
546.80 1.528531
546.90 1.655214
547.00 1.508813
547.10 1.125691
547.20 1.05379
547.30 0.8586387
547.40 0.7835759
547.50 1.086191
547.60 1.539593
547.70 1.322296
547.80 1.355868
547.90 1.47763
548.00 1.544952
548.10 1.337343
548.20 1.212788
548.30 1.124748
548.40 1.233279
548.50 1.407825
548.60 1.378559
548.70 1.2955
548.80 1.294875
548.90 1.229911
549.00 1.221236
549.10 1.004361
549.20 1.296766
549.30 1.358934
549.40 1.446605
549.50 1.610128
549.60 1.58363
549.70 1.118391
549.80 1.151125
549.90 1.414716
550.00 1.066715
550.10 0.7438359
550.20 0.6663059
550.30 0.9374496
550.40 0.7707184
550.50 0.6342994
550.60 0.7943062
550.70 0.7600488
550.80 0.6171459
550.90 0.6410849
551.00 0.5838242
551.10 0.5314069
551.20 0.3241084
551.30 0.2628037
551.40 0.3589562
551.50 0.6827215
551.60 0.9150638
551.70 0.9887905
551.80 0.6022313
551.90 0.3256676
552.00 0.5736698
552.10 0.4791787
552.20 0.2232326
552.30 0.3804111
552.40 0.5263269
552.50 0.5712946
552.60 0.9004996
552.70 0.7324632
552.80 0.6196248
552.90 0.582888
553.00 0.2801594
553.10 0.4322419
553.20 0.612935
553.30 0.6631165
553.40 0.5728241
553.50 0.6479219
553.60 0.3649006
553.70 0.4921277
553.80 0.483831
553.90 0.3825991
554.00 0.5883915
554.10 0.5792422
554.20 0.4990076
554.30 0.4449526
554.40 0.6315649
554.50 0.6421792
554.60 0.2851747
554.70 0.2168923
554.80 0.1987849
554.90 0.3964126
555.00 0.5617018
555.10 0.5726622
555.20 0.2895782
555.30 0.5414776
555.40 0.7866993
555.50 0.6161949
555.60 0.5469117
555.70 0.6336495
555.80 0.8000355
555.90 0.5494714
556.00 0.7244475
556.10 1.091699
556.20 0.9095816
556.30 0.7465657
556.40 0.875277
556.50 1.207596
556.60 1.224938
556.70 0.9641059
556.80 0.8104495
556.90 0.8464423
557.00 1.040397
557.10 1.197611
557.20 1.216101
557.30 1.209608
557.40 1.209398
557.50 1.209398
557.60 1.209398
557.70 1.209398
557.80 1.209398
557.90 1.209398
558.00 1.209398
558.10 1.209399
558.20 1.209246
558.30 1.207874
558.40 1.19084
558.50 1.315469
558.60 1.604039
558.70 1.642966
558.80 1.519333
558.90 1.400121
559.00 1.356195
559.10 1.294905
559.20 1.358067
559.30 1.595082
559.40 1.548086
559.50 1.504059
559.60 1.715712
559.70 1.379078
559.80 0.9993202
559.90 0.9368629
560.00 1.081787
560.10 1.007173
560.20 1.300809
560.30 1.461881
560.40 1.539975
560.50 1.478447
560.60 1.371635
560.70 1.067598
560.80 1.078955
560.90 1.22388
561.00 1.540275
561.10 1.812375
561.20 1.451501
561.30 1.131286
561.40 1.316647
561.50 1.523155
561.60 1.388302
561.70 1.522175
561.80 1.375221
561.90 1.061885
562.00 0.9557779
562.10 1.097738
562.20 1.318142
562.30 1.320422
562.40 1.255852
562.50 1.117938
562.60 1.077433
562.70 1.054002
562.80 0.9874315
562.90 1.097172
563.00 1.589399
563.10 1.352927
563.20 0.84692
563.30 0.7331706
563.40 1.221668
563.50 1.560809
563.60 1.438018
563.70 1.039509
563.80 0.7544488
563.90 1.154817
564.00 1.357961
564.10 1.017105
564.20 0.7615919
564.30 0.9704388
564.40 1.302964
564.50 1.169563
564.60 1.172053
564.70 1.080273
564.80 1.348121
564.90 1.524848
565.00 1.473606
565.10 1.290916
565.20 1.518864
565.30 1.87808
565.40 1.781422
565.50 1.609775
565.60 1.390035
565.70 1.573974
565.80 1.573425
565.90 1.736354
566.00 1.801302
566.10 1.522455
566.20 1.404157
566.30 1.539087
566.40 1.761518
566.50 1.447409
566.60 1.390982
566.70 1.55682
566.80 1.680862
566.90 1.43897
567.00 1.389435
567.10 1.398132
567.20 1.465301
567.30 1.622051
567.40 1.434416
567.50 1.378272
567.60 1.315274
567.70 1.572851
567.80 1.573
567.90 1.567193
568.00 1.589186
568.10 1.396891
568.20 1.333506
568.30 1.695785
568.40 2.07613
568.50 1.873098
568.60 1.390252
568.70 1.517756
568.80 1.801663
568.90 2.117275
569.00 2.260895
569.10 1.676621
569.20 1.711174
569.30 1.829341
569.40 1.945708
569.50 1.73657
569.60 1.420029
569.70 1.31483
569.80 1.424303
569.90 1.772831
570.00 2.009128
570.10 2.034208
570.20 1.93014
570.30 1.490921
570.40 1.521098
570.50 1.946425
570.60 2.373428
570.70 2.187534
570.80 2.115073
570.90 2.168297
571.00 2.126961
571.10 2.132211
571.20 2.113575
571.30 2.109048
571.40 1.798596
571.50 1.521622
571.60 1.513174
571.70 1.777572
571.80 2.278972
571.90 2.090996
572.00 1.654005
572.10 1.443076
572.20 1.721751
572.30 1.808692
572.40 1.940427
572.50 2.053267
572.60 2.110896
572.70 2.157319
572.80 1.993138
572.90 1.810407
573.00 1.865126
573.10 1.984426
573.20 1.848819
573.30 2.001893
573.40 2.385651
573.50 2.322888
573.60 2.143772
573.70 1.999213
573.80 2.029316
573.90 1.854964
574.00 1.575202
574.10 1.6388
574.20 1.774147
574.30 1.870215
574.40 2.02883
574.50 2.158281
574.60 2.141652
574.70 1.943646
574.80 2.320353
574.90 1.872663
575.00 1.531986
575.10 1.898848
575.20 2.420174
575.30 2.213305
575.40 1.817318
575.50 2.15949
575.60 2.30872
575.70 2.166208
575.80 2.299781
575.90 2.333178
576.00 2.031546
576.10 1.419729
576.20 1.407415
576.30 1.544771
576.40 1.723923
576.50 1.845931
576.60 1.866923
576.70 1.841936
576.80 1.818002
576.90 1.459856
577.00 1.295614
577.10 1.562986
577.20 1.420233
577.30 1.16504
577.40 1.314364
577.50 1.757459
577.60 2.040398
577.70 1.909543
577.80 1.628205
577.90 1.487408
578.00 1.912342
578.10 2.295698
578.20 2.337879
578.30 1.966095
578.40 1.450618
578.50 1.671771
578.60 2.286423
578.70 2.577475
578.80 2.157108
578.90 2.123484
579.00 2.382652
579.10 2.58162
579.20 2.604781
579.30 2.256031
579.40 2.20355
579.50 2.442917
579.60 2.522719
579.70 2.645624
579.80 2.533119
579.90 2.209324
580.00 2.493078
580.10 2.832208
580.20 2.672979
580.30 2.427085
580.40 2.337096
580.50 2.694158
580.60 2.865456
580.70 2.786442
580.80 2.85544
580.90 2.918602
581.00 2.545342
581.10 2.435195
581.20 2.237654
581.30 1.824117
581.40 1.774233
581.50 1.781845
581.60 1.895948
581.70 1.97805
581.80 2.285934
581.90 2.231714
582.00 1.591503
582.10 1.60856
582.20 1.81153
582.30 1.903092
582.40 1.758417
582.50 1.396358
582.60 1.565467
582.70 1.936431
582.80 2.168627
582.90 1.769872
583.00 1.81825
583.10 2.256907
583.20 2.35945
583.30 2.118621
583.40 2.431269
583.50 2.334848
583.60 1.514877
583.70 1.393676
583.80 1.599441
583.90 1.500883
584.00 1.388147
584.10 1.636425
584.20 2.055445
584.30 2.232428
584.40 2.30864
584.50 2.183061
584.60 1.755707
584.70 1.585473
584.80 1.493609
584.90 1.75995
585.00 1.852118
585.10 1.625653
585.20 1.172852
585.30 1.216521
585.40 1.548322
585.50 1.683712
585.60 1.815261
585.70 1.527611
585.80 1.324855
585.90 1.506647
586.00 1.63234
586.10 1.092601
586.20 0.6821313
586.30 0.761221
586.40 1.068627
586.50 1.124955
586.60 1.195558
586.70 1.08192
586.80 1.032009
586.90 1.393659
587.00 1.459847
587.10 1.16821
587.20 0.9156382
587.30 0.9028499
587.40 1.165768
587.50 1.121567
587.60 1.109717
587.70 1.124784
587.80 1.235677
587.90 1.087213
588.00 0.9772653
588.10 0.695304
588.20 0.6997768
588.30 0.9346525
588.40 1.028229
588.50 0.9097455
588.60 0.522291
588.70 0.5280202
588.80 0.9954832
588.90 1.725241
589.00 1.777258
589.10 0.7346337
589.20 0.8739393
589.30 1.961189
589.40 2.037719
589.50 1.234971
589.60 0.6820501
589.70 0.377735
589.80 0.6265469
589.90 0.9882531
590.00 1.051332
590.10 0.6557052
590.20 0.8560317
590.30 0.8234631
590.40 0.5702938
590.50 0.5917102
590.60 0.7960911
590.70 1.166269
590.80 1.188032
590.90 1.015126
591.00 0.7111162
591.10 0.9127732
591.20 1.135903
591.30 0.9285857
591.40 0.863668
591.50 0.8879117
591.60 1.085235
591.70 0.9646848
591.80 0.8378513
591.90 1.062985
592.00 1.09455
592.10 1.023097
592.20 0.849074
592.30 1.236498
592.40 1.330473
592.50 0.6862519
592.60 0.9088171
592.70 1.348872
592.80 1.102183
592.90 0.78489
593.00 0.8882277
593.10 1.203409
593.20 1.214686
593.30 1.130106
593.40 1.001089
593.50 0.8158539
593.60 0.839277
593.70 1.061081
593.80 0.998269
593.90 0.966089
594.00 1.072338
594.10 1.074836
594.20 0.8551902
594.30 1.09198
594.40 1.252035
594.50 1.273338
594.60 1.202401
594.70 1.372269
594.80 1.491661
594.90 1.539893
595.00 1.650132
595.10 1.297647
595.20 0.9072103
595.30 0.6840992
595.40 0.7615861
595.50 0.7219084
595.60 1.000008
595.70 1.667042
595.80 1.806938
595.90 1.394636
596.00 1.029715
596.10 1.039931
596.20 0.8791206
596.30 0.6056112
596.40 0.7480834
596.50 1.335309
596.60 1.410743
596.70 1.282741
596.80 1.274031
596.90 1.01745
597.00 0.886522
597.10 0.7780883
597.20 0.7417982
597.30 0.634339
597.40 0.6457578
597.50 1.012452
597.60 1.248296
597.70 1.2917
597.80 0.9397014
597.90 0.8947161
598.00 1.039843
598.10 1.307369
598.20 1.331955
598.30 1.249043
598.40 1.129593
598.50 1.020463
598.60 1.130399
598.70 1.134478
598.80 1.231136
598.90 1.27463
599.00 1.13736
599.10 1.220904
599.20 1.351705
599.30 1.29113
599.40 0.9963136
599.50 0.8814629
599.60 1.108474
599.70 1.218077
599.80 1.047346
599.90 1.303147
600.00 1.550036
600.10 1.572073
600.20 1.394141
600.30 1.426036
600.40 1.589836
600.50 1.432484
600.60 1.265535
600.70 1.183045
600.80 1.448376
600.90 1.457826
601.00 1.133041
601.10 0.9441058
601.20 1.136016
601.30 1.465633
601.40 1.382341
601.50 1.089676
601.60 1.25261
601.70 1.445595
601.80 1.647954
601.90 1.619347
602.00 1.405111
602.10 1.044687
602.20 1.026829
602.30 1.141416
602.40 1.324609
602.50 1.521743
602.60 1.518075
602.70 1.346302
602.80 1.176146
602.90 1.275533
603.00 1.269077
603.10 1.034223
603.20 1.110314
603.30 1.248035
603.40 1.601067
603.50 1.823671
603.60 1.650875
603.70 1.544089
603.80 1.349936
603.90 1.254996
604.00 1.301787
604.10 1.306656
604.20 1.420052
604.30 1.615443
604.40 1.744858
604.50 1.71313
604.60 1.570336
604.70 1.625274
604.80 1.997495
604.90 2.088601
605.00 1.801705
605.10 1.5954
605.20 1.699441
605.30 1.632207
605.40 1.469951
605.50 1.480625
605.60 1.598157
605.70 1.819339
605.80 1.862852
605.90 1.527396
606.00 1.427712
606.10 1.495828
606.20 1.60811
606.30 1.64681
606.40 1.672837
606.50 1.693205
606.60 1.541082
606.70 1.679684
606.80 1.98775
606.90 2.191004
607.00 2.110517
607.10 1.925316
607.20 1.83529
607.30 1.620168
607.40 1.654868
607.50 1.740837
607.60 1.762006
607.70 1.770114
607.80 1.708934
607.90 1.77701
608.00 1.591496
608.10 1.562583
608.20 1.528547
608.30 1.560254
608.40 1.880323
608.50 1.875595
608.60 1.7461
608.70 1.697845
608.80 1.843501
608.90 1.763773
609.00 1.366452
609.10 1.549415
609.20 1.804429
609.30 1.849234
609.40 1.747088
609.50 1.745951
609.60 1.688374
609.70 1.647823
609.80 1.881486
609.90 1.833951
610.00 1.589482
610.10 1.776501
610.20 1.924542
610.30 1.729691
610.40 1.35085
610.50 1.513778
610.60 1.810834
610.70 1.828703
610.80 1.599978
610.90 1.657035
611.00 1.643398
611.10 1.724902
611.20 1.856361
611.30 1.793841
611.40 1.622676
611.50 1.582671
611.60 1.496612
611.70 1.461524
611.80 1.458818
611.90 1.628179
612.00 1.871237
612.10 1.834618
612.20 1.650109
612.30 1.517457
612.40 1.550737
612.50 1.615367
612.60 1.356955
612.70 1.297459
612.80 1.319685
612.90 1.358625
613.00 1.678526
613.10 1.778468
613.20 1.382225
613.30 1.462951
613.40 1.766356
613.50 1.733521
613.60 1.479132
613.70 1.486808
613.80 1.6074
613.90 1.380351
614.00 1.294461
614.10 1.4212
614.20 1.354591
614.30 1.166835
614.40 1.341958
614.50 1.555945
614.60 1.63526
614.70 1.546561
614.80 1.636442
614.90 1.451117
615.00 1.364116
615.10 1.150214
615.20 0.8970889
615.30 1.003616
615.40 1.200393
615.50 1.207875
615.60 1.052378
615.70 1.214595
615.80 1.473551
615.90 1.238748
616.00 1.101764
616.10 1.116167
616.20 1.053637
616.30 1.007284
616.40 1.057349
616.50 1.133583
616.60 0.9382759
616.70 0.8246243
616.80 0.9071914
616.90 0.8573457
617.00 0.8814809
617.10 0.9325892
617.20 1.057552
617.30 1.06915
617.40 0.8678959
617.50 0.9749003
617.60 1.140214
617.70 0.9712655
617.80 0.6989233
617.90 0.898248
618.00 0.8980168
618.10 0.6263074
618.20 0.3565141
618.30 0.5469043
618.40 1.228058
618.50 1.34207
618.60 1.11677
618.70 1.001636
618.80 0.8162673
618.90 0.6303478
619.00 0.6694564
619.10 0.7825123
619.20 0.7015908
619.30 0.8932915
619.40 0.9188357
619.50 0.8898089
619.60 0.8767
619.70 1.101971
619.80 1.011702
619.90 0.7582958
620.00 0.6621649
620.10 0.7960271
620.20 1.048458
620.30 0.9764234
620.40 0.9174145
620.50 0.8522522
620.60 0.737336
620.70 0.7250597
620.80 0.9228622
620.90 1.139469
621.00 1.068941
621.10 1.140927
621.20 1.169553
621.30 1.002362
621.40 0.9878674
621.50 1.045313
621.60 1.120285
621.70 0.9020173
621.80 0.6244889
621.90 0.7033086
622.00 0.8876229
622.10 0.9905188
622.20 1.054258
622.30 0.9201035
622.40 0.941371
622.50 0.8336387
622.60 0.7388225
622.70 0.5723856
622.80 0.635788
622.90 0.9495528
623.00 0.9841689
623.10 0.9734482
623.20 0.8411264
623.30 0.7409648
623.40 0.8761723
623.50 1.077756
623.60 0.889589
623.70 0.9104001
623.80 0.7957649
623.90 0.3591421
624.00 0.6873433
624.10 1.233102
624.20 1.169301
624.30 0.5076146
624.40 0.4240332
624.50 0.9145489
624.60 1.022924
624.70 0.927015
624.80 0.7852646
624.90 0.7765166
625.00 0.8162141
625.10 0.7598514
625.20 0.9465207
625.30 1.072549
625.40 1.163393
625.50 1.246211
625.60 1.122616
625.70 1.100203
625.80 1.048756
625.90 1.254677
626.00 1.216995
626.10 1.128357
626.20 1.139816
626.30 0.9488028
626.40 0.7983467
626.50 0.9988245
626.60 1.103801
626.70 0.9557849
626.80 0.7220192
626.90 0.7885256
627.00 1.005027
627.10 1.106602
627.20 0.9432055
627.30 1.055821
627.40 1.280862
627.50 1.30464
627.60 1.264339
627.70 1.357278
627.80 1.558071
627.90 1.392097
628.00 1.227026
628.10 1.105947
628.20 1.079249
628.30 1.132936
628.40 1.222508
628.50 1.212954
628.60 1.214864
628.70 1.107422
628.80 1.422908
628.90 1.437119
629.00 1.291896
629.10 1.340043
629.20 1.483414
629.30 1.73144
629.40 1.550199
629.50 1.350884
629.60 1.473438
629.70 2.081108
629.80 2.189583
629.90 2.05234
630.00 1.926348
630.10 1.332045
630.20 0.8686864
630.30 0.5777863
630.40 1.71944
630.50 2.485866
630.60 2.152246
630.70 1.971568
630.80 1.793872
630.90 1.823465
631.00 1.790567
631.10 1.956806
631.20 2.15986
631.30 2.076485
631.40 2.020249
631.50 1.864177
631.60 1.789371
631.70 2.005369
631.80 2.076352
631.90 2.003882
632.00 2.007499
632.10 2.34123
632.20 2.226032
632.30 1.871017
632.40 1.940386
632.50 2.140615
632.60 2.180932
632.70 1.984194
632.80 1.9457
632.90 2.106922
633.00 2.339013
633.10 2.135341
633.20 1.871207
633.30 1.851605
633.40 2.116245
633.50 2.345675
633.60 2.357106
633.70 2.37601
633.80 2.379001
633.90 2.459324
634.00 2.450625
634.10 2.616914
634.20 2.728378
634.30 2.595758
634.40 2.398529
634.50 2.405335
634.60 2.611109
634.70 2.79335
634.80 2.85548
634.90 2.740535
635.00 2.803261
635.10 2.885592
635.20 2.689684
635.30 2.450218
635.40 2.542077
635.50 2.732908
635.60 2.607285
635.70 2.498231
635.80 2.414198
635.90 2.109401
636.00 2.050434
636.10 2.598358
636.20 3.227322
636.30 3.070391
636.40 2.300866
636.50 1.924041
636.60 1.99383
636.70 2.063946
636.80 2.327564
636.90 2.376472
637.00 2.337176
637.10 2.507981
637.20 2.716797
637.30 2.698441
637.40 2.450815
637.50 2.262573
637.60 2.406371
637.70 2.56484
637.80 2.564739
637.90 2.481955
638.00 2.442328
638.10 2.464256
638.20 2.122217
638.30 1.99736
638.40 2.22111
638.50 2.393128
638.60 2.393005
638.70 2.317915
638.80 2.31126
638.90 2.248649
639.00 2.268179
639.10 2.291201
639.20 2.412287
639.30 2.540465
639.40 2.697697
639.50 2.682995
639.60 2.581957
639.70 2.654265
639.80 2.835977
639.90 2.871148
640.00 2.864267
640.10 2.921859
640.20 2.818095
640.30 2.736776
640.40 2.875274
640.50 3.195174
640.60 3.383031
640.70 3.226517
640.80 3.031402
640.90 2.87172
641.00 2.837648
641.10 2.869492
641.20 2.835415
641.30 2.954089
641.40 3.069226
641.50 3.018518
641.60 2.848295
641.70 2.739197
641.80 2.827482
641.90 2.896001
642.00 2.843914
642.10 2.782999
642.20 2.728925
642.30 2.656264
642.40 2.653929
642.50 2.504127
642.60 2.423021
642.70 2.503915
642.80 2.728592
642.90 2.951996
643.00 2.851851
643.10 2.809919
643.20 2.818514
643.30 2.794636
643.40 2.725831
643.50 2.601109
643.60 2.641909
643.70 2.759798
643.80 2.894179
643.90 3.010774
644.00 2.886018
644.10 2.716475
644.20 2.682209
644.30 2.931564
644.40 3.087847
644.50 3.055982
644.60 3.054462
644.70 3.048468
644.80 3.128267
644.90 3.003683
645.00 2.841382
645.10 2.890475
645.20 3.034076
645.30 3.193106
645.40 3.175107
645.50 3.23102
645.60 3.0843
645.70 2.971058
645.80 2.981628
645.90 3.071131
646.00 3.203835
646.10 3.281983
646.20 3.210926
646.30 3.110616
646.40 3.25095
646.50 3.302544
646.60 3.19487
646.70 2.996441
646.80 3.142358
646.90 3.491494
647.00 3.682756
647.10 3.390713
647.20 3.260983
647.30 3.725395
647.40 4.142861
647.50 4.032484
647.60 3.556714
647.70 3.417718
647.80 3.481511
647.90 3.484346
648.00 3.246648
648.10 3.096524
648.20 3.088782
648.30 3.120442
648.40 3.139194
648.50 3.066544
648.60 2.905482
648.70 3.041222
648.80 3.242237
648.90 3.32709
649.00 3.337692
649.10 3.255368
649.20 3.281025
649.30 3.391595
649.40 3.428241
649.50 3.517652
649.60 3.739094
649.70 3.845216
649.80 3.680115
649.90 3.534505
650.00 3.766275
650.10 3.639185
650.20 3.633248
650.30 3.984986
650.40 4.355448
650.50 4.401493
650.60 4.199069
650.70 4.260927
650.80 4.428839
650.90 4.510053
651.00 4.537302
651.10 4.635866
651.20 4.680972
651.30 4.661113
651.40 4.513667
651.50 4.442136
651.60 4.495205
651.70 4.664676
651.80 4.712893
651.90 4.84028
652.00 4.967514
652.10 4.938631
652.20 5.105026
652.30 5.282156
652.40 5.229642
652.50 4.954257
652.60 4.984352
652.70 5.514468
652.80 5.907821
652.90 5.954234
653.00 5.957423
653.10 6.189812
653.20 6.263284
653.30 6.014732
653.40 5.703677
653.50 5.605705
653.60 5.983574
653.70 6.360697
653.80 6.593144
653.90 6.761618
654.00 6.765501
654.10 6.656793
654.20 6.731315
654.30 6.906736
654.40 6.735868
654.50 6.36655
654.60 6.039982
654.70 5.866852
654.80 5.818989
654.90 5.7307
655.00 5.549482
655.10 5.388388
655.20 5.385602
655.30 5.304998
655.40 5.152326
655.50 4.987609
655.60 5.078028
655.70 5.266264
655.80 5.429297
655.90 5.681247
656.00 5.924736
656.10 6.513491
656.20 8.842448
656.30 12.1535
656.40 14.08294
656.50 13.41798
656.60 10.75147
656.70 7.832261
656.80 5.766708
656.90 4.752508
657.00 4.465722
657.10 4.355289
657.20 4.465875
657.30 4.530555
657.40 4.494504
657.50 4.330882
657.60 4.278893
657.70 4.399673
657.80 4.51168
657.90 4.389091
658.00 3.943414
658.10 3.662534
658.20 3.691252
658.30 3.984881
658.40 4.149332
658.50 4.19448
658.60 4.272469
658.70 4.413181
658.80 4.548594
658.90 4.408446
659.00 4.381339
659.10 4.505978
659.20 4.538355
659.30 4.589117
659.40 4.478264
659.50 4.251217
659.60 4.082884
659.70 4.119673
659.80 4.360364
659.90 4.292753
660.00 4.120064
660.10 4.139226
660.20 4.278335
660.30 4.35663
660.40 4.326805
660.50 4.264339
660.60 4.230614
660.70 4.181552
660.80 4.073775
660.90 4.017373
661.00 4.102763
661.10 4.137336
661.20 4.136907
661.30 4.237497
661.40 4.365549
661.50 4.480811
661.60 4.243433
661.70 4.092912
661.80 4.197386
661.90 4.224479
662.00 4.095279
662.10 3.858711
662.20 3.78469
662.30 3.799346
662.40 3.854092
662.50 3.76692
662.60 3.427104
662.70 3.195299
662.80 3.249395
662.90 3.361875
663.00 3.432584
663.10 3.578135
663.20 3.719477
663.30 3.777918
663.40 3.905728
663.50 3.979883
663.60 3.785983
663.70 3.395793
663.80 3.120009
663.90 3.186112
664.00 3.368531
664.10 3.534974
664.20 3.616588
664.30 3.629136
664.40 3.538437
664.50 3.574403
664.60 3.532252
664.70 3.497296
664.80 3.566503
664.90 3.65748
665.00 3.697083
665.10 3.461239
665.20 3.023369
665.30 2.639171
665.40 2.460992
665.50 2.664851
665.60 2.90014
665.70 2.873887
665.80 2.832384
665.90 2.804934
666.00 2.879065
666.10 2.782036
666.20 2.794364
666.30 3.011154
666.40 3.066395
666.50 3.126099
666.60 3.190848
666.70 3.217289
666.80 3.161033
666.90 3.250992
667.00 3.511166
667.10 3.557073
667.20 3.55357
667.30 3.355948
667.40 3.189069
667.50 3.222109
667.60 3.310178
667.70 3.419195
667.80 3.594817
667.90 3.73451
668.00 3.649329
668.10 3.391079
668.20 2.984611
668.30 2.587673
668.40 2.351528
668.50 2.307554
668.60 2.489183
668.70 2.543823
668.80 2.474265
668.90 2.608219
669.00 2.852875
669.10 2.803723
669.20 2.618446
669.30 2.529181
669.40 2.405692
669.50 2.430658
669.60 2.690653
669.70 2.911793
669.80 2.955439
669.90 2.848356
670.00 2.920092
670.10 3.020417
670.20 3.15906
670.30 3.222247
670.40 3.123867
670.50 3.069597
670.60 3.057828
670.70 3.109521
670.80 3.131486
670.90 3.022331
671.00 2.977832
671.10 3.114344
671.20 3.254096
671.30 3.203866
671.40 3.043327
671.50 2.872342
671.60 2.746613
671.70 2.560689
671.80 2.396485
671.90 2.401004
672.00 2.407391
672.10 2.478343
672.20 2.548203
672.30 2.540556
672.40 2.497006
672.50 2.501087
672.60 2.533568
672.70 2.585759
672.80 2.827481
672.90 3.025488
673.00 2.880534
673.10 2.676586
673.20 2.719263
673.30 2.980943
673.40 3.208279
673.50 3.117737
673.60 2.836672
673.70 2.563974
673.80 2.612876
673.90 2.941955
674.00 3.033572
674.10 2.954045
674.20 2.9121
674.30 2.996201
674.40 3.141187
674.50 3.268029
674.60 3.266601
674.70 3.106784
674.80 2.88397
674.90 2.722679
675.00 2.693448
675.10 2.762353
675.20 2.817361
675.30 2.828269
675.40 2.929693
675.50 3.125414
675.60 3.096796
675.70 3.044038
675.80 3.061575
675.90 2.91606
676.00 2.826885
676.10 2.910315
676.20 3.085686
676.30 3.236682
676.40 3.195907
676.50 3.293796
676.60 3.45693
676.70 3.420527
676.80 3.408553
676.90 3.45254
677.00 3.4765
677.10 3.531621
677.20 3.617646
677.30 3.649937
677.40 3.635288
677.50 3.643148
677.60 3.68515
677.70 3.793017
677.80 3.711324
677.90 3.729831
678.00 3.830486
678.10 3.814663
678.20 3.526794
678.30 2.942976
678.40 2.669711
678.50 2.733078
678.60 2.828632
678.70 2.847299
678.80 2.863015
678.90 2.972392
679.00 3.067826
679.10 3.145386
679.20 3.125554
679.30 2.990497
679.40 2.907179
679.50 2.961024
679.60 3.052741
679.70 3.083902
679.80 3.133792
679.90 3.211609
680.00 3.23402
680.10 3.153866
680.20 3.037801
680.30 3.070662
680.40 3.163662
680.50 3.262146
680.60 3.329665
680.70 3.394222
680.80 3.315853
680.90 3.139868
681.00 3.348864
681.10 3.540446
681.20 3.520551
681.30 3.50939
681.40 3.438049
681.50 3.348618
681.60 3.204782
681.70 3.147902
681.80 3.210009
681.90 3.28206
682.00 3.381924
682.10 3.306169
682.20 3.163467
682.30 3.275914
682.40 3.336031
682.50 3.2788
682.60 3.293106
682.70 3.483564
682.80 3.729954
682.90 3.705528
683.00 3.36896
683.10 3.124476
683.20 3.208581
683.30 3.412096
683.40 3.520925
683.50 3.552839
683.60 3.69503
683.70 3.699905
683.80 3.621523
683.90 3.698732
684.00 3.719798
684.10 3.688407
684.20 3.86271
684.30 3.997518
684.40 3.940094
684.50 3.878296
684.60 3.745543
684.70 3.722757
684.80 3.796818
684.90 3.726485
685.00 3.536252
685.10 3.39924
685.20 3.303535
685.30 3.154315
685.40 3.05938
685.50 3.08579
685.60 3.295253
685.70 3.430044
685.80 3.431108
685.90 3.371563
686.00 3.267054
686.10 3.39725
686.20 3.665075
686.30 3.811813
686.40 3.963978
686.50 3.977087
686.60 3.843768
686.70 3.705892
686.80 3.404849
686.90 3.506796
687.00 3.499692
687.10 3.29285
687.20 3.366455
687.30 3.647872
687.40 3.979722
687.50 4.188333
687.60 4.264769
687.70 4.188172
687.80 4.099665
687.90 3.999795
688.00 3.744117
688.10 3.737633
688.20 3.9757
688.30 3.999521
688.40 3.913857
688.50 3.790756
688.60 3.791148
688.70 3.951641
688.80 4.01122
688.90 3.974565
689.00 3.834102
689.10 3.642004
689.20 3.720761
689.30 4.066232
689.40 4.246973
689.50 4.122797
689.60 4.007909
689.70 4.100935
689.80 4.124218
689.90 4.120425
690.00 4.090758
690.10 3.954894
690.20 3.669662
690.30 3.541201
690.40 3.773504
690.50 3.995789
690.60 4.063887
690.70 4.263651
690.80 4.670584
690.90 4.850452
691.00 4.686015
691.10 4.516961
691.20 4.43465
691.30 4.661065
691.40 4.687491
691.50 4.63057
691.60 4.728275
691.70 4.662262
691.80 4.43285
691.90 3.940777
692.00 3.533243
692.10 3.501682
692.20 3.79609
692.30 4.338218
692.40 4.753884
692.50 4.681274
692.60 4.431933
692.70 4.606608
692.80 4.885645
692.90 4.990558
693.00 4.921505
693.10 4.901509
693.20 5.147792
693.30 5.395297
693.40 5.577955
693.50 5.660453
693.60 5.644856
693.70 5.641616
693.80 5.568532
693.90 5.441735
694.00 5.392784
694.10 5.506792
694.20 5.767581
694.30 6.054964
694.40 6.371648
694.50 6.734847
694.60 6.992483
694.70 7.243566
694.80 7.345695
694.90 7.187747
695.00 7.153134
695.10 7.122292
695.20 7.135144
695.30 7.015641
695.40 6.663418
695.50 6.401162
695.60 6.367393
695.70 6.581872
695.80 6.510641
695.90 6.284634
696.00 6.210713
696.10 6.306295
696.20 6.544711
696.30 6.655792
696.40 6.735132
696.50 6.894508
696.60 6.955353
696.70 6.950855
696.80 7.015669
696.90 7.078934
697.00 7.027974
697.10 6.911663
697.20 6.691129
697.30 6.545243
697.40 6.605272
697.50 6.706975
697.60 6.905752
697.70 7.302663
697.80 7.713608
697.90 7.910189
698.00 7.724777
698.10 7.449978
698.20 7.439696
698.30 7.647828
698.40 7.726097
698.50 7.631734
698.60 7.632174
698.70 7.811683
698.80 7.871153
698.90 7.739076
699.00 7.443099
699.10 7.362284
699.20 7.416602
699.30 7.332638
699.40 7.475373
699.50 7.676355
699.60 7.831333
699.70 7.91666
699.80 7.799861
699.90 7.572207
700.00 7.396389
700.10 7.532024
700.20 7.85627
700.30 8.05208
700.40 7.912112
700.50 7.595551
700.60 7.503318
700.70 7.769663
700.80 8.132772
700.90 8.347682
701.00 8.488406
701.10 8.533069
701.20 8.58436
701.30 8.592504
701.40 8.452071
701.50 8.576555
701.60 8.948536
701.70 9.140812
701.80 9.116546
701.90 9.082937
702.00 9.301366
702.10 9.621156
702.20 9.573084
702.30 9.311725
702.40 9.113539
702.50 8.862234
702.60 8.84242
702.70 8.941279
702.80 9.462712
702.90 10.26188
703.00 10.65979
703.10 10.81699
703.20 10.79934
703.30 10.65304
703.40 10.65448
703.50 10.88759
703.60 11.34721
703.70 11.81232
703.80 12.05356
703.90 12.12262
704.00 12.06625
704.10 12.13973
704.20 12.22124
704.30 12.34092
704.40 12.54635
704.50 12.72859
704.60 12.9103
704.70 12.98139
704.80 12.96246
704.90 12.89521
705.00 12.93326
705.10 13.22266
705.20 13.3378
705.30 12.87375
705.40 11.64081
705.50 9.608951
705.60 7.272445
705.70 5.390535
705.80 4.378325
705.90 4.276812
706.00 4.484477
706.10 4.32219
706.20 4.079079
706.30 3.954134
706.40 3.944492
706.50 4.047328
706.60 4.27272
706.70 4.598168
706.80 4.862512
706.90 4.860312
707.00 4.878342
707.10 5.027168
707.20 5.186522
707.30 5.348019
707.40 5.370722
707.50 5.307487
707.60 5.234859
707.70 5.174626
707.80 5.277357
707.90 5.505163
708.00 5.509511
708.10 5.275557
708.20 5.405468
708.30 5.795354
708.40 6.04442
708.50 6.095443
708.60 5.971838
708.70 5.658857
708.80 5.156008
708.90 4.582689
709.00 3.912001
709.10 3.393219
709.20 3.257798
709.30 3.299713
709.40 3.312343
709.50 3.292967
709.60 3.285002
709.70 3.301798
709.80 3.381895
709.90 3.52814
710.00 3.591226
710.10 3.56863
710.20 3.612516
710.30 3.652191
710.40 3.742713
710.50 3.865608
710.60 3.958527
710.70 4.021342
710.80 4.090717
710.90 4.247947
711.00 4.478809
711.10 4.716589
711.20 4.789595
711.30 4.671184
711.40 4.578652
711.50 4.669959
711.60 4.727385
711.70 4.636881
711.80 4.691862
711.90 4.893069
712.00 5.163449
712.10 5.368189
712.20 5.370444
712.30 5.396071
712.40 5.355724
712.50 4.965921
712.60 4.31772
712.70 3.617736
712.80 3.081255
712.90 2.881392
713.00 2.832314
713.10 2.886106
713.20 2.97633
713.30 2.959535
713.40 2.915895
713.50 2.951483
713.60 3.099859
713.70 3.183041
713.80 2.997904
713.90 2.895086
714.00 2.986161
714.10 3.115963
714.20 3.279827
714.30 3.408027
714.40 3.435332
714.50 3.439807
714.60 3.466658
714.70 3.550528
714.80 3.753035
714.90 3.750358
715.00 3.561244
715.10 3.541357
715.20 3.686605
715.30 3.767246
715.40 3.844022
715.50 3.991166
715.60 4.214119
715.70 4.373963
715.80 4.266167
715.90 4.002703
716.00 3.883579
716.10 3.889879
716.20 3.779034
716.30 3.594496
716.40 3.505957
716.50 3.638568
716.60 3.873314
716.70 3.968045
716.80 3.956803
716.90 3.893885
717.00 3.901785
717.10 4.093161
717.20 4.1715
717.30 4.159399
717.40 4.113432
717.50 4.020287
717.60 4.063687
717.70 4.176401
717.80 4.366756
717.90 4.466869
718.00 4.579348
718.10 4.839457
718.20 4.915065
718.30 4.909233
718.40 4.934018
718.50 5.047527
718.60 5.208746
718.70 5.223183
718.80 5.242378
718.90 5.367979
719.00 5.49148
719.10 5.643942
719.20 5.688365
719.30 5.611562
719.40 5.603223
719.50 5.629184
719.60 5.611988
719.70 5.379688
719.80 5.097934
719.90 4.876485
720.00 4.601522
720.10 4.385992
720.20 4.474849
720.30 4.714109
720.40 4.777019
720.50 4.706409
720.60 4.637237
720.70 4.75437
720.80 4.844386
720.90 4.765097
721.00 4.691324
721.10 4.851682
721.20 5.089707
721.30 5.194581
721.40 5.250175
721.50 5.270674
721.60 5.336488
721.70 5.373827
721.80 5.357431
721.90 5.374128
722.00 5.350186
722.10 5.393136
722.20 5.563646
722.30 5.731482
722.40 5.874499
722.50 5.980344
722.60 6.096122
722.70 6.262061
722.80 6.441364
722.90 6.571007
723.00 6.524786
723.10 6.295688
723.20 6.188437
723.30 6.235384
723.40 6.249113
723.50 6.373163
723.60 6.568271
723.70 6.73341
723.80 6.926854
723.90 6.958457
724.00 6.967455
724.10 7.186588
724.20 7.080196
724.30 7.006862
724.40 7.066689
724.50 7.169726
724.60 7.523391
724.70 7.913663
724.80 8.218017
724.90 8.111169
725.00 8.067496
725.10 8.494549
725.20 8.853538
725.30 8.791148
725.40 8.525937
725.50 8.491533
725.60 8.733879
725.70 8.98969
725.80 9.162991
725.90 9.178047
726.00 9.041849
726.10 9.034118
726.20 9.330133
726.30 9.755594
726.40 10.0622
726.50 10.28516
726.60 10.42918
726.70 10.43471
726.80 10.43017
726.90 10.36133
727.00 10.11708
727.10 9.716652
727.20 9.161937
727.30 8.711869
727.40 8.646247
727.50 9.258604
727.60 10.22432
727.70 10.84466
727.80 10.92009
727.90 10.35044
728.00 10.17836
728.10 10.55309
728.20 10.54844
728.30 10.34218
728.40 10.27152
728.50 10.50741
728.60 11.05795
728.70 11.18549
728.80 11.06124
728.90 11.35701
729.00 11.5522
729.10 11.53113
729.20 11.51344
729.30 11.62415
729.40 11.90324
729.50 12.19404
729.60 12.54215
729.70 13.02222
729.80 13.3127
729.90 13.0965
730.00 12.76873
730.10 12.96392
730.20 13.43433
730.30 13.71417
730.40 14.01165
730.50 14.24595
730.60 14.10195
730.70 14.13004
730.80 14.60456
730.90 15.06087
731.00 15.22683
731.10 15.09699
731.20 14.90036
731.30 14.87374
731.40 14.97118
731.50 15.19599
731.60 15.6256
731.70 15.92274
731.80 15.81169
731.90 15.72036
732.00 16.33106
732.10 16.94725
732.20 16.92659
732.30 16.78181
732.40 16.79032
732.50 16.86691
732.60 16.79731
732.70 16.56916
732.80 16.70332
732.90 17.17173
733.00 17.32423
733.10 17.25855
733.20 17.26711
733.30 17.27628
733.40 17.27079
733.50 17.3618
733.60 17.75293
733.70 18.34891
733.80 18.83793
733.90 19.18233
734.00 19.09538
734.10 19.31169
734.20 19.84212
734.30 19.29372
734.40 18.64345
734.50 18.28687
734.60 17.64965
734.70 17.26758
734.80 17.23581
734.90 17.61013
735.00 18.15312
735.10 18.49457
735.20 18.74911
735.30 18.98846
735.40 19.06004
735.50 18.7526
735.60 18.1853
735.70 17.72639
735.80 17.88266
735.90 18.48886
736.00 18.90892
736.10 19.03626
736.20 19.07388
736.30 19.38075
736.40 19.94824
736.50 20.43641
736.60 20.67076
736.70 20.66349
736.80 20.9399
736.90 21.38794
737.00 21.6645
737.10 21.86273
737.20 21.77123
737.30 21.43647
737.40 20.90459
737.50 20.16103
737.60 19.67443
737.70 19.74918
737.80 20.13489
737.90 20.58116
738.00 20.7666
738.10 20.66524
738.20 20.55927
738.30 20.73446
738.40 21.02499
738.50 21.09933
738.60 21.07581
738.70 21.11312
738.80 21.35383
738.90 21.92608
739.00 22.48209
739.10 22.7893
739.20 22.67362
739.30 22.04464
739.40 21.15369
739.50 20.37718
739.60 19.93193
739.70 19.91108
739.80 20.3293
739.90 20.86842
740.00 21.23555
740.10 21.57801
740.20 21.94155
740.30 22.21362
740.40 22.04148
740.50 21.15093
740.60 20.05
740.70 19.61748
740.80 19.68045
740.90 19.75944
741.00 20.17508
741.10 20.84145
741.20 21.25134
741.30 21.27346
741.40 21.27202
741.50 21.5804
741.60 21.92597
741.70 21.71053
741.80 20.75264
741.90 19.79445
742.00 19.24398
742.10 19.22514
742.20 19.696
742.30 20.12636
742.40 20.4186
742.50 20.86992
742.60 21.25698
742.70 21.46533
742.80 21.47539
742.90 21.36321
743.00 21.5133
743.10 21.7656
743.20 21.83993
743.30 21.95125
743.40 21.96985
743.50 21.21897
743.60 20.02378
743.70 19.24637
743.80 19.34964
743.90 20.38864
744.00 21.489
744.10 21.64137
744.20 21.08559
744.30 20.65329
744.40 20.37097
744.50 20.08704
744.60 19.82978
744.70 19.68656
744.80 19.60935
744.90 19.58795
745.00 19.78466
745.10 20.12211
745.20 20.64419
745.30 21.1125
745.40 21.13262
745.50 20.84859
745.60 20.5771
745.70 20.387
745.80 20.25719
745.90 20.16741
746.00 20.13032
746.10 20.27409
746.20 20.56762
746.30 20.99159
746.40 21.39316
746.50 21.45563
746.60 21.38069
746.70 21.32973
746.80 21.23773
746.90 21.20202
747.00 21.38576
747.10 21.84525
747.20 22.23976
747.30 22.23345
747.40 21.50717
747.50 20.61156
747.60 20.48768
747.70 20.9108
747.80 21.40834
747.90 21.82049
748.00 21.9011
748.10 21.65997
748.20 21.61304
748.30 21.79294
748.40 22.19228
748.50 22.73988
748.60 22.75597
748.70 22.33456
748.80 21.97718
748.90 21.93828
749.00 22.12012
749.10 22.33078
749.20 22.46445
749.30 22.2901
749.40 21.82256
749.50 21.3444
749.60 21.17192
749.70 21.42992
749.80 22.03237
749.90 22.74823
750.00 23.37897
750.10 23.72671
750.20 23.72332
750.30 23.62597
750.40 23.59926
750.50 23.39434
750.60 22.88028
750.70 22.47658
750.80 22.48577
750.90 22.94057
751.00 23.73575
751.10 24.3822
751.20 24.65598
751.30 24.54107
751.40 24.09362
751.50 23.71712
751.60 23.59747
751.70 23.87162
751.80 24.20731
751.90 24.02288
752.00 23.61881
752.10 23.4992
752.20 23.44334
752.30 23.55308
752.40 23.97303
752.50 24.17298
752.60 24.38025
752.70 24.31188
752.80 23.37723
752.90 22.68989
753.00 22.75474
753.10 23.54338
753.20 24.61861
753.30 24.93065
753.40 24.6022
753.50 24.31607
753.60 24.1299
753.70 24.2401
753.80 24.86592
753.90 25.72516
754.00 26.57947
754.10 27.0068
754.20 26.89556
754.30 26.74505
754.40 26.75974
754.50 26.9276
754.60 27.04004
754.70 26.83089
754.80 26.42097
754.90 26.01858
755.00 25.73097
755.10 25.74914
755.20 26.28072
755.30 26.82386
755.40 26.93315
755.50 26.71295
755.60 26.51293
755.70 26.58821
755.80 26.69415
755.90 26.87862
756.00 27.19326
756.10 27.34141
756.20 27.32003
756.30 27.20215
756.40 26.97035
756.50 26.61879
756.60 26.2869
756.70 25.93092
756.80 25.42045
756.90 24.88911
757.00 24.6784
757.10 25.23134
757.20 26.57855
757.30 27.9237
757.40 28.31994
757.50 28.02331
757.60 27.82469
757.70 27.54044
757.80 26.79121
757.90 26.13392
758.00 26.20929
758.10 27.14167
758.20 28.4903
758.30 29.49021
758.40 29.84633
758.50 29.6342
758.60 28.98087
758.70 28.10296
758.80 26.51487
758.90 23.56129
759.00 19.86366
759.10 16.58962
759.20 14.41969
759.30 13.65212
759.40 13.95274
759.50 14.71858
759.60 15.34368
759.70 15.39336
759.80 15.33606
759.90 15.83031
760.00 16.57461
760.10 16.5336
760.20 15.6919
760.30 15.10011
760.40 15.40911
760.50 16.18819
760.60 16.57691
760.70 16.50546
760.80 16.47909
760.90 16.5641
761.00 16.71608
761.10 16.79685
761.20 16.88181
761.30 17.25513
761.40 18.09125
761.50 19.09267
761.60 19.46958
761.70 19.45834
761.80 19.54449
761.90 19.63897
762.00 19.98656
762.10 20.11173
762.20 19.51095
762.30 19.10855
762.40 19.18451
762.50 19.17076
762.60 18.76872
762.70 17.51737
762.80 15.75429
762.90 14.16223
763.00 12.65182
763.10 11.48759
763.20 11.19611
763.30 11.45347
763.40 11.95896
763.50 12.33583
763.60 12.27756
763.70 12.20281
763.80 12.27808
763.90 12.32131
764.00 12.37685
764.10 12.10075
764.20 11.67035
764.30 11.7301
764.40 12.00605
764.50 12.14803
764.60 11.79364
764.70 11.15654
764.80 11.18444
764.90 11.54031
765.00 11.48994
765.10 11.1724
765.20 10.78813
765.30 10.70206
765.40 10.77803
765.50 10.25477
765.60 9.372819
765.70 8.913547
765.80 8.863933
765.90 8.755513
766.00 8.178824
766.10 7.322188
766.20 6.546463
766.30 5.796384
766.40 5.193499
766.50 4.733951
766.60 4.27142
766.70 4.084197
766.80 4.137836
766.90 4.313319
767.00 4.831455
767.10 5.512353
767.20 5.985794
767.30 6.105137
767.40 6.164733
767.50 6.358304
767.60 6.722732
767.70 7.196058
767.80 7.462362
767.90 7.606332
768.00 7.801054
768.10 7.918228
768.20 7.937021
768.30 8.014893
768.40 8.255568
768.50 8.543282
768.60 8.713671
768.70 8.739858
768.80 8.756203
768.90 8.765756
769.00 8.72309
769.10 8.705846
769.20 8.606443
769.30 8.409975
769.40 8.083598
769.50 7.566056
769.60 7.078175
769.70 6.501473
769.80 5.721942
769.90 4.932941
770.00 4.309869
770.10 4.111314
770.20 4.344649
770.30 4.862556
770.40 5.652841
770.50 6.446432
770.60 6.996117
770.70 7.37151
770.80 7.530957
770.90 7.79054
771.00 8.38141
771.10 8.775751
771.20 8.939216
771.30 9.19628
771.40 9.526393
771.50 9.834337
771.60 9.931811
771.70 10.13038
771.80 10.5205
771.90 10.32541
772.00 10.21673
772.10 10.77336
772.20 11.33604
772.30 11.60914
772.40 11.49875
772.50 11.5843
772.60 12.01189
772.70 12.43182
772.80 12.7799
772.90 13.04924
773.00 13.14834
773.10 13.12366
773.20 13.19221
773.30 13.35329
773.40 13.64652
773.50 13.97246
773.60 14.06339
773.70 14.10973
773.80 14.39244
773.90 14.69076
774.00 14.8105
774.10 14.81367
774.20 14.77658
774.30 14.55083
774.40 13.89107
774.50 13.05275
774.60 12.47464
774.70 12.15598
774.80 11.88304
774.90 11.6861
775.00 11.36639
775.10 10.89288
775.20 10.60841
775.30 10.16148
775.40 9.952321
775.50 10.51155
775.60 11.1216
775.70 11.37529
775.80 11.40123
775.90 11.49037
776.00 11.62146
776.10 11.80563
776.20 12.09689
776.30 12.11183
776.40 11.81656
776.50 11.6286
776.60 11.71282
776.70 11.9897
776.80 12.48271
776.90 12.99941
777.00 13.16484
777.10 13.08071
777.20 13.06609
777.30 13.24401
777.40 13.58162
777.50 13.79329
777.60 13.75981
777.70 13.74145
777.80 13.65657
777.90 13.54409
778.00 13.65673
778.10 13.78235
778.20 13.73738
778.30 13.468
778.40 12.90258
778.50 12.40015
778.60 12.18651
778.70 12.14213
778.80 12.1759
778.90 12.24075
779.00 12.48262
779.10 12.81702
779.20 12.89827
779.30 12.76117
779.40 13.07297
779.50 13.84513
779.60 14.29136
779.70 14.32042
779.80 13.93075
779.90 13.08136
780.00 12.0477
780.10 11.21242
780.20 11.12326
780.30 11.87995
780.40 13.19643
780.50 14.7589
780.60 16.09004
780.70 16.91491
780.80 17.24733
780.90 17.09068
781.00 16.7302
781.10 16.45878
781.20 16.14457
781.30 16.19277
781.40 16.94458
781.50 17.73017
781.60 18.13334
781.70 18.23592
781.80 18.18495
781.90 18.11621
782.00 17.90825
782.10 17.61229
782.20 16.78267
782.30 15.41272
782.40 14.87292
782.50 15.3205
782.60 16.12824
782.70 16.64101
782.80 16.09899
782.90 15.0637
783.00 14.13331
783.10 13.47426
783.20 13.28431
783.30 13.59559
783.40 14.1828
783.50 14.69635
783.60 15.02
783.70 15.18561
783.80 15.30664
783.90 15.49449
784.00 15.61625
784.10 15.6651
784.20 15.73805
784.30 15.69528
784.40 15.70904
784.50 15.99373
784.60 16.48882
784.70 17.01675
784.80 17.17581
784.90 16.94118
785.00 16.57555
785.10 16.21982
785.20 16.17857
785.30 16.59541
785.40 17.02807
785.50 17.10612
785.60 17.19787
785.70 17.28734
785.80 17.32586
785.90 17.61509
786.00 17.63704
786.10 17.30393
786.20 17.19857
786.30 17.03576
786.40 16.46916
786.50 16.11677
786.60 16.12515
786.70 16.04543
786.80 16.06835
786.90 16.16222
787.00 16.34254
787.10 16.5954
787.20 16.45477
787.30 15.94057
787.40 15.51111
787.50 15.59816
787.60 16.16281
787.70 16.81196
787.80 17.46296
787.90 18.32051
788.00 18.86741
788.10 18.81427
788.20 18.53061
788.30 18.27286
788.40 18.62153
788.50 19.17388
788.60 19.32575
788.70 19.3362
788.80 19.21384
788.90 19.27498
789.00 19.62503
789.10 19.82764
789.20 19.86634
789.30 19.89757
789.40 20.074
789.50 20.35776
789.60 20.3063
789.70 19.72257
789.80 19.00968
789.90 18.41721
790.00 17.7922
790.10 17.25971
790.20 17.0944
790.30 17.34748
790.40 18.07185
790.50 18.87038
790.60 19.3389
790.70 19.49173
790.80 19.11388
790.90 18.00243
791.00 16.6884
791.10 15.671
791.20 14.90709
791.30 15.02495
791.40 16.11396
791.50 17.20962
791.60 17.82903
791.70 17.67702
791.80 17.03529
791.90 16.52893
792.00 16.15268
792.10 16.08583
792.20 16.62885
792.30 17.23637
792.40 17.2512
792.50 17.03956
792.60 17.22328
792.70 17.5674
792.80 17.72534
792.90 17.71255
793.00 17.68373
793.10 18.04486
793.20 18.82833
793.30 19.62671
793.40 20.17691
793.50 20.29674
793.60 20.20944
793.70 20.2659
793.80 20.40435
793.90 20.39858
794.00 19.85044
794.10 18.73171
794.20 17.65688
794.30 17.14157
794.40 17.44096
794.50 18.13594
794.60 18.35796
794.70 17.81104
794.80 16.80611
794.90 15.80242
795.00 15.54917
795.10 16.43212
795.20 17.79281
795.30 19.18332
795.40 20.33018
795.50 20.80285
795.60 20.89196
795.70 20.96389
795.80 21.09138
795.90 21.0431
796.00 20.57428
796.10 19.93226
796.20 19.2566
796.30 18.69226
796.40 18.71332
796.50 19.38771
796.60 20.31434
796.70 21.13745
796.80 21.50311
796.90 21.53004
797.00 21.73008
797.10 22.21056
797.20 22.79958
797.30 23.13802
797.40 22.85468
797.50 22.08289
797.60 21.208
797.70 20.59546
797.80 20.28307
797.90 20.16984
798.00 20.25972
798.10 20.44864
798.20 20.57659
798.30 20.50851
798.40 20.19755
798.50 19.82438
798.60 19.53479
798.70 19.23508
798.80 18.87675
798.90 18.75154
799.00 19.18331
799.10 20.00263
799.20 20.83707
799.30 21.48721
799.40 21.7014
799.50 21.30051
799.60 20.71805
799.70 20.68936
799.80 20.98545
799.90 21.05872
800.00 21.09491
800.10 21.29925
800.20 21.62249
800.30 21.91639
800.40 22.15827
800.50 22.42751
800.60 22.6346
800.70 22.77395
800.80 23.01766
800.90 23.43085
801.00 23.74996
801.10 23.76753
801.20 23.72525
801.30 23.82465
801.40 24.0595
801.50 24.34359
801.60 24.55539
801.70 24.8521
801.80 25.2607
801.90 25.52956
802.00 25.71629
802.10 25.82147
802.20 25.73079
802.30 25.58694
802.40 25.59672
802.50 25.99897
802.60 26.76172
802.70 27.46909
802.80 27.65387
802.90 27.35661
803.00 27.3266
803.10 27.73112
803.20 28.07888
803.30 28.21029
803.40 28.141
803.50 28.05972
803.60 28.07694
803.70 28.12313
803.80 28.25506
803.90 28.34323
804.00 28.1606
804.10 27.93514
804.20 28.0186
804.30 28.29635
804.40 28.73588
804.50 29.33152
804.60 29.6214
804.70 29.55056
804.80 29.31857
804.90 28.84654
805.00 28.86179
805.10 29.90245
805.20 31.17378
805.30 32.27485
805.40 33.14998
805.50 33.39039
805.60 33.24709
805.70 33.12441
805.80 32.9541
805.90 32.91174
806.00 33.21381
806.10 33.66809
806.20 34.02023
806.30 34.02295
806.40 33.66128
806.50 33.33438
806.60 33.08513
806.70 33.17732
806.80 33.8479
806.90 34.2304
807.00 34.06438
807.10 33.81604
807.20 33.64659
807.30 33.97179
807.40 34.91163
807.50 35.83269
807.60 36.24669
807.70 36.39184
807.80 36.55218
807.90 36.79814
808.00 37.10124
808.10 37.37284
808.20 37.69895
808.30 38.03091
808.40 38.28033
808.50 38.59244
808.60 38.96163
808.70 39.06037
808.80 38.75832
808.90 38.32062
809.00 38.02419
809.10 38.10009
809.20 38.48888
809.30 38.97675
809.40 39.4575
809.50 39.65769
809.60 39.4259
809.70 38.94133
809.80 38.43
809.90 38.17578
810.00 38.28484
810.10 38.49046
810.20 38.72354
810.30 38.99932
810.40 39.05081
810.50 38.85334
810.60 38.82904
810.70 39.24599
810.80 40.00667
810.90 40.83055
811.00 41.35988
811.10 41.44549
811.20 41.29406
811.30 41.3478
811.40 41.8524
811.50 42.25595
811.60 42.01678
811.70 41.34823
811.80 40.71348
811.90 40.79397
812.00 41.85054
812.10 43.19353
812.20 44.06407
812.30 44.24603
812.40 43.9905
812.50 43.72157
812.60 43.75908
812.70 44.17912
812.80 44.78848
812.90 45.26737
813.00 45.43701
813.10 45.30696
813.20 44.9861
813.30 44.87607
813.40 45.14037
813.50 45.44174
813.60 45.66816
813.70 45.80377
813.80 46.00544
813.90 46.76626
814.00 47.7816
814.10 47.90765
814.20 46.87656
814.30 45.47756
814.40 44.30576
814.50 43.69761
814.60 43.89193
814.70 44.47813
814.80 44.7732
814.90 44.65471
815.00 44.19106
815.10 43.73482
815.20 44.05679
815.30 45.04911
815.40 45.88388
815.50 45.99354
815.60 45.52007
815.70 45.16814
815.80 45.23055
815.90 45.46628
816.00 45.41798
816.10 45.01047
816.20 44.68274
816.30 44.72816
816.40 45.2821
816.50 46.14673
816.60 46.83874
816.70 47.10524
816.80 47.17766
816.90 47.60989
817.00 48.22122
817.10 48.43217
817.20 48.32845
817.30 48.11915
817.40 47.77946
817.50 47.3501
817.60 47.10228
817.70 46.92537
817.80 46.26592
817.90 45.17686
818.00 43.71346
818.10 41.42672
818.20 38.19653
818.30 33.70458
818.40 28.66333
818.50 25.73755
818.60 26.39302
818.70 29.88806
818.80 34.45224
818.90 38.0652
819.00 39.81934
819.10 40.09981
819.20 39.22914
819.30 36.98235
819.40 33.10519
819.50 28.05917
819.60 23.76957
819.70 22.2058
819.80 23.84047
819.90 27.32385
820.00 30.74715
820.10 33.64043
820.20 36.01215
820.30 37.98322
820.40 39.80314
820.50 40.73289
820.60 40.2339
820.70 38.82811
820.80 37.3176
820.90 36.62118
821.00 37.14931
821.10 38.37442
821.20 39.6522
821.30 40.50825
821.40 40.67579
821.50 40.24123
821.60 39.70644
821.70 39.57633
821.80 39.87629
821.90 40.45831
822.00 41.11154
822.10 41.6981
822.20 42.29437
822.30 42.82567
822.40 43.22721
822.50 43.63701
822.60 44.10956
822.70 44.50831
822.80 44.67533
822.90 44.73683
823.00 45.11805
823.10 46.04226
823.20 47.02472
823.30 47.17327
823.40 46.26871
823.50 45.0184
823.60 44.27788
823.70 44.42462
823.80 45.28944
823.90 46.45042
824.00 47.55005
824.10 48.38796
824.20 48.82389
824.30 48.68112
824.40 47.89747
824.50 46.95326
824.60 46.57254
824.70 47.15318
824.80 48.6769
824.90 50.17165
825.00 50.43993
825.10 49.50638
825.20 47.93846
825.30 46.20721
825.40 44.8835
825.50 44.08655
825.60 43.55082
825.70 43.13274
825.80 42.92709
825.90 43.16446
826.00 43.8771
826.10 45.00414
826.20 46.25735
826.30 47.17143
826.40 47.71657
826.50 47.93762
826.60 47.89887
826.70 48.13156
826.80 48.61288
826.90 48.69831
827.00 48.14502
827.10 46.88171
827.20 45.17714
827.30 43.72305
827.40 42.78093
827.50 42.28913
827.60 42.28605
827.70 42.74435
827.80 43.60314
827.90 44.46399
828.00 44.76567
828.10 44.57516
828.20 43.81231
828.30 42.57327
828.40 41.63933
828.50 41.02612
828.60 40.73108
828.70 41.10009
828.80 41.69952
828.90 41.74114
829.00 40.86105
829.10 39.32877
829.20 37.86925
829.30 37.38264
829.40 38.02069
829.50 38.94367
829.60 39.46402
829.70 39.69694
829.80 40.13435
829.90 40.4145
830.00 40.32494
830.10 39.4121
830.20 38.49927
830.30 37.53849
830.40 36.57771
830.50 36.18462
830.60 35.79153
830.70 36.12518
830.80 36.45882
830.90 37.41378
831.00 38.36874
831.10 38.74119
831.20 39.11363
831.30 39.04757
831.40 38.98152
831.50 38.70895
831.60 38.43639
831.70 39.12683
831.80 39.81726
831.90 40.43671
832.00 41.05616
832.10 41.27764
832.20 41.49912
832.30 42.00829
832.40 42.51747
832.50 42.72745
832.60 42.93742
832.70 41.72008
832.80 40.50273
832.90 39.50384
833.00 38.50495
833.10 40.1307
833.20 41.75645
833.30 42.42968
833.40 43.10291
833.50 41.70202
833.60 40.30113
833.70 39.59573
833.80 38.89034
833.90 39.36264
834.00 39.83493
834.10 40.45671
834.20 41.0785
834.30 41.80058
834.40 42.52266
834.50 42.07478
834.60 41.6269
834.70 40.27784
834.80 38.92878
834.90 39.16845
835.00 39.40811
835.10 40.03722
835.20 40.66633
835.30 40.65268
835.40 40.63902
835.50 40.54474
835.60 40.45046
835.70 40.36239
835.80 40.27431
835.90 41.12001
836.00 41.96572
836.10 42.27031
836.20 42.57491
836.30 41.86648
836.40 41.15806
836.50 40.57517
836.60 39.99229
836.70 40.59461
836.80 41.19694
836.90 42.55844
837.00 43.91994
837.10 44.94951
837.20 45.97907
837.30 44.17503
837.40 42.37098
837.50 40.6656
837.60 38.96022
837.70 38.59282
837.80 38.22542
837.90 38.86884
838.00 39.51226
838.10 40.06767
838.20 40.62308
838.30 40.60769
838.40 40.59229
838.50 39.92942
838.60 39.26656
838.70 38.11892
838.80 36.97129
838.90 35.88968
839.00 34.80807
839.10 35.71398
839.20 36.61989
839.30 37.53456
839.40 38.44924
839.50 38.4539
839.60 38.45855
839.70 38.50519
839.80 38.55182
839.90 38.93681
840.00 39.32179
840.10 40.76994
840.20 41.26323
840.30 41.5992
840.40 41.84344
840.50 42.04821
840.60 42.27581
840.70 42.50263
840.80 42.84916
840.90 43.13921
841.00 43.04566
841.10 42.72914
841.20 41.94354
841.30 41.18294
841.40 40.72752
841.50 41.81011
841.60 43.05112
841.70 43.82457
841.80 44.04052
841.90 43.54388
842.00 43.2521
842.10 42.53243
842.20 41.0702
842.30 39.8917
842.40 40.40307
842.50 41.19794
842.60 41.38782
842.70 41.06689
842.80 40.5211
842.90 39.72991
843.00 39.24747
843.10 39.71138
843.20 40.20544
843.30 39.03135
843.40 36.90138
843.50 33.93297
843.60 30.25496
843.70 27.03267
843.80 26.71031
843.90 26.96336
844.00 28.84131
844.10 30.97089
844.20 31.67387
844.30 30.78213
844.40 29.47109
844.50 27.548
844.60 25.66495
844.70 25.03541
844.80 24.61303
844.90 24.83169
845.00 25.69303
845.10 26.19455
845.20 25.45855
845.30 24.71106
845.40 23.14076
845.50 21.06056
845.60 19.91725
845.70 19.89558
845.80 19.99138
845.90 20.06553
846.00 20.13778
846.10 20.53188
846.20 21.04098
846.30 21.56692
846.40 21.88755
846.50 21.86908
846.60 21.58509
846.70 21.56615
846.80 21.35434
846.90 20.46584
847.00 20.03534
847.10 20.93499
847.20 21.71429
847.30 21.47753
847.40 21.16683
847.50 21.13045
847.60 21.21337
847.70 21.70245
847.80 22.70547
847.90 23.44265
848.00 23.32494
848.10 23.25736
848.20 23.2061
848.30 23.14746
848.40 23.24948
848.50 23.57188
848.60 23.96405
848.70 24.38633
848.80 24.7108
848.90 25.08661
849.00 25.58932
849.10 26.35146
849.20 27.00614
849.30 27.56065
849.40 27.8961
849.50 28.10552
849.60 27.17475
849.70 25.9233
849.80 24.85853
849.90 24.21919
850.00 24.03049
850.10 24.06429
850.20 23.96798
850.30 24.70967
850.40 25.9235
850.50 26.0788
850.60 25.09454
850.70 23.95762
850.80 23.30197
850.90 22.89191
851.00 23.21079
851.10 23.44705
851.20 24.06799
851.30 24.75964
851.40 24.8865
851.50 24.66056
851.60 24.42906
851.70 23.89452
851.80 23.47262
851.90 23.06525
852.00 22.32289
852.10 21.86865
852.20 21.92802
852.30 21.99225
852.40 22.3033
852.50 22.55715
852.60 23.28966
852.70 24.26604
852.80 24.99654
852.90 25.62871
853.00 26.13346
853.10 26.20685
853.20 26.24871
853.30 26.49666
853.40 26.72459
853.50 26.89155
853.60 27.40936
853.70 27.84454
853.80 27.63771
853.90 27.32937
854.00 27.25859
854.10 27.42382
854.20 27.40025
854.30 27.40641
854.40 27.48604
854.50 27.44136
854.60 27.45792
854.70 28.12942
854.80 29.1408
854.90 29.87264
855.00 30.17944
855.10 30.56233
855.20 31.16688
855.30 31.75103
855.40 31.98232
855.50 32.06498
855.60 32.16351
855.70 32.73578
855.80 33.14056
855.90 32.39084
856.00 31.40324
856.10 30.47583
856.20 29.7686
856.30 29.73819
856.40 29.91243
856.50 30.39579
856.60 31.19848
856.70 31.94169
856.80 32.41142
856.90 32.91911
857.00 32.88359
857.10 32.80246
857.20 32.52688
857.30 31.93977
857.40 31.45004
857.50 31.49814
857.60 31.41524
857.70 31.574
857.80 32.03778
857.90 32.65571
858.00 33.32864
858.10 33.69666
858.20 32.95139
858.30 32.19955
858.40 32.11232
858.50 32.42074
858.60 32.79005
858.70 32.80976
858.80 32.87875
858.90 32.952
859.00 33.10638
859.10 33.10595
859.20 33.19255
859.30 33.16596
859.40 33.0251
859.50 33.02103
859.60 33.61114
859.70 34.01289
859.80 34.33115
859.90 34.80546
860.00 35.04833
860.10 34.91318
860.20 34.8851
860.30 34.79829
860.40 34.51311
860.50 34.77544
860.60 35.80106
860.70 36.8378
860.80 37.03197
860.90 37.14651
861.00 36.9562
861.10 36.6479
861.20 36.17799
861.30 35.66013
861.40 35.03099
861.50 34.33268
861.60 33.884
861.70 33.52677
861.80 33.00103
861.90 32.89285
862.00 33.05458
862.10 33.54474
862.20 33.86147
862.30 34.19143
862.40 34.4125
862.50 34.37758
862.60 33.33134
862.70 32.46153
862.80 32.53799
862.90 32.63866
863.00 32.34569
863.10 32.1356
863.20 32.03825
863.30 32.4085
863.40 32.69079
863.50 33.10666
863.60 33.71426
863.70 33.96853
863.80 33.76597
863.90 33.61707
864.00 33.54669
864.10 33.53238
864.20 33.60936
864.30 34.01033
864.40 34.6829
864.50 35.18252
864.60 35.32075
864.70 34.64047
864.80 34.40044
864.90 34.2342
865.00 33.64967
865.10 33.58557
865.20 34.53155
865.30 35.42255
865.40 35.90476
865.50 36.29535
865.60 36.83803
865.70 37.33696
865.80 37.39879
865.90 37.22175
866.00 36.90047
866.10 36.13663
866.20 35.29812
866.30 34.56113
866.40 34.01172
866.50 34.51164
866.60 35.6319
866.70 36.86714
866.80 37.63399
866.90 38.18201
867.00 38.0364
867.10 37.56846
867.20 36.8751
867.30 36.7843
867.40 37.20006
867.50 37.73842
867.60 37.96473
867.70 37.96851
867.80 37.95852
867.90 38.13833
868.00 38.74042
868.10 39.0439
868.20 39.3668
868.30 39.62228
868.40 38.88952
868.50 37.78778
868.60 37.71828
868.70 38.58859
868.80 38.73215
868.90 37.6972
869.00 36.5296
869.10 35.3385
869.20 34.49297
869.30 33.85835
869.40 33.17915
869.50 32.43713
869.60 31.30335
869.70 30.45017
869.80 31.18279
869.90 32.02403
870.00 32.40372
870.10 32.37591
870.20 32.54656
870.30 33.03365
870.40 33.55877
870.50 34.15643
870.60 34.84432
870.70 35.67525
870.80 36.36661
870.90 35.9674
871.00 35.29538
871.10 34.57762
871.20 33.84793
871.30 33.00885
871.40 32.82662
871.50 33.1843
871.60 33.61024
871.70 33.4245
871.80 32.99922
871.90 32.54082
872.00 32.32318
872.10 32.76274
872.20 33.26591
872.30 33.62158
872.40 34.07911
872.50 34.49481
872.60 34.58955
872.70 34.80816
872.80 36.39075
872.90 38.12634
873.00 39.15641
873.10 39.65904
873.20 39.32031
873.30 38.3195
873.40 37.38308
873.50 36.68311
873.60 36.00407
873.70 35.9959
873.80 36.4694
873.90 36.91003
874.00 36.78494
874.10 36.81335
874.20 37.71969
874.30 38.6393
874.40 39.76688
874.50 40.88946
874.60 41.78149
874.70 42.33356
874.80 42.34624
874.90 40.86999
875.00 39.53252
875.10 38.91563
875.20 38.46154
875.30 39.21676
875.40 40.49384
875.50 41.55888
875.60 42.30086
875.70 43.0685
875.80 43.09837
875.90 42.57147
876.00 42.81022
876.10 43.84528
876.20 44.68721
876.30 44.65218
876.40 44.37669
876.50 43.13946
876.60 41.75843
876.70 40.91958
876.80 40.17162
876.90 39.82978
877.00 40.51673
877.10 41.58007
877.20 43.59906
877.30 45.63533
877.40 47.20117
877.50 48.34064
877.60 49.42252
877.70 50.68677
877.80 51.61838
877.90 49.7114
878.00 47.46456
878.10 45.59729
878.20 44.11709
878.30 44.00925
878.40 44.92804
878.50 45.71915
878.60 46.40676
878.70 46.96338
878.80 46.73847
878.90 46.4065
879.00 46.40491
879.10 47.00867
879.20 47.75294
879.30 48.66599
879.40 49.36982
879.50 49.36057
879.60 49.0625
879.70 49.664
879.80 50.92748
879.90 52.00171
880.00 52.09613
880.10 51.75182
880.20 48.8007
880.30 45.51868
880.40 43.44161
880.50 42.06067
880.60 41.50818
880.70 42.68448
880.80 43.72251
880.90 44.15064
881.00 44.75436
881.10 46.32438
881.20 47.77059
881.30 49.61874
881.40 51.4735
881.50 53.32112
881.60 54.471
881.70 55.42187
881.80 55.78975
881.90 56.18584
882.00 56.53959
882.10 56.50736
882.20 56.05748
882.30 53.79351
882.40 51.35796
882.50 49.09346
882.60 47.09956
882.70 46.56082
882.80 47.01804
882.90 47.56847
883.00 48.81669
883.10 50.19903
883.20 51.75364
883.30 53.51272
883.40 54.531
883.50 54.90877
883.60 55.11616
883.70 55.36157
883.80 55.58726
883.90 55.99091
884.00 56.0654
884.10 55.98658
884.20 56.55693
884.30 57.15663
884.40 57.10023
884.50 56.65322
884.60 54.94473
884.70 53.23742
884.80 51.65809
884.90 50.38425
885.00 49.62495
885.10 49.60056
885.20 49.73355
885.30 52.92381
885.40 56.46088
885.50 58.65073
885.60 60.42322
885.70 60.48846
885.80 58.01515
885.90 55.29426
886.00 51.7112
886.10 47.8496
886.20 43.98497
886.30 40.22206
886.40 38.42654
886.50 39.01146
886.60 39.99342
886.70 42.90449
886.80 45.40936
886.90 44.94354
887.00 43.76126
887.10 41.41014
887.20 37.9263
887.30 34.50831
887.40 33.52729
887.50 32.87205
887.60 33.80588
887.70 34.9009
887.80 36.59877
887.90 38.76708
888.00 40.78595
888.10 42.21696
888.20 43.50182
888.30 43.02883
888.40 42.30814
888.50 41.17856
888.60 39.77397
888.70 38.90152
888.80 39.05729
888.90 39.62759
889.00 41.49005
889.10 42.90791
889.20 43.3488
889.30 43.89115
889.40 44.10523
889.50 43.75429
889.60 43.27067
889.70 41.78551
889.80 39.92011
889.90 39.18197
890.00 39.09439
890.10 40.19988
890.20 42.85911
890.30 45.33385
890.40 46.6807
890.50 47.73766
890.60 48.37419
890.70 49.14851
890.80 49.10252
890.90 48.60123
891.00 48.03834
891.10 47.12924
891.20 45.84576
891.30 45.08215
891.40 44.70529
891.50 45.56758
891.60 47.3961
891.70 49.00276
891.80 49.06839
891.90 49.03859
892.00 49.60712
892.10 50.51401
892.20 50.89895
892.30 50.75654
892.40 50.29107
892.50 49.12772
892.60 48.03416
892.70 47.59243
892.80 47.09695
892.90 46.93907
893.00 47.36201
893.10 48.21348
893.20 50.11474
893.30 51.96107
893.40 53.60101
893.50 55.23261
893.60 55.62236
893.70 55.37271
893.80 53.76315
893.90 50.29852
894.00 46.93815
894.10 45.36017
894.20 43.97727
894.30 44.21221
894.40 44.99427
894.50 45.10755
894.60 44.41726
894.70 44.03409
894.80 45.61236
894.90 47.11028
895.00 47.9676
895.10 48.6716
895.20 48.65562
895.30 48.18092
895.40 47.51973
895.50 47.2866
895.60 47.24171
895.70 48.53277
895.80 50.02118
895.90 50.80305
896.00 51.15936
896.10 51.27991
896.20 50.53612
896.30 49.80621
896.40 49.67658
896.50 49.99583
896.60 50.17933
896.70 49.75969
896.80 49.15949
896.90 48.53881
897.00 47.99046
897.10 48.95737
897.20 50.28035
897.30 51.02217
897.40 51.07186
897.50 51.35543
897.60 52.39013
897.70 53.58115
897.80 54.82528
897.90 56.10437
898.00 55.75341
898.10 54.24897
898.20 52.79386
898.30 51.88862
898.40 51.49758
898.50 53.56342
898.60 55.39032
898.70 56.86918
898.80 58.58174
898.90 59.16194
899.00 58.43903
899.10 57.54233
899.20 56.78589
899.30 55.82045
899.40 55.28319
899.50 54.83578
899.60 54.26966
899.70 54.05531
899.80 53.8357
899.90 53.13306
900.00 52.17412
900.10 51.29907
900.20 50.57203
900.30 51.99851
900.40 54.40382
900.50 56.51077
900.60 58.40221
900.70 60.1176
900.80 59.95781
900.90 59.97063
901.00 59.23313
901.10 57.58727
901.20 56.64812
901.30 57.42092
901.40 58.43152
901.50 58.79955
901.60 58.92973
901.70 58.49763
901.80 57.96732
901.90 57.05875
902.00 56.17334
902.10 55.29152
902.20 54.2512
902.30 53.13448
902.40 52.12049
902.50 50.98569
902.60 50.00366
902.70 49.46308
902.80 49.08258
902.90 49.06107
903.00 49.1282
903.10 50.16615
903.20 51.59411
903.30 52.85087
903.40 53.95326
903.50 55.25064
903.60 56.49742
903.70 57.58144
903.80 58.43256
903.90 59.39865
904.00 60.2001
904.10 61.10225
904.20 61.36511
904.30 60.40565
904.40 59.34063
904.50 58.56472
904.60 57.97697
904.70 58.68724
904.80 60.02349
904.90 61.21545
905.00 62.29074
905.10 63.16368
905.20 61.61619
905.30 60.13132
905.40 59.16985
905.50 58.48627
905.60 58.04505
905.70 57.47083
905.80 56.82924
905.90 56.59838
906.00 56.43279
906.10 56.52151
906.20 56.71139
906.30 57.5105
906.40 58.79463
906.50 59.8248
906.60 58.86076
906.70 57.69743
906.80 56.68552
906.90 55.98438
907.00 55.4345
907.10 54.77524
907.20 54.59211
907.30 55.73115
907.40 57.01718
907.50 57.64913
907.60 58.07655
907.70 58.68334
907.80 58.92184
907.90 59.60034
908.00 61.71643
908.10 63.97136
908.20 64.65422
908.30 64.91868
908.40 63.85118
908.50 62.25047
908.60 61.48108
908.70 61.91288
908.80 62.3038
908.90 61.94148
909.00 61.18953
909.10 60.56289
909.20 60.40193
909.30 60.78373
909.40 61.7761
909.50 62.72012
909.60 63.4274
909.70 64.12374
909.80 64.39532
909.90 64.3606
910.00 64.50417
910.10 65.23257
910.20 65.72401
910.30 65.30824
910.40 64.87114
910.50 64.14045
910.60 63.1549
910.70 61.95483
910.80 61.29188
910.90 61.16562
911.00 62.4287
911.10 63.54557
911.20 64.63261
911.30 65.77642
911.40 66.61337
911.50 67.47498
911.60 67.74022
911.70 66.68947
911.80 65.49543
911.90 65.1162
912.00 65.04036
912.10 65.56507
912.20 66.43407
912.30 67.0705
912.40 66.9749
912.50 66.79222
912.60 66.45292
912.70 66.19102
912.80 66.33662
912.90 66.68012
913.00 67.1721
913.10 67.51298
913.20 67.72281
913.30 68.54582
913.40 69.56043
913.50 70.19415
913.60 70.39296
913.70 69.60219
913.80 68.47255
913.90 67.11468
914.00 65.38184
914.10 63.82796
914.20 62.99506
914.30 62.04119
914.40 62.72383
914.50 64.04469
914.60 65.45061
914.70 66.89179
914.80 68.12218
914.90 67.29414
915.00 66.4097
915.10 65.47549
915.20 64.31137
915.30 64.18906
915.40 65.8619
915.50 67.83969
915.60 70.61457
915.70 72.95998
915.80 73.77552
915.90 74.7037
916.00 74.45705
916.10 73.24636
916.20 72.03361
916.30 70.29173
916.40 68.49236
916.50 68.32044
916.60 68.70601
916.70 69.78162
916.80 71.01625
916.90 71.89768
917.00 72.165
917.10 72.66953
917.20 72.65757
917.30 72.25192
917.40 71.32848
917.50 70.27695
917.60 69.3993
917.70 69.16467
917.80 69.04431
917.90 69.31581
918.00 69.56179
918.10 69.92484
918.20 70.61747
918.30 71.1854
918.40 71.3922
918.50 71.43934
918.60 70.46394
918.70 69.58293
918.80 70.21252
918.90 70.65547
919.00 72.15269
919.10 75.49869
919.20 78.47643
919.30 77.56785
919.40 76.68323
919.50 74.56617
919.60 71.6723
919.70 70.70912
919.80 71.50609
919.90 72.45667
920.00 73.82147
920.10 75.15187
920.20 74.70346
920.30 73.68562
920.40 73.39795
920.50 73.87857
920.60 73.9122
920.70 73.31743
920.80 72.65052
920.90 69.89378
921.00 66.6318
921.10 64.78669
921.20 64.25549
921.30 64.59368
921.40 65.30445
921.50 65.85745
921.60 66.08491
921.70 66.54732
921.80 67.02534
921.90 67.66693
922.00 67.39478
922.10 66.63862
922.20 66.15005
922.30 65.86914
922.40 65.34981
922.50 64.61867
922.60 63.97735
922.70 64.13323
922.80 64.90941
922.90 65.7705
923.00 66.03765
923.10 65.86151
923.20 63.88398
923.30 61.6125
923.40 60.15962
923.50 60.10064
923.60 60.57034
923.70 61.39959
923.80 61.94419
923.90 61.83854
924.00 61.64857
924.10 61.72611
924.20 61.94831
924.30 63.12247
924.40 65.34118
924.50 67.13879
924.60 66.71027
924.70 66.1331
924.80 64.88046
924.90 62.95494
925.00 61.66327
925.10 61.5493
925.20 61.61772
925.30 61.52463
925.40 61.38124
925.50 61.83774
925.60 62.56982
925.70 64.32018
925.80 66.67272
925.90 68.73132
926.00 68.60299
926.10 68.34248
926.20 67.26086
926.30 66.24021
926.40 65.62891
926.50 65.28698
926.60 65.51221
926.70 67.49478
926.80 69.53453
926.90 70.23493
927.00 70.56967
927.10 70.24514
927.20 69.57064
927.30 68.66244
927.40 67.33403
927.50 65.91534
927.60 64.42733
927.70 63.15639
927.80 61.98321
927.90 60.53668
928.00 59.62743
928.10 60.02029
928.20 60.61551
928.30 61.4895
928.40 62.53604
928.50 63.92817
928.60 65.43777
928.70 65.80294
928.80 64.69094
928.90 63.5017
929.00 63.25041
929.10 63.02803
929.20 62.45646
929.30 61.68076
929.40 61.48988
929.50 61.69707
929.60 61.95215
929.70 62.68678
929.80 63.41321
929.90 62.72812
930.00 61.83517
930.10 60.72831
930.20 58.85445
930.30 57.65811
930.40 58.22509
930.50 58.95731
930.60 59.31294
930.70 59.64864
930.80 59.74676
930.90 59.69618
931.00 60.04621
931.10 60.85691
931.20 61.97512
931.30 63.29996
931.40 64.5053
931.50 64.69254
931.60 64.71007
931.70 63.71022
931.80 62.88039
931.90 62.29297
932.00 62.1282
932.10 62.82912
932.20 63.33206
932.30 63.27881
932.40 63.23256
932.50 63.07201
932.60 62.37054
932.70 61.86519
932.80 61.62703
932.90 61.76646
933.00 61.86034
933.10 62.14885
933.20 62.35217
933.30 62.54515
933.40 62.8435
933.50 63.18951
933.60 63.09759
933.70 62.86621
933.80 62.87287
933.90 63.50039
934.00 64.15169
934.10 64.40334
934.20 64.13562
934.30 63.49973
934.40 63.32236
934.50 63.70741
934.60 63.73038
934.70 63.76438
934.80 64.5113
934.90 65.35707
935.00 65.58772
935.10 64.70881
935.20 63.83184
935.30 63.19878
935.40 62.88731
935.50 62.61058
935.60 62.49317
935.70 62.44431
935.80 62.39689
935.90 63.27056
936.00 64.1637
936.10 65.25898
936.20 66.47185
936.30 67.63194
936.40 67.74129
936.50 67.12795
936.60 66.5179
936.70 66.35712
936.80 66.23718
936.90 65.97014
937.00 65.044
937.10 64.11675
937.20 63.43551
937.30 63.24798
937.40 63.15922
937.50 63.02024
937.60 63.06377
937.70 63.1477
937.80 63.25086
937.90 63.34484
938.00 63.48587
938.10 63.51479
938.20 63.5179
938.30 63.49635
938.40 63.5869
938.50 63.78778
938.60 63.92349
938.70 64.0804
938.80 64.24757
938.90 64.66908
939.00 65.09028
939.10 65.58762
939.20 65.9677
939.30 66.31307
939.40 66.39632
939.50 66.40327
939.60 66.27116
939.70 65.23945
939.80 64.14102
939.90 63.4259
940.00 63.77594
940.10 64.15514
940.20 64.54237
940.30 64.77469
940.40 64.93553
940.50 65.48327
940.60 66.16071
940.70 66.99446
940.80 67.96458
940.90 68.93075
941.00 69.61252
941.10 69.75374
941.20 69.7861
941.30 69.25905
941.40 68.54052
941.50 67.7875
941.60 66.75679
941.70 65.68574
941.80 64.99205
941.90 64.92653
942.00 64.84448
942.10 65.02413
942.20 65.57987
942.30 66.14045
942.40 66.21415
942.50 66.17111
942.60 66.18254
942.70 65.75493
942.80 65.3279
942.90 65.40865
943.00 66.55679
943.10 67.80556
943.20 68.93824
943.30 69.94993
943.40 70.79082
943.50 70.73352
943.60 70.58899
943.70 70.3589
943.80 69.78135
943.90 69.19911
944.00 68.30591
944.10 67.287
944.20 66.31915
944.30 66.03518
944.40 65.90852
944.50 65.66154
944.60 65.86441
944.70 66.0648
944.80 66.39948
944.90 66.59031
945.00 66.79222
945.10 67.31455
945.20 67.87793
945.30 68.39623
945.40 68.07085
945.50 67.66841
945.60 67.3793
945.70 67.56259
945.80 67.72218
945.90 67.3969
946.00 66.79257
946.10 66.29651
946.20 66.82227
946.30 67.66924
946.40 68.76612
946.50 69.15096
946.60 69.54839
946.70 69.48475
946.80 69.51654
946.90 69.57627
947.00 69.97208
947.10 70.43272
947.20 70.84819
947.30 70.83591
947.40 70.81082
947.50 70.92638
947.60 71.43212
947.70 71.93655
947.80 72.12088
947.90 72.04532
948.00 72.00607
948.10 72.52613
948.20 73.09454
948.30 73.51573
948.40 74.08578
948.50 74.65512
948.60 74.97959
948.70 74.61865
948.80 74.21785
948.90 74.19979
949.00 74.39459
949.10 74.69239
949.20 74.94947
949.30 75.20768
949.40 75.09742
949.50 74.15832
949.60 73.21683
949.70 72.54594
949.80 72.50283
949.90 72.65245
950.00 73.22475
950.10 73.72464
950.20 74.15844
950.30 74.76096
950.40 75.37123
950.50 75.32336
950.60 74.62089
950.70 73.9756
950.80 73.8178
950.90 73.91698
951.00 74.09808
951.10 74.16452
951.20 74.21938
951.30 74.16868
951.40 73.73621
951.50 73.30019
951.60 72.79977
951.70 72.39169
951.80 71.97724
951.90 71.57101
952.00 71.19095
952.10 70.90252
952.20 71.40174
952.30 71.89802
952.40 72.82237
952.50 74.14466
952.60 75.45463
952.70 76.34546
952.80 76.98153
952.90 77.4626
953.00 77.14668
953.10 76.74174
953.20 76.33853
953.30 75.95161
953.40 75.56306
953.50 74.80827
953.60 73.69287
953.70 72.5722
953.80 72.41342
953.90 72.56207
954.00 72.83969
954.10 72.48323
954.20 72.11919
954.30 71.77247
954.40 71.67792
954.50 71.51497
954.60 71.49773
954.70 71.69111
954.80 72.03516
954.90 72.25706
955.00 72.4163
955.10 72.70713
955.20 72.94469
955.30 73.16013
955.40 73.40351
955.50 73.78549
955.60 74.19615
955.70 75.10162
955.80 76.13993
955.90 77.12929
956.00 77.66613
956.10 78.2057
956.20 78.12931
956.30 77.19316
956.40 76.19424
956.50 75.62239
956.60 75.27692
956.70 75.16635
956.80 75.94116
956.90 76.8191
957.00 77.38297
957.10 77.69727
957.20 78.03231
957.30 77.99119
957.40 77.42793
957.50 76.74342
957.60 75.9071
957.70 75.01036
957.80 74.13526
957.90 73.52968
958.00 72.92067
958.10 73.04287
958.20 73.77449
958.30 74.44185
958.40 74.82632
958.50 75.13466
958.60 75.42889
958.70 74.93441
958.80 74.3842
958.90 73.38681
959.00 71.73842
959.10 70.12739
959.20 69.70406
959.30 70.26678
959.40 70.95288
959.50 71.64719
959.60 72.32848
959.70 72.39706
959.80 70.76572
959.90 69.14344
960.00 67.75915
960.10 66.81753
960.20 66.14606
960.30 67.07091
960.40 68.57527
960.50 70.31369
960.60 71.7306
960.70 73.12891
960.80 73.96641
960.90 74.29751
961.00 74.57062
961.10 74.4952
961.20 74.29823
961.30 74.05807
961.40 73.59835
961.50 73.04631
961.60 72.47295
961.70 72.35655
961.80 72.27168
961.90 73.13738
962.00 74.74272
962.10 76.27372
962.20 76.89673
962.30 77.12624
962.40 77.13226
962.50 76.61971
962.60 76.08724
962.70 75.8862
962.80 75.92429
962.90 75.92829
963.00 75.91589
963.10 75.83723
963.20 75.68717
963.30 74.70297
963.40 73.66373
963.50 72.51618
963.60 71.15812
963.70 69.72118
963.80 67.02493
963.90 63.58579
964.00 60.51403
964.10 60.13249
964.20 60.66945
964.30 62.16779
964.40 65.07018
964.50 67.982
964.60 69.5035
964.70 69.84317
964.80 70.1101
964.90 70.10553
965.00 70.07391
965.10 70.25264
965.20 70.58093
965.30 70.87733
965.40 71.22399
965.50 71.61818
965.60 71.99215
965.70 72.55079
965.80 73.51407
965.90 74.48802
966.00 75.34006
966.10 76.1367
966.20 76.9639
966.30 77.38731
966.40 77.81085
966.50 77.81623
966.60 77.39884
966.70 76.91346
966.80 76.51684
966.90 76.24418
967.00 76.16039
967.10 76.22789
967.20 76.29954
967.30 75.92479
967.40 75.12842
967.50 74.24348
967.60 72.34108
967.70 69.82143
967.80 67.75767
967.90 68.05132
968.00 68.85349
968.10 70.31453
968.20 72.91359
968.30 75.49059
968.40 76.43954
968.50 75.88016
968.60 75.25359
968.70 74.21041
968.80 73.04121
968.90 71.71557
969.00 71.25959
969.10 70.85029
969.20 71.37272
969.30 72.82285
969.40 74.31489
969.50 75.80739
969.60 77.13276
969.70 78.23115
969.80 78.42164
969.90 78.4981
970.00 78.5927
970.10 78.91939
970.20 79.22852
970.30 78.95277
970.40 78.19567
970.50 77.15666
970.60 74.96308
970.70 72.38898
970.80 70.28827
970.90 70.42715
971.00 70.5742
971.10 72.1739
971.20 74.95477
971.30 77.61956
971.40 79.46301
971.50 80.89959
971.60 82.13103
971.70 82.38326
971.80 82.54814
971.90 82.33346
972.00 81.42678
972.10 80.52432
972.20 79.69578
972.30 78.88583
972.40 78.22143
972.50 78.20714
972.60 78.38005
972.70 78.19392
972.80 76.98798
972.90 75.79693
973.00 74.10738
973.10 72.08959
973.20 70.4393
973.30 70.94073
973.40 72.35829
973.50 73.75577
973.60 74.68843
973.70 75.55074
973.80 75.89743
973.90 75.93798
974.00 75.9834
974.10 75.78614
974.20 75.30809
974.30 74.59581
974.40 72.95807
974.50 71.13711
974.60 69.70429
974.70 69.82116
974.80 69.97355
974.90 70.92795
975.00 72.08161
975.10 73.09511
975.20 73.74468
975.30 74.33382
975.40 74.91798
975.50 75.91302
975.60 76.90556
975.70 77.47617
975.80 77.5198
975.90 77.6348
976.00 77.89798
976.10 78.08288
976.20 78.06042
976.30 77.59213
976.40 77.06724
976.50 76.97453
976.60 77.98646
976.70 78.97089
976.80 79.39454
976.90 79.35054
977.00 79.07243
977.10 77.3418
977.20 75.15316
977.30 73.3579
977.40 73.82414
977.50 74.26301
977.60 75.45084
977.70 76.96494
977.80 78.36412
977.90 78.79585
978.00 78.76067
978.10 78.3949
978.20 77.14402
978.30 75.81637
978.40 73.85162
978.50 71.48627
978.60 69.29452
978.70 68.67653
978.80 68.85589
978.90 69.17287
979.00 69.94105
979.10 70.78891
979.20 72.08912
979.30 74.69306
979.40 77.28052
979.50 79.02278
979.60 79.79387
979.70 80.33245
979.80 80.39128
979.90 80.39456
980.00 80.55516
980.10 80.72977
980.20 80.90711
980.30 80.98801
980.40 80.98444
980.50 80.97091
980.60 80.74687
980.70 80.36652
980.80 79.98653
980.90 79.9838
981.00 80.05508
981.10 80.34074
981.20 81.16498
981.30 81.96317
981.40 81.74268
981.50 80.42192
981.60 79.01733
981.70 77.98666
981.80 77.14135
981.90 76.65881
982.00 77.60074
982.10 78.54258
982.20 78.96478
982.30 78.7712
982.40 78.6016
982.50 78.61659
982.60 78.72926
982.70 78.90856
982.80 79.19392
982.90 79.48713
983.00 79.40651
983.10 78.77947
983.20 78.17472
983.30 77.96766
983.40 78.07785
983.50 78.15504
983.60 77.7975
983.70 77.32307
983.80 76.90565
983.90 77.24482
984.00 77.60262
984.10 78.23294
984.20 78.8213
984.30 79.35601
984.40 79.30659
984.50 79.01667
984.60 78.72864
984.70 79.37289
984.80 80.05359
984.90 80.46453
985.00 80.19168
985.10 79.84466
985.20 79.11594
985.30 78.24926
985.40 77.55323
985.50 77.95915
985.60 78.53375
985.70 79.21643
985.80 79.68866
985.90 80.12941
986.00 80.22227
986.10 80.16548
986.20 80.12398
986.30 80.13968
986.40 80.16819
986.50 80.34296
986.60 80.90293
986.70 81.45615
986.80 81.17611
986.90 80.00239
987.00 78.84868
987.10 78.05793
987.20 77.45661
987.30 77.24134
987.40 78.87688
987.50 80.67141
987.60 82.01097
987.70 82.48922
987.80 82.87782
987.90 82.15798
988.00 80.6712
988.10 79.24802
988.20 78.94364
988.30 78.8827
988.40 79.2802
988.50 80.90381
988.60 82.51337
988.70 83.44809
988.80 83.54928
988.90 83.55314
989.00 82.97641
989.10 82.20054
989.20 81.38333
989.30 80.49298
989.40 79.61086
989.50 78.08576
989.60 75.84757
989.70 73.40578
989.80 70.1251
989.90 66.57105
990.00 63.54448
990.10 62.34819
990.20 61.3463
990.30 60.19903
990.40 58.55157
990.50 56.84548
990.60 54.45251
990.70 51.59969
990.80 48.94059
990.90 48.04863
991.00 47.61232
991.10 47.67558
991.20 48.57022
991.30 49.43485
991.40 49.24006
991.50 47.90875
991.60 46.58097
991.70 45.83617
991.80 45.36002
991.90 45.39229
992.00 47.40447
992.10 49.49215
992.20 50.77916
992.30 50.74539
992.40 50.55373
992.50 49.51746
992.60 48.1524
992.70 47.25536
992.80 48.43075
992.90 49.8707
993.00 51.67906
993.10 54.19026
993.20 56.6132
993.30 57.41738
993.40 56.87733
993.50 56.25259
993.60 55.83723
993.70 55.46857
993.80 55.8033
993.90 58.82788
994.00 61.83826
994.10 64.09303
994.20 65.20881
994.30 66.09382
994.40 65.85749
994.50 65.22985
994.60 64.67737
994.70 64.67867
994.80 64.69731
994.90 65.25284
995.00 66.36672
995.10 67.46367
995.20 68.52367
995.30 69.62293
995.40 70.68571
995.50 71.18202
995.60 71.59065
995.70 71.18668
995.80 69.17175
995.90 67.20275
996.00 65.99018
996.10 65.35779
996.20 64.91201
996.30 65.80891
996.40 67.12467
996.50 68.75433
996.60 71.40196
996.70 74.04739
996.80 74.6726
996.90 72.82479
997.00 70.67016
997.10 67.2533
997.20 63.4085
997.30 60.00052
997.40 58.88973
997.50 57.90994
997.60 58.07524
997.70 59.7214
997.80 61.3819
997.90 63.01699
998.00 64.59498
998.10 66.11964
998.20 66.95185
998.30 67.66123
998.40 67.46744
998.50 65.6244
998.60 63.81019
998.70 62.73646
998.80 62.41696
998.90 62.27115
999.00 62.18823
999.10 62.02427
999.20 61.74463
999.30 61.58365
999.40 61.41383
999.50 61.76681
999.60 62.72577
999.70 63.55145
999.80 63.43504
999.90 62.78974
1000.00 62.5367
1000.10 64.61873
1000.20 66.90697
1000.30 69.12092
1000.40 70.97763
1000.50 72.74343
1000.60 73.47713
1000.70 73.69605
1000.80 73.64591
1000.90 71.94841
1001.00 69.9325
1001.10 67.95611
1001.20 66.19732
1001.30 64.51257
1001.40 64.71723
1001.50 66.41456
1001.60 68.17752
1001.70 70.08623
1001.80 72.0037
1001.90 73.50418
1002.00 72.98357
1002.10 72.55299
1002.20 71.87187
1002.30 71.08659
1002.40 70.49069
1002.50 71.25308
1002.60 72.64138
1002.70 73.88443
1002.80 73.39335
1002.90 72.74197
1003.00 71.82636
1003.10 71.37281
1003.20 70.94697
1003.30 70.33457
1003.40 69.43855
1003.50 68.4691
1003.60 67.25992
1003.70 66.02432
1003.80 65.09823
1003.90 65.16471
1004.00 65.28965
1004.10 66.67701
1004.20 68.84744
1004.30 71.01802
1004.40 72.85802
1004.50 74.66962
1004.60 76.00994
1004.70 75.84246
1004.80 75.71893
1004.90 74.5845
1005.00 72.25811
1005.10 69.82017
1005.20 66.80199
1005.30 63.56978
1005.40 60.5295
1005.50 58.88646
1005.60 57.28972
1005.70 56.78197
1005.80 58.03846
1005.90 59.35792
1006.00 61.05181
1006.10 62.84788
1006.20 64.44645
1006.30 64.49198
1006.40 64.29772
1006.50 64.2601
1006.60 64.79514
1006.70 65.37108
1006.80 67.0579
1006.90 69.64202
1007.00 72.05696
1007.10 72.38499
1007.20 72.06785
1007.30 71.39796
1007.40 70.85577
1007.50 70.27298
1007.60 70.82122
1007.70 72.47729
1007.80 74.12796
1007.90 75.10732
1008.00 75.71709
1008.10 76.14603
1008.20 76.35806
1008.30 76.56577
1008.40 76.81143
1008.50 77.12164
1008.60 77.45437
1008.70 77.44416
1008.80 77.16002
1008.90 76.55189
1009.00 74.51248
1009.10 72.18673
1009.20 70.15847
1009.30 69.11778
1009.40 68.1318
1009.50 68.61802
1009.60 70.2166
1009.70 71.85103
1009.80 73.97453
1009.90 76.27395
1010.00 78.60113
1010.10 80.99967
1010.20 83.42106
1010.30 85.01085
1010.40 85.28115
1010.50 85.36283
1010.60 84.44875
1010.70 83.15791
1010.80 81.81521
1010.90 80.61421
1011.00 79.47187
1011.10 78.02578
1011.20 75.83795
1011.30 73.70988
1011.40 72.5127
1011.50 71.96534
1011.60 71.4584
1011.70 70.73501
1011.80 69.94666
1011.90 69.42192
1012.00 69.82445
1012.10 70.30612
1012.20 72.54667
1012.30 76.0678
1012.40 79.39713
1012.50 81.39219
1012.60 83.0718
1012.70 84.28516
1012.80 83.08786
1012.90 81.88329
1013.00 81.27082
1013.10 81.32032
1013.20 81.28666
1013.30 80.58218
1013.40 79.70605
1013.50 78.41259
1013.60 74.69755
1013.70 70.7411
1013.80 67.64261
1013.90 66.50201
1014.00 65.52916
1014.10 66.35683
1014.20 68.12131
1014.30 70.01331
1014.40 71.85467
1014.50 73.70513
1014.60 74.59765
1014.70 73.27964
1014.80 71.96444
1014.90 71.17259
1015.00 70.99175
1015.10 71.2799
1015.20 73.66884
1015.30 76.69511
1015.40 79.12514
1015.50 78.37981
1015.60 77.73253
1015.70 75.91553
1015.80 73.30398
1015.90 70.87978
1016.00 70.10772
1016.10 70.02309
1016.20 70.27114
1016.30 71.29573
1016.40 72.38411
1016.50 73.10691
1016.60 73.52508
1016.70 74.00007
1016.80 74.85874
1016.90 75.95775
1017.00 76.71882
1017.10 75.31119
1017.20 73.47002
1017.30 72.25807
1017.40 73.31689
1017.50 74.43127
1017.60 76.7514
1017.70 79.95051
1017.80 82.65272
1017.90 81.4322
1018.00 78.96979
1018.10 76.37445
1018.20 75.06515
1018.30 73.73278
1018.40 72.73946
1018.50 71.60992
1018.60 70.5009
1018.70 69.91115
1018.80 69.57473
1018.90 69.69469
1019.00 71.51237
1019.10 73.44987
1019.20 75.00768
1019.30 76.0385
1019.40 76.94784
1019.50 77.02606
1019.60 76.55834
1019.70 76.19839
1019.80 76.34908
1019.90 76.611
1020.00 76.63768
1020.10 76.0877
1020.20 75.58123
1020.30 75.58278
1020.40 76.0565
1020.50 76.58685
1020.60 77.27608
1020.70 77.96857
1020.80 78.58226
1020.90 78.7863
1021.00 79.02388
1021.10 78.69452
1021.20 77.49795
1021.30 76.12826
1021.40 74.22975
1021.50 72.18577
1021.60 70.30334
1021.70 69.08433
1021.80 67.93062
1021.90 66.95583
1022.00 66.34716
1022.10 65.81228
1022.20 66.10755
1022.30 66.57335
1022.40 67.49705
1022.50 69.937
1022.60 72.54044
1022.70 74.20194
1022.80 74.71432
1022.90 75.18838
1023.00 75.0331
1023.10 74.58815
1023.20 74.03391
1023.30 73.31277
1023.40 72.40104
1023.50 72.25548
1023.60 74.00316
1023.70 75.73417
1023.80 76.99916
1023.90 77.60393
1024.00 78.09282
1024.10 78.80998
1024.20 79.70549
1024.30 80.72723
1024.40 80.8629
1024.50 81.13737
1024.60 80.24451
1024.70 78.49679
1024.80 76.87215
1024.90 76.04286
1025.00 75.4835
1025.10 74.78049
1025.20 73.17524
1025.30 71.54546
1025.40 70.51775
1025.50 70.53186
1025.60 70.65871
1025.70 71.34969
1025.80 72.38146
1025.90 72.88696
1026.00 70.61526
1026.10 67.86998
1026.20 65.3948
1026.30 64.2217
1026.40 63.06112
1026.50 63.37882
1026.60 64.43172
1026.70 65.7557
1026.80 68.72514
1026.90 72.27726
1027.00 75.3876
1027.10 76.41299
1027.20 77.53528
1027.30 77.49853
1027.40 76.22705
1027.50 74.92523
1027.60 73.39933
1027.70 71.69964
1027.80 70.25038
1027.90 70.19105
1028.00 70.28099
1028.10 69.89567
1028.20 68.83908
1028.30 67.76355
1028.40 66.68202
1028.50 65.50162
1028.60 64.88449
1028.70 67.33925
1028.80 70.36852
1028.90 73.40829
1029.00 75.35592
1029.10 77.10324
1029.20 76.96777
1029.30 75.47879
1029.40 74.05759
1029.50 73.81823
1029.60 73.72472
1029.70 73.82771
1029.80 73.47411
1029.90 73.09333
1030.00 72.46128
1030.10 72.10704
1030.20 71.77959
1030.30 71.826
1030.40 71.82063
1030.50 72.25942
1030.60 74.36421
1030.70 76.36443
1030.80 77.142
1030.90 76.92947
1031.00 76.60642
1031.10 76.01432
1031.20 75.20991
1031.30 74.76382
1031.40 75.84908
1031.50 77.09066
1031.60 77.48319
1031.70 76.50674
1031.80 75.47049
1031.90 74.25733
1032.00 72.9368
1032.10 71.9069
1032.20 72.08543
1032.30 72.47597
1032.40 72.38959
1032.50 70.99753
1032.60 69.66577
1032.70 70.12535
1032.80 72.00343
1032.90 74.06971
1033.00 76.6787
1033.10 79.45015
1033.20 81.92045
1033.30 82.97877
1033.40 84.15119
1033.50 83.45144
1033.60 80.61089
1033.70 77.64402
1033.80 74.85894
1033.90 72.18754
1034.00 69.99478
1034.10 69.96887
1034.20 69.99409
1034.30 69.80308
1034.40 69.0946
1034.50 68.38555
1034.60 68.00177
1034.70 67.73717
1034.80 67.95292
1034.90 69.73676
1035.00 71.98225
1035.10 73.1179
1035.20 72.12567
1035.30 71.1713
1035.40 71.25961
1035.50 72.14183
1035.60 73.04373
1035.70 73.85142
1035.80 74.57959
1035.90 75.48659
1036.00 77.09818
1036.10 78.71365
1036.20 80.12216
1036.30 81.14607
1036.40 81.98825
1036.50 82.02648
1036.60 81.93819
1036.70 81.88512
1036.80 82.04728
1036.90 82.12447
1037.00 82.79167
1037.10 84.10448
1037.20 85.42669
1037.30 86.53123
1037.40 87.62616
1037.50 88.42632
1037.60 87.29745
1037.70 86.1841
1037.80 84.18102
1037.90 80.90762
1038.00 77.66597
1038.10 75.05909
1038.20 72.62439
1038.30 70.73723
1038.40 71.58402
1038.50 72.79924
1038.60 74.36121
1038.70 76.53405
1038.80 78.64232
1038.90 79.28342
1039.00 78.77919
1039.10 78.20241
1039.20 77.61029
1039.30 76.99664
1039.40 76.37457
1039.50 75.69076
1039.60 75.008
1039.70 74.5169
1039.80 74.36852
1039.90 74.40998
1040.00 75.07571
1040.10 75.7105
1040.20 76.56201
1040.30 78.43139
1040.40 80.44159
1040.50 81.85092
1040.60 82.44379
1040.70 82.99089
1040.80 83.45342
1040.90 83.99977
1041.00 84.3784
1041.10 83.02064
1041.20 81.63708
1041.30 79.8527
1041.40 77.61868
1041.50 75.51006
1041.60 75.50641
1041.70 76.58217
1041.80 78.04533
1041.90 80.98439
1042.00 84.3689
1042.10 86.61857
1042.20 85.28617
1042.30 83.99744
1042.40 82.16875
1042.50 80.31824
1042.60 78.39018
1042.70 75.92343
1042.80 73.23253
1042.90 70.91176
1043.00 70.71332
1043.10 70.3818
1043.20 72.22852
1043.30 76.24849
1043.40 80.13918
1043.50 82.76031
1043.60 85.07608
1043.70 86.86674
1043.80 86.37284
1043.90 85.65294
1044.00 85.20675
1044.10 85.31946
1044.20 85.43255
1044.30 85.3866
1044.40 85.35615
1044.50 85.23411
1044.60 84.91142
1044.70 84.5173
1044.80 84.47058
1044.90 84.62381
1045.00 84.80964
1045.10 86.3706
1045.20 88.7309
1045.30 91.00556
1045.40 92.63699
1045.50 94.36183
1045.60 95.70631
1045.70 95.74029
1045.80 95.84095
1045.90 94.47744
1046.00 92.0769
1046.10 89.67322
1046.20 87.14903
1046.30 84.35159
1046.40 81.79175
1046.50 81.05263
1046.60 80.2572
1046.70 79.27374
1046.80 78.40612
1046.90 77.5495
1047.00 76.49138
1047.10 75.14587
1047.20 74.09455
1047.30 74.70979
1047.40 75.45304
1047.50 76.2767
1047.60 76.97274
1047.70 77.64403
1047.80 77.79597
1047.90 77.6413
1048.00 77.41403
1048.10 77.22256
1048.20 76.90588
1048.30 77.36119
1048.40 79.38889
1048.50 81.38659
1048.60 82.47136
1048.70 82.98139
1048.80 83.38003
1048.90 83.28075
1049.00 83.04203
1049.10 82.8892
1049.20 83.35132
1049.30 83.79608
1049.40 83.89545
1049.50 83.74575
1049.60 83.29812
1049.70 81.01179
1049.80 78.25766
1049.90 76.0819
1050.00 76.8359
1050.10 77.42688
1050.20 78.64096
1050.30 80.03104
1050.40 81.20259
1050.50 81.41122
1050.60 81.36159
1050.70 81.25478
1050.80 81.01837
1050.90 80.74431
1051.00 80.50542
1051.10 80.12045
1051.20 79.56622
1051.30 78.06963
1051.40 76.08002
1051.50 74.31675
1051.60 74.17594
1051.70 74.24552
1051.80 74.58846
1051.90 74.8176
1052.00 75.02002
1052.10 75.00214
1052.20 74.85303
1052.30 74.78556
1052.40 75.63303
1052.50 76.64292
1052.60 78.10016
1052.70 80.30322
1052.80 82.47645
1052.90 83.49259
1053.00 83.64722
1053.10 83.56028
1053.20 82.58276
1053.30 81.29334
1053.40 80.32694
1053.50 81.27937
1053.60 82.16902
1053.70 82.69778
1053.80 82.71766
1053.90 82.61208
1054.00 81.82067
1054.10 80.68679
1054.20 79.88802
1054.30 80.9369
1054.40 82.16797
1054.50 82.56285
1054.60 81.23774
1054.70 79.81351
1054.80 78.2806
1054.90 76.65567
1055.00 75.42971
1055.10 76.73136
1055.20 78.48988
1055.30 79.94013
1055.40 80.57397
1055.50 81.17574
1055.60 80.40803
1055.70 78.91243
1055.80 77.35033
1055.90 75.98635
1056.00 74.51228
1056.10 73.24444
1056.20 72.54434
1056.30 71.88565
1056.40 71.88897
1056.50 72.2177
1056.60 72.62274
1056.70 73.45542
1056.80 74.39095
1056.90 75.11167
1057.00 75.01577
1057.10 75.01439
1057.20 75.44831
1057.30 76.30894
1057.40 77.23194
1057.50 78.09259
1057.60 78.87581
1057.70 79.50967
1057.80 79.46079
1057.90 79.4222
1058.00 79.41339
1058.10 79.50709
1058.20 79.60821
1058.30 79.5813
1058.40 79.56186
1058.50 79.20739
1058.60 77.73008
1058.70 76.14839
1058.80 75.08318
1058.90 74.68795
1059.00 74.33688
1059.10 74.42179
1059.20 74.60438
1059.30 74.78081
1059.40 75.52864
1059.50 76.3567
1059.60 77.34494
1059.70 78.24897
1059.80 79.09273
1059.90 78.86975
1060.00 78.01341
1060.10 77.15453
1060.20 76.69873
1060.30 76.43953
1060.40 76.18992
1060.50 75.51847
1060.60 74.90069
1060.70 74.23118
1060.80 73.16246
1060.90 72.16377
1061.00 71.95577
1061.10 72.12716
1061.20 72.60436
1061.30 73.9748
1061.40 75.37938
1061.50 76.44158
1061.60 77.54503
1061.70 78.53123
1061.80 78.4776
1061.90 78.01272
1062.00 77.57324
1062.10 76.66851
1062.20 75.63663
1062.30 75.03096
1062.40 75.56846
1062.50 76.16379
1062.60 77.49514
1062.70 79.06026
1062.80 80.65147
1062.90 82.14431
1063.00 83.75168
1063.10 84.7058
1063.20 83.85827
1063.30 83.03676
1063.40 82.28475
1063.50 81.82147
1063.60 81.53505
1063.70 81.86968
1063.80 82.18368
1063.90 82.67164
1064.00 83.58162
1064.10 84.528
1064.20 85.02622
1064.30 84.9741
1064.40 84.85727
1064.50 84.64645
1064.60 84.53982
1064.70 84.44817
1064.80 84.56004
1064.90 84.57042
1065.00 84.64083
1065.10 84.9444
1065.20 85.15062
1065.30 84.12489
1065.40 82.48798
1065.50 80.74537
1065.60 79.42446
1065.70 78.15586
1065.80 77.46641
1065.90 77.34791
1066.00 77.19285
1066.10 76.78718
1066.20 76.33441
1066.30 75.62462
1066.40 74.23354
1066.50 72.66682
1066.60 71.85328
1066.70 72.61314
1066.80 73.30523
1066.90 73.55303
1067.00 73.27525
1067.10 72.96739
1067.20 73.14086
1067.30 73.45487
1067.40 74.33559
1067.50 76.63516
1067.60 78.91222
1067.70 80.49438
1067.80 81.37062
1067.90 82.19049
1068.00 82.74262
1068.10 83.33299
1068.20 83.89998
1068.30 86.03804
1068.40 88.09539
1068.50 89.81495
1068.60 90.80383
1068.70 91.73734
1068.80 91.61276
1068.90 91.03907
1069.00 90.39627
1069.10 89.88049
1069.20 89.26121
1069.30 88.60443
1069.40 87.92579
1069.50 87.20094
1069.60 85.58654
1069.70 83.30394
1069.80 81.19246
1069.90 81.01782
1070.00 81.05324
1070.10 80.97473
1070.20 80.53831
1070.30 80.1123
1070.40 79.92669
1070.50 79.96001
1070.60 80.21007
1070.70 81.74821
1070.80 83.5958
1070.90 85.01779
1071.00 84.26684
1071.10 83.53447
1071.20 82.99192
1071.30 82.6268
1071.40 82.46552
1071.50 83.51539
1071.60 84.96505
1071.70 86.01779
1071.80 85.49375
1071.90 85.05713
1072.00 84.79054
1072.10 84.87556
1072.20 84.93718
1072.30 84.30579
1072.40 83.45015
1072.50 82.3351
1072.60 81.28806
1072.70 80.04997
1072.80 80.08464
1072.90 81.51624
1073.00 82.95956
1073.10 83.93547
1073.20 84.85587
1073.30 85.49548
1073.40 84.00567
1073.50 82.26869
1073.60 81.16474
1073.70 81.54214
1073.80 81.94345
1073.90 82.85971
1074.00 83.77736
1074.10 84.68364
1074.20 85.67996
1074.30 86.91036
1074.40 87.69602
1074.50 87.29273
1074.60 86.88992
1074.70 86.84068
1074.80 87.4049
1074.90 87.98143
1075.00 87.76482
1075.10 87.27797
1075.20 86.53166
1075.30 85.29476
1075.40 84.07906
1075.50 83.51347
1075.60 83.0321
1075.70 82.79437
1075.80 84.12724
1075.90 86.04361
1076.00 87.77589
1076.10 87.76274
1076.20 87.86536
1076.30 87.72649
1076.40 87.32283
1076.50 86.9534
1076.60 86.75892
1076.70 86.57942
1076.80 86.38878
1076.90 86.90921
1077.00 87.52221
1077.10 87.89422
1077.20 87.6912
1077.30 87.47808
1077.40 86.97914
1077.50 86.31144
1077.60 85.49122
1077.70 84.6828
1077.80 83.79732
1077.90 83.59218
1078.00 84.52795
1078.10 85.41303
1078.20 85.7858
1078.30 85.85911
1078.40 85.84412
1078.50 86.13464
1078.60 86.62468
1078.70 86.83433
1078.80 85.55201
1078.90 84.26768
1079.00 83.07301
1079.10 82.13263
1079.20 81.25876
1079.30 80.48518
1079.40 79.76903
1079.50 79.27213
1079.60 79.85133
1079.70 80.27967
1079.80 80.91626
1079.90 81.74284
1080.00 82.55584
1080.10 83.10953
1080.20 83.5372
1080.30 83.89069
1080.40 84.1656
1080.50 84.48548
1080.60 85.06133
1080.70 85.89863
1080.80 86.69078
1080.90 87.08949
1081.00 87.22434
1081.10 87.31888
1081.20 87.33306
1081.30 87.44298
1081.40 87.58646
1081.50 87.64965
1081.60 87.72496
1081.70 88.42087
1081.80 89.48983
1081.90 90.44393
1082.00 90.26132
1082.10 90.04163
1082.20 89.5255
1082.30 88.49134
1082.40 87.46245
1082.50 86.63351
1082.60 85.86568
1082.70 85.18175
1082.80 85.17986
1082.90 85.36989
1083.00 85.7298
1083.10 86.28512
1083.20 86.67911
1083.30 87.21274
1083.40 88.31094
1083.50 89.32036
1083.60 89.28919
1083.70 89.00603
1083.80 88.70487
1083.90 88.5529
1084.00 88.34766
1084.10 88.20684
1084.20 88.17075
1084.30 88.11169
1084.40 88.01397
1084.50 88.04948
1084.60 87.89269
1084.70 86.59379
1084.80 85.0812
1084.90 84.43372
1085.00 85.03847
1085.10 85.64827
1085.20 86.2492
1085.30 87.38184
1085.40 88.17609
1085.50 87.56292
1085.60 86.33276
1085.70 85.90953
1085.80 86.89659
1085.90 87.87182
1086.00 88.95714
1086.10 90.27389
1086.20 91.55381
1086.30 92.10543
1086.40 92.60348
1086.50 92.65826
1086.60 91.54568
1086.70 90.44696
1086.80 89.74164
1086.90 89.55405
1087.00 89.59677
1087.10 90.39043
1087.20 91.37297
1087.30 92.0741
1087.40 91.21759
1087.50 90.49126
1087.60 89.56745
1087.70 88.46006
1087.80 87.62761
1087.90 88.27548
1088.00 89.41891
1088.10 90.31595
1088.20 89.54502
1088.30 88.84334
1088.40 88.41055
1088.50 88.28279
1088.60 88.26544
1088.70 88.57574
1088.80 89.03171
1088.90 89.17809
1089.00 88.73123
1089.10 88.24299
1089.20 87.9652
1089.30 88.20024
1089.40 88.45634
1089.50 88.50203
1089.60 88.03669
1089.70 87.75265
1089.80 88.86334
1089.90 90.22455
1090.00 91.49674
1090.10 92.33322
1090.20 93.17177
1090.30 93.38456
1090.40 93.21664
1090.50 92.97461
1090.60 92.36315
1090.70 91.88325
1090.80 91.21381
1090.90 89.64717
1091.00 88.05195
1091.10 86.75879
1091.20 85.7299
1091.30 84.96204
1091.40 85.34732
1091.50 85.92011
1091.60 86.69876
1091.70 88.12831
1091.80 89.55374
1091.90 90.30039
1092.00 90.72527
1092.10 91.04718
1092.20 90.88266
1092.30 90.50019
1092.40 90.30756
1092.50 90.4471
1092.60 90.55708
1092.70 90.59819
1092.80 90.79429
1092.90 90.99367
1093.00 90.89811
1093.10 90.53262
1093.20 90.15121
1093.30 89.84959
1093.40 89.63947
1093.50 89.43324
1093.60 89.54635
1093.70 89.68066
1093.80 89.68066
1093.90 88.90909
1094.00 88.4359
1094.10 89.14836
1094.20 90.24093
1094.30 90.68913
1094.40 89.6365
1094.50 88.6807
1094.60 87.48652
1094.70 86.14812
1094.80 85.05407
1094.90 86.12962
1095.00 87.25297
1095.10 88.63364
1095.20 90.0362
1095.30 91.4219
1095.40 92.38287
1095.50 93.29768
1095.60 94.01432
1095.70 93.62619
1095.80 92.89652
1095.90 92.17254
1096.00 92.53307
1096.10 92.81031
1096.20 93.11847
1096.30 93.32354
1096.40 93.52177
1096.50 93.42479
1096.60 93.22193
1096.70 92.82003
1096.80 91.59103
1096.90 90.42964
1097.00 88.90664
1097.10 86.92866
1097.20 85.04985
1097.30 84.89239
1097.40 85.24487
1097.50 85.84972
1097.60 86.71527
1097.70 87.54545
1097.80 88.32539
1097.90 89.4906
1098.00 90.68139
1098.10 91.22228
1098.20 91.1516
1098.30 90.76651
1098.40 90.05034
1098.50 89.53044
1098.60 89.20214
1098.70 88.70424
1098.80 88.10902
1098.90 87.85784
1099.00 87.94041
1099.10 88.06452
1099.20 88.49011
1099.30 88.89681
1099.40 89.48872
1099.50 90.46092
1099.60 91.49701
1099.70 91.83106
1099.80 91.73722
1099.90 91.66829
1100.00 91.37026
1100.10 90.89049
1100.20 90.34395
1100.30 89.54563
1100.40 88.81356
1100.50 88.14498
1100.60 87.57782
1100.70 87.17039
1100.80 87.65294
1100.90 88.54498
1101.00 89.36797
1101.10 89.5217
1101.20 89.54891
1101.30 89.87279
1101.40 90.87801
1101.50 91.87357
1101.60 91.92203
1101.70 91.64624
1101.80 91.08136
1101.90 89.53757
1102.00 87.98091
1102.10 86.66047
1102.20 85.66816
1102.30 84.6571
1102.40 83.99094
1102.50 83.12698
1102.60 82.73772
1102.70 84.51848
1102.80 86.79965
1102.90 88.68593
1103.00 89.78658
1103.10 90.96755
1103.20 90.80523
1103.30 89.32705
1103.40 87.62613
1103.50 85.22488
1103.60 82.50273
1103.70 80.60692
1103.80 81.11528
1103.90 81.44547
1104.00 82.2249
1104.10 83.73054
1104.20 85.23221
1104.30 85.60581
1104.40 85.42822
1104.50 85.10423
1104.60 85.54075
1104.70 85.9811
1104.80 86.322
1104.90 86.95345
1105.00 87.62792
1105.10 87.13199
1105.20 85.98931
1105.30 84.4399
1105.40 82.5332
1105.50 80.60835
1105.60 79.75664
1105.70 79.43031
1105.80 79.12696
1105.90 79.6216
1106.00 80.84434
1106.10 81.86588
1106.20 81.9747
1106.30 82.00127
1106.40 82.17581
1106.50 82.61765
1106.60 82.99194
1106.70 82.8492
1106.80 82.64316
1106.90 82.28798
1107.00 81.18825
1107.10 79.81429
1107.20 78.92847
1107.30 79.45153
1107.40 79.95531
1107.50 80.70707
1107.60 81.83565
1107.70 82.72049
1107.80 82.9029
1107.90 82.81499
1108.00 82.94115
1108.10 83.22545
1108.20 83.47996
1108.30 84.18561
1108.40 85.44081
1108.50 86.64967
1108.60 87.36374
1108.70 88.09147
1108.80 88.54578
1108.90 88.05626
1109.00 87.53211
1109.10 86.9959
1109.20 86.44237
1109.30 86.07998
1109.40 86.48116
1109.50 87.09012
1109.60 87.64285
1109.70 88.27297
1109.80 88.99474
1109.90 89.08097
1110.00 88.53233
1110.10 87.89463
1110.20 86.45287
1110.30 84.91072
1110.40 83.38132
1110.50 81.91057
1110.60 80.2479
1110.70 79.64008
1110.80 80.46171
1110.90 81.19759
1111.00 81.21998
1111.10 80.86808
1111.20 80.43272
1111.30 80.03205
1111.40 79.61263
1111.50 79.49571
1111.60 79.70052
1111.70 79.84929
1111.80 80.28022
1111.90 81.10467
1112.00 81.77899
1112.10 81.60501
1112.20 81.28395
1112.30 81.0918
1112.40 81.14524
1112.50 81.18482
1112.60 81.83941
1112.70 83.08506
1112.80 84.38232
1112.90 85.55147
1113.00 86.71345
1113.10 87.62092
1113.20 87.47357
1113.30 87.3283
1113.40 87.03835
1113.50 86.69808
1113.60 86.14223
1113.70 84.71772
1113.80 83.09433
1113.90 81.88388
1114.00 82.6116
1114.10 83.1275
1114.20 84.06729
1114.30 85.03238
1114.40 86.06595
1114.50 87.12544
1114.60 88.21571
1114.70 88.82646
1114.80 87.63535
1114.90 86.45495
1115.00 85.23579
1115.10 84.66888
1115.20 84.30074
1115.30 84.93961
1115.40 86.19836
1115.50 87.27068
1115.60 87.40173
1115.70 87.18639
1115.80 86.91623
1115.90 86.05137
1116.00 85.19356
1116.10 84.56393
1116.20 84.37295
1116.30 84.2356
1116.40 84.34025
1116.50 84.44976
1116.60 84.58371
1116.70 85.30927
1116.80 85.97393
1116.90 85.6417
1117.00 84.31936
1117.10 82.96209
1117.20 81.6226
1117.30 80.24361
1117.40 78.97792
1117.50 78.98038
1117.60 78.98457
1117.70 79.33201
1117.80 79.28249
1117.90 79.33881
1118.00 80.04501
1118.10 81.1856
1118.20 82.19703
1118.30 83.83057
1118.40 85.48009
1118.50 86.92763
1118.60 87.49928
1118.70 87.85742
1118.80 87.09408
1118.90 86.14576
1119.00 85.88769
1119.10 85.68516
1119.20 85.39741
1119.30 85.056
1119.40 84.49674
1119.50 83.90534
1119.60 83.44029
1119.70 82.74437
1119.80 82.04119
1119.90 81.44837
1120.00 81.1562
1120.10 80.86952
1120.20 80.94793
1120.30 81.98212
1120.40 83.05978
1120.50 83.49092
1120.60 84.2185
1120.70 85.04116
1120.80 86.01392
1120.90 85.99984
1121.00 85.13661
1121.10 84.38642
1121.20 83.62045
1121.30 83.89028
1121.40 84.1535
1121.50 84.40733
1121.60 83.64512
1121.70 82.63956
1121.80 81.69519
1121.90 80.99841
1122.00 80.54463
1122.10 79.7944
1122.20 79.48178
1122.30 79.95442
1122.40 80.23985
1122.50 80.80811
1122.60 83.36002
1122.70 86.093
1122.80 88.72715
1122.90 89.60868
1123.00 89.88865
1123.10 90.08473
1123.20 88.78068
1123.30 86.23026
1123.40 83.69869
1123.50 81.91948
1123.60 82.70417
1123.70 83.42455
1123.80 84.13091
1123.90 84.95557
1124.00 85.79163
1124.10 86.62155
1124.20 87.09507
1124.30 87.38035
1124.40 87.66142
1124.50 88.19728
1124.60 88.78752
1124.70 89.39019
1124.80 89.31092
1124.90 87.11484
1125.00 84.93858
1125.10 82.59956
1125.20 83.23728
1125.30 84.19198
1125.40 85.4789
1125.50 86.85136
1125.60 88.20011
1125.70 89.50357
1125.80 89.81463
1125.90 88.97199
1126.00 88.14451
1126.10 87.41663
1126.20 87.43753
1126.30 87.45425
1126.40 87.4234
1126.50 87.59523
1126.60 87.79765
1126.70 88.02775
1126.80 87.79776
1126.90 87.35626
1127.00 86.91272
1127.10 86.76391
1127.20 86.81657
1127.30 86.88125
1127.40 86.97841
1127.50 86.8213
1127.60 86.6626
1127.70 86.35391
1127.80 86.54432
1127.90 86.79024
1128.00 87.0363
1128.10 86.97829
1128.20 86.85338
1128.30 86.74805
1128.40 86.95228
1128.50 87.30244
1128.60 87.65001
1128.70 87.94822
1128.80 87.60012
1128.90 87.26364
1129.00 86.80237
1129.10 86.21022
1129.20 85.63394
1129.30 85.15719
1129.40 85.5145
1129.50 86.19505
1129.60 86.85833
1129.70 87.63047
1129.80 88.79966
1129.90 89.97033
1130.00 90.79789
1130.10 89.89723
1130.20 89.04625
1130.30 88.16726
1130.40 87.08786
1130.50 85.96639
1130.60 84.87724
1130.70 84.08429
1130.80 83.54446
1130.90 83.00734
1131.00 82.78311
1131.10 83.24421
1131.20 83.70133
1131.30 84.28501
1131.40 84.79572
1131.50 85.3146
1131.60 85.77384
1131.70 86.05378
1131.80 86.32145
1131.90 86.56839
1132.00 86.7378
1132.10 86.66815
1132.20 86.60217
1132.30 86.59775
1132.40 86.77568
1132.50 86.949
1132.60 86.93265
1132.70 86.6289
1132.80 86.32403
1132.90 86.08896
1133.00 85.79249
1133.10 85.46267
1133.20 85.11355
1133.30 84.70371
1133.40 84.20223
1133.50 83.69798
1133.60 83.0127
1133.70 81.97445
1133.80 80.93668
1133.90 79.73594
1134.00 78.60942
1134.10 77.48478
1134.20 76.46406
1134.30 76.99501
1134.40 77.88559
1134.50 78.88442
1134.60 80.32973
1134.70 81.76814
1134.80 83.18478
1134.90 84.28377
1135.00 85.1105
1135.10 85.97313
1135.20 86.6185
1135.30 85.92688
1135.40 85.24879
1135.50 84.46835
1135.60 82.60139
1135.70 80.49476
1135.80 78.45858
1135.90 78.52647
1136.00 80.22478
1136.10 81.90719
1136.20 83.02203
1136.30 83.1376
1136.40 83.28244
1136.50 83.44313
1136.60 82.58351
1136.70 81.72878
1136.80 80.80491
1136.90 79.95473
1137.00 79.13019
1137.10 78.34975
1137.20 77.39406
1137.30 76.34872
1137.40 75.31359
1137.50 74.49958
1137.60 73.97955
1137.70 73.49891
1137.80 72.94293
1137.90 69.8844
1138.00 66.88607
1138.10 63.71296
1138.20 60.67908
1138.30 57.64948
1138.40 54.88265
1138.50 54.30328
1138.60 56.51449
1138.70 58.61834
1138.80 61.41856
1138.90 64.35889
1139.00 67.37308
1139.10 70.48964
1139.20 71.72309
1139.30 73.02329
1139.40 74.10128
1139.50 73.67472
1139.60 72.91622
1139.70 72.09819
1139.80 71.18007
1139.90 70.22807
1140.00 69.3137
1140.10 67.71494
1140.20 64.20301
1140.30 60.74661
1140.40 56.96035
1140.50 53.37745
1140.60 49.65156
1140.70 46.38884
1140.80 47.2733
1140.90 49.8694
1141.00 52.56258
1141.10 55.71638
1141.20 59.12776
1141.30 62.58534
1141.40 66.20372
1141.50 69.74347
1141.60 73.32511
1141.70 76.64093
1141.80 77.59516
1141.90 78.58264
1142.00 79.54436
1142.10 80.39172
1142.20 81.16021
1142.30 81.86819
1142.40 82.07599
1142.50 82.02971
1142.60 81.9755
1142.70 82.24917
1142.80 82.82917
1142.90 83.41304
1143.00 83.92342
1143.10 83.56908
1143.20 83.22429
1143.30 82.87593
1143.40 82.83697
1143.50 82.92324
1143.60 83.01105
1143.70 82.81627
1143.80 82.44193
1143.90 82.08579
1144.00 82.11355
1144.10 82.92673
1144.20 83.7134
1144.30 84.49373
1144.40 84.83769
1144.50 85.18076
1144.60 85.38291
1144.70 85.09159
1144.80 84.72216
1144.90 84.39535
1145.00 84.64301
1145.10 85.09544
1145.20 85.55115
1145.30 85.71342
1145.40 85.39706
1145.50 85.08329
1145.60 84.75449
1145.70 84.4941
1145.80 84.23176
1145.90 83.97332
1146.00 84.00093
1146.10 84.25924
1146.20 84.49697
1146.30 84.80589
1146.40 84.97367
1146.50 85.14064
1146.60 85.50085
1146.70 86.2179
1146.80 86.95475
1146.90 87.57377
1147.00 86.69003
1147.10 85.81716
1147.20 84.93798
1147.30 84.98405
1147.40 85.35741
1147.50 85.73177
1147.60 86.07508
1147.70 86.5402
1147.80 87.00431
1147.90 87.32883
1148.00 87.14717
1148.10 86.97211
1148.20 87.02757
1148.30 86.57626
1148.40 86.14912
1148.50 85.67903
1148.60 85.90138
1148.70 86.44514
1148.80 87.0164
1148.90 87.57473
1149.00 88.37211
1149.10 89.17489
1149.20 89.49739
1149.30 88.26535
1149.40 87.04932
1149.50 85.97901
1149.60 86.29077
1149.70 86.58392
1149.80 86.9027
1149.90 87.39652
1150.00 87.97403
1150.10 88.51087
1150.20 88.18669
1150.30 87.35135
1150.40 86.51375
1150.50 86.12043
1150.60 86.42826
1150.70 86.72633
1150.80 87.08077
1150.90 87.62816
1151.00 88.18424
1151.10 88.6652
1151.20 88.78462
1151.30 88.75438
1151.40 88.70474
1151.50 88.24269
1151.60 87.44541
1151.70 86.64619
1151.80 86.15951
1151.90 86.38191
1152.00 86.60213
1152.10 86.98107
1152.20 86.33815
1152.30 85.71965
1152.40 84.95307
1152.50 84.5358
1152.60 84.29404
1152.70 84.12525
1152.80 84.01063
1152.90 84.35664
1153.00 84.70269
1153.10 85.08953
1153.20 84.74394
1153.30 84.39963
1153.40 84.07189
1153.50 84.04819
1153.60 84.01084
1153.70 84.00952
1153.80 84.54213
1153.90 85.34278
1154.00 86.13561
1154.10 86.84765
1154.20 87.47876
1154.30 88.12022
1154.40 88.61932
1154.50 88.2488
1154.60 87.89395
1154.70 87.37914
1154.80 86.58007
1154.90 85.75556
1155.00 84.99398
1155.10 84.97863
1155.20 85.17189
1155.30 85.33649
1155.40 85.51306
1155.50 85.67481
1155.60 85.85085
1155.70 86.3103
1155.80 87.11124
1155.90 87.92134
1156.00 88.70861
1156.10 88.35633
1156.20 88.00268
1156.30 87.58633
1156.40 87.75685
1156.50 88.10699
1156.60 88.47669
1156.70 88.65431
1156.80 88.47605
1156.90 88.28435
1157.00 87.78618
1157.10 87.0515
1157.20 86.3038
1157.30 85.7432
1157.40 85.84841
1157.50 85.95269
1157.60 86.00075
1157.70 86.15119
1157.80 86.33628
1157.90 86.53926
1158.00 86.79162
1158.10 87.13132
1158.20 87.47325
1158.30 87.73451
1158.40 87.58554
1158.50 87.44087
1158.60 87.16385
1158.70 86.71986
1158.80 86.28404
1158.90 85.85755
1159.00 85.41568
1159.10 84.96303
1159.20 84.48485
1159.30 83.51822
1159.40 82.13726
1159.50 80.76411
1159.60 79.70333
1159.70 79.46772
1159.80 79.19603
1159.90 79.17168
1160.00 80.02608
1160.10 80.87679
1160.20 81.69455
1160.30 82.54247
1160.40 83.43335
1160.50 84.23856
1160.60 84.58552
1160.70 84.239
1160.80 83.88583
1160.90 82.96488
1161.00 81.59787
1161.10 80.18025
1161.20 79.34615
1161.30 80.75229
1161.40 82.11431
1161.50 83.72315
1161.60 85.2201
1161.70 86.63976
1161.80 87.798
1161.90 87.81336
1162.00 87.10175
1162.10 86.40972
1162.20 85.82181
1162.30 85.59055
1162.40 85.34645
1162.50 85.24437
1162.60 85.83596
1162.70 86.42025
1162.80 86.98322
1162.90 87.64777
1163.00 88.35168
1163.10 89.04909
1163.20 89.45297
1163.30 89.52027
1163.40 89.54027
1163.50 89.22154
1163.60 88.05096
1163.70 86.90752
1163.80 85.37364
1163.90 83.78502
1164.00 82.16756
1164.10 80.84692
1164.20 80.99553
1164.30 81.48387
1164.40 82.11767
1164.50 83.22264
1164.60 84.56033
1164.70 85.84496
1164.80 86.7709
1164.90 87.11984
1165.00 87.48158
1165.10 87.55066
1165.20 86.91119
1165.30 86.27788
1165.40 85.59569
1165.50 84.88471
1165.60 84.16097
1165.70 83.54
1165.80 83.71738
1165.90 84.49879
1166.00 85.30935
1166.10 86.23379
1166.20 87.14285
1166.30 88.0548
1166.40 88.80552
1166.50 88.71818
1166.60 88.63783
1166.70 88.47928
1166.80 88.11737
1166.90 87.74655
1167.00 87.32793
1167.10 86.90245
1167.20 86.49917
1167.30 86.12214
1167.40 85.9068
1167.50 85.63642
1167.60 85.36428
1167.70 84.95209
1167.80 84.57143
1167.90 84.18442
1168.00 83.83795
1168.10 83.35389
1168.20 82.85663
1168.30 82.2863
1168.40 81.23987
1168.50 79.91767
1168.60 78.52722
1168.70 76.36982
1168.80 73.15072
1168.90 69.99873
1169.00 65.67331
1169.10 60.27294
1169.20 54.78829
1169.30 49.9299
1169.40 50.44384
1169.50 51.44273
1169.60 53.17576
1169.70 57.30744
1169.80 62.3493
1169.90 67.26433
1170.00 71.39534
1170.10 74.39756
1170.20 77.43309
1170.30 79.87971
1170.40 81.23846
1170.50 82.61808
1170.60 83.78394
1170.70 84.30184
1170.80 84.74731
1170.90 85.11323
1171.00 84.96315
1171.10 84.62336
1171.20 84.29729
1171.30 84.31872
1171.40 84.61456
1171.50 84.91451
1171.60 85.13027
1171.70 84.77612
1171.80 84.4315
1171.90 83.9605
1172.00 83.72018
1172.10 83.47105
1172.20 83.3153
1172.30 83.36571
1172.40 83.52621
1172.50 83.70571
1172.60 83.91463
1172.70 84.16531
1172.80 84.40733
1172.90 84.67058
1173.00 85.08473
1173.10 85.50474
1173.20 85.92298
1173.30 85.51107
1173.40 85.11758
1173.50 84.64977
1173.60 84.11825
1173.70 83.5787
1173.80 83.1254
1173.90 83.20964
1174.00 83.70463
1174.10 84.2032
1174.20 84.71541
1174.30 85.29617
1174.40 85.87381
1174.50 86.36838
1174.60 86.67613
1174.70 86.99994
1174.80 87.30802
1174.90 87.20108
1175.00 86.97357
1175.10 86.6854
1175.20 86.35929
1175.30 86.00276
1175.40 85.65921
1175.50 85.38916
1175.60 85.44168
1175.70 85.48311
1175.80 85.60541
1175.90 84.94206
1176.00 84.29617
1176.10 83.51347
1176.20 82.39926
1176.30 81.20411
1176.40 79.97747
1176.50 78.76343
1176.60 77.54967
1176.70 76.25123
1176.80 74.08318
1176.90 70.03223
1177.00 66.04918
1177.10 61.08709
1177.20 55.1076
1177.30 49.05906
1177.40 43.4275
1177.50 41.52983
1177.60 40.49711
1177.70 40.24328
1177.80 43.39446
1177.90 48.53878
1178.00 53.67078
1178.10 58.37099
1178.20 62.27924
1178.30 66.25177
1178.40 69.60789
1178.50 71.69196
1178.60 73.79335
1178.70 75.76102
1178.80 76.98478
1178.90 78.12316
1179.00 79.15725
1179.10 79.95949
1179.20 80.54488
1179.30 81.10398
1179.40 81.37853
1179.50 81.37862
1179.60 81.38248
1179.70 81.39401
1179.80 81.46834
1179.90 81.53528
1180.00 81.56453
1180.10 82.03118
1180.20 82.53664
1180.30 83.13566
1180.40 83.7007
1180.50 84.20668
1180.60 84.65142
1180.70 84.68227
1180.80 84.20938
1180.90 83.73901
1181.00 83.28654
1181.10 82.93631
1181.20 82.58527
1181.30 82.24279
1181.40 81.98389
1181.50 81.73276
1181.60 81.51619
1181.70 81.63938
1181.80 81.9188
1181.90 82.22216
1182.00 82.51887
1182.10 82.90291
1182.20 83.27309
1182.30 83.52687
1182.40 83.30492
1182.50 83.10567
1182.60 82.72304
1182.70 81.69096
1182.80 80.67087
1182.90 79.68064
1183.00 79.14532
1183.10 78.8165
1183.20 78.58532
1183.30 78.89282
1183.40 79.4083
1183.50 79.91295
1183.60 80.19852
1183.70 79.77196
1183.80 79.35592
1183.90 78.75443
1184.00 79.13196
1184.10 79.47756
1184.20 80.04442
1184.30 81.23209
1184.40 82.59119
1184.50 83.78156
1184.60 84.32955
1184.70 84.03895
1184.80 83.7411
1184.90 83.1863
1185.00 82.4928
1185.10 81.78408
1185.20 81.0587
1185.30 80.91664
1185.40 80.75387
1185.50 80.7474
1185.60 81.16425
1185.70 81.68152
1185.80 82.17415
1185.90 82.50806
1186.00 82.66516
1186.10 82.80579
1186.20 83.03118
1186.30 83.50846
1186.40 83.99017
1186.50 84.41582
1186.60 84.21714
1186.70 84.02917
1186.80 83.71395
1186.90 83.09483
1187.00 82.38405
1187.10 81.75804
1187.20 81.49474
1187.30 81.55463
1187.40 81.65749
1187.50 82.14021
1187.60 82.8159
1187.70 83.50178
1187.80 83.83476
1187.90 83.40143
1188.00 83.00222
1188.10 82.40898
1188.20 80.44118
1188.30 78.34353
1188.40 76.1166
1188.50 73.76574
1188.60 71.6133
1188.70 69.78421
1188.80 69.93484
1188.90 72.2343
1189.00 74.50254
1189.10 76.94202
1189.20 78.76517
1189.30 80.65064
1189.40 82.10806
1189.50 82.79712
1189.60 83.39876
1189.70 84.06423
1189.80 84.37258
1189.90 84.55553
1190.00 84.71095
1190.10 84.65172
1190.20 84.23429
1190.30 83.80485
1190.40 83.21538
1190.50 82.59621
1190.60 81.98044
1190.70 81.32821
1190.80 81.05195
1190.90 80.74808
1191.00 80.57791
1191.10 81.03284
1191.20 81.70202
1191.30 82.3597
1191.40 82.73571
1191.50 82.81624
1191.60 82.89497
1191.70 82.92202
1191.80 82.81771
1191.90 82.71113
1192.00 82.5808
1192.10 82.85556
1192.20 83.139
1192.30 83.36987
1192.40 83.14219
1192.50 82.78972
1192.60 82.47311
1192.70 82.31999
1192.80 82.36369
1192.90 82.41078
1193.00 82.50336
1193.10 82.7516
1193.20 83.0039
1193.30 83.29366
1193.40 83.24823
1193.50 83.22102
1193.60 83.01969
1193.70 82.07755
1193.80 80.93684
1193.90 79.81395
1194.00 78.93744
1194.10 78.31958
1194.20 77.7454
1194.30 77.55902
1194.40 77.86769
1194.50 78.18124
1194.60 78.37445
1194.70 77.63934
1194.80 76.92647
1194.90 75.952
1195.00 74.84939
1195.10 73.72683
1195.20 72.85949
1195.30 73.15226
1195.40 74.23864
1195.50 75.36952
1195.60 76.69247
1195.70 77.8073
1195.80 78.94955
1195.90 79.55452
1196.00 78.8301
1196.10 78.11108
1196.20 77.34843
1196.30 76.80139
1196.40 76.28196
1196.50 75.85148
1196.60 75.71706
1196.70 75.71083
1196.80 75.69199
1196.90 75.55218
1197.00 75.24644
1197.10 74.92306
1197.20 73.97014
1197.30 71.70818
1197.40 69.4537
1197.50 67.0943
1197.60 65.97259
1197.70 64.74009
1197.80 64.0469
1197.90 64.81906
1198.00 66.26973
1198.10 67.7019
1198.20 68.84935
1198.30 69.68121
1198.40 70.52338
1198.50 71.52657
1198.60 73.05741
1198.70 74.60388
1198.80 75.99775
1198.90 75.59383
1199.00 75.23265
1199.10 74.65411
1199.20 73.48224
1199.30 72.20633
1199.40 71.05471
1199.50 70.5588
1199.60 70.68008
1199.70 70.82807
1199.80 71.18952
1199.90 71.80154
1200.00 72.42144
