# Version 2.1 - nm, norm@500 to 1, cut digits
# Wavelength(nm)  Flambda(ergs/cm^s/s/nm)
300.00 0.004971351
300.10 0.00671691
300.20 0.007728419
300.30 0.008080355
300.40 0.008106738
300.50 0.00807441
300.60 0.008067547
300.70 0.008079063
300.80 0.008103287
300.90 0.008137456
301.00 0.008180664
301.10 0.008232607
301.20 0.00829188
301.30 0.008355338
301.40 0.008420162
301.50 0.008484966
301.60 0.0085495
301.70 0.008613875
301.80 0.008678169
301.90 0.008742432
302.00 0.008806687
302.10 0.008870943
302.20 0.008935193
302.30 0.008999418
302.40 0.009063583
302.50 0.009127627
302.60 0.009191466
302.70 0.009255289
302.80 0.009320151
302.90 0.009388188
303.00 0.009461792
303.10 0.009542028
303.20 0.009627829
303.30 0.009716807
303.40 0.009806823
303.50 0.009896822
303.60 0.009986618
303.70 0.01007629
303.80 0.01016591
303.90 0.01025549
304.00 0.01034508
304.10 0.01043466
304.20 0.01052426
304.30 0.01061394
304.40 0.0107038
304.50 0.01079403
304.60 0.01088489
304.70 0.01097579
304.80 0.01106352
304.90 0.01114154
305.00 0.01120253
305.10 0.01124324
305.20 0.01126692
305.30 0.01128089
305.40 0.01129169
305.50 0.01130253
305.60 0.011314
305.70 0.01132584
305.80 0.01133786
305.90 0.01134996
306.00 0.01136208
306.10 0.01137419
306.20 0.01138631
306.30 0.01139842
306.40 0.01141054
306.50 0.01142265
306.60 0.01143477
306.70 0.01144688
306.80 0.011459
306.90 0.01147114
307.00 0.01148332
307.10 0.01149554
307.20 0.0115078
307.30 0.01152008
307.40 0.01153237
307.50 0.01154466
307.60 0.01155694
307.70 0.01156923
307.80 0.01158151
307.90 0.01159379
308.00 0.01160608
308.10 0.01161836
308.20 0.01163061
308.30 0.01164266
308.40 0.01165425
308.50 0.01166492
308.60 0.01167402
308.70 0.01168299
308.80 0.01169991
308.90 0.01174115
309.00 0.01182499
309.10 0.0119596
309.20 0.01213681
309.30 0.01233834
309.40 0.01254782
309.50 0.01275717
309.60 0.01296496
309.70 0.01317182
309.80 0.01337821
309.90 0.01358442
310.00 0.01379059
310.10 0.01399675
310.20 0.01420296
310.30 0.01440936
310.40 0.01461622
310.50 0.01482401
310.60 0.01503338
310.70 0.01524287
310.80 0.01544438
310.90 0.01562144
311.00 0.01575567
311.10 0.01583887
311.20 0.01587924
311.30 0.01589516
311.40 0.0159031
311.50 0.01591116
311.60 0.0159208
311.70 0.01593136
311.80 0.01594239
311.90 0.01595361
312.00 0.01596488
312.10 0.01597614
312.20 0.01598735
312.30 0.01599833
312.40 0.01600873
312.50 0.01601798
312.60 0.01602529
312.70 0.01603245
312.80 0.01604947
312.90 0.01609668
313.00 0.01619678
313.10 0.01635992
313.20 0.01657595
313.30 0.01682218
313.40 0.01707826
313.50 0.0173342
313.60 0.01758819
313.70 0.01784103
313.80 0.01809329
313.90 0.01834532
314.00 0.0185973
314.10 0.01884928
314.20 0.01910122
314.30 0.019353
314.40 0.01960438
314.50 0.01985496
314.60 0.02010419
314.70 0.02035331
314.80 0.0206093
314.90 0.0208863
315.00 0.02120012
315.10 0.02155782
315.20 0.02195234
315.30 0.02236787
315.40 0.02279027
315.50 0.02321257
315.60 0.02363351
315.70 0.02405365
315.80 0.02447339
315.90 0.02489296
316.00 0.02531251
316.10 0.02573205
316.20 0.02615172
316.30 0.02657199
316.40 0.02699373
316.50 0.02741842
316.60 0.02784808
316.70 0.02827813
316.80 0.02868294
316.90 0.0290105
317.00 0.02920272
317.10 0.02923366
317.20 0.02912925
317.30 0.02894759
317.40 0.0287407
317.50 0.02853419
317.60 0.02833266
317.70 0.02813407
317.80 0.02793696
317.90 0.02774044
318.00 0.02754405
318.10 0.02734766
318.20 0.02715117
318.30 0.02695423
318.40 0.02675616
318.50 0.02655583
318.60 0.0263517
318.70 0.02614727
318.80 0.02596216
318.90 0.02583618
319.00 0.02581381
319.10 0.0259149
319.20 0.02611959
319.30 0.02638341
319.40 0.02666655
319.50 0.0269494
319.60 0.02722844
319.70 0.02750522
319.80 0.02778088
319.90 0.02805608
320.00 0.02833118
320.10 0.02860628
320.20 0.02888142
320.30 0.02915672
320.40 0.02943245
320.50 0.029709
320.60 0.02998697
320.70 0.03026504
320.80 0.03053597
320.90 0.03078503
321.00 0.03099577
321.10 0.03116085
321.20 0.03128761
321.30 0.0313925
321.40 0.03149024
321.50 0.0315881
321.60 0.03168736
321.70 0.03178746
321.80 0.03188797
321.90 0.03198866
322.00 0.03208938
322.10 0.0321901
322.20 0.03229068
322.30 0.03239065
322.40 0.03248909
322.50 0.03258449
322.60 0.03267474
322.70 0.0327646
322.80 0.03288055
322.90 0.03307639
323.00 0.03341219
323.10 0.03391478
323.20 0.03455733
323.30 0.03527976
323.40 0.0360283
323.50 0.03677643
323.60 0.03751942
323.70 0.03825937
323.80 0.03899778
323.90 0.03973559
324.00 0.04047326
324.10 0.04121093
324.20 0.04194862
324.30 0.0426864
324.40 0.04342444
324.50 0.04416298
324.60 0.04490234
324.70 0.04564178
324.80 0.04637697
324.90 0.04709919
325.00 0.04779867
325.10 0.04847106
325.20 0.04912071
325.30 0.04975739
325.40 0.05038982
325.50 0.05102232
325.60 0.05165566
325.70 0.05228949
325.80 0.05292357
325.90 0.05355775
326.00 0.05419195
326.10 0.05482616
326.20 0.05546031
326.30 0.05609425
326.40 0.05672765
326.50 0.05735999
326.60 0.05799053
326.70 0.05862093
326.80 0.05926046
326.90 0.05992796
327.00 0.06064447
327.10 0.06141937
327.20 0.06224327
327.30 0.06309515
327.40 0.06395615
327.50 0.06481702
327.60 0.06567609
327.70 0.06653409
327.80 0.06739156
327.90 0.06824881
328.00 0.06910602
328.10 0.06996322
328.20 0.07082071
328.30 0.07167945
328.40 0.07254134
328.50 0.07340948
328.60 0.07428818
328.70 0.0751677
328.80 0.07599362
328.90 0.07665542
329.00 0.07702972
329.10 0.07706139
329.20 0.07680556
329.30 0.07638561
329.40 0.07591206
329.50 0.07543932
329.60 0.07497716
329.70 0.07452124
329.80 0.07406847
329.90 0.07361694
330.00 0.07316571
330.10 0.07271447
330.20 0.07226303
330.30 0.07181065
330.40 0.07135594
330.50 0.0708966
330.60 0.07042942
330.70 0.06996163
330.80 0.0695336
330.90 0.06922731
331.00 0.0691343
331.10 0.06929545
331.20 0.06966988
331.30 0.07016605
331.40 0.07070198
331.50 0.0712373
331.60 0.07176478
331.70 0.07228763
331.80 0.07280815
331.90 0.07332773
332.00 0.07384711
332.10 0.07436648
332.20 0.07488599
332.30 0.07540609
332.40 0.07592767
332.50 0.07645218
332.60 0.07698165
332.70 0.0775115
332.80 0.07801618
332.90 0.07844379
333.00 0.07873635
333.10 0.078868
333.20 0.07886461
333.30 0.07878415
333.40 0.07867851
333.50 0.07857325
333.60 0.07847295
333.70 0.07837559
333.80 0.07827971
333.90 0.07818441
334.00 0.07808925
334.10 0.07799229
334.20 0.07789054
334.30 0.07778237
334.40 0.07766765
334.50 0.07754769
334.60 0.07751796
334.70 0.07778929
334.80 0.078432
334.90 0.07904294
335.00 0.0788705
335.10 0.07769539
335.20 0.07665454
335.30 0.0779045
335.40 0.08297903
335.50 0.09110269
335.60 0.09908466
335.70 0.1031985
335.80 0.1016079
335.90 0.09528302
336.00 0.08695764
336.10 0.07942335
336.20 0.0745999
336.30 0.07325582
336.40 0.07466533
336.50 0.0766942
336.60 0.07706155
336.70 0.07522385
336.80 0.07307644
336.90 0.07348123
337.00 0.07783716
337.10 0.08474848
337.20 0.09084182
337.30 0.09309932
337.40 0.09098701
337.50 0.08679499
337.60 0.08388745
337.70 0.08420552
337.80 0.08712906
337.90 0.09061225
338.00 0.09310326
338.10 0.09418943
338.20 0.09364772
338.30 0.09071416
338.40 0.08509577
338.50 0.07847752
338.60 0.07426667
338.70 0.07512
338.80 0.08044042
338.90 0.08656222
339.00 0.08969384
339.10 0.08903215
339.20 0.08726835
339.30 0.08796689
339.40 0.0923099
339.50 0.09834984
339.60 0.1031484
339.70 0.1052715
339.80 0.1051585
339.90 0.1036455
340.00 0.1010605
340.10 0.09772729
340.20 0.09439923
340.30 0.09163265
340.40 0.08898879
340.50 0.08545374
340.60 0.08075068
340.70 0.07588399
340.80 0.07231323
340.90 0.07086316
341.00 0.07146971
341.10 0.07362671
341.20 0.07676463
341.30 0.08021902
341.40 0.08320202
341.50 0.08511735
341.60 0.08593401
341.70 0.08621009
341.80 0.08668542
341.90 0.08774841
342.00 0.08909853
342.10 0.08980341
342.20 0.08886137
342.30 0.0860323
342.40 0.08228716
342.50 0.07930656
342.60 0.07833802
342.70 0.07940825
342.80 0.08149085
342.90 0.08331447
343.00 0.08414712
343.10 0.08412786
343.20 0.0839843
343.30 0.0843401
343.40 0.08518217
343.50 0.08598711
343.60 0.08627948
343.70 0.08592539
343.80 0.08502047
343.90 0.08379524
344.00 0.08267626
344.10 0.08215857
344.20 0.08236626
344.30 0.08282969
344.40 0.08289025
344.50 0.08232162
344.60 0.08150473
344.70 0.08108481
344.80 0.08155656
344.90 0.08309885
345.00 0.08563041
345.10 0.08888039
345.20 0.09239961
345.30 0.09555549
345.40 0.09763247
345.50 0.09818488
345.60 0.09742264
345.70 0.09617844
345.80 0.09533896
345.90 0.09522274
346.00 0.09543469
346.10 0.09520167
346.20 0.09390382
346.30 0.09155336
346.40 0.08894972
346.50 0.08721073
346.60 0.08687912
346.70 0.08744687
346.80 0.08782535
346.90 0.08722871
347.00 0.08557497
347.10 0.08333525
347.20 0.08129606
347.30 0.08033678
347.40 0.08101585
347.50 0.08312544
347.60 0.08578864
347.70 0.08813886
347.80 0.08990886
347.90 0.09141658
348.00 0.0931016
348.10 0.09505869
348.20 0.09688721
348.30 0.09796476
348.40 0.09795878
348.50 0.09712033
348.60 0.09602241
348.70 0.0950309
348.80 0.09412734
348.90 0.09317228
349.00 0.09215558
349.10 0.09116778
349.20 0.09029229
349.30 0.0896562
349.40 0.08949451
349.50 0.08995612
349.60 0.090804
349.70 0.0914501
349.80 0.09147159
349.90 0.09119868
350.00 0.09167863
350.10 0.09385607
350.20 0.09768056
350.30 0.1020108
350.40 0.1054108
350.50 0.1070753
350.60 0.107101
350.70 0.1060888
350.80 0.1046462
350.90 0.1031024
351.00 0.1013787
351.10 0.09901873
351.20 0.09552512
351.30 0.09095776
351.40 0.08626391
351.50 0.08281032
351.60 0.0813979
351.70 0.08168594
351.80 0.08258022
351.90 0.08314431
352.00 0.08312137
352.10 0.08270666
352.20 0.08211854
352.30 0.08153878
352.40 0.08137058
352.50 0.08236866
352.60 0.08522668
352.70 0.08986571
352.80 0.09515812
352.90 0.09956557
353.00 0.1022875
353.10 0.103785
353.20 0.1050998
353.30 0.1068017
353.40 0.1087414
353.50 0.1106281
353.60 0.1125159
353.70 0.1146264
353.80 0.1169682
353.90 0.1193199
354.00 0.121388
354.10 0.1227801
354.20 0.1230107
354.30 0.121877
354.40 0.1198828
354.50 0.1180663
354.60 0.1172144
354.70 0.1172718
354.80 0.117566
354.90 0.1175043
355.00 0.1169776
355.10 0.1162263
355.20 0.1155071
355.30 0.114942
355.40 0.1145939
355.50 0.1144948
355.60 0.1145146
355.70 0.1142745
355.80 0.113327
355.90 0.1115322
356.00 0.1092279
356.10 0.1069553
356.20 0.1049908
356.30 0.1031175
356.40 0.100848
356.50 0.09793537
356.60 0.09474742
356.70 0.09213196
356.80 0.09081883
356.90 0.09087849
357.00 0.09172698
357.10 0.09258496
357.20 0.09289205
357.30 0.09241997
357.40 0.09119449
357.50 0.08941378
357.60 0.08739114
357.70 0.08544378
357.80 0.08375943
357.90 0.08235348
358.00 0.08119205
358.10 0.08040182
358.20 0.08032737
358.30 0.08130425
358.40 0.08332933
358.50 0.08593813
358.60 0.08838805
358.70 0.08998115
358.80 0.0903587
358.90 0.08967818
359.00 0.08862773
359.10 0.08816996
359.20 0.08901164
359.30 0.09110878
359.40 0.09361089
359.50 0.09539599
359.60 0.09583604
359.70 0.09519251
359.80 0.09433319
359.90 0.09400562
360.00 0.0942459
360.10 0.09437937
360.20 0.09358826
360.30 0.09155572
360.40 0.08871398
360.50 0.08601743
360.60 0.08449155
360.70 0.08482059
360.80 0.08703631
360.90 0.09044557
361.00 0.09397508
361.10 0.09679118
361.20 0.09870362
361.30 0.09998937
361.40 0.1008794
361.50 0.1013268
361.60 0.1013124
361.70 0.1011761
361.80 0.1014303
361.90 0.1022312
362.00 0.1031846
362.10 0.1037545
362.20 0.1037543
362.30 0.103399
362.40 0.1030467
362.50 0.1029965
362.60 0.1033492
362.70 0.1038343
362.80 0.1038574
362.90 0.1029695
363.00 0.1013827
363.10 0.09990692
363.20 0.09929102
363.30 0.09966005
363.40 0.1005732
363.50 0.1014881
363.60 0.1021139
363.70 0.1024378
363.80 0.102538
363.90 0.1024004
364.00 0.1018704
364.10 0.1007614
364.20 0.0990385
364.30 0.09692266
364.40 0.09484323
364.50 0.09329397
364.60 0.09263626
364.70 0.09289027
364.80 0.09369089
364.90 0.0945611
365.00 0.09535111
365.10 0.09640054
365.20 0.09813982
365.30 0.1004792
365.40 0.1026568
365.50 0.1037765
365.60 0.1035556
365.70 0.1025422
365.80 0.1015847
365.90 0.1011374
366.00 0.1010891
366.10 0.1011592
366.20 0.1013262
366.30 0.1017916
366.40 0.102618
366.50 0.1035279
366.60 0.104052
366.70 0.1038363
366.80 0.102827
366.90 0.1012427
367.00 0.09945655
367.10 0.09789265
367.20 0.09693626
367.30 0.09683374
367.40 0.09758258
367.50 0.09890914
367.60 0.1004028
367.70 0.1017324
367.80 0.1027874
367.90 0.1036518
368.00 0.1044591
368.10 0.1052464
368.20 0.1059035
368.30 0.1062282
368.40 0.1060575
368.50 0.1054163
368.60 0.1045802
368.70 0.1039586
368.80 0.1038402
368.90 0.1042125
369.00 0.1048466
369.10 0.1055672
369.20 0.1063755
369.30 0.1072741
369.40 0.1080447
369.50 0.108302
369.60 0.1078271
369.70 0.1068301
369.80 0.1058761
369.90 0.105561
370.00 0.1062003
370.10 0.1077049
370.20 0.1096839
370.30 0.1116583
370.40 0.1132267
370.50 0.1141317
370.60 0.1142877
370.70 0.1138557
370.80 0.1132549
370.90 0.112979
371.00 0.1132782
371.10 0.1139535
371.20 0.1144322
371.30 0.1140618
371.40 0.1124717
371.50 0.1098129
371.60 0.1067366
371.70 0.1040855
371.80 0.1025063
371.90 0.1022407
372.00 0.1031475
372.10 0.1047437
372.20 0.1061593
372.30 0.1062824
372.40 0.1042712
372.50 0.100209
372.60 0.09530732
372.70 0.09135589
372.80 0.08980018
372.90 0.0911045
373.00 0.09472388
373.10 0.09950766
373.20 0.1041851
373.30 0.1077121
373.40 0.1094786
373.50 0.1093429
373.60 0.1075013
373.70 0.1043069
373.80 0.1001945
373.90 0.09573441
374.00 0.09165153
374.10 0.08869929
374.20 0.08746077
374.30 0.08824604
374.40 0.09112401
374.50 0.09594717
374.60 0.1022792
374.70 0.1092897
374.80 0.1157981
374.90 0.1205801
375.00 0.1228015
375.10 0.1222954
375.20 0.1195298
375.30 0.1153637
375.40 0.1107822
375.50 0.1066895
375.60 0.1036892
375.70 0.1019141
375.80 0.1010373
375.90 0.1005133
376.00 0.09993315
376.10 0.09930475
376.20 0.09911379
376.30 0.1001176
376.40 0.1029748
376.50 0.1079687
376.60 0.1150062
376.70 0.1237083
376.80 0.1333411
376.90 0.1426274
377.00 0.1498425
377.10 0.1534213
377.20 0.1526963
377.30 0.1481646
377.40 0.1411194
377.50 0.1330261
377.60 0.1250957
377.70 0.1181752
377.80 0.1127279
377.90 0.1088125
378.00 0.1061521
378.10 0.1043459
378.20 0.1030923
378.30 0.1022379
378.40 0.1016779
378.50 0.1013183
378.60 0.1011648
378.70 0.1013726
378.80 0.1021739
378.90 0.1038316
379.00 0.1067373
379.10 0.1114745
379.20 0.1185852
379.30 0.1281268
379.40 0.139392
379.50 0.1510151
379.60 0.1612976
379.70 0.1685506
379.80 0.1714828
379.90 0.1696122
380.00 0.1635236
380.10 0.1546976
380.20 0.1449345
380.30 0.1357219
380.40 0.1279178
380.50 0.1217885
380.60 0.1172048
380.70 0.1138037
380.80 0.1111038
380.90 0.1087042
381.00 0.10648
381.10 0.1045702
381.20 0.1031294
381.30 0.1020966
381.40 0.1012661
381.50 0.1005931
381.60 0.09993115
381.70 0.09904867
381.80 0.09750883
381.90 0.09436845
382.00 0.08842934
382.10 0.06982288
382.20 0.007962384
382.30 0
382.40 0
382.50 0
382.60 0
382.70 0
382.80 0
382.90 0
383.00 0.1150329
383.10 0.4001922
383.20 0.5636817
383.30 0.5942105
383.40 0.5045751
383.50 0.3527835
383.60 0.2357278
383.70 0.2278598
383.80 0.3084538
383.90 0.382292
384.00 0.3885578
384.10 0.3388015
384.20 0.2580583
384.30 0.1382925
384.40 0.00634025
384.50 0.01309765
384.60 0.1402435
384.70 0.5127246
384.80 0.9128073
384.90 1.131441
385.00 1.044535
385.10 0.7037454
385.20 0.327129
385.30 0.1660963
385.40 0.3075389
385.50 0.6049116
385.60 0.8296815
385.70 0.8571795
385.80 0.701755
385.90 0.4464035
386.00 0.1919361
386.10 0.0280039
386.20 0
386.30 0.05744985
386.40 0.1414078
386.50 0.2149905
386.60 0.2858813
386.70 0.3624095
386.80 0.4297449
386.90 0.484669
387.00 0.546885
387.10 0.6209967
387.20 0.6850619
387.30 0.7233392
387.40 0.754134
387.50 0.7870255
387.60 0.7816377
387.70 0.6988619
387.80 0.59609
387.90 0.5834142
388.00 0.6749032
388.10 0.7468838
388.20 0.6729568
388.30 0.4746285
388.40 0.2701501
388.50 0.1500018
388.60 0.1386711
388.70 0.2335006
388.80 0.4136869
388.90 0.6147599
389.00 0.7521358
389.10 0.7761352
389.20 0.6892772
389.30 0.514803
389.40 0.2855178
389.50 0.08210914
389.60 0.05998081
389.70 0.03745004
389.80 0.1462466
389.90 0.1547744
390.00 0.01121404
390.10 0.009438074
390.20 0.01529731
390.30 0.06045061
390.40 0.2031632
390.50 0.1878156
390.60 0.09411384
390.70 0.09382249
390.80 0.2459533
390.90 0.4327498
391.00 0.4862342
391.10 0.3221105
391.20 0
391.30 0
391.40 0
391.50 0
391.60 0
391.70 0.01320463
391.80 0.03922325
391.90 0.07264463
392.00 0.0941958
392.10 0.1071362
392.20 0.1087455
392.30 0.1831964
392.40 0.1578315
392.50 0.05514909
392.60 0.04360943
392.70 0.0390343
392.80 0.03838424
392.90 0.04824846
393.00 0.2952949
393.10 0.832252
393.20 1.430181
393.30 1.952131
393.40 2.141898
393.50 1.830667
393.60 1.167463
393.70 0.5299841
393.80 0.2015408
393.90 0.1672837
394.00 0.2152566
394.10 0.1664196
394.20 0.01089271
394.30 0
394.40 9.783526e-05
394.50 0.0194688
394.60 0.04573735
394.70 0.1114836
394.80 0.06896787
394.90 0.07100231
395.00 0.071814
395.10 0.07305033
395.20 0.07313437
395.30 0.07281491
395.40 0.07780399
395.50 0.2815913
395.60 0.6348912
395.70 0.7541189
395.80 0.5801734
395.90 0.2597694
396.00 0.05819555
396.10 0.01683003
396.20 0
396.30 0
396.40 0
396.50 0.09723315
396.60 0.4352028
396.70 0.9196822
396.80 1.439913
396.90 1.818971
397.00 1.936861
397.10 1.789873
397.20 1.452757
397.30 1.000501
397.40 0.5485814
397.50 0.2261223
397.60 0.1154366
397.70 0.1948074
397.80 0.3480828
397.90 0.4649518
398.00 0.5276394
398.10 0.5905579
398.20 0.6817444
398.30 0.7507991
398.40 0.7193684
398.50 0.5623825
398.60 0.3384328
398.70 0.1283598
398.80 0.1094443
398.90 0.100534
399.00 0.0902282
399.10 0.08243429
399.20 0.07749017
399.30 0.0724338
399.40 0.0644491
399.50 0.05432266
399.60 0.08209298
399.70 0.1216894
399.80 0.1132011
399.90 0.09095012
400.00 0.09291654
400.10 0.1284215
400.20 0.1643399
400.30 0.1516795
400.40 0.07804266
400.50 0.002736148
400.60 0.001619795
400.70 0.0009047614
400.80 0.01411776
400.90 0.1134425
401.00 0.1988051
401.10 0.2147678
401.20 0.1279975
401.30 0.07944098
401.40 0.08062053
401.50 0.07652891
401.60 0.06782148
401.70 0.1798092
401.80 0.2786289
401.90 0.3156241
402.00 0.3141877
402.10 0.3256191
402.20 0.3883272
402.30 0.4815589
402.40 0.5318703
402.50 0.4908286
402.60 0.3874005
402.70 0.2771083
402.80 0.1769228
402.90 0.08229627
403.00 0.01399813
403.10 0.01380428
403.20 0.08114909
403.30 0.1545936
403.40 0.1681305
403.50 0.1064583
403.60 0.01074377
403.70 0
403.80 0
403.90 0
404.00 0
404.10 0
404.20 0.04849222
404.30 0.1624605
404.40 0.3142307
404.50 0.4567728
404.60 0.5338986
404.70 0.4952248
404.80 0.3414764
404.90 0.1567302
405.00 0.04741345
405.10 0.04577997
405.20 0.09612631
405.30 0.139306
405.40 0.1796363
405.50 0.2440903
405.60 0.3040626
405.70 0.2961252
405.80 0.2253167
405.90 0.1654418
406.00 0.1860185
406.10 0.2739681
406.20 0.3594752
406.30 0.4027668
406.40 0.4234439
406.50 0.440265
406.60 0.4575868
406.70 0.4666576
406.80 0.4505533
406.90 0.3912348
407.00 0.272373
407.10 0.1117364
407.20 0.03698186
407.30 0.03233863
407.40 0.02630739
407.50 0.1055614
407.60 0.1754495
407.70 0.2110337
407.80 0.235853
407.90 0.2510874
408.00 0.2412449
408.10 0.2065587
408.20 0.165156
408.30 0.1383429
408.40 0.1312826
408.50 0.1461109
408.60 0.1823294
408.70 0.2187176
408.80 0.2132298
408.90 0.1414886
409.00 0.04806882
409.10 0.02470374
409.20 0.1041061
409.30 0.2227465
409.40 0.2619274
409.50 0.1968085
409.60 0.1305401
409.70 0.1884038
409.80 0.3981856
409.90 0.6903904
410.00 0.9691694
410.10 1.153755
410.20 1.182588
410.30 1.029885
410.40 0.7348538
410.50 0.3935391
410.60 0.1084868
410.70 0.08278954
410.80 0.07439531
410.90 0.06678332
411.00 0.05948853
411.10 0.05497664
411.20 0.05208607
411.30 0.04769085
411.40 0.0427892
411.50 0.04270201
411.60 0.2497318
411.70 0.6096051
411.80 0.8547203
411.90 0.9261773
412.00 0.8585955
412.10 0.7316668
412.20 0.6060323
412.30 0.5128145
412.40 0.4425197
412.50 0.3745284
412.60 0.300848
412.70 0.2264065
412.80 0.1585791
412.90 0.101062
413.00 0.05819739
413.10 0.03658974
413.20 0.03332198
413.30 0.04077273
413.40 0.05666808
413.50 0.0809885
413.60 0.1113545
413.70 0.1449023
413.80 0.175727
413.90 0.1822661
414.00 0.131845
414.10 0.006033808
414.20 0.003210779
414.30 0.01016834
414.40 0.01908291
414.50 0.03122212
414.60 0.04885195
414.70 0.06484065
414.80 0.185594
414.90 0.2645197
415.00 0.1720379
415.10 0.06370872
415.20 0.05098688
415.30 0.03997394
415.40 0.03360951
415.50 0.03590985
415.60 0.04852656
415.70 0.0679185
415.80 0.08142002
415.90 0.08510136
416.00 0.1335671
416.10 0.2109481
416.20 0.2790867
416.30 0.2892397
416.40 0.204063
416.50 0.04453019
416.60 0.02729156
416.70 0.03679591
416.80 0.050857
416.90 0.05609331
417.00 0.09730754
417.10 0.2338599
417.20 0.2699808
417.30 0.2522472
417.40 0.2532072
417.50 0.2759441
417.60 0.2613351
417.70 0.1750676
417.80 0.05650031
417.90 0.06648614
418.00 0.07113151
418.10 0.07329583
418.20 0.07256214
418.30 0.06007908
418.40 0.04195214
418.50 0.06068706
418.60 0.2833974
418.70 0.5280457
418.80 0.7487727
418.90 0.9162858
419.00 1.029918
419.10 1.087772
419.20 1.068979
419.30 0.9598033
419.40 0.784233
419.50 0.5865432
419.60 0.4057103
419.70 0.2733534
419.80 0.2063168
419.90 0.2029968
420.00 0.2192351
420.10 0.1941272
420.20 0.1037684
420.30 0.04788913
420.40 0.05447955
420.50 0.06322708
420.60 0.07085733
420.70 0.08022229
420.80 0.1676571
420.90 0.2175178
421.00 0.2043924
421.10 0.172485
421.20 0.1932977
421.30 0.2968848
421.40 0.4368534
421.50 0.5584387
421.60 0.6201256
421.70 0.6229582
421.80 0.5879502
421.90 0.5309239
422.00 0.4626953
422.10 0.4040419
422.20 0.3778072
422.30 0.3718603
422.40 0.3267899
422.50 0.1936357
422.60 0.01712979
422.70 0.01080586
422.80 0.01157768
422.90 0.01472678
423.00 0.01471225
423.10 0.009623717
423.20 0.0004462001
423.30 0
423.40 0
423.50 0.05947291
423.60 0.2629279
423.70 0.4067847
423.80 0.4665997
423.90 0.4498441
424.00 0.3758506
424.10 0.2687043
424.20 0.1522213
424.30 0.04140967
424.40 0.0006340821
424.50 0.005823379
424.60 0.008174829
424.70 0.006135593
424.80 0.09954619
424.90 0.233323
425.00 0.3519908
425.10 0.4209398
425.20 0.4161837
425.30 0.3486968
425.40 0.2585142
425.50 0.1957027
425.60 0.1936808
425.70 0.2486817
425.80 0.3210425
425.90 0.3572457
426.00 0.3298346
426.10 0.2616993
426.20 0.197886
426.30 0.1654451
426.40 0.177274
426.50 0.2341803
426.60 0.3004741
426.70 0.2961611
426.80 0.1623067
426.90 0.01648951
427.00 0.02362719
427.10 0.02966858
427.20 0.03378746
427.30 0.03694753
427.40 0.03997436
427.50 0.03895875
427.60 0.0328818
427.70 0.02459265
427.80 0.0526534
427.90 0.0542454
428.00 0.02662143
428.10 0.01909072
428.20 0.0360192
428.30 0.05532943
428.40 0.05819555
428.50 0.04625583
428.60 0.02137543
428.70 0
428.80 0
428.90 0
429.00 0
429.10 0.07944523
429.20 0.1822771
429.30 0.2432787
429.40 0.2842587
429.50 0.3236504
429.60 0.3624225
429.70 0.3769497
429.80 0.3431858
429.90 0.2831153
430.00 0.2637469
430.10 0.3214333
430.20 0.4093532
430.30 0.4497225
430.40 0.4264735
430.50 0.3979797
430.60 0.4080368
430.70 0.4269668
430.80 0.4023566
430.90 0.3270498
431.00 0.2340177
431.10 0.1531381
431.20 0.09239964
431.30 0.04764784
431.40 0.006901577
431.50 0
431.60 0
431.70 0
431.80 0
431.90 0
432.00 0
432.10 0.06915877
432.20 0.1927673
432.30 0.3171526
432.40 0.4082495
432.50 0.4277865
432.60 0.3591732
432.70 0.2383987
432.80 0.1434929
432.90 0.1222129
433.00 0.1366337
433.10 0.1050964
433.20 0.06371832
433.30 0.06440399
433.40 0.06154319
433.50 0.05728307
433.60 0.05588084
433.70 0.08769122
433.80 0.353673
433.90 0.7309354
434.00 1.148824
434.10 1.453228
434.20 1.50125
434.30 1.282666
434.40 0.9373953
434.50 0.6434207
434.60 0.4897345
434.70 0.4477129
434.80 0.4353324
434.90 0.392052
435.00 0.30837
435.10 0.2133759
435.20 0.1451341
435.30 0.1227395
435.40 0.1403587
435.50 0.1900177
435.60 0.2916941
435.70 0.4449169
435.80 0.5855814
435.90 0.5993708
436.00 0.4308081
436.10 0.1671685
436.20 0.06262556
436.30 0.04291376
436.40 0.1183256
436.50 0.2364107
436.60 0.2706578
436.70 0.2688492
436.80 0.3145146
436.90 0.4251371
437.00 0.5349157
437.10 0.5673577
437.20 0.5012353
437.30 0.3743285
437.40 0.2440717
437.50 0.1494403
437.60 0.1007796
437.70 0.09301976
437.80 0.1255708
437.90 0.185881
438.00 0.2448129
438.10 0.256058
438.20 0.2013008
438.30 0.1081953
438.40 0.05069931
438.50 0.04407883
438.60 0.04041494
438.70 0.05351173
438.80 0.1289336
438.90 0.2428956
439.00 0.3430067
439.10 0.3611099
439.20 0.2892113
439.30 0.187416
439.40 0.1133502
439.50 0.08366205
439.60 0.07876729
439.70 0.07232315
439.80 0.06841188
439.90 0.1535986
440.00 0.2587604
440.10 0.2842781
440.20 0.2054515
440.30 0.07278272
440.40 0.05720881
440.50 0.05285618
440.60 0.0460786
440.70 0.0447445
440.80 0.05135069
440.90 0.2052295
441.00 0.3898454
441.10 0.5325175
441.20 0.5899816
441.30 0.5677523
441.40 0.5191056
441.50 0.4991662
441.60 0.523463
441.70 0.5632658
441.80 0.5712231
441.90 0.5189394
442.00 0.4220734
442.10 0.3320138
442.20 0.2975832
442.30 0.3272944
442.40 0.3798873
442.50 0.3976692
442.60 0.3564328
442.70 0.2862621
442.80 0.2470328
442.90 0.2756407
443.00 0.3498575
443.10 0.4054098
443.20 0.3892863
443.30 0.2990349
443.40 0.1770264
443.50 0.1015457
443.60 0.09275502
443.70 0.09369014
443.80 0.2207068
443.90 0.3553098
444.00 0.4365825
444.10 0.4559508
444.20 0.4542167
444.30 0.4667694
444.40 0.484842
444.50 0.4667003
444.60 0.3971357
444.70 0.3128793
444.80 0.2652769
444.90 0.2851864
445.00 0.366619
445.10 0.4887686
445.20 0.633786
445.30 0.7655166
445.40 0.8188909
445.50 0.7473051
445.60 0.5745965
445.70 0.4142815
445.80 0.3355961
445.90 0.3211453
446.00 0.3184117
446.10 0.320029
446.20 0.3657929
446.30 0.4787241
446.40 0.624739
446.50 0.7336118
446.60 0.746126
446.70 0.6567998
446.80 0.527948
446.90 0.448461
447.00 0.4581247
447.10 0.5139773
447.20 0.5437623
447.30 0.523236
447.40 0.4809419
447.50 0.4448387
447.60 0.409236
447.70 0.3449292
447.80 0.2360521
447.90 0.1070889
448.00 0.1029064
448.10 0.1018387
448.20 0.1343743
448.30 0.2843704
448.40 0.4023389
448.50 0.4623957
448.60 0.4939392
448.70 0.5345567
448.80 0.5849765
448.90 0.6210706
449.00 0.6384767
449.10 0.662511
449.20 0.7131306
449.30 0.7710288
449.40 0.7893671
449.50 0.7425424
449.60 0.6544075
449.70 0.5736576
449.80 0.5327792
449.90 0.5288519
450.00 0.5381609
450.10 0.5425014
450.20 0.534901
450.30 0.5188504
450.40 0.5070551
450.50 0.5079967
450.60 0.5123757
450.70 0.503302
450.80 0.4774061
450.90 0.4530995
451.00 0.4538899
451.10 0.4837566
451.20 0.5278088
451.30 0.5650806
451.40 0.5796339
451.50 0.5625578
451.60 0.5101496
451.70 0.4312679
451.80 0.3566123
451.90 0.3273657
452.00 0.360938
452.10 0.4349361
452.20 0.5108263
452.30 0.5729196
452.40 0.6364506
452.50 0.7188385
452.60 0.8101862
452.70 0.8730269
452.80 0.8671032
452.90 0.7876447
453.00 0.6843119
453.10 0.6256974
453.20 0.6421188
453.30 0.7023617
453.40 0.7446188
453.50 0.726621
453.60 0.65016
453.70 0.5520145
453.80 0.4828596
453.90 0.4728556
454.00 0.5079617
454.10 0.5473239
454.20 0.5581652
454.30 0.5412453
454.40 0.5248729
454.50 0.5267786
454.60 0.5255529
454.70 0.4805301
454.80 0.3769941
454.90 0.2496638
455.00 0.1610027
455.10 0.1659917
455.20 0.2955829
455.30 0.5276921
455.40 0.7667798
455.50 0.8971931
455.60 0.8787812
455.70 0.7733007
455.80 0.6672717
455.90 0.5939663
456.00 0.5443385
456.10 0.5173069
456.20 0.5264994
456.30 0.5737637
456.40 0.6407434
456.50 0.7080126
456.60 0.7663438
456.70 0.8133572
456.80 0.8473388
456.90 0.8653852
457.00 0.8701102
457.10 0.87045
457.20 0.8771462
457.30 0.9016918
457.40 0.9490104
457.50 0.9966589
457.60 0.9928273
457.70 0.8959392
457.80 0.7288976
457.90 0.5771663
458.00 0.5133317
458.10 0.5464035
458.20 0.6369
458.30 0.7291121
458.40 0.7707186
458.50 0.7284684
458.60 0.6127246
458.70 0.4792649
458.80 0.3894436
458.90 0.3688645
459.00 0.3965033
459.10 0.4199171
459.20 0.3993308
459.30 0.3515592
459.40 0.3356719
459.50 0.3876883
459.60 0.4772133
459.70 0.5462576
459.80 0.5762002
459.90 0.5907647
460.00 0.607011
460.10 0.6118651
460.20 0.5874724
460.30 0.5347415
460.40 0.4647894
460.50 0.3868115
460.60 0.3145514
460.70 0.2672116
460.80 0.2612443
460.90 0.3119656
461.00 0.4334026
461.10 0.6132773
461.20 0.7858644
461.30 0.8687322
461.40 0.8451397
461.50 0.7811341
461.60 0.7465417
461.70 0.742306
461.80 0.7279548
461.90 0.6938605
462.00 0.674301
462.10 0.6980598
462.20 0.7580857
462.30 0.8333228
462.40 0.9076058
462.50 0.9571739
462.60 0.9430678
462.70 0.8406851
462.80 0.6661252
462.90 0.472107
463.00 0.3265295
463.10 0.283034
463.20 0.3489722
463.30 0.4709762
463.40 0.5728832
463.50 0.6203772
463.60 0.6379999
463.70 0.6557784
463.80 0.6645578
463.90 0.637374
464.00 0.5736946
464.10 0.5090475
464.20 0.4822577
464.30 0.5009525
464.40 0.5422602
464.50 0.5806874
464.60 0.6127177
464.70 0.6571407
464.80 0.72753
464.90 0.8031536
465.00 0.8392799
465.10 0.8108921
465.20 0.7375756
465.30 0.6620201
465.40 0.6149697
465.50 0.6062101
465.60 0.6397068
465.70 0.7199156
465.80 0.8357676
465.90 0.9547884
466.00 1.034946
466.10 1.044837
466.20 0.9888462
466.30 0.9137327
466.40 0.8771813
466.50 0.9033487
466.60 0.9663072
466.70 1.014811
466.80 1.004219
466.90 0.9085834
467.00 0.7381673
467.10 0.5573712
467.20 0.4573018
467.30 0.4824317
467.40 0.5903552
467.50 0.6945611
467.60 0.7376835
467.70 0.7151466
467.80 0.6533436
467.90 0.5871829
468.00 0.5480955
468.10 0.5506086
468.20 0.5833366
468.30 0.6266402
468.40 0.6721628
468.50 0.7205987
468.60 0.7668139
468.70 0.795248
468.80 0.79585
468.90 0.7735461
469.00 0.735717
469.10 0.6797782
469.20 0.6089592
469.30 0.5575883
469.40 0.5634119
469.50 0.6109317
469.60 0.6366501
469.70 0.6087433
469.80 0.5692722
469.90 0.5680732
470.00 0.5868107
470.10 0.5700728
470.20 0.516537
470.30 0.4850209
470.40 0.5166595
470.50 0.580278
470.60 0.6082392
470.70 0.5742093
470.80 0.5147212
470.90 0.4906056
471.00 0.5365671
471.10 0.6401592
471.20 0.7537643
471.30 0.8245994
471.40 0.8303796
471.50 0.7997617
471.60 0.7906824
471.70 0.8300118
471.80 0.8813531
471.90 0.8806949
472.00 0.8040987
472.10 0.6949878
472.20 0.6299977
472.30 0.6617845
472.40 0.7776557
472.50 0.9090744
472.60 0.9889068
472.70 1.008454
472.80 1.01286
472.90 1.036305
473.00 1.057127
473.10 1.030629
473.20 0.9477171
473.30 0.8411466
473.40 0.7449202
473.50 0.6663726
473.60 0.602896
473.70 0.5699083
473.80 0.5957637
473.90 0.6878729
474.00 0.8082338
474.10 0.8911641
474.20 0.8928487
474.30 0.8277503
474.40 0.7544665
474.50 0.7233405
474.60 0.7384345
474.70 0.7663221
474.80 0.7732248
474.90 0.7528985
475.00 0.7270094
475.10 0.7245834
475.20 0.7667434
475.30 0.8553069
475.40 0.9617877
475.50 1.031679
475.60 1.01289
475.70 0.8952985
475.80 0.7259771
475.90 0.5759844
476.00 0.480485
476.10 0.4134721
476.20 0.3265962
476.30 0.2111629
476.40 0.1673646
476.50 0.1582431
476.60 0.1515939
476.70 0.2146886
476.80 0.2980133
476.90 0.3438456
477.00 0.3491641
477.10 0.3489797
477.20 0.3874467
477.30 0.473435
477.40 0.5716306
477.50 0.6398874
477.60 0.6609583
477.70 0.6363291
477.80 0.5672723
477.90 0.4633823
478.00 0.361791
478.10 0.3106158
478.20 0.3249449
478.30 0.3671757
478.40 0.3855342
478.50 0.3748312
478.60 0.3804906
478.70 0.4327993
478.80 0.499104
478.90 0.5136853
479.00 0.4545115
479.10 0.3767259
479.20 0.3594527
479.30 0.4313971
479.40 0.5534782
479.50 0.6605245
479.60 0.712691
479.70 0.7155448
479.80 0.7038002
479.90 0.7076665
480.00 0.7260252
480.10 0.7319487
480.20 0.7035404
480.30 0.6402878
480.40 0.5525301
480.50 0.4539105
480.60 0.3685151
480.70 0.3338626
480.80 0.3774292
480.90 0.4891397
481.00 0.6244532
481.10 0.7328015
481.20 0.7905368
481.30 0.8106237
481.40 0.8164441
481.50 0.8050158
481.60 0.7490479
481.70 0.638447
481.80 0.5103468
481.90 0.4269724
482.00 0.4186113
482.10 0.4620518
482.20 0.5128845
482.30 0.5450201
482.40 0.559298
482.50 0.5699839
482.60 0.5963203
482.70 0.6501759
482.80 0.7150901
482.90 0.7459861
483.00 0.7140974
483.10 0.6417908
483.20 0.5724001
483.30 0.5228322
483.40 0.4886132
483.50 0.4840367
483.60 0.5364978
483.70 0.6416248
483.80 0.7562669
483.90 0.8425676
484.00 0.8964047
484.10 0.9317195
484.20 0.9578935
484.30 0.9734396
484.40 0.9672028
484.50 0.923229
484.60 0.839879
484.70 0.7511703
484.80 0.7136745
484.90 0.7567699
485.00 0.8452077
485.10 0.9016282
485.20 0.8761375
485.30 0.7914302
485.40 0.7094496
485.50 0.6553108
485.60 0.6015279
485.70 0.5492967
485.80 0.607168
485.90 0.9361913
486.00 1.573956
486.10 2.311323
486.20 2.786831
486.30 2.746963
486.40 2.236897
486.50 1.552014
486.60 1.006656
486.70 0.735197
486.80 0.6725517
486.90 0.6737989
487.00 0.6365265
487.10 0.5463503
487.20 0.453564
487.30 0.4228508
487.40 0.4867905
487.50 0.6236322
487.60 0.7758525
487.70 0.8892823
487.80 0.9382985
487.90 0.9232008
488.00 0.8589379
488.10 0.7734682
488.20 0.7047741
488.30 0.6863751
488.40 0.7281075
488.50 0.8083995
488.60 0.883792
488.70 0.9143615
488.80 0.8870239
488.90 0.8196735
489.00 0.7494018
489.10 0.7163347
489.20 0.7427944
489.30 0.8094286
489.40 0.858215
489.50 0.8406184
489.60 0.7693288
489.70 0.7050194
489.80 0.6920368
489.90 0.7293217
490.00 0.8002061
490.10 0.8943717
490.20 0.988873
490.30 1.041162
490.40 1.03011
490.50 0.992194
490.60 0.9844244
490.70 1.016589
490.80 1.046972
490.90 1.041597
491.00 1.0167
491.10 1.011767
491.20 1.037323
491.30 1.070935
491.40 1.091995
491.50 1.097612
491.60 1.094748
491.70 1.093001
491.80 1.104073
491.90 1.135269
492.00 1.174342
492.10 1.196454
492.20 1.195214
492.30 1.192046
492.40 1.207984
492.50 1.232021
492.60 1.227754
492.70 1.180978
492.80 1.12652
492.90 1.114538
493.00 1.156164
493.10 1.214898
493.20 1.254532
493.30 1.278204
493.40 1.311557
493.50 1.364681
493.60 1.426626
493.70 1.485732
493.80 1.538966
493.90 1.582498
494.00 1.611426
494.10 1.63029
494.20 1.650169
494.30 1.676948
494.40 1.711402
494.50 1.75457
494.60 1.803528
494.70 1.844988
494.80 1.860721
494.90 1.843314
495.00 1.798032
495.10 1.735277
495.20 1.666675
495.30 1.591358
495.40 1.482152
495.50 1.303627
495.60 1.05661
495.70 0.7947425
495.80 0.5791362
495.90 0.4216675
496.00 0.2947736
496.10 0.1873553
496.20 0.1235001
496.30 0.1301536
496.40 0.2043874
496.50 0.3148687
496.60 0.4214111
496.70 0.4943398
496.80 0.5357077
496.90 0.5785074
497.00 0.6385914
497.10 0.6738669
497.20 0.6213135
497.30 0.4791105
497.40 0.3274242
497.50 0.2586511
497.60 0.3102736
497.70 0.4651299
497.80 0.6777968
497.90 0.87596
498.00 0.9699807
498.10 0.9135365
498.20 0.7655216
498.30 0.6600308
498.40 0.6963855
498.50 0.8603294
498.60 1.046164
498.70 1.147487
498.80 1.128689
498.90 1.030299
499.00 0.9215029
499.10 0.8450307
499.20 0.7982468
499.30 0.7601378
499.40 0.7265435
499.50 0.7151526
499.60 0.7357554
499.70 0.7580209
499.80 0.7192755
499.90 0.5782528
500.00 1
500.10 1.096884
500.20 0.6778997
500.30 0.1641983
500.40 0.3381743
500.50 0.7306339
500.60 0.7914067
500.70 0.8371268
500.80 0.8182898
500.90 0.7966356
501.00 0.8649013
501.10 1.007007
501.20 0.8451576
501.30 0.6373099
501.40 0.9168357
501.50 0.8048851
501.60 0.2974698
501.70 0.4273505
501.80 0.6418858
501.90 0.7806959
502.00 1.224873
502.10 0.5756767
502.20 0.6498854
502.30 0.6307595
502.40 0.4720891
502.50 0.5770526
502.60 0.9373601
502.70 0.9353801
502.80 0.860301
502.90 0.9990914
503.00 1.292011
503.10 1.355866
503.20 0.9539484
503.30 0.8320886
503.40 0.8999972
503.50 0.3707714
503.60 0.5656895
503.70 1.367708
503.80 1.323205
503.90 0.9698262
504.00 1.144319
504.10 0.7044286
504.20 0.5889353
504.30 0.9546926
504.40 0.9719558
504.50 0.633188
504.60 0.7445942
504.70 0.9724313
504.80 0.7607861
504.90 1.044377
505.00 1.244462
505.10 0.9999044
505.20 0.9217959
505.30 1.078523
505.40 0.7502947
505.50 0.3397819
505.60 0.8717929
505.70 1.240294
505.80 1.030818
505.90 0.8291803
506.00 1.032988
506.10 1.006047
506.20 0.7213979
506.30 1.201813
506.40 1.178596
506.50 0.869153
506.60 0.8228882
506.70 0.8057334
506.80 0.9587931
506.90 1.132374
507.00 1.500102
507.10 1.531743
507.20 1.173069
507.30 0.9992659
507.40 1.324203
507.50 1.658988
507.60 1.67026
507.70 1.615742
507.80 1.536717
507.90 1.713178
508.00 1.579
508.10 1.347549
508.20 1.30811
508.30 1.289522
508.40 0.9667901
508.50 0.6633163
508.60 0.872269
508.70 1.433661
508.80 1.553207
508.90 1.262577
509.00 1.271241
509.10 1.089798
509.20 1.047128
509.30 1.331418
509.40 1.376417
509.50 1.218671
509.60 1.564684
509.70 1.943863
509.80 1.637626
509.90 1.560196
510.00 1.074315
510.10 0.570041
510.20 0.688729
510.30 0.8346128
510.40 0.7820002
510.50 1.128428
510.60 1.064632
510.70 0.6296509
510.80 0.9209852
510.90 1.469152
511.00 1.602881
511.10 1.370755
511.20 1.496477
511.30 1.773774
511.40 1.383224
511.50 1.234728
511.60 1.729994
511.70 2.008108
511.80 1.293862
511.90 1.225498
512.00 1.445646
512.10 1.525252
512.20 1.519353
512.30 1.736281
512.40 1.673963
512.50 1.477516
512.60 1.139704
512.70 1.251913
512.80 1.318691
512.90 0.7921334
513.00 0.9593982
513.10 1.523896
513.20 1.365707
513.30 1.495636
513.40 1.75567
513.50 1.455797
513.60 1.535758
513.70 1.363148
513.80 1.308629
513.90 1.431867
514.00 1.532223
514.10 0.9373966
514.20 0.901083
514.30 1.288761
514.40 1.442276
514.50 1.68353
514.60 1.471447
514.70 1.184747
514.80 1.047713
514.90 1.065597
515.00 0.7932612
515.10 0.8699311
515.20 1.263371
515.30 1.483681
515.40 1.368758
515.50 1.196382
515.60 0.9925654
515.70 1.49418
515.80 1.847255
515.90 1.972707
516.00 1.695471
516.10 1.555417
516.20 1.875655
516.30 1.962962
516.40 2.11459
516.50 1.962637
516.60 1.582069
516.70 1.20787
516.80 0.9736255
516.90 0.3411951
517.00 0.2213982
517.10 0.158937
517.20 0.263323
517.30 0.5312375
517.40 0.5692657
517.50 0.4977129
517.60 0.8383534
517.70 0.7376324
517.80 0.6042397
517.90 0.6622338
518.00 0.6566471
518.10 0.4119502
518.20 0.3826151
518.30 0.158925
518.40 0.1891904
518.50 0.4675661
518.60 1.021463
518.70 0.9835216
518.80 1.051688
518.90 0.985528
519.00 0.8862717
519.10 0.9490152
519.20 1.017114
519.30 0.707887
519.40 0.7741562
519.50 0.9271915
519.60 1.081928
519.70 1.051294
519.80 0.7015806
519.90 0.4764707
520.00 0.2521565
520.10 0.197446
520.20 0.4345835
520.30 1.047269
520.40 1.365723
520.50 1.182609
520.60 0.7974505
520.70 0.8095985
520.80 1.124164
520.90 1.066707
521.00 0.6542927
521.10 0.6011664
521.20 1.038698
521.30 1.296247
521.40 1.442423
521.50 1.153261
521.60 1.058711
521.70 1.317874
521.80 1.378619
521.90 1.37077
522.00 1.641547
522.10 1.434199
522.20 1.130526
522.30 0.9134448
522.40 1.008939
522.50 1.709297
522.60 1.984998
522.70 2.005207
522.80 1.629504
522.90 1.068668
523.00 1.241227
523.10 1.567262
523.20 1.763187
523.30 1.569762
523.40 1.460337
523.50 1.360595
523.60 1.595507
523.70 1.450269
523.80 1.556091
523.90 1.76999
524.00 1.697685
524.10 1.316333
524.20 1.534033
524.30 1.372771
524.40 1.100903
524.50 0.8969839
524.60 1.079815
524.70 1.17303
524.80 1.140366
524.90 1.245389
525.00 1.417557
525.10 1.015704
525.20 0.9594014
525.30 1.48361
525.40 2.161778
525.50 1.592166
525.60 1.161664
525.70 1.437878
525.80 1.876007
525.90 1.75728
526.00 1.519504
526.10 1.228983
526.20 1.401391
526.30 1.609742
526.40 1.401529
526.50 1.292838
526.60 1.354077
526.70 1.336421
526.80 1.372301
526.90 1.128583
527.00 1.475392
527.10 1.652015
527.20 1.305575
527.30 1.204861
527.40 1.251005
527.50 1.528831
527.60 1.912768
527.70 1.748185
527.80 1.649962
527.90 1.566885
528.00 1.536833
528.10 1.298944
528.20 1.060619
528.30 1.751147
528.40 2.038391
528.50 1.533897
528.60 1.255872
528.70 1.601977
528.80 1.999113
528.90 1.968951
529.00 1.712343
529.10 1.572511
529.20 1.632738
529.30 1.698041
529.40 1.731015
529.50 1.778701
529.60 1.849953
529.70 2.111597
529.80 2.007767
529.90 1.628796
530.00 1.59879
530.10 1.932387
530.20 2.140948
530.30 1.913611
530.40 2.019417
530.50 2.235735
530.60 2.053841
530.70 2.021454
530.80 1.742449
530.90 1.608308
531.00 1.646303
531.10 1.392896
531.20 1.308449
531.30 1.623994
531.40 1.376755
531.50 1.144773
531.60 1.434805
531.70 1.699939
531.80 1.719549
531.90 1.360913
532.00 1.348393
532.10 1.998412
532.20 1.847186
532.30 1.583016
532.40 1.629666
532.50 1.873687
532.60 1.860855
532.70 1.443222
532.80 1.346811
532.90 1.78179
533.00 1.566892
533.10 1.376118
533.20 1.508975
533.30 2.161344
533.40 1.975357
533.50 1.411922
533.60 1.386479
533.70 1.133083
533.80 1.352213
533.90 1.664665
534.00 2.072116
534.10 1.909266
534.20 1.546155
534.30 1.602895
534.40 1.822239
534.50 1.95801
534.60 2.179268
534.70 2.064389
534.80 1.513098
534.90 1.460369
535.00 1.667033
535.10 2.287345
535.20 2.433128
535.30 2.373742
535.40 2.412487
535.50 2.414862
535.60 2.157798
535.70 2.139207
535.80 1.899883
535.90 1.791806
536.00 1.739812
536.10 2.026299
536.20 1.961673
536.30 1.731836
536.40 1.475085
536.50 1.835926
536.60 1.508929
536.70 1.22924
536.80 1.159363
536.90 1.375008
537.00 1.339963
537.10 1.407958
537.20 1.726176
537.30 1.92434
537.40 1.644954
537.50 1.562899
537.60 1.590343
537.70 1.718996
537.80 1.964671
537.90 2.514153
538.00 2.607019
538.10 2.132327
538.20 1.874057
538.30 2.007242
538.40 2.344523
538.50 2.187072
538.60 1.99581
538.70 1.559109
538.80 1.869442
538.90 1.873205
539.00 2.060386
539.10 2.279711
539.20 1.990529
539.30 1.53176
539.40 2.021742
539.50 2.25411
539.60 2.211741
539.70 2.085344
539.80 2.438761
539.90 2.605765
540.00 2.275283
540.10 2.514856
540.20 2.946564
540.30 2.809985
540.40 2.553049
540.50 2.29757
540.60 2.059239
540.70 2.411864
540.80 2.595993
540.90 1.839177
541.00 1.587165
541.10 1.502122
541.20 1.94541
541.30 2.290663
541.40 2.063773
541.50 1.950463
541.60 1.979447
541.70 2.23343
541.80 2.518215
541.90 2.509803
542.00 2.054576
542.10 2.229858
542.20 2.420843
542.30 2.620623
542.40 2.695623
542.50 2.791473
542.60 2.835058
542.70 2.423999
542.80 2.04743
542.90 2.164745
543.00 2.067215
543.10 1.90595
543.20 1.968944
543.30 1.781275
543.40 1.826603
543.50 2.102397
543.60 2.235806
543.70 2.119932
543.80 2.130609
543.90 2.693579
544.00 2.776295
544.10 2.654246
544.20 3.002495
544.30 3.004594
544.40 2.585672
544.50 2.587586
544.60 2.926964
544.70 2.971428
544.80 2.50177
544.90 2.112773
545.00 1.564634
545.10 0.5518794
545.20 0.3329542
545.30 0.5730453
545.40 0.6151782
545.50 0.8208671
545.60 0.6963706
545.70 0.5354669
545.80 0.8106769
545.90 1.058403
546.00 1.186729
546.10 1.67819
546.20 1.829927
546.30 1.780255
546.40 1.653204
546.50 1.141687
546.60 1.010936
546.70 1.077035
546.80 1.482373
546.90 1.617133
547.00 1.449962
547.10 1.034419
547.20 0.9657675
547.30 0.737264
547.40 0.6275832
547.50 0.9727095
547.60 1.511258
547.70 1.287647
547.80 1.303824
547.90 1.429709
548.00 1.514209
548.10 1.280719
548.20 1.120337
548.30 0.999547
548.40 1.139402
548.50 1.336398
548.60 1.286957
548.70 1.200563
548.80 1.220964
548.90 1.144013
549.00 1.130041
549.10 0.882421
549.20 1.200026
549.30 1.272114
549.40 1.357571
549.50 1.549428
549.60 1.553926
549.70 1.049606
549.80 1.077476
549.90 1.397058
550.00 1.026133
550.10 0.6822483
550.20 0.6217419
550.30 0.9241012
550.40 0.7380141
550.50 0.5718794
550.60 0.7519413
550.70 0.704334
550.80 0.5481984
550.90 0.5807241
551.00 0.5193495
551.10 0.4569493
551.20 0.2212014
551.30 0.1723651
551.40 0.2898365
551.50 0.6642507
551.60 0.9427103
551.70 1.014571
551.80 0.5535538
551.90 0.2284061
552.00 0.5238817
552.10 0.4403383
552.20 0.1412264
552.30 0.3130429
552.40 0.4809256
552.50 0.5365327
552.60 0.9104474
552.70 0.7050403
552.80 0.5645273
552.90 0.5399082
553.00 0.2195164
553.10 0.3841781
553.20 0.5693105
553.30 0.6250339
553.40 0.5570297
553.50 0.6580311
553.60 0.3266873
553.70 0.4473949
553.80 0.4359525
553.90 0.3346703
554.00 0.5918736
554.10 0.5787707
554.20 0.4626341
554.30 0.4036852
554.40 0.6359545
554.50 0.6559995
554.60 0.2279964
554.70 0.1398703
554.80 0.1207415
554.90 0.3456637
555.00 0.535682
555.10 0.5459109
555.20 0.1969199
555.30 0.4922804
555.40 0.7854912
555.50 0.5931138
555.60 0.511882
555.70 0.59943
555.80 0.7892329
555.90 0.4904944
556.00 0.6620189
556.10 1.065821
556.20 0.8634911
556.30 0.6743476
556.40 0.8314345
556.50 1.19079
556.60 1.199231
556.70 0.8813715
556.80 0.714395
556.90 0.7586729
557.00 0.9689229
557.10 1.131598
557.20 1.147333
557.30 1.140798
557.40 1.140648
557.50 1.140649
557.60 1.140649
557.70 1.140649
557.80 1.140649
557.90 1.140649
558.00 1.140649
558.10 1.140649
558.20 1.14054
558.30 1.139563
558.40 1.119345
558.50 1.237702
558.60 1.549895
558.70 1.590941
558.80 1.439904
558.90 1.304733
559.00 1.260812
559.10 1.199941
559.20 1.273813
559.30 1.519528
559.40 1.460963
559.50 1.434974
559.60 1.673598
559.70 1.281963
559.80 0.8844253
559.90 0.865158
560.00 1.050152
560.10 0.9684444
560.20 1.280966
560.30 1.457398
560.40 1.520416
560.50 1.434601
560.60 1.333201
560.70 0.969211
560.80 0.9586189
560.90 1.132553
561.00 1.513879
561.10 1.808359
561.20 1.394509
561.30 1.043233
561.40 1.261227
561.50 1.480693
561.60 1.319632
561.70 1.494115
561.80 1.360128
561.90 0.9965612
562.00 0.8543861
562.10 1.02625
562.20 1.285658
562.30 1.259741
562.40 1.208601
562.50 1.064052
562.60 1.002013
562.70 0.9607076
562.80 0.8958964
562.90 1.036457
563.00 1.599006
563.10 1.316022
563.20 0.749255
563.30 0.6284209
563.40 1.163661
563.50 1.526815
563.60 1.390804
563.70 0.9529684
563.80 0.6527721
563.90 1.10879
564.00 1.322362
564.10 0.9350083
564.20 0.6505924
564.30 0.8855658
564.40 1.254878
564.50 1.091307
564.60 1.089854
564.70 0.9832432
564.80 1.291833
564.90 1.492289
565.00 1.431483
565.10 1.216144
565.20 1.449845
565.30 1.861057
565.40 1.763741
565.50 1.55553
565.60 1.2749
565.70 1.469153
565.80 1.498998
565.90 1.688511
566.00 1.741556
566.10 1.428608
566.20 1.305954
566.30 1.47236
566.40 1.743395
566.50 1.396806
566.60 1.33525
566.70 1.520686
566.80 1.657237
566.90 1.41082
567.00 1.363522
567.10 1.382631
567.20 1.459772
567.30 1.624952
567.40 1.373604
567.50 1.306983
567.60 1.233229
567.70 1.526577
567.80 1.512722
567.90 1.500049
568.00 1.543721
568.10 1.327562
568.20 1.248231
568.30 1.657843
568.40 2.106546
568.50 1.873921
568.60 1.2847
568.70 1.400013
568.80 1.736559
568.90 2.138957
569.00 2.311486
569.10 1.633525
569.20 1.681798
569.30 1.822551
569.40 1.933115
569.50 1.674762
569.60 1.316552
569.70 1.20703
569.80 1.331686
569.90 1.713488
570.00 1.968695
570.10 1.972714
570.20 1.836047
570.30 1.357191
570.40 1.41427
570.50 1.895629
570.60 2.360142
570.70 2.142042
570.80 2.065193
570.90 2.097186
571.00 2.029798
571.10 2.042974
571.20 2.033056
571.30 2.054579
571.40 1.715861
571.50 1.403224
571.60 1.397972
571.70 1.691807
571.80 2.265607
571.90 2.081034
572.00 1.597841
572.10 1.331238
572.20 1.619139
572.30 1.723465
572.40 1.894287
572.50 2.032047
572.60 2.089753
572.70 2.132496
572.80 1.945965
572.90 1.73916
573.00 1.805908
573.10 1.922589
573.20 1.77108
573.30 1.924277
573.40 2.33893
573.50 2.278955
573.60 2.097623
573.70 1.947254
573.80 1.977656
573.90 1.796755
574.00 1.46608
574.10 1.531264
574.20 1.713578
574.30 1.844681
574.40 2.024958
574.50 2.157754
574.60 2.092102
574.70 1.836018
574.80 2.280763
574.90 1.774356
575.00 1.353787
575.10 1.762453
575.20 2.36901
575.30 2.131109
575.40 1.672066
575.50 2.051944
575.60 2.215994
575.70 2.06223
575.80 2.220245
575.90 2.275163
576.00 1.963942
576.10 1.301041
576.20 1.298022
576.30 1.470511
576.40 1.711955
576.50 1.847994
576.60 1.84896
576.70 1.837792
576.80 1.822581
576.90 1.392751
577.00 1.183999
577.10 1.492951
577.20 1.344293
577.30 1.022291
577.40 1.175273
577.50 1.686659
577.60 2.028936
577.70 1.883699
577.80 1.55695
577.90 1.396239
578.00 1.874669
578.10 2.304932
578.20 2.319845
578.30 1.861644
578.40 1.275539
578.50 1.536925
578.60 2.227966
578.70 2.568802
578.80 2.118647
578.90 2.072534
579.00 2.357979
579.10 2.573895
579.20 2.604113
579.30 2.218428
579.40 2.135238
579.50 2.371375
579.60 2.478664
579.70 2.636473
579.80 2.504234
579.90 2.118593
580.00 2.429274
580.10 2.801409
580.20 2.620288
580.30 2.353396
580.40 2.244508
580.50 2.631291
580.60 2.815968
580.70 2.722147
580.80 2.823914
580.90 2.911713
581.00 2.492414
581.10 2.387976
581.20 2.222715
581.30 1.780129
581.40 1.722438
581.50 1.725762
581.60 1.867375
581.70 1.96464
581.80 2.32364
581.90 2.258313
582.00 1.527148
582.10 1.56341
582.20 1.807185
582.30 1.89759
582.40 1.736903
582.50 1.322212
582.60 1.493085
582.70 1.900543
582.80 2.164016
582.90 1.707216
583.00 1.764248
583.10 2.254349
583.20 2.353051
583.30 2.062198
583.40 2.442975
583.50 2.348377
583.60 1.396241
583.70 1.263697
583.80 1.483992
583.90 1.383512
584.00 1.294721
584.10 1.613259
584.20 2.069397
584.30 2.225608
584.40 2.319271
584.50 2.197928
584.60 1.694792
584.70 1.478828
584.80 1.411652
584.90 1.77765
585.00 1.905734
585.10 1.666846
585.20 1.147946
585.30 1.185594
585.40 1.54914
585.50 1.698775
585.60 1.852365
585.70 1.540218
585.80 1.313816
585.90 1.491719
586.00 1.617384
586.10 0.9969572
586.20 0.5605365
586.30 0.6808489
586.40 1.051397
586.50 1.118804
586.60 1.183489
586.70 1.04368
586.80 0.991742
586.90 1.402941
587.00 1.462276
587.10 1.128711
587.20 0.8593746
587.30 0.8523014
587.40 1.146326
587.50 1.113086
587.60 1.079662
587.70 1.073394
587.80 1.19301
587.90 1.046551
588.00 0.9568638
588.10 0.6495978
588.20 0.6639667
588.30 0.9253699
588.40 1.02932
588.50 0.8904519
588.60 0.4638552
588.70 0.4874084
588.80 1.031957
588.90 1.876801
589.00 1.966854
589.10 0.7534618
589.20 0.88824
589.30 2.141524
589.40 2.210779
589.50 1.315609
589.60 0.6663089
589.70 0.3636998
589.80 0.6254691
589.90 1.000723
590.00 1.082512
590.10 0.6414311
590.20 0.8666297
590.30 0.8153101
590.40 0.5119356
590.50 0.5338236
590.60 0.7776376
590.70 1.211189
590.80 1.213696
590.90 1.009102
591.00 0.689857
591.10 0.9145613
591.20 1.149281
591.30 0.9058003
591.40 0.8375832
591.50 0.8685249
591.60 1.097265
591.70 0.9470203
591.80 0.7744385
591.90 1.040244
592.00 1.087754
592.10 0.9941372
592.20 0.7933073
592.30 1.247628
592.40 1.357007
592.50 0.6051629
592.60 0.8554143
592.70 1.358496
592.80 1.100979
592.90 0.7378099
593.00 0.8402369
593.10 1.193553
593.20 1.211656
593.30 1.108701
593.40 0.952126
593.50 0.7248698
593.60 0.7506979
593.70 1.044234
593.80 0.9948781
593.90 0.92007
594.00 1.006721
594.10 1.023227
594.20 0.7819497
594.30 1.049792
594.40 1.222258
594.50 1.224143
594.60 1.140384
594.70 1.358607
594.80 1.513261
594.90 1.553734
595.00 1.691377
595.10 1.307002
595.20 0.8666392
595.30 0.5899183
595.40 0.6708695
595.50 0.6376082
595.60 0.9592628
595.70 1.74177
595.80 1.891187
595.90 1.417406
596.00 1.008164
596.10 1.022189
596.20 0.8277446
596.30 0.5188326
596.40 0.6718456
596.50 1.336096
596.60 1.420617
596.70 1.277883
596.80 1.277782
596.90 0.984444
597.00 0.833341
597.10 0.7033666
597.20 0.6505469
597.30 0.5282186
597.40 0.5520088
597.50 0.9667434
597.60 1.203387
597.70 1.242272
597.80 0.854968
597.90 0.826959
598.00 0.9972319
598.10 1.314353
598.20 1.317958
598.30 1.207409
598.40 1.087294
598.50 0.9838391
598.60 1.091096
598.70 1.066186
598.80 1.190822
598.90 1.256891
599.00 1.095135
599.10 1.185313
599.20 1.333309
599.30 1.256234
599.40 0.920508
599.50 0.776511
599.60 1.015461
599.70 1.135094
599.80 0.9645043
599.90 1.2705
600.00 1.544152
600.10 1.562217
600.20 1.365527
600.30 1.391935
600.40 1.572482
600.50 1.395425
600.60 1.219644
600.70 1.128218
600.80 1.434383
600.90 1.469277
601.00 1.097309
601.10 0.8649987
601.20 1.065391
601.30 1.436231
601.40 1.341667
601.50 1.013989
601.60 1.207739
601.70 1.411622
601.80 1.636379
601.90 1.612475
602.00 1.369508
602.10 0.9450547
602.20 0.9242844
602.30 1.060615
602.40 1.268885
602.50 1.479544
602.60 1.462316
602.70 1.27367
602.80 1.073833
602.90 1.181045
603.00 1.183641
603.10 0.9248592
603.20 1.011641
603.30 1.163052
603.40 1.566156
603.50 1.805807
603.60 1.61209
603.70 1.516333
603.80 1.308962
603.90 1.174055
604.00 1.21429
604.10 1.224316
604.20 1.345088
604.30 1.557503
604.40 1.711184
604.50 1.672742
604.60 1.493781
604.70 1.56729
604.80 2.004847
604.90 2.081322
605.00 1.714032
605.10 1.481579
605.20 1.6281
605.30 1.560197
605.40 1.373771
605.50 1.379847
605.60 1.505738
605.70 1.768106
605.80 1.824441
605.90 1.436069
606.00 1.30144
606.10 1.376792
606.20 1.509203
606.30 1.560326
606.40 1.599338
606.50 1.623365
606.60 1.457816
606.70 1.633997
606.80 1.975423
606.90 2.175033
607.00 2.059571
607.10 1.853808
607.20 1.767029
607.30 1.519073
607.40 1.556837
607.50 1.662462
607.60 1.687413
607.70 1.682487
607.80 1.605006
607.90 1.684684
608.00 1.494788
608.10 1.489728
608.20 1.463377
608.30 1.506652
608.40 1.87057
608.50 1.844448
608.60 1.665594
608.70 1.604105
608.80 1.77998
608.90 1.697987
609.00 1.243506
609.10 1.451185
609.20 1.745737
609.30 1.800137
609.40 1.657228
609.50 1.649008
609.60 1.592371
609.70 1.551958
609.80 1.825163
609.90 1.772555
610.00 1.488212
610.10 1.695968
610.20 1.868516
610.30 1.669235
610.40 1.234277
610.50 1.416447
610.60 1.734224
610.70 1.741388
610.80 1.480192
610.90 1.564244
611.00 1.579246
611.10 1.676233
611.20 1.820148
611.30 1.745895
611.40 1.539313
611.50 1.488326
611.60 1.390738
611.70 1.369965
611.80 1.379017
611.90 1.579893
612.00 1.849092
612.10 1.797389
612.20 1.593762
612.30 1.458787
612.40 1.495596
612.50 1.559098
612.60 1.263897
612.70 1.185933
612.80 1.195498
612.90 1.233755
613.00 1.604293
613.10 1.722099
613.20 1.269095
613.30 1.372377
613.40 1.729495
613.50 1.699113
613.60 1.405588
613.70 1.401182
613.80 1.52572
613.90 1.267331
614.00 1.18248
614.10 1.331045
614.20 1.267814
614.30 1.055147
614.40 1.239976
614.50 1.483907
614.60 1.573891
614.70 1.477675
614.80 1.598126
614.90 1.404889
615.00 1.319089
615.10 1.077125
615.20 0.7992109
615.30 0.9284953
615.40 1.147726
615.50 1.147733
615.60 0.9539
615.70 1.151518
615.80 1.475342
615.90 1.219385
616.00 1.067389
616.10 1.093015
616.20 1.039946
616.30 1.002113
616.40 1.059008
616.50 1.132013
616.60 0.8944569
616.70 0.7672849
616.80 0.8639356
616.90 0.8071098
617.00 0.8454008
617.10 0.8906229
617.20 1.035833
617.30 1.065634
617.40 0.8477665
617.50 0.9743109
617.60 1.151888
617.70 0.9496017
617.80 0.6465781
617.90 0.8739709
618.00 0.8552095
618.10 0.5460319
618.20 0.2424915
618.30 0.447853
618.40 1.21706
618.50 1.355235
618.60 1.118189
618.70 0.9991038
618.80 0.8097775
618.90 0.6086518
619.00 0.6490732
619.10 0.7765475
619.20 0.6830952
619.30 0.9202062
619.40 0.9581695
619.50 0.9049323
619.60 0.8677009
619.70 1.10818
619.80 1.002478
619.90 0.7175935
620.00 0.6258844
620.10 0.7716237
620.20 1.03343
620.30 0.9482187
620.40 0.9057996
620.50 0.8426015
620.60 0.6993474
620.70 0.6749008
620.80 0.9007494
620.90 1.154393
621.00 1.073157
621.10 1.148838
621.20 1.181924
621.30 0.9789814
621.40 0.9732376
621.50 1.055371
621.60 1.141402
621.70 0.8922136
621.80 0.5839591
621.90 0.6824861
622.00 0.8951945
622.10 0.9882443
622.20 1.049738
622.30 0.900388
622.40 0.9372285
622.50 0.8223824
622.60 0.7243739
622.70 0.547362
622.80 0.6138236
622.90 0.9622319
623.00 0.9881125
623.10 0.9768965
623.20 0.8363147
623.30 0.7230787
623.40 0.8698342
623.50 1.089723
623.60 0.8685247
623.70 0.8831758
623.80 0.7423608
623.90 0.2458311
624.00 0.6323467
624.10 1.273606
624.20 1.203557
624.30 0.4410737
624.40 0.3499941
624.50 0.9177021
624.60 1.048123
624.70 0.9271394
624.80 0.7490835
624.90 0.7290877
625.00 0.7768528
625.10 0.7196135
625.20 0.9208678
625.30 1.066693
625.40 1.18121
625.50 1.253411
625.60 1.102818
625.70 1.074046
625.80 1.030811
625.90 1.271198
626.00 1.231766
626.10 1.143571
626.20 1.16523
626.30 0.9346214
626.40 0.7369434
626.50 0.9495121
626.60 1.074098
626.70 0.9072947
626.80 0.6394011
626.90 0.7272011
627.00 0.9741861
627.10 1.086121
627.20 0.9073351
627.30 1.035821
627.40 1.286479
627.50 1.294859
627.60 1.246315
627.70 1.353815
627.80 1.58786
627.90 1.408466
628.00 1.223777
628.10 1.075588
628.20 1.03438
628.30 1.108448
628.40 1.205001
628.50 1.159183
628.60 1.142977
628.70 1.054341
628.80 1.409156
628.90 1.387425
629.00 1.218744
629.10 1.298076
629.20 1.474786
629.30 1.744914
629.40 1.53114
629.50 1.310171
629.60 1.440766
629.70 2.089707
629.80 2.219229
629.90 2.105142
630.00 1.989738
630.10 1.282293
630.20 0.7000892
630.30 0.3323344
630.40 1.665504
630.50 2.586017
630.60 2.181125
630.70 1.944369
630.80 1.726329
630.90 1.754283
631.00 1.720728
631.10 1.914257
631.20 2.151263
631.30 2.048331
631.40 1.961222
631.50 1.767475
631.60 1.679904
631.70 1.920779
631.80 1.989337
631.90 1.903124
632.00 1.90909
632.10 2.287697
632.20 2.172237
632.30 1.786692
632.40 1.865921
632.50 2.083727
632.60 2.115325
632.70 1.887917
632.80 1.840947
632.90 2.024945
633.00 2.282873
633.10 2.032692
633.20 1.719798
633.30 1.703493
633.40 2.011644
633.50 2.266155
633.60 2.26808
633.70 2.287727
633.80 2.282751
633.90 2.361801
634.00 2.342829
634.10 2.514366
634.20 2.65193
634.30 2.510905
634.40 2.267754
634.50 2.2591
634.60 2.490786
634.70 2.699624
634.80 2.772086
634.90 2.623147
635.00 2.686524
635.10 2.781515
635.20 2.569186
635.30 2.319207
635.40 2.442577
635.50 2.6684
635.60 2.53509
635.70 2.444423
635.80 2.362597
635.90 2.003164
636.00 1.924468
636.10 2.546967
636.20 3.274603
636.30 3.11831
636.40 2.241854
636.50 1.767556
636.60 1.817756
636.70 1.906395
636.80 2.24258
636.90 2.313532
637.00 2.252711
637.10 2.435352
637.20 2.669175
637.30 2.635012
637.40 2.340489
637.50 2.133016
637.60 2.308693
637.70 2.491626
637.80 2.48683
637.90 2.388955
638.00 2.352738
638.10 2.397438
638.20 2.024104
638.30 1.892838
638.40 2.156053
638.50 2.344557
638.60 2.347057
638.70 2.269554
638.80 2.260681
638.90 2.193637
639.00 2.212741
639.10 2.236481
639.20 2.350476
639.30 2.470387
639.40 2.647479
639.50 2.621486
639.60 2.479664
639.70 2.527511
639.80 2.716683
639.90 2.774556
640.00 2.784614
640.10 2.854196
640.20 2.726919
640.30 2.613984
640.40 2.764957
640.50 3.117343
640.60 3.316995
640.70 3.135471
640.80 2.913597
640.90 2.739409
641.00 2.696688
641.10 2.736429
641.20 2.70251
641.30 2.831526
641.40 2.956886
641.50 2.90143
641.60 2.718799
641.70 2.613945
641.80 2.727559
641.90 2.811848
642.00 2.765736
642.10 2.703155
642.20 2.636809
642.30 2.558161
642.40 2.562975
642.50 2.399768
642.60 2.295935
642.70 2.375842
642.80 2.627387
642.90 2.884036
643.00 2.768481
643.10 2.698252
643.20 2.704897
643.30 2.681581
643.40 2.613008
643.50 2.464392
643.60 2.486551
643.70 2.618781
643.80 2.779215
643.90 2.921299
644.00 2.783183
644.10 2.581621
644.20 2.533233
644.30 2.798049
644.40 2.947525
644.50 2.884955
644.60 2.88071
644.70 2.899858
644.80 3.005082
644.90 2.874114
645.00 2.705122
645.10 2.759327
645.20 2.909356
645.30 3.085664
645.40 3.055525
645.50 3.10747
645.60 2.945167
645.70 2.822201
645.80 2.828008
645.90 2.90892
646.00 3.057153
646.10 3.16546
646.20 3.090432
646.30 2.961457
646.40 3.108244
646.50 3.167882
646.60 3.03196
646.70 2.782195
646.80 2.937644
646.90 3.332528
647.00 3.539842
647.10 3.204529
647.20 3.05538
647.30 3.58014
647.40 4.050138
647.50 3.910796
647.60 3.352968
647.70 3.189482
647.80 3.265802
647.90 3.291565
648.00 3.05769
648.10 2.921533
648.20 2.929408
648.30 2.9631
648.40 2.980497
648.50 2.901527
648.60 2.738112
648.70 2.905671
648.80 3.121347
648.90 3.184323
649.00 3.176844
649.10 3.077181
649.20 3.108116
649.30 3.239609
649.40 3.28056
649.50 3.373348
649.60 3.615072
649.70 3.727618
649.80 3.519476
649.90 3.341655
650.00 3.618239
650.10 3.460391
650.20 3.432542
650.30 3.808886
650.40 4.208666
650.50 4.247635
650.60 4.004141
650.70 4.075903
650.80 4.261773
650.90 4.338355
651.00 4.357611
651.10 4.456426
651.20 4.505051
651.30 4.504336
651.40 4.356795
651.50 4.288804
651.60 4.352031
651.70 4.524854
651.80 4.548589
651.90 4.670385
652.00 4.809205
652.10 4.762127
652.20 4.935129
652.30 5.124619
652.40 5.061301
652.50 4.756854
652.60 4.788864
652.70 5.37385
652.80 5.788414
652.90 5.818604
653.00 5.82284
653.10 6.085668
653.20 6.164841
653.30 5.869185
653.40 5.513088
653.50 5.398356
653.60 5.804312
653.70 6.208929
653.80 6.440669
653.90 6.614443
654.00 6.618246
654.10 6.487503
654.20 6.559091
654.30 6.759825
654.40 6.606643
654.50 6.240239
654.60 5.905106
654.70 5.732772
654.80 5.704529
654.90 5.626884
655.00 5.426224
655.10 5.258997
655.20 5.293926
655.30 5.232359
655.40 5.056093
655.50 4.860388
655.60 4.968904
655.70 5.16361
655.80 5.318927
655.90 5.595604
656.00 5.860947
656.10 6.426303
656.20 8.829505
656.30 12.27492
656.40 14.23482
656.50 13.51213
656.60 10.77107
656.70 7.837858
656.80 5.742262
656.90 4.688306
657.00 4.380301
657.10 4.250918
657.20 4.388767
657.30 4.483739
657.40 4.457382
657.50 4.270532
657.60 4.198867
657.70 4.31726
657.80 4.420852
657.90 4.299872
658.00 3.846947
658.10 3.555456
658.20 3.589441
658.30 3.909489
658.40 4.067652
658.50 4.088096
658.60 4.153646
658.70 4.309803
658.80 4.448192
658.90 4.266303
659.00 4.220817
659.10 4.355748
659.20 4.399242
659.30 4.479299
659.40 4.38941
659.50 4.167242
659.60 4.001753
659.70 4.046145
659.80 4.302688
659.90 4.216258
660.00 4.028254
660.10 4.050687
660.20 4.205519
660.30 4.290005
660.40 4.248688
660.50 4.179973
660.60 4.146027
660.70 4.09694
660.80 3.984692
660.90 3.92309
661.00 4.014695
661.10 4.044976
661.20 4.033866
661.30 4.133772
661.40 4.269541
661.50 4.396776
661.60 4.121933
661.70 3.963868
661.80 4.109467
661.90 4.158111
662.00 4.031382
662.10 3.782305
662.20 3.704622
662.30 3.725458
662.40 3.789924
662.50 3.704418
662.60 3.337586
662.70 3.095884
662.80 3.191045
662.90 3.31716
663.00 3.364404
663.10 3.496914
663.20 3.632731
663.30 3.689669
663.40 3.834166
663.50 3.930167
663.60 3.749075
663.70 3.351105
663.80 3.073196
663.90 3.157436
664.00 3.343289
664.10 3.513898
664.20 3.586451
664.30 3.593621
664.40 3.484505
664.50 3.514611
664.60 3.462039
664.70 3.417538
664.80 3.503359
664.90 3.623036
665.00 3.691647
665.10 3.46115
665.20 3.00109
665.30 2.601941
665.40 2.42609
665.50 2.652541
665.60 2.906376
665.70 2.865153
665.80 2.800135
665.90 2.761311
666.00 2.858033
666.10 2.752945
666.20 2.758332
666.30 2.988843
666.40 3.046893
666.50 3.106301
666.60 3.161884
666.70 3.172864
666.80 3.094017
666.90 3.19706
667.00 3.490542
667.10 3.535063
667.20 3.524225
667.30 3.296054
667.40 3.113389
667.50 3.161143
667.60 3.265207
667.70 3.388923
667.80 3.575819
667.90 3.734273
668.00 3.653622
668.10 3.399847
668.20 2.995878
668.30 2.584945
668.40 2.340234
668.50 2.28886
668.60 2.481685
668.70 2.530855
668.80 2.435758
668.90 2.567019
669.00 2.82668
669.10 2.779299
669.20 2.592938
669.30 2.501976
669.40 2.349063
669.50 2.365804
669.60 2.660335
669.70 2.906194
669.80 2.941833
669.90 2.809407
670.00 2.888066
670.10 3.009108
670.20 3.169559
670.30 3.239261
670.40 3.117716
670.50 3.045838
670.60 3.036796
670.70 3.094138
670.80 3.109064
670.90 2.96123
671.00 2.905881
671.10 3.075531
671.20 3.246596
671.30 3.202299
671.40 3.022427
671.50 2.836117
671.60 2.715868
671.70 2.534344
671.80 2.375794
671.90 2.397863
672.00 2.41964
672.10 2.504121
672.20 2.576057
672.30 2.555411
672.40 2.497112
672.50 2.504779
672.60 2.534213
672.70 2.585038
672.80 2.860445
672.90 3.078841
673.00 2.899976
673.10 2.660055
673.20 2.713869
673.30 3.017259
673.40 3.269934
673.50 3.158752
673.60 2.84356
673.70 2.53385
673.80 2.573421
673.90 2.933294
674.00 3.033168
674.10 2.942121
674.20 2.891524
674.30 2.975448
674.40 3.122536
674.50 3.25797
674.60 3.267518
674.70 3.10555
674.80 2.875346
674.90 2.712486
675.00 2.698273
675.10 2.794361
675.20 2.850958
675.30 2.845085
675.40 2.939526
675.50 3.15996
675.60 3.128229
675.70 3.062638
675.80 3.078244
675.90 2.911848
676.00 2.816437
676.10 2.920571
676.20 3.115847
676.30 3.270583
676.40 3.201169
676.50 3.29475
676.60 3.481801
676.70 3.436499
676.80 3.415266
676.90 3.463642
677.00 3.490588
677.10 3.55968
677.20 3.654715
677.30 3.677105
677.40 3.657032
677.50 3.664109
677.60 3.686958
677.70 3.791725
677.80 3.701503
677.90 3.728439
678.00 3.846602
678.10 3.829898
678.20 3.52917
678.30 2.90933
678.40 2.635987
678.50 2.727182
678.60 2.833717
678.70 2.853912
678.80 2.876451
678.90 3.011522
679.00 3.116419
679.10 3.191559
679.20 3.164159
679.30 2.998051
679.40 2.898272
679.50 2.959705
679.60 3.060215
679.70 3.089907
679.80 3.13962
679.90 3.223904
680.00 3.241557
680.10 3.152548
680.20 3.021164
680.30 3.042665
680.40 3.138581
680.50 3.251253
680.60 3.339439
680.70 3.427071
680.80 3.340491
680.90 3.123976
681.00 3.332926
681.10 3.54111
681.20 3.524135
681.30 3.512571
681.40 3.426406
681.50 3.322963
681.60 3.174303
681.70 3.13478
681.80 3.20977
681.90 3.285787
682.00 3.390193
682.10 3.294879
682.20 3.13803
682.30 3.268465
682.40 3.336081
682.50 3.27113
682.60 3.285208
682.70 3.499181
682.80 3.772822
682.90 3.733354
683.00 3.328617
683.10 3.039919
683.20 3.157827
683.30 3.404321
683.40 3.520462
683.50 3.542271
683.60 3.703533
683.70 3.725014
683.80 3.646002
683.90 3.735703
684.00 3.744434
684.10 3.698231
684.20 3.894816
684.30 4.045386
684.40 3.971053
684.50 3.883254
684.60 3.730532
684.70 3.713362
684.80 3.808947
684.90 3.73041
685.00 3.515612
685.10 3.368955
685.20 3.28787
685.30 3.144793
685.40 3.041997
685.50 3.069497
685.60 3.296516
685.70 3.447657
685.80 3.443557
685.90 3.363501
686.00 3.249526
686.10 3.40255
686.20 3.700122
686.30 3.864448
686.40 4.033675
686.50 4.046839
686.60 3.876711
686.70 3.686553
686.80 3.36108
686.90 3.517337
687.00 3.512956
687.10 3.263107
687.20 3.337644
687.30 3.654753
687.40 4.021924
687.50 4.233012
687.60 4.310432
687.70 4.223942
687.80 4.112102
687.90 4.000128
688.00 3.714809
688.10 3.710864
688.20 3.981868
688.30 4.00799
688.40 3.915432
688.50 3.783142
688.60 3.8106
688.70 4.016038
688.80 4.066999
688.90 3.997008
689.00 3.817308
689.10 3.586557
689.20 3.684533
689.30 4.079674
689.40 4.281047
689.50 4.132976
689.60 3.981029
689.70 4.076636
689.80 4.111421
689.90 4.114141
690.00 4.085463
690.10 3.942276
690.20 3.64201
690.30 3.521833
690.40 3.783955
690.50 4.011962
690.60 4.054945
690.70 4.247362
690.80 4.689847
690.90 4.872251
691.00 4.668628
691.10 4.479525
691.20 4.397551
691.30 4.656996
691.40 4.675451
691.50 4.601879
691.60 4.711959
691.70 4.651095
691.80 4.417088
691.90 3.907343
692.00 3.495379
692.10 3.471276
692.20 3.768825
692.30 4.327453
692.40 4.76672
692.50 4.659846
692.60 4.350015
692.70 4.543955
692.80 4.864625
692.90 4.988219
693.00 4.901981
693.10 4.862722
693.20 5.121458
693.30 5.373675
693.40 5.566364
693.50 5.653546
693.60 5.639969
693.70 5.648787
693.80 5.567178
693.90 5.418949
694.00 5.350119
694.10 5.461912
694.20 5.732042
694.30 6.02152
694.40 6.362999
694.50 6.751104
694.60 7.012095
694.70 7.284974
694.80 7.392256
694.90 7.200027
695.00 7.14404
695.10 7.104997
695.20 7.145394
695.30 7.040669
695.40 6.677815
695.50 6.407167
695.60 6.37485
695.70 6.612405
695.80 6.523339
695.90 6.26746
696.00 6.177722
696.10 6.283271
696.20 6.542529
696.30 6.65376
696.40 6.738144
696.50 6.907003
696.60 6.96054
696.70 6.939762
696.80 7.00354
696.90 7.074618
697.00 7.023214
697.10 6.901946
697.20 6.667931
697.30 6.534929
697.40 6.601478
697.50 6.677159
697.60 6.866203
697.70 7.287691
697.80 7.742586
697.90 7.953251
698.00 7.734653
698.10 7.424447
698.20 7.419052
698.30 7.657205
698.40 7.730676
698.50 7.59844
698.60 7.592628
698.70 7.804038
698.80 7.878434
698.90 7.733641
699.00 7.412493
699.10 7.336188
699.20 7.405833
699.30 7.310809
699.40 7.475814
699.50 7.713603
699.60 7.870862
699.70 7.937637
699.80 7.789184
699.90 7.531968
700.00 7.34943
700.10 7.500974
700.20 7.841692
700.30 8.044741
700.40 7.882416
700.50 7.536006
700.60 7.45253
700.70 7.75168
700.80 8.135578
700.90 8.342934
701.00 8.487255
701.10 8.549679
701.20 8.612867
701.30 8.601354
701.40 8.393383
701.50 8.494467
701.60 8.916022
701.70 9.153437
701.80 9.136057
701.90 9.088585
702.00 9.316991
702.10 9.66083
702.20 9.584435
702.30 9.284254
702.40 9.094701
702.50 8.861267
702.60 8.870776
702.70 8.974084
702.80 9.517366
702.90 10.33902
703.00 10.69471
703.10 10.82822
703.20 10.81811
703.30 10.67801
703.40 10.68614
703.50 10.91468
703.60 11.36754
703.70 11.8355
703.80 12.08532
703.90 12.16759
704.00 12.11125
704.10 12.17577
704.20 12.23318
704.30 12.33258
704.40 12.53889
704.50 12.73368
704.60 12.93423
704.70 13.00553
704.80 12.96836
704.90 12.88811
705.00 12.93797
705.10 13.2823
705.20 13.42908
705.30 12.93159
705.40 11.65538
705.50 9.599747
705.60 7.255707
705.70 5.364239
705.80 4.33831
705.90 4.231468
706.00 4.448072
706.10 4.28755
706.20 4.050307
706.30 3.925453
706.40 3.899593
706.50 3.987251
706.60 4.217232
706.70 4.557442
706.80 4.836765
706.90 4.824085
707.00 4.822294
707.10 4.965037
707.20 5.126953
707.30 5.29583
707.40 5.301745
707.50 5.220014
707.60 5.144191
707.70 5.078989
707.80 5.181054
707.90 5.41668
708.00 5.416096
708.10 5.157563
708.20 5.295681
708.30 5.718563
708.40 5.979947
708.50 6.017352
708.60 5.878594
708.70 5.574845
708.80 5.110543
708.90 4.585477
709.00 3.936271
709.10 3.417713
709.20 3.281304
709.30 3.313925
709.40 3.308572
709.50 3.285464
709.60 3.283174
709.70 3.30685
709.80 3.394076
709.90 3.539577
710.00 3.591423
710.10 3.556219
710.20 3.598451
710.30 3.638749
710.40 3.741905
710.50 3.881936
710.60 3.976554
710.70 4.016636
710.80 4.055259
710.90 4.201094
711.00 4.437458
711.10 4.679084
711.20 4.735955
711.30 4.587729
711.40 4.48715
711.50 4.609361
711.60 4.690379
711.70 4.592136
711.80 4.640729
711.90 4.848912
712.00 5.133569
712.10 5.335058
712.20 5.311342
712.30 5.325576
712.40 5.284748
712.50 4.890699
712.60 4.270812
712.70 3.626314
712.80 3.133608
712.90 2.949241
713.00 2.883265
713.10 2.924002
713.20 3.018812
713.30 3.011867
713.40 2.973922
713.50 3.016373
713.60 3.171015
713.70 3.236872
713.80 3.006454
713.90 2.89548
714.00 3.010332
714.10 3.149533
714.20 3.319017
714.30 3.440685
714.40 3.449756
714.50 3.447947
714.60 3.48355
714.70 3.584765
714.80 3.807007
714.90 3.789097
715.00 3.565408
715.10 3.533955
715.20 3.686846
715.30 3.767419
715.40 3.845145
715.50 3.997671
715.60 4.229176
715.70 4.400257
715.80 4.284066
715.90 4.000604
716.00 3.897777
716.10 3.94253
716.20 3.823721
716.30 3.594207
716.40 3.472652
716.50 3.62532
716.60 3.91394
716.70 4.022994
716.80 3.989159
716.90 3.904114
717.00 3.905328
717.10 4.11318
717.20 4.182095
717.30 4.14788
717.40 4.085768
717.50 3.982203
717.60 4.040577
717.70 4.163196
717.80 4.368407
717.90 4.470715
718.00 4.587147
718.10 4.871572
718.20 4.944303
718.30 4.929193
718.40 4.94036
718.50 5.046
718.60 5.20862
718.70 5.209479
718.80 5.219184
718.90 5.352542
719.00 5.492747
719.10 5.667037
719.20 5.721307
719.30 5.635043
719.40 5.612072
719.50 5.634516
719.60 5.625833
719.70 5.397261
719.80 5.132021
719.90 4.922365
720.00 4.625527
720.10 4.38721
720.20 4.489128
720.30 4.758198
720.40 4.83009
720.50 4.749149
720.60 4.668262
720.70 4.800652
720.80 4.892819
720.90 4.784119
721.00 4.684329
721.10 4.848476
721.20 5.107342
721.30 5.221233
721.40 5.281302
721.50 5.301538
721.60 5.358143
721.70 5.375693
721.80 5.346058
721.90 5.362563
722.00 5.33099
722.10 5.371285
722.20 5.547286
722.30 5.72217
722.40 5.873779
722.50 5.971196
722.60 6.081012
722.70 6.255389
722.80 6.442783
722.90 6.579085
723.00 6.528161
723.10 6.287796
723.20 6.201021
723.30 6.280231
723.40 6.291582
723.50 6.395684
723.60 6.568908
723.70 6.721888
723.80 6.92413
723.90 6.959054
724.00 6.968022
724.10 7.200153
724.20 7.070504
724.30 6.982855
724.40 7.061022
724.50 7.164465
724.60 7.509256
724.70 7.935338
724.80 8.286262
724.90 8.136509
725.00 8.051454
725.10 8.50378
725.20 8.911229
725.30 8.865759
725.40 8.575101
725.50 8.525042
725.60 8.773814
725.70 9.039563
725.80 9.217844
725.90 9.225522
726.00 9.081331
726.10 9.072964
726.20 9.381775
726.30 9.824941
726.40 10.13549
726.50 10.3836
726.60 10.55373
726.70 10.5414
726.80 10.5194
726.90 10.43856
727.00 10.17349
727.10 9.76948
727.20 9.217901
727.30 8.755113
727.40 8.66042
727.50 9.285048
727.60 10.32651
727.70 11.00707
727.80 11.0516
727.90 10.40269
728.00 10.27078
728.10 10.73708
728.20 10.71533
728.30 10.43456
728.40 10.32033
728.50 10.58375
728.60 11.19482
728.70 11.30592
728.80 11.14148
728.90 11.4686
729.00 11.6817
729.10 11.64579
729.20 11.61554
729.30 11.73392
729.40 12.03904
729.50 12.35548
729.60 12.72505
729.70 13.24233
729.80 13.55354
729.90 13.29104
730.00 12.92872
730.10 13.1688
730.20 13.67471
730.30 13.94019
730.40 14.25233
730.50 14.51871
730.60 14.35345
730.70 14.36027
730.80 14.86755
730.90 15.37436
731.00 15.55446
731.10 15.39409
731.20 15.16993
731.30 15.13938
731.40 15.24041
731.50 15.47346
731.60 15.93131
731.70 16.24255
731.80 16.10278
731.90 15.98932
732.00 16.67002
732.10 17.36845
732.20 17.34063
732.30 17.15309
732.40 17.14254
732.50 17.23392
732.60 17.17912
732.70 16.94891
732.80 17.12395
732.90 17.64099
733.00 17.75012
733.10 17.61966
733.20 17.60769
733.30 17.62142
733.40 17.60693
733.50 17.66939
733.60 18.08015
733.70 18.74059
733.80 19.27188
733.90 19.62903
734.00 19.5159
734.10 19.77403
734.20 20.38956
734.30 19.76689
734.40 19.05176
734.50 18.72592
734.60 18.0635
734.70 17.60896
734.80 17.52155
734.90 17.90492
735.00 18.49224
735.10 18.85923
735.20 19.13182
735.30 19.39687
735.40 19.47559
735.50 19.13703
735.60 18.52838
735.70 18.03735
735.80 18.21791
735.90 18.87764
736.00 19.30315
736.10 19.39787
736.20 19.41539
736.30 19.76559
736.40 20.40921
736.50 20.94831
736.60 21.19035
736.70 21.1474
736.80 21.43503
736.90 21.94753
737.00 22.25609
737.10 22.43902
737.20 22.31289
737.30 21.9556
737.40 21.3977
737.50 20.59258
737.60 20.03436
737.70 20.10197
737.80 20.52321
737.90 21.0056
738.00 21.19358
738.10 21.0581
738.20 20.93792
738.30 21.14793
738.40 21.48002
738.50 21.55092
738.60 21.49543
738.70 21.52249
738.80 21.79443
738.90 22.43491
739.00 23.0457
739.10 23.37215
739.20 23.25019
739.30 22.57498
739.40 21.60626
739.50 20.75003
739.60 20.2374
739.70 20.19542
739.80 20.65104
739.90 21.24549
740.00 21.6513
740.10 22.01784
740.20 22.406
740.30 22.71648
740.40 22.53204
740.50 21.54172
740.60 20.32793
740.70 19.8837
740.80 19.99472
740.90 20.07214
741.00 20.48705
741.10 21.17801
741.20 21.60251
741.30 21.62776
741.40 21.63751
741.50 21.97225
741.60 22.33439
741.70 22.09378
741.80 21.06622
741.90 20.05778
742.00 19.46934
742.10 19.43151
742.20 19.92493
742.30 20.37377
742.40 20.68372
742.50 21.18663
742.60 21.61042
742.70 21.82923
742.80 21.83594
742.90 21.70175
743.00 21.87232
743.10 22.15902
743.20 22.21988
743.30 22.32976
743.40 22.35839
743.50 21.54619
743.60 20.25631
743.70 19.40623
743.80 19.49762
743.90 20.60656
744.00 21.77585
744.10 21.93214
744.20 21.34278
744.30 20.89234
744.40 20.6036
744.50 20.30592
744.60 20.02187
744.70 19.86731
744.80 19.78118
744.90 19.74626
745.00 19.97109
745.10 20.35762
745.20 20.93187
745.30 21.42906
745.40 21.43046
745.50 21.11978
745.60 20.83811
745.70 20.6338
745.80 20.4764
745.90 20.36241
746.00 20.31466
746.10 20.47103
746.20 20.79036
746.30 21.26101
746.40 21.70654
746.50 21.7702
746.60 21.68593
746.70 21.63212
746.80 21.53733
746.90 21.48359
747.00 21.63881
747.10 22.10507
747.20 22.53398
747.30 22.55478
747.40 21.79771
747.50 20.83573
747.60 20.70141
747.70 21.14169
747.80 21.65346
747.90 22.10099
748.00 22.20291
748.10 21.96021
748.20 21.93583
748.30 22.12381
748.40 22.53275
748.50 23.13434
748.60 23.15513
748.70 22.69799
748.80 22.32479
748.90 22.29267
749.00 22.48621
749.10 22.68775
749.20 22.80343
749.30 22.61084
749.40 22.12153
749.50 21.62773
749.60 21.4526
749.70 21.72347
749.80 22.35408
749.90 23.09662
750.00 23.7531
750.10 24.11211
750.20 24.09378
750.30 23.99615
750.40 23.98445
750.50 23.75805
750.60 23.19069
750.70 22.77238
750.80 22.81907
750.90 23.32045
751.00 24.14961
751.10 24.80808
751.20 25.08801
751.30 24.97357
751.40 24.51013
751.50 24.11264
751.60 23.95915
751.70 24.21793
751.80 24.56952
751.90 24.38927
752.00 23.98568
752.10 23.88725
752.20 23.80847
752.30 23.88872
752.40 24.34986
752.50 24.57782
752.60 24.83484
752.70 24.82726
752.80 23.84335
752.90 23.10112
753.00 23.15026
753.10 23.95972
753.20 25.091
753.30 25.39153
753.40 25.00818
753.50 24.71417
753.60 24.53551
753.70 24.65357
753.80 25.31754
753.90 26.23099
754.00 27.14176
754.10 27.58543
754.20 27.4434
754.30 27.27533
754.40 27.30024
754.50 27.48879
754.60 27.60989
754.70 27.37869
754.80 26.94251
754.90 26.51582
755.00 26.18889
755.10 26.1872
755.20 26.76601
755.30 27.37278
755.40 27.50493
755.50 27.2711
755.60 27.05785
755.70 27.13366
755.80 27.23376
755.90 27.43312
756.00 27.7793
756.10 27.93884
756.20 27.91053
756.30 27.78886
756.40 27.56516
756.50 27.19983
756.60 26.85274
756.70 26.49718
756.80 25.97165
756.90 25.40579
757.00 25.14567
757.10 25.68827
757.20 27.1195
757.30 28.57864
757.40 29.00029
757.50 28.63612
757.60 28.40024
757.70 28.12225
757.80 27.33244
757.90 26.61984
758.00 26.7019
758.10 27.7061
758.20 29.15139
758.30 30.19967
758.40 30.54242
758.50 30.30177
758.60 29.60141
758.70 28.66103
758.80 26.98031
758.90 23.86737
759.00 20.02686
759.10 16.67694
759.20 14.45027
759.30 13.6461
759.40 13.93425
759.50 14.70497
759.60 15.34001
759.70 15.37889
759.80 15.29486
759.90 15.82183
760.00 16.651
760.10 16.60088
760.20 15.66709
760.30 15.02952
760.40 15.37564
760.50 16.23687
760.60 16.64153
760.70 16.51402
760.80 16.47027
760.90 16.5882
761.00 16.78578
761.10 16.87368
761.20 16.91896
761.30 17.23796
761.40 18.07552
761.50 19.15009
761.60 19.56641
761.70 19.56415
761.80 19.64586
761.90 19.70239
762.00 20.05127
762.10 20.18629
762.20 19.53243
762.30 19.10602
762.40 19.2117
762.50 19.20046
762.60 18.77579
762.70 17.47847
762.80 15.68985
762.90 14.12032
763.00 12.59786
763.10 11.40116
763.20 11.12807
763.30 11.40804
763.40 11.9017
763.50 12.24262
763.60 12.15071
763.70 12.08545
763.80 12.19554
763.90 12.22993
764.00 12.26853
764.10 11.98839
764.20 11.53087
764.30 11.56963
764.40 11.85338
764.50 12.02398
764.60 11.65513
764.70 10.95126
764.80 10.9462
764.90 11.32386
765.00 11.30175
765.10 10.98766
765.20 10.58967
765.30 10.50613
765.40 10.59688
765.50 10.05205
765.60 9.111255
765.70 8.624783
765.80 8.589462
765.90 8.502229
766.00 7.948841
766.10 7.126726
766.20 6.408162
766.30 5.709563
766.40 5.161134
766.50 4.771044
766.60 4.348466
766.70 4.171869
766.80 4.203977
766.90 4.316298
767.00 4.790153
767.10 5.470864
767.20 5.952429
767.30 6.066161
767.40 6.117965
767.50 6.301824
767.60 6.658371
767.70 7.130307
767.80 7.381238
767.90 7.511025
768.00 7.706311
768.10 7.811477
768.20 7.80073
768.30 7.863179
768.40 8.118924
768.50 8.436348
768.60 8.624471
768.70 8.639588
768.80 8.63023
768.90 8.618377
769.00 8.578379
769.10 8.58541
769.20 8.486302
769.30 8.281019
769.40 7.953303
769.50 7.42649
769.60 6.95172
769.70 6.409056
769.80 5.674122
769.90 4.932068
770.00 4.327653
770.10 4.131382
770.20 4.348446
770.30 4.824247
770.40 5.584745
770.50 6.362698
770.60 6.901529
770.70 7.27992
770.80 7.43665
770.90 7.705148
771.00 8.320151
771.10 8.708422
771.20 8.838132
771.30 9.070624
771.40 9.418826
771.50 9.75453
771.60 9.844566
771.70 10.07067
771.80 10.5106
771.90 10.27562
772.00 10.14628
772.10 10.744
772.20 11.32509
772.30 11.60795
772.40 11.48693
772.50 11.57593
772.60 12.02715
772.70 12.44962
772.80 12.78226
772.90 13.04765
773.00 13.14993
773.10 13.13543
773.20 13.23005
773.30 13.41079
773.40 13.72139
773.50 14.05237
773.60 14.1215
773.70 14.16265
773.80 14.48307
773.90 14.80976
774.00 14.91752
774.10 14.89938
774.20 14.86685
774.30 14.67008
774.40 14.01113
774.50 13.12877
774.60 12.51909
774.70 12.20283
774.80 11.92805
774.90 11.73324
775.00 11.39826
775.10 10.89159
775.20 10.63208
775.30 10.19976
775.40 9.973621
775.50 10.55815
775.60 11.19468
775.70 11.44101
775.80 11.46908
775.90 11.59578
776.00 11.74613
776.10 11.93021
776.20 12.22864
776.30 12.23289
776.40 11.91943
776.50 11.73354
776.60 11.82457
776.70 12.09503
776.80 12.59559
776.90 13.1357
777.00 13.30517
777.10 13.20639
777.20 13.18007
777.30 13.36392
777.40 13.72824
777.50 13.95975
777.60 13.91927
777.70 13.89002
777.80 13.77924
777.90 13.6504
778.00 13.7952
778.10 13.95918
778.20 13.93564
778.30 13.66166
778.40 13.05324
778.50 12.52634
778.60 12.32436
778.70 12.28017
778.80 12.29644
778.90 12.34394
779.00 12.59073
779.10 12.96034
779.20 13.05514
779.30 12.8875
779.40 13.21701
779.50 14.05366
779.60 14.52087
779.70 14.53725
779.80 14.09878
779.90 13.17391
780.00 12.05623
780.10 11.14815
780.20 11.05798
780.30 11.87834
780.40 13.27973
780.50 14.93413
780.60 16.33142
780.70 17.19331
780.80 17.54796
780.90 17.37154
781.00 16.97621
781.10 16.69331
781.20 16.36271
781.30 16.41159
781.40 17.22504
781.50 18.07672
781.60 18.49752
781.70 18.58761
781.80 18.5173
781.90 18.45265
782.00 18.25166
782.10 17.93749
782.20 17.0506
782.30 15.58604
782.40 15.01422
782.50 15.52309
782.60 16.41163
782.70 16.97556
782.80 16.41318
782.90 15.31513
783.00 14.33805
783.10 13.66489
783.20 13.47755
783.30 13.81128
783.40 14.4281
783.50 14.94952
783.60 15.27389
783.70 15.44085
783.80 15.57289
783.90 15.79005
784.00 15.91806
784.10 15.96237
784.20 16.05206
784.30 15.99913
784.40 15.98777
784.50 16.27133
784.60 16.77781
784.70 17.32868
784.80 17.49125
784.90 17.23709
785.00 16.83099
785.10 16.41909
785.20 16.38038
785.30 16.84811
785.40 17.32315
785.50 17.42182
785.60 17.52555
785.70 17.62388
785.80 17.65673
785.90 17.945
786.00 17.95328
786.10 17.59737
786.20 17.52473
786.30 17.39486
786.40 16.78283
786.50 16.37781
786.60 16.36186
786.70 16.24862
786.80 16.24997
786.90 16.33948
787.00 16.55251
787.10 16.85601
787.20 16.70809
787.30 16.13597
787.40 15.65817
787.50 15.75511
787.60 16.36404
787.70 17.02931
787.80 17.69361
787.90 18.63107
788.00 19.24586
788.10 19.18822
788.20 18.85944
788.30 18.53964
788.40 18.90058
788.50 19.49878
788.60 19.66238
788.70 19.69137
788.80 19.56817
788.90 19.62034
789.00 19.97023
789.10 20.15572
789.20 20.18139
789.30 20.22895
789.40 20.44968
789.50 20.76554
789.60 20.69656
789.70 20.04504
789.80 19.26135
789.90 18.62935
790.00 17.97073
790.10 17.41371
790.20 17.24764
790.30 17.5205
790.40 18.29944
790.50 19.15428
790.60 19.652
790.70 19.83036
790.80 19.45756
790.90 18.30073
791.00 16.93233
791.10 15.85442
791.20 15.00033
791.30 15.09973
791.40 16.26089
791.50 17.4332
791.60 18.09519
791.70 17.91629
791.80 17.21654
791.90 16.67204
792.00 16.26073
792.10 16.17711
792.20 16.76325
792.30 17.42509
792.40 17.419
792.50 17.16808
792.60 17.37635
792.70 17.76685
792.80 17.95032
792.90 17.92578
793.00 17.85784
793.10 18.21952
793.20 19.05782
793.30 19.92673
793.40 20.52129
793.50 20.62389
793.60 20.50817
793.70 20.57371
793.80 20.74572
793.90 20.76888
794.00 20.18574
794.10 18.97328
794.20 17.81608
794.30 17.25867
794.40 17.57227
794.50 18.30414
794.60 18.52422
794.70 17.93932
794.80 16.87911
794.90 15.81402
795.00 15.56063
795.10 16.52776
795.20 17.9679
795.30 19.41343
795.40 20.61768
795.50 21.11788
795.60 21.21266
795.70 21.29346
795.80 21.41849
795.90 21.3324
796.00 20.81811
796.10 20.14892
796.20 19.42932
796.30 18.81735
796.40 18.83269
796.50 19.53359
796.60 20.50547
796.70 21.38164
796.80 21.77193
796.90 21.81487
797.00 22.05208
797.10 22.57392
797.20 23.20141
797.30 23.56152
797.40 23.24393
797.50 22.39021
797.60 21.4362
797.70 20.77547
797.80 20.42913
797.90 20.28844
798.00 20.3778
798.10 20.59625
798.20 20.76793
798.30 20.72543
798.40 20.39437
798.50 19.97813
798.60 19.65406
798.70 19.32394
798.80 18.94104
798.90 18.83001
799.00 19.32409
799.10 20.21278
799.20 21.10955
799.30 21.81084
799.40 22.00659
799.50 21.51549
799.60 20.86706
799.70 20.87357
799.80 21.25212
799.90 21.34499
800.00 21.34483
800.10 21.53864
800.20 21.88678
800.30 22.19969
800.40 22.46094
800.50 22.7549
800.60 22.97273
800.70 23.11782
800.80 23.38659
800.90 23.85111
801.00 24.20045
801.10 24.20002
801.20 24.13271
801.30 24.22111
801.40 24.45869
801.50 24.74443
801.60 24.95149
801.70 25.27895
801.80 25.75216
801.90 26.06159
802.00 26.2577
802.10 26.3665
802.20 26.27657
802.30 26.13327
802.40 26.14909
802.50 26.579
802.60 27.40973
802.70 28.19417
802.80 28.38064
802.90 28.0208
803.00 27.98431
803.10 28.43888
803.20 28.81297
803.30 28.9334
803.40 28.83629
803.50 28.74127
803.60 28.77153
803.70 28.84077
803.80 28.991
803.90 29.08868
804.00 28.88542
804.10 28.62057
804.20 28.69869
804.30 28.99398
804.40 29.46689
804.50 30.11415
804.60 30.41448
804.70 30.32998
804.80 30.099
804.90 29.60106
805.00 29.61962
805.10 30.75013
805.20 32.10811
805.30 33.27109
805.40 34.20064
805.50 34.44124
805.60 34.27586
805.70 34.15045
805.80 33.97517
805.90 33.93308
806.00 34.25706
806.10 34.75065
806.20 35.13466
806.30 35.12285
806.40 34.71928
806.50 34.38571
806.60 34.13926
806.70 34.25377
806.80 35.00473
806.90 35.43444
807.00 35.2526
807.10 34.98406
807.20 34.8086
807.30 35.1681
807.40 36.18248
807.50 37.16219
807.60 37.59498
807.70 37.75482
807.80 37.94079
807.90 38.22197
808.00 38.55736
808.10 38.84261
808.20 39.18963
808.30 39.55363
808.40 39.8203
808.50 40.15393
808.60 40.55945
808.70 40.66241
808.80 40.32233
808.90 39.83322
809.00 39.49411
809.10 39.57053
809.20 39.99639
809.30 40.5366
809.40 41.07664
809.50 41.30706
809.60 41.066
809.70 40.54136
809.80 39.96254
809.90 39.66222
810.00 39.77894
810.10 40.00993
810.20 40.27512
810.30 40.58829
810.40 40.64337
810.50 40.42381
810.60 40.41395
810.70 40.90297
810.80 41.74834
810.90 42.62608
811.00 43.17895
811.10 43.26174
811.20 43.08672
811.30 43.13776
811.40 43.68408
811.50 44.12832
811.60 43.89585
811.70 43.2111
811.80 42.55658
811.90 42.66796
812.00 43.82152
812.10 45.25203
812.20 46.14638
812.30 46.30898
812.40 46.02323
812.50 45.73675
812.60 45.77876
812.70 46.21675
812.80 46.86824
812.90 47.40826
813.00 47.61614
813.10 47.48091
813.20 47.12664
813.30 47.0074
813.40 47.31101
813.50 47.66169
813.60 47.91453
813.70 48.04109
813.80 48.23592
813.90 49.05911
814.00 50.17275
814.10 50.3105
814.20 49.17706
814.30 47.64822
814.40 46.36905
814.50 45.70035
814.60 45.92519
814.70 46.58981
814.80 46.90805
814.90 46.75766
815.00 46.25323
815.10 45.76711
815.20 46.12156
815.30 47.21483
815.40 48.1483
815.50 48.27512
815.60 47.74869
815.70 47.36609
815.80 47.44532
815.90 47.70968
816.00 47.65964
816.10 47.22054
816.20 46.87714
816.30 46.94532
816.40 47.5651
816.50 48.51308
816.60 49.24881
816.70 49.49175
816.80 49.53039
816.90 50.01444
817.00 50.73768
817.10 51.029
817.20 50.94479
817.30 50.70878
817.40 50.31971
817.50 49.82572
817.60 49.5525
817.70 49.40032
817.80 48.7153
817.90 47.55078
818.00 45.99312
818.10 43.5621
818.20 40.15026
818.30 35.40431
818.40 30.05609
818.50 26.96724
818.60 27.69696
818.70 31.41384
818.80 36.24167
818.90 40.05946
819.00 41.89818
819.10 42.17936
819.20 41.26161
819.30 38.8896
819.40 34.78396
819.50 29.44899
819.60 24.91332
819.70 23.25753
819.80 24.99279
819.90 28.65553
820.00 32.21776
820.10 35.24067
820.20 37.73476
820.30 39.81555
820.40 41.76441
820.50 42.7576
820.60 42.20123
820.70 40.64629
820.80 38.94246
820.90 38.1439
821.00 38.71883
821.10 40.05354
821.20 41.45004
821.30 42.39138
821.40 42.56399
821.50 42.06745
821.60 41.45844
821.70 41.2926
821.80 41.61342
821.90 42.26871
822.00 43.01084
822.10 43.66517
822.20 44.32212
822.30 44.91828
822.40 45.36939
822.50 45.79996
822.60 46.2832
822.70 46.69902
822.80 46.87285
822.90 46.94298
823.00 47.3608
823.10 48.35686
823.20 49.43541
823.30 49.6257
823.40 48.66499
823.50 47.31412
823.60 46.49028
823.70 46.62296
823.80 47.54776
823.90 48.79753
824.00 49.97983
824.10 50.88422
824.20 51.37091
824.30 51.23283
824.40 50.3845
824.50 49.35417
824.60 48.9298
824.70 49.54956
824.80 51.21131
824.90 52.84325
825.00 53.10885
825.10 52.06432
825.20 50.35524
825.30 48.46829
825.40 47.03069
825.50 46.18758
825.60 45.6368
825.70 45.21842
825.80 45.02814
825.90 45.29506
826.00 46.0399
826.10 47.21249
826.20 48.54688
826.30 49.54772
826.40 50.15242
826.50 50.40062
826.60 50.34084
826.70 50.56499
826.80 51.09614
826.90 51.21033
827.00 50.6205
827.10 49.26082
827.20 47.43072
827.30 45.87759
827.40 44.85914
827.50 44.31147
827.60 44.30863
827.70 44.81886
827.80 45.75538
827.90 46.68414
828.00 46.99757
828.10 46.7685
828.20 45.90552
828.30 44.52039
828.40 43.50097
828.50 42.85486
828.60 42.53725
828.70 42.937
828.80 43.6016
828.90 43.6635
829.00 42.73054
829.10 41.09568
829.20 39.52307
829.30 38.98473
829.40 39.6516
829.50 40.62421
829.60 41.18153
829.70 41.45352
829.80 41.94989
829.90 42.24937
830.00 42.03492
830.10 41.0588
830.20 40.08267
830.30 39.07049
830.40 38.05832
830.50 37.69621
830.60 37.3341
830.70 37.6772
830.80 38.0203
830.90 39.02407
831.00 40.02784
831.10 40.4298
831.20 40.83176
831.30 40.75986
831.40 40.68795
831.50 40.38691
831.60 40.08588
831.70 40.8601
831.80 41.63433
831.90 42.25653
832.00 42.87873
832.10 43.15099
832.20 43.42324
832.30 43.96182
832.40 44.50041
832.50 44.71859
832.60 44.93676
832.70 43.68037
832.80 42.42397
832.90 41.38682
833.00 40.34967
833.10 42.01884
833.20 43.68802
833.30 44.36378
833.40 45.03954
833.50 43.57254
833.60 42.10554
833.70 41.37497
833.80 40.64441
833.90 41.13887
834.00 41.63333
834.10 42.2651
834.20 42.89687
834.30 43.69257
834.40 44.48827
834.50 43.96407
834.60 43.43987
834.70 41.98165
834.80 40.52343
834.90 40.82601
835.00 41.1286
835.10 41.83844
835.20 42.54827
835.30 42.53141
835.40 42.51454
835.50 42.40813
835.60 42.30171
835.70 42.19753
835.80 42.09335
835.90 43.00268
836.00 43.91201
836.10 44.24252
836.20 44.57302
836.30 43.84165
836.40 43.11028
836.50 42.50239
836.60 41.89451
836.70 42.53261
836.80 43.17071
836.90 44.64289
837.00 46.11507
837.10 47.16657
837.20 48.21808
837.30 46.29306
837.40 44.36804
837.50 42.57711
837.60 40.78617
837.70 40.41108
837.80 40.03599
837.90 40.75601
838.00 41.47604
838.10 42.08258
838.20 42.68912
838.30 42.66383
838.40 42.63853
838.50 41.94616
838.60 41.25379
838.70 39.99776
838.80 38.74173
838.90 37.5935
839.00 36.44528
839.10 37.37614
839.20 38.30701
839.30 39.26088
839.40 40.21476
839.50 40.26652
839.60 40.31828
839.70 40.41094
839.80 40.50361
839.90 40.88414
840.00 41.26466
840.10 42.81374
840.20 43.42026
840.30 43.73311
840.40 43.91654
840.50 44.09613
840.60 44.32151
840.70 44.546
840.80 44.88356
840.90 45.18445
841.00 45.16887
841.10 44.94625
841.20 44.21213
841.30 43.34046
841.40 42.74679
841.50 43.92237
841.60 45.21014
841.70 45.98741
841.80 46.23456
841.90 45.7659
842.00 45.31212
842.10 44.54274
842.20 43.06839
842.30 41.79087
842.40 42.2876
842.50 43.13133
842.60 43.39564
842.70 43.09871
842.80 42.62246
842.90 41.8803
843.00 41.36027
843.10 41.76178
843.20 42.23563
843.30 41.00081
843.40 38.59995
843.50 35.54386
843.60 31.73619
843.70 28.25572
843.80 27.97301
843.90 28.293
844.00 30.11414
844.10 32.33388
844.20 33.21642
844.30 32.03624
844.40 30.55554
844.50 28.58074
844.60 26.61249
844.70 25.90361
844.80 25.54823
844.90 25.71738
845.00 26.57378
845.10 27.17227
845.20 26.33891
845.30 25.49223
845.40 23.91929
845.50 21.82974
845.60 20.58521
845.70 20.61627
845.80 20.7315
845.90 20.78649
846.00 20.83841
846.10 21.27618
846.20 21.87125
846.30 22.4182
846.40 22.69844
846.50 22.73595
846.60 22.43571
846.70 22.37651
846.80 22.15723
846.90 21.31361
847.00 20.88603
847.10 21.79495
847.20 22.61603
847.30 22.39914
847.40 22.08919
847.50 21.98952
847.60 22.00254
847.70 22.46093
847.80 23.53255
847.90 24.39596
848.00 24.31139
848.10 24.26443
848.20 24.1929
848.30 24.10665
848.40 24.1886
848.50 24.51857
848.60 24.89948
848.70 25.30776
848.80 25.64463
848.90 26.09082
849.00 26.66276
849.10 27.43542
849.20 28.1189
849.30 28.7119
849.40 29.03329
849.50 29.26897
849.60 28.29055
849.70 26.96259
849.80 25.85357
849.90 25.19187
850.00 24.90972
850.10 24.96427
850.20 24.9035
850.30 25.73066
850.40 27.03507
850.50 27.20923
850.60 26.13611
850.70 24.95365
850.80 24.24655
850.90 23.73002
851.00 24.05809
851.10 24.32382
851.20 24.95791
851.30 25.6953
851.40 25.93804
851.50 25.72138
851.60 25.50897
851.70 24.91327
851.80 24.41425
851.90 23.96488
852.00 23.2194
852.10 22.72168
852.20 22.76724
852.30 22.81929
852.40 23.22104
852.50 23.55556
852.60 24.33034
852.70 25.36185
852.80 26.12802
852.90 26.70846
853.00 27.19941
853.10 27.24889
853.20 27.26126
853.30 27.50223
853.40 27.74584
853.50 27.94347
853.60 28.47758
853.70 28.9503
853.80 28.7624
853.90 28.4628
854.00 28.35982
854.10 28.48299
854.20 28.50369
854.30 28.57655
854.40 28.7018
854.50 28.70105
854.60 28.72946
854.70 29.39691
854.80 30.41431
854.90 31.17317
855.00 31.48829
855.10 31.86459
855.20 32.47745
855.30 33.07931
855.40 33.30186
855.50 33.36909
855.60 33.50061
855.70 34.11204
855.80 34.54554
855.90 33.69375
856.00 32.65197
856.10 31.74268
856.20 31.03873
856.30 30.97689
856.40 31.19056
856.50 31.67179
856.60 32.54882
856.70 33.37054
856.80 33.83898
856.90 34.34096
857.00 34.29699
857.10 34.14125
857.20 33.83683
857.30 33.22522
857.40 32.67477
857.50 32.75196
857.60 32.71374
857.70 32.9118
857.80 33.42098
857.90 34.03019
858.00 34.67154
858.10 35.0978
858.20 34.3403
858.30 33.54748
858.40 33.42991
858.50 33.74706
858.60 34.14076
858.70 34.23261
858.80 34.34818
858.90 34.40379
859.00 34.54923
859.10 34.55378
859.20 34.63183
859.30 34.59264
859.40 34.41303
859.50 34.33945
859.60 34.98624
859.70 35.45723
859.80 35.83243
859.90 36.3473
860.00 36.61337
860.10 36.45561
860.20 36.37795
860.30 36.25804
860.40 35.96833
860.50 36.3069
860.60 37.40243
860.70 38.44342
860.80 38.63806
860.90 38.75471
861.00 38.49554
861.10 38.16511
861.20 37.75512
861.30 37.30217
861.40 36.69059
861.50 35.97315
861.60 35.44986
861.70 35.04036
861.80 34.49414
861.90 34.47042
862.00 34.71218
862.10 35.209
862.20 35.54961
862.30 35.88064
862.40 36.06568
862.50 36.07118
862.60 34.98896
862.70 34.02382
862.80 33.96507
862.90 34.01741
863.00 33.74896
863.10 33.5157
863.20 33.38646
863.30 33.84143
863.40 34.20521
863.50 34.60346
863.60 35.16311
863.70 35.45313
863.80 35.2891
863.90 35.14973
864.00 35.05824
864.10 35.01536
864.20 35.04522
864.30 35.386
864.40 36.02373
864.50 36.58458
864.60 36.86566
864.70 36.16917
864.80 35.87616
864.90 35.62522
865.00 34.97634
865.10 34.86942
865.20 35.86359
865.30 36.82016
865.40 37.3588
865.50 37.80136
865.60 38.39863
865.70 38.96414
865.80 39.0885
865.90 38.9006
866.00 38.59102
866.10 37.77465
866.20 36.90775
866.30 36.21184
866.40 35.69433
866.50 36.17249
866.60 37.37763
866.70 38.62704
866.80 39.30791
866.90 39.83221
867.00 39.68036
867.10 39.21097
867.20 38.55733
867.30 38.47197
867.40 38.80415
867.50 39.34112
867.60 39.6078
867.70 39.68502
867.80 39.73475
867.90 39.90613
868.00 40.47602
868.10 40.80942
868.20 41.13244
868.30 41.42168
868.40 40.68943
868.50 39.56561
868.60 39.46638
868.70 40.35004
868.80 40.58412
868.90 39.53955
869.00 38.37896
869.10 37.14677
869.20 36.23896
869.30 35.55246
869.40 34.84164
869.50 34.07422
869.60 32.92111
869.70 31.96235
869.80 32.74448
869.90 33.63366
870.00 34.01324
870.10 33.96814
870.20 34.13554
870.30 34.65737
870.40 35.20666
870.50 35.81413
870.60 36.5017
870.70 37.3422
870.80 38.06662
870.90 37.73517
871.00 36.9741
871.10 36.21484
871.20 35.55517
871.30 34.74848
871.40 34.57571
871.50 34.93353
871.60 35.3144
871.70 35.09063
871.80 34.68273
871.90 34.22853
872.00 33.9674
872.10 34.39989
872.20 34.91781
872.30 35.30782
872.40 35.78681
872.50 36.22807
872.60 36.34601
872.70 36.52968
872.80 38.21855
872.90 40.08535
873.00 41.13556
873.10 41.57145
873.20 41.28265
873.30 40.20609
873.40 39.19065
873.50 38.46446
873.60 37.75015
873.70 37.75277
873.80 38.28175
873.90 38.75018
874.00 38.63568
874.10 38.611
874.20 39.53903
874.30 40.495
874.40 41.75113
874.50 43.03699
874.60 44.00372
874.70 44.51323
874.80 44.62192
874.90 43.08267
875.00 41.66751
875.10 41.08366
875.20 40.70235
875.30 41.3822
875.40 42.68854
875.50 43.8148
875.60 44.52149
875.70 45.29506
875.80 45.36351
875.90 44.8681
876.00 45.10283
876.10 46.19943
876.20 47.08639
876.30 46.92608
876.40 46.61192
876.50 45.33414
876.60 43.88419
876.70 42.97742
876.80 42.22555
876.90 41.87063
877.00 42.70726
877.10 43.8146
877.20 45.87927
877.30 47.99593
877.40 49.69411
877.50 50.9526
877.60 52.11362
877.70 53.37078
877.80 54.4345
877.90 52.37542
878.00 49.96481
878.10 48.05773
878.20 46.59119
878.30 46.34638
878.40 47.32831
878.50 48.20225
878.60 48.97905
878.70 49.63934
878.80 49.42468
878.90 49.03706
879.00 48.99016
879.10 49.61191
879.20 50.34325
879.30 51.24723
879.40 52.00043
879.50 52.09176
879.60 51.87261
879.70 52.47279
879.80 53.82763
879.90 55.00551
880.00 55.04362
880.10 54.76879
880.20 51.70988
880.30 48.19622
880.40 45.91294
880.50 44.49711
880.60 43.79461
880.70 45.05301
880.80 46.19529
880.90 46.64776
881.00 47.24066
881.10 48.92409
881.20 50.65701
881.30 52.62652
881.40 54.48841
881.50 56.38655
881.60 57.53206
881.70 58.50247
881.80 58.99742
881.90 59.49985
882.00 59.86523
882.10 59.70603
882.20 59.27298
882.30 56.89793
882.40 54.33478
882.50 51.96936
882.60 49.88716
882.70 49.18717
882.80 49.79262
882.90 50.41465
883.00 51.76302
883.10 53.23267
883.20 54.85847
883.30 56.6876
883.40 57.77439
883.50 58.07564
883.60 58.26702
883.70 58.55302
883.80 58.81333
883.90 59.28324
884.00 59.45328
884.10 59.45078
884.20 60.03884
884.30 60.64673
884.40 60.52439
884.50 60.08165
884.60 58.28128
884.70 56.42659
884.80 54.72983
884.90 53.36347
885.00 52.48456
885.10 52.57858
885.20 52.69357
885.30 56.13415
885.40 60.01171
885.50 62.35912
885.60 64.07744
885.70 64.23659
885.80 61.42151
885.90 58.4764
886.00 54.70058
886.10 50.64125
886.20 46.55736
886.30 42.56845
886.40 40.4372
886.50 41.12756
886.60 42.07176
886.70 45.11763
886.80 47.86169
886.90 47.44293
887.00 46.06904
887.10 43.6217
887.20 39.87322
887.30 36.18068
887.40 35.33074
887.50 34.69869
887.60 35.63306
887.70 36.8053
887.80 38.54825
887.90 40.84367
888.00 43.00822
888.10 44.47737
888.20 45.85879
888.30 45.30395
888.40 44.42692
888.50 43.30979
888.60 41.95701
888.70 41.02238
888.80 41.19142
888.90 41.69869
889.00 43.63181
889.10 45.20953
889.20 45.79923
889.30 46.35944
889.40 46.60752
889.50 46.16753
889.60 45.65854
889.70 44.12212
889.80 42.18111
889.90 41.42588
890.00 41.43164
890.10 42.49917
890.20 45.32286
890.30 48.02238
890.40 49.50916
890.50 50.69859
890.60 51.35726
890.70 52.08276
890.80 52.03703
890.90 51.36889
891.00 50.69188
891.10 49.7258
891.20 48.39431
891.30 47.65338
891.40 47.32719
891.50 48.1552
891.60 50.1215
891.70 51.89089
891.80 51.91202
891.90 51.85022
892.00 52.49149
892.10 53.50009
892.20 53.93126
892.30 53.73181
892.40 53.27365
892.50 52.05576
892.60 50.87684
892.70 50.4125
892.80 49.91884
892.90 49.74663
893.00 50.17511
893.10 51.02858
893.20 53.13356
893.30 55.16574
893.40 56.91271
893.50 58.65645
893.60 59.0486
893.70 58.64569
893.80 57.00125
893.90 53.19743
894.00 49.495
894.10 47.90111
894.20 46.47278
894.30 46.66003
894.40 47.51019
894.50 47.72893
894.60 47.01439
894.70 46.52415
894.80 48.26089
894.90 49.91253
895.00 50.75668
895.10 51.37611
895.20 51.35554
895.30 50.79099
895.40 50.1082
895.50 49.99522
895.60 49.98693
895.70 51.32
895.80 52.91264
895.90 53.82054
896.00 54.20326
896.10 54.38119
896.20 53.58183
896.30 52.79378
896.40 52.67104
896.50 52.99977
896.60 53.10804
896.70 52.57161
896.80 51.91947
896.90 51.30445
897.00 50.72225
897.10 51.81551
897.20 53.29772
897.30 54.11441
897.40 54.16975
897.50 54.47908
897.60 55.64684
897.70 56.93222
897.80 58.20974
897.90 59.55599
898.00 59.2067
898.10 57.59107
898.20 56.0673
898.30 55.13924
898.40 54.59839
898.50 56.85629
898.60 58.90135
898.70 60.52855
898.80 62.33746
898.90 62.95367
899.00 62.00157
899.10 60.94939
899.20 60.1687
899.30 59.17192
899.40 58.63907
899.50 58.22004
899.60 57.6707
899.70 57.43065
899.80 57.18833
899.90 56.43336
900.00 55.45442
900.10 54.63847
900.20 53.9361
900.30 55.27276
900.40 57.79328
900.50 60.08416
900.60 62.14185
900.70 64.07205
900.80 63.81943
900.90 63.69012
901.00 62.89237
901.10 61.17011
901.20 60.15603
901.30 61.08781
901.40 62.20692
901.50 62.54559
901.60 62.6569
901.70 62.16336
901.80 61.51086
901.90 60.57754
902.00 59.66466
902.10 58.76243
902.20 57.70276
902.30 56.55315
902.40 55.47475
902.50 54.28184
902.60 53.26438
902.70 52.72531
902.80 52.3174
902.90 52.33631
903.00 52.38552
903.10 53.41083
903.20 54.86248
903.30 56.22882
903.40 57.46701
903.50 58.83243
903.60 60.10957
903.70 61.26907
903.80 62.22687
903.90 63.28493
904.00 64.10135
904.10 64.95814
904.20 65.28164
904.30 64.27913
904.40 63.16542
904.50 62.37995
904.60 61.75712
904.70 62.45419
904.80 63.8955
904.90 65.20762
905.00 66.36997
905.10 67.39291
905.20 65.62868
905.30 63.90088
905.40 62.84014
905.50 62.12721
905.60 61.62667
905.70 61.03521
905.80 60.37513
905.90 60.1786
906.00 60.04428
906.10 60.20213
906.20 60.47674
906.30 61.27496
906.40 62.6057
906.50 63.70996
906.60 62.56471
906.70 61.24788
906.80 60.13835
906.90 59.34329
907.00 58.78627
907.10 58.19589
907.20 58.0009
907.30 59.24328
907.40 60.63453
907.50 61.28529
907.60 61.71255
907.70 62.34842
907.80 62.66521
907.90 63.39817
908.00 65.69719
908.10 68.1408
908.20 68.7752
908.30 69.00998
908.40 67.95242
908.50 66.2693
908.60 65.35251
908.70 65.79531
908.80 66.2124
908.90 65.83095
909.00 65.06818
909.10 64.44724
909.20 64.28758
909.30 64.66236
909.40 65.75402
909.50 66.80617
909.60 67.58922
909.70 68.36091
909.80 68.64685
909.90 68.60654
910.00 68.74799
910.10 69.48936
910.20 70.04084
910.30 69.58127
910.40 69.09449
910.50 68.25778
910.60 67.16533
910.70 65.91218
910.80 65.17585
910.90 64.9708
911.00 66.45108
911.10 67.76623
911.20 69.00181
911.30 70.28001
911.40 71.15136
911.50 71.97276
911.60 72.24214
911.70 71.05558
911.80 69.74012
911.90 69.35559
912.00 69.27011
912.10 69.84653
912.20 70.82258
912.30 71.51591
912.40 71.37728
912.50 71.17042
912.60 70.7947
912.70 70.4728
912.80 70.547
912.90 70.83397
913.00 71.30839
913.10 71.70017
913.20 71.99267
913.30 72.97532
913.40 74.13094
913.50 74.83142
913.60 75.09554
913.70 74.34642
913.80 73.09039
913.90 71.63906
914.00 69.71017
914.10 67.95309
914.20 67.09657
914.30 66.14207
914.40 66.8228
914.50 68.32357
914.60 69.85852
914.70 71.36397
914.80 72.74266
914.90 71.81344
915.00 70.78862
915.10 69.78542
915.20 68.5841
915.30 68.40019
915.40 70.27997
915.50 72.37958
915.60 75.38746
915.70 78.00659
915.80 78.88
915.90 79.68252
916.00 79.46542
916.10 78.15899
916.20 76.84276
916.30 74.93595
916.40 72.9592
916.50 72.83604
916.60 73.36791
916.70 74.4812
916.80 75.80622
916.90 76.84086
917.00 77.12541
917.10 77.63331
917.20 77.55509
917.30 77.08338
917.40 76.12091
917.50 74.97612
917.60 74.01996
917.70 73.82751
917.80 73.70197
917.90 73.96625
918.00 74.22152
918.10 74.65536
918.20 75.44157
918.30 76.07672
918.40 76.27099
918.50 76.35843
918.60 75.31144
918.70 74.31347
918.80 74.98816
918.90 75.66153
919.00 77.27335
919.10 80.84966
919.20 84.20579
919.30 83.11784
919.40 82.09133
919.50 79.81519
919.60 76.71405
919.70 75.5438
919.80 76.48329
919.90 77.5251
920.00 78.94773
920.10 80.39637
920.20 79.94075
920.30 78.83605
920.40 78.43278
920.50 78.86994
920.60 78.93636
920.70 78.26091
920.80 77.56127
920.90 74.53254
921.00 70.9347
921.10 68.9638
921.20 68.52171
921.30 68.82052
921.40 69.66604
921.50 70.3343
921.60 70.53988
921.70 70.9563
921.80 71.37777
921.90 71.95195
922.00 71.75799
922.10 70.96928
922.20 70.38541
922.30 70.02052
922.40 69.44946
922.50 68.71158
922.60 68.05426
922.70 68.13835
922.80 68.95852
922.90 69.82778
923.00 70.01548
923.10 69.85604
923.20 67.80696
923.30 65.37246
923.40 63.86409
923.50 63.90938
923.60 64.37448
923.70 65.29026
923.80 65.94157
923.90 65.8534
924.00 65.6579
924.10 65.82365
924.20 66.21015
924.30 67.33337
924.40 69.53539
924.50 71.46381
924.60 70.94594
924.70 70.25312
924.80 68.95725
924.90 66.98012
925.00 65.61432
925.10 65.57702
925.20 65.67895
925.30 65.57823
925.40 65.41778
925.50 65.92237
925.60 66.75282
925.70 68.50143
925.80 70.99663
925.90 73.25263
926.00 72.98253
926.10 72.64232
926.20 71.49513
926.30 70.36468
926.40 69.74325
926.50 69.52485
926.60 69.77577
926.70 71.98903
926.80 74.25224
926.90 74.9452
927.00 75.2267
927.10 74.87123
927.20 74.09748
927.30 73.11544
927.40 71.6482
927.50 70.12219
927.60 68.53409
927.70 67.14064
927.80 65.79452
927.90 64.17989
928.00 63.19619
928.10 63.80923
928.20 64.54032
928.30 65.49303
928.40 66.60734
928.50 68.09325
928.60 69.72194
928.70 70.17805
928.80 68.88107
928.90 67.53982
929.00 67.30715
929.10 67.09669
929.20 66.47256
929.30 65.61907
929.40 65.35702
929.50 65.59828
929.60 65.87914
929.70 66.65446
929.80 67.45736
929.90 66.67532
930.00 65.62689
930.10 64.44001
930.20 62.5287
930.30 61.22732
930.40 61.89095
930.50 62.68888
930.60 62.98575
930.70 63.26821
930.80 63.4399
930.90 63.49375
931.00 63.91477
931.10 64.89292
931.20 66.08137
931.30 67.41414
931.40 68.64931
931.50 68.77088
931.60 68.61546
931.70 67.64884
931.80 66.84428
931.90 66.27675
932.00 66.01945
932.10 66.67805
932.20 67.14831
932.30 67.0987
932.40 67.0595
932.50 66.92626
932.60 66.28131
932.70 65.78595
932.80 65.53074
932.90 65.68851
933.00 65.81351
933.10 66.07007
933.20 66.20859
933.30 66.33981
933.40 66.61883
933.50 66.92674
933.60 66.81069
933.70 66.64154
933.80 66.73682
933.90 67.41878
934.00 68.11281
934.10 68.42027
934.20 68.18946
934.30 67.44547
934.40 67.14237
934.50 67.51949
934.60 67.66531
934.70 67.81919
934.80 68.64994
934.90 69.5716
935.00 69.90121
935.10 68.90867
935.20 67.91748
935.30 67.18335
935.40 66.84148
935.50 66.5244
935.60 66.37155
935.70 66.29926
935.80 66.23772
935.90 67.22801
936.00 68.24312
936.10 69.39961
936.20 70.70228
936.30 71.96711
936.40 72.12184
936.50 71.42284
936.60 70.73241
936.70 70.50691
936.80 70.32488
936.90 69.9904
937.00 68.92863
937.10 67.866
937.20 67.14005
937.30 66.9785
937.40 66.88771
937.50 66.78135
937.60 66.90271
937.70 67.07311
937.80 67.21508
937.90 67.34303
938.00 67.49369
938.10 67.49138
938.20 67.47091
938.30 67.50146
938.40 67.6645
938.50 67.90346
938.60 68.04884
938.70 68.21697
938.80 68.41043
938.90 68.88692
939.00 69.36317
939.10 69.87073
939.20 70.2373
939.30 70.57901
939.40 70.66118
939.50 70.65069
939.60 70.54607
939.70 69.43689
939.80 68.24668
939.90 67.45413
940.00 67.89294
940.10 68.35225
940.20 68.7366
940.30 68.95774
940.40 69.12798
940.50 69.78118
940.60 70.58409
940.70 71.4906
940.80 72.54044
940.90 73.58727
941.00 74.3145
941.10 74.39645
941.20 74.40055
941.30 73.86898
941.40 73.10275
941.50 72.31579
941.60 71.2121
941.70 70.06513
941.80 69.23326
941.90 69.13903
942.00 69.03259
942.10 69.25409
942.20 69.90195
942.30 70.55331
942.40 70.66269
942.50 70.63686
942.60 70.65208
942.70 70.12806
942.80 69.60449
942.90 69.67473
943.00 70.96561
943.10 72.32853
943.20 73.49059
943.30 74.52811
943.40 75.44492
943.50 75.38381
943.60 75.21802
943.70 74.97767
943.80 74.28879
943.90 73.59685
944.00 72.62659
944.10 71.53335
944.20 70.47666
944.30 70.14704
944.40 70.00118
944.50 69.77167
944.60 70.10066
944.70 70.42776
944.80 70.80972
944.90 71.04966
945.00 71.29753
945.10 71.83901
945.20 72.4167
945.30 72.95557
945.40 72.5719
945.50 72.09784
945.60 71.75046
945.70 71.93113
945.80 72.09503
945.90 71.81354
946.00 71.21531
946.10 70.69457
946.20 71.2991
946.30 72.28015
946.40 73.43865
946.50 73.70033
946.60 73.9716
946.70 73.9363
946.80 74.03317
946.90 74.14984
947.00 74.56911
947.10 75.0533
947.20 75.49917
947.30 75.51075
947.40 75.50541
947.50 75.63655
947.60 76.20315
947.70 76.76876
947.80 77.00478
947.90 76.96664
948.00 76.95451
948.10 77.46961
948.20 78.02972
948.30 78.48254
948.40 79.14747
948.50 79.81185
948.60 80.15611
948.70 79.74379
948.80 79.30297
948.90 79.30609
949.00 79.54751
949.10 79.86156
949.20 80.0947
949.30 80.32416
949.40 80.23857
949.50 79.17739
949.60 78.11468
949.70 77.46466
949.80 77.59589
949.90 77.86525
950.00 78.41259
950.10 78.86848
950.20 79.2708
950.30 79.89527
950.40 80.52563
950.50 80.56257
950.60 79.843
950.70 79.16436
950.80 78.99669
950.90 79.13748
951.00 79.33551
951.10 79.38056
951.20 79.41031
951.30 79.34437
951.40 78.79121
951.50 78.23569
951.60 77.66507
951.70 77.22624
951.80 76.78286
951.90 76.37203
952.00 75.99528
952.10 75.6887
952.20 76.28319
952.30 76.87543
952.40 77.85359
952.50 79.28848
952.60 80.71455
952.70 81.66002
952.80 82.29881
952.90 82.82576
953.00 82.49745
953.10 82.06808
953.20 81.64573
953.30 81.21721
953.40 80.78778
953.50 79.96218
953.60 78.72315
953.70 77.48031
953.80 77.34195
953.90 77.55923
954.00 77.84681
954.10 77.4135
954.20 76.97442
954.30 76.59958
954.40 76.50695
954.50 76.36533
954.60 76.46262
954.70 76.79352
954.80 77.23436
954.90 77.46999
955.00 77.64154
955.10 77.89448
955.20 78.09277
955.30 78.27521
955.40 78.53246
955.50 78.93844
955.60 79.36486
955.70 80.33614
955.80 81.4601
955.90 82.53344
956.00 83.10592
956.10 83.68048
956.20 83.62157
956.30 82.56745
956.40 81.46848
956.50 80.86873
956.60 80.52017
956.70 80.33182
956.80 81.16015
956.90 82.11011
957.00 82.8109
957.10 83.23496
957.20 83.67401
957.30 83.61455
957.40 82.92873
957.50 82.15609
957.60 81.23435
957.70 80.24454
957.80 79.26411
957.90 78.65118
958.00 78.03529
958.10 78.08838
958.20 78.82949
958.30 79.52463
958.40 79.94473
958.50 80.26669
958.60 80.5804
958.70 79.9722
958.80 79.2961
958.90 78.22168
959.00 76.43019
959.10 74.66536
959.20 74.19649
959.30 74.87895
959.40 75.6498
959.50 76.36597
959.60 77.05813
959.70 77.2588
959.80 75.53017
959.90 73.80838
960.00 72.38443
960.10 71.52428
960.20 70.8577
960.30 71.85552
960.40 73.55104
960.50 75.42134
960.60 76.80273
960.70 78.15426
960.80 79.03627
960.90 79.34233
961.00 79.60708
961.10 79.55571
961.20 79.3508
961.30 79.11488
961.40 78.59315
961.50 77.96505
961.60 77.33145
961.70 77.31575
961.80 77.32221
961.90 78.21247
962.00 79.94367
962.10 81.62156
962.20 82.27399
962.30 82.45874
962.40 82.4782
962.50 81.98774
962.60 81.4796
962.70 81.24
962.80 81.25724
962.90 81.25028
963.00 81.19249
963.10 81.01642
963.20 80.7893
963.30 79.73389
963.40 78.61764
963.50 77.41388
963.60 75.9156
963.70 74.36155
963.80 71.67086
963.90 68.10917
964.00 64.81074
964.10 64.51724
964.20 65.35102
964.30 66.86986
964.40 69.83257
964.50 72.80246
964.60 74.55377
964.70 74.85304
964.80 75.10066
964.90 75.15793
965.00 75.20673
965.10 75.40651
965.20 75.68166
965.30 75.92334
965.40 76.2012
965.50 76.56205
965.60 76.90842
965.70 77.52928
965.80 78.61912
965.90 79.71654
966.00 80.6611
966.10 81.54143
966.20 82.44007
966.30 82.85192
966.40 83.26397
966.50 83.283
966.60 82.81185
966.70 82.29215
966.80 81.92101
966.90 81.68308
967.00 81.58027
967.10 81.59429
967.20 81.61207
967.30 81.26371
967.40 80.43059
967.50 79.53456
967.60 77.66494
967.70 75.09693
967.80 72.85559
967.90 73.1901
968.00 74.14834
968.10 75.61277
968.20 78.25652
968.30 80.88533
968.40 81.96249
968.50 81.264
968.60 80.51741
968.70 79.36078
968.80 78.05828
968.90 76.64253
969.00 76.29922
969.10 76.01884
969.20 76.52746
969.30 78.1225
969.40 79.74708
969.50 81.26734
969.60 82.56812
969.70 83.70635
969.80 83.92241
969.90 84.00342
970.00 84.11304
970.10 84.41906
970.20 84.7127
970.30 84.44076
970.40 83.61979
970.50 82.59694
970.60 80.38897
970.70 77.73598
970.80 75.40949
970.90 75.71353
971.00 76.0457
971.10 77.60963
971.20 80.51113
971.30 83.32955
971.40 85.28358
971.50 86.72198
971.60 88.01334
971.70 88.29632
971.80 88.47507
971.90 88.33175
972.00 87.37289
972.10 86.41717
972.20 85.52678
972.30 84.6567
972.40 83.89082
972.50 83.80452
972.60 83.93122
972.70 83.79225
972.80 82.47226
972.90 81.16396
973.00 79.44873
973.10 77.39588
973.20 75.60598
973.30 76.0346
973.40 77.57535
973.50 79.1017
973.60 79.98995
973.70 80.78793
973.80 81.19012
973.90 81.2801
974.00 81.37364
974.10 81.15015
974.20 80.56777
974.30 79.81751
974.40 78.12271
974.50 76.21908
974.60 74.65044
974.70 74.88979
974.80 75.15378
974.90 76.04807
975.00 77.18799
975.10 78.22762
975.20 78.94382
975.30 79.58234
975.40 80.21969
975.50 81.23685
975.60 82.25015
975.70 82.89875
975.80 83.01485
975.90 83.18206
976.00 83.40121
976.10 83.51365
976.20 83.47758
976.30 83.01649
976.40 82.49403
976.50 82.34904
976.60 83.43366
976.70 84.49854
976.80 84.99263
976.90 84.91702
977.00 84.67367
977.10 82.9227
977.20 80.656
977.30 78.67918
977.40 79.28724
977.50 79.87445
977.60 81.05122
977.70 82.583
977.80 84.03258
977.90 84.46989
978.00 84.34946
978.10 83.99211
978.20 82.6267
978.30 81.15547
978.40 79.20693
978.50 76.90194
978.60 74.72077
978.70 74.00157
978.80 74.23227
978.90 74.56185
979.00 75.37573
979.10 76.29632
979.20 77.57371
979.30 80.3157
979.40 83.04591
979.50 84.91632
979.60 85.64005
979.70 86.19738
979.80 86.32442
979.90 86.35834
980.00 86.50476
980.10 86.66787
980.20 86.83581
980.30 86.91935
980.40 86.88996
980.50 86.85352
980.60 86.58729
980.70 86.13845
980.80 85.68985
980.90 85.70121
981.00 85.80531
981.10 86.09301
981.20 86.99023
981.30 87.86895
981.40 87.65294
981.50 86.14238
981.60 84.57184
981.70 83.50836
981.80 82.67592
981.90 82.10478
982.00 83.08365
982.10 84.06258
982.20 84.55688
982.30 84.3493
982.40 84.15892
982.50 84.18831
982.60 84.35157
982.70 84.56251
982.80 84.83116
982.90 85.10157
983.00 85.05797
983.10 84.41863
983.20 83.79532
983.30 83.56674
983.40 83.68135
983.50 83.77231
983.60 83.38914
983.70 82.87437
983.80 82.4267
983.90 82.87526
984.00 83.33682
984.10 83.98619
984.20 84.59384
984.30 85.16307
984.40 85.10561
984.50 84.76962
984.60 84.43493
984.70 85.13095
984.80 85.87048
984.90 86.31208
985.00 85.94949
985.10 85.53394
985.20 84.77819
985.30 83.86695
985.40 83.07795
985.50 83.55682
985.60 84.24775
985.70 85.0009
985.80 85.50707
985.90 85.99106
986.00 86.14205
986.10 86.07225
986.20 86.01338
986.30 86.03547
986.40 86.0831
986.50 86.23822
986.60 86.78936
986.70 87.33594
986.80 87.09332
986.90 85.80199
987.00 84.52503
987.10 83.7124
987.20 83.16698
987.30 82.89796
987.40 84.66909
987.50 86.62473
987.60 88.14027
987.70 88.57594
987.80 88.94768
987.90 88.18919
988.00 86.54519
988.10 84.9468
988.20 84.68164
988.30 84.72284
988.40 85.14281
988.50 86.95114
988.60 88.7494
988.70 89.79563
988.80 89.82575
988.90 89.7861
989.00 89.14276
989.10 88.26868
989.20 87.365
989.30 86.35318
989.40 85.34654
989.50 83.71796
989.60 81.17117
989.70 78.47891
989.80 75.06638
989.90 71.36656
990.00 68.04459
990.10 66.76387
990.20 65.72922
990.30 64.52855
990.40 62.67507
990.50 60.78016
990.60 58.24771
990.70 55.21283
990.80 52.31681
990.90 51.42686
991.00 51.09445
991.10 51.14007
991.20 52.09275
991.30 53.02401
991.40 52.90259
991.50 51.42491
991.60 49.94989
991.70 49.17323
991.80 48.73707
991.90 48.66515
992.00 50.83315
992.10 53.09628
992.20 54.57148
992.30 54.43433
992.40 54.18459
992.50 53.15864
992.60 51.75145
992.70 50.67945
992.80 51.97085
992.90 53.61063
993.00 55.54882
993.10 58.23022
993.20 60.84869
993.30 61.79164
993.40 61.09692
993.50 60.34151
993.60 59.94903
993.70 59.66151
993.80 59.91303
993.90 63.20111
994.00 66.4787
994.10 68.936
994.20 69.99743
994.30 70.8937
994.40 70.68527
994.50 70.01317
994.60 69.395
994.70 69.45962
994.80 69.55815
994.90 70.11321
995.00 71.3328
995.10 72.54017
995.20 73.70068
995.30 74.87419
995.40 76.02146
995.50 76.4783
995.60 76.8094
995.70 76.47744
995.80 74.33877
995.90 72.23291
996.00 70.87366
996.10 70.21868
996.20 69.69743
996.30 70.67792
996.40 72.18386
996.50 73.91466
996.60 76.74578
996.70 79.57659
996.80 80.38645
996.90 78.13089
997.00 75.65606
997.10 72.03657
997.20 67.94664
997.30 64.1696
997.40 63.0939
997.50 62.21451
997.60 62.31627
997.70 64.14869
997.80 65.9912
997.90 67.75295
998.00 69.41493
998.10 71.0387
998.20 71.83682
998.30 72.4652
998.40 72.37513
998.50 70.41336
998.60 68.47237
998.70 67.31267
998.80 67.07453
998.90 66.9608
999.00 66.81488
999.10 66.57557
999.20 66.25348
999.30 66.09795
999.40 65.93704
999.50 66.23315
999.60 67.18657
999.70 68.04471
999.80 68.00615
999.90 67.41528
1000.00 67.10536
1000.10 69.40116
1000.20 71.94495
1000.30 74.36576
1000.40 76.29789
1000.50 78.16526
1000.60 78.98106
1000.70 79.13789
1000.80 79.10194
1000.90 77.26052
1001.00 75.03961
1001.10 72.88744
1001.20 71.11502
1001.30 69.3947
1001.40 69.48771
1001.50 71.33194
1001.60 73.22319
1001.70 75.25922
1001.80 77.3124
1001.90 79.06682
1002.00 78.4403
1002.10 77.89604
1002.20 77.19695
1002.30 76.44885
1002.40 75.83614
1002.50 76.58436
1002.60 78.0432
1002.70 79.39803
1002.80 78.7818
1002.90 77.97151
1003.00 77.02188
1003.10 76.61478
1003.20 76.22728
1003.30 75.56097
1003.40 74.55071
1003.50 73.48784
1003.60 72.15866
1003.70 70.79221
1003.80 69.73048
1003.90 69.94897
1004.00 70.2085
1004.10 71.6405
1004.20 74.01779
1004.30 76.39517
1004.40 78.31496
1004.50 80.14331
1004.60 81.63422
1004.70 81.42182
1004.80 81.24774
1004.90 80.08332
1005.00 77.47482
1005.10 74.78659
1005.20 71.54417
1005.30 68.0572
1005.40 64.70766
1005.50 63.01536
1005.60 61.41157
1005.70 60.80832
1005.80 62.29636
1005.90 63.8291
1006.00 65.66837
1006.10 67.62001
1006.20 69.43025
1006.30 69.44356
1006.40 69.13522
1006.50 69.00423
1006.60 69.68551
1006.70 70.39535
1006.80 72.16776
1006.90 74.97922
1007.00 77.66953
1007.10 77.97662
1007.20 77.46738
1007.30 76.70544
1007.40 76.19988
1007.50 75.65981
1007.60 76.17
1007.70 78.00896
1007.80 79.84392
1007.90 80.87926
1008.00 81.44976
1008.10 81.89079
1008.20 82.12144
1008.30 82.3454
1008.40 82.6309
1008.50 83.05562
1008.60 83.49627
1008.70 83.44711
1008.80 82.99066
1008.90 82.30223
1009.00 80.11313
1009.10 77.59793
1009.20 75.35654
1009.30 74.3016
1009.40 73.28508
1009.50 73.7118
1009.60 75.48995
1009.70 77.29379
1009.80 79.64409
1009.90 82.2028
1010.00 84.78142
1010.10 87.40312
1010.20 90.04597
1010.30 91.77371
1010.40 91.86493
1010.50 91.82133
1010.60 90.8397
1010.70 89.43257
1010.80 87.98825
1010.90 86.67343
1011.00 85.41256
1011.10 83.87216
1011.20 81.52406
1011.30 79.21871
1011.40 77.88705
1011.50 77.32324
1011.60 76.78837
1011.70 75.98702
1011.80 75.11106
1011.90 74.50697
1012.00 75.12495
1012.10 75.79869
1012.20 78.12019
1012.30 81.93284
1012.40 85.60804
1012.50 87.77979
1012.60 89.51841
1012.70 90.92317
1012.80 89.64486
1012.90 88.35984
1013.00 87.61517
1013.10 87.62213
1013.20 87.56956
1013.30 86.76817
1013.40 85.69126
1013.50 84.31542
1013.60 80.2701
1013.70 75.94752
1013.80 72.5003
1013.90 71.42374
1014.00 70.46652
1014.10 71.30011
1014.20 73.28114
1014.30 75.3535
1014.40 77.27851
1014.50 79.18932
1014.60 80.28585
1014.70 78.78905
1014.80 77.29472
1014.90 76.4718
1015.00 76.48215
1015.10 76.82836
1015.20 79.26867
1015.30 82.4252
1015.40 85.15469
1015.50 84.20387
1015.60 83.34063
1015.70 81.50286
1015.80 78.76954
1015.90 76.17036
1016.00 75.33834
1016.10 75.36475
1016.20 75.62948
1016.30 76.69507
1016.40 77.83308
1016.50 78.68316
1016.60 79.20727
1016.70 79.77185
1016.80 80.65057
1016.90 81.7557
1017.00 82.61871
1017.10 81.0986
1017.20 79.06715
1017.30 77.63821
1017.40 78.98559
1017.50 80.37146
1017.60 82.7893
1017.70 86.12456
1017.80 89.10375
1017.90 87.80195
1018.00 85.00418
1018.10 82.11122
1018.20 80.75178
1018.30 79.37264
1018.40 78.24296
1018.50 77.00414
1018.60 75.7801
1018.70 75.16667
1018.80 74.88331
1018.90 74.92686
1019.00 76.89756
1019.10 79.02353
1019.20 80.77915
1019.30 81.82693
1019.40 82.78819
1019.50 82.93231
1019.60 82.45862
1019.70 82.06212
1019.80 82.22725
1019.90 82.51988
1020.00 82.61041
1020.10 82.01862
1020.20 81.45799
1020.30 81.40827
1020.40 81.91531
1020.50 82.46297
1020.60 83.19957
1020.70 83.96132
1020.80 84.66659
1020.90 84.82769
1021.00 85.02405
1021.10 84.65688
1021.20 83.29424
1021.30 81.8077
1021.40 79.80699
1021.50 77.62008
1021.60 75.54897
1021.70 74.21148
1021.80 72.94988
1021.90 71.86948
1022.00 71.24402
1022.10 70.67131
1022.20 71.02773
1022.30 71.67479
1022.40 72.64978
1022.50 75.22676
1022.60 77.98339
1022.70 79.89341
1022.80 80.4075
1022.90 80.89468
1023.00 80.72509
1023.10 80.17335
1023.20 79.54334
1023.30 78.84573
1023.40 77.98377
1023.50 77.75959
1023.60 79.67757
1023.70 81.58159
1023.80 82.95236
1023.90 83.5532
1024.00 84.07106
1024.10 84.92587
1024.20 85.98439
1024.30 87.13332
1024.40 87.13534
1024.50 87.26716
1024.60 86.39934
1024.70 84.54263
1024.80 82.77398
1024.90 81.81148
1025.00 81.18299
1025.10 80.45164
1025.20 78.68359
1025.30 76.86987
1025.40 75.68501
1025.50 75.85158
1025.60 76.09834
1025.70 76.74439
1025.80 77.68929
1025.90 78.25728
1026.00 75.81239
1026.10 72.79121
1026.20 70.04901
1026.30 68.89991
1026.40 67.74703
1026.50 68.02046
1026.60 69.2785
1026.70 70.73062
1026.80 73.88747
1026.90 77.69832
1027.00 81.19277
1027.10 82.21211
1027.20 83.33556
1027.30 83.38065
1027.40 81.97687
1027.50 80.5515
1027.60 78.89985
1027.70 77.07018
1027.80 75.41988
1027.90 75.31753
1028.00 75.38501
1028.10 75.02746
1028.20 73.86612
1028.30 72.69152
1028.40 71.57522
1028.50 70.42382
1028.60 69.67586
1028.70 72.39274
1028.80 75.818
1028.90 79.15871
1029.00 81.07095
1029.10 82.84087
1029.20 82.80723
1029.30 81.14876
1029.40 79.53881
1029.50 79.31706
1029.60 79.30613
1029.70 79.41257
1029.80 78.97
1029.90 78.50688
1030.00 77.85013
1030.10 77.43654
1030.20 77.04222
1030.30 77.12093
1030.40 77.20689
1030.50 77.61087
1030.60 79.93103
1030.70 82.15104
1030.80 83.14215
1030.90 82.78499
1031.00 82.34899
1031.10 81.76661
1031.20 81.01526
1031.30 80.52046
1031.40 81.68118
1031.50 83.018
1031.60 83.52235
1031.70 82.32023
1031.80 81.07573
1031.90 79.77437
1032.00 78.4209
1032.10 77.27557
1032.20 77.40695
1032.30 77.78672
1032.40 77.76171
1032.50 76.25575
1032.60 74.79537
1032.70 75.21291
1032.80 77.42513
1032.90 79.77221
1033.00 82.60796
1033.10 85.6137
1033.20 88.4037
1033.30 89.4485
1033.40 90.6196
1033.50 89.97559
1033.60 86.76768
1033.70 83.46959
1033.80 80.49562
1033.90 77.7038
1034.00 75.25475
1034.10 75.31339
1034.20 75.47484
1034.30 75.37971
1034.40 74.60656
1034.50 73.83336
1034.60 73.46739
1034.70 73.32012
1034.80 73.51701
1034.90 75.31767
1035.00 77.60467
1035.10 78.88451
1035.20 77.75751
1035.30 76.65422
1035.40 76.68312
1035.50 77.65297
1035.60 78.63694
1035.70 79.52468
1035.80 80.33725
1035.90 81.31477
1036.00 83.10915
1036.10 84.90413
1036.20 86.40765
1036.30 87.43734
1036.40 88.33702
1036.50 88.3978
1036.60 88.27937
1036.70 88.18619
1036.80 88.39767
1036.90 88.52846
1037.00 89.23463
1037.10 90.72671
1037.20 92.22546
1037.30 93.43021
1037.40 94.56872
1037.50 95.49603
1037.60 94.16349
1037.70 92.79131
1037.80 90.64742
1037.90 87.05904
1038.00 83.49353
1038.10 80.65453
1038.20 78.13515
1038.30 76.00796
1038.40 76.97234
1038.50 78.43485
1038.60 80.15009
1038.70 82.45591
1038.80 84.72857
1038.90 85.51272
1039.00 84.88596
1039.10 84.20726
1039.20 83.55778
1039.30 82.89848
1039.40 82.23307
1039.50 81.49296
1039.60 80.75418
1039.70 80.26607
1039.80 80.23841
1039.90 80.3466
1040.00 81.07688
1040.10 81.82296
1040.20 82.72433
1040.30 84.69827
1040.40 86.806
1040.50 88.33567
1040.60 88.92547
1040.70 89.48264
1040.80 89.98721
1040.90 90.56781
1041.00 91.02823
1041.10 89.45085
1041.20 87.79991
1041.30 85.86111
1041.40 83.50573
1041.50 81.23974
1041.60 81.22866
1041.70 82.63173
1041.80 84.31226
1041.90 87.45202
1042.00 91.04937
1042.10 93.63163
1042.20 92.00275
1042.30 90.4254
1042.40 88.44224
1042.50 86.42102
1042.60 84.34427
1042.70 81.6871
1042.80 78.78196
1042.90 76.14193
1043.00 76.097
1043.10 75.90043
1043.20 77.74295
1043.30 82.18297
1043.40 86.53021
1043.50 89.40674
1043.60 91.78298
1043.70 93.78315
1043.80 93.24544
1043.90 92.44474
1044.00 91.91555
1044.10 92.05777
1044.20 92.20019
1044.30 92.14258
1044.40 92.07043
1044.50 91.93263
1044.60 91.60927
1044.70 91.21412
1044.80 91.11609
1044.90 91.29511
1045.00 91.49034
1045.10 93.15936
1045.20 95.82168
1045.30 98.42275
1045.40 100.2629
1045.50 102.148
1045.60 103.6752
1045.70 103.611
1045.80 103.6237
1045.90 102.1692
1046.00 99.42031
1046.10 96.66908
1046.20 93.85116
1046.30 90.79439
1046.40 87.90774
1046.50 87.10667
1046.60 86.25526
1046.70 85.24724
1046.80 84.31964
1046.90 83.39997
1047.00 82.27096
1047.10 80.86228
1047.20 79.66432
1047.30 80.35826
1047.40 81.21298
1047.50 82.11139
1047.60 82.85938
1047.70 83.58975
1047.80 83.72992
1047.90 83.4658
1048.00 83.14969
1048.10 82.95923
1048.20 82.67162
1048.30 83.09587
1048.40 85.3007
1048.50 87.48605
1048.60 88.67393
1048.70 89.14656
1048.80 89.53944
1048.90 89.41678
1049.00 89.14574
1049.10 88.96765
1049.20 89.50398
1049.30 90.02563
1049.40 90.17974
1049.50 90.00238
1049.60 89.61191
1049.70 87.27717
1049.80 84.3722
1049.90 81.88156
1050.00 82.73986
1050.10 83.44741
1050.20 84.64588
1050.30 86.05646
1050.40 87.31061
1050.50 87.56346
1050.60 87.46032
1050.70 87.31619
1050.80 87.04812
1050.90 86.74367
1051.00 86.43423
1051.10 85.92587
1051.20 85.29664
1051.30 83.75385
1051.40 81.63108
1051.50 79.67041
1051.60 79.58375
1051.70 79.79084
1051.80 80.16208
1051.90 80.35751
1052.00 80.53751
1052.10 80.54645
1052.20 80.42836
1052.30 80.36879
1052.40 81.33964
1052.50 82.51307
1052.60 84.03892
1052.70 86.38387
1052.80 88.70679
1052.90 89.8087
1053.00 89.80803
1053.10 89.63452
1053.20 88.60889
1053.30 87.24851
1053.40 86.1195
1053.50 87.17181
1053.60 88.16458
1053.70 88.77346
1053.80 88.75972
1053.90 88.65633
1054.00 87.84714
1054.10 86.6501
1054.20 85.693
1054.30 86.80895
1054.40 88.13646
1054.50 88.63103
1054.60 87.05554
1054.70 85.40948
1054.80 83.77767
1054.90 82.12025
1055.00 80.74858
1055.10 82.22274
1055.20 84.2604
1055.30 85.91189
1055.40 86.48005
1055.50 87.04394
1055.60 86.23337
1055.70 84.54085
1055.80 82.80067
1055.90 81.36158
1056.00 79.84089
1056.10 78.49093
1056.20 77.77313
1056.30 77.08939
1056.40 77.02843
1056.50 77.38375
1056.60 77.79369
1056.70 78.65253
1056.80 79.63638
1056.90 80.46636
1057.00 80.358
1057.10 80.33795
1057.20 80.77501
1057.30 81.77288
1057.40 82.81533
1057.50 83.74073
1057.60 84.56864
1057.70 85.2896
1057.80 85.20524
1057.90 85.11131
1058.00 85.07804
1058.10 85.21262
1058.20 85.35238
1058.30 85.31583
1058.40 85.23138
1058.50 84.90698
1058.60 83.3858
1058.70 81.74584
1058.80 80.54915
1058.90 80.12273
1059.00 79.72717
1059.10 79.73835
1059.20 79.8876
1059.30 80.03242
1059.40 80.85427
1059.50 81.78676
1059.60 82.83045
1059.70 83.76601
1059.80 84.65445
1059.90 84.51135
1060.00 83.57406
1060.10 82.63509
1060.20 82.16128
1060.30 81.91052
1060.40 81.66667
1060.50 80.90855
1060.60 80.20297
1060.70 79.45885
1060.80 78.32914
1060.90 77.2496
1061.00 77.05085
1061.10 77.31954
1061.20 77.80726
1061.30 79.29772
1061.40 80.84131
1061.50 82.05077
1061.60 83.20451
1061.70 84.27455
1061.80 84.26245
1061.90 83.74873
1062.00 83.25324
1062.10 82.23789
1062.20 81.09533
1062.30 80.4045
1062.40 81.0697
1062.50 81.77075
1062.60 83.18151
1062.70 84.90682
1062.80 86.6508
1062.90 88.23503
1063.00 89.90999
1063.10 91.0241
1063.20 90.06277
1063.30 89.13329
1063.40 88.34793
1063.50 87.90666
1063.60 87.59203
1063.70 87.95391
1063.80 88.34999
1063.90 88.87064
1064.00 89.83476
1064.10 90.839
1064.20 91.40074
1064.30 91.30171
1064.40 91.15648
1064.50 90.9289
1064.60 90.7959
1064.70 90.67358
1064.80 90.82775
1064.90 90.88359
1065.00 90.96682
1065.10 91.25765
1065.20 91.47887
1065.30 90.37537
1065.40 88.54876
1065.50 86.64651
1065.60 85.26121
1065.70 83.94087
1065.80 83.1309
1065.90 83.02625
1066.00 82.88584
1066.10 82.44322
1066.20 81.88737
1066.30 81.14749
1066.40 79.71008
1066.50 78.0876
1066.60 77.087
1066.70 77.91178
1066.80 78.67708
1066.90 78.96242
1067.00 78.63097
1067.10 78.27795
1067.20 78.51541
1067.30 78.94502
1067.40 79.84543
1067.50 82.33967
1067.60 84.81625
1067.70 86.56811
1067.80 87.48643
1067.90 88.36453
1068.00 88.95178
1068.10 89.55439
1068.20 90.14035
1068.30 92.57853
1068.40 94.93897
1068.50 96.89358
1068.60 97.97554
1068.70 99.01794
1068.80 98.88103
1068.90 98.17968
1069.00 97.42881
1069.10 96.87777
1069.20 96.23621
1069.30 95.52254
1069.40 94.70435
1069.50 93.86343
1069.60 92.09062
1069.70 89.54891
1069.80 87.12981
1069.90 86.95769
1070.00 87.09186
1070.10 87.06567
1070.20 86.55272
1070.30 86.05689
1070.40 85.90698
1070.50 86.05533
1070.60 86.35893
1070.70 88.04398
1070.80 90.07486
1070.90 91.69287
1071.00 90.80252
1071.10 89.93093
1071.20 89.33127
1071.30 89.00373
1071.40 88.8219
1071.50 89.8991
1071.60 91.43085
1071.70 92.67842
1071.80 92.11364
1071.90 91.6314
1072.00 91.33482
1072.10 91.44239
1072.20 91.53314
1072.30 90.81491
1072.40 89.77594
1072.50 88.55119
1072.60 87.52609
1072.70 86.33092
1072.80 86.33246
1072.90 87.9748
1073.00 89.6226
1073.10 90.66999
1073.20 91.56922
1073.30 92.26726
1073.40 90.60082
1073.50 88.6559
1073.60 87.34332
1073.70 87.7691
1073.80 88.20732
1073.90 89.16502
1074.00 90.19984
1074.10 91.22639
1074.20 92.30984
1074.30 93.60741
1074.40 94.53493
1074.50 94.12062
1074.60 93.70056
1074.70 93.65321
1074.80 94.27188
1074.90 94.89943
1075.00 94.5941
1075.10 93.95839
1075.20 93.13702
1075.30 91.7716
1075.40 90.42584
1075.50 89.80804
1075.60 89.44581
1075.70 89.25797
1075.80 90.70872
1075.90 92.81555
1076.00 94.79052
1076.10 94.73659
1076.20 94.79014
1076.30 94.63694
1076.40 94.19565
1076.50 93.77879
1076.60 93.5318
1076.70 93.31535
1076.80 93.0909
1076.90 93.68447
1077.00 94.38123
1077.10 94.82082
1077.20 94.55739
1077.30 94.29209
1077.40 93.73111
1077.50 92.96448
1077.60 92.08872
1077.70 91.29873
1077.80 90.45001
1077.90 90.14706
1078.00 91.1598
1078.10 92.12902
1078.20 92.53415
1078.30 92.55904
1078.40 92.52071
1078.50 92.84811
1078.60 93.38028
1078.70 93.63842
1078.80 92.17725
1078.90 90.71693
1079.00 89.4317
1079.10 88.46648
1079.20 87.54889
1079.30 86.71008
1079.40 85.92674
1079.50 85.30043
1079.60 85.9626
1079.70 86.48028
1079.80 87.18473
1079.90 88.10823
1080.00 89.02207
1080.10 89.64343
1080.20 90.11048
1080.30 90.5245
1080.40 90.84467
1080.50 91.20471
1080.60 91.78343
1080.70 92.65231
1080.80 93.49101
1080.90 93.93829
1081.00 94.10049
1081.10 94.23384
1081.20 94.25196
1081.30 94.35738
1081.40 94.50114
1081.50 94.59406
1081.60 94.68987
1081.70 95.43967
1081.80 96.64056
1081.90 97.75924
1082.00 97.54418
1082.10 97.22609
1082.20 96.67574
1082.30 95.55533
1082.40 94.43373
1082.50 93.49968
1082.60 92.65974
1082.70 91.88002
1082.80 91.86287
1082.90 92.0861
1083.00 92.45793
1083.10 93.11582
1083.20 93.61702
1083.30 94.25919
1083.40 95.46578
1083.50 96.60887
1083.60 96.5873
1083.70 96.24016
1083.80 95.88039
1083.90 95.71948
1084.00 95.51133
1084.10 95.3488
1084.20 95.28338
1084.30 95.20161
1084.40 95.07902
1084.50 95.07166
1084.60 94.92665
1084.70 93.53238
1084.80 91.91476
1084.90 91.10909
1085.00 91.84968
1085.10 92.58033
1085.20 93.19129
1085.30 94.23515
1085.40 95.03666
1085.50 94.41683
1085.60 93.19165
1085.70 92.69703
1085.80 93.81545
1085.90 94.92339
1086.00 96.15428
1086.10 97.62156
1086.20 99.06244
1086.30 99.65005
1086.40 100.1435
1086.50 100.2619
1086.60 99.03691
1086.70 97.82474
1086.80 97.07426
1086.90 96.94705
1087.00 96.9846
1087.10 97.79222
1087.20 98.82622
1087.30 99.65864
1087.40 98.64946
1087.50 97.77146
1087.60 96.80686
1087.70 95.72757
1087.80 94.84497
1087.90 95.4833
1088.00 96.68341
1088.10 97.70712
1088.20 96.83271
1088.30 96.02391
1088.40 95.53772
1088.50 95.48011
1088.60 95.50135
1088.70 95.77292
1088.80 96.18167
1088.90 96.36881
1089.00 95.92573
1089.10 95.43483
1089.20 95.12858
1089.30 95.37271
1089.40 95.63737
1089.50 95.68373
1089.60 95.2227
1089.70 94.89157
1089.80 96.13476
1089.90 97.68673
1090.00 99.09936
1090.10 99.95418
1090.20 100.8248
1090.30 101.0847
1090.40 100.9075
1090.50 100.6772
1090.60 100.0027
1090.70 99.42513
1090.80 98.67014
1090.90 96.89387
1091.00 95.09623
1091.10 93.69612
1091.20 92.68043
1091.30 91.8515
1091.40 92.26973
1091.50 92.95932
1091.60 93.79636
1091.70 95.34922
1091.80 96.90346
1091.90 97.80616
1092.00 98.22914
1092.10 98.57866
1092.20 98.43807
1092.30 98.04765
1092.40 97.79305
1092.50 97.89387
1092.60 97.96571
1092.70 98.02451
1092.80 98.26994
1092.90 98.51671
1093.00 98.42252
1093.10 98.03192
1093.20 97.62992
1093.30 97.29697
1093.40 97.05156
1093.50 96.81777
1093.60 96.90639
1093.70 97.01679
1093.80 97.01807
1093.90 96.29824
1094.00 95.79206
1094.10 96.53356
1094.20 97.67924
1094.30 98.26105
1094.40 96.99951
1094.50 95.8457
1094.60 94.54933
1094.70 93.13935
1094.80 91.90441
1094.90 93.13189
1095.00 94.51677
1095.10 96.08586
1095.20 97.65987
1095.30 99.21944
1095.40 100.3014
1095.50 101.2071
1095.60 101.9711
1095.70 101.5419
1095.80 100.7072
1095.90 99.87665
1096.00 100.3381
1096.10 100.7182
1096.20 101.0834
1096.30 101.3103
1096.40 101.5323
1096.50 101.411
1096.60 101.1431
1096.70 100.7325
1096.80 99.35254
1096.90 98.01339
1097.00 96.34977
1097.10 94.18682
1097.20 92.09246
1097.30 91.89229
1097.40 92.39171
1097.50 93.07184
1097.60 93.9951
1097.70 94.8867
1097.80 95.76064
1097.90 97.03688
1098.00 98.33745
1098.10 98.88819
1098.20 98.72106
1098.30 98.32879
1098.40 97.58966
1098.50 97.01914
1098.60 96.60002
1098.70 96.06935
1098.80 95.43933
1098.90 95.1612
1099.00 95.27736
1099.10 95.4233
1099.20 95.91222
1099.30 96.40086
1099.40 97.02713
1099.50 98.0247
1099.60 99.0911
1099.70 99.50763
1099.80 99.41404
1099.90 99.33825
1100.00 99.00015
1100.10 98.47138
1100.20 97.89481
1100.30 97.00251
1100.40 96.17524
1100.50 95.45516
1100.60 94.89995
1100.70 94.45884
1100.80 94.93721
1100.90 95.89463
1101.00 96.80268
1101.10 96.96925
1101.20 96.99988
1101.30 97.3628
1101.40 98.50901
1101.50 99.64985
1101.60 99.69285
1101.70 99.28756
1101.80 98.67525
1101.90 96.99363
1102.00 95.27665
1102.10 93.76922
1102.20 92.65075
1102.30 91.51787
1102.40 90.82341
1102.50 90.05496
1102.60 89.62646
1102.70 91.55328
1102.80 94.04902
1102.90 96.19765
1103.00 97.33722
1103.10 98.56813
1103.20 98.38105
1103.30 96.61462
1103.40 94.68872
1103.50 92.08362
1103.60 89.16001
1103.70 86.95985
1103.80 87.56597
1103.90 88.00108
1104.00 88.87782
1104.10 90.52062
1104.20 92.16067
1104.30 92.51544
1104.40 92.25196
1104.50 91.88374
1104.60 92.40218
1104.70 92.92898
1104.80 93.38311
1104.90 94.11199
1105.00 94.87176
1105.10 94.23833
1105.20 92.80747
1105.30 91.08543
1105.40 89.02817
1105.50 86.95288
1105.60 85.92551
1105.70 85.6914
1105.80 85.44745
1105.90 85.96503
1106.00 87.23076
1106.10 88.35242
1106.20 88.45621
1106.30 88.46109
1106.40 88.63206
1106.50 89.16627
1106.60 89.64434
1106.70 89.53947
1106.80 89.26155
1106.90 88.87681
1107.00 87.70379
1107.10 86.24629
1107.20 85.22161
1107.30 85.87485
1107.40 86.4939
1107.50 87.26035
1107.60 88.35463
1107.70 89.27446
1107.80 89.5148
1107.90 89.48177
1108.00 89.62077
1108.10 89.97571
1108.20 90.29241
1108.30 91.05621
1108.40 92.4258
1108.50 93.76221
1108.60 94.51302
1108.70 95.22433
1108.80 95.73989
1108.90 95.20737
1109.00 94.64356
1109.10 94.10718
1109.20 93.5918
1109.30 93.21319
1109.40 93.60056
1109.50 94.25727
1109.60 94.87373
1109.70 95.56239
1109.80 96.33758
1109.90 96.48768
1110.00 95.84984
1110.10 95.15544
1110.20 93.63141
1110.30 91.9248
1110.40 90.22725
1110.50 88.66076
1110.60 86.92112
1110.70 86.11673
1110.80 87.00511
1110.90 87.82622
1111.00 87.87102
1111.10 87.42719
1111.20 86.9236
1111.30 86.49421
1111.40 86.05451
1111.50 85.85869
1111.60 86.07427
1111.70 86.23331
1111.80 86.69131
1111.90 87.56756
1112.00 88.33625
1112.10 88.18444
1112.20 87.85658
1112.30 87.64578
1112.40 87.76853
1112.50 87.86493
1112.60 88.56597
1112.70 89.9433
1112.80 91.3575
1112.90 92.58934
1113.00 93.79279
1113.10 94.8139
1113.20 94.64271
1113.30 94.47367
1113.40 94.16442
1113.50 93.76646
1113.60 93.21432
1113.70 91.78584
1113.80 90.08515
1113.90 88.68001
1114.00 89.49483
1114.10 90.10847
1114.20 91.08679
1114.30 92.15496
1114.40 93.2719
1114.50 94.3621
1114.60 95.46066
1114.70 96.216
1114.80 94.91958
1114.90 93.59127
1115.00 92.3238
1115.10 91.84145
1115.20 91.49709
1115.30 92.08224
1115.40 93.34859
1115.50 94.48161
1115.60 94.62033
1115.70 94.39251
1115.80 94.09252
1115.90 93.09523
1116.00 92.10885
1116.10 91.38952
1116.20 91.13358
1116.30 90.91601
1116.40 90.97444
1116.50 91.04733
1116.60 91.16578
1116.70 91.96699
1116.80 92.72557
1116.90 92.44305
1117.00 90.98759
1117.10 89.50704
1117.20 88.07581
1117.30 86.61602
1117.40 85.2372
1117.50 85.33047
1117.60 85.41664
1117.70 85.7572
1117.80 85.72483
1117.90 85.76811
1118.00 86.47809
1118.10 87.6616
1118.20 88.75222
1118.30 90.57296
1118.40 92.40583
1118.50 93.95874
1118.60 94.52943
1118.70 94.94733
1118.80 94.15844
1118.90 93.05993
1119.00 92.76183
1119.10 92.5506
1119.20 92.2587
1119.30 91.91451
1119.40 91.35745
1119.50 90.77162
1119.60 90.25495
1119.70 89.50468
1119.80 88.74886
1119.90 88.10302
1120.00 87.78794
1120.10 87.47705
1120.20 87.51948
1120.30 88.659
1120.40 89.8846
1120.50 90.46505
1120.60 91.23597
1120.70 92.08752
1120.80 93.08126
1120.90 93.13253
1121.00 92.13989
1121.10 91.25676
1121.20 90.35959
1121.30 90.67613
1121.40 90.98763
1121.50 91.28187
1121.60 90.39348
1121.70 89.22136
1121.80 88.11125
1121.90 87.30989
1122.00 86.79815
1122.10 86.00286
1122.20 85.69052
1122.30 86.30516
1122.40 86.7389
1122.50 87.37506
1122.60 90.16042
1122.70 93.12367
1122.80 96.00099
1122.90 96.92513
1123.00 97.14634
1123.10 97.30822
1123.20 95.88335
1123.30 93.01391
1123.40 90.15882
1123.50 88.17065
1123.60 89.12951
1123.70 90.03935
1123.80 90.84798
1123.90 91.7927
1124.00 92.74613
1124.10 93.69889
1124.20 94.23188
1124.30 94.5459
1124.40 94.85706
1124.50 95.43424
1124.60 96.0656
1124.70 96.70643
1124.80 96.65869
1124.90 94.1627
1125.00 91.68182
1125.10 89.08538
1125.20 89.97034
1125.30 91.23092
1125.40 92.71586
1125.50 94.13377
1125.60 95.52949
1125.70 96.89235
1125.80 97.22481
1125.90 96.22219
1126.00 95.23113
1126.10 94.42218
1126.20 94.47041
1126.30 94.51546
1126.40 94.4997
1126.50 94.73035
1126.60 94.99839
1126.70 95.2861
1126.80 95.02403
1126.90 94.51656
1127.00 94.00781
1127.10 93.81343
1127.20 93.83715
1127.30 93.87004
1127.40 93.92184
1127.50 93.67287
1127.60 93.42269
1127.70 93.05827
1127.80 93.31727
1127.90 93.64664
1128.00 93.96802
1128.10 93.95504
1128.20 93.86392
1128.30 93.78694
1128.40 93.98693
1128.50 94.35234
1128.60 94.71577
1128.70 95.05335
1128.80 94.63903
1128.90 94.23358
1129.00 93.71687
1129.10 93.09856
1129.20 92.49665
1129.30 91.96984
1129.40 92.29491
1129.50 92.99787
1129.60 93.68787
1129.70 94.54659
1129.80 95.86973
1129.90 97.19398
1130.00 98.2019
1130.10 97.22848
1130.20 96.29293
1130.30 95.35593
1130.40 94.18512
1130.50 92.96894
1130.60 91.77575
1130.70 90.92424
1130.80 90.37193
1130.90 89.82069
1131.00 89.5827
1131.10 90.14474
1131.20 90.70373
1131.30 91.35679
1131.40 91.90694
1131.50 92.46332
1131.60 92.96895
1131.70 93.29375
1131.80 93.60169
1131.90 93.89491
1132.00 94.05874
1132.10 93.94538
1132.20 93.83482
1132.30 93.80275
1132.40 93.98159
1132.50 94.15693
1132.60 94.16368
1132.70 93.86519
1132.80 93.56585
1132.90 93.32357
1133.00 92.97974
1133.10 92.59392
1133.20 92.19442
1133.30 91.725
1133.40 91.1509
1133.50 90.5747
1133.60 89.82294
1133.70 88.65422
1133.80 87.48587
1133.90 86.18808
1134.00 85.00282
1134.10 83.81899
1134.20 82.70904
1134.30 83.34417
1134.40 84.39568
1134.50 85.52458
1134.60 87.02312
1134.70 88.52166
1134.80 90.00361
1134.90 91.08054
1135.00 91.89962
1135.10 92.74606
1135.20 93.54613
1135.30 92.79282
1135.40 92.04982
1135.50 91.22898
1135.60 89.20596
1135.70 86.90936
1135.80 84.66302
1135.90 84.71492
1136.00 86.65343
1136.10 88.57982
1136.20 89.82655
1136.30 89.95784
1136.40 90.11143
1136.50 90.34692
1136.60 89.38142
1136.70 88.41965
1136.80 87.41016
1136.90 86.51386
1137.00 85.64897
1137.10 84.81559
1137.20 83.76704
1137.30 82.61115
1137.40 81.46303
1137.50 80.57904
1137.60 80.00566
1137.70 79.46229
1137.80 78.902
1137.90 75.45171
1138.00 72.04729
1138.10 68.5112
1138.20 65.22429
1138.30 61.98021
1138.40 58.92232
1138.50 58.33352
1138.60 60.99093
1138.70 63.56653
1138.80 66.64733
1138.90 69.89
1139.00 73.18896
1139.10 76.64886
1139.20 77.88491
1139.30 79.17184
1139.40 80.31209
1139.50 79.80251
1139.60 78.90108
1139.70 77.95746
1139.80 76.97081
1139.90 75.92995
1140.00 74.91778
1140.10 73.24989
1140.20 69.35216
1140.30 65.49675
1140.40 61.36539
1140.50 57.5456
1140.60 53.61683
1140.70 49.96555
1140.80 50.95377
1140.90 53.96883
1141.00 57.05071
1141.10 60.47203
1141.20 64.18837
1141.30 67.93993
1141.40 71.90145
1141.50 75.72717
1141.60 79.58482
1141.70 83.26017
1141.80 84.25839
1141.90 85.28195
1142.00 86.29781
1142.10 87.18181
1142.20 87.97018
1142.30 88.71549
1142.40 88.99612
1142.50 88.98537
1142.60 88.96859
1142.70 89.2366
1142.80 89.85088
1142.90 90.4681
1143.00 91.031
1143.10 90.61091
1143.20 90.1981
1143.30 89.78471
1143.40 89.72786
1143.50 89.81528
1143.60 89.90379
1143.70 89.68476
1143.80 89.25619
1143.90 88.84149
1144.00 88.8215
1144.10 89.69689
1144.20 90.55207
1144.30 91.39726
1144.40 91.74212
1144.50 92.08629
1144.60 92.31471
1144.70 92.05416
1144.80 91.70495
1144.90 91.38617
1145.00 91.61166
1145.10 92.06785
1145.20 92.52655
1145.30 92.71455
1145.40 92.35347
1145.50 91.99436
1145.60 91.63173
1145.70 91.34819
1145.80 91.06315
1145.90 90.75816
1146.00 90.80976
1146.10 91.13031
1146.20 91.43597
1146.30 91.79502
1146.40 91.98474
1146.50 92.17386
1146.60 92.54258
1146.70 93.31996
1146.80 94.11243
1146.90 94.81348
1147.00 93.80573
1147.10 92.80627
1147.20 91.81222
1147.30 91.87667
1147.40 92.32712
1147.50 92.77791
1147.60 93.2184
1147.70 93.8041
1147.80 94.38902
1147.90 94.80383
1148.00 94.64013
1148.10 94.48145
1148.20 94.53162
1148.30 93.94171
1148.40 93.37023
1148.50 92.76125
1148.60 92.97985
1148.70 93.58105
1148.80 94.20138
1148.90 94.83721
1149.00 95.75481
1149.10 96.67651
1149.20 97.12735
1149.30 95.76608
1149.40 94.41702
1149.50 93.19476
1149.60 93.53546
1149.70 93.86197
1149.80 94.20506
1149.90 94.74095
1150.00 95.36915
1150.10 95.96856
1150.20 95.67285
1150.30 94.79431
1150.40 93.91404
1150.50 93.44828
1150.60 93.78464
1150.70 94.11358
1150.80 94.47763
1150.90 95.06172
1151.00 95.65242
1151.10 96.19536
1151.20 96.34665
1151.30 96.32371
1151.40 96.287
1151.50 95.8023
1151.60 94.93242
1151.70 94.06106
1151.80 93.5099
1151.90 93.76949
1152.00 94.02743
1152.10 94.41079
1152.20 93.58987
1152.30 92.78756
1152.40 91.88352
1152.50 91.44212
1152.60 91.20937
1152.70 91.02856
1152.80 90.95377
1152.90 91.42441
1153.00 91.89507
1153.10 92.35681
1153.20 91.95678
1153.30 91.55773
1153.40 91.18522
1153.50 91.15156
1153.60 91.10751
1153.70 91.07819
1153.80 91.66281
1153.90 92.55748
1154.00 93.4465
1154.10 94.2438
1154.20 94.94308
1154.30 95.65024
1154.40 96.22561
1154.50 95.77018
1154.60 95.3267
1154.70 94.74807
1154.80 93.87332
1154.90 92.97919
1155.00 92.11423
1155.10 92.10243
1155.20 92.33513
1155.30 92.54714
1155.40 92.77978
1155.50 92.99259
1155.60 93.21571
1155.70 93.71109
1155.80 94.59587
1155.90 95.48763
1156.00 96.374
1156.10 95.94074
1156.20 95.50644
1156.30 95.01981
1156.40 95.24219
1156.50 95.67267
1156.60 96.11715
1156.70 96.29252
1156.80 96.05032
1156.90 95.79898
1157.00 95.28691
1157.10 94.5032
1157.20 93.70957
1157.30 93.0437
1157.40 93.12959
1157.50 93.21478
1157.60 93.25899
1157.70 93.43909
1157.80 93.66019
1157.90 93.8941
1158.00 94.18289
1158.10 94.57417
1158.20 94.96708
1158.30 95.2418
1158.40 95.0346
1158.50 94.83067
1158.60 94.53597
1158.70 94.06047
1158.80 93.59119
1158.90 93.13573
1159.00 92.64667
1159.10 92.13796
1159.20 91.6112
1159.30 90.55319
1159.40 89.0186
1159.50 87.48943
1159.60 86.31058
1159.70 86.10422
1159.80 85.87037
1159.90 85.7943
1160.00 86.73049
1160.10 87.66387
1160.20 88.57091
1160.30 89.52746
1160.40 90.52546
1160.50 91.4623
1160.60 91.85386
1160.70 91.43139
1160.80 91.00528
1160.90 90.07125
1161.00 88.64143
1161.10 87.17303
1161.20 86.19039
1161.30 87.8046
1161.40 89.38519
1161.50 91.158
1161.60 92.70103
1161.70 94.1378
1161.80 95.3879
1161.90 95.42795
1162.00 94.62406
1162.10 93.83461
1162.20 93.15858
1162.30 92.9098
1162.40 92.65123
1162.50 92.50515
1162.60 93.17209
1162.70 93.83347
1162.80 94.4772
1162.90 95.2487
1163.00 96.06466
1163.10 96.87596
1163.20 97.30862
1163.30 97.34874
1163.40 97.35532
1163.50 97.00973
1163.60 95.65211
1163.70 94.31517
1163.80 92.66838
1163.90 90.99967
1164.00 89.30898
1164.10 87.81262
1164.20 87.99642
1164.30 88.59603
1164.40 89.29949
1164.50 90.45991
1164.60 91.87997
1164.70 93.26275
1164.80 94.28303
1164.90 94.61711
1165.00 94.96094
1165.10 95.05646
1165.20 94.34883
1165.30 93.64589
1165.40 92.90667
1165.50 92.14473
1165.60 91.37316
1165.70 90.67509
1165.80 90.88161
1165.90 91.78849
1166.00 92.71594
1166.10 93.71623
1166.20 94.69908
1166.30 95.68412
1166.40 96.53213
1166.50 96.39523
1166.60 96.26366
1166.70 96.08446
1166.80 95.67702
1166.90 95.25262
1167.00 94.79414
1167.10 94.34886
1167.20 93.93085
1167.30 93.53153
1167.40 93.25034
1167.50 92.90133
1167.60 92.55098
1167.70 92.073
1167.80 91.65909
1167.90 91.24033
1168.00 90.86559
1168.10 90.30945
1168.20 89.73154
1168.30 89.11074
1168.40 87.92676
1168.50 86.41515
1168.60 84.85516
1168.70 82.48446
1168.80 78.8557
1168.90 75.27807
1169.00 70.72854
1169.10 64.95915
1169.20 59.12553
1169.30 53.63836
1169.40 54.41371
1169.50 55.8225
1169.60 57.74324
1169.70 62.16332
1169.80 67.62076
1169.90 72.98802
1170.00 77.52324
1170.10 80.72535
1170.20 83.95283
1170.30 86.65977
1170.40 88.0953
1170.50 89.54674
1170.60 90.86803
1170.70 91.43516
1170.80 91.91293
1170.90 92.33382
1171.00 92.19406
1171.10 91.83619
1171.20 91.48812
1171.30 91.5159
1171.40 91.85724
1171.50 92.20158
1171.60 92.43018
1171.70 91.99535
1171.80 91.56778
1171.90 91.05549
1172.00 90.81916
1172.10 90.57613
1172.20 90.39614
1172.30 90.44805
1172.40 90.62934
1172.50 90.82416
1172.60 91.04588
1172.70 91.31955
1172.80 91.58677
1172.90 91.88807
1173.00 92.36056
1173.10 92.83751
1173.20 93.33116
1173.30 92.85502
1173.40 92.39291
1173.50 91.87747
1173.60 91.31082
1173.70 90.73698
1173.80 90.22479
1173.90 90.27736
1174.00 90.80632
1174.10 91.33756
1174.20 91.8697
1174.30 92.49196
1174.40 93.11185
1174.50 93.68455
1174.60 94.03362
1174.70 94.39495
1174.80 94.75326
1174.90 94.6223
1175.00 94.34909
1175.10 94.03253
1175.20 93.69618
1175.30 93.3248
1175.40 92.96256
1175.50 92.6692
1175.60 92.77127
1175.70 92.86488
1175.80 92.99883
1175.90 92.18869
1176.00 91.39187
1176.10 90.50224
1176.20 89.24434
1176.30 87.89087
1176.40 86.51492
1176.50 85.14903
1176.60 83.76652
1176.70 82.32449
1176.80 79.98062
1176.90 75.40815
1177.00 70.88743
1177.10 65.59422
1177.20 59.19241
1177.30 52.73796
1177.40 46.52761
1177.50 44.66906
1177.60 43.89399
1177.70 43.67562
1177.80 47.01138
1177.90 52.65376
1178.00 58.28671
1178.10 63.38917
1178.20 67.54723
1178.30 71.75428
1178.40 75.48898
1178.50 77.72577
1178.60 79.97577
1178.70 82.13941
1178.80 83.44889
1178.90 84.65766
1179.00 85.79179
1179.10 86.662
1179.20 87.27489
1179.30 87.86931
1179.40 88.18755
1179.50 88.18596
1179.60 88.18724
1179.70 88.18534
1179.80 88.26762
1179.90 88.34427
1180.00 88.39584
1180.10 88.95359
1180.20 89.55969
1180.30 90.23269
1180.40 90.81873
1180.50 91.33252
1180.60 91.80266
1180.70 91.84527
1180.80 91.30147
1180.90 90.75958
1181.00 90.24444
1181.10 89.84368
1181.20 89.4423
1181.30 89.04937
1181.40 88.74885
1181.50 88.45697
1181.60 88.18776
1181.70 88.3118
1181.80 88.61939
1181.90 88.94393
1182.00 89.27264
1182.10 89.71269
1182.20 90.14276
1182.30 90.46122
1182.40 90.20966
1182.50 89.97539
1182.60 89.61621
1182.70 88.51963
1182.80 87.43219
1182.90 86.36189
1183.00 85.83147
1183.10 85.55525
1183.20 85.34851
1183.30 85.63256
1183.40 86.15081
1183.50 86.66139
1183.60 86.95251
1183.70 86.40929
1183.80 85.87409
1183.90 85.17188
1184.00 85.64
1184.10 86.08379
1184.20 86.68209
1184.30 87.95357
1184.40 89.41462
1184.50 90.75511
1184.60 91.36848
1184.70 90.99628
1184.80 90.61948
1184.90 90.02984
1185.00 89.28678
1185.10 88.53213
1185.20 87.71765
1185.30 87.62244
1185.40 87.51145
1185.50 87.51287
1185.60 87.97206
1185.70 88.54187
1185.80 89.09418
1185.90 89.44905
1186.00 89.5971
1186.10 89.73331
1186.20 89.98481
1186.30 90.52197
1186.40 91.06251
1186.50 91.53339
1186.60 91.2817
1186.70 91.03817
1186.80 90.70861
1186.90 90.04095
1187.00 89.27198
1187.10 88.56364
1187.20 88.2856
1187.30 88.38898
1187.40 88.52287
1187.50 88.99401
1187.60 89.67804
1187.70 90.36982
1187.80 90.7879
1187.90 90.30327
1188.00 89.84463
1188.10 89.2633
1188.20 87.09553
1188.30 84.76241
1188.40 82.337
1188.50 79.90596
1188.60 77.73813
1188.70 75.80012
1188.80 75.85743
1188.90 78.43735
1189.00 80.99347
1189.10 83.63206
1189.20 85.51486
1189.30 87.44515
1189.40 89.08215
1189.50 89.86244
1189.60 90.54255
1189.70 91.26839
1189.80 91.58337
1189.90 91.75339
1190.00 91.90369
1190.10 91.81356
1190.20 91.30131
1190.30 90.78089
1190.40 90.1496
1190.50 89.47428
1190.60 88.80156
1190.70 88.07882
1190.80 87.82525
1190.90 87.55065
1191.00 87.37334
1191.10 87.86921
1191.20 88.60944
1191.30 89.34153
1191.40 89.74818
1191.50 89.81048
1191.60 89.87162
1191.70 89.88679
1191.80 89.74709
1191.90 89.60565
1192.00 89.44748
1192.10 89.75694
1192.20 90.07302
1192.30 90.35376
1192.40 90.10804
1192.50 89.71828
1192.60 89.35419
1192.70 89.1755
1192.80 89.2297
1192.90 89.28603
1193.00 89.39354
1193.10 89.69028
1193.20 89.99012
1193.30 90.32189
1193.40 90.23341
1193.50 90.15882
1193.60 89.96386
1193.70 88.92125
1193.80 87.64774
1193.90 86.38703
1194.00 85.44183
1194.10 84.80544
1194.20 84.19987
1194.30 83.95646
1194.40 84.28653
1194.50 84.62032
1194.60 84.83736
1194.70 83.95927
1194.80 83.09813
1194.90 82.03957
1195.00 80.90521
1195.10 79.76127
1195.20 78.7999
1195.30 79.13547
1195.40 80.40263
1195.50 81.70123
1195.60 83.10935
1195.70 84.24577
1195.80 85.4031
1195.90 86.13686
1196.00 85.31259
1196.10 84.49244
1196.20 83.63169
1196.30 83.0485
1196.40 82.50232
1196.50 82.01982
1196.60 81.85887
1196.70 81.84731
1196.80 81.82664
1196.90 81.66813
1197.00 81.30165
1197.10 80.92406
1197.20 79.98138
1197.30 77.48872
1197.40 75.00177
1197.50 72.415
1197.60 71.29989
1197.70 70.10036
1197.80 69.2871
1197.90 70.09737
1198.00 71.69143
1198.10 73.27219
1198.20 74.52041
1198.30 75.3983
1198.40 76.28387
1198.50 77.34118
1198.60 79.00507
1198.70 80.68088
1198.80 82.29035
1198.90 81.7665
1199.00 81.27521
1199.10 80.62501
1199.20 79.37249
1199.30 78.00765
1199.40 76.73157
1199.50 76.16876
1199.60 76.33289
1199.70 76.51578
1199.80 76.89262
1199.90 77.56246
1200.00 78.23831
