# Version 2.1 - nm, norm@500 to 1, cut digits
# Wavelength(nm)  Flambda(ergs/cm^s/s/nm)
300.00 0.004842855
300.10 0.006492709
300.20 0.007471191
300.30 0.007841979
300.40 0.007905527
300.50 0.007903707
300.60 0.007914849
300.70 0.007935496
300.80 0.007963367
300.90 0.007998217
301.00 0.008040863
301.10 0.008091718
301.20 0.008149498
301.30 0.008211327
301.40 0.008274606
301.50 0.008338026
301.60 0.008401309
301.70 0.008464511
301.80 0.008527672
301.90 0.008590817
302.00 0.008653958
302.10 0.008717099
302.20 0.008780237
302.30 0.008843363
302.40 0.008906458
302.50 0.008969491
302.60 0.00903242
302.70 0.009095456
302.80 0.009159594
302.90 0.009226805
303.00 0.009299274
303.10 0.009377976
303.20 0.009461936
303.30 0.00954897
303.40 0.009637105
303.50 0.009725347
303.60 0.009813485
303.70 0.009901561
303.80 0.009989606
303.90 0.01007764
304.00 0.01016567
304.10 0.0102537
304.20 0.01034174
304.30 0.01042981
304.40 0.01051799
304.50 0.01060635
304.60 0.01069502
304.70 0.01078337
304.80 0.01086836
304.90 0.01094394
305.00 0.01100344
305.10 0.01104387
305.20 0.01106823
305.30 0.01108318
305.40 0.01109477
305.50 0.01110603
305.60 0.0111176
305.70 0.01112937
305.80 0.01114123
305.90 0.01115312
306.00 0.01116503
306.10 0.01117694
306.20 0.01118884
306.30 0.01120075
306.40 0.01121265
306.50 0.01122456
306.60 0.01123646
306.70 0.01124837
306.80 0.01126028
306.90 0.01127221
307.00 0.01128418
307.10 0.01129619
307.20 0.01130823
307.30 0.0113203
307.40 0.01133237
307.50 0.01134444
307.60 0.01135652
307.70 0.01136859
307.80 0.01138066
307.90 0.01139273
308.00 0.0114048
308.10 0.01141687
308.20 0.01142892
308.30 0.01144088
308.40 0.01145259
308.50 0.01146384
308.60 0.01147429
308.70 0.01148556
308.80 0.01150526
308.90 0.01154848
309.00 0.01163196
309.10 0.01176315
309.20 0.01193458
309.30 0.01212955
309.40 0.01233294
309.50 0.01253715
309.60 0.01274057
309.70 0.01294351
309.80 0.01314622
309.90 0.01334883
310.00 0.01355142
310.10 0.01375401
310.20 0.01395663
310.30 0.01415933
310.40 0.01436228
310.50 0.0145657
310.60 0.01476992
310.70 0.01497332
310.80 0.01516824
310.90 0.01533951
311.00 0.01547032
311.10 0.01555317
311.20 0.01559556
311.30 0.01561429
311.40 0.01562455
311.50 0.01563399
311.60 0.01564423
311.70 0.01565494
311.80 0.01566589
311.90 0.01567694
312.00 0.01568801
312.10 0.01569907
312.20 0.01571012
312.30 0.01572104
312.40 0.01573167
312.50 0.01574171
312.60 0.01575077
312.70 0.01576084
312.80 0.01578138
312.90 0.01583112
313.00 0.01593085
313.10 0.0160898
313.20 0.01629873
313.30 0.01653687
313.40 0.01678547
313.50 0.0170351
313.60 0.01728373
313.70 0.01753178
313.80 0.01777953
313.90 0.01802717
314.00 0.01827478
314.10 0.01852239
314.20 0.01876998
314.30 0.01901749
314.40 0.01926479
314.50 0.01951169
314.60 0.0197579
314.70 0.02000481
314.80 0.02025901
314.90 0.02053355
315.00 0.02084287
315.10 0.02119342
315.20 0.02157876
315.30 0.02198443
315.40 0.02239739
315.50 0.02281106
315.60 0.02322404
315.70 0.02363661
315.80 0.02404897
315.90 0.02446126
316.00 0.02487352
316.10 0.02528579
316.20 0.02569812
316.30 0.02611076
316.40 0.02652414
316.50 0.02693903
316.60 0.02735644
316.70 0.02777126
316.80 0.02815929
316.90 0.02847259
317.00 0.02865801
317.10 0.02869187
317.20 0.02859786
317.30 0.02842912
317.40 0.02823358
317.50 0.02803545
317.60 0.02783985
317.70 0.02764575
317.80 0.0274524
317.90 0.02725935
318.00 0.02706637
318.10 0.02687339
318.20 0.02668035
318.30 0.02648709
318.40 0.02629325
318.50 0.02609827
318.60 0.02590134
318.70 0.02570641
318.80 0.02553198
318.90 0.02541476
319.00 0.02539542
319.10 0.02549211
319.20 0.02568667
319.30 0.02593845
319.40 0.02621073
319.50 0.02648501
319.60 0.02675734
319.70 0.02702853
319.80 0.02729914
319.90 0.02756952
320.00 0.02783985
320.10 0.02811018
320.20 0.02838052
320.30 0.02865096
320.40 0.0289216
320.50 0.02919267
320.60 0.02946446
320.70 0.02973551
320.80 0.02999898
320.90 0.03024129
321.00 0.03044739
321.10 0.03061059
321.20 0.03073758
321.30 0.03084342
321.40 0.03094167
321.50 0.03103918
321.60 0.03113741
321.70 0.03123607
321.80 0.03133494
321.90 0.03143389
322.00 0.03153287
322.10 0.03163184
322.20 0.03173074
322.30 0.03182934
322.40 0.03192715
322.50 0.03202341
322.60 0.03211706
322.70 0.03221339
322.80 0.03233743
322.90 0.03253875
323.00 0.03287231
323.10 0.0333626
323.20 0.03398513
323.30 0.03468494
323.40 0.03541245
323.50 0.03614266
323.60 0.03687024
323.70 0.03759627
323.80 0.03832153
323.90 0.03904648
324.00 0.03977135
324.10 0.04049623
324.20 0.04122111
324.30 0.04194605
324.40 0.04267111
324.50 0.04339643
324.60 0.04412217
324.70 0.04484747
324.80 0.04556827
324.90 0.04627652
325.00 0.04696329
325.10 0.0476246
325.20 0.04826443
325.30 0.04889171
325.40 0.04951448
325.50 0.05013682
325.60 0.05075958
325.70 0.05138259
325.80 0.05200574
325.90 0.05262893
326.00 0.05325213
326.10 0.05387533
326.20 0.05449851
326.30 0.05512158
326.40 0.05574438
326.50 0.05636663
326.60 0.05698797
326.70 0.05761025
326.80 0.05824223
326.90 0.05890126
327.00 0.0596066
327.10 0.06036681
327.20 0.06117331
327.30 0.06200688
327.40 0.06285014
327.50 0.06369434
327.60 0.06453763
327.70 0.06538037
327.80 0.06622285
327.90 0.06706521
328.00 0.06790755
328.10 0.06874989
328.20 0.06959237
328.30 0.07043549
328.40 0.07128021
328.50 0.07212811
328.60 0.07298139
328.70 0.07382916
328.80 0.07462001
328.90 0.07525211
329.00 0.07561255
329.10 0.07565104
329.20 0.07541787
329.30 0.07502594
329.40 0.07457711
329.50 0.07412276
329.60 0.07367379
329.70 0.07322799
329.80 0.0727838
329.90 0.07234024
330.00 0.07189683
330.10 0.07145343
330.20 0.07100991
330.30 0.07056592
330.40 0.07012074
330.50 0.0696732
330.60 0.06922168
330.70 0.06877424
330.80 0.06836903
330.90 0.06808158
331.00 0.06799564
331.10 0.06814853
331.20 0.06850294
331.30 0.06897512
331.40 0.06948951
331.50 0.07000799
331.60 0.07052249
331.70 0.07103463
331.80 0.07154557
331.90 0.07205605
332.00 0.07256642
332.10 0.07307679
332.20 0.07358722
332.30 0.07409796
332.40 0.07460945
332.50 0.07512243
332.60 0.07563793
332.70 0.07615085
332.80 0.07663704
332.90 0.07704866
333.00 0.07733269
333.10 0.07746552
333.20 0.07747075
333.30 0.07740142
333.40 0.07730536
333.50 0.07720671
333.60 0.07711059
333.70 0.07701596
333.80 0.07692208
333.90 0.0768285
334.00 0.07673499
334.10 0.07664056
334.20 0.0765437
334.30 0.07644357
334.40 0.0763401
334.50 0.07623397
334.60 0.07621128
334.70 0.07646424
334.80 0.07706133
334.90 0.07764652
335.00 0.07755011
335.10 0.07658217
335.20 0.07577337
335.30 0.07706626
335.40 0.08182873
335.50 0.08933257
335.60 0.09666377
335.70 0.1004295
335.80 0.09895796
335.90 0.09312961
336.00 0.08543404
336.10 0.07842273
336.20 0.07386135
336.30 0.07247155
336.40 0.07361623
336.50 0.07537626
336.60 0.07569184
336.70 0.07406716
336.80 0.0722065
336.90 0.0726847
337.00 0.07675269
337.10 0.08313415
337.20 0.08876522
337.30 0.09090763
337.40 0.08907595
337.50 0.08534409
337.60 0.08276001
337.70 0.08308393
337.80 0.08575558
337.90 0.08892053
338.00 0.09116723
338.10 0.09211462
338.20 0.09155901
338.30 0.08881612
338.40 0.08363628
338.50 0.07756278
338.60 0.07369546
338.70 0.07445084
338.80 0.07929474
338.90 0.08491013
339.00 0.08786102
339.10 0.08741099
339.20 0.0859825
339.30 0.08678758
339.40 0.09088363
339.50 0.09649773
339.60 0.1009606
339.70 0.1029626
339.80 0.1028901
339.90 0.1014921
340.00 0.0990644
340.10 0.09590489
340.20 0.09270469
340.30 0.08998056
340.40 0.08735187
340.50 0.08391917
340.60 0.07944925
340.70 0.07486559
340.80 0.07150141
340.90 0.07011226
341.00 0.07064306
341.10 0.07263118
341.20 0.0755505
341.30 0.0787853
341.40 0.08160756
341.50 0.08346377
341.60 0.08431349
341.70 0.08465238
341.80 0.08514393
341.90 0.08613623
342.00 0.08735671
342.10 0.0879647
342.20 0.08706048
342.30 0.08443606
342.40 0.0809804
342.50 0.07822438
342.60 0.07730526
342.70 0.07825254
342.80 0.08013878
342.90 0.08181071
343.00 0.08259981
343.10 0.08262403
343.20 0.08253385
343.30 0.08288744
343.40 0.08366961
343.50 0.08440594
343.60 0.08466697
343.70 0.08433313
343.80 0.08349299
343.90 0.0823578
344.00 0.08131638
344.10 0.0808193
344.20 0.08098154
344.30 0.08138166
344.40 0.08142792
344.50 0.08091997
344.60 0.08020708
344.70 0.07987735
344.80 0.08038106
344.90 0.08187936
345.00 0.08429373
345.10 0.08736998
345.20 0.09069
345.30 0.09366949
345.40 0.09565112
345.50 0.0962253
345.60 0.09557915
345.70 0.09446635
345.80 0.09369216
345.90 0.09354924
346.00 0.09368521
346.10 0.09340584
346.20 0.09215536
346.30 0.08994928
346.40 0.08751409
346.50 0.08586269
346.60 0.08548672
346.70 0.08592723
346.80 0.08620027
346.90 0.0855965
347.00 0.08404471
347.10 0.08197598
347.20 0.08010794
347.30 0.07924203
347.40 0.07988746
347.50 0.08185725
347.60 0.08435557
347.70 0.0865921
347.80 0.08831553
347.90 0.08980275
348.00 0.09144139
348.10 0.09330903
348.20 0.09503756
348.30 0.09606093
348.40 0.09607759
348.50 0.09531592
348.60 0.09429728
348.70 0.09335727
348.80 0.09248535
348.90 0.09156236
349.00 0.09058558
349.10 0.08964191
349.20 0.08881036
349.30 0.08820813
349.40 0.08804906
349.50 0.08846903
349.60 0.08925574
349.70 0.08988027
349.80 0.08996311
349.90 0.08980427
350.00 0.09034922
350.10 0.09244677
350.20 0.09604207
350.30 0.1000908
350.40 0.1032808
350.50 0.1048701
350.60 0.1049349
350.70 0.1040113
350.80 0.1026464
350.90 0.1011409
351.00 0.09943106
351.10 0.09711558
351.20 0.09375887
351.30 0.08943025
351.40 0.08500028
351.50 0.08171593
351.60 0.08030841
351.70 0.08047196
351.80 0.08121516
351.90 0.0816869
352.00 0.08165113
352.10 0.08128318
352.20 0.08078251
352.30 0.0803182
352.40 0.0802599
352.50 0.08129298
352.60 0.08404321
352.70 0.08843248
352.80 0.09343054
352.90 0.0976344
353.00 0.1003094
353.10 0.1018648
353.20 0.1032397
353.30 0.1049505
353.40 0.106866
353.50 0.1087271
353.60 0.110584
353.70 0.1126351
353.80 0.1148833
353.90 0.117122
354.00 0.119079
354.10 0.1203949
354.20 0.1206302
354.30 0.1196046
354.40 0.1177799
354.50 0.1161017
354.60 0.1152886
354.70 0.1152964
354.80 0.1155207
354.90 0.1154268
355.00 0.1149157
355.10 0.1142034
355.20 0.1135202
355.30 0.1129743
355.40 0.1126199
355.50 0.1124831
355.60 0.1124432
355.70 0.1121544
355.80 0.1112093
355.90 0.1094793
356.00 0.1072696
356.10 0.1050714
356.20 0.1031382
356.30 0.1012802
356.40 0.0990639
356.50 0.09627448
356.60 0.09325212
356.70 0.09076899
356.80 0.08948734
356.90 0.08946918
357.00 0.09018095
357.10 0.09090992
357.20 0.09114035
357.30 0.09065779
357.40 0.08948061
357.50 0.08778733
357.60 0.08586489
357.70 0.08400736
357.80 0.08239417
357.90 0.08104944
358.00 0.07995113
358.10 0.07921922
358.20 0.07916631
358.30 0.08009226
358.40 0.08198678
358.50 0.08442044
358.60 0.08671255
358.70 0.08822516
358.80 0.08863067
358.90 0.08807201
359.00 0.08717453
359.10 0.08681234
359.20 0.08762698
359.30 0.08957892
359.40 0.09189669
359.50 0.09356113
359.60 0.09399875
359.70 0.09344065
359.80 0.09266731
359.90 0.09235243
360.00 0.09252915
360.10 0.09259093
360.20 0.09180514
360.30 0.08989497
360.40 0.08726285
360.50 0.08478392
360.60 0.08339579
360.70 0.0837234
360.80 0.08579575
360.90 0.08898003
361.00 0.09229468
361.10 0.0949725
361.20 0.09682868
361.30 0.09810374
361.40 0.09900141
361.50 0.09947919
361.60 0.09952261
361.70 0.09944322
361.80 0.09970784
361.90 0.1004607
362.00 0.1013471
362.10 0.1018828
362.20 0.1018984
362.30 0.1015874
362.40 0.1012725
362.50 0.1012236
362.60 0.1015309
362.70 0.1019502
362.80 0.1019454
362.90 0.1011134
363.00 0.09965002
363.10 0.09829149
363.20 0.09771813
363.30 0.09804497
363.40 0.09887293
363.50 0.09970811
363.60 0.1002817
363.70 0.1005752
363.80 0.100653
363.90 0.1004978
364.00 0.09996865
364.10 0.09889934
364.20 0.09726408
364.30 0.09527063
364.40 0.09331602
364.50 0.09185522
364.60 0.0912222
364.70 0.09143992
364.80 0.09217986
364.90 0.09300899
365.00 0.09378706
365.10 0.09481383
365.20 0.09646971
365.30 0.09866463
365.40 0.1007023
365.50 0.1017673
365.60 0.1016024
365.70 0.1007046
365.80 0.09984526
365.90 0.09944114
366.00 0.09939749
366.10 0.09946467
366.20 0.09962432
366.30 0.1000565
366.40 0.1008133
366.50 0.101638
366.60 0.1021014
366.70 0.1018811
366.80 0.1009297
366.90 0.09944973
367.00 0.09778619
367.10 0.09633094
367.20 0.09544001
367.30 0.09534155
367.40 0.09603535
367.50 0.0972725
367.60 0.09867731
367.70 0.09994395
367.80 0.1009655
367.90 0.1018115
368.00 0.1025972
368.10 0.103353
368.20 0.1039773
368.30 0.1042879
368.40 0.1041396
368.50 0.1035585
368.60 0.1027987
368.70 0.1022353
368.80 0.1021331
368.90 0.102483
369.00 0.1030778
369.10 0.1037566
369.20 0.1045162
369.30 0.1053546
369.40 0.1060713
369.50 0.1063174
369.60 0.1058974
369.70 0.105006
369.80 0.1041601
369.90 0.1039037
370.00 0.1045245
370.10 0.1059411
370.20 0.107796
370.30 0.1096495
370.40 0.1111323
370.50 0.1120057
370.60 0.1121894
370.70 0.1118274
370.80 0.111299
370.90 0.1110506
371.00 0.1113073
371.10 0.1118874
371.20 0.1122709
371.30 0.1118675
371.40 0.1103446
371.50 0.1078453
371.60 0.1049672
371.70 0.1024815
371.80 0.1009787
371.90 0.1006778
372.00 0.1014461
372.10 0.102837
372.20 0.1040538
372.30 0.1040844
372.40 0.102169
372.50 0.09839284
372.60 0.09386796
372.70 0.09023144
372.80 0.08880605
372.90 0.09001889
373.00 0.09337277
373.10 0.09781135
373.20 0.1021615
373.30 0.1054521
373.40 0.1071078
373.50 0.1069853
373.60 0.1052585
373.70 0.1022554
373.80 0.09838909
373.90 0.09420191
374.00 0.09037912
374.10 0.08762952
374.20 0.08650146
374.30 0.08728626
374.40 0.09004481
374.50 0.09462951
374.60 0.1006206
374.70 0.1072348
374.80 0.1133705
374.90 0.1178905
375.00 0.1200197
375.10 0.1195982
375.20 0.1170536
375.30 0.1131774
375.40 0.108882
375.50 0.105009
375.60 0.1021263
375.70 0.1003718
375.80 0.09946349
375.90 0.09891771
376.00 0.09837339
376.10 0.09784652
376.20 0.09778551
376.30 0.09888284
376.40 0.101737
376.50 0.1065979
376.60 0.1133644
376.70 0.1216642
376.80 0.1307948
376.90 0.1395581
377.00 0.1463543
377.10 0.1497384
377.20 0.1490919
377.30 0.1448675
377.40 0.1382543
377.50 0.1306093
377.60 0.1230656
377.70 0.116426
377.80 0.1111402
377.90 0.1072827
378.00 0.1046144
378.10 0.1027756
378.20 0.1014904
378.30 0.1006148
378.40 0.1000494
378.50 0.09970882
378.60 0.09960186
378.70 0.0998771
378.80 0.100756
378.90 0.1024881
379.00 0.1054358
379.10 0.1101267
379.20 0.1170392
379.30 0.1261996
379.40 0.1369301
379.50 0.1479487
379.60 0.1576702
379.70 0.1645244
379.80 0.1673141
379.90 0.1655927
380.00 0.1598988
380.10 0.1515985
380.20 0.1423589
380.30 0.133569
380.40 0.1260453
380.50 0.1200609
380.60 0.1155197
380.70 0.1121031
380.80 0.1093763
380.90 0.106972
381.00 0.1047701
381.10 0.1028895
381.20 0.1014647
381.30 0.1004365
381.40 0.09961568
381.50 0.09895771
381.60 0.09847689
381.70 0.09814167
381.80 0.09765442
381.90 0.09628259
382.00 0.09317041
382.10 0.07741351
382.20 0.01419485
382.30 0
382.40 0
382.50 0
382.60 0
382.70 0
382.80 0
382.90 0
383.00 0.1292281
383.10 0.4727299
383.20 0.6651082
383.30 0.6854781
383.40 0.5547395
383.50 0.354401
383.60 0.209082
383.70 0.2063358
383.80 0.3119209
383.90 0.4049835
384.00 0.4152761
384.10 0.3636299
384.20 0.2809556
384.30 0.1493547
384.40 0
384.50 0
384.60 0.138745
384.70 0.584898
384.80 1.068069
384.90 1.333442
385.00 1.23437
385.10 0.8370197
385.20 0.3991339
385.30 0.2104264
385.40 0.3693502
385.50 0.7078632
385.60 0.9649868
385.70 0.9983538
385.80 0.8229381
385.90 0.5302908
386.00 0.2327785
386.10 0.03482475
386.20 0
386.30 0.06427425
386.40 0.1697281
386.50 0.261846
386.60 0.3438781
386.70 0.4258984
386.80 0.494549
386.90 0.5510817
387.00 0.6229186
387.10 0.7162002
387.20 0.7999846
387.30 0.8486234
387.40 0.881479
387.50 0.9144623
387.60 0.9050833
387.70 0.8061931
387.80 0.6810369
387.90 0.6588901
388.00 0.7612269
388.10 0.8455189
388.20 0.7593262
388.30 0.5245164
388.40 0.2857004
388.50 0.1566894
388.60 0.1595252
388.70 0.2717581
388.80 0.4594629
388.90 0.6612967
389.00 0.8009281
389.10 0.8259541
389.20 0.726276
389.30 0.5186613
389.40 0.250866
389.50 0.02261446
389.60 0.01642941
389.70 0.01011963
389.80 0.1522112
389.90 0.1681202
390.00 0.00239064
390.10 0
390.20 0
390.30 0.04065594
390.40 0.1950906
390.50 0.1667144
390.60 0.05485883
390.70 0.06454267
390.80 0.2635947
390.90 0.508522
391.00 0.5947897
391.10 0.416242
391.20 0.02479632
391.30 0
391.40 0
391.50 0
391.60 0
391.70 0
391.80 0.00533044
391.90 0.01908289
392.00 0.02617091
392.10 0.02981347
392.20 0.03024438
392.30 0.1293596
392.40 0.118561
392.50 0.01514169
392.60 0.01190989
392.70 0.01061752
392.80 0.01038783
392.90 0.01307062
393.00 0.2689417
393.10 0.8244196
393.20 1.419432
393.30 1.927391
393.40 2.092044
393.50 1.744986
393.60 1.0492
393.70 0.4040042
393.80 0.1000858
393.90 0.1075394
394.00 0.1911547
394.10 0.1608133
394.20 0.002670143
394.30 0
394.40 0
394.50 0.005069019
394.60 0.0124216
394.70 0.07377806
394.80 0.01455291
394.90 0.01350157
395.00 0.01313681
395.10 0.01396385
395.20 0.01537416
395.30 0.01719928
395.40 0.02043223
395.50 0.2499718
395.60 0.6504525
395.70 0.7775493
395.80 0.5747319
395.90 0.2149844
396.00 0.007290079
396.10 0
396.20 0
396.30 0
396.40 0
396.50 0.1038961
396.60 0.451372
396.70 0.9321062
396.80 1.429679
396.90 1.776923
397.00 1.875192
397.10 1.732741
397.20 1.414238
397.30 0.982615
397.40 0.535167
397.50 0.2032099
397.60 0.08636161
397.70 0.1725012
397.80 0.3413607
397.90 0.4731331
398.00 0.5479403
398.10 0.627109
398.20 0.7414531
398.30 0.8275615
398.40 0.7868916
398.50 0.5883171
398.60 0.3080108
398.70 0.05112315
398.80 0.03020178
398.90 0.02769002
399.00 0.0248052
399.10 0.02263004
399.20 0.0212262
399.30 0.01975601
399.40 0.01746814
399.50 0.01422995
399.60 0.05781924
399.70 0.1034469
399.80 0.08505365
399.90 0.05373047
400.00 0.06159049
400.10 0.1175433
400.20 0.1732326
400.30 0.1634774
400.40 0.07434229
400.50 0
400.60 0
400.70 0
400.80 0
400.90 0.1005412
401.00 0.1873916
401.10 0.1915346
401.20 0.08089773
401.30 0.02172658
401.40 0.02210538
401.50 0.02099303
401.60 0.01858061
401.70 0.1578626
401.80 0.2876784
401.90 0.3368845
402.00 0.3360375
402.10 0.3490011
402.20 0.4220063
402.30 0.5293881
402.40 0.5841996
402.50 0.5315818
402.60 0.4098315
402.70 0.2876735
402.80 0.1844012
402.90 0.08956848
403.00 0.02197717
403.10 0.02966937
403.20 0.1145291
403.30 0.2054934
403.40 0.222882
403.50 0.1470313
403.60 0.02830041
403.70 0
403.80 0
403.90 0
404.00 0
404.10 0
404.20 0.04155353
404.30 0.1755594
404.40 0.3515413
404.50 0.5097665
404.60 0.5882896
404.70 0.5365875
404.80 0.3585175
404.90 0.1466116
405.00 0.01801554
405.10 0.008996223
405.20 0.05795644
405.30 0.09987184
405.40 0.142193
405.50 0.216742
405.60 0.2909671
405.70 0.2892746
405.80 0.2086112
405.90 0.1365369
406.00 0.1584286
406.10 0.2621101
406.20 0.3653793
406.30 0.4183939
406.40 0.4412562
406.50 0.4625455
406.60 0.4876368
406.70 0.5038377
406.80 0.4904274
406.90 0.4229625
407.00 0.2808113
407.10 0.08769142
407.20 0
407.30 0
407.40 0
407.50 0.09478675
407.60 0.1765241
407.70 0.2159478
407.80 0.2411681
407.90 0.2515665
408.00 0.2282392
408.10 0.1751584
408.20 0.1204046
408.30 0.09047434
408.40 0.08945232
408.50 0.1159965
408.60 0.1660851
408.70 0.2133033
408.80 0.2095073
408.90 0.1286841
409.00 0.02334705
409.10 0.001591401
409.20 0.1013169
409.30 0.2478577
409.40 0.3027361
409.50 0.235942
409.60 0.1635875
409.70 0.2259715
409.80 0.4520017
409.90 0.7607708
410.00 1.043405
410.10 1.213372
410.20 1.213322
410.30 1.027616
410.40 0.7034761
410.50 0.3380968
410.60 0.03276666
410.70 0.01968617
410.80 0.01853834
410.90 0.01677291
411.00 0.0144475
411.10 0.012595
411.20 0.01126981
411.30 0.009852118
411.40 0.008764716
411.50 0.009544624
411.60 0.2476713
411.70 0.6617766
411.80 0.9433405
411.90 1.025529
412.00 0.9512311
412.10 0.8127174
412.20 0.6796248
412.30 0.5808071
412.40 0.5035493
412.50 0.4246388
412.60 0.3363825
412.70 0.2463517
412.80 0.1650284
412.90 0.09742887
413.00 0.047398
413.10 0.02088972
413.20 0.01436976
413.30 0.02083759
413.40 0.0398368
413.50 0.07225462
413.60 0.1141644
413.70 0.1594991
413.80 0.1989832
413.90 0.2072083
414.00 0.1470837
414.10 0
414.20 0
414.30 0
414.40 0.0005086559
414.50 0.006150405
414.60 0.01310426
414.70 0.01793485
414.80 0.1486999
414.90 0.2382105
415.00 0.1346957
415.10 0.01758984
415.20 0.01397551
415.30 0.01082547
415.40 0.008987737
415.50 0.009482594
415.60 0.01287107
415.70 0.01863878
415.80 0.02244917
415.90 0.02347878
416.00 0.08454842
416.10 0.1829369
416.20 0.271812
416.30 0.2942404
416.40 0.2056082
416.50 0.02652386
416.60 0.007231696
416.70 0.009894887
416.80 0.01384085
416.90 0.01440305
417.00 0.06642653
417.10 0.235197
417.20 0.2847762
417.30 0.2692844
417.40 0.2749709
417.50 0.3026785
417.60 0.278411
417.70 0.1628836
417.80 0.009429475
417.90 0.01326351
418.00 0.01587421
418.10 0.01802066
418.20 0.01952829
418.30 0.01637448
418.40 0.01129711
418.50 0.04749905
418.60 0.3164596
418.70 0.6014488
418.80 0.8505102
418.90 1.033235
419.00 1.153892
419.10 1.215486
419.20 1.195909
419.30 1.075805
419.40 0.8765889
419.50 0.6458216
419.60 0.4309455
419.70 0.2739823
419.80 0.1990306
419.90 0.1994524
420.00 0.2195249
420.10 0.1875255
420.20 0.07806612
420.30 0.009955781
420.40 0.01359235
420.50 0.01745267
420.60 0.01962278
420.70 0.02226164
420.80 0.1192049
420.90 0.1761631
421.00 0.1642387
421.10 0.136352
421.20 0.1757096
421.30 0.3133527
421.40 0.4949922
421.50 0.6449817
421.60 0.7168317
421.70 0.7178701
421.80 0.6774992
421.90 0.6138998
422.00 0.5355404
422.10 0.4626337
422.20 0.4221223
422.30 0.4055837
422.40 0.3502092
422.50 0.2001037
422.60 0.002265147
422.70 0.001128566
422.80 0.001971013
422.90 0.003319063
423.00 0.003416378
423.10 0.001495182
423.20 0
423.30 0
423.40 0
423.50 0.0927354
423.60 0.3368878
423.70 0.5050893
423.80 0.568702
423.90 0.539734
424.00 0.4450251
424.10 0.3152983
424.20 0.1778147
424.30 0.04696562
424.40 0
424.50 0
424.60 0.0008008792
424.70 0.0002462543
424.80 0.1134712
424.90 0.2720164
425.00 0.4098064
425.10 0.4889301
425.20 0.4848491
425.30 0.4111385
425.40 0.3114707
425.50 0.240427
425.60 0.2357312
425.70 0.2947815
425.80 0.3735368
425.90 0.410072
426.00 0.3722763
426.10 0.2877492
426.20 0.2102932
426.30 0.172202
426.40 0.1883705
426.50 0.2587874
426.60 0.3399127
426.70 0.3356726
426.80 0.1754372
426.90 0
427.00 0.0009267633
427.10 0.003413625
427.20 0.005608638
427.30 0.007793596
427.40 0.01013371
427.50 0.01063123
427.60 0.008954896
427.70 0.006630121
427.80 0.04771982
427.90 0.05506216
428.00 0.02209068
428.10 0.004978353
428.20 0.009722433
428.30 0.01513612
428.40 0.01368967
428.50 0.007917994
428.60 0
428.70 0
428.80 0
428.90 0
429.00 0
429.10 0.08094127
429.20 0.1946693
429.30 0.2654435
429.40 0.3152787
429.50 0.3621621
429.60 0.4074468
429.70 0.4253079
429.80 0.3870435
429.90 0.316083
430.00 0.2902698
430.10 0.3539554
430.20 0.4536284
430.30 0.4973454
430.40 0.4652361
430.50 0.426668
430.60 0.4356105
430.70 0.4595684
430.80 0.437688
430.90 0.3604475
431.00 0.2644606
431.10 0.1827519
431.20 0.1232208
431.30 0.08019377
431.40 0.03982857
431.50 0
431.60 0
431.70 0
431.80 0
431.90 0
432.00 0
432.10 0.09603797
432.20 0.22534
432.30 0.3570399
432.40 0.4554643
432.50 0.4751854
432.60 0.3927908
432.70 0.2475621
432.80 0.1309132
432.90 0.09974436
433.00 0.1097439
433.10 0.06554607
433.20 0.01184068
433.30 0.01129
433.40 0.009467639
433.50 0.007079587
433.60 0.005427698
433.70 0.03162794
433.80 0.3108101
433.90 0.6942648
434.00 1.116142
434.10 1.42853
434.20 1.489091
434.30 1.282944
434.40 0.946681
434.50 0.6596116
434.60 0.5131038
434.70 0.4769855
434.80 0.4638053
434.90 0.4090097
435.00 0.3054452
435.10 0.1900155
435.20 0.1082152
435.30 0.08130809
435.40 0.1018496
435.50 0.1620459
435.60 0.2798565
435.70 0.4552584
435.80 0.6145139
435.90 0.6257592
436.00 0.4264242
436.10 0.1224352
436.20 0.01469585
436.30 0.007455509
436.40 0.1079613
436.50 0.2515652
436.60 0.2894529
436.70 0.2811336
436.80 0.3294084
436.90 0.4580668
437.00 0.5897488
437.10 0.6312618
437.20 0.5530167
437.30 0.3970669
437.40 0.2331579
437.50 0.1112017
437.60 0.04570112
437.70 0.03184829
437.80 0.06579559
437.90 0.1358132
438.00 0.2100832
438.10 0.2335373
438.20 0.1765939
438.30 0.07091076
438.40 0.007034692
438.50 0.004396815
438.60 0.003200776
438.70 0.01635286
438.80 0.09912969
438.90 0.228366
439.00 0.3445862
439.10 0.3648064
439.20 0.2760747
439.30 0.149345
439.40 0.05645816
439.50 0.02097934
439.60 0.01979575
439.70 0.018145
439.80 0.01712727
439.90 0.1180766
440.00 0.2411945
440.10 0.2710026
440.20 0.1795029
440.30 0.02684152
440.40 0.01422856
440.50 0.01423839
440.60 0.0124337
440.70 0.0120485
440.80 0.01388978
440.90 0.1833235
441.00 0.3874107
441.10 0.5471399
441.20 0.6147733
441.30 0.5925397
441.40 0.5348856
441.50 0.501765
441.60 0.5136357
441.70 0.5438382
441.80 0.5437415
441.90 0.4834521
442.00 0.380357
442.10 0.2901051
442.20 0.263993
442.30 0.308119
442.40 0.3739992
442.50 0.3965112
442.60 0.3496926
442.70 0.2686399
442.80 0.2211199
442.90 0.2484843
443.00 0.325688
443.10 0.3812647
443.20 0.3568069
443.30 0.2502468
443.40 0.1093054
443.50 0.02662322
443.60 0.02213133
443.70 0.02480796
443.80 0.1733938
443.90 0.3306026
444.00 0.4260154
444.10 0.4491765
444.20 0.4475555
444.30 0.4618346
444.40 0.4789971
444.50 0.4513791
444.60 0.3619193
444.70 0.2545721
444.80 0.1939528
444.90 0.2165473
445.00 0.3134833
445.10 0.4596655
445.20 0.6344909
445.30 0.7947735
445.40 0.8618397
445.50 0.779359
445.60 0.582403
445.70 0.3957125
445.80 0.3030353
445.90 0.2863419
446.00 0.2843369
446.10 0.2872816
446.20 0.3416714
446.30 0.4758477
446.40 0.650629
446.50 0.781782
446.60 0.795964
446.70 0.6843
446.80 0.5215752
446.90 0.4167542
447.00 0.4202169
447.10 0.4816425
447.20 0.514362
447.30 0.4891931
447.40 0.4403822
447.50 0.4008869
447.60 0.3628484
447.70 0.2907358
447.80 0.16575
447.90 0.01707136
448.00 0.01527524
448.10 0.01545942
448.20 0.0521944
448.30 0.2240118
448.40 0.3558722
448.50 0.4197443
448.60 0.451928
448.70 0.4969082
448.80 0.5553618
448.90 0.5984591
449.00 0.619308
449.10 0.6453616
449.20 0.7001916
449.30 0.765048
449.40 0.7898403
449.50 0.7460171
449.60 0.6580091
449.70 0.5767016
449.80 0.5358221
449.90 0.5317631
450.00 0.5389135
450.10 0.5377932
450.20 0.522462
450.30 0.5014114
450.40 0.4933158
450.50 0.5062564
450.60 0.5221324
450.70 0.5154474
450.80 0.482943
450.90 0.4503425
451.00 0.4467841
451.10 0.4754689
451.20 0.5192171
451.30 0.5567644
451.40 0.5714765
451.50 0.5509105
451.60 0.4877376
451.70 0.3924745
451.80 0.3031376
451.90 0.2680681
452.00 0.3061184
452.10 0.391285
452.20 0.4804595
452.30 0.555672
452.40 0.6321902
452.50 0.7276954
452.60 0.8305989
452.70 0.8986399
452.80 0.8851845
452.90 0.7835958
453.00 0.6515924
453.10 0.5722806
453.20 0.5867911
453.30 0.6627224
453.40 0.7256166
453.50 0.7169973
453.60 0.6282891
453.70 0.4979091
453.80 0.3901527
453.90 0.3512996
454.00 0.3751152
454.10 0.4182223
454.20 0.4402797
454.30 0.4368283
454.40 0.4358909
454.50 0.4547529
454.60 0.4661549
454.70 0.4214773
454.80 0.3039283
454.90 0.1557182
455.00 0.05114577
455.10 0.05488478
455.20 0.20435
455.30 0.476235
455.40 0.7599272
455.50 0.9174678
455.60 0.8974794
455.70 0.7709662
455.80 0.6426286
455.90 0.5555873
456.00 0.4992918
456.10 0.4678301
456.20 0.4721933
456.30 0.513812
456.40 0.5746473
456.50 0.6365563
456.60 0.6920307
456.70 0.7392216
456.80 0.7748438
456.90 0.79356
457.00 0.797646
457.10 0.7981628
457.20 0.807908
457.30 0.8394942
457.40 0.8986967
457.50 0.9612262
457.60 0.9681353
457.70 0.8695679
457.80 0.6890865
457.90 0.5234993
458.00 0.4556174
458.10 0.4954145
458.20 0.5987314
458.30 0.7055501
458.40 0.7603935
458.50 0.7253242
458.60 0.6061506
458.70 0.4593525
458.80 0.3534442
458.90 0.3231838
459.00 0.3504785
459.10 0.3747515
459.20 0.345576
459.30 0.2810667
459.40 0.2539007
459.50 0.3100522
459.60 0.4127694
459.70 0.4891406
459.80 0.5141584
459.90 0.5182282
460.00 0.5280014
460.10 0.5327895
460.20 0.510194
460.30 0.4560892
460.40 0.3809163
460.50 0.2979073
460.60 0.2254405
460.70 0.1821651
460.80 0.1789444
460.90 0.2290274
461.00 0.3534627
461.10 0.5477265
461.20 0.7409065
461.30 0.8343887
461.40 0.8019479
461.50 0.7169746
461.60 0.6636127
461.70 0.6488955
461.80 0.6293298
461.90 0.5920068
462.00 0.5717052
462.10 0.5987295
462.20 0.6673153
462.30 0.7590612
462.40 0.8587408
462.50 0.9361489
462.60 0.9400041
462.70 0.8374893
462.80 0.6465018
462.90 0.4283083
463.00 0.2609463
463.10 0.2068484
463.20 0.2769453
463.30 0.4123774
463.40 0.5267834
463.50 0.5812222
463.60 0.6041512
463.70 0.6291962
463.80 0.6438678
463.90 0.6153914
464.00 0.5419114
464.10 0.4635882
464.20 0.4256477
464.30 0.4390062
464.40 0.4799894
464.50 0.5205926
464.60 0.5562507
464.70 0.6074096
464.80 0.6886599
464.90 0.7754159
465.00 0.8158964
465.10 0.7809928
465.20 0.692879
465.30 0.6012384
465.40 0.5433079
465.50 0.5319757
465.60 0.5711826
465.70 0.6630762
465.80 0.7920568
465.90 0.9210618
466.00 1.005188
466.10 1.011768
466.20 0.9464041
466.30 0.86098
466.40 0.8204413
466.50 0.8536009
466.60 0.9330709
466.70 1.001306
466.80 1.00572
466.90 0.9126011
467.00 0.7295681
467.10 0.5289534
467.20 0.4162944
467.30 0.4435404
467.40 0.5616491
467.50 0.6714975
467.60 0.7095945
467.70 0.6737135
467.80 0.5955214
467.90 0.5153859
468.00 0.4703687
468.10 0.4778624
468.20 0.5231123
468.30 0.580088
468.40 0.6372979
468.50 0.697324
468.60 0.7572622
468.70 0.7992905
468.80 0.8083542
468.90 0.7864588
469.00 0.7413076
469.10 0.6719509
469.20 0.5849217
469.30 0.5220388
469.40 0.5278873
469.50 0.5832552
469.60 0.610799
469.70 0.5695166
469.80 0.5075617
469.90 0.4870054
470.00 0.4926929
470.10 0.4636509
470.20 0.3972077
470.30 0.3582449
470.40 0.392139
470.50 0.4625446
470.60 0.4917773
470.70 0.4497563
470.80 0.3790317
470.90 0.3507271
471.00 0.4062183
471.10 0.5320132
471.20 0.672544
471.30 0.7652716
471.40 0.7834565
471.50 0.759673
471.60 0.7591549
471.70 0.8093825
471.80 0.8654091
471.90 0.8547139
472.00 0.7552661
472.10 0.6226598
472.20 0.5465678
472.30 0.5848447
472.40 0.7192043
472.50 0.869653
472.60 0.9608856
472.70 0.9854521
472.80 0.995867
472.90 1.029206
473.00 1.05703
473.10 1.025396
473.20 0.9233283
473.30 0.7898318
473.40 0.6668262
473.50 0.5670414
473.60 0.4924465
473.70 0.4633891
473.80 0.5094227
473.90 0.6312855
474.00 0.7781888
474.10 0.8727553
474.20 0.8676747
474.30 0.7836799
474.40 0.6905195
474.50 0.6466988
474.60 0.6566389
474.70 0.681499
474.80 0.6820884
474.90 0.6511462
475.00 0.6140816
475.10 0.6054897
475.20 0.6511966
475.30 0.753839
475.40 0.8796379
475.50 0.9644585
475.60 0.9477468
475.70 0.8179475
475.80 0.6297043
475.90 0.4655621
476.00 0.3664493
476.10 0.3013987
476.20 0.2120304
476.30 0.08627199
476.40 0.04602861
476.50 0.04348999
476.60 0.04163606
476.70 0.1272931
476.80 0.2401485
476.90 0.3078552
477.00 0.324415
477.10 0.328947
477.20 0.3714617
477.30 0.4616738
477.40 0.5601853
477.50 0.6221119
477.60 0.632146
477.70 0.59506
477.80 0.5126003
477.90 0.3948597
478.00 0.2846307
478.10 0.2375542
478.20 0.2682914
478.30 0.3269513
478.40 0.3476566
478.50 0.3243644
478.60 0.3159764
478.70 0.3644542
478.80 0.4341315
478.90 0.446376
479.00 0.3727134
479.10 0.2769905
479.20 0.2531199
479.30 0.3361718
479.40 0.4808468
479.50 0.6102731
479.60 0.676676
479.70 0.6852313
479.80 0.6749218
479.90 0.6791516
480.00 0.6948263
480.10 0.6898128
480.20 0.6412473
480.30 0.5558326
480.40 0.453778
480.50 0.3534241
480.60 0.277015
480.70 0.2590675
480.80 0.3265277
480.90 0.4686977
481.00 0.63622
481.10 0.7700733
481.20 0.8409011
481.30 0.8632074
481.40 0.865412
481.50 0.8456545
481.60 0.7739791
481.70 0.6410825
481.80 0.4914746
481.90 0.3952984
482.00 0.3833026
482.10 0.4263038
482.20 0.4747403
482.30 0.501714
482.40 0.5098353
482.50 0.5157463
482.60 0.5417412
482.70 0.6012968
482.80 0.6740112
482.90 0.7067958
483.00 0.6681529
483.10 0.586571
483.20 0.5107674
483.30 0.4544616
483.40 0.4084162
483.50 0.3923236
483.60 0.4450803
483.70 0.5648432
483.80 0.6987668
483.90 0.7997293
484.00 0.8646164
484.10 0.9144786
484.20 0.9620646
484.30 1.000762
484.40 1.00874
484.50 0.9613038
484.60 0.8579542
484.70 0.7458383
484.80 0.6977242
484.90 0.7486666
485.00 0.8533518
485.10 0.9173215
485.20 0.8811217
485.30 0.7722777
485.40 0.665136
485.50 0.5918035
485.60 0.5227888
485.70 0.4573318
485.80 0.5090793
485.90 0.8449779
486.00 1.499183
486.10 2.250774
486.20 2.729764
486.30 2.683705
486.40 2.163857
486.50 1.471875
486.60 0.9278168
486.70 0.6687557
486.80 0.6243413
486.90 0.6368751
487.00 0.5928483
487.10 0.4787181
487.20 0.3580945
487.30 0.3122997
487.40 0.3828506
487.50 0.5441785
487.60 0.7266938
487.70 0.8641254
487.80 0.9240634
487.90 0.9056706
488.00 0.827267
488.10 0.7243387
488.20 0.6436326
488.30 0.6231293
488.40 0.6697643
488.50 0.7552329
488.60 0.8311328
488.70 0.8564297
488.80 0.8185832
488.90 0.7360175
489.00 0.6484309
489.10 0.6030332
489.20 0.6303233
489.30 0.7113484
489.40 0.7769557
489.50 0.7649577
489.60 0.6853952
489.70 0.6084493
489.80 0.5883028
489.90 0.6263306
490.00 0.7043032
490.10 0.8102512
490.20 0.9167276
490.30 0.9727563
490.40 0.9529269
490.50 0.9009347
490.60 0.8859417
490.70 0.9212924
490.80 0.9574504
490.90 0.9515952
491.00 0.9197081
491.10 0.9069811
491.20 0.9269133
491.30 0.9557127
491.40 0.9720627
491.50 0.9751608
491.60 0.9743126
491.70 0.979265
491.80 0.9998675
491.90 1.040489
492.00 1.0851
492.10 1.106216
492.20 1.099571
492.30 1.092834
492.40 1.110843
492.50 1.138056
492.60 1.128274
492.70 1.064442
492.80 0.9922016
492.90 0.9766548
493.00 1.032703
493.10 1.113907
493.20 1.172685
493.30 1.208985
493.40 1.250202
493.50 1.306806
493.60 1.367716
493.70 1.423636
493.80 1.4742
493.90 1.514516
494.00 1.536557
494.10 1.544852
494.20 1.553955
494.30 1.57275
494.40 1.602722
494.50 1.644301
494.60 1.693265
494.70 1.734449
494.80 1.747936
494.90 1.72604
495.00 1.674943
495.10 1.607998
495.20 1.544162
495.30 1.490902
495.40 1.420789
495.50 1.28526
495.60 1.068156
495.70 0.8155299
495.80 0.5922126
495.90 0.4162231
496.00 0.263901
496.10 0.1294799
496.20 0.04540507
496.30 0.0453368
496.40 0.1263604
496.50 0.2503949
496.60 0.367619
496.70 0.4410554
496.80 0.4735005
496.90 0.5071077
497.00 0.5650471
497.10 0.5999462
497.20 0.5355446
497.30 0.3654467
497.40 0.1814996
497.50 0.09357975
497.60 0.1487812
497.70 0.3289228
497.80 0.5811047
497.90 0.8203514
498.00 0.9411475
498.10 0.8877465
498.20 0.7255371
498.30 0.6063236
498.40 0.6429408
498.50 0.8208849
498.60 1.023866
498.70 1.134509
498.80 1.112426
498.90 1.000524
499.00 0.8740808
499.10 0.7801756
499.20 0.7165256
499.30 0.6613903
499.40 0.6124182
499.50 0.5912925
499.60 0.6120878
499.70 0.6474596
499.80 0.6343439
499.90 0.5260117
500.00 1
500.10 1.153514
500.20 0.6473791
500.30 0.02922165
500.40 0.3081374
500.50 0.7689356
500.60 0.7835017
500.70 0.863783
500.80 0.8249358
500.90 0.6986017
501.00 0.7450814
501.10 0.9488334
501.20 0.8409494
501.30 0.5663354
501.40 0.8927465
501.50 0.8766964
501.60 0.2362502
501.70 0.3090358
501.80 0.584253
501.90 0.7700222
502.00 1.269743
502.10 0.4762552
502.20 0.5098426
502.30 0.540662
502.40 0.3510418
502.50 0.4414886
502.60 0.9177295
502.70 0.932803
502.80 0.8490046
502.90 0.9760023
503.00 1.284324
503.10 1.34463
503.20 0.9044227
503.30 0.8292825
503.40 0.9269357
503.50 0.3139111
503.60 0.4867603
503.70 1.344927
503.80 1.295911
503.90 0.9063673
504.00 1.101736
504.10 0.6140067
504.20 0.4258381
504.30 0.8283584
504.40 0.8559851
504.50 0.5001139
504.60 0.6259154
504.70 0.8542683
504.80 0.6451387
504.90 0.9335566
505.00 1.161351
505.10 0.8742429
505.20 0.8072043
505.30 1.059346
505.40 0.646153
505.50 0.09339749
505.60 0.7557665
505.70 1.232749
505.80 0.9906813
505.90 0.7278829
506.00 0.9481848
506.10 0.9005452
506.20 0.4873874
506.30 1.075106
506.40 1.137145
506.50 0.7648253
506.60 0.6964132
506.70 0.6771919
506.80 0.8309753
506.90 0.9839163
507.00 1.476004
507.10 1.589137
507.20 1.12116
507.30 0.8499925
507.40 1.26612
507.50 1.690554
507.60 1.714074
507.70 1.635294
507.80 1.530609
507.90 1.692266
508.00 1.523406
508.10 1.336944
508.20 1.357405
508.30 1.268812
508.40 0.8039735
508.50 0.4583886
508.60 0.7675969
508.70 1.408797
508.80 1.555396
508.90 1.252785
509.00 1.26091
509.10 0.9928644
509.20 0.9402539
509.30 1.266998
509.40 1.301264
509.50 1.141796
509.60 1.623535
509.70 2.017063
509.80 1.611367
509.90 1.561067
510.00 1.046984
510.10 0.4379516
510.20 0.4901514
510.30 0.6573302
510.40 0.6152917
510.50 1.070206
510.60 0.9971064
510.70 0.5149772
510.80 0.8347598
510.90 1.393625
511.00 1.494905
511.10 1.283341
511.20 1.479787
511.30 1.764133
511.40 1.354277
511.50 1.201184
511.60 1.72128
511.70 2.003183
511.80 1.146516
511.90 1.081295
512.00 1.387668
512.10 1.520984
512.20 1.515755
512.30 1.74195
512.40 1.660775
512.50 1.379912
512.60 1.050699
512.70 1.210014
512.80 1.275737
512.90 0.6310115
513.00 0.8290057
513.10 1.540782
513.20 1.331169
513.30 1.408538
513.40 1.70249
513.50 1.384513
513.60 1.526527
513.70 1.309321
513.80 1.185008
513.90 1.293281
514.00 1.503741
514.10 0.8462311
514.20 0.7586967
514.30 1.150878
514.40 1.397314
514.50 1.697358
514.60 1.438799
514.70 1.090435
514.80 0.9278664
514.90 0.9113837
515.00 0.6255501
515.10 0.733256
515.20 1.203586
515.30 1.443893
515.40 1.280909
515.50 1.142713
515.60 0.9379405
515.70 1.495286
515.80 1.829945
515.90 1.929002
516.00 1.682125
516.10 1.508668
516.20 1.804828
516.30 1.927564
516.40 2.134529
516.50 1.92678
516.60 1.485029
516.70 1.130588
516.80 0.9513682
516.90 0.2800465
517.00 0.10767
517.10 0.04368323
517.20 0.1952917
517.30 0.5154722
517.40 0.559025
517.50 0.518637
517.60 0.87167
517.70 0.7497302
517.80 0.5956698
517.90 0.6471338
518.00 0.6352151
518.10 0.3702828
518.20 0.3259097
518.30 0.03815064
518.40 0.1234655
518.50 0.4451245
518.60 1.056329
518.70 1.037142
518.80 1.079854
518.90 0.9431818
519.00 0.8269805
519.10 0.878681
519.20 0.9551992
519.30 0.6281117
519.40 0.7185398
519.50 0.8593594
519.60 1.024375
519.70 0.9708689
519.80 0.5364247
519.90 0.3063747
520.00 0.1346188
520.10 0.03341829
520.20 0.2630897
520.30 1.03897
520.40 1.391816
520.50 1.130455
520.60 0.763578
520.70 0.8102911
520.80 1.172859
520.90 1.106097
521.00 0.6344176
521.10 0.5454092
521.20 0.9834828
521.30 1.227734
521.40 1.435682
521.50 1.074023
521.60 0.888008
521.70 1.213241
521.80 1.274145
521.90 1.191001
522.00 1.490601
522.10 1.328543
522.20 1.004322
522.30 0.7323814
522.40 0.8584252
522.50 1.71682
522.60 1.974253
522.70 1.984154
522.80 1.602397
522.90 0.9807669
523.00 1.10031
523.10 1.380708
523.20 1.638413
523.30 1.495247
523.40 1.311239
523.50 1.132184
523.60 1.448173
523.70 1.321254
523.80 1.434628
523.90 1.674714
524.00 1.630212
524.10 1.237687
524.20 1.490213
524.30 1.286872
524.40 0.9625731
524.50 0.7381418
524.60 0.9157616
524.70 1.072616
524.80 1.036453
524.90 1.104354
525.00 1.337551
525.10 0.929251
525.20 0.8364556
525.30 1.391805
525.40 2.112565
525.50 1.548964
525.60 1.007648
525.70 1.272879
525.80 1.801455
525.90 1.712014
526.00 1.41315
526.10 1.115187
526.20 1.308888
526.30 1.546855
526.40 1.315174
526.50 1.214284
526.60 1.266214
526.70 1.265449
526.80 1.371083
526.90 1.046696
527.00 1.421021
527.10 1.672849
527.20 1.262269
527.30 1.114711
527.40 1.167234
527.50 1.429484
527.60 1.840978
527.70 1.617555
527.80 1.505217
527.90 1.475361
528.00 1.520151
528.10 1.175184
528.20 0.8750749
528.30 1.686097
528.40 2.020178
528.50 1.40264
528.60 1.077335
528.70 1.475968
528.80 1.870999
528.90 1.823006
529.00 1.610565
529.10 1.470528
529.20 1.533458
529.30 1.59141
529.40 1.637237
529.50 1.670657
529.60 1.721786
529.70 2.003785
529.80 1.993853
529.90 1.535063
530.00 1.418806
530.10 1.805166
530.20 2.136978
530.30 1.869317
530.40 1.897105
530.50 2.142255
530.60 1.960341
530.70 1.897777
530.80 1.61651
530.90 1.514967
531.00 1.549489
531.10 1.263078
531.20 1.198733
531.30 1.506552
531.40 1.211992
531.50 0.995775
531.60 1.317554
531.70 1.543947
531.80 1.55734
531.90 1.221397
532.00 1.216786
532.10 1.965295
532.20 1.819974
532.30 1.468437
532.40 1.435322
532.50 1.705954
532.60 1.759139
532.70 1.335275
532.80 1.189893
532.90 1.74772
533.00 1.470955
533.10 1.196325
533.20 1.362522
533.30 2.170237
533.40 1.928474
533.50 1.230236
533.60 1.22567
533.70 0.9587436
533.80 1.216703
533.90 1.54899
534.00 1.986072
534.10 1.800186
534.20 1.369843
534.30 1.440884
534.40 1.721503
534.50 1.907279
534.60 2.153861
534.70 1.950193
534.80 1.313459
534.90 1.252925
535.00 1.496247
535.10 2.176937
535.20 2.338512
535.30 2.326291
535.40 2.381323
535.50 2.317075
535.60 1.992538
535.70 1.984013
535.80 1.666921
535.90 1.588301
536.00 1.614047
536.10 1.973159
536.20 1.884682
536.30 1.627191
536.40 1.312237
536.50 1.681722
536.60 1.340125
536.70 1.044368
536.80 0.9930299
536.90 1.238955
537.00 1.202743
537.10 1.261544
537.20 1.585322
537.30 1.843897
537.40 1.497049
537.50 1.325824
537.60 1.371093
537.70 1.593198
537.80 1.851565
537.90 2.432209
538.00 2.553146
538.10 1.993758
538.20 1.638452
538.30 1.82137
538.40 2.290376
538.50 2.128228
538.60 1.862732
538.70 1.39803
538.80 1.777315
538.90 1.726514
539.00 1.875716
539.10 2.141993
539.20 1.851959
539.30 1.319894
539.40 1.830502
539.50 2.100672
539.60 2.079567
539.70 1.974439
539.80 2.406475
539.90 2.562458
540.00 2.137879
540.10 2.400227
540.20 2.871045
540.30 2.744742
540.40 2.429072
540.50 2.125979
540.60 1.89056
540.70 2.362578
540.80 2.521233
540.90 1.629819
541.00 1.387815
541.10 1.298659
541.20 1.803518
541.30 2.182539
541.40 1.926854
541.50 1.762644
541.60 1.777907
541.70 2.016987
541.80 2.375869
541.90 2.402101
542.00 1.851919
542.10 2.0143
542.20 2.261272
542.30 2.524092
542.40 2.628797
542.50 2.688595
542.60 2.710683
542.70 2.256921
542.80 1.857097
542.90 2.012668
543.00 1.89498
543.10 1.751805
543.20 1.820848
543.30 1.645208
543.40 1.663621
543.50 1.968041
543.60 2.097359
543.70 1.93886
543.80 1.905572
543.90 2.5507
544.00 2.636821
544.10 2.480367
544.20 2.909371
544.30 2.89328
544.40 2.384575
544.50 2.407117
544.60 2.839918
544.70 2.906429
544.80 2.457374
544.90 2.071506
545.00 1.471325
545.10 0.3745516
545.20 0.1657516
545.30 0.4032659
545.40 0.4609665
545.50 0.6760299
545.60 0.5764521
545.70 0.4796346
545.80 0.7556617
545.90 0.9587241
546.00 1.116112
546.10 1.724979
546.20 1.856722
546.30 1.837488
546.40 1.650736
546.50 1.005197
546.60 0.8428695
546.70 0.9390928
546.80 1.433453
546.90 1.570816
547.00 1.342157
547.10 0.8816856
547.20 0.8063458
547.30 0.5510825
547.40 0.4027642
547.50 0.8075809
547.60 1.454178
547.70 1.261405
547.80 1.215414
547.90 1.328236
548.00 1.435373
548.10 1.196299
548.20 0.9942811
548.30 0.8189499
548.40 0.9952723
548.50 1.233982
548.60 1.162325
548.70 1.083519
548.80 1.124622
548.90 1.004435
549.00 0.9820366
549.10 0.7189031
549.20 1.067919
549.30 1.142266
549.40 1.177857
549.50 1.421429
549.60 1.489147
549.70 0.9421017
549.80 0.9453401
549.90 1.365259
550.00 0.9650515
550.10 0.5851623
550.20 0.5698181
550.30 0.8924535
550.40 0.6853737
550.50 0.4971713
550.60 0.7158362
550.70 0.6127247
550.80 0.4393017
550.90 0.4943952
551.00 0.4171227
551.10 0.32766
551.20 0.05512719
551.30 0.03700104
551.40 0.1993756
551.50 0.6529002
551.60 1.011693
551.70 1.048593
551.80 0.4633854
551.90 0.06224828
552.00 0.4390431
552.10 0.4090247
552.20 0.02569281
552.30 0.1959672
552.40 0.398812
552.50 0.4713207
552.60 0.9026751
552.70 0.6350147
552.80 0.4610423
552.90 0.4705116
553.00 0.1524346
553.10 0.3234406
553.20 0.5110887
553.30 0.5804674
553.40 0.5499225
553.50 0.6732876
553.60 0.2763995
553.70 0.3688518
553.80 0.356227
553.90 0.2761205
554.00 0.6246686
554.10 0.5977719
554.20 0.3947228
554.30 0.3225032
554.40 0.6528212
554.50 0.7026417
554.60 0.1671874
554.70 0.02754951
554.80 0.01676242
554.90 0.2850179
555.00 0.4911676
555.10 0.4958899
555.20 0.05114111
555.30 0.4119071
555.40 0.764775
555.50 0.5482079
555.60 0.4749246
555.70 0.5779532
555.80 0.7856189
555.90 0.4102828
556.00 0.54315
556.10 0.9964391
556.20 0.7938952
556.30 0.5699409
556.40 0.7790387
556.50 1.155101
556.60 1.141022
556.70 0.7465637
556.80 0.5892845
556.90 0.6449115
557.00 0.8652656
557.10 1.035937
557.20 1.046168
557.30 1.039827
557.40 1.039785
557.50 1.039785
557.60 1.039785
557.70 1.039785
557.80 1.039785
557.90 1.039785
558.00 1.039785
558.10 1.039785
558.20 1.039754
558.30 1.040298
558.40 1.012953
558.50 1.102892
558.60 1.456433
558.70 1.523168
558.80 1.333867
558.90 1.159584
559.00 1.137145
559.10 1.099585
559.20 1.176797
559.30 1.389649
559.40 1.329206
559.50 1.35667
559.60 1.591762
559.70 1.102352
559.80 0.7215119
559.90 0.7771289
560.00 1.002349
560.10 0.940247
560.20 1.282278
560.30 1.472875
560.40 1.472512
560.50 1.339366
560.60 1.269842
560.70 0.8160451
560.80 0.7505902
560.90 0.9849119
561.00 1.472751
561.10 1.788502
561.20 1.298757
561.30 0.9216863
561.40 1.211778
561.50 1.423168
561.60 1.215559
561.70 1.441124
561.80 1.333261
561.90 0.8967303
562.00 0.6932807
562.10 0.9031672
562.20 1.229823
562.30 1.137433
562.40 1.146386
562.50 1.003238
562.60 0.9025297
562.70 0.8376486
562.80 0.8010362
562.90 0.9671153
563.00 1.587283
563.10 1.229342
563.20 0.579378
563.30 0.4753137
563.40 1.076548
563.50 1.472543
563.60 1.309641
563.70 0.8061843
563.80 0.5084717
563.90 1.042422
564.00 1.235897
564.10 0.8026119
564.20 0.5017913
564.30 0.7700611
564.40 1.166971
564.50 0.9752349
564.60 0.9994372
564.70 0.8603327
564.80 1.21153
564.90 1.453121
565.00 1.384649
565.10 1.121253
565.20 1.317586
565.30 1.803303
565.40 1.744221
565.50 1.476325
565.60 1.069608
565.70 1.267643
565.80 1.38219
565.90 1.623997
566.00 1.623348
566.10 1.272076
566.20 1.163759
566.30 1.389121
566.40 1.705373
566.50 1.290111
566.60 1.235363
566.70 1.466679
566.80 1.605291
566.90 1.37161
567.00 1.341408
567.10 1.390134
567.20 1.471164
567.30 1.631433
567.40 1.268721
567.50 1.196409
567.60 1.091448
567.70 1.41843
567.80 1.399636
567.90 1.398607
568.00 1.473788
568.10 1.194201
568.20 1.085453
568.30 1.594945
568.40 2.183242
568.50 1.918406
568.60 1.156425
568.70 1.201846
568.80 1.603412
568.90 2.147272
569.00 2.365131
569.10 1.545094
569.20 1.633237
569.30 1.827874
569.40 1.910686
569.50 1.576826
569.60 1.170889
569.70 1.087778
569.80 1.251336
569.90 1.662739
570.00 1.902054
570.10 1.845646
570.20 1.660855
570.30 1.186542
570.40 1.305519
570.50 1.838166
570.60 2.320598
570.70 2.08194
570.80 2.013018
570.90 1.968232
571.00 1.855246
571.10 1.893434
571.20 1.8974
571.30 1.970993
571.40 1.611613
571.50 1.228836
571.60 1.228283
571.70 1.557053
571.80 2.201896
571.90 2.037
572.00 1.512621
572.10 1.137345
572.20 1.414407
572.30 1.576295
572.40 1.820491
572.50 1.984275
572.60 2.03044
572.70 2.063421
572.80 1.855657
572.90 1.628881
573.00 1.735667
573.10 1.82798
573.20 1.658734
573.30 1.800223
573.40 2.228151
573.50 2.194528
573.60 2.036596
573.70 1.872335
573.80 1.870278
573.90 1.679667
574.00 1.301283
574.10 1.377241
574.20 1.628059
574.30 1.82578
574.40 2.057664
574.50 2.163377
574.60 1.987116
574.70 1.656611
574.80 2.227211
574.90 1.649028
575.00 1.103814
575.10 1.553474
575.20 2.258863
575.30 1.971166
575.40 1.451701
575.50 1.903241
575.60 2.069048
575.70 1.909545
575.80 2.09339
575.90 2.184888
576.00 1.871121
576.10 1.164118
576.20 1.171771
576.30 1.39972
576.40 1.741508
576.50 1.855186
576.60 1.786056
576.70 1.794406
576.80 1.818262
576.90 1.295263
577.00 1.034125
577.10 1.397422
577.20 1.258105
577.30 0.8288428
577.40 0.9763445
577.50 1.585931
577.60 2.01148
577.70 1.854903
577.80 1.457233
577.90 1.281751
578.00 1.813071
578.10 2.306316
578.20 2.266534
578.30 1.668436
578.40 1.009344
578.50 1.360811
578.60 2.13215
578.70 2.523104
578.80 2.065733
578.90 2.007591
579.00 2.307035
579.10 2.535746
579.20 2.582642
579.30 2.157818
579.40 2.000462
579.50 2.213055
579.60 2.382994
579.70 2.613573
579.80 2.457306
579.90 1.997532
580.00 2.328213
580.10 2.705781
580.20 2.503729
580.30 2.247823
580.40 2.093102
580.50 2.483688
580.60 2.708057
580.70 2.61827
580.80 2.793634
580.90 2.915162
581.00 2.430066
581.10 2.28473
581.20 2.184349
581.30 1.732408
581.40 1.656536
581.50 1.631515
581.60 1.80198
581.70 1.90827
581.80 2.353807
581.90 2.280677
582.00 1.444709
582.10 1.509795
582.20 1.800546
582.30 1.883889
582.40 1.703078
582.50 1.240852
582.60 1.410063
582.70 1.837053
582.80 2.130924
582.90 1.625621
583.00 1.692426
583.10 2.223324
583.20 2.289591
583.30 1.91139
583.40 2.410402
583.50 2.351338
583.60 1.235515
583.70 1.120813
583.80 1.325021
583.90 1.219645
584.00 1.176038
584.10 1.622781
584.20 2.103099
584.30 2.181572
584.40 2.31377
584.50 2.225017
584.60 1.605851
584.70 1.30954
584.80 1.276288
584.90 1.791964
585.00 1.975878
585.10 1.725266
585.20 1.095598
585.30 1.122751
585.40 1.523901
585.50 1.688545
585.60 1.890827
585.70 1.560359
585.80 1.310627
585.90 1.460097
586.00 1.557157
586.10 0.8212879
586.20 0.384522
586.30 0.595466
586.40 1.065257
586.50 1.137764
586.60 1.179671
586.70 1.017236
586.80 0.9504145
586.90 1.404502
587.00 1.457806
587.10 1.095016
587.20 0.8114429
587.30 0.8049101
587.40 1.125955
587.50 1.109124
587.60 1.024771
587.70 0.9845767
587.80 1.093602
587.90 0.9538812
588.00 0.9250832
588.10 0.5928624
588.20 0.6162617
588.30 0.8900252
588.40 1.025797
588.50 0.8527777
588.60 0.3832893
588.70 0.4522963
588.80 1.099162
588.90 2.087168
589.00 2.238675
589.10 0.7974159
589.20 0.9585012
589.30 2.433742
589.40 2.410665
589.50 1.39816
589.60 0.6138684
589.70 0.4366041
589.80 0.6824682
589.90 0.9852332
590.00 1.108715
590.10 0.6265547
590.20 0.8612798
590.30 0.7944591
590.40 0.4346253
590.50 0.459762
590.60 0.7538237
590.70 1.25478
590.80 1.209922
590.90 0.960675
591.00 0.66663
591.10 0.9140829
591.20 1.167141
591.30 0.8841414
591.40 0.7962613
591.50 0.8371338
591.60 1.127784
591.70 0.9430651
591.80 0.6621355
591.90 0.9644713
592.00 1.041096
592.10 0.9333292
592.20 0.7085127
592.30 1.244381
592.40 1.369723
592.50 0.4522984
592.60 0.7353729
592.70 1.340846
592.80 1.122577
592.90 0.7012296
593.00 0.7647492
593.10 1.142844
593.20 1.189155
593.30 1.059727
593.40 0.8619188
593.50 0.571315
593.60 0.5934392
593.70 1.009299
593.80 0.9869753
593.90 0.8374697
594.00 0.8825163
594.10 0.9390328
594.20 0.6857179
594.30 0.9927423
594.40 1.173739
594.50 1.137012
594.60 1.034258
594.70 1.339875
594.80 1.553274
594.90 1.581605
595.00 1.755753
595.10 1.321482
595.20 0.8298543
595.30 0.479906
595.40 0.5444219
595.50 0.5064797
595.60 0.8927098
595.70 1.857376
595.80 1.996239
595.90 1.435505
596.00 0.9842766
596.10 1.015917
596.20 0.7710213
596.30 0.4107568
596.40 0.566336
596.50 1.334203
596.60 1.433747
596.70 1.278208
596.80 1.309998
596.90 0.9603655
597.00 0.7702629
597.10 0.6083718
597.20 0.5357911
597.30 0.3885042
597.40 0.4275469
597.50 0.9044393
597.60 1.099782
597.70 1.113652
597.80 0.7008437
597.90 0.7210349
598.00 0.9216001
598.10 1.314509
598.20 1.290006
598.30 1.131132
598.40 1.030445
598.50 0.9740888
598.60 1.066848
598.70 0.9704825
598.80 1.137427
598.90 1.250568
599.00 1.035095
599.10 1.13177
599.20 1.302018
599.30 1.204802
599.40 0.8311076
599.50 0.6587758
599.60 0.9012882
599.70 1.026846
599.80 0.8861431
599.90 1.259019
600.00 1.53753
600.10 1.524767
600.20 1.30639
600.30 1.324992
600.40 1.529558
600.50 1.327994
600.60 1.156781
600.70 1.039113
600.80 1.380223
600.90 1.484332
601.00 1.063049
601.10 0.7660657
601.20 0.9630549
601.30 1.39991
601.40 1.274828
601.50 0.8850722
601.60 1.150868
601.70 1.368282
601.80 1.615552
601.90 1.612939
602.00 1.351325
602.10 0.8380444
602.20 0.8070331
602.30 0.9782447
602.40 1.193613
602.50 1.397456
602.60 1.351375
602.70 1.166444
602.80 0.9212528
602.90 1.020336
603.00 1.021109
603.10 0.7460182
603.20 0.8716722
603.30 1.054576
603.40 1.527219
603.50 1.757147
603.60 1.54418
603.70 1.485487
603.80 1.269343
603.90 1.047275
604.00 1.064278
604.10 1.103013
604.20 1.234215
604.30 1.471787
604.40 1.661248
604.50 1.604282
604.60 1.370836
604.70 1.477772
604.80 2.016887
604.90 2.04677
605.00 1.542702
605.10 1.276809
605.20 1.508244
605.30 1.466272
605.40 1.252387
605.50 1.22649
605.60 1.353382
605.70 1.693467
605.80 1.779615
605.90 1.307318
606.00 1.119954
606.10 1.202392
606.20 1.36516
606.30 1.442082
606.40 1.503302
606.50 1.518468
606.60 1.333038
606.70 1.582045
606.80 1.951877
606.90 2.123988
607.00 1.951156
607.10 1.730441
607.20 1.66311
607.30 1.371883
607.40 1.395508
607.50 1.534439
607.60 1.574805
607.70 1.556378
607.80 1.454155
607.90 1.545905
608.00 1.359605
608.10 1.390204
608.20 1.369516
608.30 1.431018
608.40 1.865679
608.50 1.806323
608.60 1.530535
608.70 1.433278
608.80 1.656839
608.90 1.600053
609.00 1.083029
609.10 1.319479
609.20 1.664398
609.30 1.73364
609.40 1.523343
609.50 1.496285
609.60 1.44711
609.70 1.425476
609.80 1.767772
609.90 1.71159
610.00 1.381569
610.10 1.609029
610.20 1.781661
610.30 1.569597
610.40 1.060292
610.50 1.269606
610.60 1.592924
610.70 1.580537
610.80 1.29505
610.90 1.44488
611.00 1.526481
611.10 1.643242
611.20 1.795333
611.30 1.693976
611.40 1.427
611.50 1.347938
611.60 1.227972
611.70 1.239577
611.80 1.262319
611.90 1.509151
612.00 1.811952
612.10 1.737365
612.20 1.517395
612.30 1.401907
612.40 1.443859
612.50 1.477072
612.60 1.131664
612.70 1.031447
612.80 1.013479
612.90 1.044821
613.00 1.478853
613.10 1.620419
613.20 1.10294
613.30 1.244448
613.40 1.664259
613.50 1.647747
613.60 1.317456
613.70 1.295442
613.80 1.416107
613.90 1.109522
614.00 1.038175
614.10 1.206672
614.20 1.140239
614.30 0.878646
614.40 1.067831
614.50 1.379656
614.60 1.499314
614.70 1.374254
614.80 1.498158
614.90 1.295343
615.00 1.229556
615.10 0.9567181
615.20 0.6566323
615.30 0.8363738
615.40 1.087986
615.50 1.069348
615.60 0.8102693
615.70 1.045962
615.80 1.478678
615.90 1.205588
616.00 1.02113
616.10 1.032025
616.20 0.9993654
616.30 1.004883
616.40 1.08103
616.50 1.127717
616.60 0.7986028
616.70 0.6598218
616.80 0.780114
616.90 0.7233418
617.00 0.7925002
617.10 0.8180701
617.20 0.9807054
617.30 1.04179
617.40 0.8224584
617.50 0.9719171
617.60 1.140667
617.70 0.8993139
617.80 0.578428
617.90 0.8399596
618.00 0.7761411
618.10 0.4233826
618.20 0.09306725
618.30 0.2905664
618.40 1.152892
618.50 1.335706
618.60 1.109514
618.70 0.9912557
618.80 0.8025755
618.90 0.5869995
619.00 0.6353612
619.10 0.7854718
619.20 0.6812142
619.30 1.013905
619.40 1.083126
619.50 0.9679276
619.60 0.8675001
619.70 1.105312
619.80 0.9712175
619.90 0.6418966
620.00 0.5784544
620.10 0.7281145
620.20 0.975543
620.30 0.8824821
620.40 0.8901426
620.50 0.853889
620.60 0.6743029
620.70 0.6165732
620.80 0.8692683
620.90 1.179126
621.00 1.087409
621.10 1.14725
621.20 1.179904
621.30 0.9180245
621.40 0.9295422
621.50 1.054752
621.60 1.159388
621.70 0.8688843
621.80 0.5445379
621.90 0.6906069
622.00 0.9383199
622.10 0.9944695
622.20 1.034574
622.30 0.8548921
622.40 0.9198897
622.50 0.8136576
622.60 0.7279595
622.70 0.5455569
622.80 0.5892625
622.90 0.9729089
623.00 0.9865757
623.10 0.9865976
623.20 0.8559025
623.30 0.7420994
623.40 0.8703318
623.50 1.069837
623.60 0.8087544
623.70 0.8221874
623.80 0.6302906
623.90 0.06101711
624.00 0.551927
624.10 1.343615
624.20 1.271743
624.30 0.3632913
624.40 0.2599048
624.50 0.9391794
624.60 1.107615
624.70 0.9378917
624.80 0.6899307
624.90 0.6518765
625.00 0.7134529
625.10 0.6654187
625.20 0.8644062
625.30 1.052128
625.40 1.231679
625.50 1.23515
625.60 1.028105
625.70 0.9901526
625.80 0.9974353
625.90 1.281652
626.00 1.234884
626.10 1.162399
626.20 1.217376
626.30 0.9413621
626.40 0.6478086
626.50 0.8514193
626.60 1.014548
626.70 0.8361942
626.80 0.5364935
626.90 0.6725573
627.00 0.9572264
627.10 1.069713
627.20 0.8584717
627.30 0.9996851
627.40 1.293099
627.50 1.284604
627.60 1.218129
627.70 1.329929
627.80 1.61112
627.90 1.429883
628.00 1.223029
628.10 1.036485
628.20 0.9792822
628.30 1.096723
628.40 1.18957
628.50 1.057144
628.60 0.9977029
628.70 0.987008
628.80 1.389189
628.90 1.296005
629.00 1.108647
629.10 1.241108
629.20 1.453189
629.30 1.742972
629.40 1.49939
629.50 1.271447
629.60 1.392378
629.70 2.024023
629.80 2.224766
629.90 2.18423
630.00 2.080569
630.10 1.155812
630.20 0.4441672
630.30 0.02517935
630.40 1.618325
630.50 2.7977
630.60 2.216231
630.70 1.865281
630.80 1.61286
630.90 1.64407
631.00 1.614985
631.10 1.842098
631.20 2.152199
631.30 2.025491
631.40 1.874571
631.50 1.617941
631.60 1.504523
631.70 1.78387
631.80 1.86017
631.90 1.75066
632.00 1.740464
632.10 2.182655
632.20 2.092761
632.30 1.677899
632.40 1.758177
632.50 1.987412
632.60 1.996395
632.70 1.734096
632.80 1.679309
632.90 1.909211
633.00 2.201221
633.10 1.862799
633.20 1.479101
633.30 1.486047
633.40 1.875115
633.50 2.162579
633.60 2.136284
633.70 2.161599
633.80 2.1491
633.90 2.224723
634.00 2.177104
634.10 2.32704
634.20 2.528408
634.30 2.410633
634.40 2.09628
634.50 2.04644
634.60 2.316362
634.70 2.567541
634.80 2.651272
634.90 2.445257
635.00 2.511341
635.10 2.610528
635.20 2.368256
635.30 2.121763
635.40 2.289484
635.50 2.542318
635.60 2.401871
635.70 2.384483
635.80 2.321851
635.90 1.866006
636.00 1.74877
636.10 2.46011
636.20 3.319927
636.30 3.18085
636.40 2.180111
636.50 1.552451
636.60 1.554615
636.70 1.656205
636.80 2.094188
636.90 2.215088
637.00 2.141388
637.10 2.347605
637.20 2.599459
637.30 2.523563
637.40 2.172826
637.50 1.951584
637.60 2.171475
637.70 2.38442
637.80 2.363516
637.90 2.239546
638.00 2.202715
638.10 2.282011
638.20 1.873839
638.30 1.739897
638.40 2.064193
638.50 2.264293
638.60 2.282428
638.70 2.217919
638.80 2.203649
638.90 2.126766
639.00 2.137651
639.10 2.167566
639.20 2.255922
639.30 2.352306
639.40 2.564175
639.50 2.530093
639.60 2.327893
639.70 2.321874
639.80 2.511296
639.90 2.615899
640.00 2.674556
640.10 2.770226
640.20 2.596937
640.30 2.427994
640.40 2.594657
640.50 2.987427
640.60 3.198018
640.70 2.984141
640.80 2.725515
640.90 2.535824
641.00 2.470956
641.10 2.522898
641.20 2.501474
641.30 2.640341
641.40 2.778074
641.50 2.71446
641.60 2.513729
641.70 2.419575
641.80 2.582449
641.90 2.687806
642.00 2.652968
642.10 2.589196
642.20 2.489003
642.30 2.388506
642.40 2.397893
642.50 2.242665
642.60 2.111157
642.70 2.178679
642.80 2.462796
642.90 2.7741
643.00 2.655604
643.10 2.534972
643.20 2.53943
643.30 2.519974
643.40 2.467711
643.50 2.277559
643.60 2.246072
643.70 2.400117
643.80 2.609236
643.90 2.795966
644.00 2.642416
644.10 2.392017
644.20 2.322831
644.30 2.601619
644.40 2.733783
644.50 2.611269
644.60 2.5945
644.70 2.674045
644.80 2.807866
644.90 2.650494
645.00 2.478647
645.10 2.549571
645.20 2.706346
645.30 2.903124
645.40 2.850471
645.50 2.887839
645.60 2.735047
645.70 2.61177
645.80 2.595102
645.90 2.63425
646.00 2.80096
646.10 2.978771
646.20 2.904914
646.30 2.70834
646.40 2.854487
646.50 2.944716
646.60 2.769466
646.70 2.438384
646.80 2.605081
646.90 3.063742
647.00 3.293863
647.10 2.911481
647.20 2.738739
647.30 3.338797
647.40 3.881879
647.50 3.695701
647.60 3.01773
647.70 2.818737
647.80 2.914344
647.90 2.980057
648.00 2.760459
648.10 2.646517
648.20 2.690821
648.30 2.727491
648.40 2.733763
648.50 2.647026
648.60 2.486622
648.70 2.699263
648.80 2.926165
648.90 2.94145
649.00 2.919299
649.10 2.807117
649.20 2.843076
649.30 3.003821
649.40 3.043739
649.50 3.135723
649.60 3.400314
649.70 3.526481
649.80 3.251081
649.90 3.033488
650.00 3.400783
650.10 3.216256
650.20 3.155137
650.30 3.538761
650.40 3.955236
650.50 3.969829
650.60 3.66898
650.70 3.781002
650.80 3.995046
650.90 4.055394
651.00 4.066354
651.10 4.175831
651.20 4.243073
651.30 4.270459
651.40 4.112804
651.50 4.042481
651.60 4.125838
651.70 4.291358
651.80 4.276781
651.90 4.399621
652.00 4.574501
652.10 4.503617
652.20 4.675842
652.30 4.874563
652.40 4.811826
652.50 4.501832
652.60 4.536215
652.70 5.182412
652.80 5.61914
652.90 5.62812
653.00 5.640492
653.10 5.928603
653.20 6.007184
653.30 5.64145
653.40 5.246302
653.50 5.150144
653.60 5.572505
653.70 5.979758
653.80 6.200898
653.90 6.394787
654.00 6.418952
654.10 6.271262
654.20 6.32922
654.30 6.529833
654.40 6.398671
654.50 6.052503
654.60 5.708535
654.70 5.538495
654.80 5.547583
654.90 5.501246
655.00 5.270751
655.10 5.073699
655.20 5.161005
655.30 5.149531
655.40 4.937498
655.50 4.695264
655.60 4.832487
655.70 5.027678
655.80 5.163595
655.90 5.476424
656.00 5.790827
656.10 6.307524
656.20 8.789902
656.30 12.4234
656.40 14.43091
656.50 13.61388
656.60 10.74673
656.70 7.796671
656.80 5.669611
656.90 4.591116
657.00 4.27091
657.10 4.105467
657.20 4.268028
657.30 4.405382
657.40 4.38443
657.50 4.170999
657.60 4.097524
657.70 4.224483
657.80 4.275892
657.90 4.135481
658.00 3.710173
658.10 3.418731
658.20 3.447693
658.30 3.783028
658.40 3.923603
658.50 3.913595
658.60 3.979112
658.70 4.196793
658.80 4.342233
658.90 4.085722
659.00 3.988298
659.10 4.117504
659.20 4.18327
659.30 4.310103
659.40 4.253261
659.50 4.036917
659.60 3.887294
659.70 3.949387
659.80 4.202861
659.90 4.082292
660.00 3.888064
660.10 3.914481
660.20 4.084949
660.30 4.180363
660.40 4.129065
660.50 4.060874
660.60 4.033429
660.70 3.984803
660.80 3.859423
660.90 3.795928
661.00 3.895766
661.10 3.921944
661.20 3.898121
661.30 3.997253
661.40 4.143483
661.50 4.277077
661.60 3.945812
661.70 3.776604
661.80 3.994384
661.90 4.07463
662.00 3.941857
662.10 3.677294
662.20 3.600186
662.30 3.631834
662.40 3.696579
662.50 3.618925
662.60 3.219585
662.70 2.954536
662.80 3.114068
662.90 3.253273
663.00 3.262901
663.10 3.379095
663.20 3.517652
663.30 3.582625
663.40 3.732327
663.50 3.834198
663.60 3.685224
663.70 3.307466
663.80 3.030762
663.90 3.127583
664.00 3.301971
664.10 3.47621
664.20 3.537589
664.30 3.551372
664.40 3.428781
664.50 3.4451
664.60 3.375641
664.70 3.313484
664.80 3.424412
664.90 3.582828
665.00 3.684417
665.10 3.462341
665.20 2.960507
665.30 2.548285
665.40 2.402874
665.50 2.649073
665.60 2.92246
665.70 2.862795
665.80 2.74834
665.90 2.68235
666.00 2.823578
666.10 2.733425
666.20 2.736011
666.30 2.973404
666.40 3.040376
666.50 3.099573
666.60 3.134586
666.70 3.121808
666.80 3.017668
666.90 3.1451
667.00 3.477034
667.10 3.508895
667.20 3.480395
667.30 3.210309
667.40 3.005363
667.50 3.085522
667.60 3.218549
667.70 3.375612
667.80 3.571348
667.90 3.746404
668.00 3.662222
668.10 3.420393
668.20 3.035987
668.30 2.599762
668.40 2.363377
668.50 2.315031
668.60 2.519792
668.70 2.548464
668.80 2.402821
668.90 2.517112
669.00 2.779038
669.10 2.754038
669.20 2.603263
669.30 2.512884
669.40 2.294709
669.50 2.287873
669.60 2.635576
669.70 2.928759
669.80 2.956642
669.90 2.772471
670.00 2.84339
670.10 3.004838
670.20 3.208044
670.30 3.290333
670.40 3.140322
670.50 3.048372
670.60 3.062145
670.70 3.132806
670.80 3.135151
670.90 2.918262
671.00 2.837767
671.10 3.060009
671.20 3.283056
671.30 3.253527
671.40 3.030486
671.50 2.805412
671.60 2.682578
671.70 2.512439
671.80 2.365041
671.90 2.400439
672.00 2.451032
672.10 2.561452
672.20 2.63746
672.30 2.599949
672.40 2.523728
672.50 2.544064
672.60 2.565636
672.70 2.614901
672.80 2.937833
672.90 3.177785
673.00 2.947473
673.10 2.658447
673.20 2.730777
673.30 3.090973
673.40 3.365871
673.50 3.220251
673.60 2.87087
673.70 2.528233
673.80 2.550379
673.90 2.942103
674.00 3.054013
674.10 2.951267
674.20 2.891549
674.30 2.977456
674.40 3.124094
674.50 3.253524
674.60 3.277672
674.70 3.124095
674.80 2.882939
674.90 2.708857
675.00 2.714108
675.10 2.859918
675.20 2.924152
675.30 2.887707
675.40 2.95385
675.50 3.211826
675.60 3.191117
675.70 3.115572
675.80 3.127867
675.90 2.930699
676.00 2.835839
676.10 2.981915
676.20 3.193413
676.30 3.3444
676.40 3.231199
676.50 3.302981
676.60 3.548893
676.70 3.510009
676.80 3.466607
676.90 3.52268
677.00 3.564054
677.10 3.675781
677.20 3.779168
677.30 3.76056
677.40 3.721304
677.50 3.733118
677.60 3.72551
677.70 3.81578
677.80 3.71691
677.90 3.76119
678.00 3.903515
678.10 3.862845
678.20 3.534724
678.30 2.886751
678.40 2.622688
678.50 2.740919
678.60 2.83945
678.70 2.853239
678.80 2.893385
678.90 3.083596
679.00 3.218111
679.10 3.294283
679.20 3.252883
679.30 3.022552
679.40 2.895165
679.50 2.982057
679.60 3.10592
679.70 3.13652
679.80 3.177249
679.90 3.262718
680.00 3.277109
680.10 3.197187
680.20 3.057337
680.30 3.052661
680.40 3.144514
680.50 3.267656
680.60 3.386369
680.70 3.51511
680.80 3.424015
680.90 3.156239
681.00 3.336606
681.10 3.561295
681.20 3.574569
681.30 3.573105
681.40 3.459365
681.50 3.317426
681.60 3.160391
681.70 3.159841
681.80 3.252771
681.90 3.323506
682.00 3.425063
682.10 3.304578
682.20 3.142253
682.30 3.292845
682.40 3.360385
682.50 3.287841
682.60 3.315142
682.70 3.569251
682.80 3.866998
682.90 3.799067
683.00 3.309877
683.10 2.96294
683.20 3.139848
683.30 3.446131
683.40 3.555272
683.50 3.570187
683.60 3.775831
683.70 3.836259
683.80 3.750637
683.90 3.844084
684.00 3.821925
684.10 3.757963
684.20 3.993269
684.30 4.159333
684.40 4.058431
684.50 3.927514
684.60 3.749139
684.70 3.740413
684.80 3.862883
684.90 3.776362
685.00 3.531086
685.10 3.364895
685.20 3.307657
685.30 3.178403
685.40 3.065668
685.50 3.096121
685.60 3.34297
685.70 3.519658
685.80 3.501596
685.90 3.389054
686.00 3.272463
686.10 3.452095
686.20 3.767603
686.30 3.949929
686.40 4.150683
686.50 4.173574
686.60 3.939704
686.70 3.654747
686.80 3.34219
686.90 3.593974
687.00 3.544713
687.10 3.230781
687.20 3.338177
687.30 3.724447
687.40 4.136729
687.50 4.334392
687.60 4.420103
687.70 4.327238
687.80 4.17705
687.90 4.059908
688.00 3.749163
688.10 3.744908
688.20 4.053
688.30 4.083163
688.40 3.981422
688.50 3.832531
688.60 3.907892
688.70 4.18959
688.80 4.217152
688.90 4.102555
689.00 3.870728
689.10 3.566938
689.20 3.664202
689.30 4.097157
689.40 4.345495
689.50 4.197565
689.60 3.991677
689.70 4.084716
689.80 4.13564
689.90 4.148272
690.00 4.118588
690.10 3.959655
690.20 3.641905
690.30 3.537861
690.40 3.846907
690.50 4.093861
690.60 4.094417
690.70 4.266929
690.80 4.765793
690.90 4.947649
691.00 4.678638
691.10 4.468576
691.20 4.403059
691.30 4.706279
691.40 4.699252
691.50 4.606536
691.60 4.746341
691.70 4.691538
691.80 4.440148
691.90 3.91777
692.00 3.518556
692.10 3.513731
692.20 3.799842
692.30 4.347496
692.40 4.828386
692.50 4.69886
692.60 4.316521
692.70 4.547826
692.80 4.915019
692.90 5.043689
693.00 4.917031
693.10 4.846783
693.20 5.131616
693.30 5.395755
693.40 5.609138
693.50 5.689687
693.60 5.669482
693.70 5.712473
693.80 5.626172
693.90 5.448656
694.00 5.340685
694.10 5.433992
694.20 5.713399
694.30 6.007352
694.40 6.412097
694.50 6.840985
694.60 7.092335
694.70 7.408621
694.80 7.543493
694.90 7.321511
695.00 7.230302
695.10 7.15919
695.20 7.218932
695.30 7.121551
695.40 6.750384
695.50 6.474296
695.60 6.45259
695.70 6.717831
695.80 6.599531
695.90 6.308733
696.00 6.199844
696.10 6.324308
696.20 6.598499
696.30 6.699684
696.40 6.807304
696.50 7.007106
696.60 7.05993
696.70 7.016881
696.80 7.081704
696.90 7.164765
697.00 7.105177
697.10 6.95927
697.20 6.704593
697.30 6.628181
697.40 6.700059
697.50 6.704067
697.60 6.883034
697.70 7.353774
697.80 7.88825
697.90 8.122214
698.00 7.849696
698.10 7.483813
698.20 7.484329
698.30 7.775703
698.40 7.847277
698.50 7.649978
698.60 7.635418
698.70 7.889399
698.80 7.984629
698.90 7.819612
699.00 7.484094
699.10 7.419439
699.20 7.485559
699.30 7.35931
699.40 7.559776
699.50 7.868862
699.60 8.021598
699.70 8.040153
699.80 7.831396
699.90 7.536989
700.00 7.369025
700.10 7.545825
700.20 7.888492
700.30 8.093811
700.40 7.91378
700.50 7.538763
700.60 7.467227
700.70 7.806477
700.80 8.218567
700.90 8.413677
701.00 8.574742
701.10 8.681135
701.20 8.767616
701.30 8.720292
701.40 8.395027
701.50 8.448399
701.60 8.944605
701.70 9.251762
701.80 9.246405
701.90 9.172126
702.00 9.415908
702.10 9.817421
702.20 9.713306
702.30 9.346903
702.40 9.151276
702.50 8.93066
702.60 8.986999
702.70 9.118794
702.80 9.715511
702.90 10.57301
703.00 10.85706
703.10 10.94844
703.20 10.93869
703.30 10.81089
703.40 10.83961
703.50 11.06549
703.60 11.51308
703.70 11.98855
703.80 12.25238
703.90 12.343
704.00 12.25905
704.10 12.2954
704.20 12.33173
704.30 12.41338
704.40 12.6273
704.50 12.84127
704.60 13.06335
704.70 13.12995
704.80 13.05525
704.90 12.96046
705.00 13.03214
705.10 13.47167
705.20 13.68086
705.30 13.11826
705.40 11.75003
705.50 9.63112
705.60 7.256317
705.70 5.347888
705.80 4.32352
705.90 4.211667
706.00 4.417225
706.10 4.257467
706.20 4.038091
706.30 3.921913
706.40 3.882504
706.50 3.947544
706.60 4.179125
706.70 4.5262
706.80 4.815238
706.90 4.803013
707.00 4.781368
707.10 4.908742
707.20 5.072261
707.30 5.251596
707.40 5.228144
707.50 5.123534
707.60 5.047595
707.70 4.970624
707.80 5.060094
707.90 5.298654
708.00 5.31552
708.10 5.063772
708.20 5.209536
708.30 5.654882
708.40 5.917664
708.50 5.928414
708.60 5.779535
708.70 5.510444
708.80 5.11578
708.90 4.641377
709.00 3.993851
709.10 3.47319
709.20 3.356237
709.30 3.3874
709.40 3.353653
709.50 3.319611
709.60 3.318892
709.70 3.361705
709.80 3.471722
709.90 3.607283
710.00 3.625826
710.10 3.572626
710.20 3.614475
710.30 3.654011
710.40 3.7771
710.50 3.943163
710.60 4.041153
710.70 4.037748
710.80 4.029081
710.90 4.179137
711.00 4.43441
711.10 4.668508
711.20 4.687567
711.30 4.493091
711.40 4.391002
711.50 4.56745
711.60 4.689927
711.70 4.58201
711.80 4.608793
711.90 4.828516
712.00 5.148834
712.10 5.35208
712.20 5.288486
712.30 5.269938
712.40 5.212202
712.50 4.813819
712.60 4.250871
712.70 3.705973
712.80 3.285513
712.90 3.101082
713.00 2.997311
713.10 3.028617
713.20 3.133535
713.30 3.143242
713.40 3.112848
713.50 3.163661
713.60 3.320384
713.70 3.348383
713.80 3.054578
713.90 2.947178
714.00 3.108213
714.10 3.254046
714.20 3.424654
714.30 3.532246
714.40 3.509848
714.50 3.495907
714.60 3.544475
714.70 3.680209
714.80 3.928299
714.90 3.886254
715.00 3.618576
715.10 3.557679
715.20 3.705544
715.30 3.783427
715.40 3.871366
715.50 4.048268
715.60 4.303654
715.70 4.492583
715.80 4.358492
715.90 4.033968
716.00 3.960245
716.10 4.079033
716.20 3.940569
716.30 3.628262
716.40 3.451416
716.50 3.644193
716.60 4.040431
716.70 4.176791
716.80 4.084635
716.90 3.951943
717.00 3.946896
717.10 4.183576
717.20 4.247282
717.30 4.189719
717.40 4.104585
717.50 3.991444
717.60 4.075782
717.70 4.199197
717.80 4.410786
717.90 4.505067
718.00 4.624156
718.10 4.953444
718.20 5.034509
718.30 5.012817
718.40 4.998959
718.50 5.083819
718.60 5.251508
718.70 5.243378
718.80 5.243078
718.90 5.389317
719.00 5.563209
719.10 5.76811
719.20 5.831421
719.30 5.731842
719.40 5.68142
719.50 5.703489
719.60 5.704225
719.70 5.477343
719.80 5.236953
719.90 5.022399
720.00 4.688936
720.10 4.443655
720.20 4.578537
720.30 4.894121
720.40 4.968079
720.50 4.863101
720.60 4.777006
720.70 4.929763
720.80 5.018388
720.90 4.869546
721.00 4.73606
721.10 4.895585
721.20 5.174457
721.30 5.30901
721.40 5.399448
721.50 5.434361
721.60 5.454564
721.70 5.420316
721.80 5.383966
721.90 5.423554
722.00 5.38705
722.10 5.413084
722.20 5.581579
722.30 5.764034
722.40 5.943955
722.50 6.038658
722.60 6.134111
722.70 6.324514
722.80 6.535476
722.90 6.677726
723.00 6.603514
723.10 6.336612
723.20 6.279924
723.30 6.416672
723.40 6.437613
723.50 6.519256
723.60 6.655482
723.70 6.777769
723.80 6.989899
723.90 7.055185
724.00 7.068762
724.10 7.275285
724.20 7.087096
724.30 6.98394
724.40 7.145812
724.50 7.282688
724.60 7.568113
724.70 8.022203
724.80 8.454929
724.90 8.262677
725.00 8.125171
725.10 8.603131
725.20 9.079523
725.30 9.067712
725.40 8.750749
725.50 8.688412
725.60 8.953841
725.70 9.243087
725.80 9.409431
725.90 9.374788
726.00 9.223645
726.10 9.223781
726.20 9.548106
726.30 10.0212
726.40 10.34745
726.50 10.65022
726.60 10.8654
726.70 10.80328
726.80 10.74921
726.90 10.66512
727.00 10.37107
727.10 9.967376
727.20 9.436754
727.30 8.961534
727.40 8.824388
727.50 9.465967
727.60 10.62355
727.70 11.39324
727.80 11.29945
727.90 10.46853
728.00 10.46289
728.10 11.12442
728.20 11.07853
728.30 10.67362
728.40 10.4992
728.50 10.82839
728.60 11.52381
728.70 11.59433
728.80 11.37955
728.90 11.76939
729.00 12.02981
729.10 11.98113
729.20 11.92896
729.30 12.05018
729.40 12.38014
729.50 12.73751
729.60 13.14124
729.70 13.72208
729.80 14.07521
729.90 13.73608
730.00 13.32596
730.10 13.64221
730.20 14.20116
730.30 14.45029
730.40 14.79528
730.50 15.11741
730.60 14.9303
730.70 14.88917
730.80 15.41285
730.90 16.00623
731.00 16.23181
731.10 16.02839
731.20 15.75289
731.30 15.7188
731.40 15.87076
731.50 16.16202
731.60 16.6403
731.70 16.91786
731.80 16.7406
731.90 16.63076
732.00 17.40683
732.10 18.21075
732.20 18.18002
732.30 17.93805
732.40 17.89945
732.50 17.99923
732.60 17.95412
732.70 17.71859
732.80 17.95281
732.90 18.55163
733.00 18.60145
733.10 18.38706
733.20 18.34605
733.30 18.34958
733.40 18.30412
733.50 18.30502
733.60 18.762
733.70 19.55946
733.80 20.16954
733.90 20.55392
734.00 20.44986
734.10 20.80546
734.20 21.53528
734.30 20.77723
734.40 19.92059
734.50 19.60055
734.60 18.89318
734.70 18.32143
734.80 18.14012
734.90 18.5445
735.00 19.21942
735.10 19.64885
735.20 19.95742
735.30 20.25026
735.40 20.3265
735.50 19.9376
735.60 19.27176
735.70 18.72356
735.80 18.91544
735.90 19.66187
736.00 20.12184
736.10 20.16519
736.20 20.14334
736.30 20.55334
736.40 21.315
736.50 21.95908
736.60 22.23439
736.70 22.13503
736.80 22.42842
736.90 23.0552
737.00 23.43494
737.10 23.56143
737.20 23.35652
737.30 22.97981
737.40 22.40232
737.50 21.51516
737.60 20.82066
737.70 20.84363
737.80 21.3129
737.90 21.8642
738.00 22.08035
738.10 21.91226
738.20 21.78078
738.30 22.02864
738.40 22.3984
738.50 22.45291
738.60 22.35159
738.70 22.38488
738.80 22.72778
738.90 23.49208
739.00 24.20426
739.10 24.55767
739.20 24.41801
739.30 23.64805
739.40 22.52463
739.50 21.51532
739.60 20.87515
739.70 20.80238
739.80 21.32854
739.90 22.03686
740.00 22.52871
740.10 22.9156
740.20 23.33175
740.30 23.73187
740.40 23.558
740.50 22.41672
740.60 20.9775
740.70 20.47109
740.80 20.67578
740.90 20.77984
741.00 21.20617
741.10 21.93315
741.20 22.37673
741.30 22.42498
741.40 22.47474
741.50 22.83698
741.60 23.17653
741.70 22.86239
741.80 21.73911
741.90 20.67604
742.00 20.02852
742.10 19.94403
742.20 20.45268
742.30 20.93731
742.40 21.3004
742.50 21.90027
742.60 22.38676
742.70 22.61967
742.80 22.63756
742.90 22.48703
743.00 22.68972
743.10 23.02379
743.20 23.04183
743.30 23.12155
743.40 23.14057
743.50 22.23307
743.60 20.81535
743.70 19.85796
743.80 19.92672
743.90 21.12849
744.00 22.38543
744.10 22.56421
744.20 21.96439
744.30 21.47282
744.40 21.13876
744.50 20.81819
744.60 20.49935
744.70 20.34102
744.80 20.24279
744.90 20.16007
745.00 20.41711
745.10 20.91185
745.20 21.59024
745.30 22.12026
745.40 22.08173
745.50 21.72393
745.60 21.4233
745.70 21.19483
745.80 20.99188
745.90 20.85002
746.00 20.79404
746.10 20.97184
746.20 21.32464
746.30 21.86035
746.40 22.37669
746.50 22.4573
746.60 22.37688
746.70 22.32724
746.80 22.22374
746.90 22.11717
747.00 22.20759
747.10 22.69752
747.20 23.21772
747.30 23.2768
747.40 22.43862
747.50 21.35288
747.60 21.1791
747.70 21.64938
747.80 22.21151
747.90 22.72356
748.00 22.855
748.10 22.6344
748.20 22.6704
748.30 22.87885
748.40 23.31879
748.50 24.0147
748.60 24.04467
748.70 23.53027
748.80 23.12218
748.90 23.09116
749.00 23.3121
749.10 23.4914
749.20 23.54869
749.30 23.31836
749.40 22.79578
749.50 22.27658
749.60 22.09619
749.70 22.38144
749.80 23.04891
749.90 23.83209
750.00 24.54752
750.10 24.94426
750.20 24.90759
750.30 24.82084
750.40 24.8472
750.50 24.59025
750.60 23.9365
750.70 23.48119
750.80 23.57148
750.90 24.14839
751.00 25.04299
751.10 25.73518
751.20 26.02092
751.30 25.87062
751.40 25.35553
751.50 24.94164
751.60 24.7556
751.70 24.98502
751.80 25.34764
751.90 25.17768
752.00 24.78919
752.10 24.72354
752.20 24.60315
752.30 24.64471
752.40 25.20503
752.50 25.4911
752.60 25.7821
752.70 25.83486
752.80 24.78488
752.90 23.98449
753.00 24.04121
753.10 24.89558
753.20 26.11431
753.30 26.40778
753.40 25.93012
753.50 25.5932
753.60 25.40982
753.70 25.54141
753.80 26.28433
753.90 27.30891
754.00 28.32016
754.10 28.79477
754.20 28.59749
754.30 28.38256
754.40 28.42514
754.50 28.65486
754.60 28.79837
754.70 28.54045
754.80 28.05366
754.90 27.57961
755.00 27.19157
755.10 27.17461
755.20 27.83805
755.30 28.52939
755.40 28.67319
755.50 28.40878
755.60 28.18383
755.70 28.26416
755.80 28.36641
755.90 28.61745
756.00 29.03595
756.10 29.23441
756.20 29.19247
756.30 29.03998
756.40 28.82883
756.50 28.43686
756.60 28.04113
756.70 27.67932
756.80 27.13193
756.90 26.51213
757.00 26.16535
757.10 26.66513
757.20 28.21425
757.30 29.89357
757.40 30.42025
757.50 29.94806
757.60 29.60058
757.70 29.31097
757.80 28.47289
757.90 27.69481
758.00 27.79768
758.10 28.90911
758.20 30.49961
758.30 31.6182
758.40 31.93041
758.50 31.65197
758.60 30.89133
758.70 29.81729
758.80 27.92334
758.90 24.51893
759.00 20.44164
759.10 16.96461
759.20 14.62426
759.30 13.73943
759.40 14.02298
759.50 14.82223
759.60 15.4884
759.70 15.52236
759.80 15.36071
759.90 15.9126
760.00 16.90966
760.10 16.91079
760.20 15.87304
760.30 15.12743
760.40 15.46474
760.50 16.43956
760.60 16.87506
760.70 16.64995
760.80 16.56583
760.90 16.73444
761.00 17.01113
761.10 17.13978
761.20 17.16482
761.30 17.43444
761.40 18.28287
761.50 19.42611
761.60 19.85672
761.70 19.85897
761.80 19.95861
761.90 20.0073
762.00 20.39333
762.10 20.54437
762.20 19.79313
762.30 19.2882
762.40 19.39191
762.50 19.3684
762.60 18.90605
762.70 17.54837
762.80 15.72919
762.90 14.15621
763.00 12.57716
763.10 11.33253
763.20 11.11597
763.30 11.46784
763.40 11.94604
763.50 12.2058
763.60 12.03414
763.70 11.96882
763.80 12.15056
763.90 12.18456
764.00 12.17583
764.10 11.88714
764.20 11.408
764.30 11.42329
764.40 11.72196
764.50 11.93273
764.60 11.53864
764.70 10.73873
764.80 10.67214
764.90 11.06301
765.00 11.07952
765.10 10.76985
765.20 10.35756
765.30 10.29028
765.40 10.40283
765.50 9.817256
765.60 8.767918
765.70 8.21758
765.80 8.197634
765.90 8.150118
766.00 7.650161
766.10 6.888545
766.20 6.249134
766.30 5.613892
766.40 5.135078
766.50 4.84315
766.60 4.480088
766.70 4.325731
766.80 4.341274
766.90 4.383257
767.00 4.797435
767.10 5.46015
767.20 5.937621
767.30 6.043906
767.40 6.092608
767.50 6.270808
767.60 6.617118
767.70 7.081253
767.80 7.303669
767.90 7.405081
768.00 7.604103
768.10 7.713723
768.20 7.67832
768.30 7.715871
768.40 7.986022
768.50 8.341712
768.60 8.549774
768.70 8.539606
768.80 8.473278
768.90 8.416044
769.00 8.388101
769.10 8.449916
769.20 8.359912
769.30 8.138343
769.40 7.808084
769.50 7.267106
769.60 6.805477
769.70 6.309209
769.80 5.643841
769.90 4.971437
770.00 4.380455
770.10 4.188651
770.20 4.405287
770.30 4.833278
770.40 5.542949
770.50 6.281272
770.60 6.795058
770.70 7.176077
770.80 7.341189
770.90 7.638009
771.00 8.285283
771.10 8.674947
771.20 8.758684
771.30 8.937279
771.40 9.332288
771.50 9.723333
771.60 9.775581
771.70 10.02165
771.80 10.51995
771.90 10.2562
772.00 10.14556
772.10 10.78318
772.20 11.35202
772.30 11.66961
772.40 11.5786
772.50 11.68047
772.60 12.14953
772.70 12.54703
772.80 12.82838
772.90 13.09491
773.00 13.24565
773.10 13.30527
773.20 13.47454
773.30 13.67955
773.40 13.99363
773.50 14.31035
773.60 14.33704
773.70 14.38063
773.80 14.77645
773.90 15.16458
774.00 15.27438
774.10 15.232
774.20 15.19209
774.30 15.03355
774.40 14.3864
774.50 13.41659
774.60 12.71282
774.70 12.39038
774.80 12.1293
774.90 11.9408
775.00 11.57296
775.10 10.98243
775.20 10.74057
775.30 10.38398
775.40 10.18389
775.50 10.7895
775.60 11.4274
775.70 11.63916
775.80 11.66987
775.90 11.86932
776.00 12.06217
776.10 12.2422
776.20 12.52923
776.30 12.49502
776.40 12.1664
776.50 12.01988
776.60 12.1304
776.70 12.37599
776.80 12.8884
776.90 13.47693
777.00 13.66863
777.10 13.56281
777.20 13.51866
777.30 13.70634
777.40 14.1172
777.50 14.39305
777.60 14.35231
777.70 14.30093
777.80 14.13726
777.90 13.99612
778.00 14.21827
778.10 14.45138
778.20 14.4515
778.30 14.12997
778.40 13.40637
778.50 12.8191
778.60 12.63507
778.70 12.59876
778.80 12.60064
778.90 12.63412
779.00 12.89101
779.10 13.34314
779.20 13.5107
779.30 13.3401
779.40 13.69995
779.50 14.58368
779.60 15.04973
779.70 15.03985
779.80 14.50183
779.90 13.4585
780.00 12.2214
780.10 11.17996
780.20 11.07101
780.30 11.9975
780.40 13.54956
780.50 15.37123
780.60 16.87578
780.70 17.77708
780.80 18.16505
780.90 17.98914
781.00 17.55956
781.10 17.254
781.20 16.90964
781.30 16.96842
781.40 17.86717
781.50 18.81518
781.60 19.25285
781.70 19.32185
781.80 19.23763
781.90 19.21079
782.00 19.04017
782.10 18.63694
782.20 17.61632
782.30 16.04177
782.40 15.42557
782.50 16.01498
782.60 17.00084
782.70 17.60859
782.80 17.03431
782.90 15.86166
783.00 14.80221
783.10 14.1011
783.20 13.93058
783.30 14.31843
783.40 14.99282
783.50 15.5268
783.60 15.84934
783.70 16.01375
783.80 16.16192
783.90 16.42764
784.00 16.55952
784.10 16.59483
784.20 16.72033
784.30 16.65312
784.40 16.59644
784.50 16.87719
784.60 17.40338
784.70 17.99579
784.80 18.17662
784.90 17.8976
785.00 17.41208
785.10 16.89934
785.20 16.87612
785.30 17.42986
785.40 17.96934
785.50 18.09689
785.60 18.19703
785.70 18.30727
785.80 18.34164
785.90 18.62868
786.00 18.63452
786.10 18.24492
786.20 18.19693
786.30 18.1141
786.40 17.45677
786.50 16.97566
786.60 16.90405
786.70 16.72847
786.80 16.67859
786.90 16.76156
787.00 17.04202
787.10 17.42711
787.20 17.27147
787.30 16.59983
787.40 16.04294
787.50 16.17123
787.60 16.85247
787.70 17.53185
787.80 18.20277
787.90 19.2495
788.00 19.96442
788.10 19.91482
788.20 19.5555
788.30 19.17004
788.40 19.53424
788.50 20.18092
788.60 20.36305
788.70 20.44023
788.80 20.34927
788.90 20.39367
789.00 20.71547
789.10 20.84484
789.20 20.83229
789.30 20.91655
789.40 21.2351
789.50 21.60745
789.60 21.49442
789.70 20.72054
789.80 19.81051
789.90 19.09417
790.00 18.37302
790.10 17.78361
790.20 17.62154
790.30 17.93727
790.40 18.81053
790.50 19.75343
790.60 20.29957
790.70 20.50787
790.80 20.12396
790.90 18.90799
791.00 17.49775
791.10 16.35872
791.20 15.38691
791.30 15.44256
791.40 16.64992
791.50 17.90161
791.60 18.61474
791.70 18.40004
791.80 17.65703
791.90 17.0736
792.00 16.58385
792.10 16.43875
792.20 17.05858
792.30 17.80484
792.40 17.80505
792.50 17.53595
792.60 17.79138
792.70 18.24026
792.80 18.46682
792.90 18.43821
793.00 18.31561
793.10 18.66756
793.20 19.57189
793.30 20.56361
793.40 21.25933
793.50 21.35801
793.60 21.20997
793.70 21.27279
793.80 21.4796
793.90 21.54685
794.00 20.88938
794.10 19.50358
794.20 18.2059
794.30 17.5785
794.40 17.91362
794.50 18.70389
794.60 18.93108
794.70 18.28908
794.80 17.09562
794.90 15.89424
795.00 15.66868
795.10 16.82324
795.20 18.41956
795.30 19.94465
795.40 21.23101
795.50 21.79861
795.60 21.93089
795.70 22.03667
795.80 22.13797
795.90 21.96245
796.00 21.37984
796.10 20.66787
796.20 19.84692
796.30 19.15507
796.40 19.19868
796.50 19.95051
796.60 20.94654
796.70 21.85022
796.80 22.26648
796.90 22.38539
797.00 22.7575
797.10 23.37074
797.20 24.02997
797.30 24.40726
797.40 24.03722
797.50 23.0402
797.60 21.95238
797.70 21.21939
797.80 20.82234
797.90 20.63594
798.00 20.7113
798.10 20.96739
798.20 21.2125
798.30 21.21439
798.40 20.85115
798.50 20.36263
798.60 19.97583
798.70 19.59556
798.80 19.18809
798.90 19.11196
799.00 19.69206
799.10 20.66724
799.20 21.65888
799.30 22.46619
799.40 22.65427
799.50 22.00198
799.60 21.22298
799.70 21.27656
799.80 21.78688
799.90 21.92358
800.00 21.87661
800.10 22.06558
800.20 22.46698
800.30 22.82396
800.40 23.13489
800.50 23.46364
800.60 23.67808
800.70 23.83613
800.80 24.16967
800.90 24.73604
801.00 25.1329
801.10 25.09754
801.20 24.99012
801.30 25.06332
801.40 25.30857
801.50 25.57798
801.60 25.74794
801.70 26.12479
801.80 26.72686
801.90 27.12701
802.00 27.34352
802.10 27.44199
802.20 27.33369
802.30 27.17635
802.40 27.19886
802.50 27.66707
802.60 28.58954
802.70 29.50878
802.80 29.74471
802.90 29.33743
803.00 29.32299
803.10 29.85658
803.20 30.25385
803.30 30.33895
803.40 30.19477
803.50 30.08828
803.60 30.16256
803.70 30.28274
803.80 30.43359
803.90 30.52007
804.00 30.29571
804.10 29.97825
804.20 30.04828
804.30 30.38818
804.40 30.92966
804.50 31.65397
804.60 31.95141
804.70 31.81287
804.80 31.5832
804.90 31.10918
805.00 31.19361
805.10 32.46813
805.20 33.94424
805.30 35.19425
805.40 36.19284
805.50 36.42862
805.60 36.24527
805.70 36.13211
805.80 35.97213
805.90 35.93985
806.00 36.27196
806.10 36.81974
806.20 37.27865
806.30 37.26366
806.40 36.79694
806.50 36.44928
806.60 36.21686
806.70 36.37134
806.80 37.23319
806.90 37.73259
807.00 37.51888
807.10 37.20671
807.20 37.04653
807.30 37.49418
807.40 38.62971
807.50 39.69223
807.60 40.15252
807.70 40.33477
807.80 40.57165
807.90 40.94343
808.00 41.35157
808.10 41.62571
808.20 41.96518
808.30 42.39592
808.40 42.72143
808.50 43.10503
808.60 43.59109
808.70 43.71217
808.80 43.30727
808.90 42.72899
809.00 42.3046
809.10 42.37547
809.20 42.89159
809.30 43.55784
809.40 44.19871
809.50 44.45004
809.60 44.18755
809.70 43.60974
809.80 42.92378
809.90 42.55279
810.00 42.67837
810.10 42.94253
810.20 43.25843
810.30 43.61367
810.40 43.64231
810.50 43.37858
810.60 43.4198
810.70 44.07572
810.80 45.09232
810.90 46.05868
811.00 46.65583
811.10 46.7483
811.20 46.53575
811.30 46.57324
811.40 47.16786
811.50 47.67774
811.60 47.48163
811.70 46.77675
811.80 46.07979
811.90 46.23998
812.00 47.55295
812.10 49.11581
812.20 50.03943
812.30 50.17547
812.40 49.85147
812.50 49.5617
812.60 49.63295
812.70 50.08785
812.80 50.79248
812.90 51.44567
813.00 51.73059
813.10 51.5846
813.20 51.18207
813.30 51.05603
813.40 51.43084
813.50 51.89356
813.60 52.20994
813.70 52.31509
813.80 52.49842
813.90 53.40199
814.00 54.62725
814.10 54.77272
814.20 53.4997
814.30 51.7853
814.40 50.34229
814.50 49.56853
814.60 49.83192
814.70 50.61537
814.80 50.96376
814.90 50.75187
815.00 50.20025
815.10 49.7318
815.20 50.17705
815.30 51.41171
815.40 52.47362
815.50 52.61011
815.60 51.99178
815.70 51.56688
815.80 51.67376
815.90 51.95977
816.00 51.89093
816.10 51.40185
816.20 51.02099
816.30 51.11505
816.40 51.85108
816.50 52.95801
816.60 53.79121
816.70 54.01581
816.80 54.01267
816.90 54.58057
817.00 55.47959
817.10 55.9228
817.20 55.89021
817.30 55.59548
817.40 55.12873
817.50 54.54291
817.60 54.20378
817.70 54.04631
817.80 53.27376
817.90 51.96494
818.00 50.28377
818.10 47.64737
818.20 43.88385
818.30 38.60918
818.40 32.66865
818.50 29.28761
818.60 30.17762
818.70 34.32683
818.80 39.65605
818.90 43.85118
819.00 45.84457
819.10 46.13308
819.20 45.12557
819.30 42.4973
819.40 37.9453
819.50 32.09134
819.60 27.12981
819.70 25.31312
819.80 27.21073
819.90 31.17832
820.00 35.00438
820.10 38.27186
820.20 40.99443
820.30 43.2865
820.40 45.46216
820.50 46.58094
820.60 45.96639
820.70 44.15986
820.80 42.08271
820.90 41.08862
821.00 41.77369
821.10 43.33624
821.20 44.97053
821.30 46.07382
821.40 46.22788
821.50 45.60047
821.60 44.86409
821.70 44.62222
821.80 44.94742
821.90 45.70627
822.00 46.60054
822.10 47.39398
822.20 48.19117
822.30 48.92721
822.40 49.48038
822.50 49.94847
822.60 50.42467
822.70 50.84409
822.80 51.02736
822.90 51.12799
823.00 51.63072
823.10 52.74997
823.20 53.97429
823.30 54.24026
823.40 53.20162
823.50 51.68383
823.60 50.72199
823.70 50.84114
823.80 51.88156
823.90 53.29171
824.00 54.60729
824.10 55.61
824.20 56.17746
824.30 56.05131
824.40 55.10689
824.50 53.95641
824.60 53.48761
824.70 54.19187
824.80 56.08613
824.90 57.94085
825.00 58.19422
825.10 56.93728
825.20 54.94517
825.30 52.75915
825.40 51.11602
825.50 50.20235
825.60 49.63037
825.70 49.19878
825.80 49.01276
825.90 49.32424
826.00 50.16285
826.10 51.45497
826.20 52.94019
826.30 54.09115
826.40 54.79205
826.50 55.1008
826.60 55.03484
826.70 55.22993
826.80 55.79526
826.90 55.91679
827.00 55.25231
827.10 53.75664
827.20 51.74699
827.30 50.00895
827.40 48.804
827.50 48.13969
827.60 48.18668
827.70 48.83739
827.80 49.89122
827.90 50.88516
828.00 51.17552
828.10 50.8442
828.20 49.80358
828.30 48.18553
828.40 47.03221
828.50 46.38895
828.60 46.11491
828.70 46.57262
828.80 47.27436
828.90 47.2464
829.00 46.10539
829.10 44.28878
829.20 42.62517
829.30 42.10088
829.40 42.84549
829.50 43.86528
829.60 44.4568
829.70 44.81474
829.80 45.42462
829.90 45.75636
830.00 45.04691
830.10 44.00354
830.20 42.96016
830.30 41.91579
830.40 40.87142
830.50 40.59656
830.60 40.32169
830.70 40.69175
830.80 41.06181
830.90 42.15703
831.00 43.25224
831.10 43.73705
831.20 44.22186
831.30 44.10591
831.40 43.98997
831.50 43.6767
831.60 43.36342
831.70 44.26355
831.80 45.16367
831.90 45.7568
832.00 46.34994
832.10 46.69979
832.20 47.04963
832.30 47.60475
832.40 48.15986
832.50 48.35049
832.60 48.54113
832.70 47.29844
832.80 46.05576
832.90 45.08872
833.00 44.12168
833.10 45.68031
833.20 47.23894
833.30 47.91465
833.40 48.59036
833.50 47.04825
833.60 45.50614
833.70 44.74991
833.80 43.99367
833.90 44.56512
834.00 45.13656
834.10 45.76155
834.20 46.38653
834.30 47.29732
834.40 48.20812
834.50 47.41682
834.60 46.62553
834.70 45.01607
834.80 43.40661
834.90 43.86115
835.00 44.31569
835.10 45.1959
835.20 46.07612
835.30 46.06941
835.40 46.06269
835.50 45.93211
835.60 45.80153
835.70 45.73499
835.80 45.66846
835.90 46.61771
836.00 47.56696
836.10 47.93271
836.20 48.29846
836.30 47.58962
836.40 46.88079
836.50 46.26482
836.60 45.64886
836.70 46.3401
836.80 47.03135
836.90 48.69074
837.00 50.35014
837.10 51.24714
837.20 52.14413
837.30 50.15331
837.40 48.16248
837.50 46.24009
837.60 44.3177
837.70 43.91098
837.80 43.50426
837.90 44.36718
838.00 45.2301
838.10 45.9745
838.20 46.71891
838.30 46.59211
838.40 46.46532
838.50 45.76203
838.60 45.05874
838.70 43.62468
838.80 42.19062
838.90 40.8909
839.00 39.59118
839.10 40.54262
839.20 41.49405
839.30 42.52486
839.40 43.55566
839.50 43.74104
839.60 43.92642
839.70 44.13784
839.80 44.34925
839.90 44.77406
840.00 45.19887
840.10 46.57458
840.20 47.45693
840.30 47.76808
840.40 47.84572
840.50 47.99138
840.60 48.25677
840.70 48.52111
840.80 48.8317
840.90 49.13534
841.00 49.3831
841.10 49.55687
841.20 49.06231
841.30 47.83738
841.40 46.83231
841.50 47.93994
841.60 49.07776
841.70 49.95023
841.80 50.56884
841.90 50.34191
842.00 49.38936
842.10 48.32712
842.20 46.80759
842.30 45.33761
842.40 45.73296
842.50 46.58378
842.60 46.95062
842.70 46.76176
842.80 46.47937
842.90 45.87657
843.00 45.33695
843.10 45.64524
843.20 46.10088
843.30 44.80903
843.40 41.95134
843.50 38.78022
843.60 34.78628
843.70 30.88469
843.80 30.59289
843.90 30.94173
844.00 32.61796
844.10 35.13828
844.20 36.5307
844.30 34.63692
844.40 32.65874
844.50 30.47044
844.60 28.26138
844.70 27.38119
844.80 27.29631
844.90 27.5133
845.00 28.4305
845.10 29.27527
845.20 28.19312
845.30 26.99981
845.40 25.36062
845.50 23.35853
845.60 22.009
845.70 22.14166
845.80 22.29794
845.90 22.33034
846.00 22.35673
846.10 22.89125
846.20 23.69715
846.30 24.34322
846.40 24.59138
846.50 24.77149
846.60 24.25966
846.70 23.85132
846.80 23.56934
846.90 23.08671
847.00 22.89201
847.10 23.60137
847.20 24.28189
847.30 24.13425
847.40 23.92513
847.50 23.76988
847.60 23.66253
847.70 24.05235
847.80 25.23212
847.90 26.31065
848.00 26.3144
848.10 26.33027
848.20 26.24458
848.30 26.12326
848.40 26.1729
848.50 26.48694
848.60 26.81773
848.70 27.17938
848.80 27.51979
848.90 28.03772
849.00 28.64791
849.10 29.36367
849.20 30.08937
849.30 30.74448
849.40 31.01274
849.50 31.26097
849.60 30.26802
849.70 28.93372
849.80 27.84225
849.90 27.12189
850.00 26.64409
850.10 26.9029
850.20 27.1099
850.30 28.06337
850.40 29.32356
850.50 29.42211
850.60 28.29447
850.70 27.13615
850.80 26.22703
850.90 25.38429
851.00 25.67743
851.10 26.0418
851.20 26.74468
851.30 27.64844
851.40 28.19844
851.50 27.98416
851.60 27.77839
851.70 26.97763
851.80 26.18029
851.90 25.55919
852.00 24.89766
852.10 24.4046
852.20 24.39637
852.30 24.39262
852.40 25.00618
852.50 25.60099
852.60 26.52944
852.70 27.67848
852.80 28.54058
852.90 28.93702
853.00 29.30999
853.10 29.2806
853.20 29.2246
853.30 29.45104
853.40 29.76881
853.50 30.06681
853.60 30.52519
853.70 30.96083
853.80 30.86204
853.90 30.69751
854.00 30.59798
854.10 30.60646
854.20 30.6648
854.30 30.84638
854.40 31.04266
854.50 31.1725
854.60 31.29764
854.70 31.94661
854.80 32.85614
854.90 33.56111
855.00 33.90742
855.10 34.28665
855.20 34.90078
855.30 35.51498
855.40 35.73744
855.50 35.82138
855.60 36.03283
855.70 36.57986
855.80 36.93854
855.90 35.94853
856.00 34.8879
856.10 34.03446
856.20 33.30208
856.30 33.13665
856.40 33.41997
856.50 33.88815
856.60 34.95195
856.70 35.98896
856.80 36.49056
856.90 36.95498
857.00 36.87004
857.10 36.45556
857.20 35.97686
857.30 35.2846
857.40 34.60196
857.50 34.774
857.60 34.95186
857.70 35.32446
857.80 35.92102
857.90 36.52074
858.00 37.07587
858.10 37.57354
858.20 36.82289
858.30 35.99208
858.40 35.81089
858.50 36.06692
858.60 36.42258
858.70 36.76819
858.80 37.11027
858.90 37.20993
859.00 37.3594
859.10 37.37845
859.20 37.39493
859.30 37.29255
859.40 36.99424
859.50 36.74393
859.60 37.50181
859.70 38.17419
859.80 38.69753
859.90 39.24609
860.00 39.52755
860.10 39.35259
860.20 39.20851
860.30 39.13663
860.40 38.99254
860.50 39.45903
860.60 40.40307
860.70 41.19154
860.80 41.41026
860.90 41.55723
861.00 41.17742
861.10 40.78931
861.20 40.48384
861.30 40.17931
861.40 39.64017
861.50 38.88016
861.60 38.21095
861.70 37.7563
861.80 37.24907
861.90 37.38724
862.00 37.72533
862.10 38.19189
862.20 38.6241
862.30 39.00811
862.40 39.16877
862.50 39.28237
862.60 38.16151
862.70 36.9745
862.80 36.61199
862.90 36.66452
863.00 36.53462
863.10 36.19894
863.20 35.91303
863.30 36.47261
863.40 37.02715
863.50 37.41995
863.60 37.79788
863.70 38.06037
863.80 38.01876
863.90 37.97195
864.00 37.90207
864.10 37.85207
864.20 37.80706
864.30 37.90664
864.40 38.33204
864.50 39.10032
864.60 39.77152
864.70 39.05574
864.80 38.53115
864.90 38.04947
865.00 37.38817
865.10 37.2814
865.20 38.24798
865.30 39.19966
865.40 39.81136
865.50 40.36921
865.60 41.091
865.70 41.8331
865.80 42.14617
865.90 41.97068
866.00 41.71578
866.10 40.85762
866.20 39.98783
866.30 39.3867
866.40 38.91226
866.50 39.29929
866.60 40.57001
866.70 41.76272
866.80 42.24082
866.90 42.67513
867.00 42.54136
867.10 42.19364
867.20 41.72422
867.30 41.48533
867.40 41.49373
867.50 42.03505
867.60 42.45917
867.70 42.7766
867.80 43.06657
867.90 43.33711
868.00 43.77101
868.10 44.08398
868.20 44.25704
868.30 44.4335
868.40 43.71721
868.50 42.74984
868.60 42.71483
868.70 43.49132
868.80 43.77755
868.90 42.82253
869.00 41.81642
869.10 40.53382
869.20 39.40147
869.30 38.51057
869.40 37.68551
869.50 36.81765
869.60 35.71471
869.70 34.66913
869.80 35.49842
869.90 36.38359
870.00 36.72769
870.10 36.72745
870.20 36.95374
870.30 37.56331
870.40 38.17923
870.50 38.79238
870.60 39.44172
870.70 40.27558
870.80 41.09676
870.90 40.96781
871.00 39.94393
871.10 38.99357
871.20 38.51048
871.30 37.92542
871.40 37.82824
871.50 38.05111
871.60 38.21844
871.70 38.0247
871.80 37.74956
871.90 37.34372
872.00 37.0102
872.10 37.40441
872.20 37.92184
872.30 38.34767
872.40 38.77936
872.50 39.18187
872.60 39.36416
872.70 39.54453
872.80 41.40174
872.90 43.46658
873.00 44.56028
873.10 44.92046
873.20 44.78627
873.30 43.60487
873.40 42.45391
873.50 41.68603
873.60 40.93116
873.70 40.92992
873.80 41.44715
873.90 41.85968
874.00 41.82314
874.10 41.79404
874.20 42.78014
874.30 43.79502
874.40 45.26944
874.50 46.9007
874.60 48.07525
874.70 48.50359
874.80 48.76846
874.90 47.14228
875.00 45.57272
875.10 45.00909
875.20 44.77025
875.30 45.2933
875.40 46.63523
875.50 47.86284
875.60 48.41388
875.70 49.02658
875.80 49.1017
875.90 48.81774
876.00 49.17085
876.10 50.34224
876.20 51.28121
876.30 50.8767
876.40 50.44522
876.50 49.09892
876.60 47.56105
876.70 46.54734
876.80 45.8818
876.90 45.58057
877.00 46.69422
877.10 47.88486
877.20 49.98993
877.30 52.19979
877.40 54.10521
877.50 55.67833
877.60 57.08961
877.70 58.24324
877.80 59.38223
877.90 57.08154
878.00 54.46636
878.10 52.54277
878.20 51.10789
878.30 50.58475
878.40 51.67479
878.50 52.71986
878.60 53.71197
878.70 54.65127
878.80 54.57648
878.90 54.12676
879.00 54.02019
879.10 54.59786
879.20 55.21665
879.30 56.00815
879.40 56.75649
879.50 56.98034
879.60 56.94572
879.70 57.55789
879.80 59.02284
879.90 60.33597
880.00 60.27996
880.10 60.13743
880.20 56.99769
880.30 53.11817
880.40 50.46075
880.50 49.0206
880.60 48.06972
880.70 49.43223
880.80 50.74696
880.90 51.21707
881.00 51.65197
881.10 53.34461
881.20 55.74911
881.30 58.09812
881.40 60.01124
881.50 61.97117
881.60 63.11474
881.70 64.12843
881.80 64.86761
881.90 65.52988
882.00 65.89879
882.10 65.41961
882.20 64.886
882.30 62.29713
882.40 59.527
882.50 56.98603
882.60 54.66906
882.70 53.54964
882.80 54.50756
882.90 55.4256
883.00 57.05495
883.10 58.74376
883.20 60.53958
883.30 62.45891
883.40 63.66562
883.50 63.79935
883.60 63.91803
883.70 64.24348
883.80 64.55157
883.90 65.15832
884.00 65.68604
884.10 66.01662
884.20 66.49526
884.30 66.94428
884.40 66.65236
884.50 66.23472
884.60 64.31383
884.70 62.13735
884.80 60.16412
884.90 58.4953
885.00 57.24473
885.10 57.58721
885.20 57.85439
885.30 61.77885
885.40 66.32018
885.50 69.07898
885.60 70.61288
885.70 70.90815
885.80 67.4525
885.90 64.00227
886.00 59.87033
886.10 55.55577
886.20 51.18042
886.30 46.82637
886.40 44.06281
886.50 44.8962
886.60 45.7737
886.70 48.99905
886.80 52.17688
886.90 51.96709
887.00 50.20735
887.10 47.58447
887.20 43.44676
887.30 39.34943
887.40 38.68596
887.50 38.0699
887.60 38.93764
887.70 40.26547
887.80 42.08362
887.90 44.58565
888.00 46.9963
888.10 48.52391
888.20 50.04197
888.30 49.36786
888.40 48.14384
888.50 46.97791
888.60 45.81199
888.70 44.86442
888.80 45.00738
888.90 45.28179
889.00 47.25474
889.10 49.29601
889.20 50.37327
889.30 50.92028
889.40 51.19363
889.50 50.5202
889.60 49.8504
889.70 48.23354
889.80 46.32875
889.90 45.65894
890.00 45.9094
890.10 46.95131
890.20 49.9853
890.30 52.99137
890.40 54.7599
890.50 56.32518
890.60 57.17513
890.70 57.79301
890.80 57.75737
890.90 56.64441
891.00 55.56017
891.10 54.42573
891.20 53.10341
891.30 52.45655
891.40 52.19684
891.50 52.89496
891.60 55.01479
891.70 56.9964
891.80 56.97985
891.90 56.92717
892.00 57.70957
892.10 58.84435
892.20 59.33326
892.30 59.00209
892.40 58.52916
892.50 57.24924
892.60 55.9705
892.70 55.51533
892.80 55.16102
892.90 55.08743
893.00 55.47571
893.10 56.25958
893.20 58.67577
893.30 61.04191
893.40 62.97955
893.50 64.8818
893.60 65.29987
893.70 64.60387
893.80 62.92317
893.90 58.56377
894.00 54.25641
894.10 52.57199
894.20 51.06941
894.30 51.11273
894.40 52.04071
894.50 52.42893
894.60 51.68149
894.70 51.00091
894.80 52.95666
894.90 54.89039
895.00 55.75155
895.10 56.18327
895.20 56.13934
895.30 55.40685
895.40 54.67322
895.50 54.77548
895.60 54.88045
895.70 56.287
895.80 58.08731
895.90 59.26963
896.00 59.72446
896.10 60.03035
896.20 59.208
896.30 58.39007
896.40 58.27632
896.50 58.48642
896.60 58.34102
896.70 57.6184
896.80 56.90068
896.90 56.37254
897.00 55.8368
897.10 57.14828
897.20 58.83826
897.30 59.75005
897.40 59.89727
897.50 60.3215
897.60 61.72817
897.70 63.17282
897.80 64.45506
897.90 65.78343
898.00 65.39294
898.10 63.74052
898.20 62.24891
898.30 61.31116
898.40 60.49879
898.50 63.04149
898.60 65.53857
898.70 67.48525
898.80 69.34944
898.90 69.97133
899.00 68.53286
899.10 67.10317
899.20 66.26898
899.30 65.31535
899.40 64.87035
899.50 64.58959
899.60 64.16402
899.70 63.77783
899.80 63.37426
899.90 62.51664
900.00 61.56049
900.10 60.9098
900.20 60.34242
900.30 61.53029
900.40 64.28295
900.50 66.93464
900.60 69.33448
900.70 71.69743
900.80 71.32219
900.90 70.73739
901.00 69.66094
901.10 67.9225
901.20 66.86377
901.30 67.99976
901.40 69.20328
901.50 69.45884
901.60 69.56147
901.70 69.00248
901.80 68.11189
901.90 67.11989
902.00 66.10308
902.10 65.0963
902.20 63.98584
902.30 62.81856
902.40 61.67526
902.50 60.47809
902.60 59.48757
902.70 58.95063
902.80 58.47814
902.90 58.58742
903.00 58.67577
903.10 59.68575
903.20 61.09304
903.30 62.56434
903.40 64.06011
903.50 65.57138
903.60 66.93652
903.70 68.26774
903.80 69.44035
903.90 70.63915
904.00 71.47555
904.10 72.10252
904.20 72.39701
904.30 71.35434
904.40 70.24908
904.50 69.51951
904.60 68.88891
904.70 69.55894
904.80 71.17814
904.90 72.69869
905.00 73.99384
905.10 75.25488
905.20 73.14252
905.30 70.90808
905.40 69.56242
905.50 68.71759
905.60 68.02486
905.70 67.43995
905.80 66.81768
905.90 66.70829
906.00 66.63243
906.10 66.90333
906.20 67.32499
906.30 68.10121
906.40 69.41259
906.50 70.54625
906.60 69.15218
906.70 67.68445
906.80 66.47593
906.90 65.47479
907.00 64.84885
907.10 64.49987
907.20 64.4031
907.30 65.76643
907.40 67.21006
907.50 67.812
907.60 68.19675
907.70 68.83305
907.80 69.45304
907.90 70.42995
908.00 72.96343
908.10 75.57745
908.20 76.06483
908.30 76.21339
908.40 75.19365
908.50 73.40085
908.60 72.22903
908.70 72.60522
908.80 72.97744
908.90 72.62742
909.00 72.06575
909.10 71.6422
909.20 71.49036
909.30 71.8344
909.40 73.06772
909.50 74.28263
909.60 75.18987
909.70 76.09089
909.80 76.43957
909.90 76.49781
910.00 76.73528
910.10 77.42694
910.20 78.00254
910.30 77.45974
910.40 76.89883
910.50 75.9285
910.60 74.76562
910.70 73.54154
910.80 72.56773
910.90 72.08598
911.00 73.89492
911.10 75.60397
911.20 77.14069
911.30 78.67234
911.40 79.63869
911.50 80.27789
911.60 80.46525
911.70 79.12857
911.80 77.73251
911.90 77.36919
912.00 77.20798
912.10 77.78389
912.20 78.83821
912.30 79.53662
912.40 79.30412
912.50 79.04736
912.60 78.60841
912.70 78.18144
912.80 78.1063
912.90 78.22678
913.00 78.59261
913.10 79.17311
913.20 79.73695
913.30 81.02035
913.40 82.38391
913.50 83.22257
913.60 83.74544
913.70 83.25856
913.80 81.79124
913.90 80.18267
914.00 77.82703
914.10 75.55806
914.20 74.54456
914.30 73.649
914.40 74.3173
914.50 76.232
914.60 78.0918
914.70 79.72098
914.80 81.33609
914.90 80.25643
915.00 78.92249
915.10 77.74433
915.20 76.55571
915.30 76.29812
915.40 78.462
915.50 80.6889
915.60 84.11013
915.70 87.38415
915.80 88.5479
915.90 88.9438
916.00 88.62924
916.10 87.11474
916.20 85.58746
916.30 83.4423
916.40 81.25207
916.50 81.23157
916.60 82.04624
916.70 83.23184
916.80 84.75932
916.90 86.12038
917.00 86.40056
917.10 86.79073
917.20 86.54257
917.30 86.00563
917.40 85.04589
917.50 83.75301
917.60 82.66528
917.70 82.56149
917.80 82.46321
917.90 82.7451
918.00 83.06338
918.10 83.65269
918.20 84.56057
918.30 85.279
918.40 85.40307
918.50 85.50396
918.60 84.30965
918.70 83.05859
918.80 83.74949
918.90 85.1645
919.00 87.27855
919.10 91.14833
919.20 94.99481
919.30 93.53919
919.40 92.11395
919.50 89.51349
919.60 86.20863
919.70 84.74991
919.80 86.02944
919.90 87.33139
920.00 88.8243
920.10 90.36932
920.20 89.90378
920.30 88.73649
920.40 88.19036
920.50 88.47579
920.60 88.53454
920.70 87.60598
920.80 86.69497
920.90 83.17436
921.00 79.04299
921.10 76.82568
921.20 76.43726
921.30 76.53791
921.40 77.74631
921.50 78.84818
921.60 79.18154
921.70 79.55795
921.80 79.91067
921.90 80.32341
922.00 80.24913
922.10 79.32688
922.20 78.47376
922.30 77.9101
922.40 77.26242
922.50 76.52247
922.60 75.80295
922.70 75.69668
922.80 76.52754
922.90 77.34849
923.00 77.43147
923.10 77.39087
923.20 75.36298
923.30 72.72946
923.40 71.16479
923.50 71.22927
923.60 71.50516
923.70 72.54165
923.80 73.45032
923.90 73.48135
924.00 73.33379
924.10 73.69701
924.20 74.49571
924.30 75.63179
924.40 77.7366
924.50 79.78942
924.60 79.05057
924.70 78.00012
924.80 76.5227
924.90 74.563
925.00 73.14941
925.10 73.20733
925.20 73.31192
925.30 73.18535
925.40 73.01584
925.50 73.5957
925.60 74.58004
925.70 76.27092
925.80 79.02225
925.90 81.65075
926.00 81.23565
926.10 80.82263
926.20 79.62201
926.30 78.25216
926.40 77.53877
926.50 77.60842
926.60 77.96682
926.70 80.52195
926.80 83.09909
926.90 83.77066
927.00 83.94877
927.10 83.55477
927.20 82.62688
927.30 81.54313
927.40 79.86168
927.50 78.16897
927.60 76.37879
927.70 74.66666
927.80 72.9267
927.90 71.02984
928.00 69.895
928.10 70.95877
928.20 72.03182
928.30 73.1643
928.40 74.3741
928.50 75.98658
928.60 77.80178
928.70 78.44856
928.80 76.86833
928.90 75.29209
929.00 75.06236
929.10 74.8402
929.20 74.12268
929.30 73.16663
929.40 72.78703
929.50 73.14507
929.60 73.52999
929.70 74.31462
929.80 75.13654
929.90 74.10579
930.00 72.64241
930.10 71.18818
930.20 69.41565
930.30 68.11188
930.40 68.96189
930.50 69.86378
930.60 70.02565
930.70 70.1136
930.80 70.32539
930.90 70.58143
931.00 71.13196
931.10 72.44258
931.20 73.80338
931.30 75.21466
931.40 76.589
931.50 76.70318
931.60 76.22901
931.70 75.33081
931.80 74.49122
931.90 73.8581
932.00 73.33243
932.10 73.76995
932.20 74.11378
932.30 74.20775
932.40 74.3174
932.50 74.38995
932.60 74.02432
932.70 73.58007
932.80 73.24631
932.90 73.3858
933.00 73.55066
933.10 73.73463
933.20 73.77358
933.30 73.81052
933.40 73.90364
933.50 73.93756
933.60 73.75495
933.70 73.88676
933.80 74.28808
933.90 74.97955
934.00 75.66223
934.10 76.14763
934.20 76.12201
934.30 75.18401
934.40 74.46921
934.50 74.69275
934.60 75.27108
934.70 75.85173
934.80 76.74481
934.90 77.67618
935.00 78.18227
935.10 76.934
935.20 75.6861
935.30 74.775
935.40 74.39332
935.50 74.01856
935.60 73.84275
935.70 73.76612
935.80 73.70109
935.90 74.81457
936.00 75.96135
936.10 77.19268
936.20 78.66363
936.30 80.12395
936.40 80.37417
936.50 79.5704
936.60 78.77461
936.70 78.32344
936.80 77.91738
936.90 77.39194
937.00 76.12132
937.10 74.85044
937.20 73.98493
937.30 73.74095
937.40 73.51683
937.50 73.63945
937.60 74.0836
937.70 74.55928
937.80 74.80624
937.90 75.03076
938.00 75.21458
938.10 75.15768
938.20 75.09579
938.30 75.18162
938.40 75.42115
938.50 75.67923
938.60 75.91076
938.70 76.16621
938.80 76.45309
938.90 77.01918
939.00 77.58521
939.10 78.08412
939.20 78.39486
939.30 78.69862
939.40 78.76518
939.50 78.71508
939.60 78.64346
939.70 77.3932
939.80 76.04031
939.90 75.09517
940.00 75.61502
940.10 76.14049
940.20 76.52433
940.30 76.76501
940.40 76.99161
940.50 77.81927
940.60 78.82389
940.70 79.85619
940.80 81.08246
940.90 82.30782
941.00 83.1266
941.10 83.11926
941.20 83.09012
941.30 82.53742
941.40 81.67655
941.50 80.81334
941.60 79.54622
941.70 78.23358
941.80 77.16637
941.90 77.06126
942.00 76.95259
942.10 77.26495
942.20 78.06637
942.30 78.86878
942.40 79.10559
942.50 79.18216
942.60 79.25595
942.70 78.59235
942.80 77.92887
942.90 77.94146
943.00 79.35005
943.10 80.77884
943.20 82.00064
943.30 83.12437
943.40 84.21555
943.50 84.22132
943.60 84.09651
943.70 83.85085
943.80 82.89986
943.90 81.94812
944.00 80.85604
944.10 79.68522
944.20 78.52466
944.30 78.07623
944.40 77.84721
944.50 77.60851
944.60 78.11246
944.70 78.61584
944.80 79.09579
944.90 79.49647
945.00 79.89936
945.10 80.41797
945.20 80.9373
945.30 81.43995
945.40 81.01554
945.50 80.48182
945.60 80.07654
945.70 80.24347
945.80 80.40577
945.90 80.21715
946.00 79.66646
946.10 79.13749
946.20 79.90262
946.30 81.12469
946.40 82.38269
946.50 82.43487
946.60 82.48994
946.70 82.52892
946.80 82.77119
946.90 83.01894
947.00 83.41656
947.10 83.85582
947.20 84.27901
947.30 84.37962
947.40 84.45656
947.50 84.64345
947.60 85.30055
947.70 85.95737
947.80 86.36008
947.90 86.51925
948.00 86.68572
948.10 87.12033
948.20 87.57952
948.30 88.01073
948.40 88.77388
948.50 89.53688
948.60 89.94653
948.70 89.59279
948.80 89.23107
948.90 89.28842
949.00 89.58921
949.10 89.90938
949.20 90.10561
949.30 90.289
949.40 90.21359
949.50 88.8692
949.60 87.52444
949.70 86.96393
949.80 87.49716
949.90 88.06918
950.00 88.50521
950.10 88.80943
950.20 89.09732
950.30 89.73598
950.40 90.37642
950.50 90.54136
950.60 89.79259
950.70 89.0553
950.80 88.89105
950.90 89.12274
951.00 89.36928
951.10 89.43113
951.20 89.47159
951.30 89.3802
951.40 88.53699
951.50 87.69316
951.60 86.98319
951.70 86.50385
951.80 86.02324
951.90 85.65026
952.00 85.32685
952.10 85.03767
952.20 85.81644
952.30 86.59454
952.40 87.66376
952.50 89.26397
952.60 90.86171
952.70 91.87647
952.80 92.50244
952.90 93.09632
953.00 92.79288
953.10 92.37283
953.20 91.94541
953.30 91.42953
953.40 90.91349
953.50 89.97376
953.60 88.55296
953.70 87.13108
953.80 86.98871
953.90 87.26671
954.00 87.53536
954.10 87.05718
954.20 86.57725
954.30 86.22627
954.40 86.18243
954.50 86.12485
954.60 86.43692
954.70 87.00476
954.80 87.60519
954.90 87.8245
955.00 87.9822
955.10 88.15543
955.20 88.31754
955.30 88.47521
955.40 88.75091
955.50 89.16674
955.60 89.58827
955.70 90.59814
955.80 91.78605
955.90 92.93439
956.00 93.56668
956.10 94.1996
956.20 94.21223
956.30 93.05624
956.40 91.8877
956.50 91.19002
956.60 90.73997
956.70 90.3279
956.80 91.26434
956.90 92.349
957.00 93.30527
957.10 93.94949
957.20 94.59796
957.30 94.51511
957.40 93.6279
957.50 92.71635
957.60 91.58575
957.70 90.37209
957.80 89.17987
957.90 88.62623
958.00 88.07158
958.10 88.01783
958.20 88.72243
958.30 89.41416
958.40 89.83781
958.50 90.12357
958.60 90.4086
958.70 89.55654
958.80 88.61814
958.90 87.4045
959.00 85.4329
959.10 83.46874
959.20 82.92973
959.30 83.7758
959.40 84.64667
959.50 85.36087
959.60 86.03153
959.70 86.41967
959.80 84.51006
959.90 82.6025
960.00 81.14586
960.10 80.50051
960.20 79.9095
960.30 81.11401
960.40 83.21219
960.50 85.36577
960.60 86.65645
960.70 87.89745
960.80 88.84622
960.90 89.12596
961.00 89.39419
961.10 89.38363
961.20 89.15455
961.30 88.91676
961.40 88.18912
961.50 87.33124
961.60 86.54709
961.70 86.79415
961.80 87.04727
961.90 88.01506
962.00 89.94278
962.10 91.85553
962.20 92.52971
962.30 92.61664
962.40 92.65251
962.50 92.28917
962.60 91.91405
962.70 91.68328
962.80 91.71751
962.90 91.74501
963.00 91.49798
963.10 90.97036
963.20 90.42846
963.30 89.31593
963.40 88.14184
963.50 86.88879
963.60 85.11951
963.70 83.33484
963.80 80.63317
963.90 76.84826
964.00 73.13726
964.10 73.07688
964.20 74.50741
964.30 76.12693
964.40 79.23205
964.50 82.33933
964.60 84.48162
964.70 84.63592
964.80 84.77588
964.90 84.91914
965.00 85.10878
965.10 85.34089
965.20 85.46032
965.30 85.54535
965.40 85.66758
965.50 85.99727
965.60 86.32288
965.70 87.07893
965.80 88.40298
965.90 89.72914
966.00 90.84516
966.10 91.88305
966.20 92.913
966.30 93.31031
966.40 93.70771
966.50 93.77663
966.60 93.26683
966.70 92.74346
966.80 92.41295
966.90 92.20573
967.00 92.03639
967.10 91.91741
967.20 91.80111
967.30 91.47268
967.40 90.57226
967.50 89.65436
967.60 87.88212
967.70 85.30853
967.80 82.82666
967.90 83.30194
968.00 84.59211
968.10 86.08923
968.20 88.69892
968.30 91.30472
968.40 92.52989
968.50 91.56653
968.60 90.58968
968.70 89.26102
968.80 87.76762
968.90 86.24141
969.00 86.12812
969.10 86.10471
969.20 86.61093
969.30 88.4684
969.40 90.334
969.50 91.87613
969.60 93.08888
969.70 94.25602
969.80 94.58681
969.90 94.75812
970.00 94.93912
970.10 95.10242
970.20 95.26231
970.30 94.95971
970.40 94.0602
970.50 93.10405
970.60 90.86927
970.70 88.07476
970.80 85.36066
970.90 86.0809
971.00 86.86637
971.10 88.44905
971.20 91.56732
971.30 94.66231
971.40 96.73898
971.50 98.07093
971.60 99.36157
971.70 99.75288
971.80 100.0216
971.90 100.0578
972.00 99.02908
972.10 98.00127
972.20 96.99066
972.30 95.97744
972.40 94.99344
972.50 94.74222
972.60 94.74419
972.70 94.64053
972.80 93.03986
972.90 91.44282
973.00 89.63003
973.10 87.51183
973.20 85.4673
973.30 85.84327
973.40 87.70168
973.50 89.55603
973.60 90.3064
973.70 90.93097
973.80 91.39652
973.90 91.59408
974.00 91.79267
974.10 91.50386
974.20 90.69129
974.30 89.83158
974.40 88.06425
974.50 86.05873
974.60 84.29497
974.70 84.77683
974.80 85.26531
974.90 86.08928
975.00 87.25895
975.10 88.40051
975.20 89.27789
975.30 90.04217
975.40 90.80834
975.50 91.69459
975.60 92.57459
975.70 93.26666
975.80 93.58142
975.90 93.91051
976.00 94.08627
976.10 94.08491
976.20 94.04188
976.30 93.64902
976.40 93.19259
976.50 92.99355
976.60 94.13893
976.70 95.27877
976.80 95.8389
976.90 95.65747
977.00 95.42897
977.10 93.71823
977.20 91.43324
977.30 89.25173
977.40 90.14328
977.50 91.02855
977.60 92.19284
977.70 93.71866
977.80 95.22146
977.90 95.65643
978.00 95.38837
978.10 95.05379
978.20 93.3978
978.30 91.57898
978.40 89.61113
978.50 87.49861
978.60 85.42066
978.70 84.57175
978.80 84.91491
978.90 85.28592
979.00 86.22329
979.10 87.32105
979.20 88.59997
979.30 91.57292
979.40 94.54258
979.50 96.65993
979.60 97.36893
979.70 98.0313
979.80 98.25187
979.90 98.26744
980.00 98.31451
980.10 98.45456
980.20 98.60386
980.30 98.6825
980.40 98.57709
980.50 98.46974
980.60 98.10393
980.70 97.51438
980.80 96.92488
980.90 96.95964
981.00 97.1228
981.10 97.41104
981.20 98.41255
981.30 99.40893
981.40 99.20172
981.50 97.3909
981.60 95.56327
981.70 94.48713
981.80 93.72565
981.90 93.03884
982.00 93.98919
982.10 94.93961
982.20 95.49533
982.30 95.25195
982.40 95.01339
982.50 95.10469
982.60 95.42274
982.70 95.75414
982.80 95.97591
982.90 96.18097
983.00 96.19998
983.10 95.6113
983.20 95.02713
983.30 94.76432
983.40 94.82338
983.50 94.87579
983.60 94.43199
983.70 93.84345
983.80 93.3393
983.90 93.96319
984.00 94.59061
984.10 95.2642
984.20 95.91555
984.30 96.55613
984.40 96.54389
984.50 96.20846
984.60 95.87338
984.70 96.59585
984.80 97.36964
984.90 97.80507
985.00 97.24978
985.10 96.67969
985.20 95.86321
985.30 94.8748
985.40 93.92068
985.50 94.56036
985.60 95.49589
985.70 96.41854
985.80 97.07282
985.90 97.721
986.00 98.00396
986.10 97.86242
986.20 97.72394
986.30 97.7471
986.40 97.83231
986.50 97.95282
986.60 98.42308
986.70 98.89216
986.80 98.67037
986.90 97.15689
987.00 95.64746
987.10 94.87111
987.20 94.55656
987.30 94.31953
987.40 96.36805
987.50 98.63777
987.60 100.4682
987.70 100.7263
987.80 100.9667
987.90 100.0923
988.00 98.17203
988.10 96.26455
988.20 96.11901
988.30 96.40605
988.40 96.92098
988.50 99.05513
988.60 101.1865
988.70 102.4128
988.80 102.2689
988.90 102.1054
989.00 101.3345
989.10 100.2929
989.20 99.24303
989.30 97.97849
989.40 96.71179
989.50 94.83341
989.60 91.57845
989.70 88.28279
989.80 84.5404
989.90 80.53236
990.00 76.63037
990.10 75.19842
990.20 74.11745
990.30 72.81996
990.40 70.51534
990.50 68.1993
990.60 65.3848
990.70 62.05299
990.80 58.76017
990.90 57.88825
991.00 57.75798
991.10 57.78239
991.20 58.81887
991.30 59.84936
991.40 59.85624
991.50 58.13228
991.60 56.4091
991.70 55.59042
991.80 55.24703
991.90 55.00586
992.00 57.46582
992.10 60.05981
992.20 61.88473
992.30 61.53163
992.40 61.14711
992.50 60.11234
992.60 58.60293
992.70 57.18755
992.80 58.76569
992.90 60.87868
993.00 63.14798
993.10 66.11914
993.20 69.07273
993.30 70.24942
993.40 69.24088
993.50 68.21529
993.60 67.92805
993.70 67.90045
993.80 68.10758
993.90 71.84219
994.00 75.57374
994.10 78.36488
994.20 79.26513
994.30 80.11907
994.40 79.93321
994.50 79.17081
994.60 78.42358
994.70 78.65591
994.80 78.96369
994.90 79.58164
995.00 81.0657
995.10 82.54631
995.20 83.91659
995.30 85.20087
995.40 86.47774
995.50 86.80164
995.60 86.91491
995.70 86.64858
995.80 84.31222
995.90 81.98503
996.00 80.38044
996.10 79.70723
996.20 79.07157
996.30 80.24559
996.40 82.15754
996.50 84.13261
996.60 87.27149
996.70 90.41109
996.80 91.50478
996.90 88.32471
997.00 85.08329
997.10 80.97808
997.20 76.37668
997.30 71.8631
997.40 70.9135
997.50 70.31871
997.60 70.39828
997.70 72.65065
997.80 74.90578
997.90 76.9435
998.00 78.7557
998.10 80.55717
998.20 81.26301
998.30 81.69603
998.40 81.754
998.50 79.56191
998.60 77.3757
998.70 76.04189
998.80 75.94812
998.90 75.88926
999.00 75.64813
999.10 75.30223
999.20 74.93312
999.30 74.8067
999.40 74.68251
999.50 74.86577
999.60 75.70289
999.70 76.51335
999.80 76.65371
999.90 76.32528
1000.00 76.07566
1000.10 78.80479
1000.20 81.85058
1000.30 84.68271
1000.40 86.70132
1000.50 88.70189
1000.60 89.60522
1000.70 89.5399
1000.80 89.42048
1000.90 87.26968
1001.00 84.63541
1001.10 82.1162
1001.20 80.44356
1001.30 78.78521
1001.40 78.73976
1001.50 80.83571
1001.60 82.94485
1001.70 85.23483
1001.80 87.58361
1001.90 89.84853
1002.00 89.00114
1002.10 88.19199
1002.20 87.42415
1002.30 86.81338
1002.40 86.2405
1002.50 86.95718
1002.60 88.48132
1002.70 89.97628
1002.80 89.17474
1002.90 88.12615
1003.00 87.15309
1003.10 86.80184
1003.20 86.45601
1003.30 85.67668
1003.40 84.44894
1003.50 83.20642
1003.60 81.61808
1003.70 79.95637
1003.80 78.57703
1003.90 79.1732
1004.00 79.78059
1004.10 81.38621
1004.20 84.24516
1004.30 87.10412
1004.40 89.16878
1004.50 90.94262
1004.60 92.62181
1004.70 92.26036
1004.80 91.91521
1004.90 90.63358
1005.00 87.43645
1005.10 84.21702
1005.20 80.50502
1005.30 76.50108
1005.40 72.53569
1005.50 70.77182
1005.60 69.21089
1005.70 68.47033
1005.80 70.42757
1005.90 72.39721
1006.00 74.54308
1006.10 76.81113
1006.20 79.03953
1006.30 78.96583
1006.40 78.37075
1006.50 77.98019
1006.60 79.04817
1006.70 80.1239
1006.80 82.14079
1006.90 85.40969
1007.00 88.6446
1007.10 88.94419
1007.20 88.06579
1007.30 87.11648
1007.40 86.6928
1007.50 86.25519
1007.60 86.70489
1007.70 88.88824
1007.80 91.07043
1007.90 92.22066
1008.00 92.71238
1008.10 93.16778
1008.20 93.40481
1008.30 93.62457
1008.40 93.95605
1008.50 94.66543
1008.60 95.37923
1008.70 95.28392
1008.80 94.43063
1008.90 93.51228
1009.00 91.0603
1009.10 88.23686
1009.20 85.63429
1009.30 84.60279
1009.40 83.58181
1009.50 83.93872
1009.60 86.10956
1009.70 88.28761
1009.80 91.09401
1009.90 94.16113
1010.00 97.23384
1010.10 100.2372
1010.20 103.2507
1010.30 105.2028
1010.40 104.8648
1010.50 104.4891
1010.60 103.3433
1010.70 101.7349
1010.80 100.116
1010.90 98.50705
1011.00 96.91804
1011.10 95.11155
1011.20 92.49735
1011.30 89.89513
1011.40 88.30582
1011.50 87.66822
1011.60 87.03874
1011.70 86.07164
1011.80 85.0177
1011.90 84.23727
1012.00 85.40823
1012.10 86.59451
1012.20 89.18039
1012.30 93.5831
1012.40 97.94721
1012.50 100.4226
1012.60 102.1715
1012.70 103.8268
1012.80 102.4771
1012.90 101.1242
1013.00 100.1944
1013.10 100.1139
1013.20 100.0168
1013.30 98.96289
1013.40 97.35602
1013.50 95.66528
1013.60 91.00888
1013.70 86.02804
1013.80 81.9338
1013.90 81.00401
1014.00 80.10744
1014.10 80.97407
1014.20 83.40223
1014.30 85.856
1014.40 87.95543
1014.50 89.9781
1014.60 91.46787
1014.70 89.61657
1014.80 87.76613
1014.90 86.88898
1015.00 87.38164
1015.10 87.96852
1015.20 90.50197
1015.30 93.82477
1015.40 97.02776
1015.50 95.6423
1015.60 94.29592
1015.70 92.35635
1015.80 89.41368
1015.90 86.50863
1016.00 85.58353
1016.10 85.86907
1016.20 86.22149
1016.30 87.3864
1016.40 88.63644
1016.50 89.74434
1016.60 90.51296
1016.70 91.29286
1016.80 92.21654
1016.90 93.27131
1017.00 94.25812
1017.10 92.54909
1017.20 90.19574
1017.30 88.37174
1017.40 90.38035
1017.50 92.39929
1017.60 95.05152
1017.70 98.50598
1017.80 101.8605
1017.90 100.3755
1018.00 96.93209
1018.10 93.46197
1018.20 91.91299
1018.30 90.356
1018.40 88.90952
1018.50 87.50283
1018.60 86.10031
1018.70 85.47569
1018.80 85.33976
1018.90 85.29556
1019.00 87.5798
1019.10 90.09803
1019.20 92.26042
1019.30 93.2713
1019.40 94.25808
1019.50 94.50264
1019.60 94.05668
1019.70 93.63237
1019.80 93.84259
1019.90 94.20665
1020.00 94.43419
1020.10 93.78139
1020.20 93.13733
1020.30 92.98732
1020.40 93.51842
1020.50 94.06094
1020.60 94.89265
1020.70 95.82444
1020.80 96.74036
1020.90 96.7631
1021.00 96.80536
1021.10 96.32275
1021.20 94.69832
1021.30 93.03915
1021.40 90.87687
1021.50 88.43044
1021.60 86.01653
1021.70 84.4168
1021.80 82.90637
1021.90 81.57872
1022.00 80.88934
1022.10 80.21473
1022.20 80.68877
1022.30 81.78948
1022.40 82.98218
1022.50 85.82708
1022.60 88.86037
1022.70 91.24767
1022.80 91.7105
1022.90 92.16596
1023.00 91.91351
1023.10 91.05748
1023.20 90.17949
1023.30 89.55039
1023.40 88.90642
1023.50 88.65296
1023.60 90.89143
1023.70 93.12442
1023.80 94.73317
1023.90 95.41549
1024.00 96.07454
1024.10 97.2356
1024.20 98.62992
1024.30 100.0496
1024.40 99.75256
1024.50 99.51829
1024.60 98.61352
1024.70 96.52607
1024.80 94.4633
1024.90 93.2192
1025.00 92.44871
1025.10 91.64936
1025.20 89.56047
1025.30 87.36121
1025.40 85.80774
1025.50 86.34819
1025.60 86.91094
1025.70 87.50999
1025.80 88.16868
1025.90 88.72163
1026.00 85.93159
1026.10 82.37171
1026.20 79.09332
1026.30 77.99516
1026.40 76.88509
1026.50 77.10178
1026.60 78.90384
1026.70 80.76034
1026.80 84.31684
1026.90 88.59003
1027.00 92.77445
1027.10 93.7296
1027.20 94.74392
1027.30 94.863
1027.40 93.20501
1027.50 91.54099
1027.60 89.67335
1027.70 87.65432
1027.80 85.68562
1027.90 85.44689
1028.00 85.40112
1028.10 85.03068
1028.20 83.62632
1028.30 82.21835
1028.40 81.04852
1028.50 80.06822
1028.60 79.20112
1028.70 82.46208
1028.80 86.69441
1028.90 90.68448
1029.00 92.46649
1029.10 94.20896
1029.20 94.31673
1029.30 92.29931
1029.40 90.29549
1029.50 90.06947
1029.60 90.22443
1029.70 90.35698
1029.80 89.82644
1029.90 89.289
1030.00 88.62591
1030.10 87.98141
1030.20 87.34235
1030.30 87.43468
1030.40 87.74767
1030.50 88.14985
1030.60 90.9565
1030.70 93.71282
1030.80 95.24448
1030.90 94.50732
1031.00 93.74815
1031.10 93.14152
1031.20 92.575
1031.30 92.08044
1031.40 93.3685
1031.50 94.8541
1031.60 95.57328
1031.70 93.83288
1031.80 92.08076
1031.90 90.5274
1032.00 89.13515
1032.10 87.80129
1032.20 87.82568
1032.30 88.164
1032.40 88.23852
1032.50 86.56655
1032.60 84.90966
1032.70 85.25889
1032.80 88.23143
1032.90 91.24184
1033.00 94.59933
1033.10 98.10384
1033.20 101.5478
1033.30 102.4973
1033.40 103.5209
1033.50 102.8923
1033.60 98.94379
1033.70 94.97006
1033.80 91.59709
1033.90 88.59061
1034.00 85.68028
1034.10 85.93048
1034.20 86.4473
1034.30 86.65104
1034.40 85.78712
1034.50 84.92332
1034.60 84.62997
1034.70 84.81983
1034.80 85.1063
1034.90 86.85796
1035.00 89.03111
1035.10 90.41726
1035.20 89.08048
1035.30 87.74712
1035.40 87.66055
1035.50 88.75606
1035.60 89.85553
1035.70 90.89805
1035.80 91.90247
1035.90 93.04072
1036.00 95.17893
1036.10 97.31537
1036.20 99.02112
1036.30 100.0843
1036.40 101.1111
1036.50 101.2148
1036.60 100.9948
1036.70 100.7819
1036.80 101.1292
1036.90 101.4366
1037.00 102.2757
1037.10 104.1705
1037.20 106.0671
1037.30 107.4961
1037.40 108.6782
1037.50 109.8009
1037.60 107.9868
1037.70 105.9465
1037.80 103.3701
1037.90 99.1131
1038.00 94.86252
1038.10 91.5438
1038.20 88.9773
1038.30 86.52085
1038.40 87.79658
1038.50 89.88564
1038.60 92.05602
1038.70 94.58555
1038.80 97.117
1038.90 98.15277
1039.00 97.23322
1039.10 96.29909
1039.20 95.499
1039.30 94.73978
1039.40 93.97882
1039.50 93.12197
1039.60 92.26585
1039.70 91.76003
1039.80 91.99379
1039.90 92.26561
1040.00 93.17781
1040.10 94.26212
1040.20 95.39003
1040.30 97.52092
1040.40 99.71823
1040.50 101.4026
1040.60 101.9951
1040.70 102.5784
1040.80 103.1572
1040.90 103.7729
1041.00 104.3549
1041.10 102.3275
1041.20 100.0817
1041.30 97.7532
1041.40 95.21999
1041.50 92.71172
1041.60 92.72684
1041.70 94.9373
1041.80 97.2256
1041.90 100.745
1042.00 104.6311
1042.10 107.7519
1042.20 105.5197
1042.30 103.3194
1042.40 100.9565
1042.50 98.51497
1042.60 96.05788
1042.70 92.98528
1042.80 89.64589
1042.90 86.38087
1043.00 86.7282
1043.10 86.98406
1043.20 88.96674
1043.30 94.30539
1043.40 99.61794
1043.50 103.0216
1043.60 105.3681
1043.70 107.6091
1043.80 107.002
1043.90 106.0828
1044.00 105.4193
1044.10 105.6348
1044.20 105.8503
1044.30 105.7766
1044.40 105.5717
1044.50 105.3483
1044.60 105.0169
1044.70 104.6449
1044.80 104.4708
1044.90 104.7816
1045.00 105.0909
1045.10 107.0088
1045.20 110.3401
1045.30 113.6543
1045.40 115.9377
1045.50 118.0757
1045.60 119.9104
1045.70 119.5747
1045.80 119.286
1045.90 117.5462
1046.00 113.951
1046.10 110.3552
1046.20 106.9203
1046.30 103.4503
1046.40 100.028
1046.50 99.1069
1046.60 98.16275
1046.70 97.11174
1046.80 95.97923
1046.90 94.84897
1047.00 93.5588
1047.10 92.09635
1047.20 90.69304
1047.30 91.51755
1047.40 92.56851
1047.50 93.59846
1047.60 94.45005
1047.70 95.29675
1047.80 95.42285
1047.90 94.90978
1048.00 94.38212
1048.10 94.24161
1048.20 94.13359
1048.30 94.60287
1048.40 97.09848
1048.50 99.59042
1048.60 100.9673
1048.70 101.343
1048.80 101.6962
1048.90 101.5443
1049.00 101.2532
1049.10 101.0627
1049.20 101.7368
1049.30 102.4047
1049.40 102.6794
1049.50 102.4484
1049.60 102.1578
1049.70 99.78452
1049.80 96.62259
1049.90 93.57695
1050.00 94.55866
1050.10 95.46883
1050.20 96.62712
1050.30 98.08584
1050.40 99.50069
1050.50 99.82987
1050.60 99.55469
1050.70 99.268
1050.80 98.90035
1050.90 98.51215
1051.00 98.05102
1051.10 97.27041
1051.20 96.45603
1051.30 94.80461
1051.40 92.42051
1051.50 90.0819
1051.60 90.08297
1051.70 90.58958
1051.80 91.06715
1051.90 91.22325
1052.00 91.3782
1052.10 91.4631
1052.20 91.47315
1052.30 91.49965
1052.40 92.72017
1052.50 94.21758
1052.60 95.8899
1052.70 98.47331
1052.80 101.0498
1052.90 102.332
1053.00 101.9672
1053.10 101.5539
1053.20 100.4194
1053.30 98.96728
1053.40 97.58008
1053.50 98.77207
1053.60 99.93459
1053.70 100.6915
1053.80 100.6087
1053.90 100.5008
1054.00 99.68301
1054.10 98.41618
1054.20 97.21664
1054.30 98.39005
1054.40 99.81982
1054.50 100.46
1054.60 98.38181
1054.70 96.28396
1054.80 94.46526
1054.90 92.86951
1055.00 91.35395
1055.10 93.1749
1055.20 95.76904
1055.30 97.8623
1055.40 98.22421
1055.50 98.60099
1055.60 97.64132
1055.70 95.51196
1055.80 93.36922
1055.90 91.77315
1056.00 90.2323
1056.10 88.79376
1056.20 88.0398
1056.30 87.29968
1056.40 87.09539
1056.50 87.51458
1056.60 87.94909
1056.70 88.86221
1056.80 89.95265
1056.90 90.99991
1057.00 90.87278
1057.10 90.78865
1057.20 91.17791
1057.30 92.456
1057.40 93.74657
1057.50 94.82694
1057.60 95.76714
1057.70 96.67733
1057.80 96.52567
1057.90 96.29438
1058.00 96.17339
1058.10 96.41736
1058.20 96.66273
1058.30 96.6244
1058.40 96.36513
1058.50 96.03854
1058.60 94.44456
1058.70 92.71347
1058.80 91.28079
1058.90 90.75875
1059.00 90.24504
1059.10 90.08303
1059.20 90.17392
1059.30 90.26355
1059.40 91.20602
1059.50 92.33332
1059.60 93.48363
1059.70 94.51485
1059.80 95.52912
1059.90 95.60654
1060.00 94.54321
1060.10 93.47946
1060.20 92.95595
1060.30 92.67666
1060.40 92.39932
1060.50 91.42494
1060.60 90.47768
1060.70 89.51624
1060.80 88.35373
1060.90 87.20529
1061.00 87.07425
1061.10 87.57621
1061.20 88.13962
1061.30 89.90067
1061.40 91.76826
1061.50 93.33071
1061.60 94.49178
1061.70 95.62946
1061.80 95.647
1061.90 94.99469
1062.00 94.34751
1062.10 93.15173
1062.20 91.86224
1062.30 91.04731
1062.40 91.96151
1062.50 92.88097
1062.60 94.45024
1062.70 96.52771
1062.80 98.61041
1062.90 100.3758
1063.00 102.1254
1063.10 103.4968
1063.20 102.3443
1063.30 101.2121
1063.40 100.3448
1063.50 99.90779
1063.60 99.50626
1063.70 99.91482
1063.80 100.5546
1063.90 101.2292
1064.00 102.3148
1064.10 103.4241
1064.20 104.117
1064.30 103.957
1064.40 103.7841
1064.50 103.5154
1064.60 103.2655
1064.70 103.0186
1064.80 103.249
1064.90 103.4292
1065.00 103.58
1065.10 103.7706
1065.20 103.9416
1065.30 102.6824
1065.40 100.5226
1065.50 98.34151
1065.60 96.80498
1065.70 95.34588
1065.80 94.25698
1065.90 94.19797
1066.00 94.12048
1066.10 93.64654
1066.20 92.86627
1066.30 92.03438
1066.40 90.52225
1066.50 88.83157
1066.60 87.51111
1066.70 88.42636
1066.80 89.31541
1066.90 89.68545
1067.00 89.30732
1067.10 88.92312
1067.20 89.32231
1067.30 90.0286
1067.40 91.02114
1067.50 93.84234
1067.60 96.65713
1067.70 98.72711
1067.80 99.76162
1067.90 100.7849
1068.00 101.4485
1068.10 102.0244
1068.20 102.5956
1068.30 105.4822
1068.40 108.3294
1068.50 110.6735
1068.60 111.8936
1068.70 113.1025
1068.80 112.9461
1068.90 111.975
1069.00 110.9901
1069.10 110.3957
1069.20 109.7881
1069.30 109.0528
1069.40 107.9392
1069.50 106.8282
1069.60 104.7532
1069.70 101.7643
1069.80 98.80977
1069.90 98.64493
1070.00 99.05379
1070.10 99.23063
1070.20 98.59713
1070.30 97.97678
1070.40 97.88122
1070.50 98.26948
1070.60 98.7013
1070.70 100.592
1070.80 102.8559
1070.90 104.7473
1071.00 103.6429
1071.10 102.5483
1071.20 101.8642
1071.30 101.7067
1071.40 101.5899
1071.50 102.7566
1071.60 104.4495
1071.70 106.0626
1071.80 105.4762
1071.90 104.9305
1072.00 104.5885
1072.10 104.7169
1072.20 104.8405
1072.30 103.9519
1072.40 102.4918
1072.50 100.9796
1072.60 100.0159
1072.70 99.01518
1072.80 99.02767
1072.90 101.0596
1073.00 103.0906
1073.10 104.2615
1073.20 104.9899
1073.30 105.6618
1073.40 103.699
1073.50 101.4318
1073.60 99.76693
1073.70 100.2567
1073.80 100.746
1073.90 101.7758
1074.00 103.156
1074.10 104.5339
1074.20 105.8146
1074.30 107.1694
1074.40 108.2977
1074.50 107.9224
1074.60 107.54
1074.70 107.5367
1074.80 108.1739
1074.90 108.8136
1075.00 108.298
1075.10 107.324
1075.20 106.298
1075.30 104.6461
1075.40 103.0036
1075.50 102.1886
1075.60 102.2052
1075.70 102.2708
1075.80 103.991
1075.90 106.4234
1076.00 108.8188
1076.10 108.7114
1076.20 108.6554
1076.30 108.461
1076.40 107.9814
1076.50 107.5085
1076.60 107.1979
1076.70 106.9636
1076.80 106.7271
1076.90 107.4465
1077.00 108.2779
1077.10 108.8362
1077.20 108.4354
1077.30 108.0386
1077.40 107.34
1077.50 106.3699
1077.60 105.3692
1077.70 104.6212
1077.80 103.894
1077.90 103.459
1078.00 104.6199
1078.10 105.7623
1078.20 106.2725
1078.30 106.2294
1078.40 106.1685
1078.50 106.5091
1078.60 107.0041
1078.70 107.2483
1078.80 105.4522
1078.90 103.6581
1079.00 102.182
1079.10 101.174
1079.20 100.1794
1079.30 99.20753
1079.40 98.26158
1079.50 97.35969
1079.60 98.1742
1079.70 98.9165
1079.80 99.80057
1079.90 100.9501
1080.00 102.097
1080.10 102.902
1080.20 103.4968
1080.30 104.0768
1080.40 104.5095
1080.50 104.9503
1080.60 105.5366
1080.70 106.419
1080.80 107.2949
1080.90 107.8215
1081.00 108.0879
1081.10 108.3462
1081.20 108.3678
1081.30 108.4134
1081.40 108.5036
1081.50 108.6709
1081.60 108.8339
1081.70 109.6912
1081.80 111.1628
1081.90 112.6113
1082.00 112.3461
1082.10 111.764
1082.20 111.0695
1082.30 109.7721
1082.40 108.4699
1082.50 107.3285
1082.60 106.3623
1082.70 105.4131
1082.80 105.3487
1082.90 105.6266
1083.00 106.0101
1083.10 106.9636
1083.20 107.8368
1083.30 108.8473
1083.40 110.249
1083.50 111.6329
1083.60 111.6458
1083.70 111.1507
1083.80 110.6521
1083.90 110.458
1084.00 110.2431
1084.10 110.0396
1084.20 109.8803
1084.30 109.7165
1084.40 109.4854
1084.50 109.2741
1084.60 109.0242
1084.70 107.4592
1084.80 105.7047
1084.90 104.6351
1085.00 105.7218
1085.10 106.7939
1085.20 107.4815
1085.30 108.0852
1085.40 108.6208
1085.50 107.9728
1085.60 106.9643
1085.70 106.5234
1085.80 107.9788
1085.90 109.4296
1086.00 111.0067
1086.10 112.7651
1086.20 114.5161
1086.30 115.1868
1086.40 115.6445
1086.50 115.8603
1086.60 114.4777
1086.70 113.1011
1086.80 112.2845
1086.90 112.2739
1087.00 112.3094
1087.10 113.1243
1087.20 114.2367
1087.30 115.2926
1087.40 113.976
1087.50 112.7294
1087.60 111.5885
1087.70 110.6216
1087.80 109.7098
1087.90 110.3117
1088.00 111.5453
1088.10 112.7295
1088.20 111.6747
1088.30 110.6522
1088.40 110.0291
1088.50 110.1647
1088.60 110.3224
1088.70 110.5683
1088.80 110.8839
1088.90 111.1375
1089.00 110.7134
1089.10 110.2246
1089.20 109.8684
1089.30 110.0309
1089.40 110.2038
1089.50 110.1911
1089.60 109.8471
1089.70 109.5396
1089.80 111.0688
1089.90 113.0209
1090.00 114.7545
1090.10 115.6634
1090.20 116.589
1090.30 116.9575
1090.40 116.816
1090.50 116.6595
1090.60 115.8578
1090.70 114.995
1090.80 113.9833
1090.90 111.791
1091.00 109.592
1091.10 107.9496
1091.20 107.0157
1091.30 106.1342
1091.40 106.6626
1091.50 107.6837
1091.60 108.7461
1091.70 110.5881
1091.80 112.4339
1091.90 113.7043
1092.00 114.0442
1092.10 114.3636
1092.20 114.2079
1092.30 113.758
1092.40 113.346
1092.50 113.3305
1092.60 113.2998
1092.70 113.3515
1092.80 113.6483
1092.90 113.9447
1093.00 113.8523
1093.10 113.4666
1093.20 113.0777
1093.30 112.6808
1093.40 112.3238
1093.50 111.9909
1093.60 111.8833
1093.70 111.7877
1093.80 111.7071
1093.90 111.3332
1094.00 111.0193
1094.10 111.9379
1094.20 113.2191
1094.30 114.0991
1094.40 112.4094
1094.50 110.7834
1094.60 109.1907
1094.70 107.607
1094.80 106.0725
1094.90 107.5102
1095.00 109.4709
1095.10 111.483
1095.20 113.4849
1095.30 115.4807
1095.40 116.9082
1095.50 117.7367
1095.60 118.5255
1095.70 118.0088
1095.80 116.9725
1095.90 115.9374
1096.00 116.5631
1096.10 117.1471
1096.20 117.6385
1096.30 117.9047
1096.40 118.1694
1096.50 118.0099
1096.60 117.6054
1096.70 117.1608
1096.80 115.457
1096.90 113.6851
1097.00 111.6662
1097.10 109.126
1097.20 106.6032
1097.30 106.2298
1097.40 107.0381
1097.50 107.897
1097.60 108.9924
1097.70 110.0863
1097.80 111.2188
1097.90 112.6852
1098.00 114.1637
1098.10 114.7546
1098.20 114.4704
1098.30 114.1231
1098.40 113.3079
1098.50 112.4962
1098.60 111.7607
1098.70 111.1934
1098.80 110.5721
1098.90 110.3006
1099.00 110.5141
1099.10 110.7359
1099.20 111.3775
1099.30 112.0839
1099.40 112.841
1099.50 113.8574
1099.60 114.9132
1099.70 115.4337
1099.80 115.2967
1099.90 115.1647
1100.00 114.7516
1100.10 114.1798
1100.20 113.5946
1100.30 112.5384
1100.40 111.5159
1100.50 110.67
1100.60 110.1672
1100.70 109.6963
1100.80 110.155
1100.90 111.1942
1101.00 112.2196
1101.10 112.4581
1101.20 112.5794
1101.30 113.0786
1101.40 114.4761
1101.50 115.8737
1101.60 115.939
1101.70 115.2509
1101.80 114.5047
1101.90 112.5453
1102.00 110.4872
1102.10 108.5837
1102.20 107.1667
1102.30 105.7448
1102.40 104.9598
1102.50 104.5607
1102.60 104.2569
1102.70 106.496
1102.80 109.3744
1102.90 112.0028
1103.00 113.09
1103.10 114.232
1103.20 113.8846
1103.30 111.4969
1103.40 109.0646
1103.50 106.0722
1103.60 102.8596
1103.70 100.1626
1103.80 100.9786
1103.90 101.709
1104.00 102.8351
1104.10 104.6417
1104.20 106.4476
1104.30 106.7858
1104.40 106.4594
1104.50 106.1036
1104.60 106.7885
1104.70 107.4809
1104.80 108.1492
1104.90 108.9474
1105.00 109.7543
1105.10 108.8219
1105.20 106.7975
1105.30 104.6914
1105.40 102.2923
1105.50 99.86972
1105.60 98.40474
1105.70 98.50353
1105.80 98.57647
1105.90 99.26974
1106.00 100.5324
1106.10 101.7546
1106.20 101.8256
1106.30 101.7729
1106.40 101.9097
1106.50 102.6594
1106.60 103.3865
1106.70 103.4037
1106.80 102.9
1106.90 102.3663
1107.00 101.0533
1107.10 99.49981
1107.20 98.26535
1107.30 99.20949
1107.40 100.1264
1107.50 100.993
1107.60 101.9046
1107.70 102.7672
1107.80 103.0624
1107.90 103.1556
1108.00 103.3418
1108.10 103.933
1108.20 104.4985
1108.30 105.4788
1108.40 107.0859
1108.50 108.6837
1108.60 109.4991
1108.70 110.0825
1108.80 110.6109
1108.90 109.9843
1109.00 109.343
1109.10 108.7951
1109.20 108.4081
1109.30 108.0595
1109.40 108.469
1109.50 109.2937
1109.60 110.1071
1109.70 110.9297
1109.80 111.792
1109.90 112.0752
1110.00 111.2511
1110.10 110.4173
1110.20 108.696
1110.30 106.5384
1110.40 104.3833
1110.50 102.5977
1110.60 100.7607
1110.70 99.61313
1110.80 100.605
1110.90 101.573
1111.00 101.6715
1111.10 101.0201
1111.20 100.3519
1111.30 99.8397
1111.40 99.35041
1111.50 98.99449
1111.60 99.28136
1111.70 99.53794
1111.80 100.1009
1111.90 101.0387
1112.00 101.9463
1112.10 101.8373
1112.20 101.496
1112.30 101.2463
1112.40 101.5614
1112.50 101.8547
1112.60 102.7061
1112.70 104.3359
1112.80 105.9759
1112.90 107.3286
1113.00 108.5855
1113.10 109.7913
1113.20 109.6235
1113.30 109.4567
1113.40 109.1633
1113.50 108.6704
1113.60 108.1342
1113.70 106.7128
1113.80 104.8239
1113.90 103.0179
1114.00 103.9207
1114.10 104.7237
1114.20 105.774
1114.30 107.1257
1114.40 108.491
1114.50 109.7273
1114.60 110.8991
1114.70 111.9746
1114.80 110.5462
1114.90 108.9342
1115.00 107.5502
1115.10 107.1978
1115.20 106.8804
1115.30 107.3046
1115.40 108.4258
1115.50 109.5097
1115.60 109.6311
1115.70 109.4445
1115.80 109.1596
1115.90 107.9992
1116.00 106.8473
1116.10 105.9935
1116.20 105.5335
1116.30 105.0842
1116.40 104.9861
1116.50 104.9472
1116.60 104.9884
1116.70 105.8315
1116.80 106.6634
1116.90 106.4201
1117.00 104.6966
1117.10 102.966
1117.20 101.3592
1117.30 99.77731
1117.40 98.21809
1117.50 98.44157
1117.60 98.6557
1117.70 98.96138
1117.80 99.11377
1117.90 99.28734
1118.00 100.1008
1118.10 101.3741
1118.20 102.6211
1118.30 104.747
1118.40 106.8768
1118.50 108.6055
1118.60 109.2721
1118.70 109.896
1118.80 109.1367
1118.90 107.6761
1119.00 107.1672
1119.10 106.8385
1119.20 106.4698
1119.30 106.0534
1119.40 105.5132
1119.50 104.9601
1119.60 104.3915
1119.70 103.6597
1119.80 102.9263
1119.90 102.2668
1120.00 101.9439
1120.10 101.6223
1120.20 101.4811
1120.30 102.6125
1120.40 103.9666
1120.50 104.9788
1120.60 105.9924
1120.70 107.0068
1120.80 108.0914
1120.90 108.3516
1121.00 107.1134
1121.10 105.9313
1121.20 104.7429
1121.30 105.0507
1121.40 105.357
1121.50 105.6492
1121.60 104.5525
1121.70 103.1155
1121.80 101.7119
1121.90 100.6957
1122.00 100.0478
1122.10 99.2577
1122.20 99.00589
1122.30 99.92654
1122.40 100.755
1122.50 101.6402
1122.60 104.6885
1122.70 107.8298
1122.80 110.9335
1122.90 111.9217
1123.00 112.0645
1123.10 112.1909
1123.20 110.5885
1123.30 107.2618
1123.40 103.9396
1123.50 101.5558
1123.60 102.6013
1123.70 103.632
1123.80 104.5536
1123.90 105.8391
1124.00 107.1273
1124.10 108.4185
1124.20 109.1531
1124.30 109.6259
1124.40 110.098
1124.50 110.7283
1124.60 111.3966
1124.70 112.0678
1124.80 112.0115
1124.90 109.0153
1125.00 106.0237
1125.10 103.0006
1125.20 104.1566
1125.30 105.7733
1125.40 107.4413
1125.50 108.9615
1125.60 110.4643
1125.70 111.9578
1125.80 112.3707
1125.90 111.1968
1126.00 110.0264
1126.10 109.1158
1126.20 109.1712
1126.30 109.2258
1126.40 109.2395
1126.50 109.6227
1126.60 110.0536
1126.70 110.4899
1126.80 110.25
1126.90 109.7179
1127.00 109.1855
1127.10 108.8897
1127.20 108.8055
1127.30 108.7241
1127.40 108.6236
1127.50 108.1474
1127.60 107.6708
1127.70 107.156
1127.80 107.4717
1127.90 107.8813
1128.00 108.2816
1128.10 108.4171
1128.20 108.4587
1128.30 108.5043
1128.40 108.7327
1128.50 109.1457
1128.60 109.5581
1128.70 109.9187
1128.80 109.3375
1128.90 108.759
1129.00 108.1299
1129.10 107.5297
1129.20 106.9455
1129.30 106.3858
1129.40 106.6188
1129.50 107.3067
1129.60 107.9908
1129.70 108.9901
1129.80 110.5602
1129.90 112.1307
1130.00 113.4245
1130.10 112.3766
1130.20 111.3402
1130.30 110.3198
1130.40 108.9547
1130.50 107.5415
1130.60 106.1347
1130.70 105.2038
1130.80 104.6386
1130.90 104.0734
1131.00 103.8802
1131.10 104.6639
1131.20 105.4466
1131.30 106.2488
1131.40 106.8866
1131.50 107.5262
1131.60 108.1445
1131.70 108.6156
1131.80 109.0622
1131.90 109.5046
1132.00 109.6081
1132.10 109.3819
1132.20 109.1565
1132.30 109.035
1132.40 109.1635
1132.50 109.291
1132.60 109.3297
1132.70 109.0832
1132.80 108.8365
1132.90 108.612
1133.00 108.1978
1133.10 107.728
1133.20 107.2543
1133.30 106.6508
1133.40 105.9255
1133.50 105.1995
1133.60 104.2705
1133.70 102.8157
1133.80 101.3611
1133.90 99.8722
1134.00 98.58837
1134.10 97.30496
1134.20 96.04181
1134.30 96.77658
1134.40 98.00566
1134.50 99.25641
1134.60 100.6638
1134.70 102.0848
1134.80 103.5008
1134.90 104.6563
1135.00 105.7067
1135.10 106.7654
1135.20 107.9071
1135.30 107.036
1135.40 106.168
1135.50 105.2743
1135.60 103.0628
1135.70 100.5332
1135.80 98.01767
1135.90 97.91932
1136.00 100.0589
1136.10 102.1948
1136.20 103.677
1136.30 103.9757
1136.40 104.2812
1136.50 104.6719
1136.60 103.504
1136.70 102.3372
1136.80 101.1586
1136.90 100.1444
1137.00 99.17047
1137.10 98.20535
1137.20 97.03558
1137.30 95.7323
1137.40 94.43136
1137.50 93.34062
1137.60 92.52424
1137.70 91.71692
1137.80 90.93756
1137.90 86.68552
1138.00 82.44731
1138.10 78.16624
1138.20 74.35082
1138.30 70.65084
1138.40 67.0024
1138.50 66.70868
1138.60 70.29494
1138.70 73.85651
1138.80 77.61078
1138.90 81.57019
1139.00 85.54657
1139.10 89.64574
1139.20 90.84666
1139.30 92.06293
1139.40 93.24887
1139.50 92.54084
1139.60 91.35479
1139.70 90.15706
1139.80 88.91529
1139.90 87.57376
1140.00 86.24089
1140.10 84.2483
1140.20 79.55202
1140.30 74.86849
1140.40 70.0724
1140.50 65.8466
1140.60 61.58793
1140.70 57.35951
1140.80 58.71563
1140.90 62.55496
1141.00 66.4121
1141.10 70.55407
1141.20 75.05729
1141.30 79.57114
1141.40 84.17763
1141.50 88.47397
1141.60 92.77994
1141.70 97.04189
1141.80 98.19383
1141.90 99.35341
1142.00 100.5203
1142.10 101.4682
1142.20 102.2952
1142.30 103.1102
1142.40 103.5374
1142.50 103.6232
1142.60 103.7071
1142.70 103.959
1142.80 104.5963
1142.90 105.2344
1143.00 105.8559
1143.10 105.3417
1143.20 104.8297
1143.30 104.3192
1143.40 104.2179
1143.50 104.2866
1143.60 104.3556
1143.70 104.1284
1143.80 103.6535
1143.90 103.1828
1144.00 103.0463
1144.10 103.926
1144.20 104.7996
1144.30 105.6655
1144.40 105.9573
1144.50 106.2489
1144.60 106.4949
1144.70 106.3705
1144.80 106.1438
1144.90 105.9257
1145.00 106.0938
1145.10 106.5169
1145.20 106.9408
1145.30 107.1599
1145.40 106.7414
1145.50 106.3235
1145.60 105.9111
1145.70 105.5761
1145.80 105.2406
1145.90 104.8794
1146.00 105.1141
1146.10 105.6713
1146.20 106.2242
1146.30 106.6795
1146.40 106.912
1146.50 107.1444
1146.60 107.5201
1146.70 108.3713
1146.80 109.2271
1146.90 110.0509
1147.00 108.9091
1147.10 107.7697
1147.20 106.6407
1147.30 106.6895
1147.40 107.2087
1147.50 107.7278
1147.60 108.3494
1147.70 109.1582
1147.80 109.9667
1147.90 110.588
1148.00 110.5453
1148.10 110.504
1148.20 110.5601
1148.30 109.6807
1148.40 108.8069
1148.50 107.9166
1148.60 108.0867
1148.70 108.7289
1148.80 109.3764
1148.90 110.2303
1149.00 111.4413
1149.10 112.6536
1149.20 113.3524
1149.30 111.8491
1149.40 110.3495
1149.50 108.9054
1149.60 109.2103
1149.70 109.5109
1149.80 109.8146
1149.90 110.3429
1150.00 110.9731
1150.10 111.5953
1150.20 111.4085
1150.30 110.5554
1150.40 109.7017
1150.50 109.1576
1150.60 109.5357
1150.70 109.9116
1150.80 110.2928
1150.90 110.9416
1151.00 111.5925
1151.10 112.2352
1151.20 112.417
1151.30 112.3903
1151.40 112.3598
1151.50 111.8539
1151.60 110.897
1151.70 109.9396
1151.80 109.2666
1151.90 109.5256
1152.00 109.7842
1152.10 110.0883
1152.20 108.9064
1152.30 107.73
1152.40 106.529
1152.50 105.9367
1152.60 105.6014
1152.70 105.2805
1152.80 105.3977
1152.90 106.2074
1153.00 107.017
1153.10 107.6565
1153.20 107.2204
1153.30 106.7847
1153.40 106.3694
1153.50 106.3038
1153.60 106.235
1153.70 106.1606
1153.80 106.8742
1153.90 107.9554
1154.00 109.035
1154.10 109.9973
1154.20 110.8347
1154.30 111.6746
1154.40 112.286
1154.50 111.5875
1154.60 110.8926
1154.70 110.1415
1154.80 109.1337
1154.90 108.12
1155.00 107.1004
1155.10 107.1717
1155.20 107.5384
1155.30 107.8992
1155.40 108.2585
1155.50 108.5863
1155.60 108.917
1155.70 109.4753
1155.80 110.4805
1155.90 111.4879
1156.00 112.5033
1156.10 111.9286
1156.20 111.3536
1156.30 110.7573
1156.40 111.0896
1156.50 111.6692
1156.60 112.2526
1156.70 112.3952
1156.80 112.0274
1156.90 111.6572
1157.00 111.1114
1157.10 110.2452
1157.20 109.3759
1157.30 108.5371
1157.40 108.5758
1157.50 108.6144
1157.60 108.6409
1157.70 108.8581
1157.80 109.1255
1157.90 109.3965
1158.00 109.7634
1158.10 110.2577
1158.20 110.7525
1158.30 111.0337
1158.40 110.7169
1158.50 110.4011
1158.60 110.0634
1158.70 109.5206
1158.80 108.9797
1158.90 108.4489
1159.00 107.8126
1159.10 107.1407
1159.20 106.4638
1159.30 105.2096
1159.40 103.3949
1159.50 101.5817
1159.60 100.2353
1159.70 100.0983
1159.80 99.95296
1159.90 99.83477
1160.00 100.9387
1160.10 102.0418
1160.20 103.1351
1160.30 104.3249
1160.40 105.5497
1160.50 106.7574
1160.60 107.1448
1160.70 106.5467
1160.80 105.948
1160.90 105.014
1161.00 103.5447
1161.10 102.0637
1161.20 100.9513
1161.30 102.9958
1161.40 105.0302
1161.50 107.1323
1161.60 108.7221
1161.70 110.1572
1161.80 111.54
1161.90 111.513
1162.00 110.4802
1162.10 109.4515
1162.20 108.6107
1162.30 108.3254
1162.40 108.0372
1162.50 107.8469
1162.60 108.6767
1162.70 109.5047
1162.80 110.3257
1162.90 111.3276
1163.00 112.3803
1163.10 113.4317
1163.20 113.8881
1163.30 113.8737
1163.40 113.85
1163.50 113.3524
1163.60 111.5661
1163.70 109.786
1163.80 107.9011
1163.90 106.1054
1164.00 104.3031
1164.10 102.539
1164.20 102.8467
1164.30 103.6863
1164.40 104.555
1164.50 105.8631
1164.60 107.4627
1164.70 109.052
1164.80 110.1519
1164.90 110.3759
1165.00 110.6029
1165.10 110.6781
1165.20 109.8356
1165.30 108.9945
1165.40 108.1421
1165.50 107.2828
1165.60 106.4208
1165.70 105.5794
1165.80 105.8857
1165.90 107.0251
1166.00 108.1703
1166.10 109.323
1166.20 110.4573
1166.30 111.5923
1166.40 112.6021
1166.50 112.3865
1166.60 112.1725
1166.70 111.9526
1166.80 111.4433
1166.90 110.9026
1167.00 110.3523
1167.10 109.8476
1167.20 109.3779
1167.30 108.9134
1167.40 108.4497
1167.50 107.89
1167.60 107.3299
1167.70 106.7227
1167.80 106.2856
1167.90 105.8471
1168.00 105.4342
1168.10 104.7216
1168.20 103.972
1168.30 103.2187
1168.40 101.6545
1168.50 99.68721
1168.60 97.70648
1168.70 94.74925
1168.80 90.22099
1168.90 85.70814
1169.00 80.64479
1169.10 74.1955
1169.20 67.72684
1169.30 61.26503
1169.40 62.65013
1169.50 64.91
1169.60 67.30185
1169.70 72.42148
1169.80 78.74464
1169.90 85.04273
1170.00 90.32142
1170.10 93.94109
1170.20 97.56841
1170.30 100.7716
1170.40 102.4195
1170.50 104.0722
1170.60 105.7087
1170.70 106.3651
1170.80 106.906
1170.90 107.4311
1171.00 107.3441
1171.10 107.0008
1171.20 106.6602
1171.30 106.7067
1171.40 107.114
1171.50 107.5222
1171.60 107.7513
1171.70 107.1777
1171.80 106.6064
1171.90 106.0164
1172.00 105.7539
1172.10 105.4895
1172.20 105.2393
1172.30 105.3055
1172.40 105.5285
1172.50 105.7553
1172.60 106.031
1172.70 106.3774
1172.80 106.7218
1172.90 107.115
1173.00 107.7021
1173.10 108.2907
1173.20 108.8997
1173.30 108.3055
1173.40 107.7154
1173.50 107.1104
1173.60 106.4788
1173.70 105.8423
1173.80 105.223
1173.90 105.1937
1174.00 105.7318
1174.10 106.2704
1174.20 106.8366
1174.30 107.5464
1174.40 108.2554
1174.50 108.9621
1174.60 109.3652
1174.70 109.772
1174.80 110.1853
1174.90 109.956
1175.00 109.5533
1175.10 109.1385
1175.20 108.7015
1175.30 108.2199
1175.40 107.7408
1175.50 107.4188
1175.60 107.641
1175.70 107.8608
1175.80 108.0057
1175.90 106.9132
1176.00 105.8247
1176.10 104.7147
1176.20 103.1601
1176.30 101.4889
1176.40 99.8114
1176.50 98.08779
1176.60 96.31054
1176.70 94.51698
1176.80 91.62704
1176.90 85.94009
1177.00 80.26875
1177.10 74.2602
1177.20 67.08792
1177.30 59.89976
1177.40 52.73177
1177.50 51.09434
1177.60 50.88315
1177.70 50.82775
1177.80 54.72328
1177.90 61.35548
1178.00 67.98481
1178.10 73.87414
1178.20 78.57039
1178.30 83.28141
1178.40 87.72903
1178.50 90.3046
1178.60 92.88414
1178.70 95.44771
1178.80 96.95305
1178.90 98.33564
1179.00 99.6973
1179.10 100.6684
1179.20 101.3234
1179.30 101.9733
1179.40 102.3562
1179.50 102.352
1179.60 102.3487
1179.70 102.3457
1179.80 102.4815
1179.90 102.6156
1180.00 102.7443
1180.10 103.4669
1180.20 104.2528
1180.30 105.0573
1180.40 105.6763
1180.50 106.2029
1180.60 106.7173
1180.70 106.7657
1180.80 106.1049
1180.90 105.4447
1181.00 104.8178
1181.10 104.3135
1181.20 103.8091
1181.30 103.309
1181.40 102.9043
1181.50 102.5091
1181.60 102.1186
1181.70 102.2215
1181.80 102.5469
1181.90 102.877
1182.00 103.3088
1182.10 103.9077
1182.20 104.5038
1182.30 104.9493
1182.40 104.6547
1182.50 104.3653
1182.60 104.0466
1182.70 102.852
1182.80 101.6601
1182.90 100.4693
1183.00 99.99547
1183.10 99.84922
1183.20 99.72231
1183.30 99.943
1183.40 100.4219
1183.50 100.8986
1183.60 101.132
1183.70 100.3385
1183.80 99.5475
1183.90 98.67936
1184.00 99.33016
1184.10 99.97362
1184.20 100.657
1184.30 102.1239
1184.40 103.8007
1184.50 105.4438
1184.60 106.0496
1184.70 105.4409
1184.80 104.8311
1184.90 104.1052
1185.00 103.2165
1185.10 102.3243
1185.20 101.3728
1185.30 101.4466
1185.40 101.5157
1185.50 101.6167
1185.60 102.21
1185.70 102.9251
1185.80 103.6353
1185.90 104.0262
1186.00 104.1615
1186.10 104.2936
1186.20 104.5702
1186.30 105.1692
1186.40 105.7693
1186.50 106.2777
1186.60 105.9262
1186.70 105.5771
1186.80 105.2084
1186.90 104.4287
1187.00 103.5368
1187.10 102.662
1187.20 102.4111
1187.30 102.6349
1187.40 102.8672
1187.50 103.3164
1187.60 103.9879
1187.70 104.6617
1187.80 105.1781
1187.90 104.5694
1188.00 103.9685
1188.10 103.3477
1188.20 100.7543
1188.30 97.93904
1188.40 95.09796
1188.50 92.60848
1188.60 90.48858
1188.70 88.43253
1188.80 88.47231
1188.90 91.62845
1189.00 94.77742
1189.10 97.77744
1189.20 99.7404
1189.30 101.7177
1189.40 103.6244
1189.50 104.517
1189.60 105.2924
1189.70 106.0806
1189.80 106.4245
1189.90 106.5966
1190.00 106.7632
1190.10 106.6137
1190.20 105.9409
1190.30 105.266
1190.40 104.5501
1190.50 103.7491
1190.60 102.9489
1190.70 102.1135
1190.80 101.9676
1190.90 101.8153
1191.00 101.6918
1191.10 102.2716
1191.20 103.1351
1191.30 103.9965
1191.40 104.4545
1191.50 104.4958
1191.60 104.5369
1191.70 104.5326
1191.80 104.3332
1191.90 104.1332
1192.00 103.9288
1192.10 104.2762
1192.20 104.6255
1192.30 104.967
1192.40 104.6596
1192.50 104.1819
1192.60 103.7114
1192.70 103.4955
1192.80 103.5685
1192.90 103.642
1193.00 103.8047
1193.10 104.2254
1193.20 104.647
1193.30 105.0448
1193.40 104.8291
1193.50 104.6176
1193.60 104.3761
1193.70 103.0863
1193.80 101.5207
1193.90 99.95867
1194.00 98.89999
1194.10 98.23218
1194.20 97.57284
1194.30 97.23267
1194.40 97.58023
1194.50 97.92891
1194.60 98.14139
1194.70 96.97838
1194.80 95.82047
1194.90 94.59827
1195.00 93.45292
1195.10 92.3192
1195.20 91.23663
1195.30 91.76812
1195.40 93.44137
1195.50 95.12329
1195.60 96.65611
1195.70 97.77124
1195.80 98.89267
1195.90 99.75526
1196.00 98.69404
1196.10 97.63407
1196.20 96.55444
1196.30 95.90089
1196.40 95.29988
1196.50 94.71672
1196.60 94.5215
1196.70 94.5053
1196.80 94.48652
1196.90 94.28832
1197.00 93.80898
1197.10 93.32706
1197.20 92.33803
1197.30 89.38186
1197.40 86.42741
1197.50 83.42306
1197.60 82.30755
1197.70 81.16658
1197.80 80.134
1197.90 81.10072
1198.00 82.9949
1198.10 84.88533
1198.20 86.34534
1198.30 87.35027
1198.40 88.35746
1198.50 89.54816
1198.60 91.45253
1198.70 93.36049
1198.80 95.28781
1198.90 94.45889
1199.00 93.63979
1199.10 92.77319
1199.20 91.3608
1199.30 89.82899
1199.40 88.32198
1199.50 87.67673
1199.60 87.93383
1199.70 88.19607
1199.80 88.62596
1199.90 89.41779
1200.00 90.21144
