# Version 2.1 - nm, norm@500 to 1, cut digits
# Wavelength(nm)  Flambda(ergs/cm^s/s/nm)
300.00 0.005433841
300.10 0.007049724
300.20 0.008115597
300.30 0.008661639
300.40 0.008908993
300.50 0.009044978
300.60 0.009140404
300.70 0.009207431
300.80 0.009258577
300.90 0.00930496
301.00 0.009355392
301.10 0.009413635
301.20 0.009478649
301.30 0.009548073
301.40 0.009619682
301.50 0.009692197
301.60 0.009765142
301.70 0.00983834
301.80 0.009911666
301.90 0.009985043
302.00 0.01005843
302.10 0.01013182
302.20 0.01020522
302.30 0.01027865
302.40 0.01035219
302.50 0.01042591
302.60 0.01049996
302.70 0.0105747
302.80 0.0106511
302.90 0.01073085
303.00 0.01081573
303.10 0.01090655
303.20 0.01100251
303.30 0.01110182
303.40 0.01120278
303.50 0.01130444
303.60 0.01140642
303.70 0.01150859
303.80 0.01161086
303.90 0.01171317
304.00 0.01181548
304.10 0.0119178
304.20 0.01202009
304.30 0.01212226
304.40 0.01222414
304.50 0.01232542
304.60 0.01242571
304.70 0.01252389
304.80 0.01261701
304.90 0.01269988
305.00 0.01276702
305.10 0.01281603
305.20 0.01284932
305.30 0.01287236
305.40 0.01289033
305.50 0.0129062
305.60 0.01292106
305.70 0.01293535
305.80 0.01294933
305.90 0.01296319
306.00 0.01297703
306.10 0.01299087
306.20 0.01300471
306.30 0.01301855
306.40 0.01303239
306.50 0.01304623
306.60 0.01306007
306.70 0.01307392
306.80 0.01308777
306.90 0.01310165
307.00 0.01311557
307.10 0.01312952
307.20 0.01314351
307.30 0.01315752
307.40 0.01317154
307.50 0.01318557
307.60 0.0131996
307.70 0.01321363
307.80 0.01322766
307.90 0.01324169
308.00 0.01325572
308.10 0.01326975
308.20 0.01328384
308.30 0.01329824
308.40 0.01331337
308.50 0.01332998
308.60 0.01334909
308.70 0.01337346
308.80 0.01341053
308.90 0.01347323
309.00 0.01357529
309.10 0.01372273
309.20 0.01390953
309.30 0.01412196
309.40 0.01434709
309.50 0.01457748
309.60 0.01481037
309.70 0.01504474
309.80 0.01527985
309.90 0.01551525
310.00 0.01575072
310.10 0.01598619
310.20 0.01622159
310.30 0.0164567
310.40 0.01669105
310.50 0.01692393
310.60 0.0171543
310.70 0.01737937
310.80 0.01759168
310.90 0.01777823
311.00 0.01792521
311.10 0.01802656
311.20 0.01808835
311.30 0.01812437
311.40 0.01814763
311.50 0.0181656
311.60 0.01818106
311.70 0.01819503
311.80 0.01820826
311.90 0.01822119
312.00 0.01823405
312.10 0.01824692
312.20 0.01825987
312.30 0.01827318
312.40 0.01828742
312.50 0.01830348
312.60 0.01832265
312.70 0.01834835
312.80 0.01838982
312.90 0.01846311
313.00 0.01858526
313.10 0.01876377
313.20 0.01899114
313.30 0.01925033
313.40 0.01952528
313.50 0.01980677
313.60 0.02009137
313.70 0.02037779
313.80 0.02066513
313.90 0.02095284
314.00 0.02124064
314.10 0.02152843
314.20 0.02181629
314.30 0.02210439
314.40 0.02239314
314.50 0.02268317
314.60 0.02297535
314.70 0.02327208
314.80 0.02357979
314.90 0.02390964
315.00 0.02427351
315.10 0.02467661
315.20 0.02511372
315.30 0.02557298
315.40 0.02604322
315.50 0.02651801
315.60 0.02699495
315.70 0.02747317
315.80 0.02795203
315.90 0.02843114
316.00 0.02891031
316.10 0.02938949
316.20 0.02986844
316.30 0.03034647
316.40 0.03082212
316.50 0.0312931
316.60 0.03175616
316.70 0.03220247
316.80 0.03260845
316.90 0.03293302
317.00 0.03313255
317.10 0.03318789
317.20 0.0331182
317.30 0.03296709
317.40 0.03277565
317.50 0.03256747
317.60 0.03235136
317.70 0.03213058
317.80 0.03190743
317.90 0.03168334
318.00 0.03145904
318.10 0.03123474
318.20 0.0310106
318.30 0.03078719
318.40 0.03056558
318.50 0.03034755
318.60 0.03013559
318.70 0.02993644
318.80 0.02976817
318.90 0.02966222
319.00 0.02965198
319.10 0.02975212
319.20 0.02994797
319.30 0.03020614
319.40 0.03049519
319.50 0.03079705
319.60 0.03110498
319.70 0.03141649
319.80 0.03172981
319.90 0.03204385
320.00 0.03235805
320.10 0.03267225
320.20 0.03298639
320.30 0.03330026
320.40 0.03361347
320.50 0.03392535
320.60 0.03423499
320.70 0.03453989
320.80 0.03483337
320.90 0.03510379
321.00 0.03533882
321.10 0.03553303
321.20 0.03569184
321.30 0.0358276
321.40 0.03595194
321.50 0.03607154
321.60 0.03618889
321.70 0.03630492
321.80 0.03642029
321.90 0.03653538
322.00 0.03665042
322.10 0.03676545
322.20 0.03688071
322.30 0.03699694
322.40 0.03711561
322.50 0.03723912
322.60 0.03737082
322.70 0.03751984
322.80 0.03771057
322.90 0.03798549
323.00 0.03838971
323.10 0.03894304
323.20 0.03962567
323.30 0.0403925
323.40 0.04120103
323.50 0.04202688
323.60 0.04286093
323.70 0.04369981
323.80 0.04454114
323.90 0.04538343
324.00 0.04622595
324.10 0.04706846
324.20 0.04791094
324.30 0.04875327
324.40 0.04959519
324.50 0.05043633
324.60 0.05127614
324.70 0.05211314
324.80 0.05294336
324.90 0.05375991
325.00 0.05455545
325.10 0.05532677
325.20 0.05607708
325.30 0.05681372
325.40 0.05754359
325.50 0.05827064
325.60 0.05899636
325.70 0.0597213
325.80 0.06044583
325.90 0.06117021
326.00 0.06189456
326.10 0.0626189
326.20 0.06334333
326.30 0.06406809
326.40 0.0647937
326.50 0.06552101
326.60 0.06625119
326.70 0.06698744
326.80 0.06773828
326.90 0.0685186
327.00 0.06934419
327.10 0.07022199
327.20 0.07114506
327.30 0.0720976
327.40 0.07306475
327.50 0.07403796
327.60 0.07501403
327.70 0.0759918
327.80 0.07697043
327.90 0.0779494
328.00 0.07892844
328.10 0.07990748
328.20 0.08088607
328.30 0.08186267
328.40 0.08283425
328.50 0.08379589
328.60 0.08474069
328.70 0.08564992
328.80 0.08647348
328.90 0.08712409
329.00 0.08750907
329.10 0.08758776
329.20 0.08740083
329.30 0.08704094
329.40 0.08659538
329.50 0.08611425
329.60 0.08561628
329.70 0.08510837
329.80 0.08459545
329.90 0.08408053
330.00 0.08356516
330.10 0.08304979
330.20 0.08253475
330.30 0.0820212
330.40 0.08151136
330.50 0.0810089
330.60 0.08051893
330.70 0.08005534
330.80 0.07965531
330.90 0.07938358
331.00 0.07930888
331.10 0.07946141
331.20 0.07981096
331.30 0.08028882
331.40 0.08083023
331.50 0.08139803
331.60 0.08197831
331.70 0.08256597
331.80 0.08315736
331.90 0.08375021
332.00 0.08434341
332.10 0.08493661
332.20 0.08552959
332.30 0.08612164
332.40 0.08671133
332.50 0.08729635
332.60 0.08787347
332.70 0.08843388
332.80 0.08895405
332.90 0.08939298
333.00 0.08970717
333.10 0.08987749
333.20 0.08992307
333.30 0.08988741
333.40 0.08981151
333.50 0.0897189
333.60 0.08961839
333.70 0.08951321
333.80 0.08940567
333.90 0.0892972
334.00 0.08918852
334.10 0.08908271
334.20 0.08898451
334.30 0.08889654
334.40 0.08881902
334.50 0.08874982
334.60 0.08875355
334.70 0.08898452
334.80 0.08951954
334.90 0.09012982
335.00 0.0903546
335.10 0.09009094
335.20 0.09013768
335.30 0.09193831
335.40 0.09644057
335.50 0.1029536
335.60 0.109112
335.70 0.1122129
335.80 0.1109243
335.90 0.1059337
336.00 0.09922771
336.10 0.09288762
336.20 0.08840872
336.30 0.08647506
336.40 0.08669702
336.50 0.08766521
336.60 0.08782265
336.70 0.08676965
336.80 0.08575757
336.90 0.08668426
337.00 0.09043302
337.10 0.09595946
337.20 0.1008601
337.30 0.1029999
337.40 0.1019962
337.50 0.09944542
337.60 0.09770104
337.70 0.09812995
337.80 0.1003074
337.90 0.102797
338.00 0.104481
338.10 0.105029
338.20 0.1042758
338.30 0.1017324
338.40 0.09728491
338.50 0.09220851
338.60 0.08896096
338.70 0.08945544
338.80 0.09331357
338.90 0.09799461
339.00 0.1008414
339.10 0.1012415
339.20 0.1009864
339.30 0.1024693
339.40 0.1064386
339.50 0.1114831
339.60 0.115506
339.70 0.1174446
339.80 0.1175378
339.90 0.116322
340.00 0.1140189
340.10 0.1108813
340.20 0.1074852
340.30 0.1042935
340.40 0.1010966
340.50 0.09729611
340.60 0.09279972
340.70 0.08838813
340.80 0.08514504
340.90 0.08369537
341.00 0.08401151
341.10 0.08571602
341.20 0.08835205
341.30 0.09137548
341.40 0.09415309
341.50 0.09619107
341.60 0.0973965
341.70 0.0981021
341.80 0.09878624
341.90 0.0996986
342.00 0.1006273
342.10 0.1009435
342.20 0.09999167
342.30 0.09765875
342.40 0.09467768
342.50 0.09227168
342.60 0.09135382
342.70 0.09197343
342.80 0.09342685
342.90 0.09481648
343.00 0.09559937
343.10 0.0958265
343.20 0.09595638
343.30 0.09638558
343.40 0.09708586
343.50 0.09768962
343.60 0.09787195
343.70 0.09754898
343.80 0.09679882
343.90 0.09579662
344.00 0.09485439
344.10 0.09433024
344.20 0.09432583
344.30 0.09453603
344.40 0.09452868
344.50 0.09417263
344.60 0.0937583
344.70 0.09375739
344.80 0.09452795
344.90 0.0961899
345.00 0.09865815
345.10 0.1016924
345.20 0.1049141
345.30 0.1078161
345.40 0.1098458
345.50 0.1106577
345.60 0.110381
345.70 0.1095941
345.80 0.1089282
345.90 0.1086297
346.00 0.1084543
346.10 0.1078972
346.20 0.1065584
346.30 0.1044721
346.40 0.1022103
346.50 0.1005558
346.60 0.09988768
346.70 0.09985834
346.80 0.09971975
346.90 0.09893732
347.00 0.09747164
347.10 0.09567654
347.20 0.09413151
347.30 0.09347887
347.40 0.09412824
347.50 0.09594175
347.60 0.09829818
347.70 0.1005614
347.80 0.1024913
347.90 0.1042459
348.00 0.1060714
348.10 0.1079862
348.20 0.1096804
348.30 0.1107061
348.40 0.1108295
348.50 0.1102311
348.60 0.109325
348.70 0.1083906
348.80 0.1074508
348.90 0.1064495
349.00 0.105417
349.10 0.1044447
349.20 0.1036108
349.30 0.1030161
349.40 0.1028304
349.50 0.1031634
349.60 0.1038635
349.70 0.1045416
349.80 0.1049225
349.90 0.1052421
350.00 0.1062136
350.10 0.1084573
350.20 0.1118851
350.30 0.1156392
350.40 0.1186499
350.50 0.1202834
350.60 0.1205411
350.70 0.1197955
350.80 0.1184523
350.90 0.1167554
351.00 0.1146941
351.10 0.1120194
351.20 0.1084698
351.30 0.1041743
351.40 0.09986691
351.50 0.09655378
351.60 0.09482744
351.70 0.09446647
351.80 0.09470515
351.90 0.09487266
352.00 0.09477011
352.10 0.09452488
352.20 0.09429922
352.30 0.09424557
352.40 0.09467115
352.50 0.09611312
352.60 0.09904119
352.70 0.103362
352.80 0.1082371
352.90 0.1125369
353.00 0.1156473
353.10 0.1178423
353.20 0.1198224
353.30 0.1219879
353.40 0.1242578
353.50 0.1264539
353.60 0.1286207
353.70 0.1308993
353.80 0.1332681
353.90 0.1355371
354.00 0.1374647
354.10 0.1387541
354.20 0.1390675
354.30 0.1382836
354.40 0.1367843
354.50 0.1353266
354.60 0.1344924
354.70 0.1342771
354.80 0.1342389
354.90 0.1339767
355.00 0.1334126
355.10 0.1327045
355.20 0.1320187
355.30 0.1314274
355.40 0.1309589
355.50 0.1306182
355.60 0.1302975
355.70 0.1297183
355.80 0.1285552
355.90 0.1266999
356.00 0.1243836
356.10 0.1219895
356.20 0.1197303
356.30 0.1174909
356.40 0.1149791
356.50 0.1120723
356.60 0.1090681
356.70 0.106583
356.80 0.1051335
356.90 0.1047583
357.00 0.105023
357.10 0.1053439
357.20 0.1052828
357.30 0.1046359
357.40 0.1033924
357.50 0.1016851
357.60 0.09975092
357.70 0.09785041
357.80 0.09616886
357.90 0.09477578
358.00 0.09369745
358.10 0.09305248
358.20 0.09308437
358.30 0.09400379
358.40 0.09576572
358.50 0.09799528
358.60 0.1001276
358.70 0.101642
358.80 0.1022724
358.90 0.1021306
359.00 0.1017088
359.10 0.101692
359.20 0.1025815
359.30 0.1043484
359.40 0.1063923
359.50 0.1079132
359.60 0.1084459
359.70 0.1081397
359.80 0.1075686
359.90 0.107235
360.00 0.1071665
360.10 0.1069184
360.20 0.1059663
360.30 0.1041478
360.40 0.101828
360.50 0.09973457
360.60 0.09863438
360.70 0.09903488
360.80 0.1009596
360.90 0.1038959
361.00 0.1070399
361.10 0.1097399
361.20 0.1117908
361.30 0.1133263
361.40 0.1144761
361.50 0.1152071
361.60 0.1155234
361.70 0.1156823
361.80 0.1160584
361.90 0.1167762
362.00 0.1175737
362.10 0.118084
362.20 0.1181751
362.30 0.1179891
362.40 0.1177678
362.50 0.1177127
362.60 0.1178891
362.70 0.1181116
362.80 0.1179791
362.90 0.1171991
363.00 0.1159404
363.10 0.1147839
363.20 0.1142644
363.30 0.1144793
363.40 0.1151218
363.50 0.1157981
363.60 0.1162739
363.70 0.116501
363.80 0.1164959
363.90 0.1162234
364.00 0.11557
364.10 0.1144215
364.20 0.1127872
364.30 0.1108654
364.40 0.1090029
364.50 0.107589
364.60 0.1069145
364.70 0.1070205
364.80 0.1076648
364.90 0.1085086
365.00 0.1094211
365.10 0.1105939
365.20 0.112273
365.30 0.1143453
365.40 0.1162422
365.50 0.1173177
365.60 0.1173664
365.70 0.1167748
365.80 0.1161521
365.90 0.1158456
366.00 0.1158126
366.10 0.1158827
366.20 0.1160478
366.30 0.1164345
366.40 0.1170591
366.50 0.1176974
366.60 0.1179981
366.70 0.1177036
366.80 0.116784
366.90 0.1154184
367.00 0.1139073
367.10 0.1125919
367.20 0.1117817
367.30 0.1116778
367.40 0.1122903
367.50 0.113422
367.60 0.1147643
367.70 0.1160526
367.80 0.1171703
367.90 0.1181377
368.00 0.1190162
368.10 0.1198117
368.20 0.120439
368.30 0.1207609
368.40 0.1206779
368.50 0.1202287
368.60 0.1196308
368.70 0.1191943
368.80 0.1191406
368.90 0.1194738
369.00 0.120035
369.10 0.1206889
369.20 0.1214118
369.30 0.1221803
369.40 0.1228263
369.50 0.1230813
369.60 0.1228082
369.70 0.1221796
369.80 0.1216188
369.90 0.121566
370.00 0.1222535
370.10 0.1236147
370.20 0.1253562
370.30 0.1271115
370.40 0.128565
370.50 0.1295074
370.60 0.1298605
370.70 0.1297282
370.80 0.1293999
370.90 0.1292155
371.00 0.1293422
371.10 0.1296315
371.20 0.1296767
371.30 0.1290257
371.40 0.1274385
371.50 0.1250562
371.60 0.1223796
371.70 0.1200408
371.80 0.1185197
371.90 0.1179866
372.00 0.1183133
372.10 0.1191112
372.20 0.1197211
372.30 0.1193402
372.40 0.1173952
372.50 0.1140004
372.60 0.1100866
372.70 0.106996
372.80 0.1058159
372.90 0.106908
373.00 0.1098713
373.10 0.113821
373.20 0.1177418
373.30 0.1207583
373.40 0.1223133
373.50 0.1222211
373.60 0.1205958
373.70 0.1177324
373.80 0.1140442
373.90 0.1100794
374.00 0.106509
374.10 0.1040115
374.20 0.1031107
374.30 0.1040835
374.40 0.1069693
374.50 0.1115841
374.60 0.1174816
374.70 0.1239023
374.80 0.1298354
374.90 0.1342635
375.00 0.1364904
375.10 0.1363505
375.20 0.1341906
375.30 0.130689
375.40 0.1266498
375.50 0.1228343
375.60 0.1197861
375.70 0.1177001
375.80 0.1164284
375.90 0.1156518
376.00 0.1151379
376.10 0.1149435
376.20 0.1154566
376.30 0.1172437
376.40 0.120775
376.50 0.1262114
376.60 0.1333888
376.70 0.1418765
376.80 0.1509435
376.90 0.1594598
377.00 0.1660047
377.10 0.1693258
377.20 0.1688785
377.30 0.1650234
377.40 0.1587657
377.50 0.1513001
377.60 0.1436807
377.70 0.1367054
377.80 0.1308711
377.90 0.1263415
378.00 0.1229913
378.10 0.1205592
378.20 0.1188194
378.30 0.1176349
378.40 0.1169085
378.50 0.1165715
378.60 0.1166496
378.70 0.1172971
378.80 0.1187406
378.90 0.1212295
379.00 0.1250814
379.10 0.1306993
379.20 0.1383882
379.30 0.1480404
379.40 0.1589475
379.50 0.1698962
379.60 0.1794313
379.70 0.1861391
379.80 0.1889585
379.90 0.1874962
380.00 0.1822112
380.10 0.1742821
380.20 0.1651765
380.30 0.1561725
380.40 0.148097
380.50 0.1413193
380.60 0.1358704
380.70 0.1315556
380.80 0.1280464
380.90 0.125038
381.00 0.1224037
381.10 0.1202
381.20 0.1185027
381.30 0.1172467
381.40 0.1162704
381.50 0.115521
381.60 0.1157446
381.70 0.117808
381.80 0.1219724
381.90 0.1282823
382.00 0.1372262
382.10 0.1399594
382.20 0.103722
382.30 0.09638459
382.40 0.1237707
382.50 0.1517251
382.60 0.1746931
382.70 0.1894774
382.80 0.1990412
382.90 0.2095957
383.00 0.3949789
383.10 0.743098
383.20 0.9350097
383.30 0.9438041
383.40 0.7919498
383.50 0.5653682
383.60 0.3902634
383.70 0.3525064
383.80 0.4172248
383.90 0.4686255
384.00 0.4460074
384.10 0.3784943
384.20 0.2993838
384.30 0.1848264
384.40 0.04703736
384.50 0.05620692
384.60 0.2038446
384.70 0.6369906
384.80 1.098489
384.90 1.340768
385.00 1.227877
385.10 0.8322968
385.20 0.406601
385.30 0.2265655
385.40 0.3827992
385.50 0.7143536
385.60 0.972898
385.70 1.02158
385.80 0.8712148
385.90 0.6046926
386.00 0.3268943
386.10 0.139244
386.20 0.1000815
386.30 0.1793356
386.40 0.2964544
386.50 0.402316
386.60 0.4943064
386.70 0.5799183
386.80 0.647241
386.90 0.6993738
387.00 0.7645449
387.10 0.8494261
387.20 0.921746
387.30 0.9532411
387.40 0.9624267
387.50 0.9694576
387.60 0.938873
387.70 0.8263765
387.80 0.6924528
387.90 0.6638624
388.00 0.7655368
388.10 0.862612
388.20 0.8046677
388.30 0.6065193
388.40 0.4052774
388.50 0.3095096
388.60 0.33178
388.70 0.4358872
388.80 0.5831259
388.90 0.7265316
389.00 0.812553
389.10 0.7996843
389.20 0.6735267
389.30 0.4463865
389.40 0.184182
389.50 0
389.60 0
389.70 0
389.80 0.1335945
389.90 0.1529557
390.00 0.005653164
390.10 0.01216705
390.20 0.01807832
390.30 0.06125463
390.40 0.2159578
390.50 0.2022028
390.60 0.1178201
390.70 0.1588605
390.80 0.3863411
390.90 0.6563685
391.00 0.7655677
391.10 0.6063807
391.20 0.2263618
391.30 0.1452909
391.40 0.1243308
391.50 0.1006571
391.60 0.07548745
391.70 0.0477128
391.80 0.01641566
391.90 0
392.00 0
392.10 0
392.20 0
392.30 0.06651089
392.40 0.06913288
392.50 0
392.60 0
392.70 0
392.80 0
392.90 0
393.00 0.2062924
393.10 0.6873294
393.20 1.194428
393.30 1.625799
393.40 1.754895
393.50 1.440549
393.60 0.8312943
393.70 0.2797945
393.80 0.03567286
393.90 0.06259464
394.00 0.1462193
394.10 0.1315673
394.20 0
394.30 0.001872466
394.40 0.0004983556
394.50 0
394.60 0
394.70 0.04779075
394.80 0.001221688
394.90 0.009399141
395.00 0.01236285
395.10 0.009305189
395.20 0.001641226
395.30 0
395.40 0
395.50 0.1860729
395.60 0.5594788
395.70 0.6739607
395.80 0.4950101
395.90 0.182693
396.00 0.02859127
396.10 0.06278791
396.20 0.09354424
396.30 0.1176689
396.40 0.1340032
396.50 0.2679422
396.60 0.5784461
396.70 0.981877
396.80 1.372595
396.90 1.615813
397.00 1.645825
397.10 1.482002
397.20 1.176924
397.30 0.8126527
397.40 0.4403141
397.50 0.1539736
397.60 0.05087577
397.70 0.1284374
397.80 0.2824794
397.90 0.4048997
398.00 0.4772765
398.10 0.5565248
398.20 0.6707529
398.30 0.7564967
398.40 0.7150529
398.50 0.5154468
398.60 0.2355215
398.70 0
398.80 0
398.90 0
399.00 0
399.10 0
399.20 0
399.30 0
399.40 0
399.50 0
399.60 0.05671667
399.70 0.1184671
399.80 0.1091978
399.90 0.08570456
400.00 0.1045806
400.10 0.1751838
400.20 0.2466622
400.30 0.2522581
400.40 0.1780144
400.50 0.09902995
400.60 0.1045538
400.70 0.1029413
400.80 0.09844324
400.90 0.1691771
401.00 0.2085648
401.10 0.1642114
401.20 0.03218145
401.30 0
401.40 0
401.50 0
401.60 0
401.70 0.1174522
401.80 0.2821587
401.90 0.3595987
402.00 0.3760895
402.10 0.3932193
402.20 0.4578962
402.30 0.5495904
402.40 0.5909502
402.50 0.5364941
402.60 0.4290834
402.70 0.3367912
402.80 0.2739807
402.90 0.2215555
403.00 0.1877983
403.10 0.2137185
403.20 0.3014997
403.30 0.3852911
403.40 0.3908183
403.50 0.3027716
403.60 0.1747429
403.70 0.1123325
403.80 0.1115672
403.90 0.1145374
404.00 0.1187012
404.10 0.1286239
404.20 0.1907819
404.30 0.3226084
404.40 0.4892293
404.50 0.6304373
404.60 0.6902033
404.70 0.6265147
404.80 0.4457387
404.90 0.2329211
405.00 0.09536164
405.10 0.06709908
405.20 0.09154077
405.30 0.1087321
405.40 0.1269299
405.50 0.1764044
405.60 0.2353284
405.70 0.2388379
405.80 0.1632521
405.90 0.09301355
406.00 0.1123664
406.10 0.2118033
406.20 0.3125065
406.30 0.3646695
406.40 0.385579
406.50 0.4225037
406.60 0.4736532
406.70 0.512118
406.80 0.5164577
406.90 0.4607408
407.00 0.3251785
407.10 0.135797
407.20 0.0470022
407.30 0.0444522
407.40 0.04126947
407.50 0.1282442
407.60 0.1968766
407.70 0.222836
407.80 0.2339378
407.90 0.2291639
408.00 0.1904998
408.10 0.1247522
408.20 0.06670251
408.30 0.03909026
408.40 0.04301309
408.50 0.07460231
408.60 0.1276757
408.70 0.1759081
408.80 0.1760406
408.90 0.1086105
409.00 0.02196256
409.10 0.01938668
409.20 0.1355223
409.30 0.2971435
409.40 0.3708268
409.50 0.3262212
409.60 0.2706136
409.70 0.3336956
409.80 0.5410873
409.90 0.8159632
410.00 1.055946
410.10 1.182814
410.20 1.150909
410.30 0.9548233
410.40 0.6414253
410.50 0.295813
410.60 0.005315573
410.70 0
410.80 0
410.90 0
411.00 0
411.10 0
411.20 0
411.30 0.001940838
411.40 0.002006779
411.50 0
411.60 0.213759
411.70 0.5974756
411.80 0.8624453
411.90 0.9397424
412.00 0.8720389
412.10 0.749036
412.20 0.6447071
412.30 0.5720473
412.40 0.5150755
412.50 0.4498392
412.60 0.368504
412.70 0.2796368
412.80 0.196467
412.90 0.1268153
413.00 0.0758678
413.10 0.04987436
413.20 0.04605721
413.30 0.05833225
413.40 0.08619822
413.50 0.1294965
413.60 0.1821341
413.70 0.2350864
413.80 0.2770354
413.90 0.2836634
414.00 0.2205939
414.10 0.06736845
414.20 0.04780662
414.30 0.03396652
414.40 0.01870261
414.50 0.00253539
414.60 0
414.70 0
414.80 0.09608444
414.90 0.1795823
415.00 0.0840086
415.10 0
415.20 0
415.30 0
415.40 0
415.50 0
415.60 0
415.70 0
415.80 0
415.90 0
416.00 0.03313664
416.10 0.1324503
416.20 0.2235205
416.30 0.2520791
416.40 0.1749598
416.50 0.009186332
416.60 0
416.70 0
416.80 0
416.90 0
417.00 0.0484154
417.10 0.2254208
417.20 0.2871146
417.30 0.2837047
417.40 0.2976071
417.50 0.327346
417.60 0.2990106
417.70 0.1760931
417.80 0.01456876
417.90 0.005536486
418.00 0
418.10 0
418.20 0
418.30 0
418.40 0
418.50 0.03069046
418.60 0.2930541
418.70 0.5642228
418.80 0.7957019
418.90 0.9610321
419.00 1.067726
419.10 1.122251
419.20 1.105113
419.30 0.9955969
419.40 0.8096146
419.50 0.5897043
419.60 0.382418
419.70 0.2313793
419.80 0.1688442
419.90 0.180498
420.00 0.2083836
420.10 0.181404
420.20 0.07468732
420.30 0.001492974
420.40 0
420.50 0
420.60 0
420.70 0
420.80 0.06213198
420.90 0.1155882
421.00 0.1066072
421.10 0.08650901
421.20 0.1343659
421.30 0.2778547
421.40 0.4813798
421.50 0.6450946
421.60 0.7247938
421.70 0.7309947
421.80 0.6950697
421.90 0.6346717
422.00 0.5562277
422.10 0.4775777
422.20 0.4256799
422.30 0.3974743
422.40 0.3379379
422.50 0.1943964
422.60 0.007443849
422.70 0.00618312
422.80 0.002507014
422.90 0
423.00 0
423.10 0.002462982
423.20 0.01256618
423.30 0.02806341
423.40 0.04699362
423.50 0.1744456
423.60 0.4289775
423.70 0.6010837
423.80 0.6611244
423.90 0.6227559
424.00 0.5156908
424.10 0.3731467
424.20 0.2237589
424.30 0.08162376
424.40 0.01798141
424.50 0.00870458
424.60 0.004053886
424.70 0.004697426
424.80 0.1196137
424.90 0.2798405
425.00 0.4203154
425.10 0.5047195
425.20 0.5102316
425.30 0.4490762
425.40 0.3605684
425.50 0.2947743
425.60 0.2877682
425.70 0.3397994
425.80 0.4116438
425.90 0.4445476
426.00 0.4072788
426.10 0.3259032
426.20 0.2512359
426.30 0.2138258
426.40 0.2280766
426.50 0.294122
426.60 0.3699093
426.70 0.3626426
426.80 0.2039982
426.90 0.02730349
427.00 0.02167404
427.10 0.01529847
427.20 0.00824747
427.30 0.000135385
427.40 0
427.50 0
427.60 0
427.70 0
427.80 0.03698355
427.90 0.04783121
428.00 0.0160115
428.10 0
428.20 0
428.30 0
428.40 0
428.50 0.01046561
428.60 0.03148954
428.70 0.05227165
428.80 0.06842125
428.90 0.07822745
429.00 0.08338297
429.10 0.1807681
429.20 0.2928229
429.30 0.3645658
429.40 0.41333
429.50 0.453051
429.60 0.4856921
429.70 0.4893493
429.80 0.4383076
429.90 0.3553811
430.00 0.3157224
430.10 0.3637012
430.20 0.4493837
430.30 0.4839046
430.40 0.4471866
430.50 0.4069094
430.60 0.4178031
430.70 0.4517431
430.80 0.4523869
430.90 0.4100906
431.00 0.3566307
431.10 0.3189531
431.20 0.2997816
431.30 0.2891795
431.40 0.2709867
431.50 0.2256102
431.60 0.1899295
431.70 0.1800465
431.80 0.1650433
431.90 0.1472903
432.00 0.1470667
432.10 0.2272216
432.20 0.3236653
432.30 0.4251285
432.40 0.5004465
432.50 0.5056041
432.60 0.4154921
432.70 0.266036
432.80 0.1446279
432.90 0.1062462
433.00 0.1088234
433.10 0.06178125
433.20 0.009630401
433.30 0.01336445
433.40 0.01987857
433.50 0.02787351
433.60 0.03522125
433.70 0.06113742
433.80 0.3126532
433.90 0.6435913
434.00 1.001733
434.10 1.267655
434.20 1.322853
434.30 1.152123
434.40 0.8689258
434.50 0.6262843
434.60 0.5037898
434.70 0.4751067
434.80 0.4616796
434.90 0.4046214
435.00 0.2981428
435.10 0.1780454
435.20 0.08780315
435.30 0.04791101
435.40 0.05596502
435.50 0.114838
435.60 0.2264867
435.70 0.3912267
435.80 0.539559
435.90 0.5469646
436.00 0.3553419
436.10 0.07242507
436.20 0
436.30 0.009001007
436.40 0.1237755
436.50 0.2732084
436.60 0.3146622
436.70 0.3071979
436.80 0.352359
436.90 0.4748608
437.00 0.6001142
437.10 0.6364965
437.20 0.5526805
437.30 0.3874895
437.40 0.2101438
437.50 0.07317937
437.60 0
437.70 0
437.80 0.008955382
437.90 0.0753893
438.00 0.1522831
438.10 0.1934267
438.20 0.1567629
438.30 0.06988713
438.40 0.02035511
438.50 0.02665463
438.60 0.0286744
438.70 0.03699557
438.80 0.1067916
438.90 0.2204437
439.00 0.3237685
439.10 0.3363371
439.20 0.2438251
439.30 0.114371
439.40 0.01923944
439.50 0
439.60 0
439.70 0
439.80 0
439.90 0.08335105
440.00 0.202366
440.10 0.2326295
440.20 0.1468365
440.30 0.001643574
440.40 0
440.50 0
440.60 0
440.70 0
440.80 0
440.90 0.1378689
441.00 0.3245182
441.10 0.4720445
441.20 0.5368738
441.30 0.5182658
441.40 0.4628016
441.50 0.4245929
441.60 0.4247189
441.70 0.4424758
441.80 0.4360567
441.90 0.379179
442.00 0.2877801
442.10 0.2119197
442.20 0.1966089
442.30 0.2450637
442.40 0.3108826
442.50 0.3335265
442.60 0.2898058
442.70 0.2131372
442.80 0.1666523
442.90 0.1886104
443.00 0.2557876
443.10 0.3025081
443.20 0.2754396
443.30 0.1731001
443.40 0.03976363
443.50 0
443.60 0
443.70 0.003871548
443.80 0.1554001
443.90 0.3109179
444.00 0.4032223
444.10 0.4218294
444.20 0.4118811
444.30 0.4119424
444.40 0.4085148
444.50 0.3685846
444.60 0.277784
444.70 0.1694349
444.80 0.1082835
444.90 0.1294197
445.00 0.2231074
445.10 0.364864
445.20 0.5351924
445.30 0.6922667
445.40 0.7592957
445.50 0.6827839
445.60 0.5199094
445.70 0.3596522
445.80 0.2827044
445.90 0.2736217
446.00 0.2750973
446.10 0.2786162
446.20 0.3298513
446.30 0.4574533
446.40 0.6245694
446.50 0.7489689
446.60 0.7573349
446.70 0.6393081
446.80 0.4678441
446.90 0.351153
447.00 0.3412741
447.10 0.39187
447.20 0.4204912
447.30 0.3998296
447.40 0.3630432
447.50 0.3406958
447.60 0.3226276
447.70 0.2714074
447.80 0.1664097
447.90 0.03390988
448.00 0.0363497
448.10 0.03386925
448.20 0.06001271
448.30 0.2110786
448.40 0.3220817
448.50 0.3694508
448.60 0.3899526
448.70 0.4266739
448.80 0.480018
448.90 0.5215915
449.00 0.5433026
449.10 0.57007
449.20 0.6250779
449.30 0.6934546
449.40 0.7304023
449.50 0.7090014
449.60 0.6491974
449.70 0.5936163
449.80 0.5694783
449.90 0.5718988
450.00 0.5776543
450.10 0.56996
450.20 0.5462203
450.30 0.5200915
450.40 0.5140367
450.50 0.5353711
450.60 0.5619034
450.70 0.5642504
450.80 0.537485
450.90 0.506583
451.00 0.4986347
451.10 0.5149998
451.20 0.5403104
451.30 0.5587602
451.40 0.5588205
451.50 0.5299636
451.60 0.4650825
451.70 0.3752856
451.80 0.2979037
451.90 0.2772501
452.00 0.327356
452.10 0.4204725
452.20 0.5142697
452.30 0.5904012
452.40 0.6616313
452.50 0.7441205
452.60 0.8284682
452.70 0.8769946
452.80 0.8467992
452.90 0.7315143
453.00 0.5859834
453.10 0.4913879
453.20 0.4909092
453.30 0.5566572
453.40 0.6168845
453.50 0.6108454
453.60 0.5238914
453.70 0.3897375
453.80 0.2728099
453.90 0.2239068
454.00 0.2429375
454.10 0.2906081
454.20 0.3264746
454.30 0.3421223
454.40 0.3605545
454.50 0.3958462
454.60 0.4201796
454.70 0.3860033
454.80 0.2771492
454.90 0.1348749
455.00 0.0315345
455.10 0.03017808
455.20 0.168781
455.30 0.428678
455.40 0.706664
455.50 0.8696965
455.60 0.8651029
455.70 0.7581958
455.80 0.6486154
455.90 0.5776779
456.00 0.533561
456.10 0.5066205
456.20 0.5041735
456.30 0.5285844
456.40 0.5672379
456.50 0.6080226
456.60 0.6472929
456.70 0.6841585
456.80 0.7140453
456.90 0.7296461
457.00 0.7318918
457.10 0.7317711
457.20 0.7425388
457.30 0.7771028
457.40 0.8426619
457.50 0.9187684
457.60 0.9504501
457.70 0.887821
457.80 0.7485591
457.90 0.6192728
458.00 0.57378
458.10 0.6187371
458.20 0.7126151
458.30 0.8023986
458.40 0.840902
458.50 0.79516
458.60 0.6692482
458.70 0.5132861
458.80 0.3915238
458.90 0.3407429
459.00 0.3481898
459.10 0.3566431
459.20 0.3154048
459.30 0.2409433
459.40 0.205453
459.50 0.2551817
459.60 0.3531491
459.70 0.4251078
459.80 0.4437428
459.90 0.4389306
460.00 0.4406648
460.10 0.4427443
460.20 0.4241362
460.30 0.3786273
460.40 0.3152941
460.50 0.24866
460.60 0.1969779
460.70 0.1741975
460.80 0.1839899
460.90 0.2351047
461.00 0.3506237
461.10 0.5331821
461.20 0.7196939
461.30 0.8150097
461.40 0.7892028
461.50 0.708936
461.60 0.6554946
461.70 0.6386974
461.80 0.6190239
461.90 0.5832991
462.00 0.5619382
462.10 0.5825737
462.20 0.6424905
462.30 0.7291808
462.40 0.830529
462.50 0.915263
462.60 0.9298021
462.70 0.83928
462.80 0.6596741
462.90 0.4495389
463.00 0.2829434
463.10 0.2201303
463.20 0.2743665
463.30 0.3928178
463.40 0.4955125
463.50 0.546412
463.60 0.5725533
463.70 0.6049272
463.80 0.6301943
463.90 0.6158386
464.00 0.558485
464.10 0.4942895
464.20 0.4646765
464.30 0.4798369
464.40 0.5180853
464.50 0.5533534
464.60 0.5811872
464.70 0.6212935
464.80 0.6884551
464.90 0.7605328
465.00 0.7898927
465.10 0.7495856
465.20 0.6601174
465.30 0.5684214
465.40 0.510666
465.50 0.4999826
465.60 0.5397576
465.70 0.6303888
465.80 0.7556968
465.90 0.8808169
466.00 0.964876
466.10 0.9781438
466.20 0.924589
466.30 0.8500042
466.40 0.8133439
466.50 0.8418401
466.60 0.9114697
466.70 0.9700092
466.80 0.9688821
466.90 0.8755855
467.00 0.6958952
467.10 0.4978067
467.20 0.3817664
467.30 0.3971451
467.40 0.4971013
467.50 0.588189
467.60 0.6123938
467.70 0.5701012
467.80 0.4925516
467.90 0.4184968
468.00 0.3837365
468.10 0.4048533
468.20 0.4662378
468.30 0.5399613
468.40 0.612628
468.50 0.6868854
468.60 0.7614156
468.70 0.8192631
468.80 0.8439308
468.90 0.8351496
469.00 0.7999467
469.10 0.7388404
469.20 0.6596339
469.30 0.602554
469.40 0.6094942
469.50 0.6609882
469.60 0.6813725
469.70 0.6296582
469.80 0.5521673
469.90 0.5118733
470.00 0.4995226
470.10 0.4596441
470.20 0.3882329
470.30 0.343585
470.40 0.3662639
470.50 0.4216784
470.60 0.4378012
470.70 0.3879333
470.80 0.3140119
470.90 0.2848261
471.00 0.3403576
471.10 0.4673561
471.20 0.6107639
471.30 0.7080123
471.40 0.7316087
471.50 0.7114791
471.60 0.7088016
471.70 0.7488532
471.80 0.7892186
471.90 0.7641187
472.00 0.6576816
472.10 0.5264713
472.20 0.4554644
472.30 0.4963567
472.40 0.6286703
472.50 0.7757421
472.60 0.8677404
472.70 0.8995713
472.80 0.9213968
472.90 0.9665865
473.00 1.005291
473.10 0.9837704
473.20 0.8901134
473.30 0.7612541
473.40 0.6383943
473.50 0.5369404
473.60 0.4634921
473.70 0.4408083
473.80 0.4962394
473.90 0.6260703
474.00 0.7775541
474.10 0.8753378
474.20 0.8749026
474.30 0.7962212
474.40 0.7045148
474.50 0.6539717
474.60 0.648347
474.70 0.6520216
474.80 0.6303807
474.90 0.5796731
475.00 0.5271924
475.10 0.5085306
475.20 0.5499748
475.30 0.6538449
475.40 0.7855586
475.50 0.8804608
475.60 0.8772429
475.70 0.7613552
475.80 0.5820353
475.90 0.4169291
476.00 0.3063915
476.10 0.2241229
476.20 0.118183
476.30 0
476.40 0
476.50 0
476.60 0
476.70 0.05275885
476.80 0.1921976
476.90 0.2878221
477.00 0.3281988
477.10 0.347008
477.20 0.3901691
477.30 0.4672564
477.40 0.5441015
477.50 0.5836581
477.60 0.5770045
477.70 0.5323982
477.80 0.4525372
477.90 0.3461035
478.00 0.2523198
478.10 0.2220506
478.20 0.2655415
478.30 0.3300369
478.40 0.3485666
478.50 0.3157519
478.60 0.2932107
478.70 0.3274584
478.80 0.3879362
478.90 0.399641
479.00 0.3339905
479.10 0.250749
479.20 0.238971
479.30 0.3315694
479.40 0.4841147
479.50 0.6217055
479.60 0.6975856
479.70 0.7156942
479.80 0.7116844
479.90 0.7152484
480.00 0.7213241
480.10 0.6982555
480.20 0.6260212
480.30 0.5168642
480.40 0.3978094
480.50 0.291041
480.60 0.2169482
480.70 0.2046901
480.80 0.2775804
480.90 0.4258672
481.00 0.6030704
481.10 0.7509907
481.20 0.8383135
481.30 0.876562
481.40 0.8923115
481.50 0.8841927
481.60 0.8242766
481.70 0.7046568
481.80 0.5680209
481.90 0.4791944
482.00 0.4642463
482.10 0.4941849
482.20 0.5239435
482.30 0.5311841
482.40 0.5206006
482.50 0.5092531
482.60 0.5193486
482.70 0.5646499
482.80 0.6261609
482.90 0.6537707
483.00 0.6189888
483.10 0.5499701
483.20 0.4906004
483.30 0.4479915
483.40 0.4085402
483.50 0.3913991
483.60 0.4374182
483.70 0.5471818
483.80 0.6698868
483.90 0.7605424
484.00 0.8192606
484.10 0.870746
484.20 0.9288713
484.30 0.9835133
484.40 1.006434
484.50 0.9679439
484.60 0.866613
484.70 0.7512555
484.80 0.6956721
484.90 0.734656
485.00 0.8236588
485.10 0.8715629
485.20 0.8225748
485.30 0.7051135
485.40 0.5927055
485.50 0.5187473
485.60 0.4573477
485.70 0.4063425
485.80 0.4643601
485.90 0.7741236
486.00 1.358325
486.10 2.018392
486.20 2.433492
486.30 2.390349
486.40 1.936938
486.50 1.334036
486.60 0.8589099
486.70 0.6329864
486.80 0.596493
486.90 0.6088482
487.00 0.5661494
487.10 0.4565382
487.20 0.3418441
487.30 0.300967
487.40 0.3734431
487.50 0.533141
487.60 0.7115212
487.70 0.8435642
487.80 0.8974875
487.90 0.8731696
488.00 0.7903335
488.10 0.6858505
488.20 0.6063962
488.30 0.5874888
488.40 0.6319682
488.50 0.7093474
488.60 0.7737469
488.70 0.7890644
488.80 0.7451795
488.90 0.6588777
489.00 0.5670444
489.10 0.516368
489.20 0.5399391
489.30 0.622455
489.40 0.696427
489.50 0.6973894
489.60 0.6300037
489.70 0.5593087
489.80 0.5376028
489.90 0.5676683
490.00 0.6333684
490.10 0.7243811
490.20 0.8154333
490.30 0.8581372
490.40 0.8287932
490.50 0.7709517
490.60 0.7531992
490.70 0.7898613
490.80 0.8325886
490.90 0.8370444
491.00 0.8145012
491.10 0.8052927
491.20 0.8215009
491.30 0.8415318
491.40 0.8478098
491.50 0.8435695
491.60 0.8414087
491.70 0.8524434
491.80 0.8852851
491.90 0.9414524
492.00 1.003179
492.10 1.042918
492.20 1.05597
492.30 1.068046
492.40 1.101395
492.50 1.13873
492.60 1.133684
492.70 1.070479
492.80 0.9972003
492.90 0.981632
493.00 1.040462
493.10 1.127653
493.20 1.194415
493.30 1.237588
493.40 1.280119
493.50 1.329188
493.60 1.373628
493.70 1.40633
493.80 1.429351
493.90 1.439754
494.00 1.431457
494.10 1.4119
494.20 1.399256
494.30 1.405346
494.40 1.43238
494.50 1.479079
494.60 1.538718
494.70 1.594583
494.80 1.62614
494.90 1.624317
495.00 1.59274
495.10 1.542852
495.20 1.494449
495.30 1.458997
495.40 1.413014
495.50 1.306439
495.60 1.114635
495.70 0.873885
495.80 0.6456596
495.90 0.4533037
496.00 0.2821035
496.10 0.1320797
496.20 0.03650503
496.30 0.02759821
496.40 0.1011936
496.50 0.2183013
496.60 0.3281956
496.70 0.3932831
496.80 0.4161307
496.90 0.4390948
497.00 0.4870141
497.10 0.5156674
497.20 0.4507741
497.30 0.2839872
497.40 0.1024975
497.50 0.01334134
497.60 0.06469306
497.70 0.2411388
497.80 0.4923057
497.90 0.7362617
498.00 0.8708648
498.10 0.8404451
498.20 0.7037747
498.30 0.6016677
498.40 0.6395158
498.50 0.8054445
498.60 0.9941637
498.70 1.098962
498.80 1.082199
498.90 0.9815335
499.00 0.8646909
499.10 0.7740403
499.20 0.7071792
499.30 0.6449288
499.40 0.5867588
499.50 0.5541217
499.60 0.5621613
499.70 0.590084
499.80 0.5844987
499.90 0.5021058
500.00 1
500.10 1.142833
500.20 0.6333848
500.30 0.03208903
500.40 0.4571353
500.50 0.8718339
500.60 0.7366935
500.70 0.844705
500.80 0.8088807
500.90 0.5115407
501.00 0.5335659
501.10 0.7810981
501.20 0.8668189
501.30 0.4906462
501.40 0.8329245
501.50 1.134278
501.60 0.3454654
501.70 0.2015259
501.80 0.5633582
501.90 0.8258823
502.00 1.308621
502.10 0.4799192
502.20 0.335736
502.30 0.4755067
502.40 0.3297605
502.50 0.3525853
502.60 0.9207641
502.70 0.9723145
502.80 0.9007547
502.90 0.9236398
503.00 1.139932
503.10 1.147196
503.20 0.8558928
503.30 0.9449315
503.40 1.053088
503.50 0.5470705
503.60 0.6367449
503.70 1.23175
503.80 1.162078
503.90 0.8932214
504.00 1.073435
504.10 0.6848918
504.20 0.3995312
504.30 0.6961456
504.40 0.776653
504.50 0.550502
504.60 0.6592859
504.70 0.8534558
504.80 0.810709
504.90 0.8038992
505.00 0.9134266
505.10 0.6384192
505.20 0.6929257
505.30 1.145379
505.40 0.6531622
505.50 0
505.60 0.6255888
505.70 1.244327
505.80 1.066383
505.90 0.6837741
506.00 0.8155145
506.10 0.7702504
506.20 0.2496603
506.30 0.892157
506.40 1.102809
506.50 0.7127263
506.60 0.666986
506.70 0.6630001
506.80 0.6800876
506.90 0.7461153
507.00 1.39228
507.10 1.642118
507.20 1.136433
507.30 0.6500337
507.40 1.133323
507.50 1.780435
507.60 1.834517
507.70 1.618468
507.80 1.487892
507.90 1.554742
508.00 1.402497
508.10 1.410909
508.20 1.552701
508.30 1.26626
508.40 0.6425011
508.50 0.4014207
508.60 0.8203129
508.70 1.377265
508.80 1.519641
508.90 1.338021
509.00 1.345456
509.10 0.8691425
509.20 0.8455674
509.30 1.228315
509.40 1.243732
509.50 1.118301
509.60 1.74707
509.70 1.918167
509.80 1.520981
509.90 1.652145
510.00 1.305273
510.10 0.5494674
510.20 0.3034781
510.30 0.4999624
510.40 0.5256084
510.50 1.076505
510.60 0.9924791
510.70 0.6046779
510.80 0.8140591
510.90 1.181434
511.00 1.179756
511.10 1.093934
511.20 1.438992
511.30 1.650895
511.40 1.382451
511.50 1.291496
511.60 1.708526
511.70 1.89341
511.80 0.9626424
511.90 0.9203664
512.00 1.341809
512.10 1.560354
512.20 1.598176
512.30 1.791684
512.40 1.65452
512.50 1.137428
512.60 0.9975779
512.70 1.229961
512.80 1.222643
512.90 0.5090305
513.00 0.6945662
513.10 1.524186
513.20 1.356612
513.30 1.351745
513.40 1.575342
513.50 1.302373
513.60 1.588018
513.70 1.406476
513.80 1.211737
513.90 1.163479
514.00 1.536119
514.10 1.022017
514.20 0.7703313
514.30 0.9674475
514.40 1.423276
514.50 1.726161
514.60 1.40836
514.70 1.013725
514.80 0.9233189
514.90 0.8319595
515.00 0.6185354
515.10 0.7430228
515.20 1.259208
515.30 1.39567
515.40 1.058283
515.50 1.134554
515.60 1.099912
515.70 1.542445
515.80 1.764931
515.90 1.866549
516.00 1.8283
516.10 1.672137
516.20 1.837083
516.30 1.984095
516.40 2.264059
516.50 2.010502
516.60 1.504325
516.70 1.108335
516.80 0.9654514
516.90 0.3131085
517.00 0.009117794
517.10 0
517.20 0.1853755
517.30 0.5291524
517.40 0.5166053
517.50 0.6069219
517.60 0.807433
517.70 0.6528655
517.80 0.5237936
517.90 0.533668
518.00 0.5185375
518.10 0.370886
518.20 0.3075066
518.30 0
518.40 0.2102485
518.50 0.5560364
518.60 1.111205
518.70 1.162173
518.80 1.077892
518.90 0.8515607
519.00 0.7725654
519.10 0.7899932
519.20 0.8836557
519.30 0.6075436
519.40 0.661567
519.50 0.7499211
519.60 0.9008616
519.70 0.8892662
519.80 0.4476084
519.90 0.2869026
520.00 0.3062985
520.10 0.09071594
520.20 0.210506
520.30 1.06864
520.40 1.303935
520.50 0.9495215
520.60 0.8220835
520.70 0.8116051
520.80 1.137125
520.90 1.086641
521.00 0.6609718
521.10 0.5030979
521.20 0.8509611
521.30 1.056253
521.40 1.4577
521.50 1.119042
521.60 0.7607972
521.70 1.145074
521.80 1.180559
521.90 0.9320737
522.00 1.180369
522.10 1.283675
522.20 1.102531
522.30 0.7890538
522.40 0.9747579
522.50 1.816605
522.60 1.833838
522.70 1.796232
522.80 1.635831
522.90 1.161002
523.00 1.103116
523.10 1.199015
523.20 1.492031
523.30 1.472221
523.40 1.138466
523.50 0.8701531
523.60 1.275266
523.70 1.260735
523.80 1.330958
523.90 1.540148
524.00 1.601336
524.10 1.325556
524.20 1.406724
524.30 1.065098
524.40 0.7653149
524.50 0.6574421
524.60 0.778832
524.70 1.019802
524.80 0.96048
524.90 0.8209827
525.00 1.183111
525.10 1.012491
525.20 0.8974683
525.30 1.308886
525.40 1.793261
525.50 1.594218
525.60 1.100278
525.70 1.243232
525.80 1.6654
525.90 1.667483
526.00 1.322345
526.10 1.11726
526.20 1.191649
526.30 1.432133
526.40 1.271459
526.50 1.13918
526.60 1.057346
526.70 1.161837
526.80 1.488657
526.90 1.079511
527.00 1.265528
527.10 1.612466
527.20 1.241969
527.30 1.174078
527.40 1.323678
527.50 1.468347
527.60 1.72679
527.70 1.385049
527.80 1.226925
527.90 1.42796
528.00 1.693545
528.10 1.146975
528.20 0.7975511
528.30 1.586469
528.40 1.920154
528.50 1.303214
528.60 1.078079
528.70 1.480872
528.80 1.647819
528.90 1.588803
529.00 1.632509
529.10 1.565011
529.20 1.663327
529.30 1.638804
529.40 1.633994
529.50 1.625281
529.60 1.623934
529.70 1.795408
529.80 1.926676
529.90 1.405041
530.00 1.200513
530.10 1.580964
530.20 2.104243
530.30 1.895939
530.40 1.783475
530.50 2.021432
530.60 1.874912
530.70 1.655121
530.80 1.487861
530.90 1.537034
531.00 1.514144
531.10 1.262518
531.20 1.300663
531.30 1.400067
531.40 1.148887
531.50 1.080907
531.60 1.31521
531.70 1.342326
531.80 1.356274
531.90 1.256315
532.00 1.280373
532.10 1.965562
532.20 1.89782
532.30 1.407023
532.40 1.189417
532.50 1.444513
532.60 1.653212
532.70 1.35727
532.80 1.099675
532.90 1.751061
533.00 1.411325
533.10 1.1176
533.20 1.353517
533.30 2.193701
533.40 1.856177
533.50 1.043148
533.60 1.171827
533.70 1.035711
533.80 1.265452
533.90 1.489233
534.00 1.811953
534.10 1.643378
534.20 1.183568
534.30 1.361607
534.40 1.793616
534.50 2.06267
534.60 2.189659
534.70 1.754416
534.80 1.07602
534.90 1.079027
535.00 1.463867
535.10 2.018763
535.20 2.163816
535.30 2.351784
535.40 2.513828
535.50 2.299113
535.60 1.866541
535.70 1.827139
535.80 1.365125
535.90 1.367215
536.00 1.575215
536.10 1.901402
536.20 1.764811
536.30 1.643158
536.40 1.283916
536.50 1.435639
536.60 1.251639
536.70 1.116325
536.80 1.137312
536.90 1.324387
537.00 1.296693
537.10 1.345285
537.20 1.410998
537.30 1.656397
537.40 1.368112
537.50 1.211517
537.60 1.362754
537.70 1.649032
537.80 1.752396
537.90 2.233181
538.00 2.493235
538.10 2.02154
538.20 1.521313
538.30 1.721985
538.40 2.366886
538.50 2.272354
538.60 1.875261
538.70 1.56713
538.80 1.957778
538.90 1.779533
539.00 1.760326
539.10 2.025392
539.20 1.853868
539.30 1.347368
539.40 1.645405
539.50 1.962205
539.60 1.984338
539.70 1.865339
539.80 2.269419
539.90 2.461547
540.00 2.074664
540.10 2.363979
540.20 2.755355
540.30 2.718064
540.40 2.358318
540.50 2.061591
540.60 1.883494
540.70 2.372474
540.80 2.386552
540.90 1.5877
541.00 1.427407
541.10 1.264627
541.20 1.720778
541.30 2.054999
541.40 1.852077
541.50 1.646895
541.60 1.685135
541.70 1.864103
541.80 2.287905
541.90 2.329499
542.00 1.731971
542.10 1.874174
542.20 2.224043
542.30 2.552429
542.40 2.64066
542.50 2.526218
542.60 2.443717
542.70 2.09867
542.80 1.893844
542.90 2.126097
543.00 1.86091
543.10 1.727213
543.20 1.750614
543.30 1.814261
543.40 1.797409
543.50 2.002124
543.60 2.061891
543.70 1.971201
543.80 1.881873
543.90 2.422099
544.00 2.489731
544.10 2.39803
544.20 2.92093
544.30 2.946708
544.40 2.384926
544.50 2.41576
544.60 2.879978
544.70 2.816398
544.80 2.356971
544.90 1.893674
545.00 1.215659
545.10 0.2449132
545.20 0.1189971
545.30 0.2198439
545.40 0.286238
545.50 0.4574368
545.60 0.5458262
545.70 0.7745523
545.80 0.9027807
545.90 0.8310493
546.00 1.025763
546.10 1.76353
546.20 1.796483
546.30 1.824872
546.40 1.57552
546.50 0.8998719
546.60 0.7687924
546.70 0.9096732
546.80 1.513101
546.90 1.610089
547.00 1.230844
547.10 0.774293
547.20 0.6411821
547.30 0.4875999
547.40 0.3968899
547.50 0.7972309
547.60 1.372579
547.70 1.368887
547.80 1.14594
547.90 1.169969
548.00 1.266329
548.10 1.178639
548.20 1.024208
548.30 0.8130837
548.40 0.9446602
548.50 1.229715
548.60 1.1925
548.70 1.17253
548.80 1.165552
548.90 0.9211377
549.00 0.8952583
549.10 0.7687721
549.20 1.096582
549.30 1.111051
549.40 0.923198
549.50 1.222408
549.60 1.376541
549.70 0.8905788
549.80 0.8148042
549.90 1.334677
550.00 0.9485208
550.10 0.5362048
550.20 0.6179398
550.30 0.8246445
550.40 0.6477472
550.50 0.5590555
550.60 0.8281333
550.70 0.5503029
550.80 0.383304
550.90 0.487799
551.00 0.360062
551.10 0.2087986
551.20 0
551.30 0
551.40 0.2298694
551.50 0.716212
551.60 1.142489
551.70 1.025125
551.80 0.3590656
551.90 0
552.00 0.3661627
552.10 0.5164899
552.20 0.02491091
552.30 0.08721879
552.40 0.3058054
552.50 0.3866921
552.60 0.7885409
552.70 0.481272
552.80 0.3370115
552.90 0.4246232
553.00 0.2358949
553.10 0.3523449
553.20 0.5261324
553.30 0.6247038
553.40 0.6155424
553.50 0.6642777
553.60 0.2874525
553.70 0.2951608
553.80 0.2989594
553.90 0.3171477
554.00 0.7491678
554.10 0.6853052
554.20 0.312608
554.30 0.2096307
554.40 0.6952458
554.50 0.8216089
554.60 0.2604455
554.70 0.01169615
554.80 0.04786358
554.90 0.3370657
555.00 0.4488655
555.10 0.4310106
555.20 0
555.30 0.3572571
555.40 0.6638276
555.50 0.4812487
555.60 0.5294464
555.70 0.7020535
555.80 0.8311426
555.90 0.4189947
556.00 0.3930632
556.10 0.8361853
556.20 0.770836
556.30 0.5586028
556.40 0.8209015
556.50 1.093335
556.60 1.031973
556.70 0.6656215
556.80 0.6466617
556.90 0.699126
557.00 0.8547763
557.10 1.027028
557.20 1.030344
557.30 1.025163
557.40 1.025213
557.50 1.025213
557.60 1.025213
557.70 1.025213
557.80 1.025213
557.90 1.025213
558.00 1.025213
558.10 1.025213
558.20 1.02525
558.30 1.030359
558.40 0.9909174
558.50 0.9883717
558.60 1.377299
558.70 1.553959
558.80 1.369894
558.90 1.11669
559.00 1.199709
559.10 1.269434
559.20 1.288188
559.30 1.286584
559.40 1.298141
559.50 1.454382
559.60 1.487415
559.70 0.9071784
559.80 0.7267815
559.90 0.8425976
560.00 0.9843745
560.10 1.063552
560.20 1.42139
560.30 1.574529
560.40 1.374621
560.50 1.184012
560.60 1.229825
560.70 0.757838
560.80 0.5812712
560.90 0.9052637
561.00 1.457227
561.10 1.725242
561.20 1.233231
561.30 0.9412468
561.40 1.352013
561.50 1.438224
561.60 1.190289
561.70 1.381184
561.80 1.303861
561.90 0.8617928
562.00 0.615995
562.10 0.8024811
562.20 1.183294
562.30 0.9685466
562.40 1.171507
562.50 1.078055
562.60 0.9405216
562.70 0.8850655
562.80 0.968863
562.90 1.043707
563.00 1.46098
563.10 1.069873
563.20 0.4357441
563.30 0.4577575
563.40 1.055219
563.50 1.446695
563.60 1.244889
563.70 0.6923164
563.80 0.5068217
563.90 1.034529
564.00 1.061167
564.10 0.7262404
564.20 0.5459657
564.30 0.7970107
564.40 1.075326
564.50 0.9569128
564.60 1.132384
564.70 0.9374498
564.80 1.211875
564.90 1.486618
565.00 1.44479
565.10 1.176515
565.20 1.157878
565.30 1.642903
565.40 1.769233
565.50 1.467962
565.60 0.8771022
565.70 1.026288
565.80 1.33519
565.90 1.643556
566.00 1.464978
566.10 1.163135
566.20 1.15586
566.30 1.449943
566.40 1.64818
566.50 1.12353
566.60 1.13699
566.70 1.454354
566.80 1.518018
566.90 1.375653
567.00 1.411988
567.10 1.528768
567.20 1.55899
567.30 1.640121
567.40 1.185804
567.50 1.15796
567.60 0.9753677
567.70 1.216508
567.80 1.272606
567.90 1.376555
568.00 1.449605
568.10 1.025566
568.20 0.8859895
568.30 1.553581
568.40 2.342463
568.50 2.123171
568.60 1.265904
568.70 1.064033
568.80 1.415675
568.90 2.037526
569.00 2.27385
569.10 1.415467
569.20 1.59866
569.30 1.896732
569.40 1.889367
569.50 1.535382
569.60 1.185036
569.70 1.257558
569.80 1.502158
569.90 1.828957
570.00 1.86415
570.10 1.664266
570.20 1.472813
570.30 1.291646
570.40 1.522089
570.50 1.912166
570.60 2.223897
570.70 2.111001
570.80 2.110472
570.90 1.843437
571.00 1.694101
571.10 1.796772
571.20 1.803368
571.30 1.944226
571.40 1.679767
571.50 1.204722
571.60 1.203474
571.70 1.500555
571.80 1.990495
571.90 1.893261
572.00 1.486799
572.10 0.9760021
572.20 1.140675
572.30 1.45728
572.40 1.782713
572.50 1.899646
572.60 1.889483
572.70 1.902062
572.80 1.747151
572.90 1.589551
573.00 1.805279
573.10 1.800381
573.20 1.651874
573.30 1.738154
573.40 2.022477
573.50 2.096535
573.60 2.062553
573.70 1.86994
573.80 1.709703
573.90 1.514411
574.00 1.259333
574.10 1.377039
574.20 1.627187
574.30 1.902165
574.40 2.23544
574.50 2.187414
574.60 1.820579
574.70 1.536201
574.80 2.243222
574.90 1.722433
575.00 1.132152
575.10 1.490792
575.20 2.08255
575.30 1.769032
575.40 1.393782
575.50 1.932901
575.60 2.005506
575.70 1.893791
575.80 2.030696
575.90 2.149968
576.00 1.891181
576.10 1.322772
576.20 1.318127
576.30 1.57125
576.40 1.965427
576.50 1.875618
576.60 1.608017
576.70 1.611444
576.80 1.761672
576.90 1.284052
577.00 1.077769
577.10 1.416592
577.20 1.362187
577.30 0.8816252
577.40 0.9779456
577.50 1.58972
577.60 2.003725
577.70 1.891714
577.80 1.465234
577.90 1.355265
578.00 1.774277
578.10 2.247897
578.20 2.136788
578.30 1.465795
578.40 0.9407081
578.50 1.445236
578.60 2.077588
578.70 2.367152
578.80 2.076284
578.90 2.047653
579.00 2.234333
579.10 2.410323
579.20 2.486802
579.30 2.122855
579.40 1.819705
579.50 1.947604
579.60 2.226799
579.70 2.564835
579.80 2.429879
579.90 2.041186
580.00 2.283462
580.10 2.460951
580.20 2.308161
580.30 2.248842
580.40 2.002871
580.50 2.209819
580.60 2.536624
580.70 2.56988
580.80 2.870419
580.90 2.98265
581.00 2.499123
581.10 2.116876
581.20 2.101955
581.30 1.803387
581.40 1.695022
581.50 1.566331
581.60 1.684913
581.70 1.729155
581.80 2.239067
581.90 2.208189
582.00 1.494312
582.10 1.560345
582.20 1.793568
582.30 1.855971
582.40 1.687996
582.50 1.358694
582.60 1.510145
582.70 1.779515
582.80 2.004924
582.90 1.668228
583.00 1.720533
583.10 2.092178
583.20 2.030171
583.30 1.579142
583.40 2.174096
583.50 2.269116
583.60 1.276413
583.70 1.32834
583.80 1.359195
583.90 1.241723
584.00 1.245815
584.10 1.821803
584.20 2.167876
584.30 2.020937
584.40 2.215334
584.50 2.249886
584.60 1.595625
584.70 1.231958
584.80 1.187795
584.90 1.732612
585.00 1.939395
585.10 1.718278
585.20 1.010723
585.30 1.031023
585.40 1.396642
585.50 1.535602
585.60 1.820556
585.70 1.567847
585.80 1.367747
585.90 1.412564
586.00 1.374982
586.10 0.6390183
586.20 0.3716291
586.30 0.7327719
586.40 1.247221
586.50 1.268034
586.60 1.240722
586.70 1.14954
586.80 1.024982
586.90 1.344054
587.00 1.418326
587.10 1.205618
587.20 0.968745
587.30 0.9247914
587.40 1.164201
587.50 1.148827
587.60 0.9698812
587.70 0.9167969
587.80 0.9157738
587.90 0.7928225
588.00 0.9133731
588.10 0.6324373
588.20 0.6278067
588.30 0.7789285
588.40 0.9996734
588.50 0.8058368
588.60 0.3985762
588.70 0.5612367
588.80 1.168544
588.90 2.053973
589.00 2.23563
589.10 0.8785134
589.20 1.202929
589.30 2.600997
589.40 2.183945
589.50 1.240965
589.60 0.475438
589.70 0.8870387
589.80 0.9689216
589.90 0.833874
590.00 1.023815
590.10 0.6503398
590.20 0.7561006
590.30 0.7481837
590.40 0.4666438
590.50 0.5050243
590.60 0.7666531
590.70 1.151686
590.80 1.015681
590.90 0.7710672
591.00 0.697338
591.10 0.8945921
591.20 1.161216
591.30 0.9391892
591.40 0.7775793
591.50 0.8180486
591.60 1.190165
591.70 1.045347
591.80 0.559339
591.90 0.7537773
592.00 0.8593894
592.10 0.8387972
592.20 0.6833516
592.30 1.150234
592.40 1.247835
592.50 0.2763015
592.60 0.5261244
592.70 1.192774
592.80 1.236335
592.90 0.8502348
593.00 0.7329946
593.10 0.9678868
593.20 1.103176
593.30 0.9724635
593.40 0.7645461
593.50 0.4598056
593.60 0.4470936
593.70 0.9506623
593.80 0.9606741
593.90 0.7507182
594.00 0.7365689
594.10 0.8866906
594.20 0.7229843
594.30 1.006862
594.40 1.143806
594.50 1.056423
594.60 0.9505985
594.70 1.34106
594.80 1.591563
594.90 1.619165
595.00 1.780248
595.10 1.321898
595.20 0.9287286
595.30 0.6006354
595.40 0.5599102
595.50 0.4508999
595.60 0.8491048
595.70 1.89568
595.80 1.921283
595.90 1.366725
596.00 1.016367
596.10 1.105249
596.20 0.8502377
596.30 0.4837636
596.40 0.5816311
596.50 1.32082
596.60 1.428985
596.70 1.310393
596.80 1.433462
596.90 1.065303
597.00 0.8272382
597.10 0.6606677
597.20 0.6092356
597.30 0.4442416
597.40 0.4709395
597.50 0.9188135
597.60 0.9136841
597.70 0.8376912
597.80 0.542262
597.90 0.6751433
598.00 0.846712
598.10 1.258993
598.20 1.247955
598.30 1.048567
598.40 1.043531
598.50 1.173363
598.60 1.217865
598.70 0.9818256
598.80 1.157025
598.90 1.338159
599.00 1.031161
599.10 1.114106
599.20 1.273235
599.30 1.193089
599.40 0.916655
599.50 0.8109719
599.60 0.9894369
599.70 1.074783
599.80 1.074638
599.90 1.423598
600.00 1.542953
600.10 1.409641
600.20 1.215965
600.30 1.237506
600.40 1.443194
600.50 1.257743
600.60 1.168298
600.70 0.9843195
600.80 1.210672
600.90 1.470502
601.00 1.136998
601.10 0.8277815
601.20 0.9522347
601.30 1.425338
601.40 1.230725
601.50 0.7810469
601.60 1.18072
601.70 1.39057
601.80 1.592295
601.90 1.65774
602.00 1.504214
602.10 1.006782
602.20 0.9463942
602.30 1.134122
602.40 1.209704
602.50 1.290331
602.60 1.201308
602.70 1.148559
602.80 0.8882539
602.90 0.8943458
603.00 0.8211325
603.10 0.6304263
603.20 0.8705254
603.30 1.113598
603.40 1.575465
603.50 1.641788
603.60 1.481018
603.70 1.524115
603.80 1.356567
603.90 0.9928847
604.00 0.9428935
604.10 1.082452
604.20 1.213551
604.30 1.454997
604.40 1.650163
604.50 1.551518
604.60 1.306765
604.70 1.442302
604.80 2.015797
604.90 1.925668
605.00 1.324635
605.10 1.076047
605.20 1.418795
605.30 1.506749
605.40 1.330709
605.50 1.182852
605.60 1.255857
605.70 1.684153
605.80 1.824911
605.90 1.312188
606.00 1.113799
606.10 1.181813
606.20 1.35362
606.30 1.468731
606.40 1.546754
606.50 1.496046
606.60 1.307795
606.70 1.645787
606.80 1.921606
606.90 1.98773
607.00 1.780987
607.10 1.62855
607.20 1.629998
607.30 1.358339
607.40 1.293241
607.50 1.456416
607.60 1.544839
607.70 1.55308
607.80 1.44434
607.90 1.514787
608.00 1.374711
608.10 1.411072
608.20 1.363708
608.30 1.431694
608.40 1.905454
608.50 1.83672
608.60 1.437394
608.70 1.257502
608.80 1.500147
608.90 1.578838
609.00 1.154634
609.10 1.360752
609.20 1.675114
609.30 1.746239
609.40 1.49556
609.50 1.428299
609.60 1.406388
609.70 1.473439
609.80 1.875335
609.90 1.836923
610.00 1.562797
610.10 1.743562
610.20 1.747672
610.30 1.50201
610.40 1.023613
610.50 1.231695
610.60 1.442097
610.70 1.409848
610.80 1.228834
610.90 1.505433
611.00 1.707152
611.10 1.814095
611.20 1.922287
611.30 1.770162
611.40 1.45603
611.50 1.317817
611.60 1.16976
611.70 1.238372
611.80 1.246809
611.90 1.496734
612.00 1.781579
612.10 1.70156
612.20 1.534754
612.30 1.528895
612.40 1.571862
612.50 1.465654
612.60 1.12894
612.70 1.049078
612.80 0.9891509
612.90 0.9937418
613.00 1.380607
613.10 1.511305
613.20 1.076768
613.30 1.247226
613.40 1.598633
613.50 1.632148
613.60 1.395349
613.70 1.372662
613.80 1.449408
613.90 1.126697
614.00 1.109679
614.10 1.221727
614.20 1.11421
614.30 0.7890284
614.40 0.9351043
614.50 1.36726
614.60 1.555792
614.70 1.342244
614.80 1.269595
614.90 1.075104
615.00 1.099808
615.10 0.8760362
615.20 0.6394611
615.30 0.9029038
615.40 1.155072
615.50 1.10075
615.60 0.7958296
615.70 0.9702522
615.80 1.477729
615.90 1.267091
616.00 1.032072
616.10 0.8968256
616.20 0.8980763
616.30 1.054127
616.40 1.176838
616.50 1.119406
616.60 0.6395947
616.70 0.5373103
616.80 0.6753745
616.90 0.6669508
617.00 0.7837669
617.10 0.7572935
617.20 0.8642534
617.30 0.9471406
617.40 0.8330727
617.50 0.959086
617.60 1.003179
617.70 0.8056139
617.80 0.6090562
617.90 0.8410594
618.00 0.6889338
618.10 0.3839222
618.20 0.1571031
618.30 0.2142863
618.40 0.9208566
618.50 1.153774
618.60 1.058396
618.70 0.9689768
618.80 0.8068735
618.90 0.625048
619.00 0.7044719
619.10 0.8655576
619.20 0.7958017
619.30 1.272849
619.40 1.405254
619.50 1.162366
619.60 0.9273152
619.70 1.049544
619.80 0.8864557
619.90 0.5581046
620.00 0.5958177
620.10 0.6826359
620.20 0.8012424
620.30 0.7614081
620.40 0.8913304
620.50 0.9699046
620.60 0.8133553
620.70 0.6797736
620.80 0.8681236
620.90 1.192433
621.00 1.12459
621.10 1.083721
621.20 1.083435
621.30 0.7878648
621.40 0.8210601
621.50 0.9796654
621.60 1.098025
621.70 0.8226852
621.80 0.6329232
621.90 0.8708398
622.00 1.090143
622.10 1.040309
622.20 0.9941183
622.30 0.7727646
622.40 0.8657646
622.50 0.8501804
622.60 0.8436252
622.70 0.7048487
622.80 0.6184525
622.90 0.9355407
623.00 0.9531844
623.10 1.010604
623.20 0.9828021
623.30 0.9573523
623.40 0.9163545
623.50 0.8910739
623.60 0.6657107
623.70 0.7169681
623.80 0.4604921
623.90 0
624.00 0.5473131
624.10 1.402776
624.20 1.364044
624.30 0.446517
624.40 0.3348517
624.50 1.019607
624.60 1.217672
624.70 0.9856679
624.80 0.6528467
624.90 0.6067647
625.00 0.6782008
625.10 0.6785882
625.20 0.7680759
625.30 1.021727
625.40 1.350195
625.50 1.099366
625.60 0.8074099
625.70 0.7684428
625.80 0.9603851
625.90 1.215609
626.00 1.14326
626.10 1.141074
626.20 1.285631
626.30 1.066093
626.40 0.6374316
626.50 0.7162109
626.60 0.9299308
626.70 0.8261401
626.80 0.6095674
626.90 0.8301727
627.00 1.08655
627.10 1.129765
627.20 0.8652302
627.30 0.9573214
627.40 1.280258
627.50 1.299429
627.60 1.204553
627.70 1.237426
627.80 1.518145
627.90 1.42052
628.00 1.240773
628.10 1.055201
628.20 1.021055
628.30 1.204569
628.40 1.231413
628.50 0.9351741
628.60 0.7939581
628.70 1.023637
628.80 1.383596
628.90 1.200155
629.00 1.085002
629.10 1.254195
629.20 1.404898
629.30 1.638904
629.40 1.476947
629.50 1.363443
629.60 1.382565
629.70 1.6527
629.80 2.051951
629.90 2.196852
630.00 2.069352
630.10 0.8770977
630.20 0.3748961
630.30 0.2510516
630.40 1.769282
630.50 3.124392
630.60 2.18059
630.70 1.669381
630.80 1.532371
630.90 1.591411
631.00 1.58699
631.10 1.786501
631.20 2.214286
631.30 2.107235
631.40 1.863226
631.50 1.564666
631.60 1.413969
631.70 1.707998
631.80 1.840159
631.90 1.712205
632.00 1.606308
632.10 2.047358
632.20 2.082537
632.30 1.735257
632.40 1.75281
632.50 1.917294
632.60 1.878031
632.70 1.658298
632.80 1.623667
632.90 1.917635
633.00 2.196863
633.10 1.755368
633.20 1.368579
633.30 1.462882
633.40 1.941043
633.50 2.214554
633.60 2.118171
633.70 2.165487
633.80 2.172682
633.90 2.242644
634.00 2.128647
634.10 2.138442
634.20 2.462753
634.30 2.512281
634.40 2.175035
634.50 2.036168
634.60 2.311633
634.70 2.583005
634.80 2.648508
634.90 2.402819
635.00 2.478321
635.10 2.510867
635.20 2.237574
635.30 2.079467
635.40 2.242797
635.50 2.38432
635.60 2.26199
635.70 2.467136
635.80 2.480571
635.90 1.939762
636.00 1.775744
636.10 2.401707
636.20 3.21668
636.30 3.151232
636.40 2.287207
636.50 1.598295
636.60 1.50753
636.70 1.544859
636.80 1.968226
636.90 2.174319
637.00 2.188626
637.10 2.427948
637.20 2.593903
637.30 2.427556
637.40 2.132537
637.50 1.977091
637.60 2.188166
637.70 2.376108
637.80 2.31068
637.90 2.165931
638.00 2.102592
638.10 2.192548
638.20 1.833256
638.30 1.729979
638.40 2.074784
638.50 2.216334
638.60 2.289991
638.70 2.303778
638.80 2.281165
638.90 2.187281
639.00 2.160711
639.10 2.213595
639.20 2.229251
639.30 2.272573
639.40 2.513866
639.50 2.517743
639.60 2.307448
639.70 2.213225
639.80 2.353561
639.90 2.523334
640.00 2.697341
640.10 2.836352
640.20 2.603558
640.30 2.383838
640.40 2.539177
640.50 2.903517
640.60 3.086817
640.70 2.888656
640.80 2.63569
640.90 2.469105
641.00 2.357764
641.10 2.412904
641.20 2.449602
641.30 2.567224
641.40 2.696713
641.50 2.627109
641.60 2.423434
641.70 2.348204
641.80 2.572761
641.90 2.671566
642.00 2.649159
642.10 2.59055
642.20 2.412913
642.30 2.24878
642.40 2.230565
642.50 2.204318
642.60 2.096002
642.70 2.111478
642.80 2.36796
642.90 2.713202
643.00 2.686777
643.10 2.520732
643.20 2.526669
643.30 2.520789
643.40 2.544728
643.50 2.319631
643.60 2.160269
643.70 2.320736
643.80 2.585169
643.90 2.811597
644.00 2.675751
644.10 2.410194
644.20 2.33512
644.30 2.574291
644.40 2.673424
644.50 2.477094
644.60 2.418302
644.70 2.612838
644.80 2.709644
644.90 2.4686
645.00 2.327872
645.10 2.446946
645.20 2.594008
645.30 2.767157
645.40 2.687346
645.50 2.682761
645.60 2.683166
645.70 2.624054
645.80 2.532495
645.90 2.432574
646.00 2.581439
646.10 2.883395
646.20 2.842543
646.30 2.52065
646.40 2.622962
646.50 2.804811
646.60 2.633006
646.70 2.263127
646.80 2.417208
646.90 2.867342
647.00 3.09864
647.10 2.787309
647.20 2.634424
647.30 3.181427
647.40 3.716013
647.50 3.506149
647.60 2.815967
647.70 2.61433
647.80 2.71658
647.90 2.815322
648.00 2.635134
648.10 2.530238
648.20 2.643372
648.30 2.682139
648.40 2.644764
648.50 2.565169
648.60 2.434356
648.70 2.642834
648.80 2.823311
648.90 2.762783
649.00 2.795738
649.10 2.740401
649.20 2.762552
649.30 2.922115
649.40 2.92992
649.50 2.996706
649.60 3.232461
649.70 3.379742
649.80 3.078084
649.90 2.890414
650.00 3.38332
650.10 3.284063
650.20 3.216095
650.30 3.466893
650.40 3.762733
650.50 3.708362
650.60 3.414507
650.70 3.650776
650.80 3.876457
650.90 3.894182
651.00 3.922347
651.10 4.08202
651.20 4.215372
651.30 4.243846
651.40 4.036434
651.50 3.929397
651.60 4.039948
651.70 4.150247
651.80 4.122935
651.90 4.291821
652.00 4.560352
652.10 4.500458
652.20 4.622834
652.30 4.779784
652.40 4.794503
652.50 4.658103
652.60 4.692212
652.70 5.258147
652.80 5.65992
652.90 5.68
653.00 5.72227
653.10 5.921794
653.20 5.957644
653.30 5.579123
653.40 5.306525
653.50 5.415617
653.60 5.725014
653.70 5.957367
653.80 6.137043
653.90 6.393088
654.00 6.513507
654.10 6.435876
654.20 6.45136
654.30 6.478493
654.40 6.327202
654.50 6.05385
654.60 5.725282
654.70 5.559303
654.80 5.609159
654.90 5.638873
655.00 5.402298
655.10 5.104969
655.20 5.181316
655.30 5.277505
655.40 5.056117
655.50 4.802518
655.60 4.95058
655.70 5.105695
655.80 5.205464
655.90 5.521352
656.00 5.920403
656.10 6.376091
656.20 8.757059
656.30 12.40815
656.40 14.46265
656.50 13.58536
656.60 10.59313
656.70 7.616223
656.80 5.517649
656.90 4.583902
657.00 4.349228
657.10 4.141502
657.20 4.235376
657.30 4.368067
657.40 4.303843
657.50 4.121108
657.60 4.175072
657.70 4.361205
657.80 4.221011
657.90 3.972857
658.00 3.726108
658.10 3.507067
658.20 3.4752
658.30 3.70153
658.40 3.80184
658.50 3.818575
658.60 3.972909
658.70 4.38024
658.80 4.538866
658.90 4.210653
659.00 3.990443
659.10 4.023534
659.20 4.120616
659.30 4.269689
659.40 4.224961
659.50 4.000477
659.60 3.906744
659.70 4.00335
659.80 4.134616
659.90 3.978855
660.00 3.85731
660.10 3.881066
660.20 4.020929
660.30 4.126968
660.40 4.107065
660.50 4.083037
660.60 4.088315
660.70 4.041964
660.80 3.881628
660.90 3.843533
661.00 3.941464
661.10 3.979829
661.20 3.969437
661.30 4.069697
661.40 4.212311
661.50 4.294914
661.60 3.952299
661.70 3.780413
661.80 4.06075
661.90 4.145572
662.00 3.965172
662.10 3.708709
662.20 3.659703
662.30 3.701725
662.40 3.701505
662.50 3.649485
662.60 3.279211
662.70 2.969423
662.80 3.153035
662.90 3.26106
663.00 3.254161
663.10 3.383645
663.20 3.575326
663.30 3.689168
663.40 3.74708
663.50 3.72569
663.60 3.641592
663.70 3.413883
663.80 3.155242
663.90 3.186047
664.00 3.283537
664.10 3.448007
664.20 3.519704
664.30 3.601661
664.40 3.539833
664.50 3.530444
664.60 3.451786
664.70 3.370942
664.80 3.487482
664.90 3.634247
665.00 3.69551
665.10 3.476969
665.20 2.9253
665.30 2.550646
665.40 2.533959
665.50 2.719389
665.60 2.959381
665.70 2.915309
665.80 2.727391
665.90 2.609278
666.00 2.80697
666.10 2.843911
666.20 2.88226
666.30 3.059197
666.40 3.148086
666.50 3.208686
666.60 3.209598
666.70 3.190628
666.80 3.121384
666.90 3.275275
667.00 3.563123
667.10 3.544181
667.20 3.481318
667.30 3.219485
667.40 3.014833
667.50 3.149518
667.60 3.312441
667.70 3.529942
667.80 3.692714
667.90 3.819059
668.00 3.685284
668.10 3.467432
668.20 3.156568
668.30 2.693026
668.40 2.55493
668.50 2.572453
668.60 2.758406
668.70 2.725708
668.80 2.513228
668.90 2.567116
669.00 2.739421
669.10 2.808716
669.20 2.833802
669.30 2.757048
669.40 2.428588
669.50 2.366119
669.60 2.7322
669.70 3.083719
669.80 3.130604
669.90 2.871244
670.00 2.85617
670.10 3.06861
670.20 3.327246
670.30 3.424177
670.40 3.296541
670.50 3.230499
670.60 3.334921
670.70 3.430844
670.80 3.421764
670.90 3.141891
671.00 3.015355
671.10 3.260354
671.20 3.517572
671.30 3.517057
671.40 3.219548
671.50 2.914944
671.60 2.742544
671.70 2.597023
671.80 2.462653
671.90 2.440239
672.00 2.523047
672.10 2.665128
672.20 2.746442
672.30 2.718137
672.40 2.658022
672.50 2.713426
672.60 2.717449
672.70 2.767817
672.80 3.086552
672.90 3.290546
673.00 3.048277
673.10 2.771448
673.20 2.854898
673.30 3.200889
673.40 3.409359
673.50 3.240737
673.60 2.960917
673.70 2.714368
673.80 2.718429
673.90 3.052198
674.00 3.164573
674.10 3.084667
674.20 3.040631
674.30 3.139029
674.40 3.271347
674.50 3.312363
674.60 3.32822
674.70 3.228132
674.80 2.98501
674.90 2.768378
675.00 2.763232
675.10 2.958974
675.20 3.050128
675.30 2.984293
675.40 2.964703
675.50 3.232611
675.60 3.285698
675.70 3.251664
675.80 3.260709
675.90 3.057901
676.00 3.008264
676.10 3.212688
676.20 3.36453
676.30 3.472915
676.40 3.348504
676.50 3.346516
676.60 3.710503
676.70 3.76329
676.80 3.676945
676.90 3.739987
677.00 3.830878
677.10 4.052046
677.20 4.133921
677.30 3.986994
677.40 3.891499
677.50 3.931352
677.60 3.913068
677.70 3.956673
677.80 3.873393
677.90 3.942672
678.00 4.08127
678.10 3.93257
678.20 3.559831
678.30 3.021341
678.40 2.800264
678.50 2.856666
678.60 2.842629
678.70 2.814588
678.80 2.890088
678.90 3.165928
679.00 3.37851
679.10 3.47865
679.20 3.421879
679.30 3.096739
679.40 2.950498
679.50 3.108073
679.60 3.283252
679.70 3.327756
679.80 3.326471
679.90 3.373952
680.00 3.407725
680.10 3.432544
680.20 3.35537
680.30 3.303374
680.40 3.35619
680.50 3.431863
680.60 3.555109
680.70 3.722626
680.80 3.666213
680.90 3.431965
681.00 3.478126
681.10 3.669497
681.20 3.807382
681.30 3.855835
681.40 3.710806
681.50 3.479758
681.60 3.314777
681.70 3.381203
681.80 3.472907
681.90 3.491452
682.00 3.549095
682.10 3.443099
682.20 3.350166
682.30 3.473063
682.40 3.489105
682.50 3.43341
682.60 3.525627
682.70 3.810344
682.80 4.036446
682.90 3.935481
683.00 3.510354
683.10 3.187547
683.20 3.412262
683.30 3.710664
683.40 3.738814
683.50 3.792403
683.60 4.080399
683.70 4.211626
683.80 4.098126
683.90 4.124684
684.00 4.040387
684.10 3.991836
684.20 4.259257
684.30 4.391013
684.40 4.279251
684.50 4.122097
684.60 3.958629
684.70 3.952281
684.80 4.054393
684.90 3.986191
685.00 3.764099
685.10 3.570305
685.20 3.524992
685.30 3.416855
685.40 3.310207
685.50 3.347614
685.60 3.569789
685.70 3.756376
685.80 3.706861
685.90 3.581306
686.00 3.517362
686.10 3.667104
686.20 3.864927
686.30 4.013456
686.40 4.248287
686.50 4.315156
686.60 4.028689
686.70 3.653242
686.80 3.572321
686.90 3.904874
687.00 3.617302
687.10 3.293056
687.20 3.554561
687.30 4.027784
687.40 4.41367
687.50 4.531459
687.60 4.649758
687.70 4.592444
687.80 4.419867
687.90 4.361
688.00 4.130942
688.10 4.107678
688.20 4.368863
688.30 4.404245
688.40 4.305664
688.50 4.140078
688.60 4.257141
688.70 4.59468
688.80 4.57062
688.90 4.472415
689.00 4.260329
689.10 3.871526
689.20 3.831264
689.30 4.103542
689.40 4.437082
689.50 4.454924
689.60 4.246222
689.70 4.310218
689.80 4.358909
689.90 4.373594
690.00 4.331545
690.10 4.148125
690.20 3.849964
690.30 3.762634
690.40 4.089948
690.50 4.390076
690.60 4.361603
690.70 4.491585
690.80 5.01845
690.90 5.181061
691.00 4.867851
691.10 4.695881
691.20 4.707246
691.30 4.99281
691.40 4.915699
691.50 4.845467
691.60 5.04531
691.70 4.983591
691.80 4.679572
691.90 4.215685
692.00 3.904889
692.10 3.941383
692.20 4.154435
692.30 4.53861
692.40 5.057014
692.50 5.054133
692.60 4.741868
692.70 5.022647
692.80 5.32735
692.90 5.350265
693.00 5.146412
693.10 5.059199
693.20 5.384836
693.30 5.678217
693.40 5.924685
693.50 5.94132
693.60 5.874355
693.70 5.996864
693.80 5.94495
693.90 5.773671
694.00 5.615833
694.10 5.638003
694.20 5.901773
694.30 6.206168
694.40 6.744064
694.50 7.199049
694.60 7.38387
694.70 7.759522
694.80 7.992216
694.90 7.864072
695.00 7.75257
695.10 7.583123
695.20 7.542043
695.30 7.375807
695.40 7.03522
695.50 6.788868
695.60 6.807968
695.70 7.047945
695.80 6.911483
695.90 6.657858
696.00 6.568097
696.10 6.717132
696.20 6.921624
696.30 6.973776
696.40 7.15767
696.50 7.441891
696.60 7.542789
696.70 7.506368
696.80 7.585183
696.90 7.671916
697.00 7.573641
697.10 7.34071
697.20 7.077394
697.30 7.181515
697.40 7.234094
697.50 7.076708
697.60 7.278774
697.70 7.820508
697.80 8.435719
697.90 8.685622
698.00 8.381812
698.10 7.990778
698.20 7.985524
698.30 8.326267
698.40 8.422808
698.50 8.174688
698.60 8.16141
698.70 8.399649
698.80 8.491459
698.90 8.316672
699.00 8.084995
699.10 8.045549
699.20 7.989658
699.30 7.78898
699.40 8.005305
699.50 8.401779
699.60 8.518634
699.70 8.435929
699.80 8.155339
699.90 7.884733
700.00 7.831937
700.10 8.021769
700.20 8.263443
700.30 8.430216
700.40 8.318955
700.50 8.01194
700.60 7.936188
700.70 8.243408
700.80 8.650568
700.90 8.840882
701.00 9.058556
701.10 9.252961
701.20 9.368937
701.30 9.284329
701.40 8.861616
701.50 8.850761
701.60 9.366112
701.70 9.697047
701.80 9.701992
701.90 9.594846
702.00 9.845216
702.10 10.35944
702.20 10.31773
702.30 9.900521
702.40 9.614777
702.50 9.33006
702.60 9.407959
702.70 9.646071
702.80 10.3525
702.90 11.23419
703.00 11.47174
703.10 11.5257
703.20 11.46275
703.30 11.34882
703.40 11.43122
703.50 11.67953
703.60 12.15456
703.70 12.65065
703.80 12.92417
703.90 12.96358
704.00 12.74383
704.10 12.70663
704.20 12.80913
704.30 12.94689
704.40 13.19489
704.50 13.4167
704.60 13.61267
704.70 13.65515
704.80 13.52677
704.90 13.45224
705.00 13.54702
705.10 14.06611
705.20 14.35737
705.30 13.71008
705.40 12.18872
705.50 9.909982
705.60 7.415837
705.70 5.473566
705.80 4.539708
705.90 4.438531
706.00 4.530191
706.10 4.359589
706.20 4.184265
706.30 4.110235
706.40 4.119005
706.50 4.179582
706.60 4.386517
706.70 4.667017
706.80 4.901969
706.90 4.964546
707.00 4.985592
707.10 5.083039
707.20 5.23694
707.30 5.415074
707.40 5.36645
707.50 5.280061
707.60 5.225555
707.70 5.125897
707.80 5.160737
707.90 5.362302
708.00 5.497945
708.10 5.446426
708.20 5.571526
708.30 5.899397
708.40 6.086525
708.50 6.065348
708.60 5.973083
708.70 5.803426
708.80 5.472546
708.90 4.905387
709.00 4.113466
709.10 3.576805
709.20 3.557832
709.30 3.64576
709.40 3.600891
709.50 3.541215
709.60 3.509636
709.70 3.59691
709.80 3.766348
709.90 3.859099
710.00 3.794974
710.10 3.742271
710.20 3.794828
710.30 3.827861
710.40 3.960872
710.50 4.13382
710.60 4.236191
710.70 4.181699
710.80 4.159644
710.90 4.410446
711.00 4.719796
711.10 4.892202
711.20 4.841704
711.30 4.630566
711.40 4.576128
711.50 4.799521
711.60 4.958447
711.70 4.857358
711.80 4.824281
711.90 5.05184
712.00 5.445491
712.10 5.681553
712.20 5.606227
712.30 5.509095
712.40 5.374453
712.50 4.984302
712.60 4.495767
712.70 4.040582
712.80 3.660988
712.90 3.367456
713.00 3.197743
713.10 3.274178
713.20 3.397343
713.30 3.419422
713.40 3.385424
713.50 3.427892
713.60 3.551686
713.70 3.519908
713.80 3.235749
713.90 3.201377
714.00 3.419671
714.10 3.533291
714.20 3.670721
714.30 3.755774
714.40 3.708014
714.50 3.678701
714.60 3.728559
714.70 3.910408
714.80 4.147973
714.90 4.096067
715.00 3.855101
715.10 3.732306
715.20 3.804463
715.30 3.870864
715.40 4.001628
715.50 4.258891
715.60 4.571445
715.70 4.768259
715.80 4.604651
715.90 4.220602
716.00 4.174023
716.10 4.382007
716.20 4.202483
716.30 3.803193
716.40 3.590294
716.50 3.837742
716.60 4.378065
716.70 4.546384
716.80 4.330661
716.90 4.121719
717.00 4.132771
717.10 4.394768
717.20 4.499578
717.30 4.483371
717.40 4.399137
717.50 4.311489
717.60 4.416923
717.70 4.477274
717.80 4.618685
717.90 4.659344
718.00 4.763491
718.10 5.141523
718.20 5.283978
718.30 5.294977
718.40 5.255079
718.50 5.294837
718.60 5.478455
718.70 5.522104
718.80 5.541034
718.90 5.697325
719.00 5.917268
719.10 6.117951
719.20 6.155678
719.30 6.057074
719.40 5.977619
719.50 6.023202
719.60 6.009014
719.70 5.761061
719.80 5.522757
719.90 5.201222
720.00 4.8424
720.10 4.720753
720.20 4.923962
720.30 5.258967
720.40 5.281212
720.50 5.131434
720.60 5.101221
720.70 5.24678
720.80 5.304117
720.90 5.165398
721.00 5.049691
721.10 5.163272
721.20 5.396244
721.30 5.567067
721.40 5.771518
721.50 5.878728
721.60 5.789478
721.70 5.644604
721.80 5.666394
721.90 5.817749
722.00 5.810422
722.10 5.787009
722.20 5.88397
722.30 6.055666
722.40 6.313135
722.50 6.453984
722.60 6.521498
722.70 6.731615
722.80 7.002325
722.90 7.128308
723.00 6.973882
723.10 6.65555
723.20 6.600319
723.30 6.789499
723.40 6.872316
723.50 6.986041
723.60 7.099416
723.70 7.160764
723.80 7.362211
723.90 7.551877
724.00 7.588421
724.10 7.582742
724.20 7.271535
724.30 7.194336
724.40 7.631831
724.50 7.927098
724.60 7.993637
724.70 8.334635
724.80 8.839714
724.90 8.742767
725.00 8.640206
725.10 9.071639
725.20 9.546943
725.30 9.576974
725.40 9.307078
725.50 9.29355
725.60 9.596749
725.70 9.933855
725.80 10.01063
725.90 9.82385
726.00 9.692326
726.10 9.736318
726.20 10.04996
726.30 10.55041
726.40 10.9289
726.50 11.31963
726.60 11.56971
726.70 11.39433
726.80 11.30907
726.90 11.29088
727.00 10.99841
727.10 10.61751
727.20 10.16033
727.30 9.707393
727.40 9.566495
727.50 10.21279
727.60 11.41374
727.70 12.19992
727.80 11.65775
727.90 10.49568
728.00 10.8165
728.10 11.78432
728.20 11.73807
728.30 11.25316
728.40 11.09364
728.50 11.5485
728.60 12.23146
728.70 12.2209
728.80 12.0441
728.90 12.52413
729.00 12.88974
729.10 12.88159
729.20 12.81072
729.30 12.89369
729.40 13.16614
729.50 13.54605
729.60 13.96903
729.70 14.60198
729.80 15.01574
729.90 14.62855
730.00 14.22433
730.10 14.59551
730.20 15.16849
730.30 15.44399
730.40 15.84921
730.50 16.21855
730.60 16.07359
730.70 15.95156
730.80 16.3309
730.90 16.99289
731.00 17.34095
731.10 17.14369
731.20 16.81031
731.30 16.78395
731.40 17.15662
731.50 17.67512
731.60 18.05829
731.70 18.07563
731.80 17.91819
731.90 17.9833
732.00 18.74257
732.10 19.48819
732.20 19.48984
732.30 19.28143
732.40 19.24179
732.50 19.28071
732.60 19.17973
732.70 18.93288
732.80 19.16923
732.90 19.82601
733.00 19.89118
733.10 19.72113
733.20 19.68351
733.30 19.60805
733.40 19.47742
733.50 19.38289
733.60 19.93107
733.70 20.94547
733.80 21.64592
733.90 22.07853
734.00 22.20077
734.10 22.73477
734.20 23.42399
734.30 22.52416
734.40 21.43483
734.50 20.92417
734.60 20.16533
734.70 19.53025
734.80 19.28359
734.90 19.72998
735.00 20.52461
735.10 21.08134
735.20 21.44119
735.30 21.69041
735.40 21.7042
735.50 21.28582
735.60 20.62608
735.70 20.02189
735.80 20.10146
735.90 20.90037
736.00 21.49491
736.10 21.52087
736.20 21.45106
736.30 21.85129
736.40 22.65724
736.50 23.45792
736.60 23.84319
736.70 23.72191
736.80 23.96874
736.90 24.70007
737.00 25.20008
737.10 25.16213
737.20 24.81918
737.30 24.50374
737.40 24.00568
737.50 23.13981
737.60 22.28101
737.70 22.13989
737.80 22.59764
737.90 23.23448
738.00 23.57097
738.10 23.48414
738.20 23.39695
738.30 23.5858
738.40 23.85004
738.50 23.84995
738.60 23.7512
738.70 23.88683
738.80 24.35605
738.90 25.24847
739.00 26.07546
739.10 26.42972
739.20 26.24605
739.30 25.33161
739.40 23.99245
739.50 22.79166
739.60 22.00251
739.70 21.92822
739.80 22.53686
739.90 23.41565
740.00 24.05991
740.10 24.38413
740.20 24.76914
740.30 25.33341
740.40 25.29098
740.50 24.1074
740.60 22.35461
740.70 21.62323
740.80 21.94295
740.90 22.18615
741.00 22.68006
741.10 23.42013
741.20 23.86046
741.30 23.99798
741.40 24.16119
741.50 24.47576
741.60 24.5959
741.70 24.10031
741.80 22.98843
741.90 21.99753
742.00 21.32073
742.10 21.14259
742.20 21.57401
742.30 22.10989
742.40 22.61137
742.50 23.32464
742.60 23.86222
742.70 24.0933
742.80 24.18823
742.90 24.11024
743.00 24.32339
743.10 24.64616
743.20 24.55429
743.30 24.50253
743.40 24.40714
743.50 23.458
743.60 22.06743
743.70 21.08946
743.80 21.13256
743.90 22.30706
744.00 23.52083
744.10 23.78187
744.20 23.35972
744.30 22.79404
744.40 22.2818
744.50 21.93905
744.60 21.63345
744.70 21.53354
744.80 21.4406
744.90 21.22479
745.00 21.44343
745.10 22.12006
745.20 22.94167
745.30 23.43411
745.40 23.3344
745.50 22.93112
745.60 22.6064
745.70 22.35805
745.80 22.12646
745.90 22.01804
746.00 21.99564
746.10 22.19185
746.20 22.53218
746.30 23.06173
746.40 23.61855
746.50 23.77386
746.60 23.77459
746.70 23.7624
746.80 23.63299
746.90 23.3972
747.00 23.37978
747.10 23.94372
747.20 24.66819
747.30 24.72157
747.40 23.69636
747.50 22.46433
747.60 22.17103
747.70 22.67221
747.80 23.38571
747.90 23.96733
748.00 24.0929
748.10 23.98721
748.20 24.15789
748.30 24.41301
748.40 24.94152
748.50 25.72041
748.60 25.7606
748.70 25.21507
748.80 24.74582
748.90 24.67339
749.00 24.94836
749.10 25.08811
749.20 24.99107
749.30 24.70171
749.40 24.16176
749.50 23.6218
749.60 23.43418
749.70 23.70466
749.80 24.36086
749.90 25.1607
750.00 25.98677
750.10 26.49164
750.20 26.47306
750.30 26.44022
750.40 26.54375
750.50 26.28544
750.60 25.57958
750.70 25.04258
750.80 25.08204
750.90 25.70519
751.00 26.68922
751.10 27.46771
751.20 27.74191
751.30 27.4147
751.40 26.75583
751.50 26.40294
751.60 26.29315
751.70 26.49301
751.80 26.80318
751.90 26.64976
752.00 26.32436
752.10 26.26899
752.20 26.11074
752.30 26.17412
752.40 26.92723
752.50 27.29709
752.60 27.40773
752.70 27.32916
752.80 26.29476
752.90 25.58828
753.00 25.79176
753.10 26.72926
753.20 27.99274
753.30 28.3348
753.40 27.77922
753.50 27.28625
753.60 27.02703
753.70 27.17238
753.80 28.03766
753.90 29.22898
754.00 30.34056
754.10 30.85631
754.20 30.60645
754.30 30.28744
754.40 30.34523
754.50 30.63109
754.60 30.82346
754.70 30.5868
754.80 30.03221
754.90 29.49324
755.00 29.08102
755.10 29.12944
755.20 29.87893
755.30 30.54157
755.40 30.58313
755.50 30.26382
755.60 30.07208
755.70 30.17255
755.80 30.32887
755.90 30.72704
756.00 31.27742
756.10 31.58636
756.20 31.52827
756.30 31.2531
756.40 31.04149
756.50 30.61107
756.60 30.08258
756.70 29.684
756.80 29.12959
756.90 28.48302
757.00 28.06156
757.10 28.43516
757.20 29.98154
757.30 31.94143
757.40 32.79972
757.50 32.27633
757.60 31.65273
757.70 31.25871
757.80 30.45952
757.90 29.74459
758.00 29.90309
758.10 31.04213
758.20 32.67524
758.30 33.80938
758.40 34.07541
758.50 33.81145
758.60 33.07741
758.70 31.78073
758.80 29.48305
758.90 25.74808
759.00 21.47893
759.10 17.87598
759.20 15.35511
759.30 14.32535
759.40 14.67426
759.50 15.58471
759.60 16.34133
759.70 16.42935
759.80 16.07992
759.90 16.52697
760.00 17.74303
760.10 18.05286
760.20 17.15368
760.30 16.20523
760.40 16.24437
760.50 17.19976
760.60 17.67775
760.70 17.37616
760.80 17.21974
760.90 17.40284
761.00 17.74414
761.10 18.02265
761.20 18.2287
761.30 18.64161
761.40 19.54122
761.50 20.51684
761.60 20.74803
761.70 20.71147
761.80 20.9281
761.90 21.20133
762.00 21.75905
762.10 21.91968
762.20 21.06313
762.30 20.34243
762.40 20.22827
762.50 20.12517
762.60 19.63315
762.70 18.29001
762.80 16.47939
762.90 14.71315
763.00 12.9283
763.10 11.66657
763.20 11.59251
763.30 12.13708
763.40 12.63041
763.50 12.7571
763.60 12.43612
763.70 12.30201
763.80 12.58518
763.90 12.67815
764.00 12.56008
764.10 12.25534
764.20 11.8546
764.30 11.90185
764.40 12.21959
764.50 12.42451
764.60 12.00549
764.70 11.20159
764.80 11.06676
764.90 11.36949
765.00 11.37342
765.10 11.05973
765.20 10.67103
765.30 10.66238
765.40 10.77552
765.50 10.13605
765.60 8.962179
765.70 8.285519
765.80 8.234533
765.90 8.223293
766.00 7.808921
766.10 7.092457
766.20 6.43453
766.30 5.745702
766.40 5.227039
766.50 4.932421
766.60 4.586563
766.70 4.471441
766.80 4.554062
766.90 4.687976
767.00 5.117876
767.10 5.696019
767.20 6.100702
767.30 6.211937
767.40 6.301301
767.50 6.522552
767.60 6.879152
767.70 7.321247
767.80 7.515647
767.90 7.579659
768.00 7.794906
768.10 8.011997
768.20 8.064204
768.30 8.088806
768.40 8.325305
768.50 8.662095
768.60 8.845518
768.70 8.791787
768.80 8.630735
768.90 8.503708
769.00 8.511768
769.10 8.665156
769.20 8.615524
769.30 8.373569
769.40 8.033887
769.50 7.482268
769.60 6.988231
769.70 6.475208
769.80 5.832002
769.90 5.169274
770.00 4.51662
770.10 4.332826
770.20 4.658513
770.30 5.144127
770.40 5.815306
770.50 6.476104
770.60 6.952279
770.70 7.333071
770.80 7.56101
770.90 7.934549
771.00 8.575652
771.10 9.017942
771.20 9.11513
771.30 9.207759
771.40 9.708126
771.50 10.17995
771.60 10.10676
771.70 10.2598
771.80 10.69451
771.90 10.56762
772.00 10.69178
772.10 11.24329
772.20 11.63305
772.30 12.05339
772.40 12.17737
772.50 12.31634
772.60 12.71124
772.70 12.97575
772.80 13.12211
772.90 13.42539
773.00 13.78921
773.10 14.13459
773.20 14.48199
773.30 14.66773
773.40 14.88031
773.50 15.09829
773.60 15.07522
773.70 15.16802
773.80 15.66718
773.90 16.15691
774.00 16.36147
774.10 16.35094
774.20 16.24307
774.30 16.06284
774.40 15.45945
774.50 14.36804
774.60 13.42543
774.70 13.05166
774.80 12.86574
774.90 12.69232
775.00 12.27422
775.10 11.50964
775.20 11.17197
775.30 11.06589
775.40 11.10447
775.50 11.64408
775.60 12.11265
775.70 12.21256
775.80 12.24098
775.90 12.52867
776.00 12.79318
776.10 12.9559
776.20 13.14068
776.30 12.99598
776.40 12.7185
776.50 12.74704
776.60 12.90679
776.70 13.0805
776.80 13.60311
776.90 14.26764
777.00 14.53899
777.10 14.50034
777.20 14.4529
777.30 14.62
777.40 15.07332
777.50 15.4263
777.60 15.43086
777.70 15.34823
777.80 15.10992
777.90 15.02213
778.00 15.3934
778.10 15.69304
778.20 15.65765
778.30 15.13714
778.40 14.15362
778.50 13.44234
778.60 13.26144
778.70 13.261
778.80 13.31656
778.90 13.40364
779.00 13.67706
779.10 14.28392
779.20 14.70406
779.30 14.72742
779.40 15.11339
779.50 15.7844
779.60 16.10651
779.70 16.0605
779.80 15.37751
779.90 14.27881
780.00 13.03886
780.10 11.851
780.20 11.65767
780.30 12.6603
780.40 14.36188
780.50 16.37006
780.60 17.95002
780.70 18.79506
780.80 19.19183
780.90 19.15343
781.00 18.79755
781.10 18.45929
781.20 18.15785
781.30 18.26071
781.40 19.15174
781.50 20.11253
781.60 20.51203
781.70 20.56719
781.80 20.55107
781.90 20.6775
782.00 20.60214
782.10 19.89449
782.20 18.61849
782.30 17.15477
782.40 16.54061
782.50 17.09781
782.60 18.00262
782.70 18.47242
782.80 17.97297
782.90 16.86452
783.00 15.72383
783.10 14.97849
783.20 14.86735
783.30 15.36217
783.40 16.1147
783.50 16.66206
783.60 16.97452
783.70 17.1178
783.80 17.26743
783.90 17.56468
784.00 17.67365
784.10 17.69748
784.20 17.87842
784.30 17.81331
784.40 17.7151
784.50 17.99412
784.60 18.54356
784.70 19.18537
784.80 19.4328
784.90 19.16565
785.00 18.57391
785.10 17.9629
785.20 17.99598
785.30 18.61639
785.40 19.17505
785.50 19.29296
785.60 19.2917
785.70 19.39938
785.80 19.48264
785.90 19.77771
786.00 19.86814
786.10 19.4685
786.20 19.30718
786.30 19.21961
786.40 18.65586
786.50 18.1729
786.60 18.00342
786.70 17.75667
786.80 17.60902
786.90 17.69269
787.00 18.06989
787.10 18.49544
787.20 18.35146
787.30 17.59889
787.40 16.99364
787.50 17.20533
787.60 17.93259
787.70 18.57624
787.80 19.19655
787.90 20.22353
788.00 20.9522
788.10 20.97048
788.20 20.77474
788.30 20.50273
788.40 20.80153
788.50 21.37039
788.60 21.56452
788.70 21.74593
788.80 21.81382
788.90 21.88231
789.00 22.0726
789.10 22.0537
789.20 21.95081
789.30 22.09975
789.40 22.58222
789.50 23.00709
789.60 22.80251
789.70 21.90191
789.80 20.86695
789.90 20.01101
790.00 19.21366
790.10 18.63178
790.20 18.49217
790.30 18.88085
790.40 19.8381
790.50 20.82277
790.60 21.40514
790.70 21.5833
790.80 21.10718
790.90 19.90746
791.00 18.65453
791.10 17.62701
791.20 16.70801
791.30 16.68715
791.40 17.63111
791.50 18.74604
791.60 19.41514
791.70 19.21018
791.80 18.65498
791.90 18.14454
792.00 17.51525
792.10 17.18758
792.20 17.67515
792.30 18.45829
792.40 18.6365
792.50 18.55233
792.60 18.86705
792.70 19.27782
792.80 19.5346
792.90 19.56743
793.00 19.45375
793.10 19.75873
793.20 20.60609
793.30 21.70477
793.40 22.58655
793.50 22.79272
793.60 22.68873
793.70 22.67567
793.80 22.81717
793.90 22.89473
794.00 22.115
794.10 20.53011
794.20 19.11302
794.30 18.43414
794.40 18.77835
794.50 19.60356
794.60 19.88334
794.70 19.2252
794.80 17.76163
794.90 16.31756
795.00 16.22291
795.10 17.70283
795.20 19.51506
795.30 21.06129
795.40 22.35986
795.50 23.06658
795.60 23.34111
795.70 23.50512
795.80 23.51153
795.90 23.17093
796.00 22.56961
796.10 21.83032
796.20 20.81688
796.30 20.06297
796.40 20.28352
796.50 21.10552
796.60 21.91367
796.70 22.59419
796.80 22.97301
796.90 23.3461
797.00 24.10932
797.10 24.87917
797.20 25.43162
797.30 25.74759
797.40 25.35914
797.50 24.22862
797.60 23.03218
797.70 22.27824
797.80 21.87106
797.90 21.65615
798.00 21.66838
798.10 21.90102
798.20 22.19667
798.30 22.23416
798.40 21.85268
798.50 21.31004
798.60 20.85524
798.70 20.44127
798.80 20.08436
798.90 20.0771
799.00 20.64279
799.10 21.56136
799.20 22.58309
799.30 23.54989
799.40 23.8355
799.50 23.03478
799.60 22.08159
799.70 22.11719
799.80 22.68834
799.90 22.8988
800.00 22.88341
800.10 23.12596
800.20 23.61276
800.30 24.05322
800.40 24.47196
800.50 24.79965
800.60 24.9261
800.70 25.10878
800.80 25.5831
800.90 26.28736
801.00 26.70595
801.10 26.62771
801.20 26.50028
801.30 26.57824
801.40 26.84521
801.50 27.02833
801.60 27.05554
801.70 27.45999
801.80 28.23785
801.90 28.79666
802.00 29.04919
802.10 29.07321
802.20 28.8695
802.30 28.63944
802.40 28.65355
802.50 29.11987
802.60 30.01862
802.70 31.05787
802.80 31.52635
802.90 31.32727
803.00 31.46363
803.10 32.0312
803.20 32.35884
803.30 32.35154
803.40 32.17447
803.50 32.10841
803.60 32.30444
803.70 32.50975
803.80 32.53799
803.90 32.50455
804.00 32.31882
804.10 32.01927
804.20 32.08873
804.30 32.52632
804.40 33.17259
804.50 33.91605
804.60 34.13066
804.70 33.82626
804.80 33.59321
804.90 33.41061
805.00 33.79039
805.10 35.14406
805.20 36.59949
805.30 37.85171
805.40 38.81722
805.50 39.03382
805.60 38.91736
805.70 38.881
805.80 38.82752
805.90 38.83961
806.00 39.06079
806.10 39.60056
806.20 40.20207
806.30 40.27294
806.40 39.79024
806.50 39.41765
806.60 39.23017
806.70 39.42289
806.80 40.26769
806.90 40.77939
807.00 40.52054
807.10 40.13532
807.20 40.08726
807.30 40.7245
807.40 41.93843
807.50 43.00594
807.60 43.47358
807.70 43.6628
807.80 43.96821
807.90 44.53388
808.00 45.07127
808.10 45.19941
808.20 45.3606
808.30 45.89519
808.40 46.3881
808.50 46.86653
808.60 47.49222
808.70 47.67242
808.80 47.2159
808.90 46.56062
809.00 46.01937
809.10 46.0606
809.20 46.75827
809.30 47.67391
809.40 48.39373
809.50 48.53764
809.60 48.23355
809.70 47.67226
809.80 46.9342
809.90 46.54215
810.00 46.65877
810.10 46.90753
810.20 47.24542
810.30 47.54445
810.40 47.42069
810.50 47.09678
810.60 47.28445
810.70 48.2482
810.80 49.50969
810.90 50.53891
811.00 51.19258
811.10 51.35351
811.20 51.12423
811.30 51.1173
811.40 51.66166
811.50 52.2099
811.60 52.13916
811.70 51.44124
811.80 50.66901
811.90 50.84966
812.00 52.26729
812.10 53.87534
812.20 54.78735
812.30 54.93362
812.40 54.63142
812.50 54.4432
812.60 54.62415
812.70 55.04287
812.80 55.71968
812.90 56.49755
813.00 56.88775
813.10 56.72361
813.20 56.3174
813.30 56.22161
813.40 56.66859
813.50 57.33059
813.60 57.77208
813.70 57.84077
813.80 58.02003
813.90 58.88542
814.00 59.97654
814.10 60.07964
814.20 58.83447
814.30 57.1133
814.40 55.61387
814.50 54.748
814.60 54.98554
814.70 55.7999
814.80 56.1361
814.90 55.85088
815.00 55.34995
815.10 55.16833
815.20 55.82912
815.30 57.05536
815.40 58.06017
815.50 58.12619
815.60 57.42855
815.70 57.00793
815.80 57.12972
815.90 57.32347
816.00 57.17723
816.10 56.6639
816.20 56.20797
816.30 56.26786
816.40 57.11227
816.50 58.4165
816.60 59.42359
816.70 59.72776
816.80 59.76115
816.90 60.37744
817.00 61.35023
817.10 61.96724
817.20 62.04546
817.30 61.65076
817.40 61.14923
817.50 60.56683
817.60 60.08553
817.70 59.72807
817.80 58.70288
817.90 57.21055
818.00 55.57057
818.10 52.91943
818.20 48.68782
818.30 42.58123
818.40 35.86503
818.50 32.1788
818.60 33.33229
818.70 38.06066
818.80 44.02374
818.90 48.65354
819.00 50.82441
819.10 51.14628
819.20 50.02202
819.30 47.00435
819.40 41.84894
819.50 35.44734
819.60 30.09636
819.70 28.12642
819.80 30.12444
819.90 34.35214
820.00 38.52063
820.10 42.09562
820.20 45.09341
820.30 47.66228
820.40 50.05524
820.50 51.34979
820.60 50.84857
820.70 48.85063
820.80 46.30239
820.90 45.06768
821.00 45.96185
821.10 47.87397
821.20 49.84484
821.30 51.1466
821.40 51.17893
821.50 50.34764
821.60 49.50811
821.70 49.14782
821.80 49.35265
821.90 50.10633
822.00 51.12234
822.10 52.12359
822.20 53.18406
822.30 54.14863
822.40 54.85156
822.50 55.36012
822.60 55.73364
822.70 56.05682
822.80 56.24098
822.90 56.43058
823.00 57.09449
823.10 58.31994
823.20 59.58784
823.30 59.92673
823.40 58.89018
823.50 57.25265
823.60 56.19925
823.70 56.35525
823.80 57.54634
823.90 59.12463
824.00 60.51955
824.10 61.54338
824.20 62.15214
824.30 62.04956
824.40 61.08408
824.50 59.94285
824.60 59.55718
824.70 60.40137
824.80 62.47202
824.90 64.46253
825.00 64.68106
825.10 63.16336
825.20 60.76952
825.30 58.20421
825.40 56.34738
825.50 55.4042
825.60 54.82769
825.70 54.33026
825.80 54.05583
825.90 54.37945
826.00 55.45598
826.10 57.02282
826.20 58.68452
826.30 59.96384
826.40 60.71937
826.50 61.13338
826.60 61.1844
826.70 61.30322
826.80 61.69073
826.90 61.64504
827.00 60.86616
827.10 59.36962
827.20 57.34758
827.30 55.39127
827.40 53.81064
827.50 52.97088
827.60 53.2574
827.70 54.22866
827.80 55.31644
827.90 56.1589
828.00 56.2556
828.10 55.69687
828.20 54.49242
828.30 52.75865
828.40 51.54306
828.50 51.13075
828.60 51.21722
828.70 51.74654
828.80 52.18674
828.90 51.58676
829.00 49.79651
829.10 47.79441
829.20 46.45553
829.30 46.35173
829.40 47.2839
829.50 48.20358
829.60 48.7132
829.70 49.21456
829.80 49.96101
829.90 50.31472
830.00 48.1062
830.10 47.1659
830.20 46.2256
830.30 45.37162
830.40 44.51764
830.50 44.43709
830.60 44.35655
830.70 44.79429
830.80 45.23203
830.90 46.44197
831.00 47.65191
831.10 48.33572
831.20 49.01953
831.30 48.73262
831.40 48.44571
831.50 48.26737
831.60 48.08904
831.70 49.01564
831.80 49.94224
831.90 50.38928
832.00 50.83632
832.10 51.20589
832.20 51.57547
832.30 52.01313
832.40 52.4508
832.50 52.45494
832.60 52.45908
832.70 51.54014
832.80 50.6212
832.90 50.24482
833.00 49.86844
833.10 50.61101
833.20 51.35357
833.30 52.02871
833.40 52.70385
833.50 51.23985
833.60 49.77584
833.70 49.0586
833.80 48.34135
833.90 49.13529
834.00 49.92923
834.10 50.46087
834.20 50.99251
834.30 51.956
834.40 52.9195
834.50 51.36651
834.60 49.81352
834.70 48.21894
834.80 46.62436
834.90 47.3774
835.00 48.13045
835.10 49.27289
835.20 50.41532
835.30 50.48014
835.40 50.54496
835.50 50.38151
835.60 50.21806
835.70 50.44259
835.80 50.66711
835.90 51.37843
836.00 52.08976
836.10 52.44834
836.20 52.80693
836.30 52.3563
836.40 51.90568
836.50 51.41652
836.60 50.92737
836.70 51.63217
836.80 52.33697
836.90 54.14428
837.00 55.95158
837.10 55.9688
837.20 55.98602
837.30 54.4989
837.40 53.01178
837.50 51.02572
837.60 49.03966
837.70 48.52818
837.80 48.01671
837.90 49.04219
838.00 50.06767
838.10 51.12872
838.20 52.18976
838.30 51.64491
838.40 51.10005
838.50 50.53971
838.60 49.97937
838.70 48.43148
838.80 46.88359
838.90 45.29885
839.00 43.7141
839.10 44.60187
839.20 45.48963
839.30 46.62953
839.40 47.76942
839.50 48.26647
839.60 48.76352
839.70 49.22424
839.80 49.68495
839.90 50.36184
840.00 51.03874
840.10 50.88511
840.20 52.3079
840.30 52.78399
840.40 52.78782
840.50 52.95266
840.60 53.43319
840.70 53.9127
840.80 54.16415
840.90 54.40969
841.00 55.37874
841.10 56.79975
841.20 57.08135
841.30 54.9167
841.40 52.89051
841.50 53.02475
841.60 53.12857
841.70 54.45514
841.80 56.65784
841.90 57.39861
842.00 55.18868
842.10 53.05106
842.20 51.36228
842.30 49.63822
842.40 49.65702
842.50 50.2111
842.60 50.55049
842.70 50.71194
842.80 50.86335
842.90 50.56194
843.00 50.18094
843.10 50.49626
843.20 51.02081
843.30 49.87207
843.40 46.70347
843.50 43.54448
843.60 39.49301
843.70 35.32859
843.80 34.6787
843.90 34.67755
844.00 36.09608
844.10 39.48069
844.20 42.08429
844.30 38.7826
844.40 35.58251
844.50 32.69002
844.60 29.88521
844.70 28.7237
844.80 29.45625
844.90 30.26189
845.00 31.53166
845.10 32.88863
845.20 31.28988
845.30 29.11637
845.40 27.14404
845.50 25.58874
845.60 24.42845
845.70 24.67344
845.80 24.88999
845.90 24.94335
846.00 24.98562
846.10 25.68457
846.20 26.91068
846.30 27.90149
846.40 28.29446
846.50 28.76933
846.60 27.34475
846.70 25.53349
846.80 24.99445
846.90 25.91898
847.00 26.82286
847.10 26.52159
847.20 26.24301
847.30 26.28048
847.40 26.54354
847.50 26.56667
847.60 26.37393
847.70 26.65987
847.80 27.89739
847.90 29.13496
848.00 29.32673
848.10 29.49709
848.20 29.48753
848.30 29.39402
848.40 29.43253
848.50 29.62033
848.60 29.79505
848.70 30.03723
848.80 30.31009
848.90 30.68133
849.00 30.99452
849.10 31.37578
849.20 32.11262
849.30 32.80576
849.40 32.93017
849.50 33.06134
849.60 32.3211
849.70 31.47819
849.80 30.76509
849.90 29.90514
850.00 29.14012
850.10 30.23707
850.20 31.47952
850.30 32.45242
850.40 32.88031
850.50 32.48596
850.60 31.71176
850.70 30.97452
850.80 29.44013
850.90 27.77056
851.00 27.82749
851.10 28.45721
851.20 29.41327
851.30 30.81569
851.40 32.03318
851.50 31.76358
851.60 31.45222
851.70 30.08268
851.80 28.38133
851.90 27.21817
852.00 26.96853
852.10 26.79734
852.20 26.62565
852.30 26.43712
852.40 27.43063
852.50 28.71139
852.60 30.09927
852.70 31.44851
852.80 32.5396
852.90 32.42938
853.00 32.34021
853.10 32.09698
853.20 31.91804
853.30 32.12825
853.40 32.69799
853.50 33.2662
853.60 33.25185
853.70 33.24904
853.80 33.4431
853.90 33.86368
854.00 34.00864
854.10 33.76615
854.20 33.69269
854.30 33.9284
854.40 34.14673
854.50 34.59241
854.60 35.09876
854.70 35.69736
854.80 36.05925
854.90 36.32319
855.00 36.76571
855.10 37.21326
855.20 37.78904
855.30 38.35123
855.40 38.64193
855.50 38.91899
855.60 39.28382
855.70 39.25166
855.80 39.05287
855.90 38.10822
856.00 37.32277
856.10 36.5917
856.20 35.68506
856.30 35.23917
856.40 35.57732
856.50 36.0047
856.60 37.45799
856.70 38.99196
856.80 39.67837
856.90 40.01519
857.00 39.79317
857.10 38.65779
857.20 37.53575
857.30 36.61271
857.40 35.71028
857.50 36.13375
857.60 37.03752
857.70 37.97765
857.80 38.68199
857.90 39.31171
858.00 39.69242
858.10 40.12997
858.20 39.48092
858.30 38.7388
858.40 38.46229
858.50 38.36699
858.60 38.37357
858.70 39.43544
858.80 40.54507
858.90 40.98361
859.00 41.21707
859.10 41.27162
859.20 41.05463
859.30 40.73667
859.40 40.13652
859.50 39.52655
859.60 40.43174
859.70 41.59514
859.80 42.43831
859.90 42.87201
860.00 43.0671
860.10 42.96474
860.20 42.85019
860.30 43.24341
860.40 43.82903
860.50 44.37908
860.60 44.11682
860.70 43.67584
860.80 44.01
860.90 44.28893
861.00 43.81053
861.10 43.29192
861.20 43.05842
861.30 43.00333
861.40 42.67577
861.50 41.82557
861.60 40.96916
861.70 40.66134
861.80 40.47784
861.90 40.79326
862.00 41.02959
862.10 41.31309
862.20 42.02583
862.30 42.66725
862.40 42.97635
862.50 43.32804
862.60 42.24986
862.70 40.64457
862.80 39.77679
862.90 40.17984
863.00 40.54002
863.10 39.86655
863.20 39.04478
863.30 39.51224
863.40 40.41524
863.50 40.91726
863.60 40.77022
863.70 40.64895
863.80 40.92151
863.90 41.25225
864.00 41.43859
864.10 41.56052
864.20 41.48663
864.30 40.84881
864.40 40.50683
864.50 41.86135
864.60 43.41271
864.70 42.70576
864.80 41.43388
864.90 40.43249
865.00 40.15358
865.10 40.35006
865.20 40.86119
865.30 41.34189
865.40 41.91221
865.50 42.66256
865.60 43.61002
865.70 44.74476
865.80 45.52883
865.90 45.48836
866.00 45.4092
866.10 44.71145
866.20 44.01689
866.30 43.56469
866.40 43.05796
866.50 43.16851
866.60 44.17334
866.70 45.01533
866.80 45.13908
866.90 45.315
867.00 45.31038
867.10 45.55284
867.20 45.67466
867.30 44.64639
867.40 43.68999
867.50 44.28039
867.60 45.18923
867.70 46.14393
867.80 47.17013
867.90 47.98459
868.00 48.00076
868.10 48.00714
868.20 47.46536
868.30 46.86405
868.40 46.19829
868.50 46.11569
868.60 46.60378
868.70 46.78982
868.80 46.69086
868.90 46.22313
869.00 45.89625
869.10 44.63324
869.20 42.8367
869.30 41.31284
869.40 40.14768
869.50 38.95792
869.60 38.20644
869.70 37.4711
869.80 38.19106
869.90 38.73296
870.00 38.91012
870.10 39.24412
870.20 39.77916
870.30 40.57621
870.40 41.35366
870.50 41.93892
870.60 42.42162
870.70 43.1795
870.80 44.25528
870.90 44.6178
871.00 42.94102
871.10 41.34477
871.20 41.20318
871.30 41.44489
871.40 41.6403
871.50 41.21347
871.60 40.67715
871.70 40.89789
871.80 41.13223
871.90 40.91577
872.00 40.53453
872.10 40.80213
872.20 41.22169
872.30 41.58066
872.40 41.63617
872.50 41.67394
872.60 42.00183
872.70 42.41949
872.80 44.36747
872.90 46.49282
873.00 47.68005
873.10 48.16612
873.20 48.42048
873.30 47.25265
873.40 45.9911
873.50 45.18882
873.60 44.47104
873.70 44.37341
873.80 44.4498
873.90 44.4033
874.00 44.66335
874.10 44.9906
874.20 46.12004
874.30 47.17801
874.40 48.81694
874.50 50.98152
874.60 52.65277
874.70 53.01047
874.80 53.35169
874.90 51.72232
875.00 49.93137
875.10 49.20915
875.20 49.12255
875.30 49.43709
875.40 50.77001
875.50 52.07472
875.60 52.14682
875.70 51.96065
875.80 51.78806
875.90 52.28526
876.00 53.24286
876.10 54.35976
876.20 55.24802
876.30 54.55778
876.40 53.83059
876.50 52.41757
876.60 50.91704
876.70 49.84983
876.80 49.6119
876.90 49.65397
877.00 51.04556
877.10 52.34003
877.20 54.35709
877.30 56.4875
877.40 58.48791
877.50 60.76407
877.60 62.85277
877.70 63.59464
877.80 64.18404
877.90 61.76344
878.00 59.28115
878.10 57.51642
878.20 56.09804
878.30 55.19827
878.40 56.37982
878.50 57.67858
878.60 59.09841
878.70 60.66705
878.80 61.1898
878.90 60.82374
879.00 60.74755
879.10 60.99497
879.20 61.176
879.30 61.50919
879.40 61.89816
879.50 62.04567
879.60 62.33485
879.70 63.02963
879.80 64.40732
879.90 65.66489
880.00 65.57447
880.10 65.58227
880.20 62.75753
880.30 58.68593
880.40 55.63491
880.50 54.28257
880.60 53.17875
880.70 54.48976
880.80 55.92377
880.90 56.30883
881.00 56.06123
881.10 57.01822
881.20 60.65933
881.30 64.02123
881.40 66.17363
881.50 68.11238
881.60 69.30585
881.70 70.41228
881.80 71.43518
881.90 72.12047
882.00 72.43448
882.10 71.32195
882.20 70.1786
882.30 67.30345
882.40 64.39312
882.50 61.66564
882.60 58.78677
882.70 56.76626
882.80 58.37764
882.90 60.22852
883.00 62.52968
883.10 64.68531
883.20 66.83184
883.30 68.72831
883.40 70.0501
883.50 69.92753
883.60 69.8124
883.70 70.04467
883.80 70.34123
883.90 71.1472
884.00 72.7286
884.10 74.12525
884.20 73.95522
884.30 73.58804
884.40 72.95557
884.50 72.62793
884.60 70.74355
884.70 68.02305
884.80 65.50987
884.90 63.00071
885.00 60.77821
885.10 61.46379
885.20 62.58856
885.30 67.14222
885.40 72.55096
885.50 76.23852
885.60 77.32008
885.70 77.61706
885.80 73.4488
885.90 69.09398
886.00 64.54492
886.10 60.33104
886.20 56.0203
886.30 51.41693
886.40 47.93657
886.50 48.70836
886.60 49.54373
886.70 52.75231
886.80 56.38941
886.90 56.85767
887.00 54.58064
887.10 51.74691
887.20 47.5345
887.30 43.35835
887.40 42.635
887.50 41.91381
887.60 42.46767
887.70 44.01282
887.80 45.90528
887.90 48.54671
888.00 51.15322
888.10 52.73066
888.20 54.25478
888.30 53.58126
888.40 51.77946
888.50 50.26395
888.60 49.60295
888.70 49.01673
888.80 48.9297
888.90 48.52766
889.00 50.23143
889.10 53.41256
889.20 55.80328
889.30 56.17378
889.40 56.33334
889.50 55.15922
889.60 53.88214
889.70 52.20692
889.80 50.97437
889.90 50.81916
890.00 51.58056
890.10 52.79107
890.20 55.7297
890.30 58.6726
890.40 60.84134
890.50 63.30829
890.60 64.94557
890.70 65.41249
890.80 65.42469
890.90 63.33326
891.00 61.07331
891.10 59.50768
891.20 58.54217
891.30 58.16595
891.40 57.85124
891.50 58.18371
891.60 60.11177
891.70 62.0019
891.80 62.11984
891.90 62.33635
892.00 63.30155
892.10 64.3506
892.20 64.80333
892.30 64.23851
892.40 63.63023
892.50 62.40772
892.60 61.22575
892.70 60.9651
892.80 61.26156
892.90 61.76168
893.00 61.91968
893.10 62.36711
893.20 64.88001
893.30 67.5803
893.40 69.71729
893.50 71.62573
893.60 72.17006
893.70 71.15534
893.80 69.51889
893.90 64.80964
894.00 59.9366
894.10 57.88462
894.20 56.31094
894.30 56.00192
894.40 56.83972
894.50 57.29757
894.60 56.54108
894.70 55.68706
894.80 57.61303
894.90 59.85516
895.00 60.9166
895.10 61.06165
895.20 60.93833
895.30 60.02202
895.40 59.17903
895.50 59.45604
895.60 59.84419
895.70 61.33767
895.80 63.43683
895.90 65.07014
896.00 65.69759
896.10 66.2187
896.20 65.66014
896.30 65.09074
896.40 64.96828
896.50 64.54422
896.60 63.71399
896.70 62.91775
896.80 62.24134
896.90 62.06965
897.00 61.97921
897.10 63.46849
897.20 65.06023
897.30 65.91605
897.40 66.46944
897.50 67.27363
897.60 68.9144
897.70 70.48817
897.80 71.58543
897.90 72.3775
898.00 71.76677
898.10 70.69442
898.20 69.81223
898.30 68.96224
898.40 67.88944
898.50 70.48434
898.60 73.65325
898.70 76.12903
898.80 77.62056
898.90 78.03018
899.00 75.85323
899.10 73.68161
899.20 72.74141
899.30 72.19756
899.40 72.13257
899.50 72.30627
899.60 72.34664
899.70 71.43191
899.80 70.40473
899.90 69.4089
900.00 68.68471
900.10 68.38605
900.20 68.27378
900.30 69.40934
900.40 72.51334
900.50 75.64539
900.60 78.5638
900.70 81.53107
900.80 81.22692
900.90 79.45358
901.00 77.44099
901.10 76.13331
901.20 75.37362
901.30 76.38092
901.40 77.24281
901.50 77.31161
901.60 77.50662
901.70 77.06461
901.80 75.89003
901.90 74.7738
902.00 73.4252
902.10 72.03453
902.20 70.7945
902.30 69.75366
902.40 68.73147
902.50 67.89926
902.60 67.26549
902.70 66.71138
902.80 66.10859
902.90 66.36434
903.00 66.77186
903.10 67.81904
903.20 68.87152
903.30 70.09625
903.40 71.8973
903.50 73.66032
903.60 75.26423
903.70 76.91278
903.80 78.38577
903.90 79.63465
904.00 80.48305
904.10 80.34419
904.20 80.07358
904.30 79.12531
904.40 78.38693
904.50 77.9716
904.60 77.53272
904.70 78.17822
904.80 79.93898
904.90 81.64084
905.00 82.98957
905.10 84.3576
905.20 82.06946
905.30 79.07809
905.40 77.03764
905.50 75.74791
905.60 74.53794
905.70 74.09488
905.80 73.77469
905.90 73.83955
906.00 73.82169
906.10 74.15008
906.20 74.68484
906.30 75.38252
906.40 76.30261
906.50 77.07827
906.60 75.74365
906.70 74.60723
906.80 73.58969
906.90 72.2424
907.00 71.31919
907.10 71.63278
907.20 72.09256
907.30 73.32865
907.40 74.3028
907.50 74.54711
907.60 74.73603
907.70 75.17914
907.80 76.71295
907.90 78.49896
908.00 80.91748
908.10 83.06739
908.20 83.20866
908.30 83.15997
908.40 82.22321
908.50 80.44191
908.60 79.06559
908.70 79.05843
908.80 79.0419
908.90 78.97894
909.00 79.45923
909.10 79.9327
909.20 79.79576
909.30 80.04392
909.40 81.27597
909.50 82.52843
909.60 83.51515
909.70 84.52202
909.80 85.07445
909.90 85.64355
910.00 86.36087
910.10 86.73496
910.20 87.01011
910.30 86.3677
910.40 85.79179
910.50 84.9167
910.60 84.15618
910.70 83.42392
910.80 81.80426
910.90 80.53894
911.00 82.42071
911.10 84.65287
911.20 86.61719
911.30 88.44754
911.40 89.65052
911.50 89.71432
911.60 89.47878
911.70 88.35724
911.80 87.40675
911.90 87.17147
912.00 86.70694
912.10 86.92215
912.20 87.61202
912.30 87.9448
912.40 87.5619
912.50 87.22994
912.60 86.7366
912.70 86.22253
912.80 85.93596
912.90 85.66022
913.00 85.63642
913.10 86.77664
913.20 88.07054
913.30 89.69254
913.40 91.08228
913.50 92.12967
913.60 93.44563
913.70 93.91633
913.80 92.30543
913.90 90.57281
914.00 87.51185
914.10 84.18192
914.20 82.54733
914.30 81.90835
914.40 82.53825
914.50 85.20039
914.60 87.74504
914.70 89.55851
914.80 91.29657
914.90 90.19444
915.00 88.34685
915.10 86.78917
915.20 85.89521
915.30 85.71393
915.40 87.81466
915.50 89.83357
915.60 93.66366
915.70 98.21805
915.80 100.3991
915.90 99.74402
916.00 98.73876
916.10 96.87058
916.20 95.03036
916.30 92.86331
916.40 90.85973
916.50 90.98343
916.60 92.13375
916.70 93.42784
916.80 95.32135
916.90 97.192
917.00 97.34029
917.10 97.15308
917.20 96.55345
917.30 96.16029
917.40 95.46649
917.50 94.09103
917.60 92.90077
917.70 92.92176
917.80 92.9931
917.90 93.41964
918.00 93.98385
918.10 94.83103
918.20 95.67849
918.30 96.33627
918.40 96.21769
918.50 96.09757
918.60 94.67247
918.70 93.00485
918.80 93.46325
918.90 96.83551
919.00 100.6035
919.10 104.3392
919.20 107.938
919.30 105.9628
919.40 103.5979
919.50 100.5038
919.60 97.61298
919.70 96.20424
919.80 98.12794
919.90 100.0594
920.00 101.519
920.10 102.7235
920.20 102.2494
920.30 101.3717
920.40 100.9513
920.50 100.8248
920.60 100.6145
920.70 99.02658
920.80 97.31293
920.90 93.28503
921.00 88.88774
921.10 86.3265
921.20 85.54405
921.30 84.97142
921.40 86.99039
921.50 89.38124
921.60 90.49307
921.70 91.01078
921.80 91.44321
921.90 91.56938
922.00 91.5103
922.10 90.15802
922.20 88.67242
922.30 87.74087
922.40 87.0809
922.50 86.35988
922.60 85.43452
922.70 84.92161
922.80 85.51225
922.90 86.06509
923.00 86.22166
923.10 86.63927
923.20 85.17746
923.30 82.68699
923.40 81.20756
923.50 80.61392
923.60 80.01475
923.70 81.04242
923.80 82.45404
923.90 82.93499
924.00 83.05227
924.10 83.73873
924.20 85.35908
924.30 86.94444
924.40 88.75183
924.50 90.51557
924.60 89.34348
924.70 87.38215
924.80 85.30809
924.90 83.75643
925.00 82.61126
925.10 82.58329
925.20 82.46645
925.30 82.26238
925.40 82.16392
925.50 82.76935
925.60 83.8063
925.70 85.26742
925.80 88.30003
925.90 91.37556
926.00 91.26975
926.10 91.06803
926.20 90.04908
926.30 88.27553
926.40 87.17048
926.50 87.74223
926.60 88.44227
926.70 91.06092
926.80 93.61871
926.90 94.25911
927.00 94.32489
927.10 93.95886
927.20 92.98023
927.30 91.91253
927.40 90.15254
927.50 88.38351
927.60 86.29107
927.70 83.87645
927.80 81.43135
927.90 79.32853
928.00 77.96941
928.10 79.66068
928.20 81.44333
928.30 82.90046
928.40 84.10732
928.50 85.7
928.60 87.61401
928.70 88.55081
928.80 86.8939
928.90 85.23596
929.00 84.88404
929.10 84.51718
929.20 83.70669
929.30 82.78771
929.40 82.34057
929.50 83.0247
929.60 83.73485
929.70 84.29538
929.80 84.68429
929.90 83.12719
930.00 80.74459
930.10 78.54009
930.20 77.65657
930.30 77.05449
930.40 78.13422
930.50 79.09036
930.60 79.02329
930.70 78.55344
930.80 78.4341
930.90 78.92113
931.00 79.5977
931.10 81.34197
931.20 83.06372
931.30 84.83454
931.40 86.70433
931.50 87.2537
931.60 86.47275
931.70 85.64433
931.80 84.43319
931.90 83.32745
932.00 82.16075
932.10 81.84783
932.20 81.822
932.30 82.5844
932.40 83.36413
932.50 84.2344
932.60 84.79816
932.70 84.51701
932.80 83.91789
932.90 83.84209
933.00 83.97953
933.10 84.04759
933.20 84.07438
933.30 84.10358
933.40 83.44138
933.50 82.42572
933.60 82.08941
933.70 83.23187
933.80 84.48293
933.90 84.84621
934.00 85.18533
934.10 86.14323
934.20 86.8428
934.30 85.72013
934.40 83.90178
934.50 83.44764
934.60 85.24404
934.70 87.03764
934.80 87.65466
934.90 88.11927
935.00 88.78792
935.10 87.08819
935.20 85.38802
935.30 84.3243
935.40 83.95725
935.50 83.58187
935.60 83.5434
935.70 83.61052
935.80 83.62685
935.90 84.52792
936.00 85.46396
936.10 86.64974
936.20 88.32655
936.30 90.01616
936.40 90.404
936.50 89.69175
936.60 88.94588
936.70 87.86239
936.80 86.8176
936.90 85.84688
937.00 84.51141
937.10 83.17625
937.20 81.93911
937.30 81.09642
937.40 80.22982
937.50 81.22377
937.60 82.67399
937.70 84.01
937.80 84.48738
937.90 84.93883
938.00 85.21442
938.10 85.1181
938.20 85.02776
938.30 85.0134
938.40 85.1064
938.50 85.18886
938.60 85.77288
938.70 86.37766
938.80 86.9345
938.90 87.55388
939.00 88.17334
939.10 88.57102
939.20 88.71556
939.30 88.8685
939.40 88.86755
939.50 88.75279
939.60 88.64287
939.70 87.23465
939.80 85.72262
939.90 84.57648
940.00 84.86557
940.10 85.14792
940.20 85.55847
940.30 85.97617
940.40 86.41022
940.50 87.34467
940.60 88.44924
940.70 89.594
940.80 91.1314
940.90 92.6699
941.00 93.62107
941.10 93.6062
941.20 93.61757
941.30 92.97917
941.40 91.98678
941.50 90.98236
941.60 89.41878
941.70 87.81564
941.80 86.57544
941.90 86.61543
942.00 86.65973
942.10 87.11279
942.20 88.01726
942.30 88.92053
942.40 89.52328
942.50 89.97356
942.60 90.30514
942.70 89.64003
942.80 88.97475
942.90 88.78356
943.00 89.77343
943.10 90.73897
943.20 92.07142
943.30 93.45461
943.40 94.87164
943.50 95.22747
943.60 95.45266
943.70 95.24831
943.80 93.80962
943.90 92.37182
944.00 91.22075
944.10 90.17813
944.20 89.12318
944.30 88.41807
944.40 87.91844
944.50 87.50393
944.60 87.96255
944.70 88.42186
944.80 89.04969
944.90 89.88346
945.00 90.71456
945.10 90.99767
945.20 91.1429
945.30 91.33309
945.40 91.11417
945.50 90.78833
945.60 90.506
945.70 90.63077
945.80 90.76111
945.90 90.703
946.00 90.32067
946.10 89.9122
946.20 90.90756
946.30 92.36042
946.40 93.6877
946.50 93.61297
946.60 93.53473
946.70 93.73453
946.80 94.21804
946.90 94.69497
947.00 94.82775
947.10 94.88989
947.20 94.99429
947.30 95.35485
947.40 95.68992
947.50 96.03951
947.60 96.71489
947.70 97.39063
947.80 98.23795
947.90 99.08077
948.00 99.91481
948.10 100.0052
948.20 100.0507
948.30 100.162
948.40 100.7388
948.50 101.3159
948.60 101.9111
948.70 102.2015
948.80 102.5015
948.90 102.6713
949.00 102.9275
949.10 103.1646
949.20 103.3586
949.30 103.5338
949.40 103.3299
949.50 101.4597
949.60 99.59001
949.70 99.30197
949.80 100.5351
949.90 101.7215
950.00 101.8084
950.10 101.703
950.20 101.6686
950.30 102.2367
950.40 102.8026
950.50 102.9854
950.60 102.199
950.70 101.3988
950.80 101.319
950.90 101.6953
951.00 102.0588
951.10 102.3555
951.20 102.6292
951.30 102.5216
951.40 101.1229
951.50 99.725
951.60 98.82965
951.70 98.36007
951.80 97.89201
951.90 97.72207
952.00 97.6192
952.10 97.53272
952.20 98.53661
952.30 99.54133
952.40 100.6906
952.50 102.3195
952.60 103.9515
952.70 104.9321
952.80 105.4971
952.90 106.1037
953.00 105.9998
953.10 105.7859
953.20 105.4568
953.30 104.8064
953.40 104.1561
953.50 103.1514
953.60 101.703
953.70 100.2559
953.80 99.94734
953.90 100.0366
954.00 100.1533
954.10 99.99499
954.20 99.83879
954.30 99.79081
954.40 99.96641
954.50 100.1586
954.60 100.6947
954.70 101.4423
954.80 102.1433
954.90 102.1922
955.00 102.1923
955.10 102.2524
955.20 102.5223
955.30 102.7976
955.40 103.0659
955.50 103.3656
955.60 103.6585
955.70 104.4074
955.80 105.3196
955.90 106.2576
956.00 106.9396
956.10 107.6209
956.20 107.8528
956.30 107.0256
956.40 106.2135
956.50 105.2289
956.60 104.2965
956.70 103.348
956.80 104.4458
956.90 105.6895
957.00 106.9206
957.10 107.8599
957.20 108.7939
957.30 108.7285
957.40 107.7325
957.50 106.7658
957.60 105.2136
957.70 103.5544
957.80 102.0651
957.90 101.8336
958.00 101.6033
958.10 101.5224
958.20 101.9966
958.30 102.4863
958.40 102.6792
958.50 102.7033
958.60 102.7217
958.70 101.4896
958.80 100.17
958.90 98.80949
959.00 96.94418
959.10 95.06991
959.20 94.50869
959.30 95.30472
959.40 96.0709
959.50 96.63949
959.60 97.15589
959.70 97.52038
959.80 95.3917
959.90 93.26053
960.00 91.90232
960.10 91.68627
960.20 91.4048
960.30 93.11386
960.40 95.82554
960.50 98.44301
960.60 99.57544
960.70 100.6494
960.80 101.6218
960.90 101.9617
961.00 102.3155
961.10 102.3306
961.20 102.041
961.30 101.7618
961.40 100.4662
961.50 99.01928
961.60 97.91843
961.70 98.71295
961.80 99.50019
961.90 100.6863
962.00 102.7132
962.10 104.7581
962.20 105.3435
962.30 105.2852
962.40 105.3085
962.50 105.3877
962.60 105.4623
962.70 105.5371
962.80 105.8047
962.90 106.0804
963.00 105.2399
963.10 103.7016
963.20 102.1804
963.30 101.2754
963.40 100.3456
963.50 99.22606
963.60 97.12336
963.70 95.03915
963.80 92.18795
963.90 88.11233
964.00 83.94775
964.10 84.38811
964.20 86.58399
964.30 88.56666
964.40 92.00147
964.50 95.43365
964.60 97.86014
964.70 97.61547
964.80 97.38803
964.90 97.51401
965.00 97.80817
965.10 98.0512
965.20 97.80025
965.30 97.51764
965.40 97.37881
965.50 97.80024
965.60 98.22657
965.70 99.20435
965.80 100.7869
965.90 102.367
966.00 103.6755
966.10 104.8993
966.20 106.0759
966.30 106.494
966.40 106.9119
966.50 107.1219
966.60 106.7967
966.70 106.4879
966.80 106.1627
966.90 105.8501
967.00 105.4919
967.10 105.1126
967.20 104.7346
967.30 104.3056
967.40 103.3352
967.50 102.3859
967.60 100.8157
967.70 98.49344
967.80 96.06082
967.90 96.93343
968.00 98.71601
968.10 100.3648
968.20 102.5548
968.30 104.7495
968.40 105.7977
968.50 104.5329
968.60 103.2842
968.70 101.9084
968.80 100.4193
968.90 98.97414
969.00 99.16307
969.10 99.44995
969.20 100.0575
969.30 102.1805
969.40 104.2938
969.50 105.7689
969.60 106.7609
969.70 107.8079
969.80 108.5149
969.90 109.0969
970.00 109.5206
970.10 109.152
970.20 108.7875
970.30 108.3056
970.40 107.4787
970.50 106.7199
970.60 104.4088
970.70 101.4234
970.80 98.38946
970.90 99.94607
971.00 101.5892
971.10 103.5427
971.20 106.919
971.30 110.3232
971.40 112.2454
971.50 113.087
971.60 113.9782
971.70 114.6844
971.80 115.3031
971.90 115.7021
972.00 114.6872
972.10 113.6711
972.20 112.5025
972.30 111.1964
972.40 109.8552
972.50 109.3171
972.60 109.0547
972.70 108.7833
972.80 106.6133
972.90 104.439
973.00 102.3095
973.10 100.0639
973.20 97.72949
973.30 98.38244
973.40 100.9327
973.50 103.4878
973.60 103.9053
973.70 104.1711
973.80 104.5555
973.90 104.9218
974.00 105.287
974.10 104.8625
974.20 103.6735
974.30 102.5413
974.40 100.7892
974.50 98.83374
974.60 97.05973
974.70 97.84486
974.80 98.62206
974.90 99.55412
975.00 100.9933
975.10 102.4664
975.20 103.6642
975.30 104.7012
975.40 105.7262
975.50 105.8435
975.60 105.9535
975.70 106.3135
975.80 107.0749
975.90 107.8189
976.00 108.1049
976.10 108.0751
976.20 108.0955
976.30 107.9677
976.40 107.7956
976.50 107.7022
976.60 108.6507
976.70 109.6059
976.80 109.9924
976.90 109.536
977.00 109.1363
977.10 107.7259
977.20 105.8513
977.30 103.9288
977.40 105.193
977.50 106.4648
977.60 107.6687
977.70 109.0781
977.80 110.5153
977.90 110.9085
978.00 110.5391
978.10 110.2498
978.20 107.9784
978.30 105.4838
978.40 103.2728
978.50 101.604
978.60 99.89369
978.70 99.12636
978.80 99.64392
978.90 100.1279
979.00 101.3504
979.10 102.7947
979.20 104.263
979.30 107.4305
979.40 110.6018
979.50 113.0356
979.60 114.0341
979.70 115.0887
979.80 115.2782
979.90 114.9883
980.00 114.6605
980.10 114.7764
980.20 114.9068
980.30 114.9443
980.40 114.6562
980.50 114.3705
980.60 113.8185
980.70 113.0262
980.80 112.2337
980.90 112.2815
981.00 112.496
981.10 112.7784
981.20 113.7916
981.30 114.8108
981.40 114.6103
981.50 112.6665
981.60 110.7429
981.70 109.8141
981.80 109.2764
981.90 108.6431
982.00 109.2163
982.10 109.7895
982.20 110.1394
982.30 109.815
982.40 109.4848
982.50 109.773
982.60 110.4814
982.70 111.1737
982.80 111.2946
982.90 111.3564
983.00 111.4149
983.10 111.1459
983.20 110.8714
983.30 110.5944
983.40 110.357
983.50 110.1275
983.60 109.5631
983.70 108.8917
983.80 108.3187
983.90 109.019
984.00 109.7151
984.10 110.3831
984.20 111.1227
984.30 111.8752
984.40 112.1366
984.50 112.1272
984.60 112.1174
984.70 112.6162
984.80 113.1522
984.90 113.3465
985.00 112.491
985.10 111.6532
985.20 110.7167
985.30 109.6492
985.40 108.5403
985.50 109.4502
985.60 110.7504
985.70 112.0037
985.80 113.1473
985.90 114.2981
986.00 114.8099
986.10 114.4124
986.20 114.0113
986.30 113.9944
986.40 114.1239
986.50 114.2194
986.60 114.3774
986.70 114.5367
986.80 114.1434
986.90 112.3631
987.00 110.578
987.10 110.1156
987.20 110.4992
987.30 110.7896
987.40 113.2598
987.50 115.9513
987.60 118.0871
987.70 117.8041
987.80 117.5425
987.90 116.3641
988.00 114.1863
988.10 111.993
988.20 112.1403
988.30 112.8823
988.40 113.7028
988.50 116.1412
988.60 118.5829
988.70 119.9076
988.80 119.4307
988.90 118.9774
989.00 118.0474
989.10 116.8749
989.20 115.7125
989.30 114.0709
989.40 112.4169
989.50 110.0301
989.60 105.5045
989.70 101.0279
989.80 96.55769
989.90 92.00654
990.00 87.32776
990.10 85.74322
990.20 84.64835
990.30 83.23463
990.40 80.18235
990.50 77.1438
990.60 73.90828
990.70 70.36324
990.80 66.77124
990.90 65.95353
991.00 66.04386
991.10 66.0891
991.20 67.14272
991.30 68.20354
991.40 68.30081
991.50 66.39719
991.60 64.49263
991.70 63.68154
991.80 63.47852
991.90 63.15244
992.00 65.96609
992.10 68.9617
992.20 71.164
992.30 70.50692
992.40 69.88761
992.50 68.71364
992.60 66.9671
992.70 65.10738
992.80 67.27577
992.90 70.28097
993.00 73.26513
993.10 76.4902
993.20 79.73639
993.30 81.06982
993.40 79.63935
993.50 78.22938
993.60 78.28027
993.70 78.90692
993.80 79.48793
993.90 83.57995
994.00 87.67568
994.10 90.68653
994.20 91.22348
994.30 91.81615
994.40 91.53302
994.50 90.63721
994.60 89.72313
994.70 90.31834
994.80 91.06647
994.90 92.00445
995.00 94.04059
995.10 96.08091
995.20 97.77332
995.30 99.09228
995.40 100.4202
995.50 100.3964
995.60 100.0301
995.70 99.56713
995.80 97.10368
995.90 94.62918
996.00 92.85387
996.10 92.23315
996.20 91.56721
996.30 93.10496
996.40 95.64947
996.50 98.11802
996.60 101.5082
996.70 104.8949
996.80 106.0567
996.90 101.2739
997.00 96.5649
997.10 91.47561
997.20 86.04559
997.30 80.50989
997.40 79.89402
997.50 79.92335
997.60 80.34469
997.70 83.34216
997.80 86.33631
997.90 88.84395
998.00 90.82293
998.10 92.81482
998.20 93.33855
998.30 93.43259
998.40 93.47074
998.50 90.96299
998.60 88.44816
998.70 86.86222
998.80 86.87719
998.90 86.85014
999.00 86.59457
999.10 86.26752
999.20 85.96838
999.30 85.93532
999.40 85.91104
999.50 85.95252
999.60 86.29336
999.70 86.66629
999.80 87.11603
999.90 87.64651
1000.00 88.08212
1000.10 91.4385
1000.20 95.14712
1000.30 98.54761
1000.40 100.4953
1000.50 102.4647
1000.60 103.2244
1000.70 102.5434
1000.80 101.9275
1000.90 99.26538
1001.00 96.04491
1001.10 92.95771
1001.20 91.81596
1001.30 90.65708
1001.40 90.73884
1001.50 93.04011
1001.60 95.32549
1001.70 97.98166
1001.80 100.8465
1001.90 103.8124
1002.00 102.6348
1002.10 101.3476
1002.20 100.3632
1002.30 100.1246
1002.40 99.84034
1002.50 100.5218
1002.60 101.8982
1002.70 103.3097
1002.80 102.4923
1002.90 101.4139
1003.00 100.5535
1003.10 100.1311
1003.20 99.70221
1003.30 98.74318
1003.40 97.25888
1003.50 95.79236
1003.60 93.77399
1003.70 91.58056
1003.80 89.60599
1003.90 90.94534
1004.00 92.27124
1004.10 94.42984
1004.20 98.19846
1004.30 101.9671
1004.40 104.2067
1004.50 105.646
1004.60 107.1993
1004.70 106.4355
1004.80 105.6297
1004.90 103.9709
1005.00 99.88684
1005.10 95.82957
1005.20 91.37388
1005.30 86.60181
1005.40 81.78334
1005.50 79.98347
1005.60 78.63087
1005.70 77.88951
1005.80 80.49687
1005.90 83.08932
1006.00 85.72216
1006.10 88.45931
1006.20 91.2442
1006.30 90.97327
1006.40 89.79555
1006.50 88.81094
1006.60 90.71743
1006.70 92.61464
1006.80 95.24193
1006.90 99.17531
1007.00 103.1496
1007.10 103.5685
1007.20 102.2736
1007.30 101.064
1007.40 100.7604
1007.50 100.4904
1007.60 100.9278
1007.70 103.5149
1007.80 106.1034
1007.90 107.4307
1008.00 107.8396
1008.10 108.2922
1008.20 108.4324
1008.30 108.5191
1008.40 108.7944
1008.50 110.0725
1008.60 111.3453
1008.70 111.2982
1008.80 109.7531
1008.90 108.2863
1009.00 105.5788
1009.10 102.5544
1009.20 99.67305
1009.30 98.82617
1009.40 97.96669
1009.50 98.41923
1009.60 101.2488
1009.70 104.0697
1009.80 107.5205
1009.90 111.257
1010.00 114.9867
1010.10 118.3076
1010.20 121.599
1010.30 123.6896
1010.40 122.5596
1010.50 121.4748
1010.60 119.9944
1010.70 118.2124
1010.80 116.4429
1010.90 114.1954
1011.00 111.8394
1011.10 109.3856
1011.20 106.5713
1011.30 103.7426
1011.40 101.8387
1011.50 100.9464
1011.60 100.0444
1011.70 98.81032
1011.80 97.49702
1011.90 96.41432
1012.00 98.73153
1012.10 101.0303
1012.20 104.3713
1012.30 109.6485
1012.40 114.9723
1012.50 117.7088
1012.60 119.1369
1012.70 120.6776
1012.80 119.524
1012.90 118.3798
1013.00 117.4756
1013.10 117.2762
1013.20 117.0969
1013.30 115.4927
1013.40 112.7447
1013.50 110.0977
1013.60 104.7449
1013.70 99.08677
1013.80 94.27177
1013.90 93.56187
1014.00 92.81205
1014.10 93.8146
1014.20 96.90129
1014.30 99.95714
1014.40 102.3509
1014.50 104.5435
1014.60 106.5134
1014.70 104.1854
1014.80 101.8564
1014.90 100.9258
1015.00 102.373
1015.10 103.7067
1015.20 106.3826
1015.30 109.6629
1015.40 113.0875
1015.50 111.0438
1015.60 108.8932
1015.70 106.5711
1015.80 103.4125
1015.90 100.2087
1016.00 99.24318
1016.10 99.98343
1016.20 100.6432
1016.30 102.0234
1016.40 103.4924
1016.50 104.9613
1016.60 106.163
1016.70 107.3512
1016.80 108.3661
1016.90 109.1753
1017.00 110.0663
1017.10 108.2088
1017.20 105.6028
1017.30 103.3823
1017.40 106.5579
1017.50 109.7212
1017.60 112.8593
1017.70 116.0174
1017.80 119.2959
1017.90 117.4695
1018.00 113.2299
1018.10 109.0225
1018.20 106.8826
1018.30 104.7622
1018.40 102.7279
1018.50 101.2615
1018.60 99.78999
1018.70 99.26845
1018.80 99.44917
1018.90 99.51949
1019.00 102.2751
1019.10 105.3933
1019.20 108.1475
1019.30 108.8856
1019.40 109.6528
1019.50 109.9166
1019.60 109.6329
1019.70 109.3231
1019.80 109.655
1019.90 110.1587
1020.00 110.6001
1020.10 109.9366
1020.20 109.2625
1020.30 108.9955
1020.40 109.4141
1020.50 109.8191
1020.60 110.7899
1020.70 112.0668
1020.80 113.3628
1020.90 113.0255
1021.00 112.6242
1021.10 111.8439
1021.20 110.1104
1021.30 108.4187
1021.40 106.1563
1021.50 103.4202
1021.60 100.645
1021.70 98.59234
1021.80 96.61935
1021.90 94.82514
1022.00 93.93043
1022.10 93.01795
1022.20 93.63698
1022.30 95.64178
1022.40 97.53585
1022.50 100.7608
1022.60 104.1098
1022.70 107.0769
1022.80 107.2903
1022.90 107.5125
1023.00 106.9558
1023.10 105.3785
1023.20 103.8277
1023.30 103.3453
1023.40 103.3751
1023.50 103.5355
1023.60 106.1572
1023.70 108.7917
1023.80 110.8268
1023.90 111.9451
1024.00 113.0915
1024.10 114.7719
1024.20 116.6528
1024.30 118.5033
1024.40 117.7166
1024.50 116.7427
1024.60 115.4631
1024.70 112.9891
1024.80 110.4853
1024.90 108.8077
1025.00 107.8328
1025.10 106.8926
1025.20 104.3697
1025.30 101.5742
1025.40 99.3337
1025.50 100.5972
1025.60 101.834
1025.70 102.5401
1025.80 102.4693
1025.90 102.5257
1026.00 99.24138
1026.10 94.97382
1026.20 90.94436
1026.30 89.89119
1026.40 88.89776
1026.50 89.16476
1026.60 92.1515
1026.70 95.07271
1026.80 99.29778
1026.90 104.0554
1027.00 108.9198
1027.10 109.6319
1027.20 110.146
1027.30 110.0424
1027.40 108.0701
1027.50 106.1051
1027.60 104.0531
1027.70 101.9948
1027.80 99.87585
1027.90 99.28372
1028.00 98.85458
1028.10 98.21477
1028.20 96.35842
1028.30 94.50641
1028.40 93.30472
1028.50 92.90444
1028.60 92.36791
1028.70 96.45829
1028.80 101.8468
1028.90 106.9066
1029.00 108.361
1029.10 109.8629
1029.20 109.9269
1029.30 107.3397
1029.40 104.7361
1029.50 104.3606
1029.60 104.7256
1029.70 104.9605
1029.80 104.6294
1029.90 104.312
1030.00 103.7796
1030.10 102.4288
1030.20 101.0715
1030.30 101.0019
1030.40 101.7569
1030.50 102.4046
1030.60 106.0896
1030.70 109.9303
1030.80 112.5743
1030.90 111.0233
1031.00 109.4988
1031.10 108.692
1031.20 108.6142
1031.30 108.4498
1031.40 109.8458
1031.50 111.4089
1031.60 112.3819
1031.70 109.6206
1031.80 106.8733
1031.90 104.7021
1032.00 103.3175
1032.10 101.8626
1032.20 101.7129
1032.30 101.9456
1032.40 102.0694
1032.50 100.3637
1032.60 98.62947
1032.70 98.95968
1032.80 103.2722
1032.90 107.5392
1033.00 111.8693
1033.10 116.1891
1033.20 120.5817
1033.30 121.1944
1033.40 121.5539
1033.50 120.5879
1033.60 115.6047
1033.70 110.6519
1033.80 106.629
1033.90 103.3701
1034.00 99.9954
1034.10 100.5795
1034.20 101.8557
1034.30 102.8247
1034.40 101.971
1034.50 101.1172
1034.60 101.049
1034.70 102.0139
1034.80 102.8625
1034.90 104.297
1035.00 105.6782
1035.10 106.5746
1035.20 105.15
1035.30 103.7356
1035.40 103.5156
1035.50 104.6138
1035.60 105.7072
1035.70 106.9451
1035.80 108.2881
1035.90 109.7187
1036.00 112.2577
1036.10 114.8072
1036.20 116.8471
1036.30 118.0614
1036.40 119.3195
1036.50 119.4713
1036.60 118.9713
1036.70 118.4628
1036.80 119.121
1036.90 119.9015
1037.00 121.1238
1037.10 123.7218
1037.20 126.3176
1037.30 128.1443
1037.40 129.2609
1037.50 130.4489
1037.60 127.7263
1037.70 124.2753
1037.80 120.5624
1037.90 115.233
1038.00 109.8958
1038.10 105.8494
1038.20 103.5873
1038.30 101.1928
1038.40 103.1603
1038.50 106.5431
1038.60 109.8577
1038.70 112.581
1038.80 115.2548
1038.90 116.5055
1039.00 115.0296
1039.10 113.5713
1039.20 112.4374
1039.30 111.5067
1039.40 110.5782
1039.50 109.5445
1039.60 108.5089
1039.70 107.8913
1039.80 108.524
1039.90 109.1108
1040.00 110.4589
1040.10 112.3916
1040.20 114.2718
1040.30 116.4598
1040.40 118.4446
1040.50 120.0511
1040.60 120.691
1040.70 121.3418
1040.80 121.9908
1040.90 122.5542
1041.00 123.1582
1041.10 120.4841
1041.20 117.2385
1041.30 114.0867
1041.40 111.4972
1041.50 108.8777
1041.60 109.075
1041.70 112.8747
1041.80 116.5806
1041.90 120.5789
1042.00 124.4394
1042.10 127.8568
1042.20 124.7813
1042.30 121.5945
1042.40 118.4511
1042.50 115.1528
1042.60 111.8733
1042.70 108.0878
1042.80 104.1022
1042.90 100.0271
1043.00 101.1725
1043.10 102.6355
1043.20 105.3694
1043.30 112.1653
1043.40 118.9926
1043.50 123.1866
1043.60 125.0235
1043.70 126.9873
1043.80 126.342
1043.90 125.4066
1044.00 124.6732
1044.10 125.0373
1044.20 125.4013
1044.30 125.3311
1044.40 124.7763
1044.50 124.2437
1044.60 123.8689
1044.70 123.6087
1044.80 123.4356
1044.90 124.1993
1045.00 124.9889
1045.10 127.3773
1045.20 131.8564
1045.30 136.3563
1045.40 139.3392
1045.50 141.6105
1045.60 143.671
1045.70 142.7278
1045.80 141.6195
1045.90 139.116
1046.00 133.8458
1046.10 128.5763
1046.20 124.1824
1046.30 120.4813
1046.40 116.7228
1046.50 115.6463
1046.60 114.6357
1046.70 113.5294
1046.80 111.8149
1046.90 110.0978
1047.00 108.5084
1047.10 107.1947
1047.20 105.8098
1047.30 106.7197
1047.40 107.9401
1047.50 109.0913
1047.60 110.0928
1047.70 111.1002
1047.80 111.2446
1047.90 110.3037
1048.00 109.3803
1048.10 109.4684
1048.20 110.0067
1048.30 110.922
1048.40 113.616
1048.50 116.3067
1048.60 117.8878
1048.70 118.0768
1048.80 118.2926
1048.90 118.1635
1049.00 117.9955
1049.10 117.9182
1049.20 118.7421
1049.30 119.5819
1049.40 120.0509
1049.50 119.769
1049.60 119.559
1049.70 117.291
1049.80 113.886
1049.90 110.3411
1050.00 111.1942
1050.10 112.2568
1050.20 113.3525
1050.30 114.9343
1050.40 116.5688
1050.50 116.9545
1050.60 116.2278
1050.70 115.5151
1050.80 114.8849
1050.90 114.3001
1051.00 113.6
1051.10 112.3784
1051.20 111.1974
1051.30 109.3167
1051.40 106.5634
1051.50 103.7554
1051.60 103.7949
1051.70 104.7707
1051.80 105.5683
1051.90 105.7797
1052.00 105.9791
1052.10 106.2405
1052.20 106.6423
1052.30 107.0244
1052.40 108.5943
1052.50 110.5124
1052.60 112.4358
1052.70 115.2187
1052.80 118.0133
1052.90 119.5793
1053.00 118.5649
1053.10 117.6088
1053.20 116.2641
1053.30 114.8351
1053.40 113.3279
1053.50 114.5119
1053.60 115.7857
1053.70 116.7021
1053.80 116.5302
1053.90 116.3884
1054.00 115.6376
1054.10 114.4462
1054.20 113.1739
1054.30 114.1768
1054.40 115.4501
1054.50 116.0959
1054.60 113.3351
1054.70 110.5979
1054.80 108.5437
1054.90 107.4309
1055.00 106.2216
1055.10 108.5285
1055.20 111.8698
1055.30 114.6997
1055.40 114.5475
1055.50 114.3096
1055.60 112.9142
1055.70 110.0393
1055.80 107.1805
1055.90 105.3308
1056.00 103.9916
1056.10 102.6837
1056.20 101.863
1056.30 101.0062
1056.40 100.5626
1056.50 101.1053
1056.60 101.6295
1056.70 102.6388
1056.80 103.9283
1056.90 105.2697
1057.00 105.1353
1057.10 104.8711
1057.20 105.0167
1057.30 106.6946
1057.40 108.3575
1057.50 109.747
1057.60 110.9316
1057.70 112.1522
1057.80 111.9228
1057.90 111.4182
1058.00 111.0457
1058.10 111.5297
1058.20 112.0121
1058.30 112.0315
1058.40 111.4003
1058.50 110.8501
1058.60 109.1835
1058.70 107.3893
1058.80 105.7299
1058.90 104.9543
1059.00 104.1693
1059.10 103.6911
1059.20 103.7394
1059.30 103.7891
1059.40 104.806
1059.50 106.1493
1059.60 107.4417
1059.70 108.7354
1059.80 110.0662
1059.90 110.6364
1060.00 109.5205
1060.10 108.4051
1060.20 107.7616
1060.30 107.2787
1060.40 106.7935
1060.50 105.3728
1060.60 103.8664
1060.70 102.3677
1060.80 101.4535
1060.90 100.5225
1061.00 100.6497
1061.10 101.5853
1061.20 102.4468
1061.30 104.6953
1061.40 107.1733
1061.50 109.4184
1061.60 110.2867
1061.70 111.1832
1061.80 111.0462
1061.90 110.064
1062.00 109.0755
1062.10 107.7718
1062.20 106.5285
1062.30 105.7013
1062.40 106.924
1062.50 108.1605
1062.60 109.9662
1062.70 112.6418
1062.80 115.311
1062.90 117.3374
1063.00 119.0135
1063.10 120.518
1063.20 119.228
1063.30 117.8654
1063.40 116.8238
1063.50 116.2365
1063.60 115.6064
1063.70 116.0556
1063.80 117.2963
1063.90 118.4949
1064.00 119.8051
1064.10 121.0334
1064.20 121.9181
1064.30 121.7977
1064.40 121.6928
1064.50 121.34
1064.60 120.7074
1064.70 120.0713
1064.80 120.3737
1064.90 120.8342
1065.00 121.225
1065.10 121.0326
1065.20 120.8636
1065.30 119.3783
1065.40 116.9191
1065.50 114.4854
1065.60 112.6428
1065.70 110.8415
1065.80 109.2391
1065.90 109.3013
1066.00 109.4221
1066.10 109.0491
1066.20 107.918
1066.30 106.8491
1066.40 105.2726
1066.50 103.6013
1066.60 102.04
1066.70 102.9495
1066.80 103.931
1066.90 104.4452
1067.00 104.2175
1067.10 103.9972
1067.20 104.7266
1067.30 105.9452
1067.40 107.2568
1067.50 110.332
1067.60 113.4213
1067.70 115.8604
1067.80 117.1815
1067.90 118.5161
1068.00 119.3128
1068.10 119.6821
1068.20 120.057
1068.30 123.0351
1068.40 126.1362
1068.50 128.7379
1068.60 129.9913
1068.70 131.258
1068.80 131.0899
1068.90 129.7082
1069.00 128.3431
1069.10 127.7773
1069.20 127.4752
1069.30 127.0217
1069.40 125.4585
1069.50 123.8539
1069.60 121.4043
1069.70 118.0296
1069.80 114.6134
1069.90 114.4622
1070.00 115.4987
1070.10 116.2836
1070.20 115.6023
1070.30 114.8699
1070.40 114.7842
1070.50 115.5103
1070.60 116.184
1070.70 118.0648
1070.80 120.2021
1070.90 122.0593
1071.00 120.8904
1071.10 119.6909
1071.20 118.9939
1071.30 119.3745
1071.40 119.7061
1071.50 121.1355
1071.60 123.0656
1071.70 125.0917
1071.80 124.6752
1071.90 124.1351
1072.00 123.7804
1072.10 123.8516
1072.20 123.9285
1072.30 122.8161
1072.40 120.6075
1072.50 118.4618
1072.60 117.6155
1072.70 117.2191
1072.80 117.5263
1072.90 119.9812
1073.00 122.4474
1073.10 123.7306
1073.20 123.8123
1073.30 123.9619
1073.40 121.7807
1073.50 119.386
1073.60 117.4727
1073.70 117.9323
1073.80 118.4079
1073.90 119.5096
1074.00 121.7485
1074.10 123.9903
1074.20 125.628
1074.30 126.8158
1074.40 127.9279
1074.50 127.8134
1074.60 127.7322
1074.70 127.9342
1074.80 128.2942
1074.90 128.6511
1075.00 127.7458
1075.10 126.1804
1075.20 124.6775
1075.30 122.5167
1075.40 120.3268
1075.50 118.9101
1075.60 119.8945
1075.70 120.82
1075.80 123.039
1075.90 125.7396
1076.00 128.4847
1076.10 128.4054
1076.20 128.1746
1076.30 127.8824
1076.40 127.4746
1076.50 127.0586
1076.60 126.8087
1076.70 126.7444
1076.80 126.6827
1076.90 127.505
1077.00 128.4094
1077.10 129.0724
1077.20 128.4328
1077.30 127.7687
1077.40 126.8346
1077.50 125.5725
1077.60 124.3472
1077.70 123.6528
1077.80 123.2258
1077.90 122.8419
1078.00 124.1952
1078.10 125.597
1078.20 126.3907
1078.30 126.3661
1078.40 126.3628
1078.50 126.5132
1078.60 126.5416
1078.70 126.3781
1078.80 124.1987
1078.90 122.0095
1079.00 120.2247
1079.10 119.1643
1079.20 118.0879
1079.30 116.9183
1079.40 115.6455
1079.50 114.3196
1079.60 115.2962
1079.70 116.4942
1079.80 117.7753
1079.90 119.3492
1080.00 120.9263
1080.10 122.1514
1080.20 123.0943
1080.30 124.055
1080.40 124.7171
1080.50 125.2723
1080.60 125.8914
1080.70 126.6338
1080.80 127.3753
1080.90 127.9468
1081.00 128.5274
1081.10 129.1178
1081.20 129.1282
1081.30 128.9185
1081.40 128.7512
1081.50 129.0657
1081.60 129.4064
1081.70 130.4167
1081.80 132.2926
1081.90 134.1962
1082.00 133.9169
1082.10 132.7576
1082.20 131.5995
1082.30 130.0348
1082.40 128.4946
1082.50 127.0806
1082.60 125.9923
1082.70 124.8836
1082.80 124.6978
1082.90 125.0055
1083.00 125.3673
1083.10 127.0371
1083.20 128.9593
1083.30 130.994
1083.40 132.6077
1083.50 134.2428
1083.60 134.3591
1083.70 133.5968
1083.80 132.8386
1083.90 132.5409
1084.00 132.2992
1084.10 132.0397
1084.20 131.6306
1084.30 131.227
1084.40 130.642
1084.50 129.7542
1084.60 128.9129
1084.70 127.1664
1084.80 125.4551
1084.90 124.217
1085.00 126.0255
1085.10 127.9018
1085.20 128.9004
1085.30 128.0382
1085.40 127.2578
1085.50 126.5028
1085.60 126.4694
1085.70 126.7822
1085.80 128.9587
1085.90 131.1479
1086.00 133.3909
1086.10 135.5226
1086.20 137.6633
1086.30 138.4941
1086.40 138.8281
1086.50 139.065
1086.60 137.6925
1086.70 136.3029
1086.80 135.4747
1086.90 135.5907
1087.00 135.6512
1087.10 136.4228
1087.20 137.5754
1087.30 138.796
1087.40 137.0567
1087.50 135.0922
1087.60 133.3694
1087.70 132.7127
1087.80 131.9897
1087.90 132.5001
1088.00 133.5245
1088.10 134.6085
1088.20 133.3944
1088.30 132.0816
1088.40 131.1648
1088.50 131.7314
1088.60 132.2714
1088.70 132.6751
1088.80 132.8931
1088.90 133.186
1089.00 132.8149
1089.10 132.3379
1089.20 131.9306
1089.30 131.6402
1089.40 131.3177
1089.50 131.0188
1089.60 131.1953
1089.70 131.3279
1089.80 133.3275
1089.90 135.8904
1090.00 138.2071
1090.10 139.2695
1090.20 140.2591
1090.30 140.8253
1090.40 140.918
1090.50 141.0286
1090.60 140.0438
1090.70 138.4867
1090.80 136.8277
1090.90 134.0733
1091.00 131.3303
1091.10 129.2441
1091.20 128.5806
1091.30 127.8541
1091.40 128.6897
1091.50 130.4901
1091.60 132.2407
1091.70 134.6411
1091.80 137.0231
1091.90 138.9831
1092.00 138.9469
1092.10 138.9354
1092.20 138.5332
1092.30 137.8394
1092.40 137.0999
1092.50 136.8001
1092.60 136.5483
1092.70 136.4415
1092.80 136.6417
1092.90 136.8461
1093.00 136.7505
1093.10 136.5602
1093.20 136.3737
1093.30 135.8835
1093.40 135.2317
1093.50 134.6099
1093.60 133.7309
1093.70 132.8129
1093.80 132.3299
1093.90 133.2373
1094.00 134.0725
1094.10 135.6595
1094.20 137.2473
1094.30 138.6285
1094.40 136.3298
1094.50 133.8124
1094.60 131.4913
1094.70 129.5318
1094.80 127.5132
1094.90 128.9133
1095.00 131.8238
1095.10 134.6715
1095.20 137.5569
1095.30 140.4585
1095.40 142.715
1095.50 143.2647
1095.60 143.8621
1095.70 143.2072
1095.80 141.9239
1095.90 140.6392
1096.00 141.3525
1096.10 142.1962
1096.20 142.9005
1096.30 143.2069
1096.40 143.5149
1096.50 143.3408
1096.60 142.738
1096.70 142.1834
1096.80 139.9597
1096.90 137.3368
1097.00 134.5683
1097.10 131.4659
1097.20 128.3506
1097.30 127.4398
1097.40 128.6988
1097.50 129.8968
1097.60 131.4338
1097.70 133.0906
1097.80 134.8247
1097.90 136.4515
1098.00 138.0416
1098.10 138.7704
1098.20 138.6095
1098.30 138.5246
1098.40 137.4863
1098.50 135.8549
1098.60 134.2275
1098.70 133.7056
1098.80 133.3602
1098.90 133.3083
1099.00 133.7527
1099.10 134.187
1099.20 135.1253
1099.30 136.306
1099.40 137.4601
1099.50 138.4127
1099.60 139.2332
1099.70 139.6815
1099.80 139.3323
1099.90 138.977
1100.00 138.48
1100.10 138.0386
1100.20 137.6133
1100.30 136.4142
1100.40 135.1088
1100.50 134.0069
1100.60 133.655
1100.70 133.2647
1100.80 133.669
1100.90 134.6572
1101.00 135.6621
1101.10 136.1601
1101.20 136.7009
1101.30 137.5949
1101.40 139.229
1101.50 140.8559
1101.60 141.0621
1101.70 139.9251
1101.80 138.858
1101.90 136.5001
1102.00 133.9025
1102.10 131.391
1102.20 129.4097
1102.30 127.4372
1102.40 126.4082
1102.50 127.0792
1102.60 127.6355
1102.70 130.3859
1102.80 133.6408
1102.90 136.7632
1103.00 137.3461
1103.10 137.7394
1103.20 136.7893
1103.30 133.4222
1103.40 130.1089
1103.50 126.6378
1103.60 123.3868
1103.70 120.4026
1103.80 121.5495
1103.90 122.9597
1104.00 124.6111
1104.10 126.2749
1104.20 127.9397
1104.30 128.3416
1104.40 128.3183
1104.50 128.3303
1104.60 129.2489
1104.70 130.1355
1104.80 131.0403
1104.90 131.4996
1105.00 131.9485
1105.10 130.5345
1105.20 127.6681
1105.30 124.9
1105.40 121.8695
1105.50 118.7818
1105.60 116.4252
1105.70 117.4688
1105.80 118.6421
1105.90 120.0344
1106.00 121.0063
1106.10 122.0268
1106.20 121.975
1106.30 121.799
1106.40 121.8006
1106.50 122.948
1106.60 124.1514
1106.70 124.4836
1106.80 123.4014
1106.90 122.3553
1107.00 120.8604
1107.10 119.3971
1107.20 118.1107
1107.30 119.5484
1107.40 121.0938
1107.50 122.3547
1107.60 122.6599
1107.70 123.0239
1107.80 123.1777
1107.90 123.4841
1108.00 123.8059
1108.10 125.0412
1108.20 126.371
1108.30 128.0013
1108.40 129.9793
1108.50 131.9685
1108.60 132.8538
1108.70 132.954
1108.80 133.1203
1108.90 132.3293
1109.00 131.581
1109.10 130.9632
1109.20 130.9096
1109.30 130.8098
1109.40 131.4353
1109.50 132.7488
1109.60 134.0759
1109.70 135.1467
1109.80 136.071
1109.90 136.5464
1110.00 135.4443
1110.10 134.3274
1110.20 132.2009
1110.30 128.9942
1110.40 125.7845
1110.50 123.5829
1110.60 121.7745
1110.70 120.3488
1110.80 121.3876
1110.90 122.4761
1111.00 122.6705
1111.10 121.6626
1111.20 120.675
1111.30 119.9587
1111.40 119.3637
1111.50 118.7926
1111.60 119.3551
1111.70 120.0157
1111.80 120.9081
1111.90 121.8006
1112.00 122.7295
1112.10 122.665
1112.20 122.2966
1112.30 121.9847
1112.40 122.735
1112.50 123.5723
1112.60 124.8346
1112.70 126.779
1112.80 128.711
1112.90 130.2293
1113.00 131.48
1113.10 132.7924
1113.20 132.8038
1113.30 132.8129
1113.40 132.7267
1113.50 132.1801
1113.60 131.6855
1113.70 130.2913
1113.80 127.9991
1113.90 125.6073
1114.00 126.338
1114.10 127.3736
1114.20 128.5231
1114.30 130.5345
1114.40 132.5295
1114.50 134.2773
1114.60 135.7764
1114.70 137.3913
1114.80 136.0398
1114.90 134.0755
1115.00 132.4359
1115.10 132.0912
1115.20 131.72
1115.30 131.7616
1115.40 132.1623
1115.50 132.6079
1115.60 132.5996
1115.70 132.7072
1115.80 132.7116
1115.90 131.6824
1116.00 130.6192
1116.10 129.7339
1116.20 128.7366
1116.30 127.7265
1116.40 127.1998
1116.50 126.8868
1116.60 126.669
1116.70 127.1965
1116.80 127.7341
1116.90 127.3195
1117.00 125.2151
1117.10 123.1192
1117.20 121.2814
1117.30 119.649
1117.40 117.9894
1117.50 118.1953
1117.60 118.4439
1117.70 118.6396
1117.80 119.5632
1117.90 120.4613
1118.00 121.7672
1118.10 123.1969
1118.20 124.6582
1118.30 126.9668
1118.40 129.2685
1118.50 131.1368
1118.60 132.2895
1118.70 133.4938
1118.80 133.0449
1118.90 130.8759
1119.00 129.6258
1119.10 128.7866
1119.20 128.0698
1119.30 127.3164
1119.40 126.8282
1119.50 126.3754
1119.60 125.91
1119.70 125.6364
1119.80 125.3648
1119.90 124.9977
1120.00 124.7887
1120.10 124.5781
1120.20 123.8017
1120.30 124.1681
1120.40 125.1172
1120.50 127.1686
1120.60 129.0704
1120.70 130.6941
1120.80 132.104
1120.90 132.9163
1121.00 131.388
1121.10 129.6837
1121.20 127.9968
1121.30 127.938
1121.40 127.8811
1121.50 127.8813
1121.60 126.6521
1121.70 125.0922
1121.80 123.4241
1121.90 122.0952
1122.00 121.1877
1122.10 120.7195
1122.20 120.747
1122.30 122.1502
1122.40 123.8423
1122.50 125.4661
1122.60 128.1956
1122.70 130.6279
1122.80 133.1633
1122.90 134.1798
1123.00 134.3726
1123.10 134.5851
1123.20 132.9501
1123.30 129.6145
1123.40 126.2736
1123.50 123.4197
1123.60 123.6729
1123.70 123.9441
1123.80 124.6932
1123.90 126.7927
1124.00 128.889
1124.10 130.9679
1124.20 132.267
1124.30 133.3124
1124.40 134.3586
1124.50 134.9641
1124.60 135.5343
1124.70 136.1011
1124.80 135.7792
1124.90 132.4353
1125.00 129.0859
1125.10 125.7708
1125.20 126.507
1125.30 127.6984
1125.40 128.8774
1125.50 130.6054
1125.60 132.3234
1125.70 134.0527
1125.80 134.7096
1125.90 133.8212
1126.00 132.9286
1126.10 132.0818
1126.20 131.9762
1126.30 131.8717
1126.40 131.918
1126.50 132.6254
1126.60 133.3814
1126.70 134.1313
1126.80 134.2187
1126.90 134.0236
1127.00 133.8289
1127.10 133.3595
1127.20 132.9596
1127.30 132.5564
1127.40 132.0457
1127.50 131.1197
1127.60 130.194
1127.70 129.3406
1127.80 129.4503
1127.90 129.6583
1128.00 129.9075
1128.10 130.4391
1128.20 130.8792
1128.30 131.3145
1128.40 131.7164
1128.50 132.2603
1128.60 132.805
1128.70 133.0028
1128.80 132.0709
1128.90 131.1358
1129.00 130.3444
1129.10 130.0026
1129.20 129.6738
1129.30 129.3012
1129.40 129.3313
1129.50 129.8048
1129.60 130.2829
1129.70 131.363
1129.80 133.0618
1129.90 134.7603
1130.00 136.174
1130.10 135.2529
1130.20 134.3179
1130.30 133.2931
1130.40 131.6174
1130.50 129.8996
1130.60 128.1741
1130.70 127.2609
1130.80 126.7081
1130.90 126.1553
1131.00 126.2676
1131.10 127.4165
1131.20 128.5665
1131.30 129.6087
1131.40 130.3997
1131.50 131.1884
1131.60 132.0334
1131.70 132.9005
1131.80 133.7404
1131.90 134.5853
1132.00 134.4413
1132.10 133.9787
1132.20 133.5151
1132.30 133.1583
1132.40 133.0422
1132.50 132.9275
1132.60 132.9565
1132.70 132.9168
1132.80 132.8775
1132.90 132.7848
1133.00 132.3594
1133.10 131.8761
1133.20 131.3974
1133.30 130.5592
1133.40 129.6052
1133.50 128.652
1133.60 127.3191
1133.70 125.3782
1133.80 123.4371
1133.90 121.6807
1134.00 120.3074
1134.10 118.9336
1134.20 117.5375
1134.30 118.0316
1134.40 119.0025
1134.50 119.9473
1134.60 120.5757
1134.70 121.2273
1134.80 121.885
1134.90 123.5975
1135.00 125.8392
1135.10 128.0709
1135.20 129.7916
1135.30 128.7753
1135.40 127.7551
1135.50 126.7824
1135.60 124.7223
1135.70 122.3604
1135.80 119.9815
1135.90 119.2712
1136.00 120.7181
1136.10 122.1694
1136.20 123.8792
1136.30 124.879
1136.40 125.8706
1136.50 126.4925
1136.60 125.0786
1136.70 123.6634
1136.80 122.2554
1136.90 120.9795
1137.00 119.7448
1137.10 118.4994
1137.20 117.3813
1137.30 116.1298
1137.40 114.8756
1137.50 113.2655
1137.60 111.6464
1137.70 110.0163
1137.80 108.2123
1137.90 102.7989
1138.00 97.36863
1138.10 92.01587
1138.20 87.39829
1138.30 82.94003
1138.40 78.41987
1138.50 79.61729
1138.60 84.57656
1138.70 89.56584
1138.80 94.61999
1138.90 99.94501
1139.00 105.2494
1139.10 110.0724
1139.20 111.0969
1139.30 112.1027
1139.40 113.0992
1139.50 112.0082
1139.60 110.4467
1139.70 108.8992
1139.80 106.8888
1139.90 104.71
1140.00 102.5206
1140.10 99.42473
1140.20 93.5334
1140.30 87.62655
1140.40 82.00613
1140.50 77.4462
1140.60 72.92623
1140.70 68.57325
1140.80 71.00708
1140.90 75.89327
1141.00 80.75821
1141.10 86.5283
1141.20 92.73156
1141.30 98.92189
1141.40 104.2827
1141.50 108.8952
1141.60 113.4959
1141.70 118.1192
1141.80 119.7137
1141.90 121.299
1142.00 122.8348
1142.10 123.8479
1142.20 124.739
1142.30 125.6444
1142.40 126.2681
1142.50 126.5638
1142.60 126.8617
1142.70 127.079
1142.80 127.5953
1142.90 128.1106
1143.00 128.6525
1143.10 128.1365
1143.20 127.6179
1143.30 127.0901
1143.40 126.8991
1143.50 126.8713
1143.60 126.843
1143.70 126.7421
1143.80 126.4211
1143.90 126.0949
1144.00 125.7426
1144.10 126.2281
1144.20 126.7211
1144.30 127.2445
1144.40 127.2806
1144.50 127.3169
1144.60 127.4648
1144.70 127.7729
1144.80 127.9846
1144.90 128.1861
1145.00 128.2378
1145.10 128.484
1145.20 128.7292
1145.30 128.9187
1145.40 128.5303
1145.50 128.1412
1145.60 127.7178
1145.70 127.2892
1145.80 126.8611
1145.90 126.5503
1146.00 127.5042
1146.10 128.7714
1146.20 130.0437
1146.30 130.6125
1146.40 130.8965
1146.50 131.1806
1146.60 131.5339
1146.70 132.3295
1146.80 133.1196
1146.90 133.9752
1147.00 133.0457
1147.10 132.1131
1147.20 131.1302
1147.30 130.9786
1147.40 131.2896
1147.50 131.6007
1147.60 132.4173
1147.70 133.461
1147.80 134.505
1147.90 135.4901
1148.00 135.898
1148.10 136.3041
1148.20 136.4272
1148.30 135.1172
1148.40 133.8005
1148.50 132.5293
1148.60 132.5039
1148.70 132.9473
1148.80 133.3844
1148.90 134.7544
1149.00 136.5511
1149.10 138.3462
1149.20 139.3409
1149.30 138.0342
1149.40 136.723
1149.50 135.2585
1149.60 135.1938
1149.70 135.1343
1149.80 135.0776
1149.90 135.2785
1150.00 135.5719
1150.10 135.8747
1150.20 136.009
1150.30 135.567
1150.40 135.1257
1150.50 134.7084
1150.60 135.095
1150.70 135.4843
1150.80 135.887
1150.90 136.6011
1151.00 137.3128
1151.10 138.0113
1151.20 138.1159
1151.30 138.0181
1151.40 137.925
1151.50 137.4666
1151.60 136.5838
1151.70 135.7016
1151.80 134.8828
1151.90 134.8795
1152.00 134.8767
1152.10 134.7745
1152.20 133.0905
1152.30 131.3997
1152.40 129.7222
1152.50 128.5629
1152.60 127.6584
1152.70 126.7365
1152.80 127.4987
1152.90 129.0757
1153.00 130.6526
1153.10 131.6331
1153.20 131.4019
1153.30 131.1703
1153.40 130.8579
1153.50 130.7072
1153.60 130.5604
1153.70 130.4623
1153.80 131.4424
1153.90 132.7768
1154.00 134.113
1154.10 135.2831
1154.20 136.3214
1154.30 137.3568
1154.40 137.6148
1154.50 136.3339
1154.60 135.0486
1154.70 133.909
1154.80 132.7798
1154.90 131.6578
1155.00 130.6031
1155.10 131.0524
1155.20 131.7903
1155.30 132.5353
1155.40 133.1102
1155.50 133.6324
1155.60 134.151
1155.70 134.7674
1155.80 135.7795
1155.90 136.7891
1156.00 137.7479
1156.10 137.0554
1156.20 136.3633
1156.30 135.7247
1156.40 136.2249
1156.50 136.9638
1156.60 137.698
1156.70 137.7018
1156.80 137.1784
1156.90 136.6579
1157.00 136.0389
1157.10 135.1045
1157.20 134.1738
1157.30 133.23
1157.40 133.1812
1157.50 133.1326
1157.60 133.1011
1157.70 133.29
1157.80 133.5284
1157.90 133.7626
1158.00 134.2555
1158.10 134.8912
1158.20 135.5264
1158.30 135.7497
1158.40 135.3118
1158.50 134.8727
1158.60 134.4447
1158.70 133.7873
1158.80 133.1276
1158.90 132.4285
1159.00 131.4034
1159.10 130.335
1159.20 129.2725
1159.30 127.7003
1159.40 125.5914
1159.50 123.4808
1159.60 122.1417
1159.70 122.1291
1159.80 122.1266
1159.90 122.165
1160.00 123.5175
1160.10 124.8711
1160.20 126.2468
1160.30 127.8096
1160.40 129.3957
1160.50 131.0023
1160.60 131.0583
1160.70 130.1497
1160.80 129.2417
1160.90 128.3925
1161.00 127.1508
1161.10 125.9232
1161.20 125.2134
1161.30 127.8996
1161.40 130.5981
1161.50 133.1564
1161.60 134.6694
1161.70 136.0119
1161.80 137.4171
1161.90 136.8858
1162.00 135.3815
1162.10 133.8721
1162.20 132.8475
1162.30 132.5058
1162.40 132.1677
1162.50 132.0734
1162.60 133.1725
1162.70 134.2736
1162.80 135.3925
1162.90 136.7662
1163.00 138.1875
1163.10 139.6105
1163.20 139.9863
1163.30 139.9042
1163.40 139.8334
1163.50 138.782
1163.60 136.2205
1163.70 133.6515
1163.80 131.3859
1163.90 129.5117
1164.00 127.6455
1164.10 125.8029
1164.20 126.4725
1164.30 127.6836
1164.40 128.8598
1164.50 130.5065
1164.60 132.4219
1164.70 134.3496
1164.80 135.185
1164.90 134.9893
1165.00 134.79
1165.10 134.582
1165.20 133.5548
1165.30 132.5258
1165.40 131.5154
1165.50 130.5309
1165.60 129.5504
1165.70 128.545
1165.80 129.1336
1165.90 130.5272
1166.00 131.914
1166.10 133.2882
1166.20 134.6545
1166.30 136.02
1166.40 137.1398
1166.50 136.8903
1166.60 136.6389
1166.70 136.3628
1166.80 135.6716
1166.90 134.9417
1167.00 134.2232
1167.10 133.5641
1167.20 132.9408
1167.30 132.3111
1167.40 131.4274
1167.50 130.4005
1167.60 129.3742
1167.70 128.5991
1167.80 128.2779
1167.90 127.9586
1168.00 127.5516
1168.10 126.5787
1168.20 125.562
1168.30 124.5144
1168.40 122.0601
1168.50 119.2064
1168.60 116.3688
1168.70 112.0371
1168.80 106.0007
1168.90 99.9456
1169.00 93.90973
1169.10 86.67723
1169.20 79.46829
1169.30 72.63898
1169.40 75.15553
1169.50 78.60703
1169.60 81.94808
1169.70 88.48147
1169.80 96.15494
1169.90 103.8585
1170.00 109.9498
1170.10 114.2365
1170.20 118.514
1170.30 122.328
1170.40 124.4885
1170.50 126.6432
1170.60 128.7306
1170.70 129.4796
1170.80 130.1102
1170.90 130.7597
1171.00 130.8513
1171.10 130.6975
1171.20 130.5405
1171.30 130.6331
1171.40 131.045
1171.50 131.4558
1171.60 131.602
1171.70 130.9216
1171.80 130.2386
1171.90 129.5561
1172.00 129.1351
1172.10 128.7165
1172.20 128.2952
1172.30 128.4227
1172.40 128.704
1172.50 128.9808
1172.60 129.4332
1172.70 129.9727
1172.80 130.5146
1172.90 131.0854
1173.00 131.8212
1173.10 132.5552
1173.20 133.1966
1173.30 132.4733
1173.40 131.7449
1173.50 131.0349
1173.60 130.3269
1173.70 129.6168
1173.80 128.8859
1173.90 128.6888
1174.00 129.0425
1174.10 129.3955
1174.20 129.9979
1174.30 130.8513
1174.40 131.7057
1174.50 132.5164
1174.60 132.8931
1174.70 133.2653
1174.80 133.5983
1174.90 133.062
1175.00 132.355
1175.10 131.6626
1175.20 130.8051
1175.30 129.8867
1175.40 128.9654
1175.50 128.6657
1175.60 129.1211
1175.70 129.5796
1175.80 129.6957
1175.90 128.2582
1176.00 126.8158
1176.10 125.3798
1176.20 123.3807
1176.30 121.2669
1176.40 119.1606
1176.50 116.7536
1176.60 114.2464
1176.70 111.7586
1176.80 107.4303
1176.90 99.973
1177.00 92.49675
1177.10 85.29093
1177.20 77.27228
1177.30 69.27294
1177.40 61.45689
1177.50 60.5969
1177.60 61.21654
1177.70 61.64873
1177.80 67.00044
1177.90 74.99054
1178.00 82.98411
1178.10 89.90963
1178.20 95.51411
1178.30 101.1006
1178.40 106.3883
1178.50 109.5635
1178.60 112.7338
1178.70 115.8882
1178.80 117.7589
1178.90 119.5087
1179.00 121.2838
1179.10 122.2749
1179.20 122.9532
1179.30 123.6376
1179.40 124.0298
1179.50 124.0247
1179.60 124.0185
1179.70 124.1081
1179.80 124.4503
1179.90 124.7945
1180.00 125.1386
1180.10 126.0247
1180.20 126.9761
1180.30 127.905
1180.40 128.5464
1180.50 129.0937
1180.60 129.6556
1180.70 129.6494
1180.80 128.9138
1180.90 128.1775
1181.00 127.4438
1181.10 126.7891
1181.20 126.1346
1181.30 125.4662
1181.40 124.8466
1181.50 124.2359
1181.60 123.6274
1181.70 123.627
1181.80 123.8445
1181.90 124.0565
1182.00 124.7672
1182.10 125.7465
1182.20 126.7293
1182.30 127.3342
1182.40 127.0358
1182.50 126.731
1182.60 126.4369
1182.70 125.2025
1182.80 123.9648
1182.90 122.742
1183.00 122.5035
1183.10 122.6002
1183.20 122.6736
1183.30 122.7587
1183.40 123.0378
1183.50 123.3195
1183.60 123.2372
1183.70 122.0462
1183.80 120.8522
1183.90 119.8809
1184.00 120.7845
1184.10 121.697
1184.20 122.5761
1184.30 124.4197
1184.40 126.4543
1184.50 128.5296
1184.60 128.6455
1184.70 127.466
1184.80 126.2878
1184.90 125.1402
1185.00 123.8828
1185.10 122.6296
1185.20 121.6298
1185.30 122.1872
1185.40 122.7505
1185.50 123.2731
1185.60 124.2224
1185.70 125.2819
1185.80 126.3473
1185.90 126.7726
1186.00 126.9144
1186.10 127.0603
1186.20 127.2774
1186.30 127.7626
1186.40 128.2465
1186.50 128.6274
1186.60 128.1644
1186.70 127.6984
1186.80 127.2369
1186.90 126.2455
1187.00 125.152
1187.10 124.0381
1187.20 124.0174
1187.30 124.5157
1187.40 125.0038
1187.50 125.439
1187.60 126.0083
1187.70 126.5747
1187.80 126.9718
1187.90 126.118
1188.00 125.2547
1188.10 124.3529
1188.20 121.0747
1188.30 117.5634
1188.40 114.0832
1188.50 111.8421
1188.60 109.9999
1188.70 108.081
1188.80 108.6988
1188.90 112.7037
1189.00 116.7172
1189.10 120.0959
1189.20 122.0542
1189.30 123.9952
1189.40 125.9706
1189.50 126.7746
1189.60 127.4668
1189.70 128.1437
1189.80 128.5872
1189.90 128.8653
1190.00 129.1501
1190.10 128.9276
1190.20 128.1398
1190.30 127.3545
1190.40 126.5116
1190.50 125.4855
1190.60 124.4585
1190.70 123.5646
1190.80 123.7761
1190.90 123.9954
1191.00 124.1742
1191.10 124.8779
1191.20 125.8507
1191.30 126.8262
1191.40 127.3242
1191.50 127.3957
1191.60 127.4675
1191.70 127.4548
1191.80 127.215
1191.90 126.9758
1192.00 126.7411
1192.10 127.0322
1192.20 127.3209
1192.30 127.6103
1192.40 127.1274
1192.50 126.4807
1192.60 125.8255
1192.70 125.6092
1192.80 125.6993
1192.90 125.7887
1193.00 126.1131
1193.10 126.7952
1193.20 127.4761
1193.30 127.9021
1193.40 127.3737
1193.50 126.8402
1193.60 126.3265
1193.70 124.5309
1193.80 122.468
1193.90 120.4007
1194.00 119.2634
1194.10 118.5598
1194.20 117.8459
1194.30 117.4371
1194.40 117.7264
1194.50 118.0143
1194.60 118.0421
1194.70 116.4975
1194.80 114.9466
1194.90 113.5115
1195.00 112.5168
1195.10 111.5505
1195.20 110.5226
1195.30 111.7075
1195.40 114.0857
1195.50 116.4535
1195.60 118.0108
1195.70 118.8952
1195.80 119.7719
1195.90 120.3609
1196.00 118.8436
1196.10 117.3248
1196.20 115.8651
1196.30 115.1169
1196.40 114.4258
1196.50 113.7131
1196.60 113.5378
1196.70 113.5364
1196.80 113.5381
1196.90 113.2751
1197.00 112.6817
1197.10 112.0913
1197.20 110.7933
1197.30 107.1846
1197.40 103.5737
1197.50 100.1172
1197.60 98.94203
1197.70 97.79784
1197.80 96.52319
1197.90 97.98944
1198.00 100.348
1198.10 102.7111
1198.20 104.5007
1198.30 105.8071
1198.40 107.1109
1198.50 108.5824
1198.60 110.7418
1198.70 112.8968
1198.80 114.8656
1198.90 113.3953
1199.00 111.9131
1199.10 110.5007
1199.20 108.864
1199.30 107.1224
1199.40 105.351
1199.50 104.7715
1199.60 105.1767
1199.70 105.5758
1199.80 106.1606
1199.90 107.1477
1200.00 108.1326
