# Version 2.1 - nm, norm@500 to 1, cut digits
# Wavelength(nm)  Flambda(ergs/cm^s/s/nm)
300.00 0.007277094
300.10 0.009009188
300.20 0.01037785
300.30 0.01134776
300.40 0.01200217
300.50 0.01243765
300.60 0.01271766
300.70 0.01288793
300.80 0.0129929
300.90 0.01306838
301.00 0.01314066
301.10 0.01322083
301.20 0.01330824
301.30 0.0134013
301.40 0.01349832
301.50 0.01359792
301.60 0.01369917
301.70 0.01380139
301.80 0.0139041
301.90 0.014007
302.00 0.01410995
302.10 0.0142129
302.20 0.01431588
302.30 0.01441901
302.40 0.01452252
302.50 0.01462676
302.60 0.01473225
302.70 0.0148397
302.80 0.01495015
302.90 0.01506491
303.00 0.01518515
303.10 0.01531139
303.20 0.01544311
303.30 0.01557914
303.40 0.01571816
303.50 0.01585915
303.60 0.01600139
303.70 0.01614437
303.80 0.01628771
303.90 0.01643121
304.00 0.01657474
304.10 0.01671827
304.20 0.0168617
304.30 0.01700467
304.40 0.01714651
304.50 0.01728609
304.60 0.01742185
304.70 0.01755159
304.80 0.01767217
304.90 0.0177796
305.00 0.01787023
305.10 0.01794255
305.20 0.01799806
305.30 0.01804042
305.40 0.01807361
305.50 0.0181008
305.60 0.01812416
305.70 0.01814526
305.80 0.01816523
305.90 0.01818475
306.00 0.01820416
306.10 0.01822357
306.20 0.01824298
306.30 0.0182624
306.40 0.01828181
306.50 0.01830123
306.60 0.01832066
306.70 0.0183401
306.80 0.01835957
306.90 0.01837906
307.00 0.01839858
307.10 0.01841815
307.20 0.01843775
307.30 0.01845739
307.40 0.01847704
307.50 0.0184967
307.60 0.01851638
307.70 0.01853605
307.80 0.01855573
307.90 0.01857542
308.00 0.0185951
308.10 0.01861478
308.20 0.01863472
308.30 0.01865579
308.40 0.01867971
308.50 0.01870928
308.60 0.01874841
308.70 0.01880259
308.80 0.0188797
308.90 0.01898973
309.00 0.01914181
309.10 0.01933973
309.20 0.0195797
309.30 0.01985258
309.40 0.0201484
309.50 0.02045927
309.60 0.0207797
309.70 0.02110578
309.80 0.02143471
309.90 0.02176477
310.00 0.02209508
310.10 0.0224254
310.20 0.02275546
310.30 0.02308438
310.40 0.02341043
310.50 0.02373081
310.60 0.02404158
310.70 0.02433722
310.80 0.0246098
310.90 0.02484929
311.00 0.02504651
311.10 0.02519765
311.20 0.02530652
311.30 0.0253823
311.40 0.02543502
311.50 0.02547262
311.60 0.0255006
311.70 0.02552291
311.80 0.02554235
311.90 0.02556066
312.00 0.0255787
312.10 0.02559675
312.20 0.02561511
312.30 0.02563488
312.40 0.02565819
312.50 0.02568851
312.60 0.0257307
312.70 0.02579158
312.80 0.02588093
312.90 0.02601115
313.00 0.02619357
313.10 0.02643291
313.20 0.02672446
313.30 0.02705687
313.40 0.02741776
313.50 0.02779733
313.60 0.02818877
313.70 0.02858723
313.80 0.02898922
313.90 0.02939262
314.00 0.02979633
314.10 0.03020005
314.20 0.03060399
314.30 0.03100891
314.40 0.03141629
314.50 0.03182856
314.60 0.03224908
314.70 0.03268261
314.80 0.03313596
314.90 0.03361776
315.00 0.03413591
315.10 0.03469367
315.20 0.03528777
315.30 0.03591031
315.40 0.03655268
315.50 0.03720806
315.60 0.0378717
315.70 0.03854022
315.80 0.0392112
315.90 0.03988316
316.00 0.04055534
316.10 0.04122752
316.20 0.04189889
316.30 0.04256666
316.40 0.04322537
316.50 0.04386614
316.60 0.04447655
316.70 0.04503914
316.80 0.04552887
316.90 0.04591404
317.00 0.04616562
317.10 0.04627157
317.20 0.04624394
317.30 0.04611175
317.40 0.04590669
317.50 0.04565382
317.60 0.04537058
317.70 0.0450694
317.80 0.04475917
317.90 0.04444534
318.00 0.04413069
318.10 0.04381604
318.20 0.04350202
318.30 0.04319076
318.40 0.04288642
318.50 0.04259581
318.60 0.04232846
318.70 0.0420977
318.80 0.04192271
318.90 0.04182777
319.00 0.04183509
319.10 0.04195389
319.20 0.04217494
319.30 0.04247603
319.40 0.04283291
319.50 0.04322638
319.60 0.0436431
319.70 0.04407354
319.80 0.04451093
319.90 0.04495106
320.00 0.04539182
320.10 0.04583258
320.20 0.04627311
320.30 0.04671262
320.40 0.04714956
320.50 0.04758143
320.60 0.0480047
320.70 0.04841444
320.80 0.04880354
320.90 0.04916304
321.00 0.04948473
321.10 0.04976518
321.20 0.05000781
321.30 0.05022084
321.40 0.05041324
321.50 0.0505921
321.60 0.05076236
321.70 0.05092755
321.80 0.05109017
321.90 0.05125178
322.00 0.05141315
322.10 0.05157452
322.20 0.05173674
322.30 0.05190268
322.40 0.05207798
322.50 0.05227183
322.60 0.05249709
322.70 0.05277179
322.80 0.05312185
322.90 0.05358003
323.00 0.05417636
323.10 0.05492328
323.20 0.05580835
323.30 0.05680155
323.40 0.05787011
323.50 0.0589881
323.60 0.0601375
323.70 0.06130545
323.80 0.06248277
323.90 0.0636638
324.00 0.06484568
324.10 0.06602757
324.20 0.06720931
324.30 0.06839045
324.40 0.06957007
324.50 0.07074667
324.60 0.07191818
324.70 0.07308165
324.80 0.07423288
324.90 0.07536655
325.00 0.07647777
325.10 0.07756454
325.20 0.07862886
325.30 0.07967562
325.40 0.08071014
325.50 0.08173662
325.60 0.08275801
325.70 0.08377638
325.80 0.08479323
325.90 0.08580948
326.00 0.08682559
326.10 0.0878417
326.20 0.0888581
326.30 0.08987581
326.40 0.0908968
326.50 0.09192428
326.60 0.09296275
326.70 0.09401854
326.80 0.09510071
326.90 0.09622073
327.00 0.09738913
327.10 0.09861024
327.20 0.09987973
327.30 0.1011871
327.40 0.1025208
327.50 0.1038718
327.60 0.1052339
327.70 0.1066024
327.80 0.1079742
327.90 0.1093473
328.00 0.1107207
328.10 0.1120941
328.20 0.1134657
328.30 0.1148298
328.40 0.1161746
328.50 0.1174812
328.60 0.1187234
328.70 0.119864
328.80 0.1208498
328.90 0.1216135
329.00 0.1220934
329.10 0.1222639
329.20 0.1221507
329.30 0.1218153
329.40 0.1213252
329.50 0.1207334
329.60 0.1200772
329.70 0.1193828
329.80 0.1186693
329.90 0.117948
330.00 0.1172251
330.10 0.1165021
330.20 0.1157804
330.30 0.1150644
330.40 0.1143627
330.50 0.1136892
330.60 0.1130636
330.70 0.1125134
330.80 0.1120779
330.90 0.1118072
331.00 0.1117471
331.10 0.1119164
331.20 0.1122963
331.30 0.1128409
331.40 0.1135003
331.50 0.1142351
331.60 0.1150177
331.70 0.1158286
331.80 0.1166538
331.90 0.1174847
332.00 0.1183168
332.10 0.1191489
332.20 0.1199803
332.30 0.120808
332.40 0.1216267
332.50 0.1224275
332.60 0.123198
332.70 0.1239208
332.80 0.1245709
332.90 0.1251166
333.00 0.1255291
333.10 0.1257963
333.20 0.1259302
333.30 0.1259598
333.40 0.1259167
333.50 0.1258258
333.60 0.1257047
333.70 0.1255657
333.80 0.1254176
333.90 0.125266
334.00 0.1251135
334.10 0.1249721
334.20 0.1248598
334.30 0.1247868
334.40 0.1247537
334.50 0.1247526
334.60 0.1248112
334.70 0.1250235
334.80 0.1254923
334.90 0.1262246
335.00 0.1271368
335.10 0.1282932
335.20 0.1301074
335.30 0.1331613
335.40 0.1376463
335.50 0.1428692
335.60 0.1473216
335.70 0.1494103
335.80 0.1483501
335.90 0.14451
336.00 0.1390695
336.10 0.1333814
336.20 0.1285563
336.30 0.1252797
336.40 0.1236268
336.50 0.1230757
336.60 0.1229256
336.70 0.1229287
336.80 0.1235477
336.90 0.1255049
337.00 0.1290281
337.10 0.1334303
337.20 0.1373911
337.30 0.1397723
337.40 0.140358
337.50 0.1399459
337.60 0.13973
337.70 0.1404246
337.80 0.141835
337.90 0.1432206
338.00 0.1439396
338.10 0.1437283
338.20 0.1424813
338.30 0.1400557
338.40 0.1366042
338.50 0.1329965
338.60 0.1306512
338.70 0.1306653
338.80 0.1329377
338.90 0.1362337
339.00 0.1391942
339.10 0.1413912
339.20 0.1435233
339.30 0.1465732
339.40 0.1507387
339.50 0.1551914
339.60 0.1587714
339.70 0.160803
339.80 0.1612481
339.90 0.1602676
340.00 0.1579558
340.10 0.1545017
340.20 0.1503109
340.30 0.1457883
340.40 0.1410531
340.50 0.1360571
340.60 0.1309881
340.70 0.1264226
340.80 0.1230553
340.90 0.1213139
341.00 0.1212244
341.10 0.1225412
341.20 0.1248975
341.30 0.1278339
341.40 0.1308396
341.50 0.1334868
341.60 0.1355637
341.70 0.1371058
341.80 0.1382654
341.90 0.1391183
342.00 0.1395531
342.10 0.1393049
342.20 0.1381452
342.30 0.1361438
342.40 0.1337967
342.50 0.1318344
342.60 0.1308134
342.70 0.1308295
342.80 0.131559
342.90 0.1325273
343.00 0.1333876
343.10 0.1340588
343.20 0.1346569
343.30 0.1352913
343.40 0.1359036
343.50 0.1363039
343.60 0.1363451
343.70 0.1360073
343.80 0.135356
343.90 0.1345123
344.00 0.1336657
344.10 0.1330255
344.20 0.1326773
344.30 0.1325206
344.40 0.132402
344.50 0.1323178
344.60 0.1324706
344.70 0.1331468
344.80 0.1345557
344.90 0.1367462
345.00 0.1396098
345.10 0.1429073
345.20 0.1462976
345.30 0.1493745
345.40 0.1517368
345.50 0.153132
345.60 0.1535844
345.70 0.153378
345.80 0.1528584
345.90 0.152205
346.00 0.1513682
346.10 0.1501748
346.20 0.1484999
346.30 0.14642
346.40 0.1442546
346.50 0.1424029
346.60 0.1410563
346.70 0.1400559
346.80 0.1390535
346.90 0.137813
347.00 0.1363558
347.10 0.1349174
347.20 0.1338596
347.30 0.133571
347.40 0.1343033
347.50 0.1360039
347.60 0.1383397
347.70 0.1409185
347.80 0.143496
347.90 0.1460036
348.00 0.1484242
348.10 0.1506567
348.20 0.1524754
348.30 0.1536243
348.40 0.1539815
348.50 0.1536507
348.60 0.1528717
348.70 0.1518414
348.80 0.1506535
348.90 0.1493756
349.00 0.1481093
349.10 0.1469659
349.20 0.1460311
349.30 0.1453835
349.40 0.1451215
349.50 0.1453138
349.60 0.1459161
349.70 0.1467827
349.80 0.1478214
349.90 0.1491631
350.00 0.1511251
350.10 0.1539284
350.20 0.1574061
350.30 0.160986
350.40 0.1639744
350.50 0.1658871
350.60 0.1665718
350.70 0.1661067
350.80 0.1646535
350.90 0.162367
351.00 0.1593443
351.10 0.1556215
351.20 0.1512656
351.30 0.1465434
351.40 0.1419922
351.50 0.138238
351.60 0.1356562
351.70 0.1341734
351.80 0.1334004
351.90 0.1329607
352.00 0.1327088
352.10 0.132688
352.20 0.1330028
352.30 0.1337887
352.40 0.1352599
352.50 0.1377102
352.60 0.1413419
352.70 0.1460197
352.80 0.1512032
352.90 0.1561959
353.00 0.1605613
353.10 0.1643266
353.20 0.1677814
353.30 0.1711326
353.40 0.1743942
353.50 0.177533
353.60 0.1805878
353.70 0.1835976
353.80 0.1864876
353.90 0.1890804
354.00 0.1911696
354.10 0.1925532
354.20 0.1930634
354.30 0.1926868
354.40 0.1916854
354.50 0.1905135
354.60 0.1895399
354.70 0.1888405
354.80 0.1882571
354.90 0.1876179
355.00 0.1868798
355.10 0.1860985
355.20 0.1853287
355.30 0.1845755
355.40 0.1838182
355.50 0.1830182
355.60 0.1820823
355.70 0.1808382
355.80 0.1790921
355.90 0.1767649
356.00 0.1739623
356.10 0.1708889
356.20 0.1676978
356.30 0.1644151
356.40 0.1610051
356.50 0.1575217
356.60 0.1542087
356.70 0.1514332
356.80 0.1494712
356.90 0.1483174
357.00 0.1476917
357.10 0.1472093
357.20 0.1465406
357.30 0.1454806
357.40 0.1439574
357.50 0.1420244
357.60 0.1398432
357.70 0.1376352
357.80 0.1356191
357.90 0.133966
358.00 0.1328046
358.10 0.1322643
358.20 0.1324745
358.30 0.1334864
358.40 0.1351783
358.50 0.1372444
358.60 0.1392934
358.70 0.1409858
358.80 0.1421522
358.90 0.1428526
359.00 0.1433619
359.10 0.1440545
359.20 0.1452006
359.30 0.1467899
359.40 0.1485054
359.50 0.1499059
359.60 0.1506957
359.70 0.150873
359.80 0.1506526
359.90 0.1502419
360.00 0.1496605
360.10 0.1487456
360.20 0.1473414
360.30 0.1455023
360.40 0.1435582
360.50 0.1420177
360.60 0.1413837
360.70 0.1419805
360.80 0.143823
360.90 0.1465867
361.00 0.1497415
361.10 0.1527982
361.20 0.1554866
361.30 0.1577355
361.40 0.1595369
361.50 0.1608738
361.60 0.1617886
361.70 0.1624564
361.80 0.1631054
361.90 0.1638339
362.00 0.1645401
362.10 0.1650569
362.20 0.1653139
362.30 0.1653641
362.40 0.16531
362.50 0.1652357
362.60 0.1651628
362.70 0.1650056
362.80 0.1645948
362.90 0.1638321
363.00 0.16285
363.10 0.1619763
363.20 0.161508
363.30 0.161517
363.40 0.1618517
363.50 0.1622784
363.60 0.1626078
363.70 0.1627241
363.80 0.162548
363.90 0.1620024
364.00 0.1610177
364.10 0.1595738
364.20 0.1577532
364.30 0.1557576
364.40 0.1538701
364.50 0.15239
364.60 0.1515522
364.70 0.1514406
364.80 0.1519619
364.90 0.1529333
365.00 0.1542277
365.10 0.1558365
365.20 0.1577569
365.30 0.1598152
365.40 0.1616409
365.50 0.1628618
365.60 0.1633563
365.70 0.163327
365.80 0.1631198
365.90 0.1629792
366.00 0.1629642
366.10 0.1630486
366.20 0.1632438
366.30 0.1635814
366.40 0.1640056
366.50 0.1643338
366.60 0.164334
366.70 0.1638525
366.80 0.1628928
366.90 0.1616053
367.00 0.160234
367.10 0.159055
367.20 0.1583179
367.30 0.1581907
367.40 0.1587063
367.50 0.1597512
367.60 0.1611196
367.70 0.1626008
367.80 0.1640454
367.90 0.1653742
368.00 0.1665451
368.10 0.167514
368.20 0.1682197
368.30 0.1686021
368.40 0.168644
368.50 0.1684147
368.60 0.1680812
368.70 0.1678558
368.80 0.167896
368.90 0.168233
369.00 0.1687897
369.10 0.1694675
369.20 0.1701983
369.30 0.1709113
369.40 0.1714862
369.50 0.1717888
369.60 0.1717868
369.70 0.1716269
369.80 0.1715888
369.90 0.1719493
370.00 0.1728532
370.10 0.1742572
370.20 0.1759661
370.30 0.1777212
370.40 0.1792819
370.50 0.1804749
370.60 0.1812176
370.70 0.1815433
370.80 0.1815891
370.90 0.1815155
371.00 0.1813889
371.10 0.1811125
371.20 0.1804663
371.30 0.1792304
371.40 0.1773276
371.50 0.1749118
371.60 0.1723418
371.70 0.1700362
371.80 0.1683023
371.90 0.1672295
372.00 0.1666844
372.10 0.1663526
372.20 0.1657832
372.30 0.1645107
372.40 0.1622805
372.50 0.1592802
372.60 0.1561739
372.70 0.1538517
372.80 0.1530406
372.90 0.1540099
373.00 0.1565103
373.10 0.1599082
373.20 0.1633964
373.30 0.166196
373.40 0.1677229
373.50 0.1676823
373.60 0.1660789
373.70 0.1631733
373.80 0.1594267
373.90 0.1554633
374.00 0.1520015
374.10 0.1497354
374.20 0.1491988
374.30 0.150671
374.40 0.1541511
374.50 0.1593599
374.60 0.1657441
374.70 0.172506
374.80 0.1787055
374.90 0.1834544
375.00 0.186139
375.10 0.1865631
375.20 0.1849467
375.30 0.1818131
375.40 0.1778362
375.50 0.1736994
375.60 0.169959
375.70 0.16695
375.80 0.1647833
375.90 0.163442
376.00 0.1629316
376.10 0.1633995
376.20 0.165154
376.30 0.1685677
376.40 0.1739006
376.50 0.1811485
376.60 0.1899992
376.70 0.199852
376.80 0.2098325
376.90 0.2188215
377.00 0.2256027
377.10 0.2291767
377.20 0.2290882
377.30 0.2255496
377.40 0.2193028
377.50 0.2113465
377.60 0.2026935
377.70 0.1942233
377.80 0.1865869
377.90 0.1801513
378.00 0.1750105
378.10 0.1710763
378.20 0.1681997
378.30 0.1662428
378.40 0.1651011
378.50 0.1647325
378.60 0.1652006
378.70 0.1666896
378.80 0.1694621
378.90 0.1737964
379.00 0.1799545
379.10 0.1881288
379.20 0.1983027
379.30 0.2100799
379.40 0.2226074
379.50 0.2346736
379.60 0.2449235
379.70 0.2521024
379.80 0.2553082
379.90 0.2542109
380.00 0.2491592
380.10 0.2410809
380.20 0.2312021
380.30 0.2207199
380.40 0.2105773
380.50 0.2013847
380.60 0.1934387
380.70 0.1867769
380.80 0.1812519
380.90 0.1766528
381.00 0.1728243
381.10 0.1697014
381.20 0.1672473
381.30 0.1653772
381.40 0.1639683
381.50 0.1629442
381.60 0.1646445
381.70 0.1718857
381.80 0.1861104
381.90 0.2089684
382.00 0.243773
382.10 0.2893945
382.20 0.3277214
382.30 0.3932609
382.40 0.4870398
382.50 0.5866512
382.60 0.683417
382.70 0.770083
382.80 0.8463081
382.90 0.9162595
383.00 1.072997
383.10 1.304826
383.20 1.431824
383.30 1.432609
383.40 1.315769
383.50 1.12661
383.60 0.9340491
383.70 0.7907936
383.80 0.6907071
383.90 0.5883561
384.00 0.4689307
384.10 0.3626605
384.20 0.2963997
384.30 0.2530117
384.40 0.2213861
384.50 0.2717275
384.60 0.3809692
384.70 0.6166837
384.80 0.8365072
384.90 0.9135532
385.00 0.790078
385.10 0.5231245
385.20 0.2641507
385.30 0.1679339
385.40 0.2790275
385.50 0.5024175
385.60 0.6942518
385.70 0.7709298
385.80 0.7310248
385.90 0.6160539
386.00 0.4858855
386.10 0.4012864
386.20 0.3998692
386.30 0.4702591
386.40 0.5707581
386.50 0.6721523
386.60 0.7662456
386.70 0.8497255
386.80 0.9110827
386.90 0.9483234
387.00 0.9747241
387.10 0.9949545
387.20 0.9930655
387.30 0.955667
387.40 0.8966526
387.50 0.8336
387.60 0.7547692
387.70 0.6415879
387.80 0.5343572
387.90 0.5105238
388.00 0.5874794
388.10 0.6921453
388.20 0.7369112
388.30 0.716981
388.40 0.6911513
388.50 0.7024138
388.60 0.743769
388.70 0.7867522
388.80 0.8093799
388.90 0.7958992
389.00 0.7346373
389.10 0.6188797
389.20 0.4508681
389.30 0.2454257
389.40 0.08347224
389.50 0
389.60 0
389.70 0
389.80 0.06849
389.90 0.08005716
390.00 0.0300651
390.10 0.06414493
390.20 0.09812695
390.30 0.1569948
390.40 0.2878354
390.50 0.3428203
390.60 0.3722802
390.70 0.4750395
390.80 0.6745588
390.90 0.8826539
391.00 0.9798063
391.10 0.9032073
391.20 0.6794827
391.30 0.5920488
391.40 0.5178746
391.50 0.4312414
391.60 0.3362118
391.70 0.2324186
391.80 0.1204203
391.90 3.300935e-05
392.00 0
392.10 0
392.20 0
392.30 0.01979988
392.40 0.02482478
392.50 0
392.60 0
392.70 0
392.80 0
392.90 0
393.00 0.09670902
393.10 0.3412934
393.20 0.6246572
393.30 0.8866609
393.40 0.9784519
393.50 0.8299189
393.60 0.5208299
393.70 0.2330346
393.80 0.09149643
393.90 0.07630117
394.00 0.07972622
394.10 0.06453782
394.20 0
394.30 0.001944484
394.40 0.0005175231
394.50 0
394.60 0
394.70 0.06134065
394.80 0.08598538
394.90 0.1258559
395.00 0.1403948
395.10 0.1278545
395.20 0.09279795
395.30 0.04431134
395.40 0
395.50 0.08525823
395.60 0.28331
395.70 0.3479901
395.80 0.2971319
395.90 0.1979128
396.00 0.1990865
396.10 0.3062652
396.20 0.4071057
396.30 0.4959464
396.40 0.5695183
396.50 0.6905395
396.60 0.8828392
396.70 1.090777
396.80 1.249588
396.90 1.288067
397.00 1.180054
397.10 0.9479071
397.20 0.6348537
397.30 0.401424
397.40 0.2167719
397.50 0.07152806
397.60 0.01851805
397.70 0.05886674
397.80 0.1395961
397.90 0.2044006
398.00 0.2435408
398.10 0.2871275
398.20 0.3498918
398.30 0.3969313
398.40 0.3739413
398.50 0.2639334
398.60 0.1101471
398.70 0
398.80 0
398.90 0
399.00 0
399.10 0
399.20 0
399.30 0
399.40 0
399.50 0
399.60 0.1049785
399.70 0.1972161
399.80 0.2350149
399.90 0.252864
400.00 0.2879298
400.10 0.3518687
400.20 0.4212326
400.30 0.4611869
400.40 0.4611916
400.50 0.4549243
400.60 0.4790389
400.70 0.4707891
400.80 0.4238629
400.90 0.3791463
401.00 0.2883758
401.10 0.1407901
401.20 0.004712476
401.30 0
401.40 0
401.50 0
401.60 0
401.70 0.05749235
401.80 0.2468895
401.90 0.372899
402.00 0.4344416
402.10 0.4591637
402.20 0.4786505
402.30 0.4972197
402.40 0.4930529
402.50 0.4596151
402.60 0.4309207
402.70 0.4439784
402.80 0.4951736
402.90 0.5558977
403.00 0.6109892
403.10 0.6685855
403.20 0.7257628
403.30 0.7515961
403.40 0.7165844
403.50 0.6269177
403.60 0.5245972
403.70 0.4738627
403.80 0.4748028
403.90 0.4930654
404.00 0.5196056
404.10 0.5491793
404.20 0.6021635
404.30 0.6841017
404.40 0.7727298
404.50 0.8348558
404.60 0.8426442
404.70 0.7764139
404.80 0.6420112
404.90 0.4862813
405.00 0.3671993
405.10 0.3040957
405.20 0.2663424
405.30 0.2201168
405.40 0.168924
405.50 0.1284804
405.60 0.1145429
405.70 0.1178603
405.80 0.0776613
405.90 0.03953671
406.00 0.04949749
406.10 0.1030292
406.20 0.157705
406.30 0.1861536
406.40 0.1971273
406.50 0.2659629
406.60 0.3695053
406.70 0.4517173
406.80 0.4977027
406.90 0.4917316
407.00 0.4256229
407.10 0.318163
407.20 0.2582026
407.30 0.2408886
407.40 0.2190826
407.50 0.2410566
407.60 0.2485813
407.70 0.2300446
407.80 0.2023691
407.90 0.1676729
408.00 0.118029
408.10 0.05945649
408.20 0.02235302
408.30 0.007791603
408.40 0.01126773
408.50 0.02998051
408.60 0.05995457
408.70 0.08674106
408.80 0.09360317
408.90 0.08202366
409.00 0.0715589
409.10 0.1165417
409.20 0.2315847
409.30 0.371931
409.40 0.4611383
409.50 0.4792264
409.60 0.4815129
409.70 0.5366485
409.80 0.6592546
409.90 0.8085011
410.00 0.9277662
410.10 0.9732967
410.20 0.9209221
410.30 0.7699614
410.40 0.5488844
410.50 0.3084141
410.60 0.1016551
410.70 0.05284165
410.80 0.02514453
410.90 0.01769524
411.00 0.0268928
411.10 0.04344441
411.20 0.05787273
411.30 0.0644069
411.40 0.05882978
411.50 0.03826228
411.60 0.1275576
411.70 0.3113097
411.80 0.4525443
411.90 0.4937303
412.00 0.45827
412.10 0.4012778
412.20 0.3888616
412.30 0.3973255
412.40 0.4093715
412.50 0.404732
412.60 0.3742977
412.70 0.3232155
412.80 0.2650439
412.90 0.2121795
413.00 0.1746044
413.10 0.1608863
413.20 0.1715984
413.30 0.2016442
413.40 0.2463576
413.50 0.3007891
413.60 0.356461
413.70 0.403518
413.80 0.4326638
413.90 0.4309922
414.00 0.3811308
414.10 0.2708689
414.20 0.2208111
414.30 0.1658682
414.40 0.106834
414.50 0.04750819
414.60 0
414.70 0
414.80 0.03878762
414.90 0.08308546
415.00 0.03266405
415.10 0
415.20 0
415.30 0
415.40 0
415.50 0
415.60 0
415.70 0
415.80 0
415.90 0
416.00 0.004510293
416.10 0.05935575
416.20 0.1100077
416.30 0.1273437
416.40 0.08802024
416.50 0.0004394213
416.60 0
416.70 0
416.80 0
416.90 0.004082008
417.00 0.06806229
417.10 0.1960305
417.20 0.2604259
417.30 0.284288
417.40 0.3094811
417.50 0.3334523
417.60 0.3156537
417.70 0.2380277
417.80 0.1324945
417.90 0.1030566
418.00 0.06844425
418.10 0.02834503
418.20 0
418.30 0
418.40 0
418.50 0.0124035
418.60 0.1548762
418.70 0.3002621
418.80 0.4228247
418.90 0.5090712
419.00 0.5639973
419.10 0.5920847
419.20 0.5833124
419.30 0.525931
419.40 0.427219
419.50 0.3092213
419.60 0.1972923
419.70 0.1161837
419.80 0.1039148
419.90 0.1370636
420.00 0.1773683
420.10 0.1791748
420.20 0.1220838
420.30 0.06245093
420.40 0.01583248
420.50 0
420.60 0
420.70 0
420.80 0.01893231
420.90 0.04738545
421.00 0.04323471
421.10 0.03426594
421.20 0.06284505
421.30 0.145845
421.40 0.3151746
421.50 0.4526829
421.60 0.5310381
421.70 0.5551754
421.80 0.5430916
421.90 0.505817
422.00 0.4495863
422.10 0.3872942
422.20 0.3369669
422.30 0.3014967
422.40 0.2538014
422.50 0.1649707
422.60 0.05376595
422.70 0.04054113
422.80 0.02463941
422.90 0.01137481
423.00 0.008053653
423.10 0.02173101
423.20 0.05707854
423.30 0.1139648
423.40 0.1852528
423.50 0.317438
423.60 0.5097666
423.70 0.6386465
423.80 0.6810535
423.90 0.6447868
424.00 0.5503666
424.10 0.4229727
424.20 0.2875597
424.30 0.1591432
424.40 0.08132182
424.50 0.04511218
424.60 0.02671562
424.70 0.02728521
424.80 0.1028878
424.90 0.2129267
425.00 0.3185342
425.10 0.3948317
425.20 0.4245926
425.30 0.4105824
425.40 0.3725564
425.50 0.3387884
425.60 0.3316227
425.70 0.3563804
425.80 0.3962723
425.90 0.4193942
426.00 0.4069139
426.10 0.370269
426.20 0.3330319
426.30 0.3096893
426.40 0.3090196
426.50 0.3333066
426.60 0.3617527
426.70 0.3458943
426.80 0.2495201
426.90 0.1429504
427.00 0.1256576
427.10 0.1036804
427.20 0.07634652
427.30 0.043045
427.40 0.005199006
427.50 0
427.60 0
427.70 0
427.80 0.01747777
427.90 0.02437843
428.00 0.007194251
428.10 0
428.20 0
428.30 0
428.40 0.03657055
428.50 0.1013242
428.60 0.1678699
428.70 0.2303324
428.80 0.2834185
428.90 0.3262326
429.00 0.3619709
429.10 0.4438306
429.20 0.5278082
429.30 0.5804584
429.40 0.6064631
429.50 0.6102017
429.60 0.5944021
429.70 0.552348
429.80 0.4766571
429.90 0.3856041
430.00 0.3234105
430.10 0.3166627
430.20 0.339394
430.30 0.3420448
430.40 0.3125292
430.50 0.2900108
430.60 0.3088358
430.70 0.3585514
430.80 0.4132665
430.90 0.4682366
431.00 0.5344792
431.10 0.6159191
431.20 0.7016535
431.30 0.773626
431.40 0.8135433
431.50 0.8066042
431.60 0.7736854
431.70 0.729759
431.80 0.6671167
431.90 0.5954606
432.00 0.5322903
432.10 0.5155075
432.20 0.5123283
432.30 0.5176517
432.40 0.5155611
432.50 0.4815062
432.60 0.4010684
432.70 0.2941742
432.80 0.2080715
432.90 0.1724544
433.00 0.1652652
433.10 0.1387958
433.20 0.1180428
433.30 0.1358436
433.40 0.1622179
433.50 0.1937743
433.60 0.2257345
433.70 0.2635171
433.80 0.4129311
433.90 0.5917172
434.00 0.772965
434.10 0.8985743
434.20 0.9116056
434.30 0.8063895
434.40 0.6428721
434.50 0.501839
434.60 0.4265131
434.70 0.4041319
434.80 0.3917539
434.90 0.3543986
435.00 0.284542
435.10 0.1975255
435.20 0.1148874
435.30 0.05032286
435.40 0.01853488
435.50 0.0505469
435.60 0.1102808
435.70 0.198
435.80 0.2766294
435.90 0.2796756
436.00 0.1763907
436.10 0.03818862
436.20 0.04020425
436.30 0.09062809
436.40 0.1878051
436.50 0.2963332
436.60 0.3392198
436.70 0.3485198
436.80 0.3798874
436.90 0.4464122
437.00 0.5062236
437.10 0.5087649
437.20 0.4367501
437.30 0.3111469
437.40 0.1725642
437.50 0.05621106
437.60 0
437.70 0
437.80 0
437.90 0.02533428
438.00 0.07539524
438.10 0.1366428
438.20 0.1586732
438.30 0.1493634
438.40 0.151612
438.50 0.1722973
438.60 0.177001
438.70 0.1723852
438.80 0.19187
438.90 0.2308833
439.00 0.2646539
439.10 0.2522525
439.20 0.186816
439.30 0.1051635
439.40 0.04556612
439.50 0.0206543
439.60 0.01679422
439.70 0.01437035
439.80 0.01346449
439.90 0.06756709
440.00 0.1363816
440.10 0.1586938
440.20 0.1161643
440.30 0.03485585
440.40 0.01398368
440.50 0
440.60 0
440.70 0
440.80 0
440.90 0.06368092
441.00 0.1616362
441.10 0.239481
441.20 0.2743724
441.30 0.2651111
441.40 0.2352051
441.50 0.2128426
441.60 0.2097777
441.70 0.2162183
441.80 0.2110028
441.90 0.1806458
442.00 0.1335218
442.10 0.09565911
442.20 0.09012469
442.30 0.1179178
442.40 0.1540851
442.50 0.1665687
442.60 0.1433601
442.70 0.1023815
442.80 0.07710243
442.90 0.08773073
443.00 0.1219856
443.10 0.1453073
443.20 0.1297307
443.30 0.07459649
443.40 0.003324171
443.50 0
443.60 0.05033587
443.70 0.09953053
443.80 0.2111544
443.90 0.3120533
444.00 0.3646353
444.10 0.3626029
444.20 0.3302029
444.30 0.2885871
444.40 0.2323152
444.50 0.1805582
444.60 0.1302838
444.70 0.0704525
444.80 0.03669329
444.90 0.04792425
445.00 0.09856245
445.10 0.1753119
445.20 0.267749
445.30 0.3532427
445.40 0.3900804
445.50 0.3537432
445.60 0.3353857
445.70 0.3039343
445.80 0.2998905
445.90 0.3160866
446.00 0.325225
446.10 0.327305
446.20 0.3510088
446.30 0.4140465
446.40 0.4970581
446.50 0.5541652
446.60 0.5433825
446.70 0.4578585
446.80 0.3380281
446.90 0.2456577
447.00 0.2137842
447.10 0.2229995
447.20 0.2340379
447.30 0.2355901
447.40 0.2453724
447.50 0.2765507
447.60 0.3175621
447.70 0.3396967
447.80 0.3236976
447.90 0.2776098
448.00 0.2855762
448.10 0.272706
448.20 0.2610246
448.30 0.308567
448.40 0.3334447
448.50 0.3285896
448.60 0.3166984
448.70 0.321854
448.80 0.34378
448.90 0.3656366
449.00 0.3819034
449.10 0.4062676
449.20 0.4529401
449.30 0.5158887
449.40 0.5712206
449.50 0.6026972
449.60 0.61718
449.70 0.630773
449.80 0.6508573
449.90 0.670683
450.00 0.6774824
450.10 0.6644432
450.20 0.6356098
450.30 0.6072312
450.40 0.5984664
450.50 0.6154185
450.60 0.6446536
450.70 0.6656704
450.80 0.6688338
450.90 0.660833
451.00 0.6508599
451.10 0.6372032
451.20 0.6143351
451.30 0.581396
451.40 0.5418493
451.50 0.4982411
451.60 0.4523437
451.70 0.4132466
451.80 0.4001789
451.90 0.4308666
452.00 0.5033572
452.10 0.5931968
452.20 0.6701113
452.30 0.7197485
452.40 0.7482275
452.50 0.7671793
452.60 0.7767452
452.70 0.7619575
452.80 0.7039193
452.90 0.6011556
453.00 0.4831283
453.10 0.3938207
453.20 0.3578183
453.30 0.3616382
453.40 0.3686544
453.50 0.3481623
453.60 0.2926719
453.70 0.2199821
453.80 0.1646205
453.90 0.1534126
454.00 0.1850417
454.10 0.2365535
454.20 0.2840369
454.30 0.3202418
454.40 0.3556021
454.50 0.3967619
454.60 0.4274191
454.70 0.4204267
454.80 0.365786
454.90 0.2855993
455.00 0.2208883
455.10 0.2089859
455.20 0.2750342
455.30 0.4152916
455.40 0.57947
455.50 0.6969696
455.60 0.7366773
455.70 0.7284279
455.80 0.7180852
455.90 0.7202034
456.00 0.7229129
456.10 0.717542
456.20 0.7076715
456.30 0.6990791
456.40 0.692729
456.50 0.6895622
456.60 0.6923052
456.70 0.7014312
456.80 0.7124904
456.90 0.7183888
457.00 0.7171753
457.10 0.7148131
457.20 0.7212175
457.30 0.7478228
457.40 0.803976
457.50 0.8835341
457.60 0.9576392
457.70 0.9944051
457.80 0.994392
457.90 0.9921686
458.00 1.015192
458.10 1.059198
458.20 1.099896
458.30 1.112246
458.40 1.077915
458.50 0.9874848
458.60 0.8506895
458.70 0.6994826
458.80 0.5710568
458.90 0.4871361
459.00 0.4424204
459.10 0.4065933
459.20 0.3520291
459.30 0.2881211
459.40 0.2555992
459.50 0.2792031
459.60 0.3353188
459.70 0.3792983
459.80 0.3920128
459.90 0.3871454
460.00 0.382119
460.10 0.3771372
460.20 0.364826
460.30 0.344758
460.40 0.3240839
460.50 0.3118953
460.60 0.3158331
460.70 0.3385791
460.80 0.377071
460.90 0.4326229
461.00 0.5180646
461.10 0.6378149
461.20 0.761093
461.30 0.8378687
461.40 0.8494482
461.50 0.8283651
461.60 0.8165352
461.70 0.8175717
461.80 0.809116
461.90 0.7846124
462.00 0.761953
462.10 0.758429
462.20 0.7765098
462.30 0.8132729
462.40 0.8627155
462.50 0.9051667
462.60 0.9084201
462.70 0.8503042
462.80 0.7374478
462.90 0.6020929
463.00 0.4853903
463.10 0.4225043
463.20 0.425121
463.30 0.4685991
463.40 0.5125089
463.50 0.5387357
463.60 0.5618208
463.70 0.5977267
463.80 0.6382076
463.90 0.6643255
464.00 0.6716608
464.10 0.6755136
464.20 0.6930037
464.30 0.7250347
464.40 0.7569399
464.50 0.7733835
464.60 0.7725638
464.70 0.7685302
464.80 0.7742608
464.90 0.7826104
465.00 0.7725913
465.10 0.7320915
465.20 0.6714777
465.30 0.614903
465.40 0.5813486
465.50 0.5777994
465.60 0.6063301
465.70 0.6678799
465.80 0.7547372
465.90 0.8478973
466.00 0.9233743
466.10 0.9619072
466.20 0.9603966
466.30 0.9371587
466.40 0.919248
466.50 0.9194629
466.60 0.9260255
466.70 0.9148734
466.80 0.8657
466.90 0.7663339
467.00 0.6234079
467.10 0.4758176
467.20 0.3786445
467.30 0.3579709
467.40 0.3875017
467.50 0.4166728
467.60 0.4154113
467.70 0.3857288
467.80 0.3460965
467.90 0.3190546
468.00 0.3247118
468.10 0.3711264
468.20 0.447762
468.30 0.5357507
468.40 0.6236199
468.50 0.7099933
468.60 0.7927091
468.70 0.8620766
468.80 0.9090219
468.90 0.9339808
469.00 0.9415879
469.10 0.9324931
469.20 0.9103134
469.30 0.8943196
469.40 0.9041008
469.50 0.9277815
469.60 0.9248939
469.70 0.8749552
469.80 0.8060823
469.90 0.7565243
470.00 0.7253902
470.10 0.683864
470.20 0.6274245
470.30 0.5837861
470.40 0.5716363
470.50 0.5724756
470.60 0.5512959
470.70 0.4984822
470.80 0.4410103
470.90 0.4187368
471.00 0.4531772
471.10 0.5340461
471.20 0.6253329
471.30 0.6860749
471.40 0.6965681
471.50 0.6708699
471.60 0.6432114
471.70 0.6318343
471.80 0.6201145
471.90 0.5789363
472.00 0.5043736
472.10 0.4285664
472.20 0.395302
472.30 0.4286036
472.40 0.5146288
472.50 0.6108218
472.60 0.679834
472.70 0.7200217
472.80 0.7590292
472.90 0.8139701
473.00 0.8661877
473.10 0.8829042
473.20 0.8540327
473.30 0.7973334
473.40 0.7345448
473.50 0.6759815
473.60 0.6301339
473.70 0.6152077
473.80 0.6502921
473.90 0.734985
474.00 0.8398773
474.10 0.9208197
474.20 0.9481538
474.30 0.9256771
474.40 0.881835
474.50 0.8414074
474.60 0.8057328
474.70 0.7597606
474.80 0.6929322
474.90 0.613012
475.00 0.5440614
475.10 0.5121256
475.20 0.5344306
475.30 0.6106795
475.40 0.7157749
475.50 0.8048005
475.60 0.8330005
475.70 0.7810183
475.80 0.667101
475.90 0.5306389
476.00 0.3977851
476.10 0.2655321
476.20 0.1210865
476.30 0
476.40 0
476.50 0
476.60 0
476.70 0.04628132
476.80 0.1911474
476.90 0.3125695
477.00 0.3912485
477.10 0.4374982
477.20 0.4736203
477.30 0.5069583
477.40 0.5260436
477.50 0.5204312
477.60 0.4937749
477.70 0.4564352
477.80 0.4127808
477.90 0.3667389
478.00 0.3354658
478.10 0.3403852
478.20 0.3809665
478.30 0.4242092
478.40 0.4316561
478.50 0.4016366
478.60 0.3729987
478.70 0.3782818
478.80 0.4070399
478.90 0.4225468
479.00 0.4103361
479.10 0.4001368
479.20 0.4353457
479.30 0.5290082
479.40 0.6527209
479.50 0.7626418
479.60 0.8321922
479.70 0.8628622
479.80 0.8720969
479.90 0.8728262
480.00 0.8592849
480.10 0.8126695
480.20 0.7225718
480.30 0.5997344
480.40 0.467152
480.50 0.3467476
480.60 0.2583284
480.70 0.2238606
480.80 0.2583071
480.90 0.3555703
481.00 0.4872136
481.10 0.6159445
481.20 0.7181093
481.30 0.7940587
481.40 0.854243
481.50 0.8959259
481.60 0.9023023
481.70 0.8673612
481.80 0.8126563
481.90 0.7714918
482.00 0.7566045
482.10 0.7527161
482.20 0.7379812
482.30 0.7039096
482.40 0.6569324
482.50 0.6101309
482.60 0.5787652
482.70 0.5737047
482.80 0.5883261
482.90 0.5981412
483.00 0.5886844
483.10 0.5736444
483.20 0.5721529
483.30 0.580883
483.40 0.5852487
483.50 0.5909957
483.60 0.6185749
483.70 0.6692983
483.80 0.7192588
483.90 0.7497819
484.00 0.7674643
484.10 0.7910018
484.20 0.8297277
484.30 0.8754937
484.40 0.9067009
484.50 0.8997503
484.60 0.8481682
484.70 0.7760846
484.80 0.7242279
484.90 0.714224
485.00 0.7258624
485.10 0.7146557
485.20 0.6555753
485.30 0.5686828
485.40 0.4979296
485.50 0.4647443
485.60 0.4572873
485.70 0.4740489
485.80 0.562668
485.90 0.7887737
486.00 1.152347
486.10 1.539844
486.20 1.778947
486.30 1.757278
486.40 1.500593
486.50 1.147964
486.60 0.851194
486.70 0.6845774
486.80 0.6280489
486.90 0.6146135
487.00 0.5903541
487.10 0.5459375
487.20 0.5088443
487.30 0.5145681
487.40 0.5775731
487.50 0.678775
487.60 0.7792227
487.70 0.8439952
487.80 0.8578895
487.90 0.8251139
488.00 0.7616538
488.10 0.6914426
488.20 0.6416269
488.30 0.6314227
488.40 0.6593629
488.50 0.7041011
488.60 0.7372088
488.70 0.7378602
488.80 0.7010704
488.90 0.638278
489.00 0.5733506
489.10 0.535962
489.20 0.5478773
489.30 0.6024819
489.40 0.6613138
489.50 0.6841362
489.60 0.6672965
489.70 0.6412181
489.80 0.6314252
489.90 0.6389673
490.00 0.656607
490.10 0.6819477
490.20 0.7053872
490.30 0.7040978
490.40 0.6685459
490.50 0.626085
490.60 0.6169051
490.70 0.6499291
490.80 0.6971699
490.90 0.7299341
491.00 0.7477354
491.10 0.7654308
491.20 0.784619
491.30 0.7923919
491.40 0.7826038
491.50 0.764564
491.60 0.7543936
491.70 0.7665391
491.80 0.8105733
491.90 0.8871331
492.00 0.9822917
492.10 1.074108
492.20 1.151906
492.30 1.222298
492.40 1.292178
492.50 1.349612
492.60 1.369477
492.70 1.345735
492.80 1.309033
492.90 1.301135
493.00 1.335104
493.10 1.388045
493.20 1.433256
493.30 1.466496
493.40 1.495091
493.50 1.516653
493.60 1.519972
493.70 1.498331
493.80 1.454192
493.90 1.392189
494.00 1.318428
494.10 1.248152
494.20 1.201468
494.30 1.191374
494.40 1.220532
494.50 1.284611
494.60 1.373161
494.70 1.469328
494.80 1.554385
494.90 1.615985
495.00 1.648999
495.10 1.653467
495.20 1.635318
495.30 1.598139
495.40 1.529405
495.50 1.40414
495.60 1.21286
495.70 0.9827623
495.80 0.7581252
495.90 0.5627779
496.00 0.3971627
496.10 0.2650252
496.20 0.1834849
496.30 0.1660588
496.40 0.2050529
496.50 0.2738244
496.60 0.3405372
496.70 0.3822063
496.80 0.3992387
496.90 0.4142883
497.00 0.440382
497.10 0.4532781
497.20 0.4132187
497.30 0.3168158
497.40 0.2130853
497.50 0.1628816
497.60 0.1960457
497.70 0.3068552
497.80 0.4682152
497.90 0.6341908
498.00 0.7465563
498.10 0.7705766
498.20 0.7331199
498.30 0.7068045
498.40 0.7475113
498.50 0.8508925
498.60 0.9641342
498.70 1.032921
498.80 1.037377
498.90 0.9960322
499.00 0.9432881
499.10 0.8996189
499.20 0.8616111
499.30 0.818367
499.40 0.7699681
499.50 0.7282992
499.60 0.7019652
499.70 0.6811684
499.80 0.6391881
499.90 0.5538387
500.00 1
500.10 0.9879817
500.20 0.662702
500.30 0.3377436
500.40 0.9186525
500.50 1.05901
500.60 0.6276241
500.70 0.7320576
500.80 0.7495689
500.90 0.231336
501.00 0.2369219
501.10 0.4637433
501.20 0.9442888
501.30 0.4444813
501.40 0.7262756
501.50 1.661211
501.60 0.7701421
501.70 0.1748534
501.80 0.6338515
501.90 0.9967586
502.00 1.313065
502.10 0.7094309
502.20 0.1807852
502.30 0.4995668
502.40 0.5405946
502.50 0.4164944
502.60 0.9716014
502.70 1.081795
502.80 1.061595
502.90 0.8340169
503.00 0.7721294
503.10 0.6461558
503.20 0.8353556
503.30 1.257207
503.40 1.326749
503.50 1.291153
503.60 1.209804
503.70 0.9818184
503.80 0.8661109
503.90 0.9987214
504.00 1.093269
504.10 1.073804
504.20 0.6905801
504.30 0.6237504
504.40 0.8224336
504.50 0.978526
504.60 1.009482
504.70 1.11277
504.80 1.508595
504.90 0.7031664
505.00 0.4360514
505.10 0.288092
505.20 0.6426067
505.30 1.417457
505.40 0.9014038
505.50 0
505.60 0.5347769
505.70 1.292588
505.80 1.357959
505.90 0.789311
506.00 0.647641
506.10 0.6558129
506.20 0.135329
506.30 0.6868919
506.40 1.101546
506.50 0.8032233
506.60 0.8690222
506.70 0.9105693
506.80 0.5600696
506.90 0.4412558
507.00 1.223246
507.10 1.655647
507.20 1.292609
507.30 0.4481781
507.40 0.9082945
507.50 1.952131
507.60 2.059689
507.70 1.530826
507.80 1.38791
507.90 1.234669
508.00 1.204879
508.10 1.633243
508.20 1.964424
508.30 1.305247
508.40 0.5748387
508.50 0.7059387
508.60 1.191738
508.70 1.347967
508.80 1.419088
508.90 1.586302
509.00 1.594742
509.10 0.753147
509.20 0.8275931
509.30 1.267837
509.40 1.258621
509.50 1.227377
509.60 1.947512
509.70 1.493395
509.80 1.340522
509.90 1.895432
510.00 2.055894
510.10 1.138206
510.20 0.2449845
510.30 0.4736432
510.40 0.6559993
510.50 1.222346
510.60 1.130223
510.70 1.096954
510.80 0.9483789
510.90 0.7841977
511.00 0.5815712
511.10 0.7834148
511.20 1.368631
511.30 1.37354
511.40 1.522696
511.50 1.606385
511.60 1.6957
511.70 1.61393
511.80 0.7989083
511.90 0.8119387
512.00 1.349568
512.10 1.675974
512.20 1.828137
512.30 1.915344
512.40 1.669923
512.50 0.7091477
512.60 1.054072
512.70 1.376837
512.80 1.177038
512.90 0.5405683
513.00 0.6247033
513.10 1.4432
513.20 1.502007
513.30 1.395021
513.40 1.355642
513.50 1.242335
513.60 1.773294
513.70 1.785986
513.80 1.558986
513.90 1.126112
514.00 1.686
514.10 1.692757
514.20 1.116301
514.30 0.7847574
514.40 1.5935
514.50 1.773697
514.60 1.400566
514.70 1.01906
514.80 1.178005
514.90 0.9627985
515.00 0.9712878
515.10 1.071828
515.20 1.541094
515.30 1.356895
515.40 0.6607421
515.50 1.233054
515.60 1.654464
515.70 1.666304
515.80 1.63107
515.90 1.8
516.00 2.248681
516.10 2.21253
516.20 2.082716
516.30 2.215531
516.40 2.568026
516.50 2.315764
516.60 1.77252
516.70 1.220445
516.80 1.052815
516.90 0.5360128
517.00 0
517.10 0
517.20 0.309343
517.30 0.6014143
517.40 0.4262059
517.50 0.7952387
517.60 0.5614332
517.70 0.365851
517.80 0.3497492
517.90 0.2631353
518.00 0.2539588
518.10 0.464212
518.20 0.383047
518.30 0.08181343
518.40 0.585878
518.50 0.9003405
518.60 1.179916
518.70 1.374484
518.80 1.008024
518.90 0.7001862
519.00 0.7578178
519.10 0.7088868
519.20 0.8303818
519.30 0.7280673
519.40 0.6304838
519.50 0.6072243
519.60 0.6986256
519.70 0.8500053
519.80 0.5755152
519.90 0.608816
520.00 1.020734
520.10 0.6040793
520.20 0.4491042
520.30 1.165115
520.40 1.011454
520.50 0.5838066
520.60 1.05409
520.70 0.8128502
520.80 0.9340108
520.90 0.9475905
521.00 0.7745478
521.10 0.5120278
521.20 0.6194442
521.30 0.7497421
521.40 1.528928
521.50 1.412593
521.60 0.7993003
521.70 1.195646
521.80 1.163125
521.90 0.6416189
522.00 0.6895695
522.10 1.399371
522.20 1.64387
522.30 1.340345
522.40 1.618597
522.50 2.065773
522.60 1.483902
522.70 1.343509
522.80 1.785963
522.90 1.835277
523.00 1.422317
523.10 1.12886
523.20 1.378745
523.30 1.575062
523.40 1.008856
523.50 0.6807192
523.60 1.141583
523.70 1.384307
523.80 1.323638
523.90 1.392868
524.00 1.673054
524.10 1.733366
524.20 1.281651
524.30 0.6636712
524.40 0.5450364
524.50 0.7922137
524.60 0.7762801
524.70 1.100513
524.80 0.9873157
524.90 0.3757884
525.00 0.9465261
525.10 1.424268
525.20 1.3322
525.30 1.292289
525.40 1.052364
525.50 1.809968
525.60 1.689897
525.70 1.532581
525.80 1.468302
525.90 1.647931
526.00 1.31554
526.10 1.374564
526.20 1.083609
526.30 1.266602
526.40 1.347081
526.50 1.112247
526.60 0.6940858
526.70 1.042653
526.80 1.803803
526.90 1.347506
527.00 0.9724595
527.10 1.407308
527.20 1.283392
527.30 1.531559
527.40 1.925786
527.50 1.793016
527.60 1.583233
527.70 1.055564
527.80 0.8057118
527.90 1.504816
528.00 2.191878
528.10 1.344955
528.20 1.001164
528.30 1.465669
528.40 1.694891
528.50 1.329818
528.60 1.476216
528.70 1.774315
528.80 1.337616
528.90 1.289742
529.00 1.918027
529.10 2.04412
529.20 2.232409
529.30 2.00357
529.40 1.83367
529.50 1.744161
529.60 1.648312
529.70 1.480899
529.80 1.778242
529.90 1.265444
530.00 1.0199
530.10 1.267792
530.20 2.026801
530.30 2.065019
530.40 1.753143
530.50 1.908781
530.60 1.855509
530.70 1.281892
530.80 1.42383
530.90 1.803313
531.00 1.63481
531.10 1.548673
531.20 1.815242
531.30 1.376876
531.40 1.345837
531.50 1.636828
531.60 1.567131
531.70 1.150292
531.80 1.180858
531.90 1.658294
532.00 1.741259
532.10 2.040912
532.20 2.165938
532.30 1.496197
532.40 0.9653831
532.50 1.121537
532.60 1.597146
532.70 1.653889
532.80 1.206917
532.90 1.83763
533.00 1.467084
533.10 1.308009
533.20 1.655233
533.30 2.237748
533.40 1.767757
533.50 0.9457612
533.60 1.384455
533.70 1.627288
533.80 1.695316
533.90 1.585981
534.00 1.539788
534.10 1.46825
534.20 1.077546
534.30 1.511217
534.40 2.212303
534.50 2.592074
534.60 2.343347
534.70 1.488221
534.80 0.8855144
534.90 1.07536
535.00 1.757809
535.10 1.845103
535.20 1.909976
535.30 2.52569
535.40 2.938104
535.50 2.470921
535.60 1.89902
535.70 1.754116
535.80 1.077481
535.90 1.229616
536.00 1.751579
536.10 1.82834
536.20 1.615577
536.30 1.917423
536.40 1.568132
536.50 1.120561
536.60 1.389225
536.70 1.717127
536.80 1.888372
536.90 1.85133
537.00 1.849255
537.10 1.893025
537.20 1.258855
537.30 1.333965
537.40 1.351295
537.50 1.433647
537.60 1.827499
537.70 2.075137
537.80 1.736812
537.90 1.885551
538.00 2.455444
538.10 2.404501
538.20 1.732568
538.30 1.870207
538.40 2.692206
538.50 2.788176
538.60 2.204248
538.70 2.373774
538.80 2.641953
538.90 2.245721
539.00 1.862689
539.10 2.021062
539.20 2.166186
539.30 1.889804
539.40 1.577229
539.50 1.936507
539.60 2.026185
539.70 1.821079
539.80 1.976771
539.90 2.291527
540.00 2.212707
540.10 2.523544
540.20 2.617725
540.30 2.794003
540.40 2.446609
540.50 2.273818
540.60 2.242113
540.70 2.511401
540.80 2.197068
540.90 1.941396
541.00 1.975124
541.10 1.624702
541.20 1.815728
541.30 1.956515
541.40 1.957061
541.50 1.75536
541.60 1.884732
541.70 1.938516
541.80 2.372879
541.90 2.376938
542.00 1.861458
542.10 1.980322
542.20 2.481867
542.30 2.846049
542.40 2.823605
542.50 2.324366
542.60 2.011115
542.70 2.049705
542.80 2.414476
542.90 2.76712
543.00 2.153402
543.10 2.003991
543.20 1.892334
543.30 2.568365
543.40 2.517859
543.50 2.393062
543.60 2.276381
543.70 2.460788
543.80 2.319862
543.90 2.399543
544.00 2.410421
544.10 2.567285
544.20 3.161423
544.30 3.340081
544.40 2.834452
544.50 2.841166
544.60 3.183697
544.70 2.725865
544.80 2.191476
544.90 1.513564
545.00 0.7417305
545.10 0.2890616
545.20 0.3615219
545.30 0.1051885
545.40 0.1590604
545.50 0.1932037
545.60 0.7281875
545.70 1.683096
545.80 1.4154
545.90 0.710624
546.00 0.9415099
546.10 1.764317
546.20 1.57901
546.30 1.663985
546.40 1.379932
546.50 0.920704
546.60 0.9434665
546.70 1.134888
546.80 1.832106
546.90 1.816885
547.00 1.172846
547.10 0.8245217
547.20 0.5508426
547.30 0.7276129
547.40 0.877813
547.50 1.135009
547.60 1.280127
547.70 1.711204
547.80 1.15475
547.90 0.9719619
548.00 0.9890745
548.10 1.317188
548.20 1.381932
548.30 1.196182
548.40 1.126173
548.50 1.442847
548.60 1.547433
548.70 1.667268
548.80 1.485266
548.90 1.005651
549.00 0.9893198
549.10 1.261081
549.20 1.463588
549.30 1.312457
549.40 0.639587
549.50 0.9738186
549.60 1.217019
549.70 0.987064
549.80 0.7575445
549.90 1.323654
550.00 1.038318
550.10 0.6173843
550.20 0.8569932
550.30 0.7106022
550.40 0.6595752
550.50 0.8852249
550.60 1.204682
550.70 0.5837777
550.80 0.4713963
550.90 0.6577574
551.00 0.4296236
551.10 0.1731977
551.20 0.05486837
551.30 0.1844543
551.40 0.5063978
551.50 0.906113
551.60 1.334446
551.70 0.8835037
551.80 0.2775383
551.90 0
552.00 0.3558978
552.10 0.8680778
552.20 0.2736454
552.30 0.05170123
552.40 0.2346206
552.50 0.3006903
552.60 0.4980407
552.70 0.2235997
552.80 0.2323853
552.90 0.4520609
553.00 0.6015441
553.10 0.5592387
553.20 0.6924616
553.30 0.8394109
553.40 0.8023703
553.50 0.6012552
553.60 0.4235938
553.70 0.2704023
553.80 0.3207698
553.90 0.5525839
554.00 1.004757
554.10 0.873706
554.20 0.2411032
554.30 0.08516588
554.40 0.7675582
554.50 1.031506
554.60 0.6398259
554.70 0.2147615
554.80 0.3575857
554.90 0.6072038
555.00 0.4312526
555.10 0.3649003
555.20 0.1209901
555.30 0.3860725
555.40 0.4364574
555.50 0.3977197
555.60 0.7525644
555.70 1.076753
555.80 0.9556447
555.90 0.6143374
556.00 0.2518692
556.10 0.5601691
556.20 0.86055
556.30 0.756044
556.40 1.044725
556.50 1.005015
556.60 0.8672135
556.70 0.7463861
556.80 1.074668
556.90 1.09337
557.00 1.053816
557.10 1.212944
557.20 1.210217
557.30 1.207678
557.40 1.20773
557.50 1.20773
557.60 1.20773
557.70 1.20773
557.80 1.20773
557.90 1.20773
558.00 1.20773
558.10 1.20773
558.20 1.207769
558.30 1.221677
558.40 1.165827
558.50 0.9799122
558.60 1.371583
558.70 1.78494
558.80 1.6995
558.90 1.321961
559.00 1.639551
559.10 1.942972
559.20 1.798228
559.30 1.299021
559.40 1.5072
559.50 1.887003
559.60 1.389559
559.70 0.7832758
559.80 1.099308
559.90 1.209269
560.00 1.039476
560.10 1.45116
560.20 1.787664
560.30 1.809785
560.40 1.218508
560.50 0.98041
560.60 1.262995
560.70 0.9410614
560.80 0.590084
560.90 1.019404
561.00 1.50682
561.10 1.602367
561.20 1.270928
561.30 1.260654
561.40 1.833396
561.50 1.605
561.60 1.353583
561.70 1.339062
561.80 1.283061
561.90 0.9870208
562.00 0.7652259
562.10 0.8052995
562.20 1.181784
562.30 0.7889297
562.40 1.375312
562.50 1.410078
562.60 1.26008
562.70 1.281654
562.80 1.622857
562.90 1.397507
563.00 1.148646
563.10 0.837483
563.20 0.4281225
563.30 0.7477555
563.40 1.189839
563.50 1.49801
563.60 1.251599
563.70 0.7111087
563.80 0.8175681
563.90 1.157569
564.00 0.7845738
564.10 0.8127626
564.20 0.9901462
564.30 1.122879
564.40 1.025051
564.50 1.164637
564.60 1.686977
564.70 1.414236
564.80 1.389548
564.90 1.661347
565.00 1.706469
565.10 1.531826
565.20 1.02452
565.30 1.342894
565.40 1.877768
565.50 1.620035
565.60 0.8178483
565.70 0.8301643
565.80 1.468625
565.90 1.838196
566.00 1.303183
566.10 1.217189
566.20 1.448462
566.30 1.796424
566.40 1.580013
566.50 0.9141853
566.60 1.094477
566.70 1.54009
566.80 1.399984
566.90 1.472437
567.00 1.648264
567.10 1.879956
567.20 1.765826
567.30 1.64793
567.40 1.1974
567.50 1.300497
567.60 0.9791847
567.70 0.9167824
567.80 1.184311
567.90 1.543071
568.00 1.539074
568.10 0.8684388
568.20 0.7119633
568.30 1.582068
568.40 2.597515
568.50 2.569292
568.60 1.840569
568.70 1.135863
568.80 1.210911
568.90 1.726495
569.00 1.911813
569.10 1.264652
569.20 1.612273
569.30 2.067044
569.40 1.881973
569.50 1.642684
569.60 1.545054
569.70 1.973617
569.80 2.347745
569.90 2.384644
570.00 1.911916
570.10 1.46386
570.20 1.360974
570.30 1.950401
570.40 2.34093
570.50 2.236441
570.60 2.05425
570.70 2.323109
570.80 2.48739
570.90 1.797763
571.00 1.653653
571.10 1.872484
571.20 1.853727
571.30 2.05739
571.40 2.091361
571.50 1.524955
571.60 1.510952
571.70 1.647743
571.80 1.568887
571.90 1.607095
572.00 1.604887
572.10 0.9742618
572.20 0.8646666
572.30 1.465612
572.40 1.844612
572.50 1.779082
572.60 1.644134
572.70 1.624382
572.80 1.65764
572.90 1.728248
573.00 2.145659
573.10 1.936261
573.20 1.880713
573.30 1.846494
573.40 1.721003
573.50 2.023967
573.60 2.267099
573.70 2.028925
573.80 1.518718
573.90 1.33109
574.00 1.510826
574.10 1.71639
574.20 1.810781
574.30 2.14388
574.40 2.634506
574.50 2.236293
574.60 1.607192
574.70 1.611695
574.80 2.404458
574.90 2.194291
575.00 1.760718
575.10 1.786172
575.20 1.856146
575.30 1.583675
575.40 1.726375
575.50 2.341859
575.60 2.162347
575.70 2.189788
575.80 2.143395
575.90 2.255996
576.00 2.149856
576.10 2.047702
576.20 1.986897
576.30 2.184884
576.40 2.496753
576.50 1.914224
576.60 1.272633
576.70 1.218351
576.80 1.618585
576.90 1.467431
577.00 1.523068
577.10 1.676948
577.20 1.82796
577.30 1.449232
577.40 1.421391
577.50 1.822373
577.60 2.020435
577.70 2.052245
577.80 1.705306
577.90 1.802298
578.00 1.805982
578.10 2.088518
578.20 1.909648
578.30 1.355091
578.40 1.347668
578.50 2.060062
578.60 2.145154
578.70 2.054055
578.80 2.221239
578.90 2.298377
579.00 2.153979
579.10 2.162251
579.20 2.279922
579.30 2.162408
579.40 1.6341
579.50 1.590852
579.60 2.021833
579.70 2.484789
579.80 2.460068
579.90 2.425131
580.00 2.388001
580.10 2.020683
580.20 2.045028
580.30 2.485069
580.40 2.096626
580.50 1.806883
580.60 2.320657
580.70 2.67366
580.80 3.144116
580.90 3.156359
581.00 2.822612
581.10 1.898805
581.20 1.966701
581.30 2.096853
581.40 1.942495
581.50 1.601353
581.60 1.517492
581.70 1.376006
581.80 1.866616
581.90 1.96695
582.00 1.809649
582.10 1.812336
582.20 1.787542
582.30 1.811831
582.40 1.722204
582.50 1.851699
582.60 1.96048
582.70 1.766547
582.80 1.742703
582.90 1.963332
583.00 1.954628
583.10 1.811287
583.20 1.479502
583.30 1.028278
583.40 1.616555
583.50 2.042064
583.60 1.738794
583.70 2.196596
583.80 1.802622
583.90 1.662971
584.00 1.692514
584.10 2.328603
584.20 2.265646
584.30 1.691727
584.40 1.965628
584.50 2.255123
584.60 1.763813
584.70 1.399666
584.80 1.249862
584.90 1.540197
585.00 1.685445
585.10 1.568952
585.20 0.8980828
585.30 0.9241811
585.40 1.113058
585.50 1.150541
585.60 1.5485
585.70 1.542284
585.80 1.525532
585.90 1.356387
586.00 1.024217
586.10 0.5425169
586.20 0.724116
586.30 1.284829
586.40 1.700225
586.50 1.572032
586.60 1.410316
586.70 1.558906
586.80 1.313263
586.90 1.17781
587.00 1.322441
587.10 1.575026
587.20 1.493923
587.30 1.348763
587.40 1.312065
587.50 1.263539
587.60 0.9456081
587.70 0.9344329
587.80 0.6638689
587.90 0.5699764
588.00 0.9525611
588.10 0.8621439
588.20 0.7614928
588.30 0.5587137
588.40 0.9371199
588.50 0.7644411
588.60 0.6172482
588.70 0.9282953
588.80 1.204054
588.90 1.500769
589.00 1.625727
589.10 0.9974013
589.20 1.701443
589.30 2.403506
589.40 1.140142
589.50 0.6402941
589.60 0.2244516
589.70 1.928017
589.80 1.608671
589.90 0.4684129
590.00 0.7413001
590.10 0.74532
590.20 0.484869
590.30 0.6699626
590.40 0.723399
590.50 0.7902721
590.60 0.8535141
590.70 0.7792988
590.80 0.5065733
590.90 0.3733336
591.00 0.8287713
591.10 0.8416594
591.20 1.106142
591.30 1.134665
591.40 0.8191469
591.50 0.8357735
591.60 1.288436
591.70 1.326542
591.80 0.5334363
591.90 0.3582174
592.00 0.4763311
592.10 0.7203928
592.20 0.8028259
592.30 0.9056804
592.40 0.8947734
592.50 0.1448687
592.60 0.2334479
592.70 0.8383555
592.80 1.492542
592.90 1.328398
593.00 0.8152766
593.10 0.613917
593.20 0.92425
593.30 0.8483174
593.40 0.7037814
593.50 0.5016338
593.60 0.404054
593.70 0.8686932
593.80 0.9031414
593.90 0.6990959
594.00 0.6214668
594.10 0.9317913
594.20 1.03287
594.30 1.169535
594.40 1.170402
594.50 1.033772
594.60 0.9616672
594.70 1.384377
594.80 1.603059
594.90 1.657282
595.00 1.703026
595.10 1.289044
595.20 1.271921
595.30 1.1657
595.40 0.8797651
595.50 0.5898397
595.60 0.8780257
595.70 1.741372
595.80 1.489683
595.90 1.143878
596.00 1.154012
596.10 1.35606
596.20 1.185799
596.30 0.9148243
596.40 0.8542727
596.50 1.289802
596.60 1.387362
596.70 1.394275
596.80 1.689077
596.90 1.395384
597.00 1.115824
597.10 1.007415
597.20 1.056941
597.30 0.8998009
597.40 0.8597278
597.50 1.094295
597.60 0.6475215
597.70 0.386939
597.80 0.4593466
597.90 0.7852879
598.00 0.8120938
598.10 1.107261
598.20 1.195884
598.30 0.9958064
598.40 1.201858
598.50 1.723473
598.60 1.672612
598.70 1.223802
598.80 1.326571
598.90 1.583828
599.00 1.150667
599.10 1.182982
599.20 1.263487
599.30 1.273409
599.40 1.339213
599.50 1.474617
599.60 1.474952
599.70 1.440199
599.80 1.747805
599.90 1.885478
600.00 1.570658
600.10 1.184233
600.20 1.104177
600.30 1.151899
600.40 1.307967
600.50 1.21882
600.60 1.336804
600.70 1.03331
600.80 0.8760094
600.90 1.397336
601.00 1.406614
601.10 1.207555
601.20 1.147126
601.30 1.572268
601.40 1.259526
601.50 0.7860841
601.60 1.383421
601.70 1.544265
601.80 1.575092
601.90 1.774137
602.00 1.949807
602.10 1.691518
602.20 1.575354
602.30 1.729506
602.40 1.416335
602.50 1.184729
602.60 1.045954
602.70 1.336518
602.80 1.135428
602.90 0.9116114
603.00 0.6440104
603.10 0.7133876
603.20 1.173208
603.30 1.508397
603.40 1.787929
603.50 1.439882
603.60 1.461007
603.70 1.693397
603.80 1.674623
603.90 1.126828
604.00 0.9493699
604.10 1.293577
604.20 1.401603
604.30 1.597909
604.40 1.729635
604.50 1.561274
604.60 1.407306
604.70 1.543527
604.80 1.982822
604.90 1.677034
605.00 1.122403
605.10 0.9929213
605.20 1.443075
605.30 1.820355
605.40 1.807213
605.50 1.40492
605.60 1.331618
605.70 1.822709
605.80 2.043034
605.90 1.607266
606.00 1.496666
606.10 1.511157
606.20 1.640762
606.30 1.800583
606.40 1.874147
606.50 1.668232
606.60 1.516476
606.70 1.929893
606.80 1.892081
606.90 1.736892
607.00 1.566846
607.10 1.628792
607.20 1.769639
607.30 1.646273
607.40 1.376062
607.50 1.53012
607.60 1.712594
607.70 1.822475
607.80 1.751065
607.90 1.738308
608.00 1.712983
608.10 1.685394
608.20 1.554019
608.30 1.598432
608.40 2.020643
608.50 2.001558
608.60 1.488029
608.70 1.166082
608.80 1.353458
608.90 1.737044
609.00 1.69824
609.10 1.76066
609.20 1.882217
609.30 1.924178
609.40 1.715825
609.50 1.583659
609.60 1.617054
609.70 1.878745
609.80 2.286874
609.90 2.303721
610.00 2.279776
610.10 2.293169
610.20 1.847874
610.30 1.539769
610.40 1.308664
610.50 1.453862
610.60 1.352393
610.70 1.31054
610.80 1.460605
610.90 1.928389
611.00 2.302056
611.10 2.339904
611.20 2.314122
611.30 2.085994
611.40 1.7792
611.50 1.545383
611.60 1.371903
611.70 1.520945
611.80 1.461392
611.90 1.617775
612.00 1.780805
612.10 1.737117
612.20 1.748118
612.30 1.991416
612.40 2.025986
612.50 1.614378
612.60 1.410298
612.70 1.433875
612.80 1.324236
612.90 1.273547
613.00 1.392983
613.10 1.4414
613.20 1.371104
613.30 1.534542
613.40 1.565282
613.50 1.701615
613.60 1.795464
613.70 1.810183
613.80 1.779207
613.90 1.519802
614.00 1.616339
614.10 1.53311
614.20 1.322143
614.30 0.9355195
614.40 0.958242
614.50 1.561296
614.60 1.867765
614.70 1.481376
614.80 0.8761345
614.90 0.7249307
615.00 0.9477081
615.10 0.9246385
615.20 0.9060262
615.30 1.280271
615.40 1.462237
615.50 1.354999
615.60 1.073528
615.70 1.000379
615.80 1.465894
615.90 1.459163
616.00 1.161939
616.10 0.6705195
616.20 0.717495
616.30 1.179393
616.40 1.384145
616.50 1.107377
616.60 0.4274124
616.70 0.4476935
616.80 0.5813972
616.90 0.7017274
617.00 0.8760635
617.10 0.7550565
617.20 0.6751557
617.30 0.7457385
617.40 0.9145783
617.50 0.9279204
617.60 0.6601834
617.70 0.6664143
617.80 0.8402031
617.90 0.9179933
618.00 0.6302591
618.10 0.5483921
618.20 0.6564486
618.30 0.3572497
618.40 0.4443699
618.50 0.7130738
618.60 0.9414504
618.70 0.9260903
618.80 0.8318132
618.90 0.7712148
619.00 0.9167074
619.10 1.057679
619.20 1.103797
619.30 1.753586
619.40 1.984746
619.50 1.539752
619.60 1.086684
619.70 0.9075592
619.80 0.7303859
619.90 0.5018025
620.00 0.7449304
620.10 0.6556433
620.20 0.4646815
620.30 0.5841273
620.40 0.9275833
620.50 1.252232
620.60 1.238353
620.70 0.9762213
620.80 0.9336971
620.90 1.172121
621.00 1.191261
621.10 0.9173138
621.20 0.8301211
621.30 0.5763019
621.40 0.6287316
621.50 0.7797108
621.60 0.8937661
621.70 0.7503997
621.80 0.955013
621.90 1.332363
622.00 1.39819
622.10 1.148846
622.20 0.920316
622.30 0.6546486
622.40 0.7600764
622.50 0.9671824
622.60 1.143543
622.70 1.131568
622.80 0.7488011
622.90 0.8117956
623.00 0.8680627
623.10 1.053641
623.20 1.277616
623.30 1.489341
623.40 1.037912
623.50 0.4581994
623.60 0.4160853
623.70 0.5713713
623.80 0.255833
623.90 0.08141723
624.00 0.7139105
624.10 1.406548
624.20 1.459698
624.30 0.8395937
624.40 0.732717
624.50 1.186093
624.60 1.378664
624.70 1.087989
624.80 0.6838057
624.90 0.6567474
625.00 0.7235633
625.10 0.831906
625.20 0.6353189
625.30 0.9725557
625.40 1.554074
625.50 0.7784348
625.60 0.3850244
625.70 0.3633338
625.80 0.9352389
625.90 1.015456
626.00 0.8901244
626.10 1.039718
626.20 1.349328
626.30 1.381422
626.40 0.8045655
626.50 0.5710365
626.60 0.8346499
626.70 0.9553905
626.80 1.031018
626.90 1.370053
627.00 1.468034
627.10 1.325159
627.20 0.9888693
627.30 0.9215175
627.40 1.228911
627.50 1.360227
627.60 1.22967
627.70 1.042974
627.80 1.219136
627.90 1.348458
628.00 1.289284
628.10 1.190411
628.20 1.253045
628.30 1.516046
628.40 1.375103
628.50 0.83462
628.60 0.5714539
628.70 1.267724
628.80 1.410966
628.90 1.147099
629.00 1.265803
629.10 1.413978
629.20 1.322244
629.30 1.36501
629.40 1.486769
629.50 1.693196
629.60 1.462319
629.70 0.8095522
629.80 1.581101
629.90 2.054239
630.00 1.834194
630.10 0.4078993
630.20 0.7552281
630.30 1.53622
630.40 2.278432
630.50 3.52729
630.60 2.005784
630.70 1.32059
630.80 1.568279
630.90 1.694684
631.00 1.745557
631.10 1.796899
631.20 2.377021
631.30 2.374543
631.40 2.023744
631.50 1.752637
631.60 1.55925
631.70 1.807916
631.80 2.072686
631.90 1.946547
632.00 1.620495
632.10 1.919073
632.20 2.231317
632.30 2.128161
632.40 1.976271
632.50 1.943512
632.60 1.825765
632.70 1.796118
632.80 1.832194
632.90 2.195689
633.00 2.366151
633.10 1.845092
633.20 1.606993
633.30 1.882086
633.40 2.41897
633.50 2.582685
633.60 2.361841
633.70 2.455235
633.80 2.531944
633.90 2.59524
634.00 2.36782
634.10 2.051707
634.20 2.561156
634.30 3.004291
634.40 2.764533
634.50 2.480352
634.60 2.686254
634.70 2.91789
634.80 2.909413
634.90 2.684229
635.00 2.779232
635.10 2.625054
635.20 2.335118
635.30 2.404563
635.40 2.458035
635.50 2.24317
635.60 2.184671
635.70 2.819854
635.80 2.993235
635.90 2.439765
636.00 2.237239
636.10 2.43998
636.20 2.843313
636.30 2.934112
636.40 2.707919
636.50 2.196301
636.60 1.965193
636.70 1.803089
636.80 1.960988
636.90 2.282585
637.00 2.560591
637.10 2.836628
637.20 2.733684
637.30 2.418947
637.40 2.397781
637.50 2.447908
637.60 2.537111
637.70 2.591823
637.80 2.443527
637.90 2.301316
638.00 2.168648
638.10 2.211135
638.20 2.059382
638.30 2.043481
638.40 2.307547
638.50 2.267127
638.60 2.45359
638.70 2.64704
638.80 2.615081
638.90 2.497509
639.00 2.388883
639.10 2.488621
639.20 2.367826
639.30 2.322963
639.40 2.565487
639.50 2.688021
639.60 2.589978
639.70 2.38054
639.80 2.38995
639.90 2.628942
640.00 3.002428
640.10 3.199572
640.20 2.90966
640.30 2.678553
640.40 2.768727
640.50 2.968612
640.60 3.055601
640.70 2.970329
640.80 2.812774
640.90 2.741051
641.00 2.554919
641.10 2.591204
641.20 2.754866
641.30 2.795216
641.40 2.87654
641.50 2.8092
641.60 2.637054
641.70 2.587267
641.80 2.867192
641.90 2.902346
642.00 2.887925
642.10 2.845454
642.20 2.536447
642.30 2.251006
642.40 2.148989
642.50 2.448193
642.60 2.462665
642.70 2.367057
642.80 2.478314
642.90 2.793411
643.00 3.018904
643.10 2.843943
643.20 2.858051
643.30 2.879368
643.40 3.070148
643.50 2.843681
643.60 2.462621
643.70 2.59217
643.80 2.896841
643.90 3.130768
644.00 3.076131
644.10 2.877621
644.20 2.831451
644.30 2.934052
644.40 2.984757
644.50 2.725227
644.60 2.581833
644.70 2.948602
644.80 2.883866
644.90 2.477811
645.00 2.425807
645.10 2.63756
645.20 2.744726
645.30 2.808429
645.40 2.704881
645.50 2.620995
645.60 3.008781
645.70 3.12083
645.80 2.879429
645.90 2.502109
646.00 2.562739
646.10 3.041186
646.20 3.085722
646.30 2.579985
646.40 2.568422
646.50 2.926914
646.60 2.85026
646.70 2.555899
646.80 2.651093
646.90 2.937677
647.00 3.122629
647.10 3.104307
647.20 3.056239
647.30 3.295834
647.40 3.647246
647.50 3.47849
647.60 3.021091
647.70 2.890539
647.80 2.967996
647.90 3.066107
648.00 2.95823
648.10 2.827745
648.20 3.044439
648.30 3.082961
648.40 2.954027
648.50 2.911008
648.60 2.851963
648.70 2.949085
648.80 2.981284
648.90 2.825142
649.00 3.037829
649.10 3.160645
649.20 3.134225
649.30 3.227021
649.40 3.152559
649.50 3.154768
649.60 3.263563
649.70 3.436996
649.80 3.214111
649.90 3.193702
650.00 3.820376
650.10 4.007989
650.20 3.996134
650.30 3.87752
650.40 3.815404
650.50 3.630814
650.60 3.482171
650.70 3.960265
650.80 4.154706
650.90 4.09614
651.00 4.189324
651.10 4.459536
651.20 4.728342
651.30 4.696775
651.40 4.378321
651.50 4.178107
651.60 4.316859
651.70 4.29734
651.80 4.321853
651.90 4.612214
652.00 5.050793
652.10 5.072802
652.20 5.063765
652.30 5.08858
652.40 5.30857
652.50 5.647142
652.60 5.675912
652.70 5.894193
652.80 6.155779
652.90 6.252829
653.00 6.355996
653.10 6.263379
653.20 6.186382
653.30 5.928361
653.40 6.068649
653.50 6.684017
653.60 6.656778
653.70 6.417894
653.80 6.512389
653.90 6.890515
654.00 7.221604
654.10 7.368028
654.20 7.301583
654.30 6.867208
654.40 6.611903
654.50 6.486116
654.60 6.217627
654.70 6.056786
654.80 6.131389
654.90 6.294205
655.00 6.108736
655.10 5.610345
655.20 5.540583
655.30 5.812286
655.40 5.644968
655.50 5.463342
655.60 5.575864
655.70 5.623984
655.80 5.671909
655.90 5.915947
656.00 6.432016
656.10 6.837439
656.20 8.785575
656.30 12.08454
656.40 14.17082
656.50 13.33945
656.60 10.27861
656.70 7.249669
656.80 5.285122
656.90 4.786709
657.00 4.806122
657.10 4.565548
657.20 4.421906
657.30 4.448689
657.40 4.256157
657.50 4.213296
657.60 4.611189
657.70 4.936776
657.80 4.401651
657.90 3.907867
658.00 4.074342
658.10 4.047781
658.20 3.864706
658.30 3.766527
658.40 3.798753
658.50 3.955246
658.60 4.347761
658.70 5.12485
658.80 5.30297
658.90 4.948209
659.00 4.515528
659.10 4.306046
659.20 4.437759
659.30 4.542471
659.40 4.456087
659.50 4.195982
659.60 4.215849
659.70 4.366112
659.80 4.179156
659.90 4.004676
660.00 4.089402
660.10 4.097563
660.20 4.122387
660.30 4.23292
660.40 4.318832
660.50 4.410771
660.60 4.488889
660.70 4.447535
660.80 4.221932
660.90 4.255166
661.00 4.330385
661.10 4.411278
661.20 4.465161
661.30 4.570194
661.40 4.679764
661.50 4.612792
661.60 4.365271
661.70 4.210405
661.80 4.497607
661.90 4.525311
662.00 4.230667
662.10 4.028473
662.20 4.053146
662.30 4.099344
662.40 3.92562
662.50 3.924318
662.60 3.702992
662.70 3.325231
662.80 3.429838
662.90 3.42577
663.00 3.458998
663.10 3.660721
663.20 3.988748
663.30 4.215054
663.40 4.016031
663.50 3.652733
663.60 3.670086
663.70 3.797384
663.80 3.58324
663.90 3.409656
664.00 3.328284
664.10 3.459318
664.20 3.583861
664.30 3.832658
664.40 3.961982
664.50 3.914602
664.60 3.848798
664.70 3.75732
664.80 3.833106
664.90 3.8632
665.00 3.744555
665.10 3.516794
665.20 2.923757
665.30 2.677027
665.40 2.935566
665.50 2.915387
665.60 3.02334
665.70 3.062032
665.80 2.78839
665.90 2.591385
666.00 2.840521
666.10 3.183149
666.20 3.323599
666.30 3.324609
666.40 3.451531
666.50 3.51649
666.60 3.472628
666.70 3.490243
666.80 3.570231
666.90 3.740513
667.00 3.826158
667.10 3.699976
667.20 3.584524
667.30 3.436959
667.40 3.281735
667.50 3.490243
667.60 3.669253
667.70 3.97478
667.80 4.031092
667.90 3.991243
668.00 3.732485
668.10 3.551066
668.20 3.391648
668.30 2.910249
668.40 3.015435
668.50 3.201988
668.60 3.31184
668.70 3.160615
668.80 2.881701
668.90 2.813162
669.00 2.742782
669.10 3.013528
669.20 3.427658
669.30 3.385563
669.40 2.907583
669.50 2.749329
669.60 3.047258
669.70 3.450231
669.80 3.565365
669.90 3.219439
670.00 2.991785
670.10 3.250689
670.20 3.562714
670.30 3.670462
670.40 3.665176
670.50 3.712969
670.60 4.008528
670.70 4.142434
670.80 4.130925
670.90 3.836727
671.00 3.643033
671.10 3.831811
671.20 4.065313
671.30 4.109055
671.40 3.708336
671.50 3.277875
671.60 2.979327
671.70 2.874366
671.80 2.74941
671.90 2.543046
672.00 2.647969
672.10 2.817231
672.20 2.903708
672.30 2.937486
672.40 2.960156
672.50 3.08058
672.60 3.05488
672.70 3.111289
672.80 3.31364
672.90 3.37455
673.00 3.214756
673.10 3.079066
673.20 3.150772
673.30 3.333476
673.40 3.316354
673.50 3.162627
673.60 3.143224
673.70 3.225247
673.80 3.220172
673.90 3.329577
674.00 3.416398
674.10 3.42308
674.20 3.440965
674.30 3.569003
674.40 3.665117
674.50 3.483578
674.60 3.443898
674.70 3.467149
674.80 3.242875
674.90 2.937865
675.00 2.861811
675.10 3.08008
675.20 3.226595
675.30 3.150767
675.40 2.966075
675.50 3.177421
675.60 3.402604
675.70 3.501601
675.80 3.509019
675.90 3.358483
676.00 3.42801
676.10 3.695063
676.20 3.651858
676.30 3.655466
676.40 3.598697
676.50 3.448785
676.60 3.997464
676.70 4.280212
676.80 4.128292
676.90 4.193005
677.00 4.384318
677.10 4.803345
677.20 4.809611
677.30 4.411426
677.40 4.207813
677.50 4.311892
677.60 4.334002
677.70 4.285929
677.80 4.262634
677.90 4.360122
678.00 4.435732
678.10 4.052473
678.20 3.620667
678.30 3.434689
678.40 3.306785
678.50 3.138644
678.60 2.842897
678.70 2.717288
678.80 2.847194
678.90 3.228487
679.00 3.584109
679.10 3.74683
679.20 3.679917
679.30 3.243909
679.40 3.108573
679.50 3.398561
679.60 3.658794
679.70 3.738111
679.80 3.644663
679.90 3.588633
680.00 3.682232
680.10 3.966176
680.20 4.073867
680.30 3.953657
680.40 3.911634
680.50 3.837638
680.60 3.905611
680.70 4.085758
680.80 4.131681
680.90 4.10031
681.00 3.853082
681.10 3.919911
681.20 4.322853
681.30 4.481457
681.40 4.313568
681.50 3.929783
681.60 3.761735
681.70 3.920275
681.80 3.969626
681.90 3.860943
682.00 3.808282
682.10 3.796801
682.20 3.900198
682.30 3.904471
682.40 3.783642
682.50 3.789696
682.60 4.025652
682.70 4.303177
682.80 4.285162
682.90 4.15907
683.00 4.091383
683.10 3.961297
683.20 4.181908
683.30 4.327607
683.40 4.156603
683.50 4.32942
683.60 4.739064
683.70 4.972146
683.80 4.798758
683.90 4.639241
684.00 4.458104
684.10 4.489329
684.20 4.756617
684.30 4.762627
684.40 4.680745
684.50 4.549679
684.60 4.48288
684.70 4.464419
684.80 4.452345
684.90 4.450673
685.00 4.357881
685.10 4.133593
685.20 4.066565
685.30 3.982931
685.40 3.914334
685.50 3.963868
685.60 4.076878
685.70 4.233315
685.80 4.130834
685.90 4.043117
686.00 4.125275
686.10 4.136365
686.20 3.981329
686.30 4.000372
686.40 4.256429
686.50 4.418034
686.60 4.132253
686.70 3.727064
686.80 4.235549
686.90 4.570633
687.00 3.745384
687.10 3.535768
687.20 4.13656
687.30 4.688968
687.40 4.90491
687.50 4.84017
687.60 5.026817
687.70 5.077511
687.80 4.93046
687.90 5.038216
688.00 5.078841
688.10 5.005588
688.20 5.060551
688.30 5.101612
688.40 5.031654
688.50 4.858153
688.60 4.979693
688.70 5.297187
688.80 5.187827
688.90 5.232312
689.00 5.187972
689.10 4.733792
689.20 4.327816
689.30 4.088197
689.40 4.545784
689.50 5.005373
689.60 4.90879
689.70 4.901499
689.80 4.908341
689.90 4.90631
690.00 4.833229
690.10 4.61963
690.20 4.412313
690.30 4.332337
690.40 4.603926
690.50 5.004577
690.60 4.99322
690.70 5.054862
690.80 5.532652
690.90 5.645543
691.00 5.359002
691.10 5.33514
691.20 5.515125
691.30 5.656736
691.40 5.448045
691.50 5.479934
691.60 5.775168
691.70 5.681389
691.80 5.275175
691.90 4.994041
692.00 4.88934
692.10 4.993408
692.20 5.038469
692.30 5.012375
692.40 5.538848
692.50 5.923338
692.60 5.958784
692.70 6.289993
692.80 6.325668
692.90 6.054879
693.00 5.733996
693.10 5.669717
693.20 6.046955
693.30 6.393788
693.40 6.683869
693.50 6.544897
693.60 6.367521
693.70 6.625808
693.80 6.675164
693.90 6.58493
694.00 6.381175
694.10 6.255592
694.20 6.458916
694.30 6.782671
694.40 7.535682
694.50 7.970839
694.60 8.000849
694.70 8.439241
694.80 8.872032
694.90 9.06
695.00 8.97294
695.10 8.61193
695.20 8.257696
695.30 7.890724
695.40 7.648881
695.50 7.492992
695.60 7.597345
695.70 7.709095
695.80 7.588584
695.90 7.510835
696.00 7.515277
696.10 7.689004
696.20 7.67561
696.30 7.61938
696.40 7.954987
696.50 8.396306
696.60 8.627398
696.70 8.65847
696.80 8.773037
696.90 8.843049
697.00 8.658719
697.10 8.247104
697.20 8.005484
697.30 8.464679
697.40 8.454045
697.50 8.026383
697.60 8.314149
697.70 8.937825
697.80 9.592888
697.90 9.834225
698.00 9.565784
698.10 9.230077
698.20 9.196161
698.30 9.551109
698.40 9.718824
698.50 9.479355
698.60 9.488925
698.70 9.590938
698.80 9.627314
698.90 9.471078
699.00 9.547715
699.10 9.549851
699.20 9.176754
699.30 8.846426
699.40 9.026216
699.50 9.497415
699.60 9.529284
699.70 9.284309
699.80 8.945423
699.90 8.819934
700.00 9.041431
700.10 9.210738
700.20 9.180222
700.30 9.239414
700.40 9.350494
700.50 9.287868
700.60 9.173975
700.70 9.307764
700.80 9.640685
700.90 9.846106
701.00 10.17806
701.10 10.50954
701.20 10.65248
701.30 10.54735
701.40 10.12439
701.50 10.04936
701.60 10.45163
701.70 10.69171
701.80 10.69754
701.90 10.5622
702.00 10.79676
702.10 11.48453
702.20 11.6706
702.30 11.26424
702.40 10.75111
702.50 10.26613
702.60 10.29743
702.70 10.75602
702.80 11.63827
702.90 12.50808
703.00 12.78283
703.10 12.83099
703.20 12.62419
703.30 12.51896
703.40 12.69931
703.50 13.01482
703.60 13.57723
703.70 14.11344
703.80 14.38244
703.90 14.26677
704.00 13.74484
704.10 13.57389
704.20 13.8999
704.30 14.22712
704.40 14.55067
704.50 14.75194
704.60 14.83079
704.70 14.81937
704.80 14.63119
704.90 14.64302
705.00 14.75104
705.10 15.27203
705.20 15.64424
705.30 14.9142
705.40 13.18419
705.50 10.61102
705.60 7.856944
705.70 5.854337
705.80 5.153465
705.90 5.090998
706.00 4.903784
706.10 4.701606
706.20 4.60366
706.30 4.623255
706.40 4.791022
706.50 4.889533
706.60 5.026946
706.70 5.115722
706.80 5.18605
706.90 5.447183
707.00 5.626525
707.10 5.679008
707.20 5.803865
707.30 5.955435
707.40 5.904718
707.50 5.917749
707.60 5.920615
707.70 5.78633
707.80 5.70393
707.90 5.801573
708.00 6.215658
708.10 6.682133
708.20 6.734905
708.30 6.700808
708.40 6.684242
708.50 6.637828
708.60 6.719182
708.70 6.736536
708.80 6.419605
708.90 5.491704
709.00 4.309318
709.10 3.732837
709.20 3.931072
709.30 4.17342
709.40 4.162235
709.50 4.058885
709.60 3.941867
709.70 4.10534
709.80 4.382396
709.90 4.382929
710.00 4.171999
710.10 4.160419
710.20 4.242846
710.30 4.260846
710.40 4.376751
710.50 4.510476
710.60 4.617028
710.70 4.522975
710.80 4.570539
710.90 5.081368
711.00 5.493556
711.10 5.51856
711.20 5.366606
711.30 5.213309
711.40 5.288996
711.50 5.517373
711.60 5.681764
711.70 5.620242
711.80 5.476183
711.90 5.699319
712.00 6.209784
712.10 6.530267
712.20 6.512176
712.30 6.278202
712.40 5.976348
712.50 5.617635
712.60 5.199926
712.70 4.761052
712.80 4.328798
712.90 3.74375
713.00 3.481464
713.10 3.699232
713.20 3.849236
713.30 3.867585
713.40 3.80703
713.50 3.808266
713.60 3.839787
713.70 3.733481
713.80 3.616029
713.90 3.768268
714.00 4.036798
714.10 4.050178
714.20 4.096756
714.30 4.15287
714.40 4.10713
714.50 4.063496
714.60 4.087843
714.70 4.316248
714.80 4.469163
714.90 4.444781
715.00 4.372156
715.10 4.149381
715.20 4.031306
715.30 4.073456
715.40 4.295924
715.50 4.713667
715.60 5.126386
715.70 5.304597
715.80 5.1013
715.90 4.649315
716.00 4.610612
716.10 4.892084
716.20 4.645928
716.30 4.198114
716.40 4.012179
716.50 4.31679
716.60 5.002624
716.70 5.195552
716.80 4.779745
716.90 4.472937
717.00 4.540786
717.10 4.806702
717.20 5.033088
717.30 5.179191
717.40 5.148347
717.50 5.149681
717.60 5.253775
717.70 5.14484
717.80 5.085735
717.90 5.001231
718.00 5.059487
718.10 5.468618
718.20 5.756932
718.30 5.869778
718.40 5.815919
718.50 5.781596
718.60 5.996984
718.70 6.199105
718.80 6.292194
718.90 6.447491
719.00 6.715452
719.10 6.836864
719.20 6.785932
719.30 6.719248
719.40 6.623925
719.50 6.733463
719.60 6.658044
719.70 6.348728
719.80 6.0596
719.90 5.462812
720.00 5.117287
720.10 5.340607
720.20 5.653074
720.30 5.937616
720.40 5.81756
720.50 5.601278
720.60 5.731599
720.70 5.812995
720.80 5.794997
720.90 5.772102
721.00 5.778421
721.10 5.780743
721.20 5.847821
721.30 6.069293
721.40 6.510097
721.50 6.777567
721.60 6.477849
721.70 6.153354
721.80 6.344617
721.90 6.742687
722.00 6.82414
722.10 6.700765
722.20 6.624631
722.30 6.751513
722.40 7.153428
722.50 7.423739
722.60 7.448518
722.70 7.676124
722.80 8.054966
722.90 8.124868
723.00 7.807788
723.10 7.410365
723.20 7.291688
723.30 7.492754
723.40 7.719071
723.50 7.968999
723.60 8.104952
723.70 8.072842
723.80 8.224982
723.90 8.679667
724.00 8.7675
724.10 8.252953
724.20 7.742357
724.30 7.769379
724.40 8.756505
724.50 9.400313
724.60 9.016777
724.70 8.994048
724.80 9.511306
724.90 9.763924
725.00 9.87118
725.10 10.12381
725.20 10.44452
725.30 10.51032
725.40 10.42323
725.50 10.5669
725.60 10.93482
725.70 11.34901
725.80 11.2143
725.90 10.71566
726.00 10.65093
726.10 10.79246
726.20 11.04457
726.30 11.55416
726.40 12.03882
726.50 12.54267
726.60 12.78549
726.70 12.41944
726.80 12.32303
726.90 12.48721
727.00 12.26189
727.10 11.93962
727.20 11.62955
727.30 11.2611
727.40 11.20398
727.50 11.82866
727.60 12.89163
727.70 13.52617
727.80 12.09589
727.90 10.45219
728.00 11.36268
728.10 12.71519
728.20 12.72046
728.30 12.29783
728.40 12.31274
728.50 12.95692
728.60 13.42003
728.70 13.28318
728.80 13.32008
728.90 13.90404
729.00 14.44603
729.10 14.57389
729.20 14.50167
729.30 14.4768
729.40 14.54211
729.50 14.8927
729.60 15.29276
729.70 15.92548
729.80 16.40911
729.90 16.06353
730.00 15.77969
730.10 16.12818
730.20 16.623
730.30 17.00739
730.40 17.50191
730.50 17.87412
730.60 17.89011
730.70 17.65956
730.80 17.61902
730.90 18.27286
731.00 18.84747
731.10 18.76286
731.20 18.38834
731.30 18.38941
731.40 19.23811
731.50 20.2355
731.60 20.32049
731.70 19.71818
731.80 19.69728
731.90 20.22288
732.00 20.72968
732.10 21.08743
732.20 21.18053
732.30 21.18199
732.40 21.20264
732.50 21.06105
732.60 20.78952
732.70 20.52426
732.80 20.63537
732.90 21.26594
733.00 21.50376
733.10 21.63787
733.20 21.67399
733.30 21.41112
733.40 21.12262
733.50 20.91132
733.60 21.6022
733.70 22.89325
733.80 23.66173
733.90 24.16496
734.00 24.87131
734.10 25.66473
734.20 25.99171
734.30 25.01189
734.40 23.61518
734.50 22.58086
734.60 21.78028
734.70 21.23564
734.80 21.02329
734.90 21.53664
735.00 22.45859
735.10 23.21802
735.20 23.63625
735.30 23.70768
735.40 23.56
735.50 23.17345
735.60 22.65457
735.70 22.02641
735.80 21.78189
735.90 22.53105
736.00 23.41091
736.10 23.50598
736.20 23.39647
736.30 23.63914
736.40 24.30298
736.50 25.29042
736.60 25.89652
736.70 25.84283
736.80 25.95414
736.90 26.71152
737.00 27.37418
737.10 27.02326
737.20 26.48723
737.30 26.37774
737.40 26.13227
737.50 25.50078
737.60 24.504
737.70 24.02462
737.80 24.34657
737.90 25.06052
738.00 25.65658
738.10 25.85964
738.20 25.91568
738.30 25.86327
738.40 25.76295
738.50 25.65366
738.60 25.66411
738.70 26.05952
738.80 26.70885
738.90 27.67057
739.00 28.5817
739.10 28.88024
739.20 28.61741
739.30 27.52398
739.40 25.9482
739.50 24.5731
739.60 23.66845
739.70 23.65853
739.80 24.33166
739.90 25.41513
740.00 26.27786
740.10 26.39229
740.20 26.6341
740.30 27.43707
740.40 27.71992
740.50 26.75529
740.60 24.66151
740.70 23.46494
740.80 23.88261
740.90 24.43802
741.00 25.08999
741.10 25.78935
741.20 26.18122
741.30 26.50601
741.40 26.8825
741.50 27.01003
741.60 26.59662
741.70 25.77919
741.80 24.90554
741.90 24.22295
742.00 23.59564
742.10 23.27091
742.20 23.4649
742.30 24.06107
742.40 24.81612
742.50 25.61866
742.60 26.15512
742.70 26.35119
742.80 26.62691
742.90 26.77812
743.00 26.94703
743.10 27.13416
743.20 26.84523
743.30 26.51113
743.40 26.13233
743.50 25.28023
743.60 24.23984
743.70 23.44183
743.80 23.46701
743.90 24.36723
744.00 25.27677
744.10 25.70792
744.20 25.78097
744.30 25.10804
744.40 24.21898
744.50 23.86484
744.60 23.66972
744.70 23.7331
744.80 23.68182
744.90 23.21833
745.00 23.26367
745.10 24.18612
745.20 25.16028
745.30 25.48155
745.40 25.30776
745.50 24.88618
745.60 24.53787
745.70 24.28922
745.80 24.08198
745.90 24.12452
746.00 24.20969
746.10 24.4086
746.20 24.64352
746.30 25.01406
746.40 25.52365
746.50 25.84123
746.60 26.0491
746.70 26.12656
746.80 25.94602
746.90 25.48259
747.00 25.32386
747.10 26.03567
747.20 27.10398
747.30 27.0565
747.40 25.70801
747.50 24.35579
747.60 23.83033
747.70 24.34965
747.80 25.35844
747.90 25.98438
748.00 26.0287
748.10 26.17962
748.20 26.5758
748.30 26.91174
748.40 27.61023
748.50 28.40264
748.60 28.44914
748.70 27.94623
748.80 27.39002
748.90 27.20478
749.00 27.56452
749.10 27.64985
749.20 27.27143
749.30 26.90667
749.40 26.39072
749.50 25.8489
749.60 25.65356
749.70 25.85491
749.80 26.402
749.90 27.15864
750.00 28.15133
750.10 28.86291
750.20 28.93446
750.30 29.02114
750.40 29.24534
750.50 29.04983
750.60 28.3942
750.70 27.71925
750.80 27.52615
750.90 28.1074
751.00 29.189
751.10 30.12597
751.20 30.35778
751.30 29.63771
751.40 28.70734
751.50 28.5512
751.60 28.71635
751.70 28.90467
751.80 29.05247
751.90 28.91861
752.00 28.72546
752.10 28.62447
752.20 28.45895
752.30 28.66799
752.40 29.71582
752.50 30.17957
752.60 29.73401
752.70 29.17103
752.80 28.32153
752.90 27.99184
753.00 28.57067
753.10 29.63495
753.20 30.82905
753.30 31.31759
753.40 30.76141
753.50 29.94557
753.60 29.49404
753.70 29.64734
753.80 30.66679
753.90 32.05961
754.00 33.21935
754.10 33.77847
754.20 33.51086
754.30 33.01806
754.40 33.0776
754.50 33.42253
754.60 33.69591
754.70 33.57403
754.80 32.9482
754.90 32.33888
755.00 31.99666
755.10 32.25381
755.20 33.04778
755.30 33.44834
755.40 33.19143
755.50 32.79253
755.60 32.71448
755.70 32.85955
755.80 33.1567
755.90 33.83342
756.00 34.57622
756.10 35.09444
756.20 35.02412
756.30 34.48968
756.40 34.24713
756.50 33.77082
756.60 32.99439
756.70 32.50996
756.80 31.98276
756.90 31.3817
757.00 30.95329
757.10 31.08858
757.20 32.37126
757.30 34.59585
757.40 36.10685
757.50 35.68668
757.60 34.57505
757.70 33.92618
757.80 33.33353
757.90 32.93028
758.00 33.19179
758.10 34.17052
758.20 35.60095
758.30 36.62583
758.40 36.83968
758.50 36.69764
758.60 36.16444
758.70 34.56508
758.80 31.65518
758.90 27.67142
759.00 23.39787
759.10 19.72426
759.20 16.96284
759.30 15.72104
759.40 16.25499
759.50 17.40202
759.60 18.33493
759.70 18.57923
759.80 17.90118
759.90 18.01414
760.00 19.44171
760.10 20.46095
760.20 20.16241
760.30 18.9124
760.40 18.17619
760.50 18.82909
760.60 19.35397
760.70 19.06676
760.80 18.80761
760.90 18.91645
761.00 19.25456
761.10 19.84387
761.20 20.57915
761.30 21.48574
761.40 22.50143
761.50 22.88123
761.60 22.55078
761.70 22.4014
761.80 22.89028
761.90 23.7797
762.00 24.71375
762.10 24.86483
762.20 23.94139
762.30 22.81738
762.40 22.12535
762.50 21.8359
762.60 21.3461
762.70 20.17002
762.80 18.44112
762.90 16.1584
763.00 13.943
763.10 12.7372
763.20 12.91703
763.30 13.81764
763.40 14.38874
763.50 14.34386
763.60 13.80205
763.70 13.48338
763.80 13.87734
763.90 14.12832
764.00 13.82398
764.10 13.49418
764.20 13.34826
764.30 13.53259
764.40 13.86871
764.50 13.96858
764.60 13.53754
764.70 12.93414
764.80 12.75348
764.90 12.79146
765.00 12.67502
765.10 12.34029
765.20 12.04512
765.30 12.15588
765.40 12.22149
765.50 11.52556
765.60 10.2561
765.70 9.380978
765.80 9.210584
765.90 9.204699
766.00 8.895956
766.10 8.162946
766.20 7.278679
766.30 6.305639
766.40 5.527294
766.50 5.010368
766.60 4.581588
766.70 4.524243
766.80 4.821552
766.90 5.353714
767.00 5.956282
767.10 6.349026
767.20 6.569934
767.30 6.71168
767.40 6.917066
767.50 7.266973
767.60 7.675781
767.70 8.078814
767.80 8.262839
767.90 8.290364
768.00 8.541512
768.10 9.036618
768.20 9.377893
768.30 9.42317
768.40 9.53854
768.50 9.741206
768.60 9.815629
768.70 9.702343
768.80 9.415485
768.90 9.203023
769.00 9.278936
769.10 9.553516
769.20 9.590817
769.30 9.329308
769.40 8.967437
769.50 8.41606
769.60 7.804422
769.70 7.142061
769.80 6.402204
769.90 5.610733
770.00 4.764977
770.10 4.59362
770.20 5.210509
770.30 5.954203
770.40 6.635303
770.50 7.179172
770.60 7.613759
770.70 7.991403
770.80 8.36989
770.90 8.886199
771.00 9.441654
771.10 10.02287
771.20 10.25823
771.30 10.24236
771.40 10.92226
771.50 11.48969
771.60 11.16767
771.70 11.02892
771.80 11.16483
771.90 11.46639
772.00 12.17619
772.10 12.41226
772.20 12.35451
772.30 12.97327
772.40 13.60297
772.50 13.81196
772.60 13.97099
772.70 13.93811
772.80 13.84013
772.90 14.24055
773.00 15.06614
773.10 16.00939
773.20 16.66624
773.30 16.7468
773.40 16.6817
773.50 16.66987
773.60 16.60963
773.70 16.82894
773.80 17.43733
773.90 18.06282
774.00 18.51655
774.10 18.64511
774.20 18.37182
774.30 18.04695
774.40 17.53109
774.50 16.30673
774.60 14.93364
774.70 14.43458
774.80 14.41732
774.90 14.26991
775.00 13.79146
775.10 12.74843
775.20 12.11279
775.30 12.50177
775.40 13.11753
775.50 13.43755
775.60 13.45451
775.70 13.33413
775.80 13.35042
775.90 13.7115
776.00 14.07324
776.10 14.19938
776.20 14.13767
776.30 13.78369
776.40 13.67542
776.50 14.08369
776.60 14.33258
776.70 14.37116
776.80 14.89695
776.90 15.65898
777.00 16.09378
777.10 16.24984
777.20 16.23365
777.30 16.3383
777.40 16.80321
777.50 17.26409
777.60 17.38928
777.70 17.27221
777.80 16.95227
777.90 17.03378
778.00 17.63118
778.10 17.95487
778.20 17.77189
778.30 16.82513
778.40 15.40218
778.50 14.49266
778.60 14.27927
778.70 14.35679
778.80 14.58816
778.90 14.84964
779.00 15.14565
779.10 15.98286
779.20 16.91401
779.30 17.45998
779.40 17.84953
779.50 17.85178
779.60 17.79539
779.70 17.71216
779.80 16.86152
779.90 15.87444
780.00 14.88734
780.10 13.60092
780.20 13.2237
780.30 14.19674
780.40 15.96847
780.50 18.11091
780.60 19.6615
780.70 20.27343
780.80 20.62079
780.90 20.94734
781.00 20.8629
781.10 20.48626
781.20 20.32798
781.30 20.52692
781.40 21.21189
781.50 21.99617
781.60 22.25754
781.70 22.32299
781.80 22.51986
781.90 22.97121
782.00 23.08156
782.10 21.75847
782.20 20.09413
782.30 19.1636
782.40 18.65069
782.50 18.94542
782.60 19.42248
782.70 19.42937
782.80 19.15228
782.90 18.37566
783.00 17.19745
783.10 16.39294
783.20 16.40155
783.30 17.06251
783.40 17.89841
783.50 18.45674
783.60 18.74794
783.70 18.84073
783.80 18.95855
783.90 19.23264
784.00 19.27261
784.10 19.28593
784.20 19.53497
784.30 19.50738
784.40 19.39981
784.50 19.68212
784.60 20.25291
784.70 20.93787
784.80 21.32383
784.90 21.14185
785.00 20.44105
785.10 19.79057
785.20 19.93923
785.30 20.54903
785.40 21.01708
785.50 21.0428
785.60 20.77852
785.70 20.85354
785.80 21.06488
785.90 21.38708
786.00 21.70928
786.10 21.35517
786.20 20.83462
786.30 20.62887
786.40 20.41392
786.50 20.09467
786.60 19.78807
786.70 19.48832
786.80 19.19317
786.90 19.29399
787.00 19.7793
787.10 20.13127
787.20 20.03488
787.30 19.28566
787.40 18.72571
787.50 19.09078
787.60 19.7825
787.70 20.30287
787.80 20.77756
787.90 21.51283
788.00 22.05705
788.10 22.23772
788.20 22.54535
788.30 22.72134
788.40 22.84003
788.50 23.09649
788.60 23.28325
788.70 23.63626
788.80 24.05547
788.90 24.20521
789.00 24.1081
789.10 23.81934
789.20 23.56162
789.30 23.80223
789.40 24.50516
789.50 24.94611
789.60 24.59452
789.70 23.62414
789.80 22.53294
789.90 21.48848
790.00 20.62307
790.10 20.13039
790.20 20.04097
790.30 20.53075
790.40 21.50627
790.50 22.41047
790.60 22.98449
790.70 23.01696
790.80 22.31786
790.90 21.287
791.00 20.5391
791.10 19.93889
791.20 19.41955
791.30 19.29418
791.40 19.43881
791.50 20.01796
791.60 20.45824
791.70 20.35695
791.80 20.39612
791.90 20.16517
792.00 19.33547
792.10 18.65591
792.20 18.71773
792.30 19.4149
792.40 20.05517
792.50 20.50478
792.60 20.87412
792.70 21.05469
792.80 21.29646
792.90 21.50197
793.00 21.53371
793.10 21.73657
793.20 22.28759
793.30 23.40119
793.40 24.5578
793.50 25.06233
793.60 25.14862
793.70 24.93929
793.80 24.82923
793.90 24.83589
794.00 23.89189
794.10 22.15433
794.20 20.72434
794.30 20.06067
794.40 20.38314
794.50 21.17596
794.60 21.58234
794.70 21.0059
794.80 19.11224
794.90 17.31794
795.00 17.50916
795.10 19.44416
795.20 21.4922
795.30 22.92646
795.40 24.08163
795.50 25.0123
795.60 25.58366
795.70 25.84736
795.80 25.65423
795.90 25.07291
796.00 24.57112
796.10 23.84978
796.20 22.54373
796.30 21.7982
796.40 22.42863
796.50 23.32854
796.60 23.58586
796.70 23.61497
796.80 23.83978
796.90 24.72231
797.00 26.22949
797.10 27.21585
797.20 27.41606
797.30 27.53285
797.40 27.21023
797.50 26.03649
797.60 24.84178
797.70 24.18913
797.80 23.86688
797.90 23.67774
798.00 23.55286
798.10 23.63947
798.20 23.90724
798.30 23.94101
798.40 23.58105
798.50 23.05233
798.60 22.55319
798.70 22.15923
798.80 21.99107
798.90 22.0899
799.00 22.42771
799.10 23.0067
799.20 23.90056
799.30 25.05927
799.40 25.62484
799.50 24.78653
799.60 23.65696
799.70 23.53999
799.80 23.98037
799.90 24.28983
800.00 24.46457
800.10 24.86246
800.20 25.45964
800.30 26.02635
800.40 26.62376
800.50 26.87266
800.60 26.773
800.70 26.99351
800.80 27.7009
800.90 28.54855
801.00 28.92075
801.10 28.80579
801.20 28.71376
801.30 28.83886
801.40 29.14829
801.50 29.13895
801.60 28.86881
801.70 29.23867
801.80 30.20114
801.90 30.98329
802.00 31.28791
802.10 31.13633
802.20 30.71806
802.30 30.3246
802.40 30.30205
802.50 30.68057
802.60 31.31494
802.70 32.37764
802.80 33.35946
802.90 33.82224
803.00 34.31191
803.10 34.79508
803.20 34.8861
803.30 34.71127
803.40 34.55119
803.50 34.61863
803.60 35.04197
803.70 35.36127
803.80 35.06148
803.90 34.73296
804.00 34.69593
804.10 34.56008
804.20 34.64651
804.30 35.24765
804.40 36.02398
804.50 36.65021
804.60 36.65167
804.70 36.02437
804.80 35.77833
804.90 36.31883
805.00 37.34102
805.10 38.59001
805.20 39.73298
805.30 40.80329
805.40 41.53223
805.50 41.71066
805.60 41.81255
805.70 41.95348
805.80 42.1496
805.90 42.25788
806.00 42.16583
806.10 42.56551
806.20 43.38258
806.30 43.68981
806.40 43.30347
806.50 42.89424
806.60 42.79425
806.70 43.00051
806.80 43.55655
806.90 43.94812
807.00 43.63903
807.10 43.15445
807.20 43.37034
807.30 44.3191
807.40 45.47848
807.50 46.38095
807.60 46.8094
807.70 46.96783
807.80 47.34363
807.90 48.22649
808.00 48.94854
808.10 48.71272
808.20 48.41623
808.30 49.08173
808.40 49.89236
808.50 50.51439
808.60 51.33552
808.70 51.63377
808.80 51.18196
808.90 50.5173
809.00 49.85247
809.10 49.82726
809.20 50.81076
809.30 52.11449
809.40 52.82327
809.50 52.63474
809.60 52.26604
809.70 51.8646
809.80 51.2235
809.90 50.93182
810.00 51.00548
810.10 51.13988
810.20 51.42416
810.30 51.4801
810.40 51.00823
810.50 50.62146
810.60 51.0869
810.70 52.50335
810.80 54.04171
810.90 55.04604
811.00 55.75498
811.10 56.07809
811.20 55.88756
811.30 55.79308
811.40 56.09883
811.50 56.60565
811.60 56.78745
811.70 56.14929
811.80 55.26699
811.90 55.39373
812.00 56.74104
812.10 58.18227
812.20 59.00359
812.30 59.23768
812.40 59.07704
812.50 59.16529
812.60 59.57409
812.70 59.86166
812.80 60.34986
812.90 61.21085
813.00 61.71091
813.10 61.52126
813.20 61.21098
813.30 61.21066
813.40 61.69313
813.50 62.63897
813.60 63.27424
813.70 63.2948
813.80 63.49034
813.90 64.07865
814.00 64.56834
814.10 64.54191
814.20 63.67662
814.30 62.34331
814.40 61.05179
814.50 60.17069
814.60 60.25377
814.70 60.88804
814.80 61.12629
814.90 60.78243
815.00 60.51946
815.10 61.06167
815.20 62.09764
815.30 62.99226
815.40 63.56348
815.50 63.4208
815.60 62.71376
815.70 62.39643
815.80 62.49601
815.90 62.39641
816.00 62.08584
816.10 61.61756
816.20 61.04295
816.30 60.95387
816.40 61.83182
816.50 63.31394
816.60 64.57201
816.70 65.13111
816.80 65.356
816.90 65.91708
817.00 66.69827
817.10 67.4419
817.20 67.70027
817.30 67.16812
817.40 66.74477
817.50 66.37409
817.60 65.65935
817.70 64.77867
817.80 63.27008
817.90 61.60322
818.00 60.33975
818.10 58.09392
818.20 53.37916
818.30 46.20601
818.40 38.71243
818.50 34.84789
818.60 36.35156
818.70 41.6811
818.80 48.24312
818.90 53.21149
819.00 55.52076
819.10 55.91662
819.20 54.67545
819.30 51.17732
819.40 45.38603
819.50 38.65274
819.60 33.18851
819.70 31.15966
819.80 33.07225
819.90 37.33273
820.00 41.84425
820.10 45.70925
820.20 48.94436
820.30 51.79156
820.40 54.26921
820.50 55.75873
820.60 55.68713
820.70 53.73065
820.80 50.74776
820.90 49.3017
821.00 50.51075
821.10 52.85535
821.20 55.20299
821.30 56.67928
821.40 56.4291
821.50 55.34262
821.60 54.50856
821.70 54.00091
821.80 53.87617
821.90 54.38816
822.00 55.39378
822.10 56.64431
822.20 58.09981
822.30 59.3658
822.40 60.24276
822.50 60.7777
822.60 60.89515
822.70 60.95543
822.80 61.12219
822.90 61.48228
823.00 62.39052
823.10 63.63067
823.20 64.69485
823.30 65.05951
823.40 64.19648
823.50 62.60421
823.60 61.6106
823.70 61.89677
823.80 63.23754
823.90 64.91349
824.00 66.22899
824.10 67.09473
824.20 67.63624
824.30 67.56958
824.40 66.75822
824.50 65.90419
824.60 65.83663
824.70 66.86857
824.80 68.89986
824.90 70.7645
825.00 70.91944
825.10 69.17408
825.20 66.32879
825.30 63.40702
825.40 61.43014
825.50 60.56065
825.60 60.01626
825.70 59.37066
825.80 58.84991
825.90 59.10811
826.00 60.61552
826.10 62.6564
826.20 64.45989
826.30 65.75165
826.40 66.44142
826.50 67.0028
826.60 67.38001
826.70 67.36161
826.80 67.20018
826.90 66.69069
827.00 65.76868
827.10 64.56553
827.20 62.90117
827.30 60.76647
827.40 58.59426
827.50 57.54462
827.60 58.36023
827.70 59.87687
827.80 60.79838
827.90 61.09454
828.00 60.72523
828.10 59.7855
828.20 58.53673
828.30 57.00788
828.40 55.91892
828.50 56.11195
828.60 57.06131
828.70 57.65543
828.80 57.32023
828.90 55.39385
829.00 52.327
829.10 50.22414
829.20 49.94476
829.30 50.92922
829.40 52.1948
829.50 52.74977
829.60 52.96907
829.70 53.66268
829.80 54.52121
829.90 54.86227
830.00 49.75963
830.10 49.23852
830.20 48.71742
830.30 48.43829
830.40 48.15917
830.50 48.39903
830.60 48.63889
830.70 49.19883
830.80 49.75877
830.90 51.0773
831.00 52.39584
831.10 53.42883
831.20 54.46183
831.30 53.81666
831.40 53.1715
831.50 53.37886
831.60 53.58621
831.70 54.30472
831.80 55.02323
831.90 55.15031
832.00 55.2774
832.10 55.52676
832.20 55.77611
832.30 55.86661
832.40 55.9571
832.50 55.526
832.60 55.09489
832.70 55.00389
832.80 54.9129
832.90 55.95188
833.00 56.99087
833.10 55.80847
833.20 54.62607
833.30 55.30697
833.40 55.98787
833.50 54.8911
833.60 53.79434
833.70 53.23308
833.80 52.67182
833.90 53.89096
834.00 55.1101
834.10 55.41129
834.20 55.71249
834.30 56.56502
834.40 57.41755
834.50 54.42271
834.60 51.42786
834.70 50.20272
834.80 48.97758
834.90 50.19132
835.00 51.40506
835.10 52.86985
835.20 54.33464
835.30 54.568
835.40 54.80136
835.50 54.60354
835.60 54.40573
835.70 55.32257
835.80 56.2394
835.90 56.2319
836.00 56.2244
836.10 56.48689
836.20 56.74937
836.30 56.93378
836.40 57.11819
836.50 56.98214
836.60 56.8461
836.70 57.47154
836.80 58.09699
836.90 59.88946
837.00 61.68193
837.10 59.70125
837.20 57.72057
837.30 57.71583
837.40 57.71109
837.50 55.83678
837.60 53.96247
837.70 53.23922
837.80 52.51597
837.90 53.6606
838.00 54.80524
838.10 56.4084
838.20 58.01157
838.30 56.57722
838.40 55.14287
838.50 54.98442
838.60 54.82597
838.70 53.36582
838.80 51.90568
838.90 49.88923
839.00 47.87279
839.10 48.54932
839.20 49.22585
839.30 50.49052
839.40 51.7552
839.50 52.78532
839.60 53.81544
839.70 54.67656
839.80 55.53768
839.90 56.79224
840.00 58.04679
840.10 54.19942
840.20 56.45131
840.30 57.37662
840.40 57.42394
840.50 57.71851
840.60 58.68725
840.70 59.65543
840.80 59.81246
840.90 59.89845
841.00 62.20537
841.10 66.07073
841.20 67.88333
841.30 63.99127
841.40 60.15359
841.50 57.84087
841.60 55.52345
841.70 57.8597
841.80 63.46996
841.90 66.25555
842.00 61.80581
842.10 57.44441
842.20 55.38945
842.30 53.40846
842.40 52.65172
842.50 52.40157
842.60 52.43824
842.70 53.29312
842.80 54.16476
842.90 54.34604
843.00 54.42853
843.10 54.97893
843.20 55.73463
843.30 55.09283
843.40 52.11234
843.50 49.22336
843.60 45.40672
843.70 41.46463
843.80 39.86309
843.90 38.85391
844.00 39.92537
844.10 44.96686
844.20 49.67156
844.30 44.20796
844.40 38.84986
844.50 34.53758
844.60 30.66621
844.70 29.13128
844.80 31.43632
844.90 33.71267
845.00 35.79894
845.10 37.97576
845.20 35.55309
845.30 31.53358
845.40 28.80578
845.50 28.2324
845.60 27.80694
845.70 28.12162
845.80 28.40677
845.90 28.56497
846.00 28.7053
846.10 29.62891
846.20 31.50903
846.30 33.20535
846.40 34.06379
846.50 35.00726
846.60 31.6139
846.70 26.83349
846.80 25.74484
846.90 29.61489
847.00 32.93224
847.10 30.38326
847.20 27.8605
847.30 28.23385
847.40 29.52978
847.50 30.15508
847.60 30.00544
847.70 30.17189
847.80 31.32893
847.90 32.51303
848.00 33.00744
848.10 33.44856
848.20 33.67509
848.30 33.73571
848.40 33.8184
848.50 33.70597
848.60 33.57838
848.70 33.60862
848.80 33.69393
848.90 33.51292
849.00 32.94836
849.10 32.56854
849.20 33.24459
849.30 33.90379
849.40 33.76834
849.50 33.56121
849.60 33.52429
849.70 34.00287
849.80 34.25511
849.90 33.14775
850.00 32.05317
850.10 34.93269
850.20 38.34085
850.30 39.08706
850.40 37.39596
850.50 35.85495
850.60 36.1447
850.70 36.47281
850.80 33.7144
850.90 30.56465
851.00 30.06695
851.10 31.18372
851.20 32.6682
851.30 35.03823
851.40 37.35165
851.50 36.92815
851.60 36.31814
851.70 33.88356
851.80 30.43095
851.90 28.19979
852.00 28.8571
852.10 29.53351
852.20 29.0449
852.30 28.48685
852.40 30.01975
852.50 32.55008
852.60 34.82811
852.70 36.45766
852.80 37.95298
852.90 36.90758
853.00 35.85127
853.10 35.21253
853.20 34.85797
853.30 35.05931
853.40 36.13837
853.50 37.20477
853.60 36.09908
853.70 35.00889
853.80 35.78455
853.90 37.46472
854.00 38.25635
854.10 37.60262
854.20 37.09145
854.30 37.22765
854.40 37.34574
854.50 38.34092
854.60 39.6489
854.70 40.15842
854.80 39.30408
854.90 38.51322
855.00 39.1448
855.10 39.77168
855.20 40.24779
855.30 40.64852
855.40 41.12483
855.50 41.88248
855.60 42.47812
855.70 41.0445
855.80 39.52507
855.90 39.00932
856.00 38.99578
856.10 38.45869
856.20 37.14405
856.30 36.17984
856.40 36.50679
856.50 36.85727
856.60 38.93783
856.70 41.32217
856.80 42.43493
856.90 42.52029
857.00 42.024
857.10 39.54226
857.20 37.08855
857.30 35.72352
857.40 34.52614
857.50 35.40849
857.60 37.7679
857.70 39.83498
857.80 40.63388
857.90 41.371
858.00 41.48657
858.10 41.60525
858.20 41.2054
858.30 40.77895
858.40 40.38958
858.50 39.49384
858.60 38.65471
858.70 41.06262
858.80 43.71764
858.90 44.96456
859.00 45.41419
859.10 45.5314
859.20 44.82962
859.30 44.07711
859.40 42.93535
859.50 41.76165
859.60 42.8157
859.70 44.84311
859.80 46.21159
859.90 46.26585
860.00 46.19654
860.10 46.32545
860.20 46.43937
860.30 47.96882
860.40 50.1771
860.50 50.66489
860.60 47.52325
860.70 44.36871
860.80 44.95863
860.90 45.5226
861.00 45.05082
861.10 44.30932
861.20 44.02946
861.30 44.30435
861.40 44.37429
861.50 43.37048
861.60 42.33735
861.70 42.52231
861.80 43.1135
861.90 43.53595
862.00 43.28263
862.10 43.14849
862.20 44.40862
862.30 45.62337
862.40 46.38921
862.50 47.13552
862.60 46.24828
862.70 44.01458
862.80 42.48066
862.90 43.82453
863.00 45.18208
863.10 43.83236
863.20 41.9272
863.30 41.91346
863.40 43.32095
863.50 44.13195
863.60 42.9946
863.70 41.90911
863.80 42.74495
863.90 43.8769
864.00 44.70135
864.10 45.30118
864.20 45.3183
864.30 43.25078
864.40 41.33788
864.50 43.80143
864.60 46.83263
864.70 46.18766
864.80 43.43569
864.90 41.56114
865.00 42.32845
865.10 43.33597
865.20 42.69788
865.30 41.93577
865.40 42.23288
865.50 43.24013
865.60 44.5155
865.70 46.30785
865.80 47.92832
865.90 48.22055
866.00 48.48634
866.10 48.30819
866.20 48.08435
866.30 47.80991
866.40 47.11386
866.50 46.69358
866.60 46.84633
866.70 46.88691
866.80 46.52566
866.90 46.21614
867.00 46.5155
867.10 48.06041
867.20 49.34265
867.30 46.54359
867.40 43.73721
867.50 44.45658
867.60 46.31224
867.70 48.43028
867.80 50.88533
867.90 52.93436
868.00 52.1434
868.10 51.37671
868.20 49.26364
868.30 46.83702
868.40 46.26118
868.50 48.1833
868.60 49.9278
868.70 48.78374
868.80 47.53778
868.90 48.16722
869.00 49.30327
869.10 48.19497
869.20 45.11812
869.30 42.35533
869.40 40.5322
869.50 38.7004
869.60 38.76537
869.70 39.04877
869.80 39.37525
869.90 39.01368
870.00 38.82542
870.10 39.95104
870.20 41.18038
870.30 42.28546
870.40 43.34951
870.50 43.85308
870.60 43.98231
870.70 44.56146
870.80 46.10935
870.90 47.32836
871.00 44.49048
871.10 41.58915
871.20 41.95737
871.30 43.90689
871.40 44.71288
871.50 42.85235
871.60 40.91721
871.70 42.17977
871.80 43.47517
871.90 43.65084
872.00 43.30254
872.10 43.32085
872.20 43.48311
872.30 43.5838
872.40 42.74067
872.50 41.89085
872.60 42.46306
872.70 43.5257
872.80 45.34958
872.90 47.204
873.00 48.55425
873.10 49.55563
873.20 50.49975
873.30 49.5978
873.40 48.33925
873.50 47.53125
873.60 46.99736
873.70 46.64994
873.80 45.57628
873.90 44.43021
874.00 45.30647
874.10 46.59827
874.20 47.98719
874.30 49.03427
874.40 50.63
874.50 53.45235
874.60 55.99372
874.70 56.35338
874.80 56.54776
874.90 55.09376
875.00 53.04777
875.10 51.8463
875.20 51.8379
875.30 51.95373
875.40 53.19311
875.50 54.48434
875.60 53.63455
875.70 51.68073
875.80 50.82723
875.90 52.93195
876.00 55.24262
876.10 56.05321
876.20 56.69544
876.30 55.79338
876.40 54.53785
876.50 53.09138
876.60 51.87833
876.70 50.90166
876.80 51.60677
876.90 52.44331
877.00 53.95452
877.10 55.34451
877.20 57.05137
877.30 58.77521
877.40 60.57542
877.50 64.03515
877.60 67.38498
877.70 67.27341
877.80 66.23117
877.90 64.02187
878.00 62.34061
878.10 61.02068
878.20 59.55895
878.30 58.27741
878.40 59.46694
878.50 61.06466
878.60 63.15202
878.70 65.78303
878.80 67.58778
878.90 67.58133
879.00 67.72001
879.10 67.1869
879.20 66.45564
879.30 65.82392
879.40 65.26748
879.50 64.91025
879.60 65.64678
879.70 66.54193
879.80 67.4492
879.90 68.26357
880.00 68.30185
880.10 68.41519
880.20 66.59221
880.30 62.80449
880.40 59.52406
880.50 58.44452
880.60 57.48479
880.70 58.43428
880.80 59.80895
880.90 59.92747
881.00 58.21066
881.10 57.18705
881.20 62.63421
881.30 67.86816
881.40 70.56281
881.50 72.32117
881.60 73.66405
881.70 74.93019
881.80 76.16372
881.90 76.55196
882.00 76.71529
882.10 74.63393
882.20 72.08307
882.30 68.90718
882.40 66.07002
882.50 63.21731
882.60 59.3418
882.70 55.84765
882.80 58.41405
882.90 62.09893
883.00 65.57485
883.10 68.49699
883.20 71.21284
883.30 72.86009
883.40 74.22821
883.50 73.80161
883.60 73.226
883.70 73.12146
883.80 73.28067
883.90 74.31453
884.00 77.91148
884.10 81.41017
884.20 79.75254
884.30 77.56228
884.40 76.4051
884.50 76.26145
884.60 74.73339
884.70 71.26822
884.80 67.91812
884.90 63.82706
885.00 59.83084
885.10 60.86736
885.20 63.94268
885.30 69.11638
885.40 75.38064
885.50 80.65053
885.60 80.95919
885.70 80.95772
885.80 76.30979
885.90 70.65049
886.00 65.76224
886.10 62.36599
886.20 58.85234
886.30 54.36941
886.40 50.37909
886.50 50.66126
886.60 51.53936
886.70 54.32739
886.80 58.23983
886.90 60.05297
887.00 57.25664
887.10 54.23605
887.20 50.67281
887.30 47.1704
887.40 45.85332
887.50 44.8074
887.60 44.67591
887.70 46.45737
887.80 48.3916
887.90 50.95742
888.00 53.54938
888.10 55.14368
888.20 56.38828
888.30 55.98395
888.40 53.4139
888.50 51.06216
888.60 51.31905
888.70 51.72255
888.80 51.0746
888.90 49.38747
889.00 50.29676
889.10 55.4977
889.20 60.31045
889.30 60.24381
889.40 60.04389
889.50 58.05408
889.60 55.50962
889.70 53.84615
889.80 54.3159
889.90 55.33789
890.00 56.91151
890.10 58.64065
890.20 60.87179
890.30 62.97421
890.40 65.59165
890.50 69.63502
890.60 72.95694
890.70 73.27175
890.80 73.38964
890.90 69.6768
891.00 65.18062
891.10 62.83151
891.20 62.78928
891.30 62.91611
891.40 62.29733
891.50 61.95142
891.60 63.03739
891.70 64.21897
891.80 64.78242
891.90 65.69835
892.00 66.84142
892.10 67.38677
892.20 67.61751
892.30 66.72356
892.40 65.78127
892.50 64.84031
892.60 64.13199
892.70 64.36736
892.80 66.08789
892.90 67.89982
893.00 67.53328
893.10 67.24259
893.20 69.32776
893.30 72.18496
893.40 74.44066
893.50 76.02251
893.60 76.85376
893.70 75.65119
893.80 74.20372
893.90 69.78226
894.00 64.73139
894.10 61.8821
894.20 60.27158
894.30 59.34581
894.40 59.77343
894.50 60.03483
894.60 59.31934
894.70 58.42502
894.80 59.79177
894.90 62.23775
895.00 63.80705
895.10 63.6164
895.20 63.33354
895.30 62.30003
895.40 61.27208
895.50 61.52607
895.60 62.41507
895.70 63.98766
895.80 66.43252
895.90 68.66188
896.00 69.59363
896.10 70.40379
896.20 70.5956
896.30 70.75111
896.40 70.58373
896.50 68.73194
896.60 66.64333
896.70 66.06913
896.80 65.64702
896.90 66.22436
897.00 67.21353
897.10 68.69447
897.20 69.56549
897.30 70.0632
897.40 71.49773
897.50 73.06313
897.60 74.80124
897.70 76.37306
897.80 76.97619
897.90 76.38342
898.00 75.2722
898.10 75.8234
898.20 76.48699
898.30 75.88275
898.40 74.7207
898.50 76.82845
898.60 80.79064
898.70 83.9775
898.80 84.36428
898.90 84.19909
899.00 81.13653
899.10 77.82169
899.20 76.71039
899.30 77.15789
899.40 77.90681
899.50 78.98036
899.60 79.98366
899.70 77.98161
899.80 75.64628
899.90 74.50659
900.00 74.34391
900.10 74.60386
900.20 75.39651
900.30 76.73974
900.40 80.27974
900.50 83.90072
900.60 87.45377
900.70 91.07777
900.80 91.24268
900.90 87.31647
901.00 83.4193
901.10 83.28809
901.20 83.42298
901.30 83.63
901.40 83.39491
901.50 83.15384
901.60 83.61598
901.70 83.6338
901.80 82.23597
901.90 80.91286
902.00 78.90047
902.10 76.70828
902.20 75.22723
902.30 74.55602
902.40 73.9955
902.50 74.13929
902.60 74.38997
902.70 73.7782
902.80 72.96716
902.90 73.40974
903.00 74.58474
903.10 75.77488
903.20 75.98863
903.30 76.32596
903.40 78.3729
903.50 80.49296
903.60 82.54938
903.70 84.66951
903.80 86.46979
903.90 87.54438
904.00 88.38865
904.10 86.72713
904.20 85.01094
904.30 84.39915
904.40 84.61624
904.50 84.90655
904.60 84.99054
904.70 85.63645
904.80 87.38603
904.90 89.11381
905.00 90.31827
905.10 91.44392
905.20 89.45796
905.30 85.57005
905.40 82.30304
905.50 80.11343
905.60 77.94835
905.70 77.86538
905.80 78.26386
905.90 78.59733
906.00 78.60181
906.10 78.82969
906.20 79.33699
906.30 79.88269
906.40 79.81219
906.50 79.57329
906.60 78.94964
906.70 79.02919
906.80 78.73697
906.90 76.9211
907.00 75.35141
907.10 76.88822
907.20 78.61563
907.30 79.24682
907.40 78.85538
907.50 78.25704
907.60 78.02096
907.70 77.95032
907.80 81.24841
907.90 84.65721
908.00 86.25917
908.10 86.80258
908.20 86.3572
908.30 85.97846
908.40 85.1667
908.50 83.6461
908.60 82.29048
908.70 81.4139
908.80 80.46324
908.90 81.09776
909.00 83.91151
909.10 86.33477
909.20 86.21454
909.30 86.27646
909.40 87.19306
909.50 88.1862
909.60 89.11243
909.70 90.11707
909.80 91.07451
909.90 92.78709
910.00 94.57285
910.10 94.21483
910.20 93.63467
910.30 92.91006
910.40 92.45752
910.50 92.13438
910.60 92.6037
910.70 93.11245
910.80 90.29169
910.90 87.55049
911.00 88.89608
911.10 91.65076
911.20 94.09113
911.30 96.16052
911.40 97.79154
911.50 96.73379
911.60 95.55218
911.70 95.33608
911.80 95.7498
911.90 95.80454
912.00 94.69644
912.10 93.95047
912.20 93.4948
912.30 92.8425
912.40 92.26796
912.50 91.84492
912.60 91.34575
912.70 90.83347
912.80 90.31917
912.90 89.36119
913.00 88.54347
913.10 90.76012
913.20 93.39869
913.30 95.25592
913.40 96.2554
913.50 97.55594
913.60 100.414
913.70 102.8512
913.80 101.3248
913.90 99.60376
914.00 95.60331
914.10 90.57593
914.20 87.62037
914.30 87.52208
914.40 88.08047
914.50 91.81953
914.60 95.47728
914.70 97.52222
914.80 99.06934
914.90 98.24108
915.00 95.70915
915.10 93.52054
915.20 93.37445
915.30 93.56189
915.40 94.86554
915.50 96.05702
915.60 100.0753
915.70 106.6037
915.80 110.8635
915.90 108.321
916.00 105.6822
916.10 103.3254
916.20 101.1124
916.30 99.40822
916.40 98.36979
916.50 98.64558
916.60 100.0593
916.70 101.4915
916.80 103.92
916.90 106.4263
917.00 106.236
917.10 104.7748
917.20 103.6174
917.30 103.7524
917.40 103.7547
917.50 102.4807
917.60 101.3032
917.70 101.4564
917.80 101.9208
917.90 102.6983
918.00 103.7818
918.10 104.9723
918.20 105.3897
918.30 105.7028
918.40 105.096
918.50 104.3537
918.60 102.6322
918.70 100.4109
918.80 100.2138
918.90 107.1566
919.00 114.236
919.10 116.9838
919.20 118.8402
919.30 116.2972
919.40 112.3083
919.50 108.6019
919.60 107.25
919.70 106.6158
919.80 109.502
919.90 112.5398
920.00 113.767
920.10 113.8556
920.20 113.376
920.30 113.4053
920.40 113.6422
920.50 112.7603
920.60 111.8473
920.70 109.0614
920.80 105.67
920.90 101.3694
921.00 97.43534
921.10 94.49066
921.20 92.52352
921.30 90.59719
921.40 93.97301
921.50 98.8414
921.60 101.7516
921.70 102.7413
921.80 103.5467
921.90 103.2761
922.00 102.9842
922.10 100.7755
922.20 98.20084
922.30 96.73152
922.40 96.20786
922.50 95.53446
922.60 94.19069
922.70 93.02007
922.80 92.95162
922.90 92.90506
923.00 93.50142
923.10 94.87876
923.20 94.867
923.30 93.18764
923.40 92.04868
923.50 89.6451
923.60 87.13252
923.70 87.87305
923.80 90.05725
923.90 91.47303
924.00 92.18889
924.10 93.29313
924.20 96.18153
924.30 98.9513
924.40 100.2036
924.50 100.928
924.60 99.09473
924.70 95.50013
924.80 92.22765
924.90 91.71199
925.00 91.38253
925.10 90.90893
925.20 90.1946
925.30 89.83865
925.40 89.94829
925.50 90.45366
925.60 91.28701
925.70 92.27817
925.80 95.50852
925.90 98.95983
926.00 100.011
926.10 100.5384
926.20 100.1162
926.30 97.79137
926.40 95.83732
926.50 97.09813
926.60 98.47223
926.70 100.5091
926.80 102.3266
926.90 102.9397
927.00 102.9419
927.10 102.7355
927.20 101.9648
927.30 101.1629
927.40 99.66447
927.50 98.05411
927.60 95.59376
927.70 92.0045
927.80 88.54822
927.90 86.51665
928.00 84.88904
928.10 87.24808
928.20 90.16772
928.30 92.09432
928.40 93.08454
928.50 94.35243
928.60 96.12738
928.70 97.41614
928.80 96.18474
928.90 94.82831
929.00 94.14083
929.10 93.41146
929.20 92.55685
929.30 91.96078
929.40 91.59617
929.50 92.89145
929.60 94.23966
929.70 94.18716
929.80 93.38087
929.90 90.97064
930.00 87.05609
930.10 83.43544
930.20 84.59988
930.30 85.86905
930.40 87.14928
930.50 88.02346
930.60 87.65068
930.70 86.12788
930.80 85.03029
930.90 85.67748
931.00 86.40087
931.10 88.56228
931.20 90.87226
931.30 93.44341
931.40 96.33982
931.50 98.07313
931.60 97.19255
931.70 96.38641
931.80 94.25015
931.90 92.02103
932.00 89.74318
932.10 87.92703
932.20 87.20051
932.30 89.42888
932.40 91.66721
932.50 94.20791
932.60 96.622
932.70 96.65696
932.80 95.5218
932.90 94.91208
933.00 94.88645
933.10 94.81127
933.20 95.03393
933.30 95.2591
933.40 92.99638
933.50 89.79032
933.60 89.19131
933.70 92.35986
933.80 95.19538
933.90 94.66344
934.00 94.11411
934.10 95.93913
934.20 98.11564
934.30 96.93056
934.40 93.08383
934.50 91.16508
934.60 95.24686
934.70 99.32573
934.80 99.07003
934.90 98.27296
935.00 98.98347
935.10 96.64306
935.20 94.3022
935.30 93.22322
935.40 92.98168
935.50 92.73148
935.60 93.11136
935.70 93.57247
935.80 93.81372
935.90 93.87608
936.00 93.95813
936.10 94.86413
936.20 96.72457
936.30 98.59829
936.40 99.13831
936.50 98.90345
936.60 98.52452
936.70 96.25676
936.80 94.00856
936.90 92.2761
937.00 91.23095
937.10 90.18613
937.20 88.26292
937.30 85.99663
937.40 83.70551
937.50 86.51435
937.60 89.92938
937.70 92.87945
937.80 93.73634
937.90 94.57803
938.00 95.02442
938.10 94.94689
938.20 94.87558
938.30 94.46919
938.40 93.99651
938.50 93.56647
938.60 94.90185
938.70 96.24781
938.80 97.31872
938.90 97.88276
939.00 98.44688
939.10 98.59834
939.20 98.42701
939.30 98.26439
939.40 98.1181
939.50 97.92072
939.60 97.63274
939.70 96.10934
939.80 94.52856
939.90 93.18323
940.00 92.67458
940.10 92.15894
940.20 92.6457
940.30 93.49455
940.40 94.3577
940.50 95.1893
940.60 96.1126
940.70 97.28305
940.80 99.26522
940.90 101.2485
941.00 102.3527
941.10 102.5206
941.20 102.7157
941.30 101.8891
941.40 100.7529
941.50 99.53698
941.60 97.53843
941.70 95.51973
941.80 94.34083
941.90 94.79149
942.00 95.24662
942.10 95.87078
942.20 96.71059
942.30 97.54914
942.40 98.84554
942.50 100.0658
942.60 100.9561
942.70 100.5975
942.80 100.2387
942.90 99.63207
943.00 99.2454
943.10 98.83347
943.20 100.3397
943.30 102.2337
943.40 104.1386
943.50 105.2808
943.60 106.3511
943.70 106.2671
943.80 104.1095
943.90 101.9528
944.00 100.9118
944.10 100.3776
944.20 99.83059
944.30 98.70366
944.40 97.6651
944.50 96.79755
944.60 96.74164
944.70 96.68646
944.80 97.49309
944.90 99.12575
945.00 100.7556
945.10 100.4642
945.20 99.74331
945.30 99.18207
945.40 99.60075
945.50 99.96128
945.60 100.1345
945.70 100.1796
945.80 100.2306
945.90 100.3093
946.00 100.2631
946.10 100.1899
946.20 101.4445
946.30 102.9786
946.40 104.2773
946.50 104.3402
946.60 104.3995
946.70 104.8635
946.80 105.665
946.90 106.4597
947.00 105.9347
947.10 105.0914
947.20 104.3959
947.30 105.2513
947.40 106.0921
947.50 106.7531
947.60 107.2784
947.70 107.804
947.80 109.468
947.90 111.6944
948.00 113.9116
948.10 113.2659
948.20 112.4376
948.30 111.7445
948.40 111.6058
948.50 111.4673
948.60 112.416
948.70 114.2974
948.80 116.1888
948.90 116.5377
949.00 116.5401
949.10 116.5424
949.20 116.8158
949.30 117.0775
949.40 116.5055
949.50 113.8571
949.60 111.2092
949.70 111.4439
949.80 113.6416
949.90 115.7909
950.00 115.1987
950.10 114.3432
950.20 113.7073
950.30 114.0609
950.40 114.4123
950.50 114.3546
950.60 113.5261
950.70 112.6832
950.80 112.821
950.90 113.3795
951.00 113.9481
951.10 114.8364
951.20 115.7117
951.30 115.6175
951.40 113.3821
951.50 111.1475
951.60 110.0661
951.70 109.7089
951.80 109.3533
951.90 109.6365
952.00 109.9982
952.10 110.4111
952.20 111.6062
952.30 112.8021
952.40 113.969
952.50 115.3136
952.60 116.6613
952.70 117.4014
952.80 117.8408
952.90 118.3363
953.00 118.707
953.10 119.019
953.20 118.9597
953.30 118.1429
953.40 117.3263
953.50 116.3989
953.60 115.276
953.70 114.1545
953.80 113.409
953.90 112.8578
954.00 112.6145
954.10 113.4105
954.20 114.2086
954.30 114.9134
954.40 115.5653
954.50 116.2344
954.60 116.8853
954.70 117.5841
954.80 118.2008
954.90 117.8323
955.00 117.4406
955.10 117.3787
955.20 118.0206
955.30 118.6681
955.40 118.8757
955.50 118.845
955.60 118.8072
955.70 118.7783
955.80 118.8172
955.90 119.0319
956.00 119.7177
956.10 120.4027
956.20 121.0592
956.30 121.3358
956.40 121.628
956.50 120.0917
956.60 118.0913
956.70 116.208
956.80 117.5018
956.90 118.8752
957.00 120.2704
957.10 121.5067
957.20 122.7377
957.30 122.7718
957.40 121.9367
957.50 121.132
957.60 118.9151
957.70 116.5581
957.80 114.7429
957.90 115.2333
958.00 115.7249
958.10 115.812
958.20 115.7571
958.30 115.7182
958.40 115.2872
958.50 114.6963
958.60 114.0698
958.70 112.367
958.80 110.6157
958.90 109.1677
959.00 107.9778
959.10 106.7785
959.20 106.3135
959.30 106.61
959.40 106.8755
959.50 107.0663
959.60 107.2291
959.70 107.1103
959.80 104.7893
959.90 102.4657
960.00 101.4346
960.10 101.8709
960.20 102.2392
960.30 104.8423
960.40 108.2979
960.50 111.5306
960.60 112.4555
960.70 113.3459
960.80 114.2378
960.90 114.8021
961.00 115.3809
961.10 115.3724
961.20 114.975
961.30 114.5885
961.40 112.2313
961.50 109.7184
961.60 108.1025
961.70 109.7668
961.80 111.4236
961.90 113.0267
962.00 114.8929
962.10 116.7778
962.20 117.0822
962.30 116.86
962.40 116.814
962.50 117.785
962.60 118.7555
962.70 119.6239
962.80 120.4797
962.90 121.3439
963.00 119.3409
963.10 115.8882
963.20 112.4533
963.30 112.2241
963.40 112.0699
963.50 111.4078
963.60 109.0163
963.70 106.644
963.80 103.394
963.90 99.01058
964.00 94.53479
964.10 95.78947
964.20 98.68295
964.30 101.4198
964.40 105.4443
964.50 109.466
964.60 111.7814
964.70 110.8017
964.80 109.8399
964.90 109.728
965.00 109.982
965.10 110.1829
965.20 109.2938
965.30 108.3806
965.40 107.8951
965.50 108.6349
965.60 109.3798
965.70 110.6504
965.80 112.4067
965.90 114.1604
966.00 115.6056
966.10 116.9792
966.20 118.26
966.30 118.7699
966.40 119.2798
966.50 119.7536
966.60 120.006
966.70 120.2754
966.80 119.8687
966.90 119.2017
967.00 118.487
967.10 117.7121
967.20 116.9374
967.30 116.1901
967.40 115.1822
967.50 114.1961
967.60 112.9324
967.70 111.2695
967.80 109.492
967.90 111.1136
968.00 113.464
968.10 115.4522
968.20 116.6207
968.30 117.794
968.40 118.0414
968.50 116.5635
968.60 115.1025
968.70 113.9802
968.80 112.9256
968.90 111.9367
969.00 112.4117
969.10 112.9428
969.20 113.8331
969.30 116.0853
969.40 118.3272
969.50 119.5835
969.60 120.1956
969.70 120.8646
969.80 122.3214
969.90 123.802
970.00 124.7161
970.10 123.2501
970.20 121.7882
970.30 120.8935
970.40 120.4379
970.50 120.0531
970.60 117.5782
970.70 114.3737
970.80 111.3385
970.90 114.1941
971.00 117.1031
971.10 120.0178
971.20 123.6225
971.30 127.2564
971.40 128.5035
971.50 128.287
971.60 128.1222
971.70 129.4312
971.80 130.7899
971.90 131.7554
972.00 130.9273
972.10 130.0981
972.20 128.7713
972.30 126.993
972.40 125.1782
972.50 124.2437
972.60 123.559
972.70 122.757
972.80 119.6873
972.90 116.613
973.00 113.8447
973.10 111.3807
973.20 108.8246
973.30 110.344
973.40 114.0424
973.50 117.7458
973.60 117.5908
973.70 117.2963
973.80 117.3231
973.90 117.8985
974.00 118.4727
974.10 117.8298
974.20 116.1506
974.30 114.5303
974.40 112.9668
974.50 111.3575
974.60 109.9837
974.70 111.0339
974.80 112.0758
974.90 113.4647
975.00 115.57
975.10 117.7104
975.20 119.4082
975.30 120.8982
975.40 122.331
975.50 120.6931
975.60 119.0509
975.70 118.4284
975.80 119.9375
975.90 121.4287
976.00 122.1106
976.10 122.2646
976.20 122.4707
976.30 122.8929
976.40 123.3262
976.50 123.6359
976.60 123.9304
976.70 124.2318
976.80 124.0074
976.90 123.0583
977.00 122.168
977.10 121.4556
977.20 120.6989
977.30 119.9155
977.40 121.5412
977.50 123.1749
977.60 124.5216
977.70 125.6483
977.80 126.8038
977.90 127.0944
978.00 126.7895
978.10 126.5679
978.20 123.2949
978.30 119.7691
978.40 116.9366
978.50 115.998
978.60 115.0163
978.70 114.7561
978.80 115.4849
978.90 116.179
979.00 117.8913
979.10 119.8663
979.20 121.8466
979.30 125.0369
979.40 128.2314
979.50 130.9684
979.60 132.7853
979.70 134.6605
979.80 134.556
979.90 133.4898
980.00 132.3842
980.10 132.4897
980.20 132.6133
980.30 132.5526
980.40 131.9474
980.50 131.3447
980.60 130.5173
980.70 129.4957
980.80 128.4741
980.90 128.504
981.00 128.7224
981.10 128.9904
981.20 129.8096
981.30 130.6352
981.40 130.4309
981.50 128.797
981.60 127.1841
981.70 126.6684
981.80 126.5587
981.90 126.3227
982.00 125.9599
982.10 125.597
982.20 125.2607
982.30 124.7973
982.40 124.3279
982.50 125.0037
982.60 126.4084
982.70 127.7964
982.80 127.7561
982.90 127.5859
983.00 127.6088
983.10 128.0765
983.20 128.5384
983.30 128.2999
983.40 127.3953
983.50 126.499
983.60 125.7447
983.70 125.0125
983.80 124.3784
983.90 124.8899
984.00 125.397
984.10 126.0006
984.20 126.8833
984.30 127.7795
984.40 128.6708
984.50 129.5316
984.60 130.392
984.70 130.2386
984.80 130.0664
984.90 129.6317
985.00 128.4046
985.10 127.196
985.20 126.0678
985.30 124.9533
985.40 123.7959
985.50 125.0709
985.60 126.799
985.70 128.5597
985.80 130.685
985.90 132.8178
986.00 133.6459
986.10 132.7244
986.20 131.7991
986.30 131.6729
986.40 131.8352
986.50 131.9433
986.60 131.4539
986.70 130.966
986.80 130.0634
986.90 128.0589
987.00 126.0495
987.10 126.3388
987.20 128.0627
987.30 129.6897
987.40 132.6802
987.50 135.8118
987.60 138.068
987.70 136.7422
987.80 135.4387
987.90 133.7002
988.00 131.4408
988.10 129.1653
988.20 129.824
988.30 131.2262
988.40 132.6533
988.50 135.1871
988.60 137.7245
988.70 138.9144
988.80 137.94
988.90 136.99
989.00 135.9153
989.10 134.763
989.20 133.6211
989.30 131.5332
989.40 129.4233
989.50 126.2245
989.60 119.8793
989.70 113.5849
989.80 107.8821
989.90 102.5365
990.00 97.05832
990.10 95.39796
990.20 94.36131
990.30 92.84373
990.40 88.79566
990.50 84.76184
990.60 81.01608
990.70 77.54167
990.80 74.01852
990.90 73.29772
991.00 73.51484
991.10 73.66295
991.20 74.58315
991.30 75.51083
991.40 75.5569
991.50 73.71668
991.60 71.87547
991.70 71.1732
991.80 71.12691
991.90 70.95284
992.00 74.07438
992.10 77.41808
992.20 79.85092
992.30 78.86966
992.40 77.92763
992.50 76.39131
992.60 74.22347
992.70 71.93808
992.80 75.05115
992.90 79.38695
993.00 83.55272
993.10 86.8287
993.20 90.12661
993.30 91.35708
993.40 89.50386
993.50 87.67194
993.60 88.38745
993.70 90.16882
993.80 91.85026
993.90 95.91981
994.00 99.9932
994.10 102.8567
994.20 102.7968
994.30 102.7948
994.40 102.1969
994.50 101.1425
994.60 100.0692
994.70 101.2582
994.80 102.7116
994.90 104.3698
995.00 107.2972
995.10 110.2289
995.20 112.3191
995.30 113.4917
995.40 114.6736
995.50 114.0246
995.60 112.8753
995.70 111.7366
995.80 109.3587
995.90 106.9694
996.00 105.2801
996.10 104.8331
996.20 104.3391
996.30 106.4228
996.40 109.7529
996.50 113.0041
996.60 116.3995
996.70 119.7795
996.80 120.486
996.90 113.4864
997.00 106.5634
997.10 99.90492
997.20 93.37123
997.30 86.72779
997.40 86.71004
997.50 87.75261
997.60 89.13833
997.70 93.1984
997.80 97.25502
997.90 100.4124
998.00 102.514
998.10 104.6289
998.20 104.8821
998.30 104.5217
998.40 104.173
998.50 101.3215
998.60 98.46258
998.70 96.58595
998.80 96.56158
998.90 96.49358
999.00 96.41365
999.10 96.37733
999.20 96.37
999.30 96.51772
999.40 96.67222
999.50 96.58884
999.60 95.87396
999.70 95.1924
999.80 96.0656
999.90 98.29438
1000.00 100.4246
1000.10 104.503
1000.20 108.874
1000.30 112.8878
1000.40 114.4693
1000.50 116.0734
1000.60 116.2575
1000.70 114.436
1000.80 112.6822
1000.90 109.3339
1001.00 105.4591
1001.10 101.6625
1001.20 101.6976
1001.30 101.715
1001.40 102.4514
1001.50 104.7471
1001.60 107.0263
1001.70 110.1072
1001.80 113.7074
1001.90 117.4125
1002.00 115.8434
1002.10 113.8722
1002.20 112.4581
1002.30 112.8949
1002.40 113.2843
1002.50 113.9495
1002.60 114.798
1002.70 115.6829
1002.80 115.2379
1002.90 114.6149
1003.00 114.1028
1003.10 113.3593
1003.20 112.609
1003.30 111.4173
1003.40 109.7303
1003.50 108.0617
1003.60 105.4649
1003.70 102.5005
1003.80 99.63954
1003.90 102.1152
1004.00 104.5769
1004.10 107.8369
1004.20 112.9746
1004.30 118.1124
1004.40 120.5101
1004.50 121.1963
1004.60 122.0008
1004.70 120.4959
1004.80 118.8454
1004.90 116.4319
1005.00 111.2831
1005.10 106.1622
1005.20 100.7482
1005.30 95.05452
1005.40 89.31267
1005.50 87.56181
1005.60 86.65041
1005.70 86.21084
1005.80 89.51055
1005.90 92.79478
1006.00 96.05467
1006.10 99.3517
1006.20 102.6983
1006.30 102.0935
1006.40 100
1006.50 98.00965
1006.60 101.2918
1006.70 104.5642
1006.80 108.289
1006.90 112.9966
1007.00 117.7467
1007.10 118.5046
1007.20 116.9292
1007.30 115.4425
1007.40 115.2695
1007.50 115.2068
1007.60 115.7521
1007.70 118.6581
1007.80 121.5655
1007.90 123.1155
1008.00 123.4882
1008.10 123.9064
1008.20 123.7746
1008.30 123.5156
1008.40 123.5385
1008.50 125.6992
1008.60 127.8544
1008.70 128.0386
1008.80 125.5379
1008.90 123.1185
1009.00 120.3008
1009.10 117.4115
1009.20 114.58
1009.30 114.1625
1009.40 113.7319
1009.50 114.6024
1009.60 118.324
1009.70 122.0366
1009.80 126.2036
1009.90 130.6063
1010.00 135.002
1010.10 138.3347
1010.20 141.5576
1010.30 143.5264
1010.40 141.2484
1010.50 139.0176
1010.60 137.0033
1010.70 135.2002
1010.80 133.4102
1010.90 130.1061
1011.00 126.428
1011.10 122.8288
1011.20 120.0585
1011.30 117.2732
1011.40 115.0986
1011.50 113.6849
1011.60 112.2611
1011.70 110.6785
1011.80 109.0638
1011.90 107.5645
1012.00 111.7041
1012.10 115.8245
1012.20 120.6116
1012.30 126.9363
1012.40 133.3092
1012.50 136.0789
1012.60 136.6443
1012.70 137.3267
1012.80 136.8455
1012.90 136.3988
1013.00 135.9743
1013.10 135.6544
1013.20 135.3553
1013.30 132.8401
1013.40 128.2306
1013.50 123.726
1013.60 117.8521
1013.70 111.8278
1013.80 106.5152
1013.90 106.0486
1014.00 105.5405
1014.10 106.8398
1014.20 110.6948
1014.30 114.5177
1014.40 117.3244
1014.50 119.743
1014.60 122.1219
1014.70 119.3046
1014.80 116.4861
1014.90 115.5299
1015.00 118.4365
1015.10 121.2253
1015.20 124.0956
1015.30 126.9187
1015.40 129.8917
1015.50 127.0599
1015.60 123.8455
1015.70 120.7132
1015.80 117.4213
1015.90 114.0823
1016.00 113.2122
1016.10 114.5814
1016.20 115.867
1016.30 117.6102
1016.40 119.4248
1016.50 121.2858
1016.60 123.0968
1016.70 124.8937
1016.80 126.0579
1016.90 126.34
1017.00 126.707
1017.10 124.8645
1017.20 122.2893
1017.30 119.8877
1017.40 124.7038
1017.50 129.507
1017.60 133.436
1017.70 135.5697
1017.80 137.8285
1017.90 135.4877
1018.00 130.5509
1018.10 125.6474
1018.20 122.3404
1018.30 119.0983
1018.40 116.1951
1018.50 114.9377
1018.60 113.6751
1018.70 113.4504
1018.80 114.1385
1018.90 114.712
1019.00 118.0392
1019.10 121.8958
1019.20 125.3286
1019.30 125.4303
1019.40 125.5621
1019.50 125.6515
1019.60 125.7338
1019.70 125.789
1019.80 126.3476
1019.90 127.069
1020.00 127.7761
1020.10 127.2164
1020.20 126.6458
1020.30 126.2931
1020.40 126.3596
1020.50 126.4117
1020.60 127.5467
1020.70 129.3701
1020.80 131.2135
1020.90 130.2258
1021.00 128.9878
1021.10 127.668
1021.20 126.224
1021.30 124.8234
1021.40 122.6397
1021.50 119.6935
1021.60 116.7066
1021.70 114.0224
1021.80 111.3619
1021.90 108.8678
1022.00 107.5612
1022.10 106.2362
1022.20 106.9822
1022.30 110.3833
1022.40 113.6694
1022.50 117.331
1022.60 120.9277
1022.70 124.3849
1022.80 124.0503
1022.90 123.725
1023.00 122.5383
1023.10 119.7131
1023.20 116.9154
1023.30 116.6641
1023.40 117.9952
1023.50 119.3288
1023.60 122.271
1023.70 125.2544
1023.80 127.9045
1023.90 130.0125
1024.00 132.1497
1024.10 134.5357
1024.20 136.9703
1024.30 139.3732
1024.40 137.9535
1024.50 135.8323
1024.60 133.6248
1024.70 130.6181
1024.80 127.5804
1024.90 125.3704
1025.00 124.1649
1025.10 122.9955
1025.20 120.019
1025.30 116.4814
1025.40 113.2246
1025.50 115.5798
1025.60 117.9072
1025.70 119.0124
1025.80 117.6492
1025.90 116.4182
1026.00 112.5666
1026.10 107.5946
1026.20 102.7419
1026.30 101.6817
1026.40 100.8895
1026.50 101.4235
1026.60 106.3592
1026.70 111.2269
1026.80 116.3675
1026.90 121.4136
1027.00 126.5707
1027.10 126.7867
1027.20 126.2223
1027.30 125.3554
1027.40 123.1055
1027.50 120.8631
1027.60 118.7915
1027.70 117.0363
1027.80 115.2182
1027.90 113.9878
1028.00 112.7895
1028.10 111.4534
1028.20 108.9268
1028.30 106.4046
1028.40 105.2303
1028.50 105.9804
1028.60 106.5889
1028.70 111.6967
1028.80 118.3865
1028.90 124.8725
1029.00 125.7641
1029.10 126.705
1029.20 126.331
1029.30 123.0127
1029.40 119.6774
1029.50 118.9099
1029.60 119.4605
1029.70 119.9109
1029.80 120.3095
1029.90 120.7471
1030.00 120.573
1030.10 117.8476
1030.20 115.1153
1030.30 114.5818
1030.40 116.0054
1030.50 117.3174
1030.60 122.2792
1030.70 127.8342
1030.80 132.2431
1030.90 129.3689
1031.00 126.5222
1031.10 125.2286
1031.20 126.031
1031.30 126.7435
1031.40 128.1524
1031.50 129.6013
1031.60 130.7728
1031.70 126.4838
1031.80 122.2095
1031.90 118.9421
1032.00 117.6498
1032.10 116.2845
1032.20 115.9133
1032.30 115.9645
1032.40 115.9971
1032.50 114.5594
1032.60 113.0452
1032.70 113.4838
1032.80 119.6835
1032.90 125.8359
1033.00 131.6176
1033.10 137.022
1033.20 142.502
1033.30 142.4393
1033.40 141.3697
1033.50 139.4583
1033.60 133.3509
1033.70 127.275
1033.80 122.387
1033.90 118.9083
1034.00 115.3094
1034.10 116.3586
1034.20 118.8699
1034.30 121.2138
1034.40 120.5883
1034.50 119.9626
1034.60 120.3339
1034.70 122.6044
1034.80 124.7542
1034.90 125.466
1035.00 125.0049
1035.10 124.358
1035.20 123.1594
1035.30 122.0367
1035.40 121.721
1035.50 122.5499
1035.60 123.3738
1035.70 124.7917
1035.80 126.6128
1035.90 128.4696
1036.00 131.321
1036.10 134.2209
1036.20 136.7114
1036.30 138.2669
1036.40 139.868
1036.50 140.0521
1036.60 139.0304
1036.70 137.9999
1036.80 139.1853
1036.90 140.8344
1037.00 142.7897
1037.10 146.374
1037.20 149.956
1037.30 152.3515
1037.40 153.2082
1037.50 154.1389
1037.60 150.0598
1037.70 144.3318
1037.80 138.533
1037.90 131.8102
1038.00 125.0793
1038.10 120.144
1038.20 118.7756
1038.30 117.2697
1038.40 120.3954
1038.50 125.8371
1038.60 131.2012
1038.70 133.9616
1038.80 136.4561
1038.90 137.7204
1039.00 135.4112
1039.10 133.1202
1039.20 131.4271
1039.30 130.2579
1039.40 129.0909
1039.50 127.8422
1039.60 126.5864
1039.70 125.7077
1039.80 126.8154
1039.90 127.8755
1040.00 129.9864
1040.10 133.4289
1040.20 136.8169
1040.30 138.8199
1040.40 140.0526
1040.50 141.1133
1040.60 141.8791
1040.70 142.6563
1040.80 143.3299
1040.90 143.6826
1041.00 144.0775
1041.10 140.6748
1041.20 136.0851
1041.30 131.594
1041.40 129.2314
1041.50 126.8376
1041.60 127.465
1041.70 133.7018
1041.80 139.8413
1041.90 144.2932
1042.00 147.4694
1042.10 150.488
1042.20 146.5031
1042.30 142.0709
1042.40 137.6776
1042.50 133.0188
1042.60 128.3795
1042.70 123.5997
1042.80 118.8362
1042.90 113.9797
1043.00 116.3737
1043.10 120.0393
1043.20 124.4862
1043.30 133.1946
1043.40 141.9357
1043.50 147.079
1043.60 147.644
1043.70 148.341
1043.80 147.7438
1043.90 147.0259
1044.00 146.4046
1044.10 147.0027
1044.20 147.6008
1044.30 147.5754
1044.40 146.382
1044.50 145.2116
1044.60 144.7345
1044.70 144.7191
1044.80 144.7219
1044.90 146.4007
1045.00 148.2167
1045.10 151.3178
1045.20 157.384
1045.30 163.4716
1045.40 167.3434
1045.50 169.4206
1045.60 171.4066
1045.70 169.4528
1045.80 166.835
1045.90 162.9182
1046.00 155.049
1046.10 147.1807
1046.20 141.5861
1046.30 138.1684
1046.40 134.6911
1046.50 133.4637
1046.60 132.4779
1046.70 131.3119
1046.80 128.4946
1046.90 125.6745
1047.00 123.6381
1047.10 122.8279
1047.20 121.9438
1047.30 122.7926
1047.40 124.0291
1047.50 125.2146
1047.60 126.3909
1047.70 127.5734
1047.80 127.7995
1047.90 126.2741
1048.00 124.7669
1048.10 125.3523
1048.20 127.2098
1048.30 129.2211
1048.40 131.8104
1048.50 134.3609
1048.60 136.0714
1048.70 135.9862
1048.80 135.9289
1048.90 135.9259
1049.00 136.1296
1049.10 136.3805
1049.20 137.2994
1049.30 138.2736
1049.40 138.9909
1049.50 138.6983
1049.60 138.4803
1049.70 136.5599
1049.80 133.0549
1049.90 129.4046
1050.00 129.6411
1050.10 130.6549
1050.20 131.682
1050.30 133.4992
1050.40 135.3713
1050.50 135.7364
1050.60 134.1892
1050.70 132.6565
1050.80 131.5458
1050.90 130.6204
1051.00 129.6203
1051.10 127.8318
1051.20 126.0854
1051.30 123.8226
1051.40 120.6498
1051.50 117.4202
1051.60 117.364
1051.70 118.9192
1051.80 120.3366
1051.90 120.7874
1052.00 121.165
1052.10 121.7273
1052.20 122.8859
1052.30 124.0241
1052.40 125.9735
1052.50 128.2934
1052.60 130.5709
1052.70 133.3718
1052.80 136.2001
1052.90 138.1275
1053.00 136.1991
1053.10 134.3313
1053.20 132.6592
1053.30 131.484
1053.40 130.2278
1053.50 131.0853
1053.60 132.2832
1053.70 133.2976
1053.80 133.0457
1053.90 132.8251
1054.00 132.2655
1054.10 131.4193
1054.20 130.4891
1054.30 130.917
1054.40 131.5545
1054.50 131.8903
1054.60 128.424
1054.70 124.9823
1054.80 122.7053
1054.90 122.7281
1055.00 122.6506
1055.10 125.49
1055.20 129.5916
1055.30 133.4093
1055.40 132.3526
1055.50 130.8996
1055.60 128.6659
1055.70 124.7676
1055.80 120.886
1055.90 118.7
1056.00 117.9336
1056.10 117.1654
1056.20 116.2405
1056.30 115.1895
1056.40 114.4278
1056.50 115.1582
1056.60 115.8694
1056.70 117.0218
1056.80 118.6146
1056.90 120.2613
1057.00 120.1478
1057.10 119.5446
1057.20 119.1498
1057.30 121.2736
1057.40 123.3819
1057.50 125.2577
1057.60 126.8508
1057.70 128.4814
1057.80 128.1938
1057.90 127.2666
1058.00 126.4179
1058.10 127.2987
1058.20 128.1777
1058.30 128.3546
1058.40 127.1267
1058.50 125.983
1058.60 124.2733
1058.70 122.501
1058.80 120.7591
1058.90 119.5154
1059.00 118.2639
1059.10 117.329
1059.20 117.396
1059.30 117.4646
1059.40 118.4155
1059.50 119.9036
1059.60 121.3442
1059.70 123.1347
1059.80 125.0393
1059.90 126.4288
1060.00 125.4492
1060.10 124.4701
1060.20 123.6147
1060.30 122.6487
1060.40 121.6804
1060.50 119.5458
1060.60 117.0821
1060.70 114.6283
1060.80 114.4428
1060.90 114.2396
1061.00 114.9044
1061.10 116.4732
1061.20 117.9652
1061.30 120.921
1061.40 124.3148
1061.50 127.5999
1061.60 127.6795
1061.70 127.7883
1061.80 127.1697
1061.90 125.6138
1062.00 124.0515
1062.10 122.8577
1062.20 122.0577
1062.30 121.4709
1062.40 122.9621
1062.50 124.5594
1062.60 126.6546
1062.70 130.1503
1062.80 133.6394
1062.90 135.9694
1063.00 137.2986
1063.10 138.5888
1063.20 137.3538
1063.30 135.825
1063.40 134.4953
1063.50 133.49
1063.60 132.4404
1063.70 132.8968
1063.80 135.1992
1063.90 137.4578
1064.00 139.1041
1064.10 140.4225
1064.20 141.5284
1064.30 141.6523
1064.40 141.7924
1064.50 141.3054
1064.60 139.91
1064.70 138.5108
1064.80 138.8352
1064.90 139.767
1065.00 140.6496
1065.10 139.6622
1065.20 138.6992
1065.30 136.9495
1065.40 134.4268
1065.50 131.9306
1065.60 129.5965
1065.70 127.1765
1065.80 124.82
1065.90 125.1033
1066.00 125.6121
1066.10 125.5761
1066.20 124.0132
1066.30 122.5147
1066.40 120.9216
1066.50 119.4371
1066.60 117.9436
1066.70 118.6408
1066.80 119.5961
1066.90 120.3055
1067.00 120.5844
1067.10 120.8707
1067.20 122.1204
1067.30 124.0845
1067.40 126.0481
1067.50 129.0879
1067.60 132.1721
1067.70 134.896
1067.80 136.7319
1067.90 138.5818
1068.00 139.5682
1068.10 139.4486
1068.20 139.3347
1068.30 141.5678
1068.40 144.2713
1068.50 146.7013
1068.60 147.7433
1068.70 148.7992
1068.80 148.6418
1068.90 146.7638
1069.00 144.9031
1069.10 144.5062
1069.20 144.9385
1069.30 145.2813
1069.40 143.1766
1069.50 140.8547
1069.60 138.0685
1069.70 134.6442
1069.80 131.177
1069.90 131.0445
1070.00 133.142
1070.10 135.0958
1070.20 134.5555
1070.30 133.8018
1070.40 133.6199
1070.50 134.7071
1070.60 135.7398
1070.70 137.1457
1070.80 138.438
1070.90 139.601
1071.00 138.7346
1071.10 137.7511
1071.20 137.2059
1071.30 138.6373
1071.40 140.0178
1071.50 141.9585
1071.60 144.177
1071.70 146.4951
1071.80 146.5763
1071.90 146.1904
1072.00 145.9014
1072.10 145.7735
1072.20 145.6515
1072.30 144.3177
1072.40 141.0496
1072.50 137.8466
1072.60 137.1671
1072.70 137.9372
1072.80 139.0114
1072.90 141.7346
1073.00 144.5153
1073.10 145.8294
1073.20 144.5765
1073.30 143.3942
1073.40 141.2809
1073.50 139.2541
1073.60 137.4595
1073.70 137.6956
1073.80 138.0192
1073.90 139.1581
1074.00 142.9253
1074.10 146.6954
1074.20 148.853
1074.30 149.4783
1074.40 150.1021
1074.50 150.595
1074.60 151.2342
1074.70 151.8892
1074.80 151.4726
1074.90 151.0529
1075.00 149.5779
1075.10 147.1866
1075.20 144.8604
1075.30 141.9691
1075.40 138.968
1075.50 136.3775
1075.60 139.091
1075.70 141.7434
1075.80 144.7034
1075.90 147.4059
1076.00 150.1547
1076.10 150.27
1076.20 149.8215
1076.30 149.3597
1076.40 149.2268
1076.50 149.0854
1076.60 149.1403
1076.70 149.5687
1076.80 150
1076.90 150.8189
1077.00 151.6224
1077.10 152.3015
1077.20 151.3318
1077.30 150.2474
1077.40 148.9892
1077.50 147.4
1077.60 145.8491
1077.70 145.196
1077.80 145.2876
1077.90 145.3363
1078.00 146.8801
1078.10 148.594
1078.20 149.9115
1078.30 150.0915
1078.40 150.2937
1078.50 149.9081
1078.60 148.7756
1078.70 147.5534
1078.80 145.0903
1078.90 142.5838
1079.00 140.3907
1079.10 139.2778
1079.20 138.1483
1079.30 136.7423
1079.40 134.954
1079.50 133.1106
1079.60 134.1833
1079.70 136.0964
1079.80 138.0395
1079.90 140.2476
1080.00 142.459
1080.10 144.3991
1080.20 145.99
1080.30 147.5994
1080.40 148.6246
1080.50 149.3073
1080.60 150.0034
1080.70 150.3482
1080.80 150.6527
1080.90 151.1674
1081.00 152.3565
1081.10 153.5557
1081.20 153.5283
1081.30 152.7706
1081.40 152.0356
1081.50 152.5766
1081.60 153.2403
1081.70 154.4241
1081.80 156.7851
1081.90 159.175
1082.00 158.9698
1082.10 156.8609
1082.20 154.7829
1082.30 152.8925
1082.40 151.113
1082.50 149.4297
1082.60 148.29
1082.70 147.1291
1082.80 146.724
1082.90 146.9884
1083.00 147.2687
1083.10 150.1959
1083.20 154.0924
1083.30 158.0441
1083.40 159.8006
1083.50 161.5794
1083.60 161.8964
1083.70 160.7503
1083.80 159.6086
1083.90 159.1055
1084.00 158.8012
1084.10 158.4793
1084.20 157.6114
1084.30 156.7493
1084.40 155.4593
1084.50 153.2221
1084.60 151.033
1084.70 149.1727
1084.80 147.8695
1084.90 146.7699
1085.00 149.7352
1085.10 152.9989
1085.20 154.6618
1085.30 150.8809
1085.40 147.1851
1085.50 146.1996
1085.60 148.2733
1085.70 150.4783
1085.80 153.8346
1085.90 157.2365
1086.00 160.4918
1086.10 162.9804
1086.20 165.4783
1086.30 166.5559
1086.40 166.6457
1086.50 166.721
1086.60 165.7204
1086.70 164.6573
1086.80 163.942
1086.90 164.1309
1087.00 164.2622
1087.10 164.9094
1087.20 166.0032
1087.30 167.1678
1087.40 164.9816
1087.50 161.9214
1087.60 159.0305
1087.70 158.9375
1087.80 158.7758
1087.90 159.1297
1088.00 159.5309
1088.10 159.994
1088.20 158.7518
1088.30 157.1364
1088.40 155.7378
1088.50 157.0199
1088.60 158.2746
1088.70 159.1616
1088.80 159.3354
1088.90 159.5869
1089.00 159.3101
1089.10 158.8527
1089.20 158.4168
1089.30 157.1004
1089.40 155.6621
1089.50 154.7311
1089.60 156.0315
1089.70 157.2863
1089.80 159.9113
1089.90 163.2192
1090.00 166.3844
1090.10 167.7452
1090.20 168.7921
1090.30 169.6459
1090.40 170.2838
1090.50 170.9403
1090.60 169.7452
1090.70 166.97
1090.80 164.1512
1090.90 160.8146
1091.00 157.5046
1091.10 154.7635
1091.20 154.6266
1091.30 154.4244
1091.40 155.8367
1091.50 158.9784
1091.60 162.0684
1091.70 165.3268
1091.80 168.5029
1091.90 171.4881
1092.00 170.6368
1092.10 169.8112
1092.20 168.7815
1092.30 167.5646
1092.40 166.3001
1092.50 165.5031
1092.60 164.8921
1092.70 164.3776
1092.80 164.205
1092.90 164.0534
1093.00 163.9439
1093.10 164.2632
1093.20 164.5864
1093.30 163.9878
1093.40 162.7959
1093.50 161.622
1093.60 159.1212
1093.70 156.4679
1093.80 155.0931
1093.90 158.6408
1094.00 162.1137
1094.10 165.0981
1094.20 167.213
1094.30 169.2663
1094.40 166.2941
1094.50 162.4499
1094.60 158.8378
1094.70 156.2462
1094.80 153.5932
1094.90 154.4282
1095.00 158.5915
1095.10 162.6897
1095.20 166.9882
1095.30 171.3433
1095.40 175.0476
1095.50 175.0369
1095.60 175.0757
1095.70 174.2455
1095.80 172.7486
1095.90 171.2503
1096.00 171.8316
1096.10 172.9126
1096.20 173.9043
1096.30 174.2322
1096.40 174.5618
1096.50 174.434
1096.60 173.6087
1096.70 172.8334
1096.80 169.9374
1096.90 166.0042
1097.00 162.0181
1097.10 158.24
1097.20 154.4848
1097.30 152.5244
1097.40 154.2937
1097.50 155.9996
1097.60 158.3381
1097.70 161.0543
1097.80 163.8233
1097.90 165.4628
1098.00 166.9632
1098.10 167.9759
1098.20 168.4108
1098.30 168.9248
1098.40 167.4537
1098.50 164.1662
1098.60 160.8616
1098.70 160.5399
1098.80 160.9079
1098.90 161.4275
1099.00 162.2704
1099.10 163.1028
1099.20 164.494
1099.30 166.4547
1099.40 168.3801
1099.50 169.1293
1099.60 169.3562
1099.70 169.3812
1099.80 168.5611
1099.90 167.7349
1100.00 167.18
1100.10 167.1812
1100.20 167.1991
1100.30 165.9799
1100.40 164.3516
1100.50 162.8423
1100.60 162.7692
1100.70 162.6563
1100.80 162.9635
1100.90 163.6379
1101.00 164.3295
1101.10 165.3618
1101.20 166.8232
1101.30 168.4722
1101.40 170.1815
1101.50 171.8512
1101.60 172.3821
1101.70 170.681
1101.80 169.0525
1101.90 166.2404
1102.00 162.9569
1102.10 159.7024
1102.20 156.8772
1102.30 154.0746
1102.40 152.5935
1102.50 155.2821
1102.60 157.8514
1102.70 161.2816
1102.80 164.7009
1102.90 168.0788
1103.00 167.4401
1103.10 166.0434
1103.20 163.8401
1103.30 159.2426
1103.40 154.7011
1103.50 150.8008
1103.60 148.0698
1103.70 145.4191
1103.80 146.9826
1103.90 149.5459
1104.00 152.0451
1104.10 152.9731
1104.20 153.902
1104.30 154.5154
1104.40 155.4451
1104.50 156.4114
1104.60 157.5847
1104.70 158.6203
1104.80 159.6771
1104.90 159.0797
1105.00 158.4713
1105.10 156.4373
1105.20 152.6487
1105.30 148.9622
1105.40 144.9929
1105.50 140.8855
1105.60 137.1195
1105.70 139.938
1105.80 143.3388
1105.90 146.2115
1106.00 146.4236
1106.10 146.6862
1106.20 146.3795
1106.30 146.0037
1106.40 145.7224
1106.50 147.4533
1106.60 149.3737
1106.70 150.2715
1106.80 148.151
1106.90 146.068
1107.00 144.3917
1107.10 143.3708
1107.20 142.4091
1107.30 144.5166
1107.40 147.0758
1107.50 149.172
1107.60 148.2794
1107.70 147.4479
1107.80 147.1013
1107.90 147.6909
1108.00 148.2681
1108.10 150.6967
1108.20 153.5127
1108.30 156.4015
1108.40 158.8509
1108.50 161.3119
1108.60 162.2457
1108.70 161.3486
1108.80 160.52
1108.90 159.4959
1109.00 158.6295
1109.10 157.8448
1109.20 158.3872
1109.30 158.8817
1109.40 160.0404
1109.50 162.2899
1109.60 164.5535
1109.70 165.9936
1109.80 166.8955
1109.90 167.5854
1110.00 166.1552
1110.10 164.5904
1110.20 161.8094
1110.30 156.7966
1110.40 151.7807
1110.50 148.9448
1110.60 147.414
1110.70 146.0116
1110.80 146.9508
1110.90 148.0371
1111.00 148.3646
1111.10 146.8688
1111.20 145.3939
1111.30 144.3148
1111.40 143.5445
1111.50 142.7582
1111.60 143.9008
1111.70 145.4252
1111.80 146.9683
1111.90 147.6112
1112.00 148.2918
1112.10 148.2477
1112.20 147.8326
1112.30 147.4392
1112.40 148.9203
1112.50 150.7676
1112.60 152.7964
1112.70 155.0255
1112.80 157.2416
1112.90 158.942
1113.00 160.0673
1113.10 161.2565
1113.20 161.7378
1113.30 162.2116
1113.40 162.6413
1113.50 162.164
1113.60 161.7406
1113.70 160.3887
1113.80 157.4245
1113.90 154.3567
1114.00 154.4365
1114.10 155.6722
1114.20 156.9349
1114.30 160.0814
1114.40 163.211
1114.50 166.0072
1114.60 168.2311
1114.70 170.5752
1114.80 169.7141
1114.90 167.4344
1115.00 165.3589
1115.10 164.7332
1115.20 164.1507
1115.30 163.5372
1115.40 162.3501
1115.50 161.2096
1115.60 160.8964
1115.70 161.7013
1115.80 162.4481
1115.90 162.1299
1116.00 161.6681
1116.10 160.9946
1116.20 159.0147
1116.30 157.0214
1116.40 155.7
1116.50 154.9083
1116.60 154.1729
1116.70 153.7685
1116.80 153.3595
1116.90 152.3952
1117.00 149.8636
1117.10 147.3408
1117.20 145.267
1117.30 143.7611
1117.40 142.227
1117.50 142.0908
1117.60 142.1423
1117.70 142.126
1117.80 144.6976
1117.90 147.2427
1118.00 149.6415
1118.10 151.2988
1118.20 152.9888
1118.30 155.1129
1118.40 157.2204
1118.50 159.0811
1118.60 161.3251
1118.70 163.6226
1118.80 163.9321
1118.90 160.6739
1119.00 157.9122
1119.10 155.969
1119.20 154.4906
1119.30 152.9951
1119.40 152.6021
1119.50 152.3363
1119.60 152.2596
1119.70 153.1643
1119.80 154.0711
1119.90 154.5105
1120.00 154.6193
1120.10 154.7266
1120.20 152.6628
1120.30 151.008
1120.40 150.592
1120.50 154.4566
1120.60 158.1986
1120.70 161.0975
1120.80 163.1872
1120.90 165.009
1121.00 163.2491
1121.10 160.8129
1121.20 158.4398
1121.30 157.4218
1121.40 156.4057
1121.50 155.6307
1121.60 154.5085
1121.70 153.2069
1121.80 151.4839
1121.90 149.7955
1122.00 148.4948
1122.10 148.8678
1122.20 149.5019
1122.30 151.5114
1122.40 154.6286
1122.50 157.6748
1122.60 158.9847
1122.70 159.1433
1122.80 159.6718
1122.90 160.6277
1123.00 161.1365
1123.10 161.6658
1123.20 160.3312
1123.30 157.9773
1123.40 155.6179
1123.50 152.3813
1123.60 150.3277
1123.70 148.2928
1123.80 148.3282
1123.90 151.8456
1124.00 155.3597
1124.10 158.7939
1124.20 161.1546
1124.30 163.3781
1124.40 165.6024
1124.50 166.0269
1124.60 166.2571
1124.70 166.4836
1124.80 165.4696
1124.90 162.2997
1125.00 159.1241
1125.10 155.9673
1125.20 154.9772
1125.30 154.236
1125.40 153.7055
1125.50 155.774
1125.60 157.8389
1125.70 159.9156
1125.80 161.0472
1125.90 161.3007
1126.00 161.5498
1126.10 161.0956
1126.20 160.5412
1126.30 159.9879
1126.40 160.0533
1126.50 161.2868
1126.60 162.5472
1126.70 163.8028
1126.80 164.7136
1126.90 165.4716
1127.00 166.23
1127.10 165.5226
1127.20 164.5209
1127.30 163.5156
1127.40 162.2524
1127.50 160.6333
1127.60 159.0146
1127.70 157.5904
1127.80 157.0232
1127.90 156.5113
1128.00 156.1786
1128.10 157.435
1128.20 158.6417
1128.30 159.8434
1128.40 160.6479
1128.50 161.439
1128.60 162.2308
1128.70 161.9425
1128.80 160.4427
1128.90 158.9394
1129.00 157.962
1129.10 158.2654
1129.20 158.5751
1129.30 158.7741
1129.40 158.4737
1129.50 158.4141
1129.60 158.3593
1129.70 159.3452
1129.80 160.8424
1129.90 162.3391
1130.00 163.4362
1130.10 163.0104
1130.20 162.5702
1130.30 161.7164
1130.40 159.6392
1130.50 157.5405
1130.60 155.4338
1130.70 154.741
1130.80 154.245
1130.90 153.749
1131.00 154.5746
1131.10 156.2054
1131.20 157.8374
1131.30 159.191
1131.40 160.1981
1131.50 161.2028
1131.60 162.4051
1131.70 164.0054
1131.80 165.59
1131.90 167.1798
1132.00 166.5106
1132.10 165.6692
1132.20 164.8268
1132.30 164.0423
1132.40 163.3872
1132.50 162.7335
1132.60 162.664
1132.70 163.0579
1132.80 163.4521
1132.90 163.6699
1133.00 163.3707
1133.10 163.039
1133.20 162.7121
1133.30 161.5441
1133.40 160.3141
1133.50 159.0848
1133.60 157.0623
1133.70 154.4533
1133.80 151.8441
1133.90 149.7891
1134.00 148.3867
1134.10 146.9836
1134.20 145.5665
1134.30 145.1983
1134.40 145.0876
1134.50 144.9498
1134.60 143.714
1134.70 142.4935
1134.80 141.2794
1134.90 144.3144
1135.00 149.2317
1135.10 154.1386
1135.20 156.6488
1135.30 155.5038
1135.40 154.3548
1135.50 153.3299
1135.60 152.082
1135.70 150.6724
1135.80 149.2454
1135.90 147.2356
1136.00 146.3902
1136.10 145.5495
1136.20 147.348
1136.30 149.8485
1136.40 152.3404
1136.50 153.2357
1136.60 151.6126
1136.70 149.988
1136.80 148.3391
1136.90 146.6208
1137.00 144.9254
1137.10 143.219
1137.20 142.504
1137.30 141.7158
1137.40 140.9247
1137.50 138.3837
1137.60 135.1608
1137.70 131.9265
1137.80 127.8745
1137.90 121.1335
1138.00 114.3751
1138.10 107.8148
1138.20 102.2243
1138.30 96.73315
1138.40 91.17773
1138.50 95.70127
1138.60 102.2614
1138.70 108.8527
1138.80 115.8824
1138.90 123.2658
1139.00 130.6277
1139.10 135.9753
1139.20 136.6113
1139.30 137.228
1139.40 137.6268
1139.50 135.9531
1139.60 134.0227
1139.70 132.1068
1139.80 128.605
1139.90 124.8567
1140.00 121.0975
1140.10 115.7701
1140.20 108.4511
1140.30 101.116
1140.40 94.76381
1140.50 90.20386
1140.60 85.68542
1140.70 82.26371
1140.80 86.76765
1140.90 92.61162
1141.00 98.43351
1141.10 106.9545
1141.20 115.9591
1141.30 124.9502
1141.40 130.9047
1141.50 135.3303
1141.60 139.7438
1141.70 144.0424
1141.80 146.48
1141.90 148.908
1142.00 151.1003
1142.10 152.1506
1142.20 153.1335
1142.30 154.1313
1142.40 154.9522
1142.50 155.5908
1142.60 156.2316
1142.70 156.3933
1142.80 156.5385
1142.90 156.6826
1143.00 156.8836
1143.10 156.5698
1143.20 156.2532
1143.30 155.8942
1143.40 155.5628
1143.50 155.3193
1143.60 155.0754
1143.70 155.3287
1143.80 155.5213
1143.90 155.7086
1144.00 155.0444
1144.10 154.4757
1144.20 153.9147
1144.30 153.4817
1144.40 152.9556
1144.50 152.4297
1144.60 152.2769
1144.70 153.4327
1144.80 154.5371
1144.90 155.6309
1145.00 155.5021
1145.10 155.3531
1145.20 155.2032
1145.30 155.2445
1145.40 155.0619
1145.50 154.8786
1145.60 154.5343
1145.70 153.9675
1145.80 153.4012
1145.90 153.3493
1146.00 155.8172
1146.10 158.4549
1146.20 161.0979
1146.30 161.7556
1146.40 162.0804
1146.50 162.4055
1146.60 162.685
1146.70 163.1713
1146.80 163.6519
1146.90 164.3242
1147.00 164.2576
1147.10 164.1879
1147.20 163.8939
1147.30 163.2432
1147.40 162.8447
1147.50 162.4463
1147.60 163.38
1147.70 164.5544
1147.80 165.7291
1147.90 167.2254
1148.00 168.5644
1148.10 169.9016
1148.20 170.1915
1148.30 168.3755
1148.40 166.5524
1148.50 164.8935
1148.60 164.4591
1148.70 164.2813
1148.80 164.0972
1148.90 166.3616
1149.00 169.0727
1149.10 171.7822
1149.20 173.0127
1149.30 172.5391
1149.40 172.0609
1149.50 171.0314
1149.60 170.0614
1149.70 169.0968
1149.80 168.1651
1149.90 167.5094
1150.00 166.902
1150.10 166.3045
1150.20 167.051
1150.30 167.6453
1150.40 168.2403
1150.50 168.3357
1150.60 168.6544
1150.70 168.976
1150.80 169.4006
1150.90 170.1486
1151.00 170.894
1151.10 171.5217
1151.20 171.3514
1151.30 171.0716
1151.40 170.7965
1151.50 170.5089
1151.60 170.0127
1151.70 169.517
1151.80 168.577
1151.90 167.8741
1152.00 167.1718
1152.10 166.1637
1152.20 163.9416
1152.30 161.7125
1152.40 159.423
1152.50 157.0824
1152.60 154.8814
1152.70 152.6623
1152.80 154.7183
1152.90 157.5901
1153.00 160.4619
1153.10 161.9597
1153.20 162.3554
1153.30 162.7508
1153.40 162.8069
1153.50 162.5003
1153.60 162.1977
1153.70 162.1361
1153.80 163.5438
1153.90 165.1427
1154.00 166.7436
1154.10 168.104
1154.20 169.3748
1154.30 170.6427
1154.40 169.8789
1154.50 167.583
1154.60 165.2827
1154.70 163.4881
1154.80 162.3286
1154.90 161.1764
1155.00 160.3673
1155.10 161.6418
1155.20 163.0732
1155.30 164.5119
1155.40 165.3785
1155.50 166.1622
1155.60 166.9422
1155.70 167.5759
1155.80 168.3424
1155.90 169.1064
1156.00 169.6314
1156.10 168.9394
1156.20 168.2477
1156.30 167.7382
1156.40 168.4422
1156.50 169.2751
1156.60 170.1032
1156.70 169.8112
1156.80 169.1537
1156.90 168.4991
1157.00 167.7567
1157.10 166.819
1157.20 165.8851
1157.30 165.0445
1157.40 164.8684
1157.50 164.6927
1157.60 164.5461
1157.70 164.5767
1157.80 164.6343
1157.90 164.6874
1158.00 165.3442
1158.10 166.13
1158.20 166.9153
1158.30 166.9717
1158.40 166.4549
1158.50 165.9369
1158.60 165.361
1158.70 164.5432
1158.80 163.7231
1158.90 162.7389
1159.00 161.0004
1159.10 159.236
1159.20 157.4777
1159.30 155.4895
1159.40 153.2126
1159.50 150.9338
1159.60 149.9836
1159.70 150.1467
1159.80 150.3202
1159.90 150.8701
1160.00 152.5171
1160.10 154.1652
1160.20 155.8833
1160.30 157.9255
1160.40 159.9773
1160.50 162.0505
1160.60 161.2308
1160.70 159.8864
1160.80 158.5426
1160.90 157.9172
1161.00 157.363
1161.10 156.8235
1161.20 157.4749
1161.30 160.9236
1161.40 164.3852
1161.50 167.434
1161.60 168.6455
1161.70 169.7589
1161.80 170.9376
1161.90 169.2055
1162.00 166.9473
1162.10 164.6838
1162.20 163.5334
1162.30 163.1214
1162.40 162.7131
1162.50 162.9743
1162.60 164.4343
1162.70 165.8964
1162.80 167.4186
1162.90 169.2755
1163.00 171.1577
1163.10 173.0416
1163.20 173.1511
1163.30 173.0124
1163.40 172.8853
1163.50 170.69
1163.60 167.008
1163.70 163.3181
1163.80 160.5575
1163.90 158.7464
1164.00 156.9436
1164.10 155.4817
1164.20 156.8459
1164.30 158.5106
1164.40 160.1389
1164.50 162.3666
1164.60 164.736
1164.70 167.1181
1164.80 167.074
1164.90 166.0053
1165.00 164.9329
1165.10 164.0134
1165.20 162.7893
1165.30 161.5634
1165.40 160.3792
1165.50 159.2726
1165.60 158.17
1165.70 157.0417
1165.80 158.164
1165.90 159.7213
1166.00 161.2715
1166.10 162.9045
1166.20 164.5596
1166.30 166.2139
1166.40 167.2707
1166.50 167.106
1166.60 166.9393
1166.70 166.602
1166.80 165.6484
1166.90 164.6715
1167.00 163.7065
1167.10 162.7651
1167.20 161.8435
1167.30 160.9155
1167.40 159.3172
1167.50 157.5121
1167.60 155.7074
1167.70 154.7703
1167.80 154.8084
1167.90 154.8482
1168.00 154.5391
1168.10 153.2164
1168.20 151.8677
1168.30 150.3262
1168.40 146.3346
1168.50 142.1245
1168.60 137.931
1168.70 131.2208
1168.80 123.1486
1168.90 115.0568
1169.00 107.5441
1169.10 99.70164
1169.20 91.88363
1169.30 86.22126
1169.40 90.40757
1169.50 95.12405
1169.60 99.94536
1169.70 108.718
1169.80 118.1003
1169.90 127.514
1170.00 134.139
1170.10 139.297
1170.20 144.4454
1170.30 148.7996
1170.40 151.866
1170.50 154.9263
1170.60 157.5225
1170.70 158.3221
1170.80 159.0559
1170.90 159.8082
1171.00 160.2573
1171.10 160.5746
1171.20 160.8884
1171.30 161.0626
1171.40 161.341
1171.50 161.6184
1171.60 161.5443
1171.70 160.8872
1171.80 160.2274
1171.90 159.4689
1172.00 158.6804
1172.10 157.8944
1172.20 157.1713
1172.30 157.4326
1172.40 157.7776
1172.50 158.1179
1172.60 158.9235
1172.70 159.8188
1172.80 160.7164
1172.90 161.5569
1173.00 162.435
1173.10 163.3114
1173.20 163.7826
1173.30 162.9747
1173.40 162.1615
1173.50 161.3688
1173.60 160.5978
1173.70 159.8265
1173.80 159.0335
1173.90 158.5734
1174.00 158.4177
1174.10 158.2613
1174.20 158.8893
1174.30 159.936
1174.40 160.9837
1174.50 161.7752
1174.60 161.9615
1174.70 162.1432
1174.80 162.1417
1174.90 161.004
1175.00 159.7732
1175.10 158.5576
1175.20 156.7986
1175.30 154.9557
1175.40 153.1097
1175.50 152.9326
1175.60 153.7426
1175.70 154.5559
1175.80 154.5702
1175.90 152.8371
1176.00 151.099
1176.10 149.2792
1176.20 146.7474
1176.30 144.1531
1176.40 141.5666
1176.50 138.1241
1176.60 134.5448
1176.70 130.9858
1176.80 124.0191
1176.90 114.302
1177.00 104.5652
1177.10 95.73132
1177.20 87.13642
1177.30 78.56157
1177.40 71.11966
1177.50 71.83688
1177.60 73.3819
1177.70 74.73228
1177.80 82.74459
1177.90 92.18112
1178.00 101.6213
1178.10 109.5813
1178.20 116.4356
1178.30 123.2713
1178.40 129.2326
1178.50 133.2676
1178.60 137.2975
1178.70 141.1512
1178.80 143.569
1178.90 145.921
1179.00 148.2991
1179.10 149.1221
1179.20 149.774
1179.30 150.4322
1179.40 150.706
1179.50 150.7044
1179.60 150.7017
1179.70 151.0426
1179.80 151.8181
1179.90 152.5958
1180.00 153.343
1180.10 154.3003
1180.20 155.294
1180.30 156.2643
1180.40 156.8962
1180.50 157.476
1180.60 158.0709
1180.70 157.9055
1180.80 157.2286
1180.90 156.5509
1181.00 155.7791
1181.10 154.9514
1181.20 154.124
1181.30 153.243
1181.40 152.2809
1181.50 151.3234
1181.60 150.403
1181.70 150.1755
1181.80 150.0666
1181.90 149.9519
1182.00 151.18
1182.10 152.8236
1182.20 154.4706
1182.30 155.2178
1182.40 155.0038
1182.50 154.7831
1182.60 154.4617
1182.70 153.3325
1182.80 152.1999
1182.90 151.1562
1183.00 151.4188
1183.10 151.8677
1183.20 152.2925
1183.30 152.1591
1183.40 151.9966
1183.50 151.8368
1183.60 151.0403
1183.70 149.343
1183.80 147.6426
1183.90 146.7628
1184.00 147.9362
1184.10 149.1189
1184.20 150.3335
1184.30 152.7552
1184.40 155.277
1184.50 157.8409
1184.60 156.6661
1184.70 154.4893
1184.80 152.3138
1184.90 150.3402
1185.00 148.4177
1185.10 146.4996
1185.20 145.6715
1185.30 147.1425
1185.40 148.6194
1185.50 150.0448
1185.60 151.6476
1185.70 153.3079
1185.80 154.9743
1185.90 155.4143
1186.00 155.6034
1186.10 155.7966
1186.20 155.7994
1186.30 155.8452
1186.40 155.8896
1186.50 155.849
1186.60 155.3107
1186.70 154.7692
1186.80 154.1456
1186.90 152.8344
1187.00 151.4698
1187.10 150.0839
1187.20 150.616
1187.30 151.5777
1187.40 152.5288
1187.50 152.9804
1187.60 153.3113
1187.70 153.6393
1187.80 153.4989
1187.90 152.2651
1188.00 151.0214
1188.10 149.4543
1188.20 145.2837
1188.30 140.982
1188.40 136.7125
1188.50 135.2531
1188.60 134.0208
1188.70 132.7089
1188.80 134.9142
1188.90 139.9131
1189.00 144.9211
1189.10 148.5162
1189.20 150.2941
1189.30 152.0539
1189.40 153.6204
1189.50 153.9403
1189.60 154.2004
1189.70 154.4443
1189.80 155.0924
1189.90 155.6512
1190.00 156.2169
1190.10 155.9309
1190.20 155.1925
1190.30 154.4567
1190.40 153.4584
1190.50 152.1068
1190.60 150.7543
1190.70 149.9521
1190.80 150.8769
1190.90 151.8098
1191.00 152.6737
1191.10 153.5236
1191.20 154.5175
1191.30 155.5143
1191.40 156.0071
1191.50 156.2075
1191.60 156.4082
1191.70 156.4171
1191.80 156.2029
1191.90 155.9892
1192.00 155.7757
1192.10 155.8335
1192.20 155.8888
1192.30 155.9052
1192.40 155.0893
1192.50 154.1852
1192.60 153.2721
1192.70 153.1383
1192.80 153.2319
1192.90 153.3249
1193.00 153.9582
1193.10 155.0628
1193.20 156.1663
1193.30 156.5217
1193.40 155.4419
1193.50 154.3568
1193.60 153.2184
1193.70 150.6164
1193.80 147.8696
1193.90 145.1183
1194.00 144.0195
1194.10 143.2846
1194.20 142.5391
1194.30 142.1623
1194.40 142.2598
1194.50 142.356
1194.60 141.9023
1194.70 139.971
1194.80 138.0332
1194.90 136.3894
1195.00 135.8144
1195.10 135.2594
1195.20 134.6405
1195.30 137.1372
1195.40 140.4969
1195.50 143.8458
1195.60 145.1979
1195.70 145.5227
1195.80 145.8396
1195.90 145.4125
1196.00 143.2008
1196.10 140.9874
1196.20 138.9967
1196.30 138.1493
1196.40 137.3345
1196.50 136.4973
1196.60 136.4515
1196.70 136.4999
1196.80 136.5516
1196.90 136.2022
1197.00 135.5581
1197.10 134.9173
1197.20 132.8915
1197.30 128.5613
1197.40 124.229
1197.50 120.4847
1197.60 119.1463
1197.70 117.8401
1197.80 116.3984
1197.90 118.8548
1198.00 121.7923
1198.10 124.7346
1198.20 126.9372
1198.30 128.7701
1198.40 130.6002
1198.50 132.531
1198.60 134.8456
1198.70 137.1557
1198.80 138.5326
1198.90 136.0261
1199.00 133.5072
1199.10 131.118
1199.20 129.2316
1199.30 127.2915
1199.40 125.3205
1199.50 125.0988
1199.60 125.6919
1199.70 126.2787
1199.80 127.1617
1199.90 128.403
1200.00 129.6419
