# Version 2.1 - nm, norm@500 to 1, cut digits
# Wavelength(nm)  Flambda(ergs/cm^s/s/nm)
300.00 0.007796186
300.10 0.009570449
300.20 0.01102567
300.30 0.01210973
300.40 0.01287171
300.50 0.01338599
300.60 0.01371465
300.70 0.01391224
300.80 0.01403158
300.90 0.01411496
301.00 0.01419329
301.10 0.01427958
301.20 0.01437329
301.30 0.01447301
301.40 0.01457715
301.50 0.01468433
301.60 0.01479347
301.70 0.01490377
301.80 0.01501466
301.90 0.01512578
302.00 0.01523695
302.10 0.01534812
302.20 0.01545933
302.30 0.01557072
302.40 0.01568256
302.50 0.01579527
302.60 0.01590947
302.70 0.01602598
302.80 0.01614585
302.90 0.01627028
303.00 0.01640034
303.10 0.01653645
303.20 0.01667818
303.30 0.01682448
303.40 0.01697414
303.50 0.0171261
303.60 0.01727955
303.70 0.01743388
303.80 0.01758866
303.90 0.01774361
304.00 0.01789861
304.10 0.0180536
304.20 0.01820847
304.30 0.0183628
304.40 0.01851577
304.50 0.01866605
304.60 0.01881177
304.70 0.01895044
304.80 0.01907885
304.90 0.01919327
305.00 0.0192905
305.10 0.01936923
305.20 0.01943076
305.30 0.01947831
305.40 0.01951559
305.50 0.01954583
305.60 0.01957151
305.70 0.0195945
305.80 0.01961612
305.90 0.01963721
306.00 0.01965817
306.10 0.01967914
306.20 0.0197001
306.30 0.01972106
306.40 0.01974203
306.50 0.019763
306.60 0.01978398
306.70 0.01980498
306.80 0.019826
306.90 0.01984705
307.00 0.01986814
307.10 0.01988927
307.20 0.01991044
307.30 0.01993163
307.40 0.01995285
307.50 0.01997408
307.60 0.01999533
307.70 0.02001658
307.80 0.02003783
307.90 0.02005908
308.00 0.02008034
308.10 0.02010159
308.20 0.02012315
308.30 0.02014606
308.40 0.02017238
308.50 0.02020544
308.60 0.02024991
308.70 0.02031201
308.80 0.0203998
308.90 0.02052259
309.00 0.02068842
309.10 0.02090054
309.20 0.02115571
309.30 0.02144587
309.40 0.02176173
309.50 0.02209521
309.60 0.0224401
309.70 0.02279174
309.80 0.02314678
309.90 0.02350317
310.00 0.02385987
310.10 0.02421657
310.20 0.02457296
310.30 0.024928
310.40 0.02527961
310.50 0.02562444
310.60 0.0259578
310.70 0.02627344
310.80 0.02656325
310.90 0.02681788
311.00 0.02702925
311.10 0.02719407
311.20 0.02731563
311.30 0.027402
311.40 0.02746255
311.50 0.02750538
311.60 0.02753673
311.70 0.0275613
311.80 0.02758246
311.90 0.02760225
312.00 0.02762174
312.10 0.02764123
312.20 0.0276611
312.30 0.02768264
312.40 0.02770842
312.50 0.02774256
312.60 0.02779087
312.70 0.02786107
312.80 0.02796317
312.90 0.02810871
313.00 0.0283077
313.10 0.02856416
313.20 0.02887407
313.30 0.02922742
313.40 0.02961267
313.50 0.03001981
313.60 0.03044112
313.70 0.0308708
313.80 0.0313047
313.90 0.03174028
314.00 0.03217624
314.10 0.03261221
314.20 0.03304844
314.30 0.03348584
314.40 0.03392617
314.50 0.03437234
314.60 0.03482837
314.70 0.03529963
314.80 0.0357931
314.90 0.03631682
315.00 0.03687773
315.10 0.03747865
315.20 0.03811677
315.30 0.03878514
315.40 0.03947571
315.50 0.04018152
315.60 0.04089719
315.70 0.04161869
315.80 0.04234312
315.90 0.04306873
316.00 0.0437946
316.10 0.04452047
316.20 0.04524537
316.30 0.04596597
316.40 0.04667576
316.50 0.04736413
316.60 0.04801624
316.70 0.04861236
316.80 0.04912685
316.90 0.04953017
317.00 0.04979675
317.10 0.04991626
317.20 0.04989903
317.30 0.04977063
317.40 0.04956061
317.50 0.04929459
317.60 0.04899231
317.70 0.04866861
317.80 0.0483341
317.90 0.0479953
318.00 0.04765553
318.10 0.04731575
318.20 0.04697672
318.30 0.04664097
318.40 0.0463135
318.50 0.04600243
318.60 0.04571911
318.70 0.04547866
318.80 0.04530069
318.90 0.04520782
319.00 0.04521962
319.10 0.04534401
319.20 0.04557306
319.30 0.04588722
319.40 0.04626385
319.50 0.04668335
319.60 0.04713062
319.70 0.04759427
319.80 0.0480662
319.90 0.04854142
320.00 0.04901738
320.10 0.04949335
320.20 0.04996903
320.30 0.05044351
320.40 0.05091492
320.50 0.05138027
320.60 0.05183535
320.70 0.05227458
320.80 0.0526907
320.90 0.05307534
321.00 0.05342128
321.10 0.05372557
321.20 0.05399115
321.30 0.05422526
321.40 0.05443626
321.50 0.0546314
321.60 0.05481628
321.70 0.0549951
321.80 0.05517085
321.90 0.05534539
322.00 0.05551965
322.10 0.05569391
322.20 0.05586919
322.30 0.0560489
322.40 0.05623979
322.50 0.05645283
322.60 0.05670337
322.70 0.05701182
322.80 0.05740467
322.90 0.0579125
323.00 0.05856173
323.10 0.05936304
323.20 0.06030576
323.30 0.06136345
323.40 0.06250554
323.50 0.06370554
323.60 0.06494305
323.70 0.0662027
323.80 0.06747353
323.90 0.0687488
324.00 0.07002508
324.10 0.07130136
324.20 0.07257748
324.30 0.07385287
324.40 0.07512645
324.50 0.07639643
324.60 0.07766032
324.70 0.07891481
324.80 0.08015558
324.90 0.08137768
325.00 0.0825768
325.10 0.08375123
325.20 0.08490268
325.30 0.08603546
325.40 0.08715452
325.50 0.08826418
325.60 0.08936775
325.70 0.09046772
325.80 0.09156587
325.90 0.09266331
326.00 0.09376057
326.10 0.09485784
326.20 0.09595547
326.30 0.09705464
326.40 0.09815773
326.50 0.09926858
326.60 0.1003926
326.70 0.1015368
326.80 0.1027106
326.90 0.1039247
327.00 0.1051882
327.10 0.106505
327.20 0.1078713
327.30 0.1092779
327.40 0.110714
327.50 0.1121704
327.60 0.1136399
327.70 0.1151172
327.80 0.1165984
327.90 0.1180811
328.00 0.1195642
328.10 0.1210473
328.20 0.1225284
328.30 0.1240003
328.40 0.1254492
328.50 0.1268526
328.60 0.128179
328.70 0.1293865
328.80 0.1304205
328.90 0.1312184
329.00 0.1317258
329.10 0.1319208
329.20 0.1318253
329.30 0.1314937
329.40 0.1309886
329.50 0.1303646
329.60 0.1296635
329.70 0.128917
329.80 0.1281475
329.90 0.1273689
330.00 0.1265881
330.10 0.1258074
330.20 0.1250283
330.30 0.1242559
330.40 0.1235005
330.50 0.1227789
330.60 0.1221144
330.70 0.1215382
330.80 0.1210906
330.90 0.1208182
331.00 0.1207612
331.10 0.1209361
331.20 0.1213264
331.30 0.1218919
331.40 0.122586
331.50 0.1233684
331.60 0.1242079
331.70 0.1250811
331.80 0.1259714
331.90 0.1268685
332.00 0.1277671
332.10 0.1286657
332.20 0.1295633
332.30 0.1304566
332.40 0.1313392
332.50 0.1322004
332.60 0.1330254
332.70 0.1337945
332.80 0.1344822
332.90 0.135059
333.00 0.1354993
333.10 0.135793
333.20 0.1359501
333.30 0.1359964
333.40 0.1359612
333.50 0.1358702
333.60 0.1357429
333.70 0.1355943
333.80 0.135435
333.90 0.1352713
334.00 0.1351066
334.10 0.1349552
334.20 0.1348385
334.30 0.1347687
334.40 0.1347467
334.50 0.1347627
334.60 0.1348356
334.70 0.1350447
334.80 0.1355003
334.90 0.1362688
335.00 0.1373612
335.10 0.1388846
335.20 0.1411583
335.30 0.144551
335.40 0.149065
335.50 0.154001
335.60 0.1580559
335.70 0.1599048
335.80 0.1588943
335.90 0.1553161
336.00 0.1501545
336.10 0.1445887
336.20 0.1396405
336.30 0.1360008
336.40 0.1338625
336.50 0.1329239
336.60 0.1326951
336.70 0.1329647
336.80 0.1339999
336.90 0.1362316
337.00 0.139724
337.10 0.1438752
337.20 0.1476282
337.30 0.150088
337.40 0.1510791
337.50 0.1512037
337.60 0.1513718
337.70 0.1521386
337.80 0.1533659
337.90 0.1544832
338.00 0.154964
338.10 0.1545595
338.20 0.1531787
338.30 0.1507649
338.40 0.147539
338.50 0.1442752
338.60 0.1421402
338.70 0.1420332
338.80 0.1439223
338.90 0.1468933
339.00 0.1499044
339.10 0.1525711
339.20 0.1553215
339.30 0.1587893
339.40 0.1630353
339.50 0.1673716
339.60 0.1708665
339.70 0.1729365
339.80 0.1734738
339.90 0.1725453
340.00 0.1702142
340.10 0.1666547
340.20 0.1622322
340.30 0.1573403
340.40 0.1521817
340.50 0.146847
340.60 0.141596
340.70 0.1369578
340.80 0.1335341
340.90 0.1317062
341.00 0.1315137
341.10 0.1327424
341.20 0.1350455
341.30 0.1379818
341.40 0.1410673
341.50 0.1438879
341.60 0.1462001
341.70 0.1479648
341.80 0.149253
341.90 0.1500971
342.00 0.1504106
342.10 0.150018
342.20 0.1487973
342.30 0.1468648
342.40 0.1446603
342.50 0.1427953
342.60 0.1417407
342.70 0.1416047
342.80 0.1421569
342.90 0.143026
343.00 0.1439123
343.10 0.1447005
343.20 0.1454212
343.30 0.146112
343.40 0.1467067
343.50 0.1470586
343.60 0.1470645
343.70 0.1467205
343.80 0.1460893
343.90 0.1452793
344.00 0.1444507
344.10 0.1437763
344.20 0.1433389
344.30 0.1430884
344.40 0.1429408
344.50 0.1429246
344.60 0.1432217
344.70 0.1440737
344.80 0.1456542
344.90 0.1479943
345.00 0.1509789
345.10 0.1543673
345.20 0.1578253
345.30 0.160969
345.40 0.1634328
345.50 0.1649856
345.60 0.1656253
345.70 0.1655638
345.80 0.1650773
345.90 0.1643295
346.00 0.1633196
346.10 0.1619568
346.20 0.1601847
346.30 0.1580909
346.40 0.1559338
346.50 0.1540187
346.60 0.1524908
346.70 0.151238
346.80 0.1500102
346.90 0.1486449
347.00 0.147179
347.10 0.14582
347.20 0.1448773
347.30 0.1446785
347.40 0.1454371
347.50 0.1471218
347.60 0.1494696
347.70 0.1521472
347.80 0.1549073
347.90 0.1576234
348.00 0.1602122
348.10 0.1625414
348.20 0.164405
348.30 0.1655935
348.40 0.1660124
348.50 0.1657466
348.60 0.164994
348.70 0.1639319
348.80 0.1626725
348.90 0.1613153
349.00 0.1599807
349.10 0.1587856
349.20 0.1578184
349.30 0.1571526
349.40 0.1568694
349.50 0.1570277
349.60 0.1576097
349.70 0.1585303
349.80 0.1597427
349.90 0.1613523
350.00 0.1635788
350.10 0.1665441
350.20 0.1700601
350.30 0.1736226
350.40 0.1766276
350.50 0.178625
350.60 0.1794225
350.70 0.1790248
350.80 0.1775329
350.90 0.1750807
351.00 0.171793
351.10 0.1677781
351.20 0.1631865
351.30 0.1583216
351.40 0.1536751
351.50 0.1497818
351.60 0.1469649
351.70 0.145188
351.80 0.1441541
351.90 0.1435578
352.00 0.1432663
352.10 0.1433021
352.20 0.1437555
352.30 0.1447592
352.40 0.1465052
352.50 0.149228
352.60 0.1530642
352.70 0.1578668
352.80 0.1631665
352.90 0.1683712
353.00 0.1730856
353.10 0.1772751
353.20 0.1811276
353.30 0.1848028
353.40 0.188339
353.50 0.1917388
353.60 0.1950405
353.70 0.1982571
353.80 0.2013
353.90 0.2039937
354.00 0.2061392
354.10 0.2075568
354.20 0.2081204
354.30 0.2078439
354.40 0.2069606
354.50 0.2058522
354.60 0.2048361
354.70 0.2040095
354.80 0.2032841
354.90 0.2025451
355.00 0.2017576
355.10 0.2009521
355.20 0.2001553
355.30 0.1993557
355.40 0.1985199
355.50 0.1975981
355.60 0.1965
355.70 0.1950788
355.80 0.1931727
355.90 0.1907092
356.00 0.187763
356.10 0.1844955
356.20 0.1810456
356.30 0.1774752
356.40 0.1738133
356.50 0.1701586
356.60 0.1667431
356.70 0.1638738
356.80 0.1617678
356.90 0.160409
357.00 0.159554
357.10 0.1588653
357.20 0.1580383
357.30 0.1568662
357.40 0.1552611
357.50 0.1532569
357.60 0.1509972
357.70 0.1486952
357.80 0.1465798
357.90 0.1448487
358.00 0.1436577
358.10 0.1431399
358.20 0.1433967
358.30 0.1444394
358.40 0.1461261
358.50 0.1481663
358.60 0.1502095
358.70 0.1519594
358.80 0.1532696
358.90 0.1541877
359.00 0.1549359
359.10 0.1558125
359.20 0.1570319
359.30 0.1585881
359.40 0.1602335
359.50 0.161614
359.60 0.1624745
359.70 0.1627752
359.80 0.1626417
359.90 0.1622085
360.00 0.1614933
360.10 0.1604034
360.20 0.1588747
360.30 0.1570167
360.40 0.155153
360.50 0.1537406
360.60 0.1532196
360.70 0.1538703
360.80 0.1557057
360.90 0.1584464
361.00 0.1616273
361.10 0.1647967
361.20 0.1676659
361.30 0.1701114
361.40 0.1720906
361.50 0.1735904
361.60 0.174663
361.70 0.1754641
361.80 0.1761869
361.90 0.1769234
362.00 0.1776118
362.10 0.1781341
362.20 0.1784348
362.30 0.178545
362.40 0.1785327
362.50 0.178453
362.60 0.1783166
362.70 0.1780625
362.80 0.1775784
362.90 0.1768144
363.00 0.1758949
363.10 0.175086
363.20 0.1746271
363.30 0.1745843
363.40 0.1748437
363.50 0.1752107
363.60 0.1755056
363.70 0.1755948
363.80 0.1753742
363.90 0.1747557
364.00 0.1736801
364.10 0.1721509
364.20 0.1702698
364.30 0.1682407
364.40 0.166333
364.50 0.1648252
364.60 0.16394
364.70 0.1637726
364.80 0.1642667
364.90 0.1652775
365.00 0.166678
365.10 0.1684087
365.20 0.1704043
365.30 0.1724742
365.40 0.1742955
365.50 0.1755622
365.60 0.1761728
365.70 0.1762852
365.80 0.1761814
365.90 0.1760816
366.00 0.176071
366.10 0.1761596
366.20 0.1763639
366.30 0.1766916
366.40 0.1770683
366.50 0.1773208
366.60 0.1772451
366.70 0.1767128
366.80 0.1757359
366.90 0.1744586
367.00 0.1731124
367.10 0.171959
367.20 0.1712349
367.30 0.1711008
367.40 0.1715958
367.50 0.1726266
367.60 0.1740117
367.70 0.1755526
367.80 0.1770905
367.90 0.1785203
368.00 0.1797736
368.10 0.1807935
368.20 0.1815242
368.30 0.1819246
368.40 0.1819984
368.50 0.1818229
368.60 0.1815536
368.70 0.1813798
368.80 0.181444
368.90 0.1817845
369.00 0.1823442
369.10 0.183033
369.20 0.1837712
369.30 0.1844755
369.40 0.1850367
369.50 0.1853537
369.60 0.18542
369.70 0.1853772
369.80 0.1854707
369.90 0.1859381
370.00 0.1869035
370.10 0.1883286
370.20 0.1900419
370.30 0.19181
370.40 0.1934094
370.50 0.1946744
370.60 0.1955209
370.70 0.1959646
370.80 0.1961052
370.90 0.196059
371.00 0.1958675
371.10 0.1954463
371.20 0.1946208
371.30 0.1932282
371.40 0.1912317
371.50 0.1887895
371.60 0.1862273
371.70 0.183913
371.80 0.1821126
371.90 0.1808955
372.00 0.1801264
372.10 0.1795071
372.20 0.1786359
372.30 0.177129
372.40 0.1748103
372.50 0.1718873
372.60 0.1689618
372.70 0.1668163
372.80 0.1660922
372.90 0.1670377
373.00 0.1694399
373.10 0.1727237
373.20 0.1761286
373.30 0.1788942
373.40 0.1804254
373.50 0.1803975
373.60 0.1787877
373.70 0.1758499
373.80 0.1720609
373.90 0.1680683
374.00 0.1646082
374.10 0.1623838
374.20 0.1619352
374.30 0.1635442
374.40 0.1672001
374.50 0.1725974
374.60 0.1791518
374.70 0.1860499
374.80 0.1923627
374.90 0.1972276
375.00 0.2000478
375.10 0.2006172
375.20 0.1991261
375.30 0.1960621
375.40 0.1920714
375.50 0.1878229
375.60 0.1838801
375.70 0.1806158
375.80 0.1782073
375.90 0.1767135
376.00 0.1762001
376.10 0.1768386
376.20 0.1789194
376.30 0.1827688
376.40 0.188596
376.50 0.1963547
376.60 0.2056933
376.70 0.2159636
376.80 0.2262486
376.90 0.2354235
377.00 0.2423146
377.10 0.245979
377.20 0.2459804
377.30 0.2424954
377.40 0.2362051
377.50 0.228066
377.60 0.219088
377.70 0.2101777
377.80 0.20203
377.90 0.1950656
378.00 0.1894348
378.10 0.1850924
378.20 0.1819077
378.30 0.1797413
378.40 0.1784863
378.50 0.1781071
378.60 0.1786771
378.70 0.1803895
378.80 0.1835179
378.90 0.18835
379.00 0.1951357
379.10 0.2040157
379.20 0.2148921
379.30 0.2272929
379.40 0.2403222
379.50 0.2527599
379.60 0.2632661
379.70 0.2706172
379.80 0.2739442
379.90 0.2729309
380.00 0.2679006
380.10 0.2597248
380.20 0.2495776
380.30 0.2386446
380.40 0.2279052
380.50 0.2180351
380.60 0.2094
380.70 0.2020966
380.80 0.196022
380.90 0.1909873
381.00 0.1868291
381.10 0.183451
381.20 0.1807877
381.30 0.1787488
381.40 0.1772204
381.50 0.1761194
381.60 0.1782049
381.70 0.1868064
381.80 0.2036752
381.90 0.2308785
382.00 0.2724669
382.10 0.3295383
382.20 0.3884566
382.30 0.4732072
382.40 0.5834414
382.50 0.7012042
382.60 0.8180852
382.70 0.9261968
382.80 1.023323
382.90 1.111401
383.00 1.257538
383.10 1.451057
383.20 1.557074
383.30 1.556799
383.40 1.454113
383.50 1.280567
383.60 1.086298
383.70 0.9134856
383.80 0.7653935
383.90 0.6187268
384.00 0.4722846
384.10 0.355554
384.20 0.2929836
384.30 0.2704049
384.40 0.2706728
384.50 0.3331264
384.60 0.4297524
384.70 0.6031899
384.80 0.7475423
384.90 0.7740869
385.00 0.6490121
385.10 0.4235191
385.20 0.2169728
385.30 0.1467765
385.40 0.2435952
385.50 0.4328471
385.60 0.6028693
385.70 0.6865916
385.80 0.6791703
385.90 0.6098616
386.00 0.5249358
386.10 0.4723777
386.20 0.4826032
386.30 0.5493023
386.40 0.6428653
386.50 0.7409874
386.60 0.8344415
386.70 0.9167548
386.80 0.9763555
386.90 1.009353
387.00 1.02407
387.10 1.024457
387.20 1.000032
387.30 0.9425738
387.40 0.8645896
387.50 0.7822592
387.60 0.6906001
387.70 0.5790021
387.80 0.4815894
387.90 0.4601556
388.00 0.5291881
388.10 0.6346204
388.20 0.7089356
388.30 0.7419153
388.40 0.7679637
388.50 0.8095095
388.60 0.8544697
388.70 0.8787134
388.80 0.8663137
388.90 0.8097272
389.00 0.7078337
389.10 0.5637506
389.20 0.385685
389.30 0.1898684
389.40 0.05967303
389.50 0
389.60 0
389.70 0
389.80 0.049849
389.90 0.05842983
390.00 0.03753689
390.10 0.07929177
390.20 0.1216149
390.30 0.1852916
390.40 0.3083641
390.50 0.3836954
390.60 0.4464167
390.70 0.565024
390.80 0.7517069
390.90 0.9363937
391.00 1.026596
391.10 0.9741999
391.20 0.7996243
391.30 0.7122971
391.40 0.6246922
391.50 0.521894
391.60 0.4086593
391.70 0.2851505
391.80 0.1526645
391.90 0.01109469
392.00 0
392.10 0
392.20 0
392.30 0.01300037
392.40 0.01702075
392.50 0
392.60 0
392.70 0
392.80 0
392.90 0
393.00 0.06949472
393.10 0.2473102
393.20 0.4698186
393.30 0.6870879
393.40 0.771508
393.50 0.6723863
393.60 0.4491176
393.70 0.2343705
393.80 0.1181475
393.90 0.08671138
394.00 0.06413268
394.10 0.04668513
394.20 0
394.30 0.001512377
394.40 0.000402518
394.50 0
394.60 0
394.70 0.06918
394.80 0.1152328
394.90 0.1641537
395.00 0.1820037
395.10 0.1669046
395.20 0.1241714
395.30 0.0649933
395.40 0.006498401
395.50 0.06105349
395.60 0.2058541
395.70 0.2560663
395.80 0.2435679
395.90 0.2071367
396.00 0.2515341
396.10 0.3758019
396.20 0.4935615
396.30 0.5990694
396.40 0.6886038
396.50 0.8057709
396.60 0.9646602
396.70 1.119486
396.80 1.217302
396.90 1.203216
397.00 1.059516
397.10 0.8080521
397.20 0.4906259
397.30 0.2906685
397.40 0.1568885
397.50 0.05132922
397.60 0.01273173
397.70 0.04215639
397.80 0.1010868
397.90 0.148455
398.00 0.1771431
398.10 0.2091586
398.20 0.2552549
398.30 0.2897956
398.40 0.2728908
398.50 0.1920667
398.60 0.07912273
398.70 0
398.80 0
398.90 0
399.00 0
399.10 0
399.20 0
399.30 0
399.40 0
399.50 0
399.60 0.1207643
399.70 0.2207481
399.80 0.2725968
399.90 0.3028105
400.00 0.3416626
400.10 0.401496
400.20 0.4680783
400.30 0.5171337
400.40 0.5392331
400.50 0.5547964
400.60 0.5840423
400.70 0.5738726
400.80 0.5153994
400.90 0.4381036
401.00 0.3114351
401.10 0.136818
401.20 0.00226717
401.30 0
401.40 0
401.50 0
401.60 0
401.70 0.04341449
401.80 0.2361869
401.90 0.3741963
402.00 0.4480436
402.10 0.474674
402.20 0.4806156
402.30 0.4775606
402.40 0.4604205
402.50 0.4340411
402.60 0.4289621
402.70 0.4722084
402.80 0.5549916
402.90 0.6467688
403.00 0.7261746
403.10 0.7916224
403.20 0.8384917
403.30 0.8464877
403.40 0.7999069
403.50 0.7113321
403.60 0.6185784
403.70 0.5724511
403.80 0.5741725
403.90 0.5970403
404.00 0.6303635
404.10 0.6659098
404.20 0.7157208
404.30 0.781776
404.40 0.8463635
404.50 0.8851131
404.60 0.8785427
404.70 0.8130803
404.80 0.6940695
404.90 0.5569659
405.00 0.4450626
405.10 0.3732178
405.20 0.3185557
405.30 0.2550513
405.40 0.1845626
405.50 0.1182944
405.60 0.08276559
405.70 0.08532982
405.80 0.05592895
405.90 0.02797209
406.00 0.03522569
406.10 0.07443948
406.20 0.1145349
406.30 0.1354089
406.40 0.1434209
406.50 0.2205271
406.60 0.337597
406.70 0.4310373
406.80 0.4881691
406.90 0.4967667
407.00 0.4523001
407.10 0.3709019
407.20 0.3203431
407.30 0.2985055
407.40 0.2709852
407.50 0.2731884
407.60 0.262642
407.70 0.2314668
407.80 0.1930932
407.90 0.1507094
408.00 0.09954135
408.10 0.04497613
408.20 0.0151008
408.30 0.00446259
408.40 0.007137143
408.50 0.02100524
408.60 0.04309398
408.70 0.06279311
408.80 0.07131556
408.90 0.07606483
409.00 0.08781741
409.10 0.145673
409.20 0.2581846
409.30 0.3896337
409.40 0.4813786
409.50 0.5168464
409.60 0.5356785
409.70 0.5881458
409.80 0.6857412
409.90 0.7987615
410.00 0.884555
410.10 0.9094389
410.20 0.8546567
410.30 0.7197014
410.40 0.5271261
410.50 0.318116
410.60 0.1365337
410.70 0.07705032
410.80 0.04197398
410.90 0.03169144
411.00 0.04176619
411.10 0.06125385
411.20 0.07841085
411.30 0.08570656
411.40 0.07814636
411.50 0.0530463
411.60 0.1041116
411.70 0.2270736
411.80 0.3304002
411.90 0.3605303
412.00 0.3346472
412.10 0.296994
412.20 0.3105545
412.30 0.3418441
412.40 0.3735714
412.50 0.386762
412.60 0.3719108
412.70 0.332924
412.80 0.2831014
412.90 0.2359513
413.00 0.2028329
413.10 0.1930261
413.20 0.2080899
413.30 0.2431264
413.40 0.2921251
413.50 0.3487223
413.60 0.4039542
413.70 0.4480891
413.80 0.4727567
413.90 0.4686057
414.00 0.4234159
414.10 0.3275505
414.20 0.2694415
414.30 0.2035508
414.40 0.1329868
414.50 0.06256511
414.60 0
414.70 0
414.80 0.02719767
414.90 0.059586
415.00 0.0227474
415.10 0
415.20 0
415.30 0
415.40 0
415.50 0
415.60 0
415.70 0
415.80 0
415.90 0
416.00 0.002051761
416.10 0.04235759
416.20 0.07961452
416.30 0.092498
416.40 0.06389828
416.50 0
416.60 0
416.70 0
416.80 0
416.90 0.01339763
417.00 0.07681967
417.10 0.187799
417.20 0.2514633
417.30 0.2825633
417.40 0.3103262
417.50 0.3321576
417.60 0.3183145
417.70 0.2563524
417.80 0.1700421
417.90 0.135697
418.00 0.09421265
418.10 0.04564034
418.20 0
418.30 0
418.40 0
418.50 0.008699055
418.60 0.1131807
418.70 0.2196247
418.80 0.3092131
418.90 0.3721325
419.00 0.4121317
419.10 0.4325877
419.20 0.4262044
419.30 0.3843186
419.40 0.3121413
419.50 0.2257406
419.60 0.1437172
419.70 0.08449181
419.80 0.08686985
419.90 0.1254961
420.00 0.1687904
420.10 0.1792631
420.20 0.137896
420.30 0.08333428
420.40 0.02753295
420.50 0
420.60 0
420.70 0
420.80 0.01250481
420.90 0.03331719
421.00 0.0303409
421.10 0.02394487
421.20 0.04514455
421.30 0.1077578
421.40 0.263097
421.50 0.3902887
421.60 0.4671672
421.70 0.4964346
421.80 0.4914901
421.90 0.461287
422.00 0.4122687
422.10 0.3560419
422.20 0.3077353
422.30 0.2714592
422.40 0.2281551
422.50 0.156189
422.60 0.06809466
422.70 0.0510074
422.80 0.03174187
422.90 0.01604388
423.00 0.01197153
423.10 0.0278458
423.20 0.06952569
423.30 0.1370548
423.40 0.2219705
423.50 0.3529486
423.60 0.5237353
423.70 0.6380845
423.80 0.6752497
423.90 0.6409119
424.00 0.5522299
424.10 0.4314465
424.20 0.3021415
424.30 0.1796686
424.40 0.09900952
424.50 0.0556772
424.60 0.03362488
424.70 0.03401155
424.80 0.09664492
424.90 0.1901912
425.00 0.2841396
425.10 0.3571093
425.20 0.3934588
425.30 0.393066
425.40 0.3699239
425.50 0.3458412
425.60 0.3389304
425.70 0.355779
425.80 0.3862308
425.90 0.406665
426.00 0.4021519
426.10 0.3795897
426.20 0.3541164
426.30 0.3352432
426.40 0.3299905
426.50 0.3413197
426.60 0.3551263
426.70 0.3368833
426.80 0.260484
426.90 0.1765941
427.00 0.1566105
427.10 0.1307518
427.20 0.09806973
427.30 0.05796878
427.40 0.01231316
427.50 0
427.60 0
427.70 0
427.80 0.01257456
427.90 0.0177292
428.00 0.005136114
428.10 0
428.20 0
428.30 0
428.40 0.05334643
428.50 0.130439
428.60 0.2077185
428.70 0.2796349
428.80 0.3416525
428.90 0.3935776
429.00 0.4387171
429.10 0.5158654
429.20 0.5909642
429.30 0.6372962
429.40 0.656064
429.50 0.6490875
429.60 0.6192611
429.70 0.5642718
429.80 0.4822841
429.90 0.3901837
430.00 0.3225221
430.10 0.3001179
430.20 0.3042988
430.30 0.2978382
430.40 0.2712688
430.50 0.2547344
430.60 0.2758723
430.70 0.3293783
430.80 0.3986337
430.90 0.4804987
431.00 0.5799034
431.10 0.6941164
431.20 0.8085042
431.30 0.9029433
431.40 0.9587564
431.50 0.9627353
431.60 0.9307869
431.70 0.8774073
431.80 0.801823
431.90 0.715713
432.00 0.6355868
432.10 0.5915534
432.20 0.5604395
432.30 0.5386098
432.40 0.5144916
432.50 0.4696571
432.60 0.3933791
432.70 0.3008428
432.80 0.2268167
432.90 0.1930531
433.00 0.1836833
433.10 0.1642609
433.20 0.1534802
433.30 0.1752725
433.40 0.2069788
433.50 0.2447956
433.60 0.2835408
433.70 0.3252084
433.80 0.445196
433.90 0.5816294
434.00 0.713993
434.10 0.8002836
434.20 0.8003564
434.30 0.7116759
434.40 0.5799111
434.50 0.4659188
434.60 0.4026955
434.70 0.3813695
434.80 0.3693643
434.90 0.3386971
435.00 0.2811004
435.10 0.2054281
435.20 0.1263755
435.30 0.05553554
435.40 0.01248824
435.50 0.03596801
435.60 0.07969018
435.70 0.1438566
435.80 0.2013402
435.90 0.2034833
436.00 0.1278118
436.10 0.03372575
436.20 0.05844204
436.30 0.1168827
436.40 0.2064614
436.50 0.3009556
436.60 0.3438334
436.70 0.3584548
436.80 0.3857647
436.90 0.4349605
437.00 0.4744102
437.10 0.4666614
437.20 0.3992111
437.30 0.2876676
437.40 0.1634344
437.50 0.0557548
437.60 0
437.70 0
437.80 0
437.90 0.01712541
438.00 0.05813979
438.10 0.1235575
438.20 0.1619241
438.30 0.1752632
438.40 0.1923935
438.50 0.216555
438.60 0.221701
438.70 0.2135325
438.80 0.2184311
438.90 0.2353174
439.00 0.248252
439.10 0.2287713
439.20 0.1726135
439.30 0.1068187
439.40 0.05903837
439.50 0.0377935
439.60 0.03230778
439.70 0.02833533
439.80 0.026618
439.90 0.06705348
440.00 0.1201395
440.10 0.1398143
440.20 0.110553
440.30 0.04896304
440.40 0.02559009
440.50 0
440.60 0
440.70 0
440.80 0
440.90 0.04565821
441.00 0.1171764
441.10 0.1740523
441.20 0.1996106
441.30 0.1928974
441.40 0.1709858
441.50 0.1544361
441.60 0.1518967
441.70 0.1563217
441.80 0.1523358
441.90 0.130123
442.00 0.09579848
442.10 0.06834239
442.20 0.06454266
442.30 0.08506247
442.40 0.1116252
442.50 0.1207974
442.60 0.1038272
442.70 0.07383677
442.80 0.05529508
442.90 0.06296862
443.00 0.08788205
443.10 0.1047941
443.20 0.09328928
443.30 0.05289787
443.40 0.0007362898
443.50 0.01051557
443.60 0.07532792
443.70 0.1333171
443.80 0.2316141
443.90 0.3150307
444.00 0.3551476
444.10 0.3470283
444.20 0.3084548
444.30 0.2552146
444.40 0.1845436
444.50 0.1305864
444.60 0.09362788
444.70 0.04965832
444.80 0.02484977
444.90 0.03306296
445.00 0.07017612
445.10 0.1264386
445.20 0.1942215
445.30 0.2569363
445.40 0.2839918
445.50 0.259887
445.60 0.283857
445.70 0.2906547
445.80 0.308158
445.90 0.3315392
446.00 0.3426999
446.10 0.3442372
446.20 0.3594343
446.30 0.4024137
446.40 0.4591772
446.50 0.4953656
446.60 0.479147
446.70 0.4050041
446.80 0.3030719
446.90 0.2201607
447.00 0.1829268
447.10 0.1801638
447.20 0.1860456
447.30 0.1942008
447.40 0.2174846
447.50 0.2637404
447.60 0.3212556
447.70 0.3643992
447.80 0.3745998
447.90 0.3543776
448.00 0.3635725
448.10 0.3476864
448.20 0.3251476
448.30 0.3418832
448.40 0.3416085
448.50 0.3220137
448.60 0.3011717
448.70 0.2971903
448.80 0.3096091
448.90 0.3252756
449.00 0.3396627
449.10 0.3631536
449.20 0.4071016
449.30 0.4678248
449.40 0.5275042
449.50 0.5731469
449.60 0.6079684
449.70 0.6405712
449.80 0.6727692
449.90 0.6973773
450.00 0.7047001
450.10 0.6908007
450.20 0.6614322
450.30 0.6329987
450.40 0.6230846
450.50 0.6375018
450.60 0.6661985
450.70 0.6920689
450.80 0.7041733
450.90 0.7033713
451.00 0.6933244
451.10 0.6715703
451.20 0.6355308
451.30 0.5884667
451.40 0.5380238
451.50 0.4907326
451.60 0.4512153
451.70 0.4278286
451.80 0.434024
451.90 0.4794429
452.00 0.5575909
452.10 0.645314
452.20 0.7161425
452.30 0.757069
452.40 0.7723908
452.50 0.7724723
452.60 0.7602582
452.70 0.7275351
452.80 0.6626922
452.90 0.565805
453.00 0.4584892
453.10 0.3729243
453.20 0.3273952
453.30 0.3124902
453.40 0.3026091
453.50 0.2770878
453.60 0.2315638
453.70 0.1793009
453.80 0.1451162
453.90 0.1474635
454.00 0.1838124
454.10 0.235964
454.20 0.2853801
454.30 0.3257137
454.40 0.3639903
454.50 0.4048715
454.60 0.4358624
454.70 0.436289
454.80 0.3980697
454.90 0.3372232
455.00 0.284872
455.10 0.2702276
455.20 0.3141971
455.30 0.417261
455.40 0.5453025
455.50 0.6473121
455.60 0.6993383
455.70 0.72047
455.80 0.7398092
455.90 0.7634733
456.00 0.7797461
456.10 0.7807671
456.20 0.7693938
456.30 0.7523865
456.40 0.7343916
456.50 0.7197806
456.60 0.7128331
456.70 0.7143369
456.80 0.7200538
456.90 0.7232204
457.00 0.7211297
457.10 0.7181251
457.20 0.7229785
457.30 0.7466079
457.40 0.7988683
457.50 0.8777443
457.60 0.9623156
457.70 1.026535
457.80 1.066193
457.90 1.100344
458.00 1.142608
458.10 1.185622
458.20 1.210333
458.30 1.199841
458.40 1.144067
458.50 1.040565
458.60 0.901134
458.70 0.7526838
458.80 0.6242015
458.90 0.5322606
459.00 0.4732683
459.10 0.4251848
459.20 0.3679008
459.30 0.3087347
459.40 0.2782802
459.50 0.2942674
459.60 0.3374457
459.70 0.3729405
459.80 0.3845831
459.90 0.3808772
460.00 0.3747266
460.10 0.3678151
460.20 0.3570153
460.30 0.344053
460.40 0.3356361
460.50 0.3389242
460.60 0.3581344
460.70 0.3929197
460.80 0.4389889
460.90 0.495843
461.00 0.5727179
461.10 0.6736608
461.20 0.7773248
461.30 0.847847
461.40 0.8706665
461.50 0.8681457
461.60 0.8698167
461.70 0.8769111
461.80 0.8721062
461.90 0.8510279
462.00 0.8280877
462.10 0.8175797
462.20 0.8232488
462.30 0.8444973
462.40 0.8768913
462.50 0.9046627
462.60 0.9028398
462.70 0.8536385
462.80 0.760911
462.90 0.6487287
463.00 0.548098
463.10 0.486344
463.20 0.4743308
463.30 0.4957571
463.40 0.5221641
463.50 0.5408624
463.60 0.5625307
463.70 0.5986094
463.80 0.6426165
463.90 0.6799814
464.00 0.706148
464.10 0.7301865
464.20 0.7618422
464.30 0.7991038
464.40 0.8293161
464.50 0.8403656
464.60 0.8312957
464.70 0.8144199
464.80 0.8021054
464.90 0.7917433
465.00 0.7704336
465.10 0.7305878
465.20 0.679507
465.30 0.6343246
465.40 0.6085917
465.50 0.6072684
465.60 0.6320783
465.70 0.6843682
465.80 0.7592488
465.90 0.8425648
466.00 0.9152694
466.10 0.9611056
466.20 0.9748995
466.30 0.9668682
466.40 0.9545202
466.50 0.9461846
466.60 0.9336071
466.70 0.9011482
466.80 0.8371341
466.90 0.735824
467.00 0.6043727
467.10 0.4728175
467.20 0.3822094
467.30 0.3514236
467.40 0.3605337
467.50 0.3721233
467.60 0.3644505
467.70 0.3397071
467.80 0.3122815
467.90 0.2996731
468.00 0.3170718
468.10 0.3698799
468.20 0.4493187
468.30 0.5397094
468.40 0.6304558
468.50 0.7188681
468.60 0.8023006
468.70 0.8733022
468.80 0.9253976
468.90 0.9595536
469.00 0.9797191
469.10 0.9863916
469.20 0.9816617
469.30 0.9782175
469.40 0.9887749
469.50 1.003953
469.60 0.9944704
469.70 0.9464916
469.80 0.8824745
469.90 0.8325335
470.00 0.7977047
470.10 0.7570822
470.20 0.7061546
470.30 0.663597
470.40 0.6416447
470.50 0.6267818
470.60 0.59525
470.70 0.5425232
470.80 0.4908083
470.90 0.4708926
471.00 0.4984901
471.10 0.5642443
471.20 0.6382523
471.30 0.6865594
471.40 0.6920866
471.50 0.6640978
471.60 0.6286267
471.70 0.6019273
471.80 0.5754005
471.90 0.5309217
472.00 0.4676192
472.10 0.4095868
472.20 0.3878821
472.30 0.4183755
472.40 0.4896664
472.50 0.5698141
472.60 0.6312735
472.70 0.6732067
472.80 0.7162703
472.90 0.7728002
473.00 0.8279545
473.10 0.8557248
473.20 0.8467395
473.30 0.8128184
473.40 0.7694856
473.50 0.7250488
473.60 0.6879966
473.70 0.6747383
473.80 0.7019779
473.90 0.7709794
474.00 0.8601596
474.10 0.9352163
474.20 0.9709373
474.30 0.9659766
474.40 0.9374584
474.50 0.9012019
474.60 0.857851
474.70 0.7985956
474.80 0.7200682
474.90 0.6333004
475.00 0.5610557
475.10 0.5261528
475.20 0.542819
475.30 0.6099513
475.40 0.7056336
475.50 0.7914171
475.60 0.8280118
475.70 0.7949003
475.80 0.7010007
475.90 0.5739522
476.00 0.4353801
476.10 0.2892084
476.20 0.1344792
476.30 0
476.40 0
476.50 0
476.60 0
476.70 0.05406835
476.80 0.1971664
476.90 0.3232467
477.00 0.4111817
477.10 0.4644322
477.20 0.498187
477.30 0.5190853
477.40 0.5223225
477.50 0.5050365
477.60 0.47411
477.70 0.4401232
477.80 0.4078606
477.90 0.3798953
478.00 0.366704
478.10 0.3807993
478.20 0.4187437
478.30 0.4543213
478.40 0.4584638
478.50 0.4306147
478.60 0.4018797
478.70 0.3996623
478.80 0.4193588
478.90 0.4361701
479.00 0.4402206
479.10 0.4520443
479.20 0.5008812
479.30 0.5936225
479.40 0.7069443
479.50 0.8068121
479.60 0.8730528
479.70 0.9065266
479.80 0.9192181
479.90 0.9191162
480.00 0.9004892
480.10 0.8486369
480.20 0.7558904
480.30 0.6317698
480.40 0.497058
480.50 0.3730833
480.60 0.2797109
480.70 0.2372872
480.80 0.2585503
480.90 0.3384612
481.00 0.45405
481.10 0.5746929
481.20 0.6794802
481.30 0.7655364
481.40 0.8383292
481.50 0.8946135
481.60 0.9209208
481.70 0.9116692
481.80 0.881803
481.90 0.8551138
482.00 0.8406377
482.10 0.8275165
482.20 0.8008359
482.30 0.7559897
482.40 0.6996959
482.50 0.6436907
482.60 0.6009942
482.70 0.5814992
482.80 0.582407
482.90 0.5871405
483.00 0.5853816
483.10 0.5861733
483.20 0.6012641
483.30 0.6248197
483.40 0.6425152
483.50 0.6558218
483.60 0.6783176
483.70 0.711228
483.80 0.7390942
483.90 0.7514906
484.00 0.7566881
484.10 0.7709498
484.20 0.8019881
484.30 0.8427606
484.40 0.8746713
484.50 0.8767582
484.60 0.8410361
484.70 0.7834115
484.80 0.7337544
484.90 0.7094569
485.00 0.698097
485.10 0.6698604
485.20 0.6092059
485.30 0.5333669
485.40 0.4768163
485.50 0.4569316
485.60 0.4659513
485.70 0.5027641
485.80 0.6004725
485.90 0.8029285
486.00 1.104273
486.10 1.415559
486.20 1.60609
486.30 1.590994
486.40 1.389264
486.50 1.105942
486.60 0.8578394
486.70 0.7060482
486.80 0.6419717
486.90 0.6201984
487.00 0.6017403
487.10 0.5778594
487.20 0.5651366
487.30 0.5853154
487.40 0.6449947
487.50 0.7274496
487.60 0.8031819
487.70 0.8468621
487.80 0.8485783
487.90 0.8138471
488.00 0.7572562
488.10 0.6983611
488.20 0.657987
488.30 0.6503919
488.40 0.6732565
488.50 0.7084874
488.60 0.732978
488.70 0.7301998
488.80 0.6965111
488.90 0.6418353
489.00 0.5861935
489.10 0.5538132
489.20 0.5624436
489.30 0.607802
489.40 0.6606153
489.50 0.6888038
489.60 0.6867341
489.70 0.6742901
489.80 0.6685666
489.90 0.6698643
490.00 0.6735529
490.10 0.6795862
490.20 0.6831536
490.30 0.6693699
490.40 0.6330674
490.50 0.5963682
490.60 0.5903334
490.70 0.6220038
490.80 0.6698356
490.90 0.7104082
491.00 0.7400486
491.10 0.7659995
491.20 0.786649
491.30 0.7916127
491.40 0.7779536
491.50 0.7564144
491.60 0.7438215
491.70 0.7555193
491.80 0.8015571
491.90 0.8826646
492.00 0.9863903
492.10 1.092618
492.20 1.188793
492.30 1.275594
492.40 1.355282
492.50 1.417889
492.60 1.445201
492.70 1.434169
492.80 1.409463
492.90 1.404055
493.00 1.429594
493.10 1.470636
493.20 1.5078
493.30 1.536908
493.40 1.56081
493.50 1.574455
493.60 1.56663
493.70 1.530455
493.80 1.468199
493.90 1.386692
494.00 1.295735
494.10 1.212714
494.20 1.157879
494.30 1.144225
494.40 1.174461
494.50 1.243497
494.60 1.340003
494.70 1.447289
494.80 1.547291
494.90 1.626789
495.00 1.678152
495.10 1.697977
495.20 1.687586
495.30 1.647485
495.40 1.568171
495.50 1.433004
495.60 1.238535
495.70 1.010314
495.80 0.7874901
495.90 0.5933438
496.00 0.4320432
496.10 0.3077737
496.20 0.2323089
496.30 0.2132941
496.40 0.2420574
496.50 0.2960786
496.60 0.3497653
496.70 0.3849503
496.80 0.401371
496.90 0.4152673
497.00 0.4356155
497.10 0.4442322
497.20 0.4122886
497.30 0.3382632
497.40 0.2594143
497.50 0.2220021
497.60 0.2497808
497.70 0.339803
497.80 0.4721848
497.90 0.6122566
498.00 0.7155816
498.10 0.7542008
498.20 0.7455179
498.30 0.7415026
498.40 0.7829732
498.50 0.8676731
498.60 0.9583399
498.70 1.016229
498.80 1.026857
498.90 1.00325
499.00 0.9700107
499.10 0.9411394
499.20 0.9129116
499.30 0.8767739
499.40 0.8327637
499.50 0.7896945
499.60 0.7539098
499.70 0.7183079
499.80 0.6635303
499.90 0.5737813
500.00 1
500.10 0.9391965
500.20 0.6740607
500.30 0.4364492
500.40 1.048493
500.50 1.10603
500.60 0.5984724
500.70 0.698064
500.80 0.7324671
500.90 0.1653231
501.00 0.1688258
501.10 0.3831217
501.20 0.9659687
501.30 0.439555
501.40 0.6996385
501.50 1.797853
501.60 0.8933183
501.70 0.1804674
501.80 0.6594733
501.90 1.044738
502.00 1.309348
502.10 0.7833476
502.20 0.1536531
502.30 0.516008
502.40 0.6117662
502.50 0.4490112
502.60 0.9876775
502.70 1.11204
502.80 1.106865
502.90 0.8119079
503.00 0.6720538
503.10 0.5099256
503.20 0.8351352
503.30 1.343091
503.40 1.398719
503.50 1.501426
503.60 1.375675
503.70 0.9158157
503.80 0.7879226
503.90 1.034667
504.00 1.103457
504.10 1.190476
504.20 0.7884241
504.30 0.6178254
504.40 0.8478028
504.50 1.110596
504.60 1.118578
504.70 1.196943
504.80 1.71287
504.90 0.6877138
505.00 0.3141907
505.10 0.2058139
505.20 0.6414594
505.30 1.494245
505.40 0.980947
505.50 0
505.60 0.522609
505.70 1.306699
505.80 1.44244
505.90 0.8293743
506.00 0.6108187
506.10 0.6360016
506.20 0.1298122
506.30 0.6446288
506.40 1.105688
506.50 0.8394701
506.60 0.9384248
506.70 0.992712
506.80 0.5411814
506.90 0.3739806
507.00 1.179559
507.10 1.653001
507.20 1.341214
507.30 0.4092744
507.40 0.8529659
507.50 1.99587
507.60 2.116707
507.70 1.504647
507.80 1.361166
507.90 1.149156
508.00 1.156862
508.10 1.69551
508.20 2.071984
508.30 1.318224
508.40 0.5743352
508.50 0.8122238
508.60 1.305151
508.70 1.342653
508.80 1.391234
508.90 1.655479
509.00 1.66434
509.10 0.7319581
509.20 0.8343249
509.30 1.285782
509.40 1.271086
509.50 1.265858
509.60 1.996104
509.70 1.368816
509.80 1.29402
509.90 1.962222
510.00 2.264964
510.10 1.314266
510.20 0.2507905
510.30 0.485994
510.40 0.7101709
510.50 1.268789
510.60 1.175492
510.70 1.244637
510.80 0.9946665
510.90 0.6835792
511.00 0.4294744
511.10 0.7078843
511.20 1.351238
511.30 1.298659
511.40 1.564424
511.50 1.696482
511.60 1.693239
511.70 1.537899
511.80 0.7702274
511.90 0.7981452
512.00 1.358172
512.10 1.708235
512.20 1.891756
512.30 1.948842
512.40 1.675754
512.50 0.6024871
512.60 1.079438
512.70 1.421807
512.80 1.169302
512.90 0.5669781
513.00 0.6198935
513.10 1.41915
513.20 1.545769
513.30 1.416591
513.40 1.301294
513.50 1.233773
513.60 1.8252
513.70 1.896129
513.80 1.668017
513.90 1.131227
514.00 1.730293
514.10 1.886875
514.20 1.226914
514.30 0.7498743
514.40 1.645242
514.50 1.785288
514.60 1.402081
514.70 1.03097
514.80 1.261177
514.90 1.015756
515.00 1.086575
515.10 1.177126
515.20 1.625099
515.30 1.350728
515.40 0.5614099
515.50 1.266072
515.60 1.812752
515.70 1.700201
515.80 1.596304
515.90 1.78672
516.00 2.365568
516.10 2.366028
516.20 2.158073
516.30 2.283063
516.40 2.649386
516.50 2.403622
516.60 1.856908
516.70 1.259742
516.80 1.079269
516.90 0.6038861
517.00 0.007614356
517.10 0
517.20 0.3508463
517.30 0.6230273
517.40 0.4025286
517.50 0.8445715
517.60 0.4902055
517.70 0.2856541
517.80 0.3028608
517.90 0.1904855
518.00 0.1836665
518.10 0.4943853
518.20 0.4099755
518.30 0.1237
518.40 0.6961324
518.50 0.9972385
518.60 1.194908
518.70 1.426716
518.80 0.9856282
518.90 0.6632683
519.00 0.760255
519.10 0.6943606
519.20 0.8226054
519.30 0.7698652
519.40 0.6279613
519.50 0.5754831
519.60 0.6494523
519.70 0.8481061
519.80 0.6287632
519.90 0.715752
520.00 1.229554
520.10 0.7628939
520.20 0.5334288
520.30 1.192451
520.40 0.9282964
520.50 0.4892591
520.60 1.121542
520.70 0.8130777
520.80 0.8729062
520.90 0.9050946
521.00 0.8078408
521.10 0.5205329
521.20 0.5619736
521.30 0.6731281
521.40 1.549091
521.50 1.501779
521.60 0.8286613
521.70 1.221087
521.80 1.169893
521.90 0.5818201
522.00 0.5716307
522.10 1.442834
522.20 1.806332
522.30 1.511542
522.40 1.811883
522.50 2.133308
522.60 1.389092
522.70 1.221683
522.80 1.8302
522.90 2.029948
523.00 1.525423
523.10 1.130229
523.20 1.361445
523.30 1.611455
523.40 0.9897657
523.50 0.6540853
523.60 1.121191
523.70 1.432396
523.80 1.335022
523.90 1.362979
524.00 1.700134
524.10 1.85391
524.20 1.252184
524.30 0.5629619
524.40 0.4997986
524.50 0.8466082
524.60 0.7936204
524.70 1.133684
524.80 1.006095
524.90 0.2690599
525.00 0.8903174
525.10 1.54671
525.20 1.465036
525.30 1.297914
525.40 0.8545498
525.50 1.873904
525.60 1.868755
525.70 1.630324
525.80 1.422461
525.90 1.6475
526.00 1.325383
526.10 1.457702
526.20 1.064141
526.30 1.228165
526.40 1.377399
526.50 1.113479
526.60 0.6040358
526.70 1.017764
526.80 1.890364
526.90 1.430029
527.00 0.8980871
527.10 1.348817
527.20 1.299513
527.30 1.63957
527.40 2.100219
527.50 1.893114
527.60 1.55185
527.70 0.9796048
527.80 0.7060888
527.90 1.536023
528.00 2.330419
528.10 1.412877
528.20 1.077457
528.30 1.43973
528.40 1.635139
528.50 1.351638
528.60 1.605189
528.70 1.868797
528.80 1.26667
528.90 1.223873
529.00 2.007679
529.10 2.186906
529.20 2.39967
529.30 2.115538
529.40 1.898834
529.50 1.788722
529.60 1.669203
529.70 1.406596
529.80 1.739036
529.90 1.23744
530.00 0.990321
530.10 1.196024
530.20 2.006042
530.30 2.116299
530.40 1.758392
530.50 1.8883
530.60 1.860557
530.70 1.193095
530.80 1.420142
530.90 1.88671
531.00 1.678619
531.10 1.641515
531.20 1.968534
531.30 1.383489
531.40 1.418059
531.50 1.805749
531.60 1.649106
531.70 1.114792
531.80 1.150675
531.90 1.783976
532.00 1.882233
532.10 2.065307
532.20 2.242529
532.30 1.533252
532.40 0.9253875
532.50 1.051531
532.60 1.593029
532.70 1.747127
532.80 1.253655
532.90 1.865256
533.00 1.493078
533.10 1.380188
533.20 1.754243
533.30 2.248917
533.40 1.748686
533.50 0.9390127
533.60 1.460529
533.70 1.808855
533.80 1.828202
533.90 1.625274
534.00 1.474664
534.10 1.432288
534.20 1.067893
534.30 1.570243
534.40 2.338474
534.50 2.743085
534.60 2.388425
534.70 1.42791
534.80 0.855263
534.90 1.097248
535.00 1.857402
535.10 1.809802
535.20 1.850872
535.30 2.578687
535.40 3.058069
535.50 2.529009
535.60 1.926274
535.70 1.751262
535.80 1.02428
535.90 1.214347
536.00 1.813909
536.10 1.814177
536.20 1.583104
536.30 2.004217
536.40 1.664026
536.50 1.05107
536.60 1.445568
536.70 1.902348
536.80 2.112704
536.90 2.010815
537.00 2.015916
537.10 2.059482
537.20 1.232666
537.30 1.254316
537.40 1.36295
537.50 1.52083
537.60 1.979272
537.70 2.205861
537.80 1.744915
537.90 1.799268
538.00 2.451149
538.10 2.524969
538.20 1.816601
538.30 1.93145
538.40 2.787521
538.50 2.936276
538.60 2.30924
538.70 2.612835
538.80 2.839803
538.90 2.389816
539.00 1.911187
539.10 2.035134
539.20 2.267181
539.30 2.062006
539.40 1.579693
539.50 1.946558
539.60 2.052395
539.70 1.82121
539.80 1.900089
539.90 2.249807
540.00 2.265851
540.10 2.580087
540.20 2.588467
540.30 2.822168
540.40 2.484626
540.50 2.351172
540.60 2.359319
540.70 2.555134
540.80 2.153521
540.90 2.061653
541.00 2.147432
541.10 1.745949
541.20 1.857491
541.30 1.941517
541.40 2.00102
541.50 1.805885
541.60 1.96175
541.70 1.982932
541.80 2.412109
541.90 2.401957
542.00 1.919353
542.10 2.033332
542.20 2.570399
542.30 2.937486
542.40 2.881347
542.50 2.280483
542.60 1.906306
542.70 2.054837
542.80 2.578384
542.90 2.959882
543.00 2.252748
543.10 2.096983
543.20 1.947599
543.30 2.790406
543.40 2.733672
543.50 2.515281
543.60 2.350627
543.70 2.615219
543.80 2.465002
543.90 2.409305
544.00 2.404237
544.10 2.633089
544.20 3.237861
544.30 3.460528
544.40 2.980142
544.50 2.977936
544.60 3.276853
544.70 2.708476
544.80 2.151157
544.90 1.413942
545.00 0.6220179
545.10 0.3205687
545.20 0.4463409
545.30 0.09235374
545.40 0.1410097
545.50 0.1365438
545.60 0.7913661
545.70 1.938494
545.80 1.562058
545.90 0.6885236
546.00 0.9261854
546.10 1.759461
546.20 1.516508
546.30 1.6135
546.40 1.326505
546.50 0.9414318
546.60 1.009922
546.70 1.211798
546.80 1.924949
546.90 1.878712
547.00 1.168814
547.10 0.8550511
547.20 0.5434646
547.30 0.8138374
547.40 1.034497
547.50 1.245884
547.60 1.26098
547.70 1.80791
547.80 1.166821
547.90 0.9287699
548.00 0.9216211
548.10 1.364443
548.20 1.493926
548.30 1.321152
548.40 1.191726
548.50 1.512501
548.60 1.658489
548.70 1.815839
548.80 1.583474
548.90 1.044095
549.00 1.031322
549.10 1.414055
549.20 1.578757
549.30 1.381885
549.40 0.5814297
549.50 0.9196348
549.60 1.180239
549.70 1.025169
549.80 0.7562983
549.90 1.324139
550.00 1.069619
550.10 0.6501896
550.20 0.9280948
550.30 0.6826213
550.40 0.6683917
550.50 0.9827418
550.60 1.311845
550.70 0.6029054
550.80 0.5073757
550.90 0.7137216
551.00 0.4597345
551.10 0.1774162
551.20 0.1000172
551.30 0.2504848
551.40 0.5919851
551.50 0.9592651
551.60 1.37931
551.70 0.8406972
551.80 0.2649434
551.90 0
552.00 0.3622315
552.10 0.9677867
552.20 0.3543727
552.30 0.05460533
552.40 0.2238727
552.50 0.284028
552.60 0.4190017
552.70 0.1604601
552.80 0.2149175
552.90 0.4670353
553.00 0.708994
553.10 0.6224636
553.20 0.74438
553.30 0.9031409
553.40 0.8542202
553.50 0.5820072
553.60 0.4662506
553.70 0.2721489
553.80 0.3354344
553.90 0.6234558
554.00 1.071085
554.10 0.9231605
554.20 0.2288113
554.30 0.05978571
554.40 0.785363
554.50 1.083755
554.60 0.7504307
554.70 0.2826874
554.80 0.4538573
554.90 0.6878647
555.00 0.4311477
555.10 0.3520679
555.20 0.1747516
555.30 0.4026572
555.40 0.3761327
555.50 0.3795152
555.60 0.8176512
555.70 1.181748
555.80 0.9899538
555.90 0.676495
556.00 0.2260014
556.10 0.4919477
556.20 0.8926865
556.30 0.8215471
556.40 1.11172
556.50 0.9845725
556.60 0.828264
556.70 0.7833042
556.80 1.205802
556.90 1.213978
557.00 1.119727
557.10 1.274392
557.20 1.270624
557.30 1.268788
557.40 1.268828
557.50 1.268828
557.60 1.268828
557.70 1.268828
557.80 1.268828
557.90 1.268828
558.00 1.268828
558.10 1.268828
558.20 1.268858
558.30 1.285013
558.40 1.225449
558.50 0.9923617
558.60 1.380225
558.70 1.855732
558.80 1.801569
558.90 1.394193
559.00 1.773837
559.10 2.138781
559.20 1.94879
559.30 1.316728
559.40 1.579096
559.50 2.014283
559.60 1.371679
559.70 0.7690034
559.80 1.21937
559.90 1.319444
560.00 1.059717
560.10 1.560445
560.20 1.887941
560.30 1.87256
560.40 1.180885
560.50 0.9350189
560.60 1.279057
560.70 1.008181
560.80 0.6154071
560.90 1.066973
561.00 1.524957
561.10 1.570931
561.20 1.291844
561.30 1.361601
561.40 1.970839
561.50 1.657066
561.60 1.409874
561.70 1.333361
561.80 1.280215
561.90 1.032247
562.00 0.8238556
562.10 0.8195703
562.20 1.187465
562.30 0.7531102
562.40 1.438046
562.50 1.507781
562.60 1.358629
562.70 1.403924
562.80 1.812594
562.90 1.50203
563.00 1.064148
563.10 0.7833082
563.20 0.4447087
563.30 0.8440922
563.40 1.236307
563.50 1.518076
563.60 1.262366
563.70 0.7323037
563.80 0.9185153
563.90 1.198497
564.00 0.7180867
564.10 0.8509382
564.20 1.128273
564.30 1.22494
564.40 1.020912
564.50 1.234408
564.60 1.849125
564.70 1.558568
564.80 1.447099
564.90 1.713543
565.00 1.783315
565.10 1.639673
565.20 1.002478
565.30 1.266919
565.40 1.909632
565.50 1.670442
565.60 0.8241817
565.70 0.7986125
565.80 1.518119
565.90 1.898699
566.00 1.271743
566.10 1.249163
566.20 1.544364
566.30 1.900678
566.40 1.565504
566.50 0.8684197
566.60 1.093745
566.70 1.569517
566.80 1.373298
566.90 1.503274
567.00 1.715493
567.10 1.975405
567.20 1.821219
567.30 1.649306
567.40 1.212162
567.50 1.351808
567.60 0.9958233
567.70 0.8464075
567.80 1.172543
567.90 1.599981
568.00 1.571286
568.10 0.8398705
568.20 0.6820074
568.30 1.59679
568.40 2.659072
568.50 2.686744
568.60 2.012335
568.70 1.177437
568.80 1.169443
568.90 1.640227
569.00 1.806559
569.10 1.232958
569.20 1.62127
569.30 2.113117
569.40 1.882405
569.50 1.682971
569.60 1.659888
569.70 2.183222
569.80 2.588586
569.90 2.542733
570.00 1.932434
570.10 1.422963
570.20 1.349673
570.30 2.150013
570.40 2.57765
570.50 2.331745
570.60 2.012087
570.70 2.388019
570.80 2.596654
570.90 1.79952
571.00 1.661929
571.10 1.90986
571.20 1.882532
571.30 2.097626
571.40 2.215747
571.50 1.631965
571.60 1.613918
571.70 1.702954
571.80 1.460261
571.90 1.533396
572.00 1.646592
572.10 0.9951041
572.20 0.8115121
572.30 1.484105
572.40 1.86969
572.50 1.751225
572.60 1.583297
572.70 1.555773
572.80 1.64302
572.90 1.778429
573.00 2.246766
573.10 1.983973
573.20 1.955806
573.30 1.88985
573.40 1.650565
573.50 2.013449
573.60 2.329965
573.70 2.080782
573.80 1.478108
573.90 1.293583
574.00 1.597918
574.10 1.826425
574.20 1.870406
574.30 2.212096
574.40 2.740281
574.50 2.248943
574.60 1.560109
574.70 1.652145
574.80 2.454604
574.90 2.337516
575.00 1.960726
575.10 1.890246
575.20 1.806144
575.30 1.550405
575.40 1.841879
575.50 2.470502
575.60 2.221626
575.70 2.287836
575.80 2.188247
575.90 2.295
576.00 2.231052
576.10 2.261657
576.20 2.184278
576.30 2.361052
576.40 2.639288
576.50 1.924029
576.60 1.187532
576.70 1.115191
576.80 1.579703
576.90 1.52836
577.00 1.661629
577.10 1.758802
577.20 1.965138
577.30 1.626233
577.40 1.564933
577.50 1.897292
577.60 2.026877
577.70 2.099398
577.80 1.782066
577.90 1.937458
578.00 1.821405
578.10 2.0446
578.20 1.853231
578.30 1.346096
578.40 1.488706
578.50 2.248176
578.60 2.1743
578.70 1.973251
578.80 2.26683
578.90 2.374342
579.00 2.137578
579.10 2.098477
579.20 2.225575
579.30 2.179867
579.40 1.59791
579.50 1.510423
579.60 1.976111
579.70 2.465304
579.80 2.473493
579.90 2.543806
580.00 2.427828
580.10 1.910444
580.20 1.985675
580.30 2.561513
580.40 2.13899
580.50 1.712599
580.60 2.273397
580.70 2.713732
580.80 3.22266
580.90 3.203721
581.00 2.918321
581.10 1.850385
581.20 1.933786
581.30 2.182567
581.40 2.017613
581.50 1.621357
581.60 1.478751
581.70 1.285287
581.80 1.761099
581.90 1.898366
582.00 1.905295
582.10 1.887315
582.20 1.786509
582.30 1.801226
582.40 1.735294
582.50 1.995883
582.60 2.09319
582.70 1.769977
582.80 1.674416
582.90 2.053349
583.00 2.026788
583.10 1.737628
583.20 1.335408
583.30 0.8937861
583.40 1.467167
583.50 1.979364
583.60 1.883258
583.70 2.45053
583.80 1.94184
583.90 1.796603
584.00 1.828062
584.10 2.466483
584.20 2.288745
584.30 1.606321
584.40 1.897741
584.50 2.253519
584.60 1.81969
584.70 1.464327
584.80 1.281721
584.90 1.485688
585.00 1.607956
585.10 1.521467
585.20 0.8728235
585.30 0.9017129
585.40 1.038011
585.50 1.046005
585.60 1.469629
585.70 1.533001
585.80 1.569101
585.90 1.344483
586.00 0.9346824
586.10 0.5354195
586.20 0.8400902
586.30 1.445571
586.40 1.822933
586.50 1.653294
586.60 1.457191
586.70 1.674056
586.80 1.396819
586.90 1.131933
587.00 1.296594
587.10 1.680106
587.20 1.643304
587.30 1.470299
587.40 1.354927
587.50 1.295459
587.60 0.9450238
587.70 0.949148
587.80 0.6058067
587.90 0.5191077
588.00 0.9668191
588.10 0.9313563
588.20 0.8032931
588.30 0.5020597
588.40 0.9203057
588.50 0.7572508
588.60 0.6861084
588.70 1.032831
588.80 1.206358
588.90 1.325836
589.00 1.428412
589.10 1.025182
589.20 1.830625
589.30 2.317299
589.40 0.8318507
589.50 0.4664278
589.60 0.1614592
589.70 2.205719
589.80 1.778062
589.90 0.3700296
590.00 0.6609833
590.10 0.7729516
590.20 0.4108902
590.30 0.6507425
590.40 0.8023866
590.50 0.8767401
590.60 0.8799705
590.70 0.6722541
590.80 0.3673041
590.90 0.2695556
591.00 0.8673005
591.10 0.8270809
591.20 1.089075
591.30 1.190732
591.40 0.8351011
591.50 0.8440499
591.60 1.312015
591.70 1.404129
591.80 0.5386781
591.90 0.2579368
592.00 0.3762562
592.10 0.6945492
592.20 0.8448932
592.30 0.8388911
592.40 0.7964903
592.50 0.125612
592.60 0.166331
592.70 0.7431101
592.80 1.560507
592.90 1.463639
593.00 0.8461641
593.10 0.5223817
593.20 0.8776548
593.30 0.8196505
593.40 0.6970008
593.50 0.5299879
593.60 0.4095174
593.70 0.8498934
593.80 0.8879683
593.90 0.6938641
594.00 0.6035161
594.10 0.9533532
594.20 1.128379
594.30 1.220394
594.40 1.182993
594.50 1.03712
594.60 0.9763543
594.70 1.398259
594.80 1.6017
594.90 1.664654
595.00 1.674742
595.10 1.278334
595.20 1.370054
595.30 1.332863
595.40 0.9813981
595.50 0.6422488
595.60 0.8931821
595.70 1.686265
595.80 1.359713
595.90 1.080763
596.00 1.194374
596.10 1.425512
596.20 1.284068
596.30 1.044873
596.40 0.9406247
596.50 1.281524
596.60 1.3745
596.70 1.417195
596.80 1.755555
596.90 1.48846
597.00 1.201811
597.10 1.112878
597.20 1.192329
597.30 1.040084
597.40 0.9800027
597.50 1.149274
597.60 0.585931
597.70 0.2774306
597.80 0.4535058
597.90 0.8270794
598.00 0.8108022
598.10 1.06543
598.20 1.184579
598.30 0.9896542
598.40 1.251442
598.50 1.875361
598.60 1.799991
598.70 1.300742
598.80 1.378932
598.90 1.651843
599.00 1.189924
599.10 1.207649
599.20 1.264141
599.30 1.300996
599.40 1.464839
599.50 1.669557
599.60 1.620645
599.70 1.552295
599.80 1.941016
599.90 2.013368
600.00 1.578917
600.10 1.126432
600.20 1.079932
600.30 1.135754
600.40 1.275589
600.50 1.215522
600.60 1.389899
600.70 1.056457
600.80 0.7900092
600.90 1.375444
601.00 1.484198
601.10 1.322473
601.20 1.211735
601.30 1.616523
601.40 1.274711
601.50 0.8015129
601.60 1.445165
601.70 1.591128
601.80 1.572597
601.90 1.805921
602.00 2.073968
602.10 1.891103
602.20 1.760755
602.30 1.90183
602.40 1.481179
602.50 1.164705
602.60 1.015501
602.70 1.399819
602.80 1.21993
602.90 0.9339199
603.00 0.6131162
603.10 0.7556086
603.20 1.271475
603.30 1.628545
603.40 1.850399
603.50 1.38973
603.60 1.462896
603.70 1.743145
603.80 1.766152
603.90 1.177463
604.00 0.9675711
604.10 1.364742
604.20 1.465303
604.30 1.646462
604.40 1.756865
604.50 1.571436
604.60 1.448399
604.70 1.581043
604.80 1.972269
604.90 1.612495
605.00 1.085777
605.10 0.9926096
605.20 1.462808
605.30 1.916645
605.40 1.951292
605.50 1.482698
605.60 1.369115
605.70 1.868858
605.80 2.107731
605.90 1.702272
606.00 1.621595
606.10 1.620651
606.20 1.735377
606.30 1.904626
606.40 1.974515
606.50 1.727026
606.60 1.587475
606.70 2.013536
606.80 1.886524
606.90 1.673653
607.00 1.520004
607.10 1.642387
607.20 1.819296
607.30 1.74141
607.40 1.416477
607.50 1.564362
607.60 1.77095
607.70 1.910244
607.80 1.8518
607.90 1.814897
608.00 1.820638
608.10 1.771551
608.20 1.616481
608.30 1.65239
608.40 2.052704
608.50 2.05096
608.60 1.516802
608.70 1.159766
608.80 1.326692
608.90 1.791141
609.00 1.86496
609.10 1.884823
609.20 1.947931
609.30 1.980184
609.40 1.790913
609.50 1.643042
609.60 1.690746
609.70 2.003768
609.80 2.40601
609.90 2.438413
610.00 2.488156
610.10 2.453487
610.20 1.884865
610.30 1.560971
610.40 1.405933
610.50 1.530911
610.60 1.343325
610.70 1.300993
610.80 1.544524
610.90 2.057462
611.00 2.470932
611.10 2.487685
611.20 2.4243
611.30 2.178266
611.40 1.880107
611.50 1.623145
611.60 1.445151
611.70 1.612704
611.80 1.533008
611.90 1.658656
612.00 1.78458
612.10 1.75339
612.20 1.814979
612.30 2.124502
612.40 2.156217
612.50 1.664101
612.60 1.501861
612.70 1.55627
612.80 1.436085
612.90 1.371027
613.00 1.410023
613.10 1.433207
613.20 1.469986
613.30 1.627308
613.40 1.563172
613.50 1.726198
613.60 1.914833
613.70 1.941767
613.80 1.881699
613.90 1.644956
614.00 1.771093
614.10 1.632047
614.20 1.392993
614.30 0.9948879
614.40 0.9833445
614.50 1.625836
614.60 1.961398
614.70 1.530717
614.80 0.7788962
614.90 0.6406206
615.00 0.9156055
615.10 0.9510933
615.20 0.9947124
615.30 1.393769
615.40 1.552903
615.50 1.433248
615.60 1.165465
615.70 1.020188
615.80 1.462178
615.90 1.513263
616.00 1.202583
616.10 0.6150925
616.20 0.6723928
616.30 1.213468
616.40 1.438639
616.50 1.104582
616.60 0.3797242
616.70 0.4348952
616.80 0.5648286
616.90 0.7204831
617.00 0.9071397
617.10 0.7623938
617.20 0.6293038
617.30 0.693002
617.40 0.9395858
617.50 0.9195142
617.60 0.5672304
617.70 0.6337195
617.80 0.9110696
617.90 0.9427848
618.00 0.6228063
618.10 0.606942
618.20 0.8098257
618.30 0.413713
618.40 0.32069
618.50 0.5943494
618.60 0.9103218
618.70 0.9151414
618.80 0.8393219
618.90 0.8135432
619.00 0.9763344
619.10 1.109332
619.20 1.188436
619.30 1.875068
619.40 2.129857
619.50 1.636291
619.60 1.13041
619.70 0.8689312
619.80 0.6910396
619.90 0.4946675
620.00 0.7909609
620.10 0.6529223
620.20 0.3787021
620.30 0.5427212
620.40 0.9391745
620.50 1.328359
620.60 1.357677
620.70 1.063936
620.80 0.9551043
620.90 1.163768
621.00 1.20794
621.10 0.8717959
621.20 0.7608
621.30 0.524989
621.40 0.5807769
621.50 0.7248495
621.60 0.8356889
621.70 0.7330943
621.80 1.047699
621.90 1.458064
622.00 1.477905
622.10 1.177949
622.20 0.9017599
622.30 0.6272552
622.40 0.7329964
622.50 1.000267
622.60 1.225422
622.70 1.248762
622.80 0.7871802
622.90 0.7766368
623.00 0.8448996
623.10 1.064409
623.20 1.356351
623.30 1.633241
623.40 1.071212
623.50 0.3415884
623.60 0.3541401
623.70 0.5381326
623.80 0.2120164
623.90 0.136455
624.00 0.7685328
624.10 1.399923
624.20 1.478461
624.30 0.9559768
624.40 0.85175
624.50 1.229392
624.60 1.41625
624.70 1.114818
624.80 0.6987601
624.90 0.6789351
625.00 0.7429441
625.10 0.8798573
625.20 0.6050611
625.30 0.9606483
625.40 1.604441
625.50 0.6924133
625.60 0.2773798
625.70 0.2614237
625.80 0.9320025
625.90 0.9593306
626.00 0.8202152
626.10 1.009683
626.20 1.360915
626.30 1.467091
626.40 0.8601182
626.50 0.5419097
626.60 0.8149856
626.70 0.9986221
626.80 1.157946
626.90 1.524156
627.00 1.574543
627.10 1.380531
627.20 1.028048
627.30 0.9155248
627.40 1.213964
627.50 1.377966
627.60 1.239611
627.70 0.992209
627.80 1.13454
627.90 1.32634
628.00 1.302655
628.10 1.231757
628.20 1.322705
628.30 1.602706
628.40 1.416128
628.50 0.8182033
628.60 0.5263545
628.70 1.341986
628.80 1.420576
628.90 1.142617
629.00 1.327554
629.10 1.464037
629.20 1.301853
629.30 1.290026
629.40 1.492929
629.50 1.787886
629.60 1.489473
629.70 0.5854925
629.80 1.451395
629.90 2.006329
630.00 1.759438
630.10 0.2927609
630.20 0.8877131
630.30 1.922886
630.40 2.423464
630.50 3.614555
630.60 1.953838
630.70 1.233508
630.80 1.590598
630.90 1.73515
631.00 1.800674
631.10 1.807644
631.20 2.421537
631.30 2.45035
631.40 2.077284
631.50 1.820641
631.60 1.618359
631.70 1.850373
631.80 2.150722
631.90 2.027618
632.00 1.642892
632.10 1.895438
632.20 2.280905
632.30 2.247921
632.40 2.049423
632.50 1.961315
632.60 1.824528
632.70 1.850853
632.80 1.907176
632.90 2.28471
633.00 2.421611
633.10 1.888434
633.20 1.698948
633.30 2.021058
633.40 2.565157
633.50 2.695131
633.60 2.443239
633.70 2.548651
633.80 2.645282
633.90 2.707171
634.00 2.451789
634.10 2.048617
634.20 2.601768
634.30 3.150302
634.40 2.945188
634.50 2.625714
634.60 2.808329
634.70 3.024405
634.80 2.994363
634.90 2.78109
635.00 2.881167
635.10 2.675298
635.20 2.384082
635.30 2.515568
635.40 2.534008
635.50 2.218379
635.60 2.178168
635.70 2.923231
635.80 3.13837
635.90 2.59207
636.00 2.38327
636.10 2.460141
636.20 2.735979
636.30 2.867656
636.40 2.830092
636.50 2.38408
636.60 2.119809
636.70 1.90158
636.80 1.975355
636.90 2.323091
637.00 2.674907
637.10 2.958455
637.20 2.779737
637.30 2.428897
637.40 2.489118
637.50 2.597157
637.60 2.64802
637.70 2.662859
637.80 2.493606
637.90 2.354976
638.00 2.20335
638.10 2.229035
638.20 2.138077
638.30 2.146432
638.40 2.381603
638.50 2.289959
638.60 2.505624
638.70 2.746927
638.80 2.713048
638.90 2.590052
639.00 2.459794
639.10 2.571672
639.20 2.41629
639.30 2.349883
639.40 2.588901
639.50 2.744863
639.60 2.684284
639.70 2.449201
639.80 2.422682
639.90 2.675463
640.00 3.09831
640.10 3.30855
640.20 3.008016
640.30 2.779955
640.40 2.850506
640.50 3.000852
640.60 3.060241
640.70 3.009478
640.80 2.8821
640.90 2.838062
641.00 2.633851
641.10 2.663598
641.20 2.860707
641.30 2.878828
641.40 2.945635
641.50 2.879824
641.60 2.718288
641.70 2.674235
641.80 2.963925
641.90 2.979315
642.00 2.965832
642.10 2.927908
642.20 2.586588
642.30 2.270266
642.40 2.144744
642.50 2.532337
642.60 2.583537
642.70 2.458823
642.80 2.52667
642.90 2.827492
643.00 3.122436
643.10 2.950611
643.20 2.967171
643.30 2.995501
643.40 3.230256
643.50 3.007982
643.60 2.57202
643.70 2.690695
643.80 3.001071
643.90 3.232163
644.00 3.201504
644.10 3.026739
644.20 2.990717
644.30 3.054301
644.40 3.093693
644.50 2.823471
644.60 2.658226
644.70 3.06557
644.80 2.953378
644.90 2.504931
645.00 2.477559
645.10 2.71297
645.20 2.808494
645.30 2.839849
645.40 2.732208
645.50 2.628181
645.60 3.121221
645.70 3.280241
645.80 3.000202
645.90 2.551409
646.00 2.585803
646.10 3.104992
646.20 3.172829
646.30 2.624123
646.40 2.581464
646.50 2.985065
646.60 2.938797
646.70 2.674063
646.80 2.75184
646.90 2.986536
647.00 3.156309
647.10 3.223547
647.20 3.206823
647.30 3.353803
647.40 3.646964
647.50 3.494679
647.60 3.114363
647.70 3.007206
647.80 3.075743
647.90 3.169267
648.00 3.0796
648.10 2.939617
648.20 3.180752
648.30 3.218919
648.40 3.066095
648.50 3.033986
648.60 2.99428
648.70 3.055853
648.80 3.046144
648.90 2.869067
649.00 3.13271
649.10 3.305734
649.20 3.265399
649.30 3.336709
649.40 3.239842
649.50 3.224462
649.60 3.295926
649.70 3.475036
649.80 3.281171
649.90 3.311013
650.00 3.964384
650.10 4.233682
650.20 4.240929
650.30 4.020184
650.40 3.858034
650.50 3.64038
650.60 3.537883
650.70 4.077884
650.80 4.260655
650.90 4.183016
651.00 4.294996
651.10 4.594384
651.20 4.89833
651.30 4.847153
651.40 4.499302
651.50 4.273751
651.60 4.418038
651.70 4.363765
651.80 4.406771
651.90 4.730404
652.00 5.211684
652.10 5.258785
652.20 5.213761
652.30 5.201282
652.40 5.47754
652.50 5.947055
652.60 5.974132
652.70 6.090363
652.80 6.311147
652.90 6.431677
653.00 6.550617
653.10 6.375048
653.20 6.267137
653.30 6.049875
653.40 6.307751
653.50 7.060011
653.60 6.938633
653.70 6.570191
653.80 6.642578
653.90 7.052036
654.00 7.438646
654.10 7.648408
654.20 7.561042
654.30 7.000075
654.40 6.713717
654.50 6.626102
654.60 6.375045
654.70 6.215329
654.80 6.292542
654.90 6.488416
655.00 6.320324
655.10 5.770059
655.20 5.654382
655.30 5.968697
655.40 5.820149
655.50 5.663361
655.60 5.76292
655.70 5.781675
655.80 5.817593
655.90 6.037933
656.00 6.580705
656.10 6.97794
656.20 8.799247
656.30 11.98177
656.40 14.07215
656.50 13.26364
656.60 10.19713
656.70 7.154838
656.80 5.229933
656.90 4.85343
657.00 4.943861
657.10 4.698249
657.20 4.486724
657.30 4.479793
657.40 4.251405
657.50 4.249814
657.60 4.742293
657.70 5.105238
657.80 4.467508
657.90 3.908388
658.00 4.185126
658.10 4.211356
658.20 3.987333
658.30 3.798417
658.40 3.813916
658.50 4.01217
658.60 4.470117
658.70 5.341911
658.80 5.5246
658.90 5.170746
659.00 4.685478
659.10 4.410113
659.20 4.548899
659.30 4.636279
659.40 4.534781
659.50 4.264207
659.60 4.313484
659.70 4.476564
659.80 4.202663
659.90 4.026785
660.00 4.168732
660.10 4.172191
660.20 4.163785
660.30 4.274366
660.40 4.390415
660.50 4.514088
660.60 4.611478
660.70 4.571442
660.80 4.329315
660.90 4.382302
661.00 4.450412
661.10 4.543477
661.20 4.616416
661.30 4.722846
661.40 4.822183
661.50 4.713489
661.60 4.498303
661.70 4.349308
661.80 4.630435
661.90 4.639017
662.00 4.313654
662.10 4.127975
662.20 4.172805
662.30 4.218982
662.40 3.997631
662.50 4.00937
662.60 3.832471
662.70 3.43861
662.80 3.514409
662.90 3.47814
663.00 3.526571
663.10 3.749951
663.20 4.115132
663.30 4.371411
663.40 4.101273
663.50 3.643489
663.60 3.685122
663.70 3.907596
663.80 3.705477
663.90 3.474392
664.00 3.345242
664.10 3.466734
664.20 3.607042
664.30 3.900878
664.40 4.084106
664.50 4.027821
664.60 3.967405
664.70 3.874959
664.80 3.936789
664.90 3.930606
665.00 3.758991
665.10 3.527773
665.20 2.927934
665.30 2.717688
665.40 3.048368
665.50 2.969597
665.60 3.039179
665.70 3.102633
665.80 2.81095
665.90 2.595286
666.00 2.853605
666.10 3.278468
666.20 3.447272
666.30 3.399273
666.40 3.535615
666.50 3.601802
666.60 3.547951
666.70 3.578248
666.80 3.701986
666.90 3.87407
667.00 3.900015
667.10 3.745809
667.20 3.617868
667.30 3.50625
667.40 3.367009
667.50 3.592215
667.60 3.772475
667.70 4.09852
667.80 4.124696
667.90 4.037434
668.00 3.744738
668.10 3.571946
668.20 3.451863
668.30 2.968297
668.40 3.139308
668.50 3.371918
668.60 3.459597
668.70 3.27809
668.80 2.986507
668.90 2.886296
669.00 2.749137
669.10 3.072677
669.20 3.589591
669.30 3.556923
669.40 3.045104
669.50 2.863182
669.60 3.13658
669.70 3.548494
669.80 3.683233
669.90 3.319219
670.00 3.03406
670.10 3.301261
670.20 3.623239
670.30 3.732549
670.40 3.763957
670.50 3.845217
670.60 4.190711
670.70 4.333579
670.80 4.322798
670.90 4.032316
671.00 3.822959
671.10 3.990491
671.20 4.211771
671.30 4.266009
671.40 3.841712
671.50 3.381004
671.60 3.048139
671.70 2.95306
671.80 2.829425
671.90 2.571099
672.00 2.678917
672.10 2.852789
672.20 2.940236
672.30 2.992919
672.40 3.040291
672.50 3.177138
672.60 3.144131
672.70 3.202351
672.80 3.367529
672.90 3.386826
673.00 3.255357
673.10 3.163803
673.20 3.230225
673.30 3.36188
673.40 3.280441
673.50 3.134596
673.60 3.190383
673.70 3.366173
673.80 3.360536
673.90 3.404897
674.00 3.483372
674.10 3.515094
674.20 3.550972
674.30 3.686963
674.40 3.773243
674.50 3.531286
674.60 3.4747
674.70 3.530836
674.80 3.312933
674.90 2.984918
675.00 2.887256
675.10 3.106202
675.20 3.267093
675.30 3.191926
675.40 2.96509
675.50 3.156782
675.60 3.427962
675.70 3.564578
675.80 3.5719
675.90 3.439055
676.00 3.541212
676.10 3.820827
676.20 3.722306
676.30 3.697601
676.40 3.66425
676.50 3.476173
676.60 4.069059
676.70 4.414192
676.80 4.246712
676.90 4.311042
677.00 4.52834
677.10 4.99699
677.20 4.981599
677.30 4.518987
677.40 4.287786
677.50 4.408965
677.60 4.445589
677.70 4.37399
677.80 4.368071
677.90 4.471385
678.00 4.527072
678.10 4.082109
678.20 3.637072
678.30 3.550842
678.40 3.447437
678.50 3.214707
678.60 2.842573
678.70 2.690884
678.80 2.833734
678.90 3.237849
679.00 3.629484
679.10 3.809315
679.20 3.741153
679.30 3.281783
679.40 3.152484
679.50 3.476022
679.60 3.757017
679.70 3.845775
679.80 3.728024
679.90 3.643479
680.00 3.753902
680.10 4.107953
680.20 4.267254
680.30 4.131211
680.40 4.063622
680.50 3.947405
680.60 3.996859
680.70 4.175956
680.80 4.250451
680.90 4.280402
681.00 3.955872
681.10 3.986749
681.20 4.459083
681.30 4.646772
681.40 4.475623
681.50 4.054146
681.60 3.886156
681.70 4.065672
681.80 4.101457
681.90 3.958454
682.00 3.875862
682.10 3.8931
682.20 4.050933
682.30 4.020425
682.40 3.862058
682.50 3.885894
682.60 4.159834
682.70 4.430967
682.80 4.34332
682.90 4.213466
683.00 4.253154
683.10 4.182341
683.20 4.395276
683.30 4.492518
683.40 4.267702
683.50 4.474041
683.60 4.912195
683.70 5.168901
683.80 4.979797
683.90 4.768834
684.00 4.564549
684.10 4.619589
684.20 4.882573
684.30 4.852372
684.40 4.781617
684.50 4.662492
684.60 4.625053
684.70 4.602349
684.80 4.555959
684.90 4.573425
685.00 4.519473
685.10 4.288962
685.20 4.21331
685.30 4.134814
685.40 4.077745
685.50 4.130287
685.60 4.211184
685.70 4.356533
685.80 4.241054
685.90 4.167332
686.00 4.289868
686.10 4.259975
686.20 4.006166
686.30 3.987718
686.40 4.246134
686.50 4.432614
686.60 4.154033
686.70 3.751213
686.80 4.42004
686.90 4.745224
687.00 3.777286
687.10 3.606201
687.20 4.296537
687.30 4.86308
687.40 5.027432
687.50 4.914119
687.60 5.118598
687.70 5.199587
687.80 5.063783
687.90 5.217822
688.00 5.33549
688.10 5.248554
688.20 5.242889
688.30 5.285101
688.40 5.224002
688.50 5.05015
688.60 5.167606
688.70 5.471193
688.80 5.341031
688.90 5.429599
689.00 5.437019
689.10 4.972925
689.20 4.466637
689.30 4.08239
689.40 4.568888
689.50 5.149688
689.60 5.089826
689.70 5.063279
689.80 5.05685
689.90 5.049128
690.00 4.967627
690.10 4.747493
690.20 4.567028
690.30 4.487213
690.40 4.738313
690.50 5.164498
690.60 5.162543
690.70 5.207675
690.80 5.665844
690.90 5.765171
691.00 5.493139
691.10 5.512237
691.20 5.736685
691.30 5.833971
691.40 5.591922
691.50 5.653933
691.60 5.972127
691.70 5.868872
691.80 5.436511
691.90 5.206857
692.00 5.157234
692.10 5.277725
692.20 5.278024
692.30 5.140623
692.40 5.664734
692.50 6.157998
692.60 6.296869
692.70 6.637866
692.80 6.594619
692.90 6.242647
693.00 5.894067
693.10 5.839472
693.20 6.228026
693.30 6.588311
693.40 6.888144
693.50 6.707208
693.60 6.500241
693.70 6.791994
693.80 6.869614
693.90 6.804826
694.00 6.592802
694.10 6.428762
694.20 6.61457
694.30 6.943219
694.40 7.748299
694.50 8.173568
694.60 8.162221
694.70 8.613076
694.80 9.097757
694.90 9.375751
695.00 9.299309
695.10 8.889244
695.20 8.446866
695.30 8.023953
695.40 7.81006
695.50 7.679551
695.60 7.806127
695.70 7.87966
695.80 7.76673
695.90 7.741063
696.00 7.773507
696.10 7.951981
696.20 7.877204
696.30 7.792344
696.40 8.167013
696.50 8.648059
696.60 8.914981
696.70 8.967054
696.80 9.091356
696.90 9.155461
697.00 8.948365
697.10 8.490367
697.20 8.256925
697.30 8.807272
697.40 8.778706
697.50 8.284844
697.60 8.597332
697.70 9.238156
697.80 9.895427
697.90 10.13187
698.00 9.879049
698.10 9.564613
698.20 9.522172
698.30 9.875174
698.40 10.06265
698.50 9.83273
698.60 9.849537
698.70 9.909476
698.80 9.928335
698.90 9.779409
699.00 9.942217
699.10 9.954488
699.20 9.494749
699.30 9.132266
699.40 9.298107
699.50 9.781933
699.60 9.791014
699.70 9.506873
699.80 9.158618
699.90 9.077014
700.00 9.372149
700.10 9.533075
700.20 9.427724
700.30 9.457155
700.40 9.631189
700.50 9.638765
700.60 9.513066
700.70 9.594884
700.80 9.904394
700.90 10.11535
701.00 10.47685
701.10 10.84108
701.20 10.98885
701.30 10.88201
701.40 10.47191
701.50 10.38459
701.60 10.74767
701.70 10.95514
701.80 10.95989
701.90 10.81977
702.00 11.04834
702.10 11.77741
702.20 12.02904
702.30 11.63293
702.40 11.05805
702.50 10.51665
702.60 10.52998
702.70 11.04594
702.80 11.97064
702.90 12.8334
703.00 13.12638
703.10 13.17763
703.20 12.93125
703.30 12.82699
703.40 13.03197
703.50 13.3663
703.60 13.9534
703.70 14.49988
703.80 14.76614
703.90 14.60699
704.00 14.00512
704.10 13.80056
704.20 14.19025
704.30 14.57144
704.40 14.91496
704.50 15.10855
704.60 15.15289
704.70 15.1272
704.80 14.92675
704.90 14.96389
705.00 15.07314
705.10 15.58419
705.20 15.97175
705.30 15.22613
705.40 13.44878
705.50 10.80135
705.60 7.978818
705.70 5.961122
705.80 5.32376
705.90 5.272423
706.00 5.009917
706.10 4.79894
706.20 4.720231
706.30 4.764587
706.40 4.977506
706.50 5.088907
706.60 5.207051
706.70 5.242509
706.80 5.266649
706.90 5.582224
707.00 5.80722
707.10 5.849099
707.20 5.965817
707.30 6.108935
707.40 6.060879
707.50 6.103723
707.60 6.122345
707.70 5.979844
707.80 5.866686
707.90 5.935552
708.00 6.424143
708.10 7.031973
708.20 7.064038
708.30 6.928188
708.40 6.855629
708.50 6.805271
708.60 6.935399
708.70 7.000181
708.80 6.679304
708.90 5.646761
709.00 4.356948
709.10 3.769677
709.20 4.025324
709.30 4.310201
709.40 4.311412
709.50 4.197306
709.60 4.056686
709.70 4.238962
709.80 4.54302
709.90 4.519338
710.00 4.271785
710.10 4.273471
710.20 4.364162
710.30 4.378152
710.40 4.487196
710.50 4.607293
710.60 4.714618
710.70 4.61452
710.80 4.686431
710.90 5.26819
711.00 5.706543
711.10 5.691948
711.20 5.516334
711.30 5.383998
711.40 5.495547
711.50 5.719311
711.60 5.880637
711.70 5.831035
711.80 5.658941
711.90 5.879605
712.00 6.418208
712.10 6.761707
712.20 6.763728
712.30 6.495819
712.40 6.149964
712.50 5.80035
712.60 5.395724
712.70 4.950229
712.80 4.495477
712.90 3.830399
713.00 3.546851
713.10 3.804449
713.20 3.960733
713.30 3.976232
713.40 3.907545
713.50 3.896521
713.60 3.902499
713.70 3.779966
713.80 3.715279
713.90 3.918324
714.00 4.195541
714.10 4.180699
714.20 4.202228
714.30 4.251951
714.40 4.210232
714.50 4.163994
714.60 4.179898
714.70 4.417277
714.80 4.544149
714.90 4.529999
715.00 4.508402
715.10 4.261428
715.20 4.091729
715.30 4.127542
715.40 4.374057
715.50 4.833163
715.60 5.27077
715.70 5.441902
715.80 5.229655
715.90 4.763544
716.00 4.723792
716.10 5.017252
716.20 4.75494
716.30 4.302938
716.40 4.13053
716.50 4.446419
716.60 5.160306
716.70 5.35697
716.80 4.892696
716.90 4.564279
717.00 4.648405
717.10 4.912232
717.20 5.172578
717.30 5.365813
717.40 5.352157
717.50 5.378955
717.60 5.479815
717.70 5.32437
717.80 5.209574
717.90 5.091611
718.00 5.136971
718.10 5.549717
718.20 5.877172
718.30 6.018697
718.40 5.963768
718.50 5.911414
718.60 6.134989
718.70 6.381615
718.80 6.496195
718.90 6.649837
719.00 6.927254
719.10 7.023527
719.20 6.947247
719.30 6.890781
719.40 6.794168
719.50 6.921321
719.60 6.828031
719.70 6.501614
719.80 6.195728
719.90 5.523902
720.00 5.186052
720.10 5.504799
720.20 5.84362
720.30 6.109228
720.40 5.949902
720.50 5.718005
720.60 5.892953
720.70 5.954504
720.80 5.916235
720.90 5.929546
721.00 5.973064
721.10 5.945417
721.20 5.964807
721.30 6.197885
721.40 6.700181
721.50 7.010013
721.60 6.656589
721.70 6.288544
721.80 6.527032
721.90 6.990252
722.00 7.096615
722.10 6.947396
722.20 6.824642
722.30 6.938424
722.40 7.376878
722.50 7.683036
722.60 7.697668
722.70 7.928328
722.80 8.334299
722.90 8.388181
723.00 8.029014
723.10 7.612773
723.20 7.473334
723.30 7.671294
723.40 7.93592
723.50 8.225749
723.60 8.372056
723.70 8.317738
723.80 8.455313
723.90 8.979411
724.00 9.080824
724.10 8.429468
724.20 7.870554
724.30 7.927921
724.40 9.056656
724.50 9.792439
724.60 9.292044
724.70 9.166408
724.80 9.678014
724.90 10.03131
725.00 10.20195
725.10 10.40279
725.20 10.67353
725.30 10.74538
725.40 10.7113
725.50 10.89946
725.60 11.28334
725.70 11.71618
725.80 11.52479
725.90 10.94524
726.00 10.89956
726.10 11.06689
726.20 11.30047
726.30 11.8094
726.40 12.32156
726.50 12.8504
726.60 13.08623
726.70 12.6734
726.80 12.57752
726.90 12.79208
727.00 12.58832
727.10 12.28203
727.20 12.00989
727.30 11.66588
727.40 11.63641
727.50 12.25346
727.60 13.26596
727.70 13.84915
727.80 12.19046
727.90 10.43456
728.00 11.4929
728.10 12.92947
728.20 12.95148
728.30 12.55966
728.40 12.62915
728.50 13.31803
728.60 13.71152
728.70 13.54449
728.80 13.64563
728.90 14.25131
729.00 14.83653
729.10 15.00311
729.20 14.93293
729.30 14.87817
729.40 14.88397
729.50 15.22206
729.60 15.61215
729.70 16.23788
729.80 16.73612
729.90 16.4104
730.00 16.16481
730.10 16.49865
730.20 16.96628
730.30 17.38247
730.40 17.89795
730.50 18.26483
730.60 18.3274
730.70 18.0724
730.80 17.9149
730.90 18.55699
731.00 19.1888
731.10 19.1399
731.20 18.75972
731.30 18.76866
731.40 19.7424
731.50 20.86488
731.60 20.86584
731.70 20.09717
731.80 20.1179
731.90 20.76958
732.00 21.19677
732.10 21.43651
732.20 21.55497
732.30 21.62
732.40 21.66034
732.50 21.4683
732.60 21.1489
732.70 20.87918
732.80 20.9494
732.90 21.56378
733.00 21.85554
733.10 22.08237
733.20 22.14195
733.30 21.8288
733.40 21.50042
733.50 21.26394
733.60 21.98898
733.70 23.34094
733.80 24.11949
733.90 24.63921
734.00 25.5049
734.10 26.35874
734.20 26.57368
734.30 25.58673
734.40 24.12125
734.50 22.94245
734.60 22.13516
734.70 21.62825
734.80 21.43569
734.90 21.96518
735.00 22.91253
735.10 23.72078
735.20 24.15113
735.30 24.17072
735.40 23.97897
735.50 23.60665
735.60 23.13263
735.70 22.50411
735.80 22.16943
735.90 22.89551
736.00 23.85002
736.10 23.9698
736.20 23.85379
736.30 24.04668
736.40 24.65857
736.50 25.68578
736.60 26.34888
736.70 26.32002
736.80 26.39357
736.90 27.14552
737.00 27.84497
737.10 27.4144
737.20 26.8341
737.30 26.78323
737.40 26.60911
737.50 26.05076
737.60 25.03105
737.70 24.46379
737.80 24.74324
737.90 25.47085
738.00 26.13509
738.10 26.42134
738.20 26.51795
738.30 26.39515
738.40 26.19064
738.50 26.0532
738.60 26.09872
738.70 26.56477
738.80 27.25572
738.90 28.22291
739.00 29.14609
739.10 29.42646
739.20 29.1438
739.30 28.01151
739.40 26.38764
739.50 24.98143
739.60 24.05911
739.70 24.07026
739.80 24.75334
739.90 25.88055
740.00 26.7939
740.10 26.84864
740.20 27.04817
740.30 27.90672
740.40 28.27759
740.50 27.38954
740.60 25.22682
740.70 23.90929
740.80 24.34344
740.90 24.9816
741.00 25.67585
741.10 26.36029
741.20 26.73689
741.30 27.11054
741.40 27.54111
741.50 27.61433
741.60 27.05708
741.70 26.15938
741.80 25.36144
741.90 24.76922
742.00 24.16183
742.10 23.802
742.20 23.92927
742.30 24.5382
742.40 25.35709
742.50 26.17353
742.60 26.70285
742.70 26.88782
742.80 27.21192
742.90 27.42781
743.00 27.58098
743.10 27.72564
743.20 27.38742
743.30 26.97923
743.40 26.52375
743.50 25.70862
743.60 24.77814
743.70 24.04119
743.80 24.06396
743.90 24.87889
744.00 25.69555
744.10 26.17092
744.20 26.38094
744.30 25.68308
744.40 24.69549
744.50 24.34059
744.60 24.17952
744.70 24.28809
744.80 24.24962
744.90 23.7235
745.00 23.71775
745.10 24.69577
745.20 25.70037
745.30 25.97115
745.40 25.78146
745.50 25.35997
745.60 25.00721
745.70 24.7611
745.80 24.56555
745.90 24.6526
746.00 24.76818
746.10 24.96553
746.20 25.16793
746.30 25.48775
746.40 25.97666
746.50 26.33693
746.60 26.60118
746.70 26.70273
746.80 26.50905
746.90 25.98898
747.00 25.79875
747.10 26.54868
747.20 27.70136
747.30 27.62193
747.40 26.19345
747.50 24.82167
747.60 24.2368
747.70 24.7579
747.80 25.84235
747.90 26.47343
748.00 26.49219
748.10 26.71104
748.20 27.16247
748.30 27.51841
748.40 28.26026
748.50 29.04604
748.60 29.09324
748.70 28.60827
748.80 28.03198
748.90 27.81566
749.00 28.19571
749.10 28.26866
749.20 27.8195
749.30 27.43813
749.40 26.93226
749.50 26.39258
749.60 26.19569
749.70 26.37659
749.80 26.88981
749.90 27.63024
750.00 28.66228
750.10 29.42653
750.20 29.52489
750.30 29.64317
750.40 29.89625
750.50 29.72127
750.60 29.08883
750.70 28.38
750.80 28.11825
750.90 28.67978
751.00 29.78116
751.10 30.75807
751.20 30.97767
751.30 30.15371
751.40 29.15439
751.50 29.05394
751.60 29.29811
751.70 29.48661
751.80 29.58873
751.90 29.45902
752.00 29.30036
752.10 29.18322
752.20 29.02037
752.30 29.27374
752.40 30.39153
752.50 30.8746
752.60 30.27265
752.70 29.57007
752.80 28.77843
752.90 28.55843
753.00 29.23947
753.10 30.33383
753.20 31.49951
753.30 32.02909
753.40 31.48305
753.50 30.58325
753.60 30.07944
753.70 30.23348
753.80 31.28669
753.90 32.72272
754.00 33.88476
754.10 34.45249
754.20 34.1861
754.30 33.65077
754.40 33.70886
754.50 34.06549
754.60 34.35865
754.70 34.27116
754.80 33.63123
754.90 33.00771
755.00 32.69138
755.10 33.00753
755.20 33.8045
755.30 34.12392
755.40 33.78382
755.50 33.36639
755.60 33.3208
755.70 33.47765
755.80 33.81329
755.90 34.56079
756.00 35.34847
756.10 35.91987
756.20 35.84774
756.30 35.24553
756.40 34.993
756.50 34.50691
756.60 33.66771
756.70 33.16033
756.80 32.64287
756.90 32.06011
757.00 31.63936
757.10 31.71415
757.20 32.91171
757.30 35.1849
757.40 36.86349
757.50 36.48358
757.60 35.25038
757.70 34.53274
757.80 34.00188
757.90 33.69129
758.00 33.97881
758.10 34.90191
758.20 36.261
758.30 37.24841
758.40 37.45147
758.50 37.34703
758.60 36.87541
758.70 35.20745
758.80 32.15263
758.90 28.13206
759.00 23.88249
759.10 20.20265
759.20 17.38717
759.30 16.09586
759.40 16.68112
759.50 17.89009
759.60 18.86816
759.70 19.15595
759.80 18.39629
759.90 18.41485
760.00 19.88194
760.10 21.0902
760.20 20.96799
760.30 19.64712
760.40 18.69912
760.50 19.25655
760.60 19.79099
760.70 19.51859
760.80 19.23573
760.90 19.31858
761.00 19.64708
761.10 20.31726
761.20 21.2001
761.30 22.24772
761.40 23.29426
761.50 23.50316
761.60 23.0171
761.70 22.8363
761.80 23.39791
761.90 24.45729
762.00 25.49057
762.10 25.63728
762.20 24.70612
762.30 23.48
762.40 22.62954
762.50 22.29023
762.60 21.80509
762.70 20.68122
762.80 18.97766
762.90 16.55312
763.00 14.22543
763.10 13.04002
763.20 13.28325
763.30 14.27371
763.40 14.86802
763.50 14.78519
763.60 14.19161
763.70 13.82223
763.80 14.23865
763.90 14.53303
764.00 14.18282
764.10 13.84702
764.20 13.77329
764.30 13.99782
764.40 14.33737
764.50 14.40396
764.60 13.97232
764.70 13.43445
764.80 13.24799
764.90 13.21184
765.00 13.05805
765.10 12.71702
765.20 12.44904
765.30 12.59073
765.40 12.64085
765.50 11.93376
765.60 10.64982
765.70 9.727123
765.80 9.522132
765.90 9.513161
766.00 9.227294
766.10 8.482922
766.20 7.527732
766.30 6.469663
766.40 5.612423
766.50 5.023791
766.60 4.565853
766.70 4.522038
766.80 4.880042
766.90 5.529106
767.00 6.18556
767.10 6.529423
767.20 6.700416
767.30 6.851398
767.40 7.089004
767.50 7.474909
767.60 7.899281
767.70 8.292581
767.80 8.476963
767.90 8.497623
768.00 8.758259
768.10 9.329236
768.20 9.752599
768.30 9.806297
768.40 9.886866
768.50 10.04856
768.60 10.09092
768.70 9.964109
768.80 9.649037
768.90 9.418139
769.00 9.511268
769.10 9.812982
769.20 9.873106
769.30 9.607961
769.40 9.240141
769.50 8.690247
769.60 8.044779
769.70 7.336225
769.80 6.56209
769.90 5.727598
770.00 4.827428
770.10 4.659042
770.20 5.355863
770.30 6.175572
770.40 6.864996
770.50 7.38125
770.60 7.807353
770.70 8.184015
770.80 8.602974
770.90 9.15539
771.00 9.683904
771.10 10.30317
771.20 10.58155
771.30 10.54191
771.40 11.26604
771.50 11.85376
771.60 11.46772
771.70 11.24672
771.80 11.2942
771.90 11.71649
772.00 12.585
772.10 12.73023
772.20 12.55118
772.30 13.22064
772.40 13.98575
772.50 14.21251
772.60 14.30493
772.70 14.19329
772.80 14.03401
772.90 14.46105
773.00 15.40807
773.10 16.50722
773.20 17.24076
773.30 17.28977
773.40 17.14812
773.50 17.0749
773.60 17.00922
773.70 17.26301
773.80 17.89309
773.90 18.54912
774.00 19.07106
774.10 19.24048
774.20 18.92259
774.30 18.55369
774.40 18.0604
774.50 16.80907
774.60 15.32811
774.70 14.79524
774.80 14.82268
774.90 14.68169
775.00 14.19036
775.10 13.08015
775.20 12.36061
775.30 12.87684
775.40 13.64804
775.50 13.90564
775.60 13.79866
775.70 13.62172
775.80 13.63437
775.90 14.00754
776.00 14.39129
776.10 14.50787
776.20 14.37982
776.30 13.97266
776.40 13.91246
776.50 14.42059
776.60 14.69186
776.70 14.69617
776.80 15.22164
776.90 16.0052
777.00 16.48243
777.10 16.69268
777.20 16.68707
777.30 16.77421
777.40 17.23724
777.50 17.72287
777.60 17.88116
777.70 17.75707
777.80 17.42057
777.90 17.54989
778.00 18.2008
778.10 18.52347
778.20 18.29734
778.30 17.2388
778.40 15.70788
778.50 14.75055
778.60 14.5262
778.70 14.62424
778.80 14.90548
778.90 15.21639
779.00 15.51753
779.10 16.40889
779.20 17.47218
779.30 18.16183
779.40 18.54908
779.50 18.36276
779.60 18.20277
779.70 18.11227
779.80 17.22652
779.90 16.28296
780.00 15.37821
780.10 14.07924
780.20 13.65361
780.30 14.60696
780.40 16.3816
780.50 18.54283
780.60 20.07392
780.70 20.61775
780.80 20.94794
780.90 21.37454
781.00 21.36831
781.10 20.98357
781.20 20.86601
781.30 21.09025
781.40 21.70944
781.50 22.43481
781.60 22.65648
781.70 22.7271
781.80 22.98397
781.90 23.52032
782.00 23.67824
782.10 22.19602
782.20 20.43966
782.30 19.66727
782.40 19.18691
782.50 19.40082
782.60 19.74998
782.70 19.6251
782.80 19.41017
782.90 18.73259
783.00 17.55299
783.10 16.73516
783.20 16.7747
783.30 17.47534
783.40 18.3279
783.50 18.88802
783.60 19.17367
783.70 19.25289
783.80 19.36021
783.90 19.6226
784.00 19.64325
784.10 19.65468
784.20 19.91844
784.30 19.90274
784.40 19.79765
784.50 20.08126
784.60 20.6559
784.70 21.34829
784.80 21.77032
784.90 21.61439
785.00 20.89231
785.10 20.24208
785.20 20.42073
785.30 21.01825
785.40 21.45439
785.50 21.45149
785.60 21.11541
785.70 21.18018
785.80 21.42654
785.90 21.75649
786.00 22.14261
786.10 21.80459
786.20 21.18261
786.30 20.93918
786.40 20.82488
786.50 20.55894
786.60 20.22088
786.70 19.91338
786.80 19.58339
786.90 19.68968
787.00 20.1972
787.10 20.51995
787.20 20.43744
787.30 19.70004
787.40 19.16118
787.50 19.56492
787.60 20.23901
787.70 20.72417
787.80 21.15838
787.90 21.8017
788.00 22.2843
788.10 22.50861
788.20 22.95772
788.30 23.26389
788.40 23.33288
788.50 23.49839
788.60 23.68117
788.70 24.07599
788.80 24.58801
788.90 24.76089
789.00 24.58806
789.10 24.2315
789.20 23.93556
789.30 24.19731
789.40 24.94997
789.50 25.38916
789.60 25.00206
789.70 24.02586
789.80 22.93301
789.90 21.84595
790.00 20.96857
790.10 20.50381
790.20 20.42768
790.30 20.94055
790.40 21.91085
790.50 22.78343
790.60 23.34995
790.70 23.33919
790.80 22.58004
790.90 21.60175
791.00 20.99668
791.10 20.52019
791.20 20.1234
791.30 19.9743
791.40 19.89477
791.50 20.31838
791.60 20.69034
791.70 20.62135
791.80 20.82829
791.90 20.67826
792.00 19.80209
792.10 19.03267
792.20 18.97403
792.30 19.63845
792.40 20.40489
792.50 21.00301
792.60 21.38218
792.70 21.49319
792.80 21.72608
792.90 21.97943
793.00 22.05713
793.10 22.23311
793.20 22.69562
793.30 23.79988
793.40 25.0209
793.50 25.60789
793.60 25.75003
793.70 25.48713
793.80 25.30419
793.90 25.2865
794.00 24.30547
794.10 22.54481
794.20 21.12648
794.30 20.47456
794.40 20.78877
794.50 21.56646
794.60 22.00692
794.70 21.4591
794.80 19.46185
794.90 17.58619
795.00 17.85272
795.10 19.89207
795.20 21.98793
795.30 23.3831
795.40 24.49018
795.50 25.475
795.60 26.12371
795.70 26.41201
795.80 26.16677
795.90 25.52932
796.00 25.06228
796.10 24.35037
796.20 22.97499
796.30 22.24042
796.40 22.98024
796.50 23.8961
796.60 23.9998
796.70 23.84735
796.80 24.02722
796.90 25.04116
797.00 26.73763
797.10 27.7734
797.20 27.8736
797.30 27.93395
797.40 27.63512
797.50 26.46507
797.60 25.28532
797.70 24.66828
797.80 24.37491
797.90 24.1979
798.00 24.03695
798.10 24.07934
798.20 24.33136
798.30 24.3592
798.40 24.00863
798.50 23.49161
798.60 22.9871
798.70 22.60411
798.80 22.49043
798.90 22.61451
799.00 22.88035
799.10 23.35677
799.20 24.2052
799.30 25.40496
799.40 26.04836
799.50 25.21755
799.60 24.05391
799.70 23.88987
799.80 24.27978
799.90 24.61156
800.00 24.84374
800.10 25.28488
800.20 25.90652
800.30 26.50308
800.40 27.14411
800.50 27.36761
800.60 27.20633
800.70 27.43584
800.80 28.2001
800.90 29.07595
801.00 29.43023
801.10 29.30905
801.20 29.23116
801.30 29.3709
801.40 29.69122
801.50 29.63095
801.60 29.28335
801.70 29.63834
801.80 30.63734
801.90 31.47084
802.00 31.78757
802.10 31.58894
802.20 31.11377
802.30 30.67699
802.40 30.64367
802.50 30.99399
802.60 31.54581
802.70 32.60018
802.80 33.71756
802.90 34.36729
803.00 34.95149
803.10 35.40279
803.20 35.42634
803.30 35.20946
803.40 35.05925
803.50 35.16461
803.60 35.64548
803.70 35.99045
803.80 35.60058
803.90 35.19231
804.00 35.19836
804.10 35.1132
804.20 35.20521
804.30 35.8464
804.40 36.65101
804.50 37.23669
804.60 37.18005
804.70 36.47008
804.80 36.22027
804.90 36.95651
805.00 38.14778
805.10 39.35234
805.20 40.39676
805.30 41.40782
805.40 42.06447
805.50 42.23308
805.60 42.39688
805.70 42.58509
805.80 42.848
805.90 42.98157
806.00 42.8027
806.10 43.15803
806.20 44.02606
806.30 44.39851
806.40 44.04554
806.50 43.62774
806.60 43.55014
806.70 43.75571
806.80 44.22042
806.90 44.57142
807.00 44.25202
807.10 43.74492
807.20 44.03149
807.30 45.05609
807.40 46.1874
807.50 47.03572
807.60 47.45049
807.70 47.59801
807.80 47.98754
807.90 48.9475
808.00 49.71228
808.10 49.37783
808.20 48.95664
808.30 49.65079
808.40 50.54222
808.50 51.19822
808.60 52.06419
808.70 52.39287
808.80 51.94942
808.90 51.29193
809.00 50.60255
809.10 50.55974
809.20 51.61181
809.30 53.00826
809.40 53.70299
809.50 53.42094
809.60 53.03682
809.70 52.68501
809.80 52.08224
809.90 51.8259
810.00 51.88682
810.10 51.98619
810.20 52.25018
810.30 52.23476
810.40 51.67027
810.50 51.2711
810.60 51.80716
810.70 53.32953
810.80 54.92515
810.90 55.91309
811.00 56.63245
811.10 56.99906
811.20 56.8233
811.30 56.70634
811.40 56.94141
811.50 57.42972
811.60 57.67674
811.70 57.05703
811.80 56.14903
811.90 56.25558
812.00 57.56621
812.10 58.94738
812.20 59.74085
812.30 60.00205
812.40 59.88441
812.50 60.04881
812.60 60.51692
812.70 60.76678
812.80 61.19753
812.90 62.06893
813.00 62.59063
813.10 62.39512
813.20 62.11643
813.30 62.14304
813.40 62.62744
813.50 63.63886
813.60 64.32035
813.70 64.33014
813.80 64.5315
813.90 65.03506
814.00 65.34759
814.10 65.28479
814.20 64.53895
814.30 63.33227
814.40 62.11562
814.50 61.24179
814.60 61.27824
814.70 61.85002
814.80 62.05814
814.90 61.705
815.00 61.51244
815.10 62.25124
815.20 63.38025
815.30 64.16848
815.40 64.60672
815.50 64.40574
815.60 63.70618
815.70 63.42175
815.80 63.51216
815.90 63.3297
816.00 62.97612
816.10 62.52568
816.20 61.92254
816.30 61.78971
816.40 62.66415
816.50 64.17776
816.60 65.49413
816.70 66.12532
816.80 66.40745
816.90 66.94421
817.00 67.6535
817.10 68.41512
817.20 68.71718
817.30 68.15374
817.40 67.76035
817.50 67.45784
817.60 66.6863
817.70 65.66253
817.80 64.03075
817.90 62.33164
818.00 61.18475
818.10 59.07225
818.20 54.26294
818.30 46.85437
818.40 39.21164
818.50 35.32976
818.60 36.912
818.70 42.35962
818.80 49.03174
818.90 54.05223
819.00 56.38284
819.10 56.79826
819.20 55.53467
819.30 51.93243
819.40 46.01503
819.50 39.24684
819.60 33.79752
819.70 31.76989
819.80 33.64148
819.90 37.8781
820.00 42.45543
820.10 46.37366
820.20 49.64921
820.30 52.54994
820.40 55.02623
820.50 56.55564
820.60 56.60828
820.70 54.69062
820.80 51.62932
820.90 50.14667
821.00 51.43005
821.10 53.86848
821.20 56.29361
821.30 57.80016
821.40 57.47455
821.50 56.3324
821.60 55.51379
821.70 54.97408
821.80 54.75848
821.90 55.1928
822.00 56.1789
822.10 57.48267
822.20 59.03131
822.30 60.3647
822.40 61.27822
822.50 61.81633
822.60 61.8644
822.70 61.85223
822.80 62.01323
822.90 62.41679
823.00 63.38285
823.10 64.6137
823.20 65.60606
823.30 65.96939
823.40 65.16232
823.50 63.60059
823.60 62.63852
823.70 62.962
823.80 64.33131
823.90 66.01662
824.00 67.29586
824.10 68.10755
824.20 68.62178
824.30 68.56363
824.40 67.80503
824.50 67.04287
824.60 67.06741
824.70 68.14164
824.80 70.13679
824.90 71.94261
825.00 72.08157
825.10 70.297
825.20 67.35865
825.30 64.37162
825.40 62.38416
825.50 61.54247
825.60 61.00909
825.70 60.32419
825.80 59.73531
825.90 59.9707
826.00 61.58623
826.10 63.74435
826.20 65.57039
826.30 66.84918
826.40 67.51037
826.50 68.10556
826.60 68.57299
826.70 68.52024
826.80 68.20444
826.90 67.56679
827.00 66.61355
827.10 65.50561
827.20 63.95883
827.30 61.79526
827.40 59.48111
827.50 58.38671
827.60 59.34206
827.70 60.99297
827.80 61.85608
827.90 61.99524
828.00 61.50056
828.10 60.46749
828.20 59.22608
828.30 57.77902
828.40 56.73936
828.50 57.09798
828.60 58.27923
828.70 58.88487
828.80 58.333
828.90 56.05253
829.00 52.65796
829.10 50.54702
829.20 50.56801
829.30 51.84947
829.40 53.19826
829.50 53.6483
829.60 53.78435
829.70 54.52126
829.80 55.398
829.90 55.73205
830.00 49.8901
830.10 49.49121
830.20 49.09231
830.30 48.97427
830.40 48.85623
830.50 49.17417
830.60 49.49211
830.70 50.08268
830.80 50.67326
830.90 52.01179
831.00 53.35031
831.10 54.47011
831.20 55.5899
831.30 54.85128
831.40 54.11267
831.50 54.42715
831.60 54.74163
831.70 55.38917
831.80 56.0367
831.90 56.07946
832.00 56.12223
832.10 56.32999
832.20 56.53775
832.30 56.53129
832.40 56.52483
832.50 55.97737
832.60 55.42991
832.70 55.56435
832.80 55.69879
832.90 57.11823
833.00 58.53767
833.10 56.83952
833.20 55.14138
833.30 55.82424
833.40 56.50711
833.50 55.51901
833.60 54.53092
833.70 54.01504
833.80 53.49916
833.90 54.82663
834.00 56.15409
834.10 56.39297
834.20 56.63186
834.30 57.44143
834.40 58.251
834.50 54.8898
834.60 51.5286
834.70 50.42123
834.80 49.31386
834.90 50.63735
835.00 51.96084
835.10 53.49534
835.20 55.02984
835.30 55.30834
835.40 55.58685
835.50 55.38225
835.60 55.17766
835.70 56.28031
835.80 57.38296
835.90 57.17401
836.00 56.96505
836.10 57.19734
836.20 57.42963
836.30 57.78563
836.40 58.14164
836.50 58.10323
836.60 58.06482
836.70 58.66275
836.80 59.26067
836.90 61.02872
837.00 62.79678
837.10 60.28516
837.20 57.77354
837.30 58.18252
837.40 58.59149
837.50 56.76183
837.60 54.93217
837.70 54.15416
837.80 53.37615
837.90 54.53785
838.00 55.69954
838.10 57.43645
838.20 59.17335
838.30 57.50612
838.40 55.83889
838.50 55.79174
838.60 55.7446
838.70 54.328
838.80 52.91139
838.90 50.7928
839.00 48.67421
839.10 49.29072
839.20 49.90723
839.30 51.19789
839.40 52.48855
839.50 53.65013
839.60 54.8117
839.70 55.76955
839.80 56.72739
839.90 58.13576
840.00 59.54414
840.10 54.70225
840.20 57.15121
840.30 58.20028
840.40 58.27151
840.50 58.60559
840.60 59.70406
840.70 60.80212
840.80 60.9364
840.90 60.97838
841.00 63.6233
841.10 68.11557
841.20 70.32149
841.30 65.99411
841.40 61.70467
841.50 58.72784
841.60 55.76271
841.70 58.36604
841.80 64.8708
841.90 68.19088
842.00 63.1819
842.10 58.24227
842.20 56.09101
842.30 54.06044
842.40 53.10226
842.50 52.63077
842.60 52.57294
842.70 53.60613
842.80 54.65368
842.90 54.95142
843.00 55.16311
843.10 55.78881
843.20 56.61032
843.30 56.11386
843.40 53.23562
843.50 50.43253
843.60 46.69959
843.70 42.86443
843.80 41.00185
843.90 39.71231
844.00 40.70548
844.10 46.16947
844.20 51.39461
844.30 45.41699
844.40 39.52143
844.50 34.84228
844.60 30.70417
844.70 29.08551
844.80 31.79185
844.90 34.46689
845.00 36.77109
845.10 39.14572
845.20 36.52451
845.30 32.03663
845.40 29.10808
845.50 28.7937
845.60 28.58134
845.70 28.9037
845.80 29.20309
845.90 29.39249
846.00 29.5625
846.10 30.53713
846.20 32.57352
846.30 34.45282
846.40 35.44295
846.50 36.49923
846.60 32.58872
846.70 27.03191
846.80 25.79918
846.90 30.43739
847.00 34.39138
847.10 31.24785
847.20 28.12483
847.30 28.58249
847.40 30.1506
847.50 30.94746
847.60 30.82313
847.70 30.96464
847.80 32.08794
847.90 33.2336
848.00 33.80116
848.10 34.30955
848.20 34.60252
848.30 34.70943
848.40 34.80792
848.50 34.61491
848.60 34.41004
848.70 34.38742
848.80 34.4209
848.90 34.08031
849.00 33.27061
849.10 32.68846
849.20 33.34333
849.30 33.98648
849.40 33.7859
849.50 33.48463
849.60 33.64219
849.70 34.48396
849.80 34.99892
849.90 33.82986
850.00 32.66657
850.10 36.01275
850.20 39.98561
850.30 40.65574
850.40 38.38815
850.50 36.54082
850.60 37.12858
850.70 37.74618
850.80 34.67392
850.90 31.15403
851.00 30.50787
851.10 31.74733
851.20 33.36953
851.30 35.98709
851.40 38.56721
851.50 38.10116
851.60 37.40834
851.70 34.70395
851.80 30.80356
851.90 28.2981
852.00 29.19475
852.10 30.10323
852.20 29.53357
852.30 28.88026
852.40 30.53759
852.50 33.38198
852.60 35.88763
852.70 37.58151
852.80 39.17749
852.90 37.89617
853.00 36.58767
853.10 35.84908
853.20 35.45391
853.30 35.65453
853.40 36.86528
853.50 38.05732
853.60 36.66057
853.70 35.27605
853.80 36.20139
853.90 38.21225
854.00 39.18109
854.10 38.42736
854.20 37.79177
854.30 37.88852
854.40 37.97118
854.50 39.10259
854.60 40.61986
854.70 41.10718
854.80 39.93124
854.90 38.85697
855.00 39.53706
855.10 40.21303
855.20 40.66193
855.30 41.01723
855.40 41.54467
855.50 42.4325
855.60 43.0826
855.70 41.27151
855.80 39.39792
855.90 39.01519
856.00 39.21538
856.10 38.7249
856.20 37.30112
856.30 36.20609
856.40 36.52212
856.50 36.85309
856.60 39.08532
856.70 41.67942
856.80 42.90587
856.90 42.92667
857.00 42.35966
857.10 39.5371
857.20 36.73705
857.30 35.25935
857.40 33.99551
857.50 34.99326
857.60 37.72823
857.70 40.08535
857.80 40.90061
857.90 41.66857
858.00 41.72135
858.10 41.74464
858.20 41.41207
858.30 41.07618
858.40 40.66287
858.50 39.55427
858.60 38.4873
858.70 41.23652
858.80 44.29068
858.90 45.75471
859.00 46.26328
859.10 46.39608
859.20 45.56813
859.30 44.70335
859.40 43.42606
859.50 42.11735
859.60 43.20011
859.70 45.44246
859.80 46.9388
859.90 46.8853
860.00 46.74174
860.10 46.93598
860.20 47.12007
860.30 48.95615
860.40 51.59364
860.50 52.05015
860.60 48.13514
860.70 44.26406
860.80 44.92158
860.90 45.56044
861.00 45.10389
861.10 44.30745
861.20 44.003
861.30 44.35174
861.40 44.52245
861.50 43.48079
861.60 42.41522
861.70 42.74044
861.80 43.53981
861.90 43.97343
862.00 43.57486
862.10 43.32963
862.20 44.73
862.30 46.09647
862.40 46.9907
862.50 47.83334
862.60 47.00231
862.70 44.62038
862.80 42.93758
862.90 44.53995
863.00 46.15579
863.10 44.63165
863.20 42.44638
863.30 42.28886
863.40 43.81366
863.50 44.71034
863.60 43.32162
863.70 41.97447
863.80 42.95122
863.90 44.29281
864.00 45.29014
864.10 46.02209
864.20 46.07255
864.30 43.63939
864.40 41.31907
864.50 44.06437
864.60 47.45851
864.70 46.83246
864.80 43.69982
864.90 41.61117
865.00 42.66691
865.10 43.89712
865.20 42.94692
865.30 41.8444
865.40 42.05844
865.50 43.12342
865.60 44.47515
865.70 46.42859
865.80 48.25771
865.90 48.63988
866.00 48.99418
866.10 48.96319
866.20 48.86868
866.30 48.63208
866.40 47.87892
866.50 47.32326
866.60 47.23506
866.70 47.0624
866.80 46.59097
866.90 46.15836
867.00 46.53914
867.10 48.42797
867.20 50.00792
867.30 46.73953
867.40 43.46145
867.50 44.21614
867.60 46.31442
867.70 48.72503
867.80 51.54559
867.90 53.92269
868.00 52.92552
868.10 51.9489
868.20 49.42129
868.30 46.50614
868.40 45.95272
868.50 48.40731
868.60 50.48972
868.70 48.99282
868.80 47.42613
868.90 48.34659
869.00 49.86675
869.10 48.80599
869.20 45.4022
869.30 42.32175
869.40 40.33043
869.50 38.33319
869.60 38.61618
869.70 39.18866
869.80 39.4021
869.90 38.7932
870.00 38.50863
870.10 39.84653
870.20 41.25999
870.30 42.44006
870.40 43.57559
870.50 44.05639
870.60 44.09315
870.70 44.62447
870.80 46.29165
870.90 47.72308
871.00 44.59543
871.10 41.3567
871.20 41.84486
871.30 44.2383
871.40 45.20341
871.50 42.96429
871.60 40.66906
871.70 42.21438
871.80 43.78614
871.90 44.06379
872.00 43.73249
872.10 43.6868
872.20 43.77865
872.30 43.80448
872.40 42.71994
872.50 41.63077
872.60 42.26286
872.70 43.50311
872.80 45.27474
872.90 47.03331
873.00 48.42402
873.10 49.57579
873.20 50.69194
873.30 49.87438
873.40 48.63148
873.50 47.82616
873.60 47.34696
873.70 46.93135
873.80 45.54336
873.90 44.10173
874.00 45.13839
874.10 46.69562
874.20 48.14965
874.30 49.1875
874.40 50.74739
874.50 53.71222
874.60 56.46978
874.70 56.83947
874.80 56.9761
874.90 55.57935
875.00 53.48004
875.10 52.14423
875.20 52.14095
875.30 52.22006
875.40 53.43033
875.50 54.70697
875.60 53.62189
875.70 51.20105
875.80 50.15966
875.90 52.68184
876.00 55.35095
876.10 56.06948
876.20 56.63869
876.30 55.7059
876.40 54.31834
876.50 52.86986
876.60 51.74503
876.70 50.8048
876.80 51.75887
876.90 52.80741
877.00 54.3205
877.10 55.72769
877.20 57.34569
877.30 58.94831
877.40 60.67102
877.50 64.42117
877.60 68.08997
877.70 67.75641
877.80 66.25814
877.90 64.13324
878.00 62.69402
878.10 61.49717
878.20 60.01916
878.30 58.66384
878.40 59.84382
878.50 61.5048
878.60 63.75181
878.70 66.64373
878.80 68.78479
878.90 68.88381
879.00 69.08813
879.10 68.34581
879.20 67.3769
879.30 66.4932
879.40 65.67796
879.50 65.16722
879.60 66.0058
879.70 66.95495
879.80 67.72132
879.90 68.39939
880.00 68.48398
880.10 68.61159
880.20 67.07152
880.30 63.40128
880.40 60.0987
880.50 59.09591
880.60 58.20317
880.70 59.04233
880.80 60.38193
880.90 60.42533
881.00 58.3228
881.10 56.75472
881.20 62.62327
881.30 68.32973
881.40 71.16847
881.50 72.87119
881.60 74.25592
881.70 75.56155
881.80 76.8257
881.90 77.11458
882.00 77.23635
882.10 74.92498
882.20 71.99873
882.30 68.7633
882.40 65.96844
882.50 63.09984
882.60 58.97575
882.70 55.12343
882.80 57.91271
882.90 62.06836
883.00 65.836
883.10 68.94471
883.20 71.79861
883.30 73.36812
883.40 74.73601
883.50 74.24488
883.60 73.55101
883.70 73.34964
883.80 73.46585
883.90 74.54716
884.00 78.6577
884.10 82.69637
884.20 80.64256
884.30 77.96959
884.40 76.68751
884.50 76.59157
884.60 75.17416
884.70 71.53975
884.80 67.98995
884.90 63.49755
885.00 59.05528
885.10 60.16
885.20 63.75387
885.30 69.04512
885.40 75.47165
885.50 81.13131
885.60 81.24949
885.70 81.15104
885.80 76.44217
885.90 70.47999
886.00 65.53709
886.10 62.3925
886.20 59.12863
886.30 54.71777
886.40 50.65724
886.50 50.78885
886.60 51.68639
886.70 54.34038
886.80 58.28116
886.90 60.44032
887.00 57.54429
887.10 54.49106
887.20 51.14816
887.30 47.87459
887.40 46.37293
887.50 45.23567
887.60 44.92366
887.70 46.75289
887.80 48.69082
887.90 51.21367
888.00 53.77494
888.10 55.36813
888.20 56.52132
888.30 56.20419
888.40 53.46176
888.50 50.88528
888.60 51.3727
888.70 52.04911
888.80 51.24981
888.90 49.23585
889.00 49.92332
889.10 55.62783
889.20 61.05147
889.30 60.86654
889.40 60.56518
889.50 58.37738
889.60 55.50263
889.70 53.8507
889.80 54.78308
889.90 56.1184
890.00 57.88751
890.10 59.76243
890.20 61.7769
890.30 63.61525
890.40 66.32505
890.50 70.75984
890.60 74.52345
890.70 74.80901
890.80 74.95482
890.90 70.84619
891.00 65.78105
891.10 63.23515
891.20 63.44486
891.30 63.69884
891.40 62.98877
891.50 62.47147
891.60 63.30991
891.70 64.27395
891.80 64.96399
891.90 66.07094
892.00 67.24743
892.10 67.64087
892.20 67.80446
892.30 66.83482
892.40 65.80218
892.50 64.94487
892.60 64.37724
892.70 64.74759
892.80 66.84342
892.90 69.0045
893.00 68.49846
893.10 68.01315
893.20 69.94683
893.30 72.81057
893.40 75.07832
893.50 76.55351
893.60 77.46103
893.70 76.23989
893.80 74.84778
893.90 70.56602
894.00 65.53254
894.10 62.47351
894.20 60.86044
894.30 59.78149
894.40 60.08811
894.50 60.27658
894.60 59.57555
894.70 58.6912
894.80 59.88061
894.90 62.35178
895.00 64.05917
895.10 63.79776
895.20 63.47371
895.30 62.4266
895.40 61.35318
895.50 61.57649
895.60 62.59028
895.70 64.17701
895.80 66.69431
895.90 69.05705
896.00 70.06455
896.10 70.93986
896.20 71.33991
896.30 71.69744
896.40 71.51665
896.50 69.28617
896.60 66.88049
896.70 66.38806
896.80 66.04291
896.90 66.81575
897.00 68.09581
897.10 69.55046
897.20 70.20087
897.30 70.58992
897.40 72.2562
897.50 74.01797
897.60 75.75657
897.70 77.31065
897.80 77.77816
897.90 76.80762
898.00 75.56336
898.10 76.56391
898.20 77.64772
898.30 77.11149
898.40 75.95507
898.50 77.89798
898.60 82.02819
898.70 85.37538
898.80 85.45351
898.90 85.13015
899.00 81.87849
899.10 78.29149
899.20 77.13877
899.30 77.85325
899.40 78.8156
899.50 80.12054
899.60 81.37418
899.70 79.08977
899.80 76.41309
899.90 75.2451
900.00 75.23366
900.10 75.62795
900.20 76.65355
900.30 78.07109
900.40 81.70584
900.50 85.4216
900.60 89.11161
900.70 92.86833
900.80 93.17588
900.90 88.70948
901.00 84.32557
901.10 84.51857
901.20 84.90378
901.30 84.86843
901.40 84.32305
901.50 84.00632
901.60 84.5428
901.70 84.69418
901.80 83.26167
901.90 81.88797
902.00 79.70439
902.10 77.30327
902.20 75.76127
902.30 75.19309
902.40 74.76616
902.50 75.1779
902.60 75.66795
902.70 75.03975
902.80 74.17848
902.90 74.66218
903.00 76.04364
903.10 77.27521
903.20 77.26416
903.30 77.34654
903.40 79.4327
903.50 81.63511
903.60 83.80657
903.70 86.03748
903.80 87.90401
903.90 88.91547
904.00 89.75683
904.10 87.70333
904.20 85.59348
904.30 85.07825
904.40 85.55639
904.50 86.03373
904.60 86.26178
904.70 86.9111
904.80 88.63827
904.90 90.35041
905.00 91.50101
905.10 92.53389
905.20 90.66921
905.30 86.5911
905.40 83.01864
905.50 80.59632
905.60 78.19024
905.70 78.20517
905.80 78.79654
905.90 79.19395
906.00 79.19798
906.10 79.38564
906.20 79.86902
906.30 80.3759
906.40 80.0362
906.50 79.51591
906.60 79.11486
906.70 79.54465
906.80 79.46222
906.90 77.54037
907.00 75.80053
907.10 77.64595
907.20 79.71045
907.30 80.16243
907.40 79.3906
907.50 78.56655
907.60 78.21868
907.70 78.00713
907.80 81.75592
907.90 85.58345
908.00 86.93596
908.10 87.02019
908.20 86.43057
908.30 85.97102
908.40 85.18874
908.50 83.7511
908.60 82.42932
908.70 81.32177
908.80 80.11987
908.90 80.94242
909.00 84.37439
909.10 87.31069
909.20 87.1939
909.30 87.20816
909.40 88.02267
909.50 88.92676
909.60 89.82284
909.70 90.81272
909.80 91.87443
909.90 93.88991
910.00 95.95838
910.10 95.40517
910.20 94.58759
910.30 93.84955
910.40 93.43899
910.50 93.28216
910.60 94.09679
910.70 94.94257
910.80 91.81813
910.90 88.70244
911.00 89.86454
911.10 92.7192
911.20 95.25716
911.30 97.36442
911.40 99.10282
911.50 97.75786
911.60 96.32566
911.70 96.37455
911.80 97.17139
911.90 97.30315
912.00 96.02666
912.10 95.01694
912.20 94.23827
912.30 93.31514
912.40 92.69843
912.50 92.25585
912.60 91.762
912.70 91.26186
912.80 90.70181
912.90 89.57524
913.00 88.55185
913.10 91.0432
913.20 94.02082
913.30 95.90937
913.40 96.77886
913.50 98.13378
913.60 101.3865
913.70 104.3341
913.80 102.8542
913.90 101.1534
914.00 96.94193
914.10 91.50504
914.20 88.20361
914.30 88.24654
914.40 88.78685
914.50 92.77585
914.60 96.70359
914.70 98.79915
914.80 100.2681
914.90 99.53157
915.00 96.84595
915.10 94.50314
915.20 94.56039
915.30 94.85723
915.40 95.91086
915.50 96.86172
915.60 100.8869
915.70 107.8853
915.80 112.6841
915.90 109.6692
916.00 106.5924
916.10 104.1241
916.20 101.8318
916.30 100.2805
916.40 99.5302
916.50 99.83615
916.60 101.2907
916.70 102.7533
916.80 105.3067
916.90 107.9515
917.00 107.6688
917.10 105.8712
917.20 104.5797
917.30 104.8668
917.40 105.0595
917.50 103.8293
917.60 102.6695
917.70 102.8491
917.80 103.4184
917.90 104.2905
918.00 105.5098
918.10 106.7773
918.20 107.0633
918.30 107.2727
918.40 106.5398
918.50 105.6252
918.60 103.8381
918.70 101.4926
918.80 101.1139
918.90 108.9545
919.00 116.8879
919.10 119.3333
919.20 120.6577
919.30 117.9997
919.40 113.609
919.50 109.7695
919.60 108.8615
919.70 108.4718
919.80 111.5845
919.90 114.8975
920.00 116.0537
920.10 115.8258
920.20 115.3455
920.30 115.6304
920.40 116.0637
920.50 114.9916
920.60 113.8865
920.70 110.7998
920.80 106.971
920.90 102.6493
921.00 98.90063
921.10 95.87725
921.20 93.5783
921.30 91.30247
921.40 95.0106
921.50 100.5111
921.60 103.9011
921.70 105.0251
921.80 105.9408
921.90 105.5796
922.00 105.2102
922.10 102.7809
922.20 99.93712
922.30 98.34228
922.40 97.86444
922.50 97.20395
922.60 95.75184
922.70 94.42197
922.80 94.17174
922.90 93.96646
923.00 94.69566
923.10 96.32333
923.20 96.70651
923.30 95.27109
923.40 94.23116
923.50 91.32812
923.60 88.31137
923.70 88.95999
923.80 91.32792
923.90 92.98706
924.00 93.86182
924.10 95.05858
924.20 98.24902
924.30 101.3432
924.40 102.455
924.50 102.8809
924.60 100.8908
924.70 96.88756
924.80 93.30571
924.90 93.07173
925.00 92.97109
925.10 92.36441
925.20 91.48575
925.30 91.09084
925.40 91.25852
925.50 91.72805
925.60 92.4884
925.70 93.35773
925.80 96.6149
925.90 100.1287
926.00 101.514
926.10 102.2497
926.20 101.9968
926.30 99.54686
926.40 97.36952
926.50 98.78706
926.60 100.3343
926.70 102.1741
926.80 103.7543
926.90 104.3627
927.00 104.3592
927.10 104.2009
927.20 103.5043
927.30 102.7865
927.40 101.3832
927.50 99.83439
927.60 97.29486
927.70 93.418
927.80 89.72747
927.90 87.74631
928.00 86.06141
928.10 88.55365
928.20 91.74773
928.30 93.78346
928.40 94.70383
928.50 95.86908
928.60 97.58586
928.70 98.95024
928.80 97.86697
928.90 96.61912
929.00 95.83906
929.10 95.01137
929.20 94.15479
929.30 93.65847
929.40 93.32959
929.50 94.77971
929.60 96.29162
929.70 96.07013
929.80 94.93384
929.90 92.31689
930.00 88.02768
930.10 84.04747
930.20 85.75782
930.30 87.5405
930.40 88.85525
930.50 89.69567
930.60 89.25417
930.70 87.46405
930.80 86.09325
930.90 86.7617
931.00 87.48353
931.10 89.72262
931.20 92.17542
931.30 94.95836
931.40 98.12187
931.50 100.1813
931.60 99.30913
931.70 98.50092
931.80 96.11403
931.90 93.58341
932.00 91.03041
932.10 88.82654
932.20 87.92193
932.30 90.53685
932.40 93.15913
932.50 96.13549
932.60 99.02609
932.70 99.14188
932.80 97.86814
932.90 97.1139
933.00 97.03904
933.10 96.93281
933.20 97.22061
933.30 97.51035
933.40 94.82899
933.50 91.05212
933.60 90.38834
933.70 94.0796
933.80 97.31602
933.90 96.53742
934.00 95.74566
934.10 97.78909
934.20 100.3482
934.30 99.16737
934.40 94.80951
934.50 92.50587
934.60 97.1669
934.70 101.8257
934.80 101.3237
934.90 100.1795
935.00 100.882
935.10 98.39383
935.20 95.90528
935.30 94.84159
935.40 94.6388
935.50 94.42927
935.60 94.92654
935.70 95.49631
935.80 95.79967
935.90 95.61833
936.00 95.45149
936.10 96.27286
936.20 98.16552
936.30 100.0685
936.40 100.6396
936.50 100.5474
936.60 100.2808
936.70 97.71299
936.80 95.15943
936.90 93.23911
937.00 92.29669
937.10 91.35452
937.20 89.2582
937.30 86.60983
937.40 83.94214
937.50 87.22371
937.60 91.14219
937.70 94.50136
937.80 95.45069
937.90 96.38878
938.00 96.87836
938.10 96.81216
938.20 96.7508
938.30 96.23061
938.40 95.59398
938.50 95.02109
938.60 96.55329
938.70 98.09317
938.80 99.29492
938.90 99.83395
939.00 100.373
939.10 100.4581
939.20 100.2065
939.30 99.96156
939.40 99.77711
939.50 99.56153
939.60 99.2209
939.70 97.6811
939.80 96.09914
939.90 94.7159
940.00 93.97926
940.10 93.23717
940.20 93.7451
940.30 94.71025
940.40 95.68497
940.50 96.46906
940.60 97.32033
940.70 98.4842
940.80 100.5693
940.90 102.6553
941.00 103.7915
941.10 104.0196
941.20 104.2689
941.30 103.3926
941.40 102.2273
941.50 100.9615
941.60 98.8613
941.70 96.74641
941.80 95.61033
941.90 96.17487
942.00 96.74289
942.10 97.40384
942.20 98.20901
942.30 99.01321
942.40 100.4859
942.50 101.9062
942.60 102.9434
942.70 102.6844
942.80 102.4252
942.90 101.7109
943.00 100.9336
943.10 100.1366
943.20 101.6844
943.30 103.7096
943.40 105.7295
943.50 107.0802
943.60 108.378
943.70 108.3275
943.80 106.0016
943.90 103.6764
944.00 102.6789
944.10 102.2924
944.20 101.8961
944.30 100.6665
944.40 99.48908
944.50 98.498
944.60 98.28129
944.70 98.06513
944.80 98.91012
944.90 100.7443
945.00 102.5763
945.10 102.1299
945.20 101.1779
945.30 100.4145
945.40 101.0126
945.50 101.568
945.60 101.8726
945.70 101.8976
945.80 101.927
945.90 102.0327
946.00 102.0732
946.10 102.0926
946.20 103.4008
946.30 104.9306
946.40 106.2108
946.50 106.3352
946.60 106.4568
946.70 106.9851
946.80 107.8577
946.90 108.725
947.00 108.0219
947.10 106.935
947.20 106.0226
947.30 107.0039
947.40 107.9744
947.50 108.7148
947.60 109.1889
947.70 109.6634
947.80 111.5332
947.90 114.1173
948.00 116.6944
948.10 115.8558
948.20 114.7991
948.30 113.8877
948.40 113.5417
948.50 113.196
948.60 114.2346
948.70 116.5463
948.80 118.8659
948.90 119.2579
949.00 119.1839
949.10 119.121
949.20 119.4206
949.30 119.7114
949.40 119.0371
949.50 116.2062
949.60 113.3757
949.70 113.7437
949.80 116.1612
949.90 118.541
950.00 117.7751
950.10 116.7308
950.20 115.9426
950.30 116.2361
950.40 116.5279
950.50 116.3898
950.60 115.5526
950.70 114.7042
950.80 114.9014
950.90 115.4997
951.00 116.1192
951.10 117.1683
951.20 118.2076
951.30 118.1199
951.40 115.687
951.50 113.2546
951.60 112.1375
951.70 111.8155
951.80 111.4946
951.90 111.8978
952.00 112.3808
952.10 112.9287
952.20 114.1559
952.30 115.3837
952.40 116.5457
952.50 117.7944
952.60 119.0454
952.70 119.7121
952.80 120.1188
952.90 120.5767
953.00 121.0747
953.10 121.5299
953.20 121.545
953.30 120.6921
953.40 119.8393
953.50 118.9456
953.60 117.9319
953.70 116.9193
953.80 116.0542
953.90 115.3205
954.00 114.9806
954.10 116.0435
954.20 117.1081
954.30 118.0166
954.40 118.7939
954.50 119.5845
954.60 120.2428
954.70 120.9019
954.80 121.4778
954.90 120.9968
955.00 120.4989
955.10 120.4125
955.20 121.1607
955.30 121.9133
955.40 122.1022
955.50 121.9798
955.60 121.8519
955.70 121.6054
955.80 121.3978
955.90 121.406
956.00 122.0864
956.10 122.7662
956.20 123.5313
956.30 124.122
956.40 124.725
956.50 123.0478
956.60 120.7652
956.70 118.6501
956.80 119.986
956.90 121.3803
957.00 122.7922
957.10 124.0857
957.20 125.3751
957.30 125.4392
957.40 124.6707
957.50 123.9258
957.60 121.5492
957.70 119.0252
957.80 117.1437
957.90 117.8254
958.00 118.508
958.10 118.6532
958.20 118.4573
958.30 118.2739
958.40 117.6713
958.50 116.9157
958.60 116.1155
958.70 114.3105
958.80 112.4699
958.90 111.013
959.00 110.0279
959.10 109.0355
959.20 108.6046
959.30 108.7458
959.40 108.8629
959.50 108.9507
959.60 109.0192
959.70 108.747
959.80 106.3926
959.90 104.0362
960.00 103.0982
960.10 103.6889
960.20 104.2268
960.30 107.0528
960.40 110.6681
960.50 114.0388
960.60 114.9174
960.70 115.7705
960.80 116.6331
960.90 117.2623
961.00 117.9026
961.10 117.8831
961.20 117.4588
961.30 117.0429
961.40 114.4169
961.50 111.6367
961.60 109.8958
961.70 111.7694
961.80 113.6372
961.90 115.3466
962.00 117.1475
962.10 118.963
962.20 119.1882
962.30 118.932
962.40 118.8653
962.50 120.0667
962.60 121.2678
962.70 122.353
962.80 123.3685
962.90 124.3905
963.00 122.0895
963.10 118.1503
963.20 114.225
963.30 114.1872
963.40 114.252
963.50 113.7205
963.60 111.2796
963.70 108.8537
963.80 105.4942
963.90 101.0495
964.00 96.53297
964.10 97.98517
964.20 101.0032
964.30 103.9364
964.40 108.1083
964.50 112.2782
964.60 114.5199
964.70 113.3548
964.80 112.2037
964.90 112.017
965.00 112.2441
965.10 112.4299
965.20 111.383
965.30 110.3142
965.40 109.751
965.50 110.5818
965.60 111.4166
965.70 112.7527
965.80 114.531
965.90 116.3073
966.00 117.7713
966.10 119.1689
966.20 120.4639
966.30 121.0009
966.40 121.5379
966.50 122.0786
966.60 122.4937
966.70 122.922
966.80 122.4881
966.90 121.7202
967.00 120.915
967.10 120.0464
967.20 119.1779
967.30 118.3408
967.40 117.33
967.50 116.3361
967.60 115.1449
967.70 113.6624
967.80 112.0906
967.90 113.9023
968.00 116.3714
968.10 118.4496
968.20 119.3427
968.30 120.2394
968.40 120.2507
968.50 118.7438
968.60 117.25
968.70 116.2161
968.80 115.3018
968.90 114.4501
969.00 114.9777
969.10 115.5467
969.20 116.5153
969.30 118.7741
969.40 121.025
969.50 122.2192
969.60 122.7374
969.70 123.2998
969.80 124.9498
969.90 126.6672
970.00 127.7082
970.10 125.9569
970.20 124.2089
970.30 123.2041
970.40 122.8593
970.50 122.5695
970.60 120.0516
970.70 116.8014
970.80 113.8081
970.90 116.9739
971.00 120.1794
971.10 123.3565
971.20 127.0011
971.30 130.6684
971.40 131.7172
971.50 131.2229
971.60 130.7687
971.70 132.2314
971.80 133.7834
971.90 134.8845
972.00 134.1151
972.10 133.3449
972.20 131.9878
972.30 130.0952
972.40 128.1742
972.50 127.1493
972.60 126.3628
972.70 125.4112
972.80 122.1253
972.90 118.8358
973.00 115.9024
973.10 113.3845
973.20 110.7949
973.30 112.5584
973.40 116.5373
973.50 120.5201
973.60 120.2237
973.70 119.7951
973.80 119.7167
973.90 120.3375
974.00 120.9574
974.10 120.2617
974.20 118.4735
974.30 116.7311
974.40 115.2268
974.50 113.7229
974.60 112.4803
974.70 113.5761
974.80 114.6655
974.90 116.1881
975.00 118.4737
975.10 120.7865
975.20 122.6039
975.30 124.2045
975.40 125.7352
975.50 123.6303
975.60 121.5223
975.70 120.6253
975.80 122.3175
975.90 123.9959
976.00 124.7916
976.10 125.009
976.20 125.2668
976.30 125.8322
976.40 126.4239
976.50 126.8504
976.60 126.9589
976.70 127.0729
976.80 126.6735
976.90 125.6011
977.00 124.5745
977.10 124.0486
977.20 123.5998
977.30 123.1512
977.40 124.8447
977.50 126.5443
977.60 127.9322
977.70 128.9827
977.80 130.0556
977.90 130.3184
978.00 130.048
978.10 129.8423
978.20 126.3262
978.30 122.5558
978.40 119.5541
978.50 118.7933
978.60 117.9989
978.70 117.8923
978.80 118.6665
978.90 119.4136
979.00 121.2469
979.10 123.348
979.20 125.4691
979.30 128.6411
979.40 131.8163
979.50 134.6096
979.60 136.6535
979.70 138.7426
979.80 138.547
979.90 137.2697
980.00 135.9617
980.10 136.067
980.20 136.1909
980.30 136.1038
980.40 135.4201
980.50 134.7382
980.60 133.8463
980.70 132.7774
980.80 131.7084
980.90 131.7308
981.00 131.9436
981.10 132.2077
981.20 132.9625
981.30 133.7223
981.40 133.5158
981.50 132
981.60 130.5006
981.70 130.0992
981.80 130.0985
981.90 129.9843
982.00 129.3681
982.10 128.7518
982.20 128.2204
982.30 127.7227
982.40 127.2203
982.50 127.9956
982.60 129.5742
982.70 131.1398
982.80 131.0608
982.90 130.8343
983.00 130.8405
983.10 131.5045
983.20 132.1641
983.30 131.94
983.40 130.8584
983.50 129.7833
983.60 128.9835
983.70 128.2425
983.80 127.5977
983.90 128.0379
984.00 128.4746
984.10 129.058
984.20 129.9755
984.30 130.9034
984.40 131.9626
984.50 133.0623
984.60 134.1617
984.70 133.8264
984.80 133.4562
984.90 132.8495
985.00 131.5419
985.10 130.2486
985.20 129.0741
985.30 127.9549
985.40 126.8023
985.50 128.1598
985.60 129.9782
985.70 131.8596
985.80 134.2382
985.90 136.6227
986.00 137.523
986.10 136.4655
986.20 135.4051
986.30 135.2487
986.40 135.4159
986.50 135.5313
986.60 134.8736
986.70 134.2169
986.80 133.172
986.90 131.1302
987.00 129.0846
987.10 129.5759
987.20 131.6416
987.30 133.632
987.40 136.7354
987.50 139.9535
987.60 142.2083
987.70 140.6163
987.80 139.0416
987.90 137.1619
988.00 134.9102
988.10 132.646
988.20 133.4316
988.30 134.9875
988.40 136.5706
988.50 139.095
988.60 141.6223
988.70 142.7554
988.80 141.6639
988.90 140.5914
989.00 139.4909
989.10 138.3625
989.20 137.2422
989.30 135.0596
989.40 132.8532
989.50 129.4587
989.60 122.6922
989.70 115.9652
989.80 109.9593
989.90 104.4281
990.00 98.79389
990.10 97.1292
990.20 96.11324
990.30 94.5774
990.40 90.30571
990.50 86.04511
990.60 82.18977
990.70 78.76651
990.80 75.30534
990.90 74.60875
991.00 74.83766
991.10 75.01637
991.20 75.89106
991.30 76.77156
991.40 76.78902
991.50 74.99319
991.60 73.19658
991.70 72.52857
991.80 72.51443
991.90 72.40091
992.00 75.57536
992.10 78.97864
992.20 81.43614
992.30 80.39014
992.40 79.37465
992.50 77.73932
992.60 75.46632
992.70 73.1019
992.80 76.44291
992.90 81.09168
993.00 85.54567
993.10 88.8045
993.20 92.08039
993.30 93.25667
993.40 91.32241
993.50 89.40471
993.60 90.2908
993.70 92.35967
993.80 94.34825
993.90 98.36312
994.00 102.381
994.10 105.1675
994.20 104.9624
994.30 104.8023
994.40 104.1152
994.50 103.0272
994.60 101.9244
994.70 103.2578
994.80 104.8814
994.90 106.7305
995.00 109.8736
995.10 113.02
995.20 115.1965
995.30 116.3171
995.40 117.4448
995.50 116.6393
995.60 115.2999
995.70 113.9681
995.80 111.6349
995.90 109.2927
996.00 107.6539
996.10 107.2562
996.20 106.8219
996.30 109.0344
996.40 112.5352
996.50 115.9747
996.60 119.3385
996.70 122.6836
996.80 123.2334
996.90 115.7279
997.00 108.2819
997.10 101.2452
997.20 94.46362
997.30 87.59666
997.40 87.7285
997.50 89.01668
997.60 90.66969
997.70 94.97539
997.80 99.2784
997.90 102.5841
998.00 104.7033
998.10 106.8328
998.20 107.0226
998.30 106.5598
998.40 106.0883
998.50 103.1672
998.60 100.2404
998.70 98.30295
998.80 98.25138
998.90 98.16587
999.00 98.1448
999.10 98.20024
999.20 98.27823
999.30 98.47216
999.40 98.67135
999.50 98.56631
999.60 97.57506
999.70 96.60973
999.80 97.57913
999.90 100.2445
1000.00 102.8332
1000.10 107.0624
1000.20 111.5602
1000.30 115.6975
1000.40 117.1697
1000.50 118.6595
1000.60 118.676
1000.70 116.5666
1000.80 114.5098
1000.90 111.0069
1001.00 106.9977
1001.10 103.0464
1001.20 103.3926
1001.30 103.725
1001.40 104.6568
1001.50 106.9235
1001.60 109.1773
1001.70 112.3472
1001.80 116.1174
1001.90 119.9692
1002.00 118.3169
1002.10 116.1874
1002.20 114.6628
1002.30 115.2691
1002.40 115.8386
1002.50 116.5032
1002.60 117.2001
1002.70 117.9255
1002.80 117.6032
1002.90 117.1319
1003.00 116.7178
1003.10 115.8795
1003.20 115.036
1003.30 113.7928
1003.40 112.0741
1003.50 110.3697
1003.60 107.6424
1003.70 104.4987
1003.80 101.4293
1003.90 104.1748
1004.00 106.9093
1004.10 110.4529
1004.20 115.9139
1004.30 121.3748
1004.40 123.8006
1004.50 124.2871
1004.60 124.8655
1004.70 123.1738
1004.80 121.3106
1004.90 118.7024
1005.00 113.3262
1005.10 107.9716
1005.20 102.3456
1005.30 96.45501
1005.40 90.52698
1005.50 88.79674
1005.60 88.00069
1005.70 87.65906
1005.80 91.09695
1005.90 94.5228
1006.00 97.92137
1006.10 101.3377
1006.20 104.7925
1006.30 104.1057
1006.40 101.7926
1006.50 99.55505
1006.60 103.1718
1006.70 106.7811
1006.80 110.7807
1006.90 115.6512
1007.00 120.5547
1007.10 121.4067
1007.20 119.7957
1007.30 118.2537
1007.40 118.107
1007.50 118.0893
1007.60 118.6712
1007.70 121.627
1007.80 124.5839
1007.90 126.1826
1008.00 126.5547
1008.10 126.962
1008.20 126.755
1008.30 126.4015
1008.40 126.3501
1008.50 128.7214
1008.60 131.0885
1008.70 131.3412
1008.80 128.6225
1008.90 125.9671
1009.00 123.1475
1009.10 120.3287
1009.20 117.5504
1009.30 117.2475
1009.40 116.9345
1009.50 117.9278
1009.60 121.8512
1009.70 125.7676
1009.80 130.0813
1009.90 134.6112
1010.00 139.1356
1010.10 142.4301
1010.20 145.5939
1010.30 147.5047
1010.40 144.9598
1010.50 142.4516
1010.60 140.3085
1010.70 138.5217
1010.80 136.745
1010.90 133.1831
1011.00 129.1781
1011.10 125.2935
1011.20 122.564
1011.30 119.8228
1011.40 117.6022
1011.50 116.0532
1011.60 114.4964
1011.70 112.8362
1011.80 111.1582
1011.90 109.5639
1012.00 114.1422
1012.10 118.7056
1012.20 123.8613
1012.30 130.4096
1012.40 136.9954
1012.50 139.7412
1012.60 140.0695
1012.70 140.4888
1012.80 140.1995
1012.90 139.9513
1013.00 139.6789
1013.10 139.3357
1013.20 139.0087
1013.30 136.2712
1013.40 131.2097
1013.50 126.2296
1013.60 120.2793
1013.70 114.2261
1013.80 108.8477
1013.90 108.4308
1014.00 107.9816
1014.10 109.3591
1014.20 113.3757
1014.30 117.3674
1014.40 120.269
1014.50 122.7384
1014.60 125.1862
1014.70 122.2734
1014.80 119.3598
1014.90 118.4023
1015.00 121.6553
1015.10 124.8168
1015.20 127.7312
1015.30 130.4119
1015.40 133.209
1015.50 130.2091
1015.60 126.7565
1015.70 123.4124
1015.80 120.1058
1015.90 116.7626
1016.00 115.9288
1016.10 117.4415
1016.20 118.8892
1016.30 120.7216
1016.40 122.6191
1016.50 124.5593
1016.60 126.5104
1016.70 128.4504
1016.80 129.651
1016.90 129.7948
1017.00 130.0047
1017.10 128.1867
1017.20 125.6551
1017.30 123.2474
1017.40 128.4403
1017.50 133.6233
1017.60 137.7443
1017.70 139.5854
1017.80 141.5236
1017.90 139.0614
1018.00 134.0042
1018.10 128.9729
1018.20 125.3659
1018.30 121.8348
1018.40 118.7279
1018.50 117.5463
1018.60 116.3605
1018.70 116.2184
1018.80 117.0289
1018.90 117.7503
1019.00 121.2003
1019.10 125.2166
1019.20 128.791
1019.30 128.7225
1019.40 128.6775
1019.50 128.7078
1019.60 128.8872
1019.70 129.0456
1019.80 129.6615
1019.90 130.435
1020.00 131.1998
1020.10 130.6752
1020.20 130.142
1020.30 129.7772
1020.40 129.7444
1020.50 129.7004
1020.60 130.8701
1020.70 132.825
1020.80 134.7953
1020.90 133.6446
1021.00 132.1943
1021.10 130.739
1021.20 129.4034
1021.30 128.1015
1021.40 125.9565
1021.50 122.9806
1021.60 119.973
1021.70 117.1441
1021.80 114.3221
1021.90 111.6631
1022.00 110.2502
1022.10 108.8229
1022.20 109.5909
1022.30 113.3247
1022.40 116.969
1022.50 120.7217
1022.60 124.3569
1022.70 127.896
1022.80 127.417
1022.90 126.9451
1023.00 125.5946
1023.10 122.4605
1023.20 119.3478
1023.30 119.1519
1023.40 120.8156
1023.50 122.4746
1023.60 125.4698
1023.70 128.513
1023.80 131.306
1023.90 133.677
1024.00 136.0706
1024.10 138.6166
1024.20 141.1661
1024.30 143.6909
1024.40 142.131
1024.50 139.7359
1024.60 137.2774
1024.70 134.1492
1024.80 130.997
1024.90 128.6719
1025.00 127.4188
1025.10 126.1937
1025.20 123.1278
1025.30 119.4287
1025.40 115.9336
1025.50 118.5468
1025.60 121.1383
1025.70 122.3587
1025.80 120.6734
1025.90 119.0909
1026.00 115.121
1026.10 110.0144
1026.20 104.9945
1026.30 103.926
1026.40 103.1836
1026.50 103.7974
1026.60 109.2077
1026.70 114.5651
1026.80 119.9139
1026.90 124.9894
1027.00 130.1511
1027.10 130.2386
1027.20 129.3909
1027.30 128.3061
1027.40 126.0079
1027.50 123.7155
1027.60 121.662
1027.70 120.0102
1027.80 118.3096
1027.90 116.9191
1028.00 115.5225
1028.10 113.9963
1028.20 111.3124
1028.30 108.6319
1028.40 107.4707
1028.50 108.5166
1028.60 109.4525
1028.70 114.7801
1028.80 121.7384
1028.90 128.5448
1029.00 129.2974
1029.10 130.0885
1029.20 129.5783
1029.30 126.0985
1029.40 122.6056
1029.50 121.7308
1029.60 122.3138
1029.70 122.8205
1029.80 123.4292
1029.90 124.0823
1030.00 124.0071
1030.10 120.9296
1030.20 117.8469
1030.30 117.1846
1030.40 118.7661
1030.50 120.261
1030.60 125.5201
1030.70 131.4871
1030.80 136.3205
1030.90 133.1254
1031.00 129.9516
1031.10 128.5267
1031.20 129.5496
1031.30 130.5025
1031.40 131.9013
1031.50 133.3029
1031.60 134.5051
1031.70 129.8564
1031.80 125.219
1031.90 121.6783
1032.00 120.4148
1032.10 119.0946
1032.20 118.6747
1032.30 118.6811
1032.40 118.6776
1032.50 117.3312
1032.60 115.8987
1032.70 116.3749
1032.80 123.0086
1032.90 129.6054
1033.00 135.7287
1033.10 141.3765
1033.20 147.0833
1033.30 146.8463
1033.40 145.4015
1033.50 143.2285
1033.60 136.8939
1033.70 130.5838
1033.80 125.5015
1033.90 121.985
1034.00 118.3751
1034.10 119.5307
1034.20 122.3416
1034.30 125.0296
1034.40 124.4768
1034.50 123.9237
1034.60 124.4077
1034.70 126.9985
1034.80 129.4955
1034.90 130.0152
1035.00 129.062
1035.10 127.9798
1035.20 126.866
1035.30 125.8486
1035.40 125.5196
1035.50 126.2608
1035.60 126.9982
1035.70 128.4485
1035.80 130.3797
1035.90 132.336
1036.00 135.2354
1036.10 138.1941
1036.20 140.7864
1036.30 142.4325
1036.40 144.114
1036.50 144.3022
1036.60 143.1486
1036.70 141.9881
1036.80 143.3031
1036.90 145.171
1037.00 147.3132
1037.10 151.1239
1037.20 154.9329
1037.30 157.46
1037.40 158.2411
1037.50 159.0798
1037.60 154.6815
1037.70 148.4025
1037.80 142.0783
1037.90 135.046
1038.00 128.0074
1038.10 122.8805
1038.20 121.7614
1038.30 120.5353
1038.40 123.9447
1038.50 129.8821
1038.60 135.7589
1038.70 138.5057
1038.80 140.9231
1038.90 142.1633
1039.00 139.6578
1039.10 137.1664
1039.20 135.3363
1039.30 134.1125
1039.40 132.8904
1039.50 131.5955
1039.60 130.2921
1039.70 129.3436
1039.80 130.5523
1039.90 131.724
1040.00 134.0245
1040.10 137.8438
1040.20 141.6208
1040.30 143.5562
1040.40 144.5734
1040.50 145.4675
1040.60 146.2679
1040.70 147.0771
1040.80 147.7493
1040.90 148.0406
1041.00 148.3648
1041.10 144.8118
1041.20 139.919
1041.30 135.103
1041.40 132.8213
1041.50 130.5154
1041.60 131.2581
1041.70 138.0741
1041.80 144.8145
1041.90 149.3499
1042.00 152.3077
1042.10 155.1577
1042.20 150.9898
1042.30 146.2848
1042.40 141.5899
1042.50 136.6037
1042.60 131.6326
1042.70 126.6251
1042.80 121.6951
1042.90 116.6927
1043.00 119.3856
1043.10 123.605
1043.20 128.5076
1043.30 137.6428
1043.40 146.8033
1043.50 152.1494
1043.60 152.3699
1043.70 152.6929
1043.80 152.1164
1043.90 151.4711
1044.00 150.8955
1044.10 151.5497
1044.20 152.204
1044.30 152.1927
1044.40 150.8386
1044.50 149.5025
1044.60 148.998
1044.70 149.0471
1044.80 149.1068
1044.90 151.0222
1045.00 153.1072
1045.10 156.3769
1045.20 162.8053
1045.30 169.2504
1045.40 173.3175
1045.50 175.3141
1045.60 177.246
1045.70 175.0452
1045.80 172.0469
1045.90 167.7732
1046.00 159.2837
1046.10 150.7949
1046.20 144.9383
1046.30 141.6432
1046.40 138.3016
1046.50 137.0459
1046.60 136.077
1046.70 134.8989
1046.80 131.8013
1046.90 128.7015
1047.00 126.5599
1047.10 125.8931
1047.20 125.1689
1047.30 125.9866
1047.40 127.2058
1047.50 128.3863
1047.60 129.5994
1047.70 130.8174
1047.80 131.0676
1047.90 129.4095
1048.00 127.7655
1048.10 128.4817
1048.20 130.6811
1048.30 132.9886
1048.40 135.5177
1048.50 137.9964
1048.60 139.7217
1048.70 139.5724
1048.80 139.4448
1048.90 139.4797
1049.00 139.7876
1049.10 140.1298
1049.20 141.0596
1049.30 142.0546
1049.40 142.8266
1049.50 142.5373
1049.60 142.306
1049.70 140.4843
1049.80 136.9791
1049.90 133.3609
1050.00 133.4145
1050.10 134.3922
1050.20 135.4055
1050.30 137.2827
1050.40 139.2026
1050.50 139.5535
1050.60 137.8003
1050.70 136.0583
1050.80 134.8267
1050.90 133.8169
1051.00 132.7513
1051.10 130.8375
1051.20 128.9565
1051.30 126.6002
1051.40 123.3404
1051.50 120.0364
1051.60 119.9441
1051.70 121.6248
1051.80 123.2007
1051.90 123.7218
1052.00 124.1512
1052.10 124.7876
1052.20 126.1397
1052.30 127.4757
1052.40 129.5018
1052.50 131.8961
1052.60 134.2551
1052.70 137.0354
1052.80 139.8458
1052.90 141.8527
1053.00 139.7142
1053.10 137.6228
1053.20 135.8725
1053.30 134.7766
1053.40 133.6175
1053.50 134.3703
1053.60 135.5289
1053.70 136.5538
1053.80 136.2878
1053.90 136.0462
1054.00 135.5396
1054.10 134.7954
1054.20 133.9857
1054.30 134.2499
1054.40 134.702
1054.50 134.9365
1054.60 131.3321
1054.70 127.7468
1054.80 125.4289
1054.90 125.7557
1055.00 126.0045
1055.10 128.952
1055.20 133.2009
1055.30 137.2411
1055.40 135.9594
1055.50 134.1941
1055.60 131.7464
1055.70 127.6153
1055.80 123.4972
1055.90 121.2358
1056.00 120.6283
1056.10 120.0177
1056.20 119.0679
1056.30 117.9694
1056.40 117.1362
1056.50 117.9111
1056.60 118.6711
1056.70 119.8571
1056.80 121.5218
1056.90 123.2285
1057.00 123.1227
1057.10 122.4335
1057.20 121.8958
1057.30 124.1112
1057.40 126.3145
1057.50 128.3069
1057.60 130.0001
1057.70 131.7224
1057.80 131.4262
1057.90 130.3983
1058.00 129.4286
1058.10 130.4061
1058.20 131.3822
1058.30 131.6026
1058.40 130.2307
1058.50 128.9242
1058.60 127.2101
1058.70 125.4533
1058.80 123.7147
1058.90 122.3529
1059.00 120.9862
1059.10 119.9452
1059.20 120.0239
1059.30 120.1039
1059.40 121.0235
1059.50 122.53
1059.60 123.9997
1059.70 125.9165
1059.80 127.9651
1059.90 129.5548
1060.00 128.6264
1060.10 127.6983
1060.20 126.7901
1060.30 125.6945
1060.40 124.5971
1060.50 122.2904
1060.60 119.5905
1060.70 116.8984
1060.80 116.9161
1060.90 116.92
1061.00 117.7248
1061.10 119.4413
1061.20 121.0981
1061.30 124.2187
1061.40 127.8284
1061.50 131.36
1061.60 131.2227
1061.70 131.1082
1061.80 130.354
1061.90 128.6559
1062.00 126.9529
1062.10 125.809
1062.20 125.1466
1062.30 124.6393
1062.40 126.1767
1062.50 127.8488
1062.60 130.0065
1062.70 133.6887
1062.80 137.3658
1062.90 139.7596
1063.00 140.9862
1063.10 142.1892
1063.20 140.9904
1063.30 139.4383
1063.40 138.0382
1063.50 136.9174
1063.60 135.7621
1063.70 136.2154
1063.80 138.7822
1063.90 141.315
1064.00 143.0404
1064.10 144.3723
1064.20 145.5244
1064.30 145.7223
1064.40 145.9327
1064.50 145.4135
1064.60 143.8215
1064.70 142.2266
1064.80 142.5486
1064.90 143.5959
1065.00 144.6061
1065.10 143.4119
1065.20 142.2366
1065.30 140.4312
1065.40 137.9276
1065.50 135.4446
1065.60 132.9917
1065.70 130.4165
1065.80 127.8838
1065.90 128.2226
1066.00 128.8309
1066.10 128.8908
1066.20 127.2344
1066.30 125.6281
1066.40 124.0382
1066.50 122.6116
1066.60 121.1721
1066.70 121.8011
1066.80 122.7357
1066.90 123.4893
1067.00 123.9124
1067.10 124.3413
1067.20 125.7159
1067.30 127.8536
1067.40 129.9862
1067.50 132.9809
1067.60 136.0269
1067.70 138.7942
1067.80 140.759
1067.90 142.7347
1068.00 143.7649
1068.10 143.5142
1068.20 143.268
1068.30 145.2474
1068.40 147.7883
1068.50 150.1285
1068.60 151.0976
1068.70 152.0774
1068.80 151.9251
1068.90 149.9406
1069.00 147.9697
1069.10 147.6238
1069.20 148.2537
1069.30 148.8172
1069.40 146.5966
1069.50 144.1077
1069.60 141.2621
1069.70 137.8729
1069.80 134.4503
1069.90 134.3221
1070.00 136.6802
1070.10 138.9323
1070.20 138.4441
1070.30 137.6983
1070.40 137.4839
1070.50 138.6433
1070.60 139.7604
1070.70 141.0136
1070.80 142.0488
1070.90 142.9913
1071.00 142.2315
1071.10 141.332
1071.20 140.8378
1071.30 142.5384
1071.40 144.1993
1071.50 146.2709
1071.60 148.5515
1071.70 150.9095
1071.80 151.1295
1071.90 150.7928
1072.00 150.5268
1072.10 150.3419
1072.20 150.1617
1072.30 148.7858
1072.40 145.2735
1072.50 141.8118
1072.60 141.1707
1072.70 142.2388
1072.80 143.5226
1072.90 146.2766
1073.00 149.1016
1073.10 150.4107
1073.20 148.8111
1073.30 147.2663
1073.40 145.204
1073.50 143.3133
1073.60 141.5902
1073.70 141.7579
1073.80 142.034
1073.90 143.1754
1074.00 147.3241
1074.10 151.4751
1074.20 153.7539
1074.30 154.2189
1074.40 154.6866
1074.50 155.3417
1074.60 156.1746
1074.70 156.9491
1074.80 156.3177
1074.90 155.6837
1075.00 154.0757
1075.10 151.4952
1075.20 148.9653
1075.30 145.9047
1075.40 142.7133
1075.50 139.822
1075.60 142.9676
1075.70 146.0657
1075.80 149.1998
1075.90 151.8674
1076.00 154.571
1076.10 154.7457
1076.20 154.2498
1076.30 153.746
1076.40 153.6927
1076.50 153.6327
1076.60 153.7783
1076.70 154.344
1076.80 154.9119
1076.90 155.7161
1077.00 156.4771
1077.10 157.1476
1077.20 156.1025
1077.30 154.9174
1077.40 153.5854
1077.50 151.9289
1077.60 150.3021
1077.70 149.6554
1077.80 149.8752
1077.90 150.0574
1078.00 151.6374
1078.10 153.4181
1078.20 154.8677
1078.30 155.1116
1078.40 155.3728
1078.50 154.8387
1078.60 153.3918
1078.70 151.8805
1078.80 149.3762
1078.90 146.8193
1079.00 144.5349
1079.10 143.4119
1079.20 142.2759
1079.30 140.8195
1079.40 138.9074
1079.50 136.9525
1079.60 138.0349
1079.70 140.1194
1079.80 142.2244
1079.90 144.5818
1080.00 146.9417
1080.10 149.0579
1080.20 150.8127
1080.30 152.5819
1080.40 153.6944
1080.50 154.4032
1080.60 155.1199
1080.70 155.3544
1080.80 155.535
1080.90 156.0255
1081.00 157.3701
1081.10 158.7226
1081.20 158.6844
1081.30 157.7829
1081.40 156.8981
1081.50 157.4929
1081.60 158.2378
1081.70 159.4576
1081.80 161.9222
1081.90 164.4093
1082.00 164.23
1082.10 161.8898
1082.20 159.5752
1082.30 157.6147
1082.40 155.7892
1082.50 154.0547
1082.60 152.9145
1082.70 151.7578
1082.80 151.2979
1082.90 151.5442
1083.00 151.801
1083.10 155.0407
1083.20 159.438
1083.30 163.8753
1083.40 165.65
1083.50 167.4421
1083.60 167.8104
1083.70 166.5754
1083.80 165.3438
1083.90 164.7879
1084.00 164.4669
1084.10 164.1321
1084.20 163.1487
1084.30 162.1697
1084.40 160.6981
1084.50 158.1132
1084.60 155.5657
1084.70 153.6925
1084.80 152.5158
1084.90 151.4836
1085.00 154.7281
1085.10 158.3348
1085.20 160.1719
1085.30 155.6394
1085.40 151.173
1085.50 150.1269
1085.60 152.7543
1085.70 155.4727
1085.80 159.1159
1085.90 162.8129
1086.00 166.308
1086.10 168.8628
1086.20 171.4248
1086.30 172.5612
1086.40 172.5883
1086.50 172.6083
1086.60 171.727
1086.70 170.7715
1086.80 170.0942
1086.90 170.29
1087.00 170.4409
1087.10 171.0535
1087.20 172.123
1087.30 173.2475
1087.40 170.9726
1087.50 167.6525
1087.60 164.46
1087.70 164.5086
1087.80 164.5037
1087.90 164.8192
1088.00 165.0461
1088.10 165.3211
1088.20 164.091
1088.30 162.416
1088.40 160.9001
1088.50 162.3571
1088.60 163.7927
1088.70 164.8155
1088.80 164.9879
1088.90 165.2208
1089.00 164.9675
1089.10 164.5148
1089.20 164.0764
1089.30 162.4876
1089.40 160.7532
1089.50 159.6554
1089.60 161.251
1089.70 162.8112
1089.80 165.5765
1089.90 169.0449
1090.00 172.4078
1090.10 173.8451
1090.20 174.9021
1090.30 175.8228
1090.40 176.6063
1090.50 177.4044
1090.60 176.1654
1090.70 173.0874
1090.80 169.9786
1090.90 166.5278
1091.00 163.1061
1091.10 160.2116
1091.20 160.2096
1091.30 160.1567
1091.40 161.7152
1091.50 165.1883
1091.60 168.6212
1091.70 172.0837
1091.80 175.4462
1091.90 178.6721
1092.00 177.6066
1092.10 176.561
1092.20 175.3606
1092.30 174.0063
1092.40 172.6151
1092.50 171.6946
1092.60 170.9966
1092.70 170.3709
1092.80 170.0903
1092.90 169.8355
1093.00 169.7219
1093.10 170.1804
1093.20 170.6421
1093.30 170.0206
1093.40 168.6928
1093.50 167.3783
1093.60 164.4541
1093.70 161.3474
1093.80 159.7368
1093.90 163.9705
1094.00 168.1459
1094.10 171.4947
1094.20 173.7398
1094.30 175.9445
1094.40 172.8348
1094.50 168.6787
1094.60 164.7447
1094.70 161.998
1094.80 159.2036
1094.90 159.8605
1095.00 164.3038
1095.10 168.6965
1095.20 173.3359
1095.30 178.042
1095.40 182.1057
1095.50 181.9503
1095.60 181.8334
1095.70 180.9647
1095.80 179.4314
1095.90 177.8969
1096.00 178.4239
1096.10 179.5472
1096.20 180.604
1096.30 180.9335
1096.40 181.2643
1096.50 181.1535
1096.60 180.2823
1096.70 179.4501
1096.80 176.4051
1096.90 172.1601
1097.00 167.8787
1097.10 163.9562
1097.20 160.0721
1097.30 157.8427
1097.40 159.7176
1097.50 161.5431
1097.60 164.083
1097.70 167.0679
1097.80 170.0925
1097.90 171.7149
1098.00 173.1714
1098.10 174.2579
1098.20 174.8697
1098.30 175.5429
1098.40 173.9611
1098.50 170.2455
1098.60 166.5155
1098.70 166.2526
1098.80 166.8153
1098.90 167.4911
1099.00 168.4325
1099.10 169.3658
1099.20 170.8644
1099.30 173.015
1099.40 175.1378
1099.50 175.8296
1099.60 175.8954
1099.70 175.7926
1099.80 174.8481
1099.90 173.8988
1100.00 173.3363
1100.10 173.4636
1100.20 173.604
1100.30 172.3972
1100.40 170.7018
1100.50 169.0944
1100.60 169.0917
1100.70 169.0579
1100.80 169.3409
1100.90 169.9203
1101.00 170.5132
1101.10 171.6841
1101.20 173.3884
1101.30 175.2298
1101.40 176.9321
1101.50 178.5852
1101.60 179.2027
1101.70 177.3783
1101.80 175.6103
1101.90 172.7039
1102.00 169.2696
1102.10 165.8548
1102.20 162.831
1102.30 159.8323
1102.40 158.2371
1102.50 161.4376
1102.60 164.5455
1102.70 168.1282
1102.80 171.5509
1102.90 174.9461
1103.00 173.9783
1103.10 172.1007
1103.20 169.571
1103.30 164.7047
1103.40 159.8819
1103.50 155.9059
1103.60 153.3486
1103.70 150.8441
1103.80 152.4987
1103.90 155.3457
1104.00 158.05
1104.10 158.7583
1104.20 159.4674
1104.30 160.1409
1104.40 161.3394
1104.50 162.5663
1104.60 163.7912
1104.70 164.8492
1104.80 165.924
1104.90 165.0289
1105.00 164.1253
1105.10 161.9542
1105.20 157.9784
1105.30 154.082
1105.40 149.8921
1105.50 145.5423
1105.60 141.4378
1105.70 144.7063
1105.80 148.6832
1105.90 151.9431
1106.00 151.9475
1106.10 151.9912
1106.20 151.6181
1106.30 151.1939
1106.40 150.8388
1106.50 152.7061
1106.60 154.7957
1106.70 155.8351
1106.80 153.4548
1106.90 151.1035
1107.00 149.3926
1107.10 148.5031
1107.20 147.6536
1107.30 149.9127
1107.40 152.7171
1107.50 155.0319
1107.60 153.8314
1107.70 152.6785
1107.80 152.1885
1107.90 152.8416
1108.00 153.4837
1108.10 156.2136
1108.20 159.41
1108.30 162.6205
1108.40 165.1736
1108.50 167.7356
1108.60 168.6759
1108.70 167.5196
1108.80 166.4166
1108.90 165.3386
1109.00 164.4481
1109.10 163.6186
1109.20 164.3099
1109.30 164.9641
1109.40 166.2669
1109.50 168.7551
1109.60 171.2541
1109.70 172.781
1109.80 173.6674
1109.90 174.4013
1110.00 172.9017
1110.10 171.2292
1110.20 168.2898
1110.30 162.8307
1110.40 157.3691
1110.50 154.3828
1110.60 152.9381
1110.70 151.5803
1110.80 152.481
1110.90 153.5505
1111.00 153.9085
1111.10 152.3017
1111.20 150.7113
1111.30 149.5417
1111.40 148.7286
1111.50 147.9011
1111.60 149.1951
1111.70 150.946
1111.80 152.6563
1111.90 153.2243
1112.00 153.8216
1112.10 153.7782
1112.20 153.3516
1112.30 152.9401
1112.40 154.6003
1112.50 156.7028
1112.60 158.9256
1112.70 161.2052
1112.80 163.4748
1112.90 165.2122
1113.00 166.2976
1113.10 167.4328
1113.20 168.0426
1113.30 168.6437
1113.40 169.2132
1113.50 168.7654
1113.60 168.3597
1113.70 167.0178
1113.80 163.8892
1113.90 160.68
1114.00 160.5716
1114.10 161.8414
1114.20 163.1276
1114.30 166.5546
1114.40 169.9684
1114.50 173.0367
1114.60 175.4521
1114.70 177.9611
1114.80 177.2488
1114.90 174.9134
1115.00 172.7305
1115.10 172.0127
1115.20 171.3689
1115.30 170.5938
1115.40 168.9875
1115.50 167.4176
1115.60 167.0228
1115.70 168.0146
1115.80 168.9638
1115.90 168.8587
1116.00 168.5801
1116.10 167.9794
1116.20 165.7522
1116.30 163.5146
1116.40 161.9925
1116.50 161.0819
1116.60 160.2131
1116.70 159.5485
1116.80 158.8717
1116.90 157.7519
1117.00 155.1323
1117.10 152.5196
1117.20 150.3999
1117.30 148.9417
1117.40 147.4616
1117.50 147.2169
1117.60 147.1998
1117.70 147.1294
1117.80 150.133
1117.90 153.1159
1118.00 155.8036
1118.10 157.5139
1118.20 159.2496
1118.30 161.2898
1118.40 163.3115
1118.50 165.1512
1118.60 167.6845
1118.70 170.2594
1118.80 170.7735
1118.90 167.2562
1119.00 164.1028
1119.10 161.8695
1119.20 160.1904
1119.30 158.499
1119.40 158.13
1119.50 157.9114
1119.60 157.9471
1119.70 159.173
1119.80 160.4005
1119.90 161.0625
1120.00 161.2593
1120.10 161.4548
1120.20 159.058
1120.30 156.8495
1120.40 156.0447
1120.50 160.3591
1120.60 164.5799
1120.70 167.8114
1120.80 170.0784
1120.90 172.1541
1121.00 170.3576
1121.10 167.7534
1121.20 165.2241
1121.30 163.9437
1121.40 162.6649
1121.50 161.6773
1121.60 160.6073
1121.70 159.4058
1121.80 157.7001
1121.90 155.9367
1122.00 154.543
1122.10 155.1459
1122.20 155.9396
1122.30 158.0815
1122.40 161.5461
1122.50 164.9556
1122.60 165.8475
1122.70 165.3631
1122.80 165.3165
1122.90 166.2489
1123.00 166.8536
1123.10 167.4741
1123.20 166.2413
1123.30 164.2068
1123.40 162.1681
1123.50 158.8698
1123.60 156.1735
1123.70 153.4917
1123.80 153.3187
1123.90 157.1877
1124.00 161.0542
1124.10 164.8232
1124.20 167.4532
1124.30 169.9826
1124.40 172.5127
1124.50 172.8818
1124.60 173.0148
1124.70 173.1449
1124.80 171.9418
1124.90 168.8744
1125.00 165.8025
1125.10 162.7358
1125.20 161.2418
1125.30 159.9304
1125.40 158.9107
1125.50 161.062
1125.60 163.2108
1125.70 165.3688
1125.80 166.622
1125.90 167.2078
1126.00 167.7901
1126.10 167.4548
1126.20 166.7762
1126.30 166.0986
1126.40 166.1658
1126.50 167.5268
1126.60 168.9076
1126.70 170.2856
1126.80 171.4198
1126.90 172.4421
1127.00 173.4648
1127.10 172.7032
1127.20 171.5482
1127.30 170.3905
1127.40 168.9377
1127.50 167.1536
1127.60 165.3699
1127.70 163.8055
1127.80 163.0463
1127.90 162.3278
1128.00 161.8265
1128.10 163.2652
1128.20 164.6675
1128.30 166.066
1128.40 166.9781
1128.50 167.8318
1128.60 168.6862
1128.70 168.262
1128.80 166.6245
1128.90 164.9844
1129.00 163.9682
1129.10 164.4465
1129.20 164.9293
1129.30 165.2887
1129.40 164.9082
1129.50 164.7042
1129.60 164.504
1129.70 165.4487
1129.80 166.8634
1129.90 168.2777
1130.00 169.2562
1130.10 168.9741
1130.20 168.6809
1130.30 167.8831
1130.40 165.717
1130.50 163.5352
1130.60 161.3472
1130.70 160.7235
1130.80 160.2443
1130.90 159.7651
1131.00 160.7813
1131.10 162.5199
1131.20 164.2594
1131.30 165.6821
1131.40 166.7389
1131.50 167.7939
1131.60 169.082
1131.70 170.8674
1131.80 172.6412
1131.90 174.4191
1132.00 173.6125
1132.10 172.6797
1132.20 171.7461
1132.30 170.8541
1132.40 170.0568
1132.50 169.2604
1132.60 169.1604
1132.70 169.6673
1132.80 170.1745
1132.90 170.4755
1133.00 170.2187
1133.10 169.9379
1133.20 169.6609
1133.30 168.4171
1133.40 167.128
1133.50 165.8394
1133.60 163.6469
1133.70 160.8858
1133.80 158.1245
1133.90 156.0083
1134.00 154.6082
1134.10 153.2076
1134.20 151.8014
1134.30 151.1856
1134.40 150.7585
1134.50 150.3103
1134.60 148.5735
1134.70 146.8483
1134.80 145.128
1134.90 148.5178
1135.00 154.1444
1135.10 159.7629
1135.20 162.4523
1135.30 161.2848
1135.40 160.1143
1135.50 159.0829
1135.60 158.0782
1135.70 156.9551
1135.80 155.8185
1135.90 153.4686
1136.00 151.9721
1136.10 150.4791
1136.20 152.2762
1136.30 155.1701
1136.40 158.0575
1136.50 159.0107
1136.60 157.3523
1136.70 155.6928
1136.80 153.9963
1136.90 152.1693
1137.00 150.3592
1137.10 148.5405
1137.20 147.9493
1137.30 147.3044
1137.40 146.6572
1137.50 143.8834
1137.60 140.2471
1137.70 136.6019
1137.80 131.957
1137.90 124.9398
1138.00 117.909
1138.10 111.0994
1138.20 105.2999
1138.30 99.57453
1138.40 93.79913
1138.50 99.20309
1138.60 106.1
1138.70 113.0211
1138.80 120.5188
1138.90 128.3883
1139.00 136.2411
1139.10 141.6626
1139.20 142.1962
1139.30 142.7146
1139.40 142.9448
1139.50 141.1331
1139.60 139.1329
1139.70 137.144
1139.80 133.2607
1139.90 129.1147
1140.00 124.9603
1140.10 119.0558
1140.20 111.4325
1140.30 103.7967
1140.40 97.31666
1140.50 92.80103
1140.60 88.31768
1140.70 85.21437
1140.80 90.24642
1140.90 96.26196
1141.00 102.2603
1141.10 111.4571
1141.20 121.1442
1141.30 130.8209
1141.40 136.8678
1141.50 141.191
1141.60 145.5047
1141.70 149.6501
1141.80 152.3023
1141.90 154.947
1142.00 157.3032
1142.10 158.3569
1142.20 159.3611
1142.30 160.3769
1142.40 161.2356
1142.50 161.9575
1142.60 162.6811
1142.70 162.8294
1142.80 162.8703
1142.90 162.9104
1143.00 163.0114
1143.10 162.7634
1143.20 162.5132
1143.30 162.2112
1143.40 161.8462
1143.50 161.5456
1143.60 161.2446
1143.70 161.596
1143.80 161.9347
1143.90 162.2693
1144.00 161.5327
1144.10 160.6745
1144.20 159.8223
1144.30 159.1247
1144.40 158.4503
1144.50 157.776
1144.60 157.5387
1144.70 158.912
1144.80 160.2477
1144.90 161.5751
1145.00 161.4031
1145.10 161.1495
1145.20 160.8952
1145.30 160.8923
1145.40 160.7725
1145.50 160.6522
1145.60 160.3349
1145.70 159.7357
1145.80 159.137
1145.90 159.1622
1146.00 162.0255
1146.10 165.0133
1146.20 168.0052
1146.30 168.6766
1146.40 169.0079
1146.50 169.3394
1146.60 169.5979
1146.70 169.9914
1146.80 170.3804
1146.90 170.989
1147.00 171.174
1147.10 171.3566
1147.20 171.2666
1147.30 170.4806
1147.40 169.8798
1147.50 169.279
1147.60 170.2248
1147.70 171.4104
1147.80 172.5962
1147.90 174.2098
1148.00 175.7909
1148.10 177.3705
1148.20 177.7057
1148.30 175.7827
1148.40 173.8544
1148.50 172.1203
1148.60 171.5792
1148.70 171.2265
1148.80 170.8689
1148.90 173.3548
1149.00 176.2846
1149.10 179.2132
1149.20 180.4809
1149.30 180.2513
1149.40 180.018
1149.50 179.1323
1149.60 177.9178
1149.70 176.7076
1149.80 175.54
1149.90 174.6501
1150.00 173.7954
1150.10 172.9484
1150.20 173.8507
1150.30 174.7264
1150.40 175.6026
1150.50 175.8475
1150.60 176.1431
1150.70 176.4409
1150.80 176.8698
1150.90 177.62
1151.00 178.3683
1151.10 178.9657
1151.20 178.7166
1151.30 178.3871
1151.40 178.0614
1151.50 177.8227
1151.60 177.442
1151.70 177.0617
1151.80 176.1018
1151.90 175.2069
1152.00 174.3125
1152.10 173.0646
1152.20 170.7347
1152.30 168.3994
1152.40 165.9746
1152.50 163.3264
1152.60 160.7805
1152.70 158.2206
1152.80 160.6105
1152.90 163.8003
1153.00 166.99
1153.10 168.6102
1153.20 169.182
1153.30 169.7536
1153.40 169.9155
1153.50 169.5697
1153.60 169.2269
1153.70 169.1803
1153.80 170.6913
1153.90 172.3424
1154.00 173.995
1154.10 175.3894
1154.20 176.709
1154.30 178.0263
1154.40 176.9781
1154.50 174.4306
1154.60 171.8795
1154.70 169.9242
1154.80 168.7709
1154.90 167.6233
1155.00 166.8985
1155.10 168.3904
1155.20 169.9973
1155.30 171.6099
1155.40 172.5424
1155.50 173.3851
1155.60 174.225
1155.70 174.8565
1155.80 175.5425
1155.90 176.2265
1156.00 176.6184
1156.10 175.9422
1156.20 175.2663
1156.30 174.8043
1156.40 175.552
1156.50 176.3943
1156.60 177.2327
1156.70 176.8633
1156.80 176.1829
1156.90 175.5048
1157.00 174.7322
1157.10 173.8024
1157.20 172.8756
1157.30 172.0823
1157.40 171.8767
1157.50 171.6713
1157.60 171.4951
1157.70 171.4781
1157.80 171.4809
1157.90 171.4802
1158.00 172.1734
1158.10 172.9892
1158.20 173.8045
1158.30 173.8144
1158.40 173.2882
1158.50 172.761
1158.60 172.1491
1158.70 171.2945
1158.80 170.4381
1158.90 169.3839
1159.00 167.4657
1159.10 165.5282
1159.20 163.5956
1159.30 161.5146
1159.40 159.2223
1159.50 156.9285
1159.60 156.1033
1159.70 156.3068
1159.80 156.5185
1159.90 157.2134
1160.00 158.9229
1160.10 160.6333
1160.20 162.4249
1160.30 164.573
1160.40 166.7279
1160.50 168.8994
1160.60 167.8398
1160.70 166.3953
1160.80 164.9513
1160.90 164.3871
1161.00 164.0256
1161.10 163.6755
1161.20 164.7148
1161.30 168.3256
1161.40 171.9464
1161.50 175.0937
1161.60 176.2176
1161.70 177.2692
1161.80 178.3714
1161.90 176.317
1162.00 173.8769
1162.10 171.4327
1162.20 170.2659
1162.30 169.8386
1162.40 169.4142
1162.50 169.7779
1162.60 171.3191
1162.70 172.862
1162.80 174.4754
1162.90 176.4396
1163.00 178.4224
1163.10 180.4064
1163.20 180.4403
1163.30 180.2922
1163.40 180.1531
1163.50 177.6604
1163.60 173.718
1163.70 169.7695
1163.80 166.899
1163.90 165.1186
1164.00 163.3448
1164.10 162.0168
1164.20 163.5582
1164.30 165.3205
1164.40 167.0547
1164.50 169.4258
1164.60 171.9005
1164.70 174.385
1164.80 174.0908
1164.90 172.7949
1165.00 171.496
1165.10 170.3834
1165.20 169.12
1165.30 167.8552
1165.40 166.6356
1165.50 165.5061
1165.60 164.3796
1165.70 163.2332
1165.80 164.491
1165.90 166.0676
1166.00 167.6388
1166.10 169.3263
1166.20 171.0443
1166.30 172.7616
1166.40 173.7834
1166.50 173.6507
1166.60 173.5164
1166.70 173.1667
1166.80 172.1522
1166.90 171.1204
1167.00 170.0978
1167.10 169.0853
1167.20 168.0874
1167.30 167.0845
1167.40 165.3103
1167.50 163.3149
1167.60 161.3198
1167.70 160.3525
1167.80 160.4916
1167.90 160.6321
1168.00 160.3539
1168.10 158.9523
1168.20 157.5315
1168.30 155.8689
1168.40 151.497
1168.50 146.9647
1168.60 142.4454
1168.70 135.1466
1168.80 126.6144
1168.90 118.0671
1169.00 110.2046
1169.10 102.2682
1169.20 94.35087
1169.30 89.11554
1169.40 93.69303
1169.50 98.66141
1169.60 103.8366
1169.70 113.1476
1169.80 122.9049
1169.90 132.6865
1170.00 139.3766
1170.10 144.7287
1170.20 150.0732
1170.30 154.5215
1170.40 157.8136
1170.50 161.1009
1170.60 163.8021
1170.70 164.6059
1170.80 165.3613
1170.90 166.1304
1171.00 166.6718
1171.10 167.1165
1171.20 167.5587
1171.30 167.7531
1171.40 167.9878
1171.50 168.2215
1171.60 168.087
1171.70 167.4517
1171.80 166.8141
1171.90 166.0433
1172.00 165.1567
1172.10 164.272
1172.20 163.4738
1172.30 163.7704
1172.40 164.1283
1172.50 164.4825
1172.60 165.3792
1172.70 166.3641
1172.80 167.3509
1172.90 168.2552
1173.00 169.1597
1173.10 170.063
1173.20 170.4748
1173.30 169.6566
1173.40 168.8343
1173.50 168.0287
1173.60 167.2474
1173.70 166.4659
1173.80 165.6677
1173.90 165.1446
1174.00 164.8481
1174.10 164.5512
1174.20 165.1827
1174.30 166.2731
1174.40 167.3642
1174.50 168.1357
1174.60 168.2638
1174.70 168.3882
1174.80 168.289
1174.90 166.9971
1175.00 165.6369
1175.10 164.2885
1175.20 162.293
1175.30 160.2083
1175.40 158.1212
1175.50 157.9809
1175.60 158.875
1175.70 159.7716
1175.80 159.7567
1175.90 157.9736
1176.00 156.1866
1176.10 154.2855
1176.20 151.6401
1176.30 148.9487
1176.40 146.2634
1176.50 142.5759
1176.60 138.7459
1176.70 134.9317
1176.80 127.3005
1176.90 117.0857
1177.00 106.8556
1177.10 97.65278
1177.20 88.98331
1177.30 80.32944
1177.40 73.09476
1177.50 74.2201
1177.60 75.95479
1177.70 77.53807
1177.80 86.21972
1177.90 95.94503
1178.00 105.6731
1178.10 113.831
1178.20 120.9701
1178.30 128.0947
1178.40 134.1629
1178.50 138.3971
1178.60 142.6273
1178.70 146.6294
1178.80 149.1761
1178.90 151.6745
1179.00 154.1932
1179.10 154.9591
1179.20 155.5994
1179.30 156.2446
1179.40 156.4788
1179.50 156.4784
1179.60 156.4772
1179.70 156.8873
1179.80 157.7759
1179.90 158.6662
1180.00 159.5156
1180.10 160.4742
1180.20 161.4597
1180.30 162.4269
1180.40 163.0528
1180.50 163.6403
1180.60 164.2397
1180.70 164.0299
1180.80 163.382
1180.90 162.7334
1181.00 161.9633
1181.10 161.0995
1181.20 160.2359
1181.30 159.3084
1181.40 158.2637
1181.50 157.2225
1181.60 156.2298
1181.70 155.9424
1181.80 155.7421
1181.90 155.5371
1182.00 156.896
1182.10 158.7043
1182.20 160.5155
1182.30 161.2876
1182.40 161.1014
1182.50 160.9101
1182.60 160.5766
1182.70 159.4868
1182.80 158.3943
1182.90 157.4129
1183.00 157.8067
1183.10 158.3376
1183.20 158.8496
1183.30 158.6634
1183.40 158.3843
1183.50 158.1072
1183.60 157.1211
1183.70 155.3124
1183.80 153.5013
1183.90 152.6649
1184.00 153.8922
1184.10 155.1268
1184.20 156.4242
1184.30 158.9833
1184.40 161.6155
1184.50 164.2805
1184.60 162.7524
1184.70 160.3279
1184.80 157.9045
1184.90 155.7191
1185.00 153.63
1185.10 151.5442
1185.20 150.7782
1185.30 152.4811
1185.40 154.1887
1185.50 155.8507
1185.60 157.6182
1185.70 159.4276
1185.80 161.2417
1185.90 161.6819
1186.00 161.8854
1186.10 162.0922
1186.20 162.0335
1186.30 161.9518
1186.40 161.8692
1186.50 161.7089
1186.60 161.1609
1186.70 160.6105
1186.80 159.9466
1186.90 158.5598
1187.00 157.1341
1187.10 155.6918
1187.20 156.3725
1187.30 157.448
1187.40 158.5153
1187.50 158.974
1187.60 159.2413
1187.70 159.5063
1187.80 159.2074
1187.90 157.883
1188.00 156.5508
1188.10 154.8053
1188.20 150.4362
1188.30 145.9706
1188.40 141.53
1188.50 140.291
1188.60 139.2196
1188.70 138.0861
1188.80 140.7294
1188.90 145.938
1189.00 151.1537
1189.10 154.7687
1189.20 156.4887
1189.30 158.1946
1189.40 159.6195
1189.50 159.7943
1189.60 159.9252
1189.70 160.0437
1189.80 160.7448
1189.90 161.3806
1190.00 162.0217
1190.10 161.7248
1190.20 161.0176
1190.30 160.3125
1190.40 159.2806
1190.50 157.8535
1190.60 156.4255
1190.70 155.6607
1190.80 156.7694
1190.90 157.8844
1191.00 158.9302
1191.10 159.8111
1191.20 160.7973
1191.30 161.7858
1191.40 162.2717
1191.50 162.5099
1191.60 162.7483
1191.70 162.7654
1191.80 162.5647
1191.90 162.3646
1192.00 162.162
1192.10 162.1516
1192.20 162.1393
1192.30 162.074
1192.40 161.1735
1192.50 160.2083
1192.60 159.2362
1192.70 159.1292
1192.80 159.2216
1192.90 159.3136
1193.00 160.0256
1193.10 161.2326
1193.20 162.4387
1193.30 162.7674
1193.40 161.5503
1193.50 160.3291
1193.60 159.0244
1193.70 156.228
1193.80 153.3255
1193.90 150.4195
1194.00 149.3436
1194.10 148.6033
1194.20 147.8547
1194.30 147.4974
1194.40 147.5406
1194.50 147.5826
1194.60 146.9974
1194.70 144.9913
1194.80 142.9802
1194.90 141.2971
1195.00 140.8381
1195.10 140.3942
1195.20 139.9007
1195.30 142.7359
1195.40 146.3202
1195.50 149.8962
1195.60 151.1785
1195.70 151.3526
1195.80 151.5205
1195.90 150.8003
1196.00 148.4239
1196.10 146.0463
1196.20 143.9338
1196.30 143.0668
1196.40 142.2238
1196.50 141.3635
1196.60 141.3571
1196.70 141.4197
1196.80 141.4848
1196.90 141.116
1197.00 140.4707
1197.10 139.8279
1197.20 137.6071
1197.30 133.1297
1197.40 128.6505
1197.50 124.8729
1197.60 123.4895
1197.70 122.1311
1197.80 120.6673
1197.90 123.3784
1198.00 126.4421
1198.10 129.5095
1198.20 131.8022
1198.30 133.7658
1198.40 135.7272
1198.50 137.7696
1198.60 140.1007
1198.70 142.4283
1198.80 143.6078
1198.90 140.8505
1199.00 138.0835
1199.10 135.4501
1199.20 133.5126
1199.30 131.5359
1199.40 129.5352
1199.50 129.4208
1199.60 130.0552
1199.70 130.6847
1199.80 131.6438
1199.90 132.9415
1200.00 134.2374
