# Version 2.1 - nm, norm@500 to 1, cut digits
# Wavelength(nm)  Flambda(ergs/cm^s/s/nm)
300.00 0.009177483
300.10 0.01107152
300.20 0.0127581
300.30 0.01414173
300.40 0.0151843
300.50 0.01590383
300.60 0.0163593
300.70 0.01662816
300.80 0.01678508
300.90 0.01688925
301.00 0.01698359
301.10 0.01708616
301.20 0.01719661
301.30 0.01731404
301.40 0.01743714
301.50 0.01756443
301.60 0.01769451
301.70 0.01782624
301.80 0.01795881
301.90 0.0180917
302.00 0.01822467
302.10 0.01835764
302.20 0.01849067
302.30 0.01862395
302.40 0.01875786
302.50 0.01889303
302.60 0.01903031
302.70 0.01917078
302.80 0.01931555
302.90 0.01946562
303.00 0.01962167
303.10 0.01978397
303.20 0.01995226
303.30 0.02012585
303.40 0.02030374
303.50 0.02048481
303.60 0.020668
303.70 0.02085245
303.80 0.02103753
303.90 0.02122285
304.00 0.02140824
304.10 0.02159363
304.20 0.02177884
304.30 0.02196328
304.40 0.02214579
304.50 0.02232446
304.60 0.02249665
304.70 0.02265911
304.80 0.02280841
304.90 0.02294151
305.00 0.02305628
305.10 0.02315197
305.20 0.02322933
305.30 0.02329048
305.40 0.02333849
305.50 0.02337676
305.60 0.02340854
305.70 0.02343649
305.80 0.02346251
305.90 0.02348775
306.00 0.02351283
306.10 0.0235379
306.20 0.02356297
306.30 0.02358805
306.40 0.02361313
306.50 0.02363822
306.60 0.02366332
306.70 0.02368844
306.80 0.02371359
306.90 0.02373878
307.00 0.02376401
307.10 0.02378927
307.20 0.02381458
307.30 0.02383992
307.40 0.0238653
307.50 0.02389069
307.60 0.02391609
307.70 0.02394151
307.80 0.02396693
307.90 0.02399235
308.00 0.02401777
308.10 0.02404319
308.20 0.02406905
308.30 0.02409683
308.40 0.02412946
308.50 0.02417167
308.60 0.02423012
308.70 0.02431293
308.80 0.02442865
308.90 0.02458493
309.00 0.02478708
309.10 0.025037
309.20 0.02533278
309.30 0.02566912
309.40 0.02603838
309.50 0.02643199
309.60 0.02684184
309.70 0.02726128
309.80 0.02768557
309.90 0.02811177
310.00 0.02853842
310.10 0.02896506
310.20 0.02939126
310.30 0.02981553
310.40 0.03023494
310.50 0.0306447
310.60 0.03103814
310.70 0.03140709
310.80 0.03174296
310.90 0.03203805
311.00 0.03228704
311.10 0.032488
311.20 0.03264286
311.30 0.03275695
311.40 0.03283794
311.50 0.03289445
311.60 0.03293464
311.70 0.03296519
311.80 0.03299087
311.90 0.03301462
312.00 0.03303792
312.10 0.03306123
312.20 0.03308509
312.30 0.03311132
312.40 0.03314357
312.50 0.03318773
312.60 0.03325205
312.70 0.0333466
312.80 0.03348202
312.90 0.0336678
313.00 0.03391053
313.10 0.03421256
313.20 0.03457153
313.30 0.03498087
313.40 0.03543108
313.50 0.03591151
313.60 0.03641211
313.70 0.03692462
313.80 0.03744314
313.90 0.03796404
314.00 0.03848549
314.10 0.03900694
314.20 0.03952877
314.30 0.04005226
314.40 0.04057994
314.50 0.0411159
314.60 0.04166589
314.70 0.04223694
314.80 0.04283643
314.90 0.04347097
315.00 0.04414516
315.10 0.04486063
315.20 0.04561573
315.30 0.0464059
315.40 0.04722451
315.50 0.04806416
315.60 0.04891785
315.70 0.04977983
315.80 0.050646
315.90 0.05151382
316.00 0.05238203
316.10 0.05325023
316.20 0.05411704
316.30 0.05497775
316.40 0.05582307
316.50 0.05663793
316.60 0.0574012
316.70 0.05808711
316.80 0.05866845
316.90 0.05912092
317.00 0.05942769
317.10 0.05958272
317.20 0.05959204
317.30 0.0594725
317.40 0.05924839
317.50 0.05894692
317.60 0.05859386
317.70 0.05821034
317.80 0.05781143
317.90 0.05740642
318.00 0.05700002
318.10 0.05659361
318.20 0.05618827
318.30 0.05578761
318.40 0.05539872
318.50 0.05503315
318.60 0.05470707
318.70 0.05444021
318.80 0.0542534
318.90 0.05416523
319.00 0.05418859
319.10 0.05432812
319.20 0.05457918
319.30 0.05492888
319.40 0.05535863
319.50 0.0558476
319.60 0.05637605
319.70 0.05692783
319.80 0.05749139
319.90 0.05805962
320.00 0.05862891
320.10 0.05919821
320.20 0.0597671
320.30 0.06033428
320.40 0.06089709
320.50 0.06145128
320.60 0.06199087
320.70 0.06250855
320.80 0.06299663
320.90 0.06344823
321.00 0.06385857
321.10 0.06422595
321.20 0.06455208
321.30 0.06484173
321.40 0.06510177
321.50 0.06533991
321.60 0.06556345
321.70 0.06577836
321.80 0.06598891
321.90 0.06619774
322.00 0.06640617
322.10 0.0666146
322.20 0.06682448
322.30 0.06704066
322.40 0.06727275
322.50 0.06753635
322.60 0.0678533
322.70 0.06825025
322.80 0.06875533
322.90 0.06939368
323.00 0.07018271
323.10 0.07112865
323.20 0.07222528
323.30 0.07345516
323.40 0.07479319
323.50 0.07621121
323.60 0.07768258
323.70 0.07918546
323.80 0.08070425
323.90 0.08222934
324.00 0.08375588
324.10 0.08528242
324.20 0.08680873
324.30 0.08833401
324.40 0.0898567
324.50 0.09137428
324.60 0.09288319
324.70 0.09437911
324.80 0.09585746
324.90 0.09731417
325.00 0.09874639
325.10 0.1001531
325.20 0.1015354
325.30 0.102896
325.40 0.1042391
325.50 0.1055691
325.60 0.1068905
325.70 0.1082068
325.80 0.1095204
325.90 0.1108331
326.00 0.1121455
326.10 0.113458
326.20 0.1147709
326.30 0.116086
326.40 0.1174067
326.50 0.1187385
326.60 0.1200889
326.70 0.1214673
326.80 0.1228836
326.90 0.1243466
327.00 0.1258623
327.10 0.1274329
327.20 0.1290563
327.30 0.1307263
327.40 0.1324342
327.50 0.1341702
327.60 0.1359247
327.70 0.1376904
327.80 0.1394616
327.90 0.141235
328.00 0.1430089
328.10 0.1447828
328.20 0.1465537
328.30 0.1483117
328.40 0.150037
328.50 0.1516976
328.60 0.1532486
328.70 0.1546353
328.80 0.1557998
328.90 0.1566905
329.00 0.1572718
329.10 0.1575307
329.20 0.15748
329.30 0.1571556
329.40 0.1566091
329.50 0.1558982
329.60 0.1550777
329.70 0.1541926
329.80 0.1532747
329.90 0.1523439
330.00 0.1514101
330.10 0.1504763
330.20 0.1495447
330.30 0.1486227
330.40 0.147725
330.50 0.1468752
330.60 0.1461068
330.70 0.1454603
330.80 0.1449786
330.90 0.1446999
331.00 0.1446508
331.10 0.1448409
331.20 0.1452606
331.30 0.1458833
331.40 0.1466709
331.50 0.1475803
331.60 0.148571
331.70 0.1496098
331.80 0.1506728
331.90 0.1517454
332.00 0.1528202
332.10 0.153895
332.20 0.1549684
332.30 0.1560357
332.40 0.1570877
332.50 0.1581092
332.60 0.1590793
332.70 0.1599723
332.80 0.1607609
332.90 0.1614209
333.00 0.1619355
333.10 0.1622987
333.20 0.1625166
333.30 0.1626059
333.40 0.1625908
333.50 0.1624986
333.60 0.1623549
333.70 0.1621808
333.80 0.1619914
333.90 0.1617958
334.00 0.1615989
334.10 0.1614207
334.20 0.1612921
334.30 0.16123
334.40 0.161236
334.50 0.1612961
334.60 0.1614061
334.70 0.1616085
334.80 0.1620333
334.90 0.1628997
335.00 0.1644609
335.10 0.1669343
335.20 0.1703998
335.30 0.1746831
335.40 0.179301
335.50 0.1835351
335.60 0.1865988
335.70 0.1878454
335.80 0.1869557
335.90 0.1840245
336.00 0.1795433
336.10 0.1742539
336.20 0.1689575
336.30 0.1643634
336.40 0.1609678
336.50 0.1590305
336.60 0.1585985
336.70 0.1595526
336.80 0.1616606
336.90 0.1646104
337.00 0.1680471
337.10 0.1715828
337.20 0.1748284
337.30 0.1775057
337.40 0.1795418
337.50 0.1810418
337.60 0.1821949
337.70 0.1831516
337.80 0.1839181
337.90 0.1843555
338.00 0.1842295
338.10 0.1833275
338.20 0.1815947
338.30 0.1791949
338.40 0.1765258
338.50 0.1741211
338.60 0.1725106
338.70 0.1720927
338.80 0.1730126
338.90 0.1751706
339.00 0.1783314
339.10 0.182219
339.20 0.1865711
339.30 0.1911327
339.40 0.1956127
339.50 0.1996798
339.60 0.2029796
339.70 0.205162
339.80 0.2059388
339.90 0.2051376
340.00 0.2027416
340.10 0.1988882
340.20 0.1938431
340.30 0.1879728
340.40 0.1816957
340.50 0.175458
340.60 0.1697058
340.70 0.1648507
340.80 0.16126
340.90 0.1591984
341.00 0.1587407
341.10 0.1597519
341.20 0.1619343
341.30 0.1648896
341.40 0.1682001
341.50 0.1714833
341.60 0.1744136
341.70 0.17676
341.80 0.1783861
341.90 0.1792136
342.00 0.1792182
342.10 0.1784534
342.20 0.1770682
342.30 0.1752992
342.40 0.1734453
342.50 0.1718175
342.60 0.1706698
342.70 0.1701431
342.80 0.1702449
342.90 0.1708659
343.00 0.1718244
343.10 0.1729177
343.20 0.173957
343.30 0.1747972
343.40 0.1753505
343.50 0.1755808
343.60 0.1754964
343.70 0.1751341
343.80 0.1745503
343.90 0.1738213
344.00 0.1730329
344.10 0.1722669
344.20 0.1715977
344.30 0.1711054
344.40 0.1708827
344.50 0.1710405
344.60 0.171709
344.70 0.1730173
344.80 0.1750476
344.90 0.1777864
345.00 0.1811008
345.10 0.1847443
345.20 0.1883987
345.30 0.1917347
345.40 0.1944747
345.50 0.1964412
345.60 0.197565
345.70 0.1978744
345.80 0.1974694
345.90 0.1964748
346.00 0.1950148
346.10 0.1932091
346.20 0.1911762
346.30 0.1890331
346.40 0.1868829
346.50 0.1847926
346.60 0.1827904
346.70 0.1808826
346.80 0.1790693
346.90 0.1773753
347.00 0.1758775
347.10 0.1747127
347.20 0.1740586
347.30 0.1740883
347.40 0.1749195
347.50 0.1765747
347.60 0.178969
347.70 0.1819173
347.80 0.1851633
347.90 0.1884317
348.00 0.1914682
348.10 0.1940607
348.20 0.1960517
348.30 0.1973495
348.40 0.1979291
348.50 0.1978281
348.60 0.1971379
348.70 0.1959872
348.80 0.1945365
348.90 0.1929673
349.00 0.1914487
349.10 0.1901134
349.20 0.1890568
349.30 0.1883401
349.40 0.1880007
349.50 0.1880728
349.60 0.1886069
349.70 0.1896719
349.80 0.1913372
349.90 0.1936437
350.00 0.1965624
350.10 0.1999622
350.20 0.2035998
350.30 0.2071413
350.40 0.2102086
350.50 0.212436
350.60 0.2135279
350.70 0.2133
350.80 0.2116995
350.90 0.2088065
351.00 0.2048183
351.10 0.2000285
351.20 0.1948026
351.30 0.18954
351.40 0.1846186
351.50 0.1803432
351.60 0.1769056
351.70 0.1743636
351.80 0.1726543
351.90 0.1716532
352.00 0.1712585
352.10 0.1714392
352.20 0.1722509
352.30 0.1738188
352.40 0.1762801
352.50 0.1797193
352.60 0.1841047
352.70 0.1892587
352.80 0.1948914
352.90 0.2006733
353.00 0.2063131
353.10 0.2116167
353.20 0.2165136
353.30 0.2210432
353.40 0.2253057
353.50 0.2293971
353.60 0.2333526
353.70 0.2371203
353.80 0.2405752
353.90 0.2435453
354.00 0.2458492
354.10 0.2473633
354.20 0.2480676
354.30 0.2480453
354.40 0.2474589
354.50 0.2465056
354.60 0.2453742
354.70 0.2442159
354.80 0.2431223
354.90 0.2421226
355.00 0.2412033
355.10 0.2403304
355.20 0.2394593
355.30 0.2385356
355.40 0.2374931
355.50 0.2362531
355.60 0.2347324
355.70 0.2328484
355.80 0.2305197
355.90 0.2276906
356.00 0.2243573
356.10 0.2205707
356.20 0.216435
356.30 0.2121042
356.40 0.2077727
356.50 0.2036549
356.60 0.1999543
356.70 0.1968255
356.80 0.194337
356.90 0.1924441
357.00 0.190996
357.10 0.1897744
357.20 0.1885365
357.30 0.1870695
357.40 0.1852439
357.50 0.1830439
357.60 0.1805682
357.70 0.1780102
357.80 0.1756262
357.90 0.1736842
358.00 0.1724095
358.10 0.1719457
358.20 0.1723234
358.30 0.1734521
358.40 0.1751368
358.50 0.1771242
358.60 0.1791659
358.70 0.1810746
358.80 0.1827621
358.90 0.1842439
359.00 0.1856086
359.10 0.1869627
359.20 0.1883778
359.30 0.1898598
359.40 0.1913363
359.50 0.1926747
359.60 0.1937222
359.70 0.1943408
359.80 0.1944288
359.90 0.1939351
360.00 0.1928726
360.10 0.1913272
360.20 0.1894695
360.30 0.1875508
360.40 0.1858808
360.50 0.184787
360.60 0.1845519
360.70 0.1853451
360.80 0.1871745
360.90 0.1898743
361.00 0.1931433
361.10 0.1966223
361.20 0.1999736
361.30 0.2029391
361.40 0.2053869
361.50 0.2073136
361.60 0.2087975
361.70 0.2099456
361.80 0.2108619
361.90 0.211624
362.00 0.2122713
362.10 0.2128111
362.20 0.213226
362.30 0.2134905
362.40 0.2135852
362.50 0.2134911
362.60 0.2131913
362.70 0.212687
362.80 0.2120121
362.90 0.2112397
363.00 0.2104743
363.10 0.2098262
363.20 0.2093884
363.30 0.2092125
363.40 0.209281
363.50 0.2094973
363.60 0.2097057
363.70 0.2097262
363.80 0.2093901
363.90 0.2085806
364.00 0.2072651
364.10 0.2055074
364.20 0.2034588
364.30 0.2013307
364.40 0.1993583
364.50 0.1977696
364.60 0.1967571
364.70 0.1964458
364.80 0.1968736
364.90 0.197992
365.00 0.1996732
365.10 0.2017277
365.20 0.203929
365.30 0.2060427
365.40 0.2078648
365.50 0.2092569
365.60 0.2101691
365.70 0.2106452
365.80 0.2108053
365.90 0.2108094
366.00 0.2108102
366.10 0.2109102
366.20 0.211139
366.30 0.2114435
366.40 0.2117013
366.50 0.2117612
366.60 0.2114907
366.70 0.210825
366.80 0.2097973
366.90 0.2085377
367.00 0.2072469
367.10 0.2061516
367.20 0.2054558
367.30 0.2053035
367.40 0.2057489
367.50 0.2067503
367.60 0.2081874
367.70 0.2098913
367.80 0.2116781
367.90 0.2133763
368.00 0.2148491
368.10 0.2160063
368.20 0.216806
368.30 0.2172553
368.40 0.2174111
368.50 0.2173722
368.60 0.2172657
368.70 0.217223
368.80 0.217349
368.90 0.2177006
369.00 0.2182717
369.10 0.2189934
369.20 0.2197555
369.30 0.2204422
369.40 0.220972
369.50 0.2213276
369.60 0.2215695
369.70 0.2218264
369.80 0.2222576
369.90 0.2230021
370.00 0.2241309
370.10 0.2256198
370.20 0.2273559
370.30 0.2291689
370.40 0.2308778
370.50 0.2323359
370.60 0.2334539
370.70 0.2342027
370.80 0.2345869
370.90 0.2346106
371.00 0.2342518
371.10 0.2334569
371.20 0.2321667
371.30 0.2303633
371.40 0.2281136
371.50 0.2255877
371.60 0.2230285
371.70 0.2206766
371.80 0.2186937
371.90 0.2170993
372.00 0.2157512
372.10 0.2143914
372.20 0.2127414
372.30 0.210624
372.40 0.2080633
372.50 0.2053189
372.60 0.2028369
372.70 0.2011297
372.80 0.200624
372.90 0.2015148
373.00 0.2036811
373.10 0.2066946
373.20 0.2099088
373.30 0.2126056
373.40 0.2141578
373.50 0.2141623
373.60 0.2125256
373.70 0.2094858
373.80 0.2055628
373.90 0.2014694
374.00 0.1979907
374.10 0.1958581
374.20 0.1956317
374.30 0.1976021
374.40 0.2017325
374.50 0.2076484
374.60 0.2146821
374.70 0.2219749
374.80 0.2286195
374.90 0.2338143
375.00 0.237
375.10 0.2379458
375.20 0.2367654
375.30 0.2338594
375.40 0.2298069
375.50 0.225244
375.60 0.2207566
375.70 0.2168169
375.80 0.2137729
375.90 0.2118787
376.00 0.2113545
376.10 0.2124341
376.20 0.2153645
376.30 0.2203556
376.40 0.2274872
376.50 0.2366058
376.60 0.247256
376.70 0.2586638
376.80 0.2697971
376.90 0.2795091
377.00 0.2867274
377.10 0.2906475
377.20 0.2908791
377.30 0.2875083
377.40 0.2810647
377.50 0.2724034
377.60 0.2625334
377.70 0.2524368
377.80 0.2429253
377.90 0.2345606
378.00 0.2276375
378.10 0.2222207
378.20 0.2182255
378.30 0.2155083
378.40 0.2139549
378.50 0.2135457
378.60 0.2143805
378.70 0.2166764
378.80 0.2207372
378.90 0.2268765
379.00 0.2353147
379.10 0.2460612
379.20 0.2588091
379.30 0.2728893
379.40 0.2872903
379.50 0.300762
379.60 0.3119944
379.70 0.3198352
379.80 0.3234948
379.90 0.3226899
380.00 0.3176811
380.10 0.3092013
380.20 0.2982994
380.30 0.2861393
380.40 0.2738
380.50 0.2621291
380.60 0.2516717
380.70 0.2426764
380.80 0.2351537
380.90 0.2289701
381.00 0.2239398
381.10 0.2198858
381.20 0.2166691
381.30 0.2141842
381.40 0.2123393
381.50 0.211034
381.60 0.21412
381.70 0.2262628
381.80 0.2500161
381.90 0.2885296
382.00 0.3477699
382.10 0.434806
382.20 0.5481914
382.30 0.6830107
382.40 0.8352352
382.50 0.9996732
382.60 1.169545
382.70 1.335687
382.80 1.490134
382.90 1.627568
383.00 1.743472
383.10 1.830591
383.20 1.878612
383.30 1.876476
383.40 1.814893
383.50 1.686961
383.60 1.490718
383.70 1.239376
383.80 0.9622651
383.90 0.69686
384.00 0.4787238
384.10 0.3345217
384.20 0.2818293
384.30 0.3152382
384.40 0.4019739
384.50 0.4970724
384.60 0.558684
384.70 0.5610519
384.80 0.4986378
384.90 0.3876177
385.00 0.2593934
385.10 0.1484234
385.20 0.08577422
385.30 0.08675403
385.40 0.144335
385.50 0.2397989
385.60 0.3493549
385.70 0.4511489
385.80 0.5312692
385.90 0.5858572
386.00 0.6242606
386.10 0.6593831
386.20 0.701402
386.30 0.7573221
386.40 0.830621
386.50 0.9184221
386.60 1.009189
386.70 1.087944
386.80 1.142809
386.90 1.164477
387.00 1.147491
387.10 1.093763
387.20 1.008058
387.30 0.8966926
387.40 0.7684197
387.50 0.6351588
387.60 0.5099723
387.70 0.4040106
387.80 0.3345673
387.90 0.3203678
388.00 0.3675466
388.10 0.4739196
388.20 0.627365
388.30 0.8033177
388.40 0.9693993
388.50 1.091642
388.60 1.144777
388.70 1.117933
388.80 1.012377
388.90 0.8419498
389.00 0.6326139
389.10 0.4136776
389.20 0.2102475
389.30 0.04286221
389.40 9.999999e-11
389.50 1e-10
389.60 1e-10
389.70 1e-10
389.80 9.999999e-11
389.90 9.999998e-11
390.00 0.05789763
390.10 0.1200052
390.20 0.1848733
390.30 0.2616586
390.40 0.3632204
390.50 0.4934851
390.60 0.6456773
390.70 0.8052272
390.80 0.9537759
390.90 1.071392
391.00 1.140251
391.10 1.153013
391.20 1.113337
391.30 1.027815
391.40 0.9057176
391.50 0.7611591
391.60 0.6006582
391.70 0.4260429
391.80 0.2408337
391.90 0.04517964
392.00 1e-10
392.10 1e-10
392.20 1e-10
392.30 1e-10
392.40 1e-10
392.50 1e-10
392.60 1e-10
392.70 1e-10
392.80 1e-10
392.90 1e-10
393.00 9.999998e-11
393.10 9.999997e-11
393.20 0.06229782
393.30 0.1629039
393.40 0.2302224
393.50 0.2647597
393.60 0.2708901
393.70 0.2495491
393.80 0.1978253
393.90 0.1196621
394.00 0.02514851
394.10 9.999999e-11
394.20 1e-10
394.30 1e-10
394.40 1e-10
394.50 1e-10
394.60 1e-10
394.70 0.0932648
394.80 0.1973687
394.90 0.2704727
395.00 0.2971746
395.10 0.2753562
395.20 0.2122252
395.30 0.1246079
395.40 0.04011925
395.50 9.999999e-11
395.60 9.999996e-11
395.70 0.01135819
395.80 0.1027671
395.90 0.2356387
396.00 0.3946492
396.10 0.5616148
396.20 0.7221375
396.30 0.870748
396.40 1.002633
396.50 1.109371
396.60 1.179258
396.70 1.194308
396.80 1.133275
396.90 0.9833983
397.00 0.7472867
397.10 0.4443593
397.20 0.1135923
397.30 9.999993e-11
397.40 9.999994e-11
397.50 9.999998e-11
397.60 1e-10
397.70 9.999999e-11
397.80 9.999997e-11
397.90 9.999999e-11
398.00 9.999995e-11
398.10 9.999997e-11
398.20 9.999995e-11
398.30 9.999995e-11
398.40 9.999995e-11
398.50 9.999997e-11
398.60 9.999998e-11
398.70 1e-10
398.80 1e-10
398.90 1e-10
399.00 1e-10
399.10 1e-10
399.20 1e-10
399.30 1e-10
399.40 1e-10
399.50 0.01799523
399.60 0.1645288
399.70 0.2844521
399.80 0.3743245
399.90 0.4380183
400.00 0.4863266
400.10 0.5334492
400.20 0.5908777
400.30 0.6636905
400.40 0.7455332
400.50 0.8202709
400.60 0.8630877
400.70 0.8477688
400.80 0.7588907
400.90 0.5948489
401.00 0.3732627
401.10 0.1283509
401.20 1e-10
401.30 1e-10
401.40 1e-10
401.50 1e-10
401.60 1e-10
401.70 0.008203733
401.80 0.2070905
401.90 0.3756864
402.00 0.48197
402.10 0.5134938
402.20 0.4827354
402.30 0.4213126
402.40 0.3695286
402.50 0.3628446
402.60 0.4217663
402.70 0.5457605
402.80 0.712184
402.90 0.8859428
403.00 1.029482
403.10 1.114966
403.20 1.133052
403.30 1.092368
403.40 1.01488
403.50 0.9304514
403.60 0.8650194
403.70 0.832209
403.80 0.8362509
403.90 0.8716122
404.00 0.9233704
404.10 0.9751615
404.20 1.016056
404.30 1.038377
404.40 1.037329
404.50 1.012988
404.60 0.9684333
404.70 0.9062032
404.80 0.8300191
404.90 0.7445231
405.00 0.653305
405.10 0.559058
405.20 0.4598874
405.30 0.3508697
405.40 0.2292316
405.50 0.09384249
405.60 9.999999e-11
405.70 9.999999e-11
405.80 9.999999e-11
405.90 1e-10
406.00 9.999999e-11
406.10 9.999998e-11
406.20 9.999998e-11
406.30 9.999995e-11
406.40 9.999997e-11
406.50 0.09854024
406.60 0.2506231
406.70 0.3730669
406.80 0.4593925
406.90 0.5072058
407.00 0.521998
407.10 0.5123466
407.20 0.4878322
407.30 0.4536643
407.40 0.4105619
407.50 0.3589806
407.60 0.2996567
407.70 0.2347643
407.80 0.1681011
407.90 0.1058532
408.00 0.0518856
408.10 0.009576016
408.20 1e-10
408.30 1e-10
408.40 1e-10
408.50 1e-10
408.60 9.999999e-11
408.70 9.999999e-11
408.80 0.0127524
408.90 0.06143337
409.00 0.1329173
409.10 0.2246098
409.20 0.3286037
409.30 0.4340483
409.40 0.5310763
409.50 0.6125698
409.60 0.6756232
409.70 0.7206454
409.80 0.750779
409.90 0.7667231
410.00 0.76387
410.10 0.7356242
410.20 0.6771257
410.30 0.587403
410.40 0.4726756
410.50 0.3488639
410.60 0.2355545
410.70 0.1467399
410.80 0.09149845
410.90 0.07317747
411.00 0.0851003
411.10 0.1120969
411.20 0.1363213
411.30 0.1453563
411.40 0.1322035
411.50 0.09504797
411.60 0.042387
411.70 9.999995e-11
411.80 9.99999e-11
411.90 9.999994e-11
412.00 9.999997e-11
412.10 0.01440808
412.20 0.09716646
412.30 0.1891785
412.40 0.2734741
412.50 0.3347228
412.60 0.3623391
412.70 0.3567032
412.80 0.3301466
412.90 0.2989929
413.00 0.278287
413.10 0.2792521
413.20 0.3061044
413.30 0.35441
413.40 0.4144438
413.50 0.4760265
413.60 0.5290507
413.70 0.5643983
413.80 0.5764505
413.90 0.5655878
414.00 0.5335919
414.10 0.4778764
414.20 0.3987734
414.30 0.3042541
414.40 0.203648
414.50 0.1045481
414.60 0.01498026
414.70 1e-10
414.80 1e-10
414.90 9.999998e-11
415.00 9.999999e-11
415.10 1e-10
415.20 1e-10
415.30 1e-10
415.40 1e-10
415.50 0.00587526
415.60 0.01340028
415.70 1e-10
415.80 1e-10
415.90 1e-10
416.00 1e-10
416.10 1e-10
416.20 9.999999e-11
416.30 9.999996e-11
416.40 9.999999e-11
416.50 1e-10
416.60 1e-10
416.70 1e-10
416.80 1e-10
416.90 0.04172546
417.00 0.102707
417.10 0.1659315
417.20 0.2264543
417.30 0.2764602
417.40 0.3105723
417.50 0.3262966
417.60 0.3237714
417.70 0.3058219
417.80 0.273432
417.90 0.2267014
418.00 0.1672581
418.10 0.09630288
418.20 0.01683074
418.30 1e-10
418.40 1e-10
418.50 1e-10
418.60 9.999998e-11
418.70 9.999993e-11
418.80 9.999992e-11
418.90 9.999995e-11
419.00 9.999993e-11
419.10 9.999994e-11
419.20 9.999995e-11
419.30 9.999995e-11
419.40 9.999994e-11
419.50 9.999995e-11
419.60 9.999995e-11
419.70 0.0007603431
419.80 0.04250739
419.90 0.09524784
420.00 0.1460902
420.10 0.1800719
420.20 0.1819473
420.30 0.141883
420.40 0.06211752
420.50 1e-10
420.60 1e-10
420.70 1e-10
420.80 1e-10
420.90 9.999999e-11
421.00 1e-10
421.10 1e-10
421.20 9.999999e-11
421.30 0.005678099
421.40 0.120295
421.50 0.2176809
421.60 0.2897499
421.70 0.3327317
421.80 0.3471255
421.90 0.336188
422.00 0.3071285
422.10 0.2682105
422.20 0.226546
422.30 0.1891188
422.40 0.1583463
422.50 0.1324243
422.60 0.1072519
422.70 0.07949149
422.80 0.0513383
422.90 0.02937469
423.00 0.02329622
423.10 0.04466898
423.20 0.1025766
423.30 0.1976141
423.40 0.3178982
423.50 0.4436283
423.60 0.553867
423.70 0.627661
423.80 0.6506566
423.90 0.6225234
424.00 0.5508553
424.10 0.4495409
424.20 0.3382305
424.30 0.2332403
424.40 0.145956
424.50 0.08404059
424.60 0.05243291
424.70 0.05220295
424.80 0.07880469
424.90 0.1265735
425.00 0.1880233
425.10 0.2513003
425.20 0.3049893
425.30 0.3411052
425.40 0.3581036
425.50 0.3603271
425.60 0.3543352
425.70 0.3499543
425.80 0.3549326
425.90 0.3682686
426.00 0.385746
426.10 0.4018489
426.20 0.4086585
426.30 0.4020853
426.40 0.3843319
426.50 0.3602207
426.60 0.3340237
426.70 0.3094637
426.80 0.2881714
426.90 0.2669816
427.00 0.2403136
427.10 0.2045368
427.20 0.1579147
427.30 0.0999565
427.40 0.03375301
427.50 1e-10
427.60 1e-10
427.70 1e-10
427.80 1e-10
427.90 1e-10
428.00 1e-10
428.10 1e-10
428.20 1e-10
428.30 1e-10
428.40 0.1016436
428.50 0.21074
428.60 0.3149104
428.70 0.410153
428.80 0.4947587
428.90 0.5707801
429.00 0.6415683
429.10 0.7059078
429.20 0.7566011
429.30 0.7853662
429.40 0.7842138
429.50 0.7482578
429.60 0.680798
429.70 0.5913386
429.80 0.493112
429.90 0.3992188
430.00 0.3177108
430.10 0.2534497
430.20 0.2076094
430.30 0.1767943
430.40 0.1588001
430.50 0.1589764
430.60 0.1863325
430.70 0.2494018
430.80 0.3567984
430.90 0.509832
431.00 0.6970412
431.10 0.8978439
431.20 1.087765
431.30 1.241356
431.40 1.339092
431.50 1.372198
431.60 1.342986
431.70 1.264559
431.80 1.154916
431.90 1.030926
432.00 0.9062986
432.10 0.7897908
432.20 0.68444
432.30 0.5902933
432.40 0.5073774
432.50 0.4340699
432.60 0.3700107
432.70 0.3175817
432.80 0.2774014
432.90 0.2494315
433.00 0.2347155
433.10 0.2350497
433.20 0.2517108
433.30 0.2841482
433.40 0.3298337
433.50 0.3840095
433.60 0.440692
433.70 0.4931332
433.80 0.5342781
433.90 0.5584087
434.00 0.5614391
434.10 0.5432602
434.20 0.5079823
434.30 0.4617691
434.40 0.4129333
434.50 0.3696349
434.60 0.3376701
434.70 0.3185758
434.80 0.3076242
434.90 0.2956673
435.00 0.2722537
435.10 0.2283937
435.20 0.1600394
435.30 0.07303952
435.40 1e-10
435.50 9.999999e-11
435.60 9.999998e-11
435.70 9.999995e-11
435.80 9.999997e-11
435.90 9.999998e-11
436.00 9.999996e-11
436.10 0.02600032
436.20 0.1109064
436.30 0.1893641
436.40 0.256606
436.50 0.311741
436.60 0.3542651
436.70 0.3835278
436.80 0.3999012
436.90 0.4017307
437.00 0.38545
437.10 0.3497105
437.20 0.2954008
437.30 0.223603
437.40 0.1403046
437.50 0.05800458
437.60 1e-10
437.70 1e-10
437.80 1e-10
437.90 9.999999e-11
438.00 0.01574743
438.10 0.09106637
438.20 0.1727487
438.30 0.2470016
438.40 0.3039717
438.50 0.3369225
438.60 0.3429943
438.70 0.3254445
438.80 0.2911945
438.90 0.2483138
439.00 0.2048037
439.10 0.1664474
439.20 0.1363055
439.30 0.1146276
439.40 0.09974287
439.50 0.08868995
439.60 0.07855348
439.70 0.07003425
439.80 0.06590047
439.90 0.06883742
440.00 0.07879492
440.10 0.09113281
440.20 0.09804657
440.30 0.09031193
440.40 0.0600567
440.50 0.004487682
440.60 1e-10
440.70 1e-10
440.80 1e-10
440.90 9.999999e-11
441.00 9.999999e-11
441.10 9.999998e-11
441.20 9.999994e-11
441.30 9.999996e-11
441.40 9.999996e-11
441.50 9.999995e-11
441.60 9.999996e-11
441.70 9.999995e-11
441.80 9.999997e-11
441.90 9.999995e-11
442.00 9.999996e-11
442.10 9.999998e-11
442.20 9.999999e-11
442.30 9.999999e-11
442.40 9.999999e-11
442.50 9.999997e-11
442.60 9.999996e-11
442.70 9.999997e-11
442.80 9.999999e-11
442.90 9.999998e-11
443.00 9.999998e-11
443.10 9.999999e-11
443.20 9.999998e-11
443.30 9.999999e-11
443.40 1e-10
443.50 0.05540645
443.60 0.1476645
443.70 0.2287102
443.80 0.2898704
443.90 0.3250834
444.00 0.3310059
444.10 0.3064694
444.20 0.2515879
444.30 0.167506
444.40 0.0589062
444.50 9.999998e-11
444.60 9.999998e-11
444.70 9.999999e-11
444.80 9.999999e-11
444.90 9.999999e-11
445.00 1e-10
445.10 9.999995e-11
445.20 9.999994e-11
445.30 9.999994e-11
445.40 9.99999e-11
445.50 0.00918105
445.60 0.1470898
445.70 0.2572505
445.80 0.3329045
445.90 0.3754582
446.00 0.3918914
446.10 0.3918744
446.20 0.3838318
446.30 0.3719331
446.40 0.3567969
446.50 0.3357433
446.60 0.3050253
446.70 0.2629531
446.80 0.2113381
446.90 0.1556892
447.00 0.1048595
447.10 0.06996206
447.20 0.06195799
447.30 0.08796207
447.40 0.147483
447.50 0.2338628
447.60 0.3351871
447.70 0.4345167
447.80 0.5153449
447.90 0.5651773
448.00 0.5773781
448.10 0.5533948
448.20 0.5017999
448.30 0.4352345
448.40 0.3673106
448.50 0.308467
448.60 0.2639448
448.70 0.2354518
448.80 0.2220436
448.90 0.2207276
449.00 0.2298353
449.10 0.2508445
449.20 0.2872405
449.30 0.3414835
449.40 0.4120668
449.50 0.4948243
449.60 0.5833002
449.70 0.6661107
449.80 0.7302705
449.90 0.7675087
450.00 0.7764084
450.10 0.7607368
450.20 0.7306652
450.30 0.7025492
450.40 0.6892675
450.50 0.6958969
450.60 0.7221195
450.70 0.7605816
450.80 0.7968883
450.90 0.815843
451.00 0.8059976
451.10 0.7629828
451.20 0.692212
451.30 0.6078394
451.40 0.5286084
451.50 0.4718949
451.60 0.4501835
451.70 0.4697498
451.80 0.5281266
451.90 0.6129633
452.00 0.7056476
452.10 0.786782
452.20 0.8403488
452.30 0.8570948
452.40 0.8365096
452.50 0.7855949
452.60 0.7148469
452.70 0.6343138
452.80 0.5521944
452.90 0.4728283
453.00 0.3963922
453.10 0.3225928
453.20 0.2520958
453.30 0.1863344
453.40 0.1299575
453.50 0.09028523
453.60 0.07216782
453.70 0.07675844
453.80 0.1020018
453.90 0.1427749
454.00 0.1926228
454.10 0.2461221
454.20 0.2996084
454.30 0.3495977
454.40 0.3941513
454.50 0.4327434
454.60 0.4634624
454.70 0.4834415
454.80 0.4898439
454.90 0.4819482
455.00 0.4636733
455.10 0.4419149
455.20 0.4258142
455.30 0.4271011
455.40 0.4557076
455.50 0.5143611
455.60 0.5990403
455.70 0.6996351
455.80 0.7993474
455.90 0.881124
456.00 0.9337902
456.10 0.9520743
456.20 0.9371731
456.30 0.8984786
456.40 0.8503217
456.50 0.806006
456.60 0.7737499
456.70 0.7551232
456.80 0.7465921
456.90 0.7424901
457.00 0.7381429
457.10 0.7334198
457.20 0.733888
457.30 0.7490096
457.40 0.7899145
457.50 0.8656497
457.60 0.9768848
457.70 1.113725
457.80 1.259316
457.90 1.39073
458.00 1.48415
458.10 1.523941
458.20 1.505303
458.30 1.4332
458.40 1.319618
458.50 1.180942
458.60 1.034843
458.70 0.8948646
458.80 0.7676902
458.90 0.6554597
459.00 0.5588088
459.10 0.4782827
459.20 0.4145891
459.30 0.3694594
459.40 0.3454929
459.50 0.3410045
459.60 0.3488342
459.70 0.3612658
459.80 0.3705331
459.90 0.3708616
460.00 0.3623446
460.10 0.3503452
460.20 0.3433574
460.30 0.349256
460.40 0.3736506
460.50 0.4182372
460.60 0.4777739
460.70 0.5439685
460.80 0.6097963
460.90 0.6701577
461.00 0.7241597
461.10 0.7741588
461.20 0.8241822
461.30 0.8772366
461.40 0.9305357
461.50 0.978928
461.60 1.017953
461.70 1.041997
461.80 1.047301
461.90 1.03555
462.00 1.011931
462.10 0.9826935
462.20 0.9548304
462.30 0.9336298
462.40 0.9187094
462.50 0.9051963
462.60 0.8883443
462.70 0.862695
462.80 0.8245969
462.90 0.7757704
463.00 0.7195262
463.10 0.6617082
463.20 0.6106906
463.30 0.5726856
463.40 0.5517583
463.50 0.5499582
463.60 0.5674112
463.70 0.6032907
463.80 0.6560732
463.90 0.7232455
464.00 0.8000135
464.10 0.8785851
464.20 0.9486568
464.30 1.000222
464.40 1.026004
464.50 1.022625
464.60 0.9914567
464.70 0.9400781
464.80 0.8791489
464.90 0.8183823
465.00 0.7668674
465.10 0.7293294
465.20 0.7047438
465.30 0.6910793
465.40 0.6869655
465.50 0.6917393
465.60 0.7062039
465.70 0.7329959
465.80 0.7750863
465.90 0.831531
466.00 0.8965734
466.10 0.9619949
466.20 1.017033
466.30 1.050064
466.40 1.052745
466.50 1.021187
466.60 0.9565722
466.70 0.8660698
466.80 0.761515
466.90 0.6548436
467.00 0.5548246
467.10 0.4673926
467.20 0.3952573
467.30 0.3375957
467.40 0.2918953
467.50 0.2565848
467.60 0.232461
467.70 0.2219728
467.80 0.228254
467.90 0.2550101
468.00 0.3039407
468.10 0.3731761
468.20 0.4588783
468.30 0.5543663
468.40 0.6516433
468.50 0.7443811
468.60 0.8284474
468.70 0.9025072
468.80 0.9674065
468.90 1.025792
469.00 1.079777
469.10 1.129304
469.20 1.172122
469.30 1.202857
469.40 1.21546
469.50 1.207475
469.60 1.180411
469.70 1.138817
469.80 1.089668
469.90 1.040492
470.00 0.9971096
470.10 0.9599881
470.20 0.9247658
470.30 0.8857228
470.40 0.8376906
470.50 0.7807777
470.60 0.7218216
470.70 0.6700604
470.80 0.6345663
470.90 0.6212541
471.00 0.6299185
471.10 0.6537512
471.20 0.679696
471.30 0.6931879
471.40 0.6844781
471.50 0.6498153
471.60 0.592932
471.70 0.5247873
471.80 0.4587482
471.90 0.4064698
472.00 0.3749612
472.10 0.3659679
472.20 0.3757694
472.30 0.3982528
472.40 0.4289749
472.50 0.4650502
472.60 0.5055466
472.70 0.5516372
472.80 0.6048672
472.90 0.6646977
473.00 0.7269704
473.10 0.7843837
473.20 0.8296307
473.30 0.8582909
473.40 0.8687639
473.50 0.863559
473.60 0.8507306
473.70 0.8414963
473.80 0.8461662
473.90 0.8710249
474.00 0.9163192
474.10 0.9747981
474.20 1.033291
474.30 1.076293
474.40 1.090029
474.50 1.065931
474.60 1.002784
474.70 0.9087417
474.80 0.7999062
474.90 0.6960223
475.00 0.6160897
475.10 0.5739089
475.20 0.5753709
475.30 0.6171718
475.40 0.6862699
475.50 0.7621543
475.60 0.8207241
475.70 0.8385273
475.80 0.7991761
475.90 0.6982564
476.00 0.5449221
476.10 0.3618391
476.20 0.1801943
476.30 0.03158186
476.40 1e-10
476.50 1e-10
476.60 1e-10
476.70 0.08249196
476.80 0.2182435
476.90 0.3546302
477.00 0.4659683
477.10 0.5372655
477.20 0.5644127
477.30 0.5521133
477.40 0.5135138
477.50 0.4660035
477.60 0.4248065
477.70 0.4007888
477.80 0.3997976
477.90 0.420791
478.00 0.4560975
478.10 0.4940222
478.20 0.5234931
478.30 0.5373275
478.40 0.5325302
478.50 0.5115652
478.60 0.4838696
478.70 0.4622199
478.80 0.4577001
478.90 0.4781697
479.00 0.5264617
479.10 0.5980528
479.20 0.6834711
479.30 0.7727825
479.40 0.8566343
479.50 0.9279389
479.60 0.9841486
479.70 1.024496
479.80 1.046167
479.90 1.043827
480.00 1.012018
480.10 0.9473482
480.20 0.8494619
480.30 0.7239856
480.40 0.5849543
480.50 0.4516953
480.60 0.3444064
480.70 0.2794487
480.80 0.2637421
480.90 0.295088
481.00 0.3653722
481.10 0.4623422
481.20 0.5728599
481.30 0.6854013
481.40 0.7918213
481.50 0.8874212
481.60 0.9677758
481.70 1.02836
481.80 1.066004
481.90 1.078677
482.00 1.065611
482.10 1.028157
482.20 0.9701575
482.30 0.8973289
482.40 0.816991
482.50 0.737121
482.60 0.6645498
482.70 0.6064434
482.80 0.5704517
482.90 0.5616067
483.00 0.5807852
483.10 0.6242104
483.20 0.6836527
483.30 0.7469536
483.40 0.8009131
483.50 0.8352281
483.60 0.8442848
483.70 0.8288444
483.80 0.7966294
483.90 0.759835
484.00 0.7310665
484.10 0.7195193
484.20 0.7283182
484.30 0.7538049
484.40 0.7862809
484.50 0.812541
484.60 0.8205049
484.70 0.8031766
484.80 0.7602941
484.90 0.6975626
485.00 0.624034
485.10 0.5501738
485.20 0.4863467
485.30 0.4418803
485.40 0.4251035
485.50 0.4420692
485.60 0.495963
485.70 0.5869065
485.80 0.7091792
485.90 0.8486319
486.00 0.9843076
486.10 1.093237
486.20 1.155312
486.30 1.158131
486.40 1.102279
486.50 1.002441
486.60 0.8825897
486.70 0.7687448
486.80 0.6830561
486.90 0.6382342
487.00 0.6357012
487.10 0.668209
487.20 0.7223525
487.30 0.7820626
487.40 0.8323644
487.50 0.8631118
487.60 0.8708588
487.70 0.8566912
487.80 0.8252759
487.90 0.7856827
488.00 0.7485028
488.10 0.7210536
488.20 0.7066805
488.30 0.7061552
488.40 0.7151789
488.50 0.7248585
488.60 0.7265755
488.70 0.7152325
488.80 0.6906798
488.90 0.658801
489.00 0.6292375
489.10 0.6111988
489.20 0.6110862
489.30 0.6307297
489.40 0.6661213
489.50 0.7079562
489.60 0.7456179
489.70 0.7703121
489.80 0.7759898
489.90 0.7607505
490.00 0.7269817
490.10 0.6809867
490.20 0.6310083
490.30 0.5838934
490.40 0.5463929
490.50 0.5261722
490.60 0.5290922
490.70 0.5568969
490.80 0.6057562
490.90 0.6669755
491.00 0.7285021
491.10 0.7769648
491.20 0.8020015
491.30 0.8000051
491.40 0.7765689
491.50 0.746028
491.60 0.726855
491.70 0.7367523
491.80 0.7872013
491.90 0.8794522
492.00 1.005295
492.10 1.14967
492.20 1.294859
492.30 1.425314
492.40 1.530717
492.50 1.606698
492.60 1.654174
492.70 1.678243
492.80 1.686814
492.90 1.688294
493.00 1.690258
493.10 1.697831
493.20 1.711996
493.30 1.729037
493.40 1.739837
493.50 1.732281
493.60 1.69515
493.70 1.620914
493.80 1.511089
493.90 1.378396
494.00 1.242673
494.10 1.126966
494.20 1.051597
494.30 1.029267
494.40 1.062758
494.50 1.14503
494.60 1.262561
494.70 1.399248
494.80 1.538927
494.90 1.666078
495.00 1.766393
495.10 1.827124
495.20 1.836769
495.30 1.786935
495.40 1.676128
495.50 1.510891
495.60 1.305264
495.70 1.081135
495.80 0.8637807
495.90 0.6744679
496.00 0.5268455
496.10 0.4257814
496.20 0.3681848
496.30 0.3455923
496.40 0.3467413
496.50 0.3606002
496.60 0.378931
496.70 0.3969508
496.80 0.4125662
496.90 0.4242556
497.00 0.4296363
497.10 0.4269924
497.20 0.417544
497.30 0.4051133
497.40 0.3948648
497.50 0.3929503
497.60 0.4061877
497.70 0.4390498
497.80 0.4913661
497.90 0.5593481
498.00 0.6363902
498.10 0.7132699
498.20 0.7818219
498.30 0.8379125
498.40 0.8813825
498.50 0.9155167
498.60 0.9450551
498.70 0.9733377
498.80 1.000548
498.90 1.02497
499.00 1.044796
499.10 1.056558
499.20 1.05568
499.30 1.039858
499.40 1.008838
499.50 0.9629589
499.60 0.9022102
499.70 0.8263422
499.80 0.7354697
499.90 0.6311545
500.00 1
500.10 0.8052317
500.20 0.7067725
500.30 0.7092232
500.40 1.39389
500.50 1.226588
500.60 0.5221535
500.70 0.6057883
500.80 0.68664
500.90 9.999995e-11
501.00 9.999995e-11
501.10 0.1756016
501.20 1.023549
501.30 0.4329171
501.40 0.6314799
501.50 2.152039
501.60 1.223957
501.70 0.2059248
501.80 0.7322767
501.90 1.172295
502.00 1.295473
502.10 0.9874778
502.20 0.09468167
502.30 0.5675037
502.40 0.8106069
502.50 0.5471732
502.60 1.031866
502.70 1.192052
502.80 1.227306
502.90 0.7555848
503.00 0.4085622
503.10 0.1513231
503.20 0.8390074
503.30 1.569976
503.40 1.586144
503.50 2.06154
503.60 1.82065
503.70 0.7436956
503.80 0.5840008
503.90 1.135315
504.00 1.134254
504.10 1.506668
504.20 1.061511
504.30 0.6136496
504.40 0.9253086
504.50 1.471272
504.60 1.417276
504.70 1.429858
504.80 2.262642
504.90 0.6569452
505.00 9.999994e-11
505.10 9.999994e-11
505.20 0.6488434
505.30 1.69871
505.40 1.200331
505.50 1e-10
505.60 0.5009743
505.70 1.344664
505.80 1.669142
505.90 0.9442706
506.00 0.5212128
506.10 0.5932342
506.20 0.1365139
506.30 0.5446235
506.40 1.120317
506.50 0.9445464
506.60 1.133126
506.70 1.221249
506.80 0.5028698
506.90 0.2098509
507.00 1.066448
507.10 1.640788
507.20 1.474254
507.30 0.3201311
507.40 0.7121831
507.50 2.108563
507.60 2.263306
507.70 1.433787
507.80 1.291134
507.90 0.9253122
508.00 1.035208
508.10 1.860922
508.20 2.351478
508.30 1.354357
508.40 0.5878625
508.50 1.111498
508.60 1.614003
508.70 1.330865
508.80 1.317487
508.90 1.838961
509.00 1.849054
509.10 0.6847728
509.20 0.8616896
509.30 1.338995
509.40 1.310885
509.50 1.374479
509.60 2.119108
509.70 1.033341
509.80 1.173738
509.90 2.138569
510.00 2.819437
510.10 1.79098
510.20 0.2840945
510.30 0.534697
510.40 0.8683061
510.50 1.39668
510.60 1.301145
510.70 1.644872
510.80 1.124618
510.90 0.4248507
511.00 0.03785951
511.10 0.5164494
511.20 1.306896
511.30 1.101988
511.40 1.677255
511.50 1.937368
511.60 1.687613
511.70 1.337725
511.80 0.7078758
511.90 0.7748579
512.00 1.386212
512.10 1.793841
512.20 2.060129
512.30 2.036916
512.40 1.692464
512.50 0.3298447
512.60 1.154514
512.70 1.544362
512.80 1.152806
512.90 0.6513012
513.00 0.6190072
513.10 1.354155
513.20 1.664474
513.30 1.481507
513.40 1.162704
513.50 1.21768
513.60 1.963105
513.70 2.191833
513.80 1.967154
513.90 1.157368
514.00 1.849829
514.10 2.407607
514.20 1.531818
514.30 0.6703268
514.40 1.785976
514.50 1.814695
514.60 1.409086
514.70 1.071006
514.80 1.49167
514.90 1.169586
515.00 1.406133
515.10 1.467499
515.20 1.852339
515.30 1.338125
515.40 0.3072039
515.50 1.358162
515.60 2.235652
515.70 1.789612
515.80 1.506141
515.90 1.755762
516.00 2.675401
516.10 2.775537
516.20 2.363551
516.30 2.464652
516.40 2.862485
516.50 2.638927
516.60 2.088564
516.70 1.370504
516.80 1.151147
516.90 0.7885825
517.00 0.04301729
517.10 1e-10
517.20 0.4665691
517.30 0.6815512
517.40 0.340951
517.50 0.9728797
517.60 0.2991071
517.70 0.07275698
517.80 0.179795
517.90 9.999995e-11
518.00 9.999998e-11
518.10 0.5777945
518.20 0.486164
518.30 0.2451727
518.40 0.9931006
518.50 1.255031
518.60 1.231309
518.70 1.559646
518.80 0.9238552
518.90 0.5696079
519.00 0.7720218
519.10 0.66237
519.20 0.8077036
519.30 0.8873848
519.40 0.6262426
519.50 0.497788
519.60 0.5248376
519.70 0.8503909
519.80 0.7842611
519.90 1.013353
520.00 1.791327
520.10 1.196911
520.20 0.7715444
520.30 1.265326
520.40 0.7063835
520.50 0.2444368
520.60 1.302726
520.70 0.8135846
520.80 0.7071792
520.90 0.7893393
521.00 0.8974811
521.10 0.5479654
521.20 0.4152389
521.30 0.4770367
521.40 1.602828
521.50 1.744325
521.60 0.9216308
521.70 1.297761
521.80 1.197261
521.90 0.4403258
522.00 0.2740485
522.10 1.56721
522.20 2.246664
522.30 1.979875
522.40 2.335809
522.50 2.310906
522.60 1.139799
522.70 0.90205
522.80 1.94948
522.90 2.551799
523.00 1.810377
523.10 1.150801
523.20 1.327113
523.30 1.714252
523.40 0.9529205
523.50 0.6046213
523.60 1.080756
523.70 1.571008
523.80 1.376088
523.90 1.292732
524.00 1.777708
524.10 2.179244
524.20 1.178384
524.30 0.3048646
524.40 0.392882
524.50 1.004527
524.60 0.854235
524.70 1.230319
524.80 1.065058
524.90 9.999995e-11
525.00 0.7490956
525.10 1.87772
525.20 1.826853
525.30 1.321136
525.40 0.3368524
525.50 2.046584
525.60 2.354958
525.70 1.903447
525.80 1.308225
525.90 1.650417
526.00 1.360998
526.10 1.687489
526.20 1.021116
526.30 1.13244
526.40 1.465307
526.50 1.123825
526.60 0.3742313
526.70 0.9584867
526.80 2.118949
526.90 1.655273
527.00 0.706723
527.10 1.192597
527.20 1.345983
527.30 1.932866
527.40 2.568285
527.50 2.166417
527.60 1.47559
527.70 0.790966
527.80 0.4562182
527.90 1.626727
528.00 2.697635
528.10 1.603369
528.20 1.295661
528.30 1.377181
528.40 1.479095
528.50 1.421183
528.60 1.961889
528.70 2.129703
528.80 1.091036
528.90 1.063304
529.00 2.253652
529.10 2.573155
529.20 2.850359
529.30 2.42089
529.40 2.079391
529.50 1.916181
529.60 1.736032
529.70 1.220311
529.80 1.636788
529.90 1.171987
530.00 0.9286682
530.10 1.018212
530.20 1.951644
530.30 2.255693
530.40 1.783412
530.50 1.842809
530.60 1.882416
530.70 0.9698809
530.80 1.421827
530.90 2.115367
531.00 1.803071
531.10 1.898386
531.20 2.383157
531.30 1.411621
531.40 1.623672
531.50 2.265156
531.60 1.876083
531.70 1.035215
531.80 1.085757
531.90 2.128412
532.00 2.266323
532.10 2.132765
532.20 2.447204
532.30 1.641428
532.40 0.8374691
532.50 0.8820343
532.60 1.591427
532.70 2.003009
532.80 1.391277
532.90 1.941371
533.00 1.570495
533.10 1.587127
533.20 2.028959
533.30 2.277646
533.40 1.702614
533.50 0.9376258
533.60 1.675943
533.70 2.303999
533.80 2.191289
533.90 1.739487
534.00 1.310605
534.10 1.347295
534.20 1.058399
534.30 1.740849
534.40 2.680833
534.50 3.146465
534.60 2.509815
534.70 1.279167
534.80 0.7935157
534.90 1.173858
535.00 2.135892
535.10 1.726771
535.20 1.703519
535.30 2.722934
535.40 3.377683
535.50 2.691358
535.60 2.013307
535.70 1.757862
535.80 0.9049958
535.90 1.192537
536.00 1.989918
536.10 1.78163
536.20 1.504348
536.30 2.242831
536.40 1.931904
536.50 0.8815745
536.60 1.6096
536.70 2.40806
536.80 2.719921
536.90 2.444088
537.00 2.468252
537.10 2.512202
537.20 1.176326
537.30 1.051309
537.40 1.407102
537.50 1.772559
537.60 2.39988
537.70 2.562312
537.80 1.776488
537.90 1.578979
538.00 2.444806
538.10 2.855646
538.20 2.059878
538.30 2.110044
538.40 3.044116
538.50 3.33264
538.60 2.598514
538.70 3.258504
538.80 3.370426
538.90 2.783515
539.00 2.056005
539.10 2.084834
539.20 2.546381
539.30 2.535818
539.40 1.60361
539.50 1.987159
539.60 2.133699
539.70 1.831652
539.80 1.700633
539.90 2.143728
540.00 2.418704
540.10 2.739852
540.20 2.518228
540.30 2.902545
540.40 2.596329
540.50 2.571104
540.60 2.684193
540.70 2.6752
540.80 2.045509
540.90 2.398204
541.00 2.620418
541.10 2.084487
541.20 1.980663
541.30 1.911814
541.40 2.12953
541.50 1.95634
541.60 2.183367
541.70 2.119925
541.80 2.528759
541.90 2.477875
542.00 2.090584
542.10 2.192919
542.20 2.818741
542.30 3.187809
542.40 3.039982
542.50 2.174098
542.60 1.641049
542.70 2.083656
542.80 3.028393
542.90 3.482628
543.00 2.530711
543.10 2.356493
543.20 2.106964
543.30 3.389006
543.40 3.3183
543.50 2.850221
543.60 2.559289
543.70 3.039423
543.80 2.868685
543.90 2.448194
544.00 2.400726
544.10 2.82273
544.20 3.448244
544.30 3.788781
544.40 3.383125
544.50 3.355474
544.60 3.530846
544.70 2.6687
544.80 2.048908
544.90 1.154797
545.00 0.3144867
545.10 0.4196947
545.20 0.685282
545.30 0.07379136
545.40 0.1072138
545.50 9.999997e-11
545.60 0.9689579
545.70 2.617734
545.80 1.954151
545.90 0.6391821
546.00 0.8921412
546.10 1.742468
546.20 1.349183
546.30 1.475014
546.40 1.185662
546.50 1.008498
546.60 1.200596
546.70 1.427262
546.80 2.174413
546.90 2.046111
547.00 1.167945
547.10 0.9494195
547.20 0.5383076
547.30 1.058212
547.40 1.468457
547.50 1.553542
547.60 1.215551
547.70 2.065486
547.80 1.206626
547.90 0.8239107
548.00 0.7506445
548.10 1.496791
548.20 1.80096
548.30 1.667385
548.40 1.377729
548.50 1.70557
548.60 1.962904
548.70 2.218593
548.80 1.851353
548.90 1.158132
549.00 1.155522
549.10 1.832603
549.20 1.894687
549.30 1.576815
549.40 0.4440743
549.50 0.7881334
549.60 1.088897
549.70 1.135329
549.80 0.7649066
549.90 1.328305
550.00 1.157729
550.10 0.7454531
550.20 1.120324
550.30 0.6114783
550.40 0.6962483
550.50 1.24677
550.60 1.597902
550.70 0.6615779
550.80 0.6120689
550.90 0.8691336
551.00 0.5482907
551.10 0.2000573
551.20 0.2340484
551.30 0.4368177
551.40 0.8259123
551.50 1.10044
551.60 1.491324
551.70 0.7244472
551.80 0.2397348
551.90 0.0109534
552.00 0.3864777
552.10 1.233668
552.20 0.577745
552.30 0.07267635
552.40 0.2027248
552.50 0.2457459
552.60 0.2109008
552.70 9.999995e-11
552.80 0.1780502
552.90 0.5126902
553.00 0.9985041
553.10 0.7946792
553.20 0.8866032
553.30 1.075342
553.40 0.9915799
553.50 0.5295869
553.60 0.5832193
553.70 0.2837837
553.80 0.3812863
553.90 0.8157064
554.00 1.243057
554.10 1.051871
554.20 0.2023899
554.30 9.999998e-11
554.40 0.8306899
554.50 1.217291
554.60 1.047766
554.70 0.4720433
554.80 0.7172861
554.90 0.906177
555.00 0.4347595
555.10 0.3225577
555.20 0.3297552
555.30 0.4535765
555.40 0.21858
555.50 0.3353356
555.60 0.9926515
555.70 1.460716
555.80 1.080647
555.90 0.847622
556.00 0.1683029
556.10 0.3180326
556.20 0.983708
556.30 1.003784
556.40 1.293171
556.50 0.9337252
556.60 0.7305898
556.70 0.8929015
556.80 1.563242
556.90 1.542594
557.00 1.303016
557.10 1.445188
557.20 1.43918
557.30 1.43918
557.40 1.43918
557.50 1.43918
557.60 1.43918
557.70 1.43918
557.80 1.43918
557.90 1.43918
558.00 1.43918
558.10 1.43918
558.20 1.43918
558.30 1.46113
558.40 1.392408
558.50 1.037376
558.60 1.411441
558.70 2.04871
558.80 2.080583
558.90 1.597962
559.00 2.13952
559.10 2.664736
559.20 2.354983
559.30 1.375229
559.40 1.780845
559.50 2.357338
559.60 1.331859
559.70 0.7475502
559.80 1.550996
559.90 1.618158
560.00 1.117365
560.10 1.851356
560.20 2.152474
560.30 2.036813
560.40 1.085852
560.50 0.8238082
560.60 1.327184
560.70 1.199224
560.80 0.7010966
560.90 1.205918
561.00 1.57656
561.10 1.489821
561.20 1.355757
561.30 1.63903
561.40 2.338079
561.50 1.799701
561.60 1.567921
561.70 1.323127
561.80 1.275054
561.90 1.160575
562.00 0.9931748
562.10 0.868345
562.20 1.207478
562.30 0.6696266
562.40 1.609261
562.50 1.771134
562.60 1.627724
562.70 1.737765
562.80 2.321936
562.90 1.784081
563.00 0.8420734
563.10 0.6481821
563.20 0.5038564
563.30 1.112198
563.40 1.366816
563.50 1.57597
563.60 1.298129
563.70 0.8014478
563.80 1.197902
563.90 1.312437
564.00 0.5503064
564.10 0.9635897
564.20 1.506275
564.30 1.504769
564.40 1.017926
564.50 1.429101
564.60 2.28538
564.70 1.950693
564.80 1.606262
564.90 1.854833
565.00 1.990328
565.10 1.932894
565.20 0.9562588
565.30 1.071572
565.40 1.995459
565.50 1.810649
565.60 0.8594829
565.70 0.7336311
565.80 1.659371
565.90 2.064256
566.00 1.199401
566.10 1.34767
566.20 1.810377
566.30 2.183445
566.40 1.530651
566.50 0.757208
566.60 1.100804
566.70 1.652054
566.80 1.307543
566.90 1.588202
567.00 1.894942
567.10 2.226627
567.20 1.966334
567.30 1.652309
567.40 1.260658
567.50 1.497296
567.60 1.052571
567.70 0.6703869
567.80 1.151724
567.90 1.759443
568.00 1.662621
568.10 0.7764175
568.20 0.6175644
568.30 1.641336
568.40 2.814645
568.50 2.992722
568.60 2.477362
568.70 1.30517
568.80 1.072078
568.90 1.411727
569.00 1.523837
569.10 1.157258
569.20 1.649349
569.30 2.234199
569.40 1.885567
569.50 1.798244
569.60 1.976236
569.70 2.747349
569.80 3.231631
569.90 2.964686
570.00 1.992694
570.10 1.326593
570.20 1.335784
570.30 2.692475
570.40 3.212461
570.50 2.588542
570.60 1.904388
570.70 2.56489
570.80 2.889899
570.90 1.815908
571.00 1.699714
571.10 2.022184
571.20 1.970899
571.30 2.2114
571.40 2.553528
571.50 1.930203
571.60 1.901032
571.70 1.860897
571.80 1.179311
571.90 1.342807
572.00 1.764337
572.10 1.067661
572.20 0.6897626
572.30 1.546254
572.40 1.942548
572.50 1.681983
572.60 1.42803
572.70 1.38089
572.80 1.612599
572.90 1.920871
573.00 2.520018
573.10 2.118503
573.20 2.164158
573.30 2.015514
573.40 1.47472
573.50 1.993408
573.60 2.501469
573.70 2.224449
573.80 1.380607
573.90 1.205094
574.00 1.842706
574.10 2.130824
574.20 2.035417
574.30 2.393731
574.40 3.016451
574.50 2.28171
574.60 1.445248
574.70 1.775159
574.80 2.591837
574.90 2.726923
575.00 2.511375
575.10 2.183926
575.20 1.684115
575.30 1.477044
575.40 2.166736
575.50 2.823617
575.60 2.391475
575.70 2.560512
575.80 2.318106
575.90 2.406119
576.00 2.453803
576.10 2.838845
576.20 2.716756
576.30 2.832525
576.40 3.012883
576.50 1.949264
576.60 0.9685689
576.70 0.8467273
576.80 1.477373
576.90 1.697935
577.00 2.04088
577.10 1.983453
577.20 2.334985
577.30 2.110978
577.40 1.96185
577.50 2.104181
577.60 2.045414
577.70 2.226433
577.80 1.993659
577.90 2.304544
578.00 1.867648
578.10 1.928509
578.20 1.709156
578.30 1.339936
578.40 1.885189
578.50 2.760737
578.60 2.259965
578.70 1.764139
578.80 2.39197
578.90 2.580776
579.00 2.098926
579.10 1.933654
579.20 2.084095
579.30 2.231387
579.40 1.514494
579.50 1.312462
579.60 1.864062
579.70 2.415907
579.80 2.513161
579.90 2.868052
580.00 2.542134
580.10 1.628117
580.20 1.839559
580.30 2.772881
580.40 2.264512
580.50 1.47709
580.60 2.158507
580.70 2.829053
580.80 3.432839
580.90 3.328503
581.00 3.176698
581.10 1.731951
581.20 1.850345
581.30 2.413114
581.40 2.221846
581.50 1.682711
581.60 1.382397
581.70 1.050885
581.80 1.479816
581.90 1.715348
582.00 2.165293
582.10 2.090053
582.20 1.784293
582.30 1.774469
582.40 1.772895
582.50 2.38384
582.60 2.451048
582.70 1.784781
582.80 1.497159
582.90 2.298419
583.00 2.223802
583.10 1.545989
583.20 0.9607783
583.30 0.5524459
583.40 1.075756
583.50 1.813517
583.60 2.279093
583.70 3.133791
583.80 2.323789
583.90 2.164214
584.00 2.196568
584.10 2.829502
584.20 2.346658
584.30 1.384911
584.40 1.719044
584.50 2.246781
584.60 1.9752
584.70 1.650361
584.80 1.378022
584.90 1.340385
585.00 1.396974
585.10 1.390757
585.20 0.8107873
585.30 0.8480322
585.40 0.8421689
585.50 0.7709644
585.60 1.257949
585.70 1.506629
585.80 1.684341
585.90 1.315949
586.00 0.7038408
586.10 0.5326246
586.20 1.162085
586.30 1.877525
586.40 2.145556
586.50 1.866046
586.60 1.581214
586.70 1.980359
586.80 1.621062
586.90 1.010609
587.00 1.228742
587.10 1.960563
587.20 2.041991
587.30 1.795418
587.40 1.46996
587.50 1.380087
587.60 0.9484788
587.70 0.9961171
587.80 0.4616252
587.90 0.3932746
588.00 1.007341
588.10 1.119154
588.20 0.9178505
588.30 0.3556018
588.40 0.8762063
588.50 0.7416975
588.60 0.8751773
588.70 1.311935
588.80 1.206322
588.90 0.8450051
589.00 0.8828759
589.10 1.094537
589.20 2.165395
589.30 2.063386
589.40 1.000001e-10
589.50 9.999993e-11
589.60 9.999997e-11
589.70 2.932296
589.80 2.220177
589.90 0.1118691
590.00 0.4466558
590.10 0.847187
590.20 0.2159606
590.30 0.6018488
590.40 1.017926
590.50 1.111749
590.60 0.9519692
590.70 0.3856679
590.80 9.999995e-11
590.90 9.999995e-11
591.00 0.9710408
591.10 0.7885507
591.20 1.042412
591.30 1.340742
591.40 0.8809592
591.50 0.8687057
591.60 1.371476
591.70 1.6093
591.80 0.5626731
591.90 9.999994e-11
592.00 0.1162099
592.10 0.6317911
592.20 0.9635826
592.30 0.6628333
592.40 0.5358781
592.50 0.08860056
592.60 9.999999e-11
592.70 0.4933216
592.80 1.738006
592.90 1.823978
593.00 0.9345385
593.10 0.2853379
593.20 0.7567058
593.30 0.7484131
593.40 0.6872376
593.50 0.6187208
593.60 0.4381474
593.70 0.8033008
593.80 0.8484177
593.90 0.6874003
594.00 0.567341
594.10 1.01783
594.20 1.38913
594.30 1.359775
594.40 1.220587
594.50 1.053827
594.60 1.024709
594.70 1.436549
594.80 1.594401
594.90 1.681576
595.00 1.594239
595.10 1.248666
595.20 1.632375
595.30 1.78412
595.40 1.261103
595.50 0.7923523
595.60 0.9391322
595.70 1.530287
595.80 1.007115
595.90 0.9125282
596.00 1.303059
596.10 1.609378
596.20 1.548581
596.30 1.397865
596.40 1.178077
596.50 1.259862
596.60 1.339363
596.70 1.47762
596.80 1.928039
596.90 1.736227
597.00 1.434402
597.10 1.399774
597.20 1.560053
597.30 1.422983
597.40 1.308696
597.50 1.300028
597.60 0.4327509
597.70 9.999995e-11
597.80 0.4519957
597.90 0.9469193
598.00 0.8141433
598.10 0.9548407
598.20 1.157187
598.30 0.9802601
598.40 1.38739
598.50 2.277102
598.60 2.138395
598.70 1.512524
598.80 1.521963
598.90 1.831892
599.00 1.298875
599.10 1.277508
599.20 1.268604
599.30 1.378387
599.40 1.80444
599.50 2.19474
599.60 2.015518
599.70 1.857945
599.80 2.458061
599.90 2.351931
600.00 1.601258
600.10 0.9771764
600.20 1.021215
600.30 1.099174
600.40 1.194001
600.50 1.212885
600.60 1.535705
600.70 1.125544
600.80 0.5677725
600.90 1.316161
601.00 1.691976
601.10 1.634652
601.20 1.391453
601.30 1.736591
601.40 1.320786
601.50 0.8537965
601.60 1.613201
601.70 1.718701
601.80 1.567843
601.90 1.889701
602.00 2.403297
602.10 2.427605
602.20 2.260735
602.30 2.36411
602.40 1.65906
602.50 1.119207
602.60 0.9451228
602.70 1.576574
602.80 1.456724
602.90 1.007264
603.00 0.5461229
603.10 0.8830704
603.20 1.5434
603.30 1.955445
603.40 2.018743
603.50 1.261651
603.60 1.473953
603.70 1.877186
603.80 2.011281
603.90 1.322551
604.00 1.029129
604.10 1.563493
604.20 1.643415
604.30 1.782316
604.40 1.833211
604.50 1.604416
604.60 1.567988
604.70 1.688093
604.80 1.943171
604.90 1.445149
605.00 1.004608
605.10 1.010291
605.20 1.525654
605.30 2.179258
605.40 2.342609
605.50 1.701878
605.60 1.481846
605.70 1.997372
605.80 2.282509
605.90 1.964622
606.00 1.967741
606.10 1.925432
606.20 1.998168
606.30 2.189966
606.40 2.248135
606.50 1.891734
606.60 1.786206
606.70 2.239019
606.80 1.873947
606.90 1.511307
607.00 1.406147
607.10 1.689405
607.20 1.959714
607.30 2.005824
607.40 1.537717
607.50 1.666288
607.60 1.93514
607.70 2.153333
607.80 2.131358
607.90 2.029631
608.00 2.117036
608.10 2.00795
608.20 1.789795
608.30 1.801582
608.40 2.137713
608.50 2.18481
608.60 1.605
608.70 1.158531
608.80 1.267122
608.90 1.942743
609.00 2.319524
609.10 2.224467
609.20 2.128716
609.30 2.133939
609.40 2.001185
609.50 1.813585
609.60 1.898351
609.70 2.345173
609.80 2.725625
609.90 2.799418
610.00 3.047833
610.10 2.884531
610.20 1.990325
610.30 1.625861
610.40 1.678386
610.50 1.747543
610.60 1.332173
610.70 1.290352
610.80 1.782776
610.90 2.408909
611.00 2.921383
611.10 2.88069
611.20 2.717343
611.30 2.42647
611.40 2.156551
611.50 1.84103
611.60 1.653144
611.70 1.866633
611.80 1.732542
611.90 1.772885
612.00 1.797823
612.10 1.801709
612.20 1.998324
612.30 2.480913
612.40 2.504634
612.50 1.802696
612.60 1.755387
612.70 1.893206
612.80 1.747727
612.90 1.645392
613.00 1.46623
613.10 1.420614
613.20 1.745927
613.30 1.883657
613.40 1.563391
613.50 1.795638
613.60 2.237831
613.70 2.29862
613.80 2.162135
613.90 1.989568
614.00 2.192565
614.10 1.904331
614.20 1.591374
614.30 1.167383
614.40 1.065037
614.50 1.805504
614.60 2.215184
614.70 1.670154
614.80 0.5310191
614.90 0.4277363
615.00 0.8387811
615.10 1.031721
615.20 1.241618
615.30 1.701578
615.40 1.797501
615.50 1.646796
615.60 1.421113
615.70 1.081973
615.80 1.451985
615.90 1.657228
616.00 1.314
616.10 0.4742571
616.20 0.5569866
616.30 1.303179
616.40 1.580532
616.50 1.097618
616.60 0.2624962
616.70 0.4108078
616.80 0.528671
616.90 0.7775738
617.00 0.9939069
617.10 0.7883032
617.20 0.5132242
617.30 0.555862
617.40 1.007776
617.50 0.8974422
617.60 0.322801
617.70 0.5519331
617.80 1.104269
617.90 1.01126
618.00 0.6102441
618.10 0.7725452
618.20 1.22818
618.30 0.5769458
618.40 9.999995e-11
618.50 0.2827408
618.60 0.8289359
618.70 0.8869109
618.80 0.8596916
618.90 0.9271122
619.00 1.134887
619.10 1.244811
619.20 1.411975
619.30 2.18719
619.40 2.501505
619.50 1.885373
619.60 1.24584
619.70 0.76723
619.80 0.5900303
619.90 0.4826701
620.00 0.9166835
620.10 0.6495931
620.20 0.1569661
620.30 0.4393674
620.40 0.9711257
620.50 1.528222
620.60 1.674903
620.70 1.300732
620.80 1.014425
620.90 1.139431
621.00 1.250639
621.10 0.7517514
621.20 0.5779537
621.30 0.395071
621.40 0.4581455
621.50 0.580026
621.60 0.6807025
621.70 0.6894903
621.80 1.295922
621.90 1.789127
622.00 1.684387
622.10 1.254222
622.20 0.8541678
622.30 0.559066
622.40 0.6630879
622.50 1.088412
622.60 1.441231
622.70 1.558228
622.80 0.8906453
622.90 0.6828313
623.00 0.783911
623.10 1.091977
623.20 1.562426
623.30 2.011415
623.40 1.159076
623.50 0.03553047
623.60 0.1959993
623.70 0.455907
623.80 0.1064956
623.90 0.2984917
624.00 0.9200571
624.10 1.376134
624.20 1.521839
624.30 1.270227
624.40 1.174095
624.50 1.341736
624.60 1.510052
624.70 1.184615
624.80 0.7435506
624.90 0.7444771
625.00 0.7998105
625.10 1.011281
625.20 0.5302588
625.30 0.9305177
625.40 1.732818
625.50 0.467004
625.60 9.999992e-11
625.70 9.999994e-11
625.80 0.9264721
625.90 0.8101755
626.00 0.6352921
626.10 0.9285656
626.20 1.386655
626.30 1.692542
626.40 1.014743
626.50 0.4738257
626.60 0.7684041
626.70 1.119136
626.80 1.502304
626.90 1.935875
627.00 1.85722
627.10 1.528155
627.20 1.135796
627.30 0.9028563
627.40 1.173798
627.50 1.425664
627.60 1.268363
627.70 0.8603246
627.80 0.9091192
627.90 1.266022
628.00 1.338001
628.10 1.344399
628.20 1.511541
628.30 1.832462
628.40 1.525743
628.50 0.784056
628.60 0.4204196
628.70 1.544022
628.80 1.447674
628.90 1.139074
629.00 1.500553
629.10 1.601301
629.20 1.249904
629.30 1.092214
629.40 1.512043
629.50 2.041319
629.60 1.565492
629.70 9.999998e-11
629.80 1.10857
629.90 1.872631
630.00 1.553677
630.10 9.999994e-11
630.20 1.260591
630.30 2.971624
630.40 2.810713
630.50 3.825771
630.60 1.813436
630.70 1.010715
630.80 1.659771
630.90 1.85195
631.00 1.955725
631.10 1.842501
631.20 2.538941
631.30 2.652496
631.40 2.226433
631.50 2.013672
631.60 1.79023
631.70 1.974825
631.80 2.368435
631.90 2.255427
632.00 1.717237
632.10 1.842554
632.20 2.419023
632.30 2.573901
632.40 2.252273
632.50 2.017038
632.60 1.832037
632.70 2.009262
632.80 2.11973
632.90 2.530181
633.00 2.575425
633.10 2.018251
633.20 1.963526
633.30 2.407622
633.40 2.963452
633.50 3.001379
633.60 2.670076
633.70 2.806699
633.80 2.956623
633.90 3.015143
634.00 2.688543
634.10 2.057494
634.20 2.720175
634.30 3.544807
634.40 3.437642
634.50 3.028765
634.60 3.146455
634.70 3.317621
634.80 3.229608
634.90 3.05295
635.00 3.166191
635.10 2.823493
635.20 2.531603
635.30 2.826538
635.40 2.74848
635.50 2.164398
635.60 2.173101
635.70 3.201558
635.80 3.525181
635.90 3.006563
636.00 2.784731
636.10 2.521308
636.20 2.448611
636.30 2.686562
636.40 3.158153
636.50 2.899281
636.60 2.551859
636.70 2.184315
636.80 2.026735
636.90 2.438901
637.00 2.986763
637.10 3.288033
637.20 2.907641
637.30 2.465289
637.40 2.745499
637.50 3.007656
637.60 2.953278
637.70 2.860127
637.80 2.637018
637.90 2.510211
638.00 2.308593
638.10 2.286816
638.20 2.359517
638.30 2.432136
638.40 2.585479
638.50 2.35755
638.60 2.648861
638.70 3.015305
638.80 2.976886
638.90 2.840457
639.00 2.653819
639.10 2.797155
639.20 2.552814
639.30 2.431715
639.40 2.658317
639.50 2.903242
639.60 2.947047
639.70 2.649172
639.80 2.527801
639.90 2.812704
640.00 3.361437
640.10 3.6039
640.20 3.279478
640.30 3.064535
640.40 3.081849
640.50 3.097787
640.60 3.083352
640.70 3.126598
640.80 3.082171
640.90 3.112576
641.00 2.862648
641.10 2.874014
641.20 3.158273
641.30 3.116869
641.40 3.144283
641.50 3.083256
641.60 2.95134
641.70 2.921397
641.80 3.232402
641.90 3.193725
642.00 3.181691
642.10 3.155865
642.20 2.732319
642.30 2.336449
642.40 2.148456
642.50 2.768637
642.60 2.91929
642.70 2.718874
642.80 2.669192
642.90 2.927392
643.00 3.405945
643.10 3.246993
643.20 3.270195
643.30 3.316674
643.40 3.666034
643.50 3.458584
643.60 2.882565
643.70 2.970567
643.80 3.291618
643.90 3.511201
644.00 3.545232
644.10 3.43755
644.20 3.430141
644.30 3.389455
644.40 3.400605
644.50 3.107629
644.60 2.885822
644.70 3.394781
644.80 3.154733
644.90 2.596749
645.00 2.634641
645.10 2.931052
645.20 2.995268
645.30 2.939323
645.40 2.822864
645.50 2.666999
645.60 3.437044
645.70 3.720069
645.80 3.340067
645.90 2.706412
646.00 2.669881
646.10 3.290299
646.20 3.419546
646.30 2.763556
646.40 2.638931
646.50 3.158846
646.60 3.196314
646.70 3.017116
646.80 3.047879
646.90 3.139831
647.00 3.267511
647.10 3.564859
647.20 3.633004
647.30 3.528696
647.40 3.661507
647.50 3.556972
647.60 3.391011
647.70 3.348812
647.80 3.392065
647.90 3.469847
648.00 3.426909
648.10 3.25982
648.20 3.562206
648.30 3.599197
648.40 3.384321
648.50 3.381732
648.60 3.392787
648.70 3.356408
648.80 3.235062
648.90 3.00708
649.00 3.406585
649.10 3.713244
649.20 3.635692
649.30 3.64768
649.40 3.491801
649.50 3.430095
649.60 3.400959
649.70 3.593821
649.80 3.482659
649.90 3.648741
650.00 4.364358
650.10 4.851738
650.20 4.912458
650.30 4.42147
650.40 3.993748
650.50 3.691
650.60 3.715507
650.70 4.415281
650.80 4.564692
650.90 4.438232
651.00 4.600622
651.10 4.976077
651.20 5.371123
651.30 5.265598
651.40 4.841023
651.50 4.548779
651.60 4.705864
651.70 4.560555
651.80 4.655895
651.90 5.067315
652.00 5.658063
652.10 5.77356
652.20 5.633591
652.30 5.521807
652.40 5.946559
652.50 6.762254
652.60 6.784675
652.70 6.626034
652.80 6.737182
652.90 6.921638
653.00 7.081446
653.10 6.684596
653.20 6.495118
653.30 6.391786
653.40 6.963614
653.50 8.075586
653.60 7.704233
653.70 6.993567
653.80 7.008632
653.90 7.499019
654.00 8.030321
654.10 8.408817
654.20 8.267504
654.30 7.372382
654.40 7.001984
654.50 7.01323
654.60 6.80897
654.70 6.651991
654.80 6.732655
654.90 7.012947
655.00 6.893489
655.10 6.208992
655.20 5.967317
655.30 6.389558
655.40 6.293793
655.50 6.206764
655.60 6.269463
655.70 6.210689
655.80 6.216736
655.90 6.37124
656.00 6.980058
656.10 7.360287
656.20 8.840146
656.30 11.69897
656.40 13.79635
656.50 13.05668
656.60 9.985996
656.70 6.909225
656.80 5.091326
656.90 5.03867
657.00 5.317653
657.10 5.06201
657.20 4.66905
657.30 4.56929
657.40 4.245713
657.50 4.355446
657.60 5.097798
657.70 5.55862
657.80 4.654763
657.90 3.92486
658.00 4.490111
658.10 4.655683
658.20 4.324008
658.30 3.894164
658.40 3.867111
658.50 4.178416
658.60 4.809161
658.70 5.925411
658.80 6.119522
658.90 5.774798
659.00 5.155405
659.10 4.706677
659.20 4.862135
659.30 4.899514
659.40 4.75509
659.50 4.456303
659.60 4.581773
659.70 4.777121
659.80 4.274004
659.90 4.097504
660.00 4.391022
660.10 4.381721
660.20 4.284224
660.30 4.393957
660.40 4.590472
660.50 4.797844
660.60 4.945522
660.70 4.908921
660.80 4.624315
660.90 4.729593
661.00 4.778217
661.10 4.903829
661.20 5.028238
661.30 5.138431
661.40 5.209794
661.50 4.990399
661.60 4.865707
661.70 4.7332
661.80 4.991743
661.90 4.947008
662.00 4.541069
662.10 4.400323
662.20 4.498315
662.30 4.543474
662.40 4.196381
662.50 4.241823
662.60 4.185135
662.70 3.750871
662.80 3.744753
662.90 3.622289
663.00 3.714305
663.10 3.996365
663.20 4.459415
663.30 4.794096
663.40 4.335713
663.50 3.627947
663.60 3.730749
663.70 4.20264
663.80 4.032117
663.90 3.648069
664.00 3.393858
664.10 3.48986
664.20 3.672823
664.30 4.08495
664.40 4.411674
664.50 4.333132
664.60 4.288468
664.70 4.195072
664.80 4.217776
664.90 4.112322
665.00 3.797904
665.10 3.556796
665.20 2.942746
665.30 2.829947
665.40 3.348296
665.50 3.113061
665.60 3.079582
665.70 3.210095
665.80 2.875294
665.90 2.612829
666.00 2.891335
666.10 3.531935
666.20 3.775873
666.30 3.597888
666.40 3.758262
666.50 3.827716
666.60 3.749386
666.70 3.815339
666.80 4.056872
666.90 4.231497
667.00 4.096373
667.10 3.869339
667.20 3.710026
667.30 3.697083
667.40 3.602026
667.50 3.868384
667.60 4.049339
667.70 4.426562
667.80 4.372421
667.90 4.158507
668.00 3.776509
668.10 3.625366
668.20 3.607295
668.30 3.120257
668.40 3.464274
668.50 3.818203
668.60 3.846282
668.70 3.586678
668.80 3.266224
668.90 3.083985
669.00 2.770381
669.10 3.231249
669.20 4.016239
669.30 4.008388
669.40 3.413152
669.50 3.170898
669.60 3.374741
669.70 3.806003
669.80 3.993217
669.90 3.586112
670.00 3.149825
670.10 3.435265
670.20 3.779657
670.30 3.891936
670.40 4.022781
670.50 4.194224
670.60 4.669475
670.70 4.834799
670.80 4.82709
670.90 4.552704
671.00 4.304275
671.10 4.410932
671.20 4.595246
671.30 4.67584
671.40 4.193198
671.50 3.656167
671.60 3.232954
671.70 3.162938
671.80 3.041754
671.90 2.645028
672.00 2.757876
672.10 2.941579
672.20 3.031219
672.30 3.135347
672.40 3.249561
672.50 3.428599
672.60 3.376997
672.70 3.440124
672.80 3.502863
672.90 3.410373
673.00 3.35836
673.10 3.387768
673.20 3.438547
673.30 3.430304
673.40 3.177087
673.50 3.055167
673.60 3.312522
673.70 3.738812
673.80 3.733295
673.90 3.603087
674.00 3.65843
674.10 3.757307
674.20 3.841508
674.30 3.998345
674.40 4.058746
674.50 3.657829
674.60 3.55524
674.70 3.697401
674.80 3.497304
674.90 3.109585
675.00 2.953111
675.10 3.169314
675.20 3.367487
675.30 3.296866
675.40 2.961369
675.50 3.097777
675.60 3.489379
675.70 3.726222
675.80 3.733578
675.90 3.650191
676.00 3.838431
676.10 4.147402
676.20 3.901378
676.30 3.802289
676.40 3.834753
676.50 3.547919
676.60 4.252185
676.70 4.76142
676.80 4.554861
676.90 4.61749
677.00 4.902096
677.10 5.497901
677.20 5.424593
677.30 4.795616
677.40 4.493293
677.50 4.659184
677.60 4.736948
677.70 4.604582
677.80 4.645286
677.90 4.76241
678.00 4.763329
678.10 4.157658
678.20 3.680144
678.30 3.85972
678.40 3.820113
678.50 3.414429
678.60 2.841391
678.70 2.621423
678.80 2.796812
678.90 3.256145
679.00 3.740191
679.10 3.965139
679.20 3.894942
679.30 3.379706
679.40 3.268848
679.50 3.678658
679.60 4.012349
679.70 4.125937
679.80 3.94484
679.90 3.784926
680.00 3.940101
680.10 4.478405
680.20 4.774681
680.30 4.599207
680.40 4.464507
680.50 4.235882
680.60 4.233689
680.70 4.406299
680.80 4.556629
680.90 4.753109
681.00 4.227147
681.10 4.161654
681.20 4.81443
681.30 5.077959
681.40 4.900681
681.50 4.383171
681.60 4.216078
681.70 4.447427
681.80 4.4458
681.90 4.212683
682.00 4.051355
682.10 4.146695
682.20 4.4487
682.30 4.324538
682.40 4.067092
682.50 4.138561
682.60 4.511576
682.70 4.762198
682.80 4.488555
682.90 4.351344
683.00 4.682135
683.10 4.773054
683.20 4.96034
683.30 4.924269
683.40 4.558079
683.50 4.853577
683.60 5.362989
683.70 5.678503
683.80 5.448498
683.90 5.101405
684.00 4.838831
684.10 4.958324
684.20 5.206435
684.30 5.079232
684.40 5.040261
684.50 4.956591
684.60 4.998992
684.70 4.964336
684.80 4.824897
684.90 4.893609
685.00 4.944957
685.10 4.699781
685.20 4.599172
685.30 4.532936
685.40 4.507191
685.50 4.567415
685.60 4.561757
685.70 4.675522
685.80 4.526995
685.90 4.493187
686.00 4.722555
686.10 4.582056
686.20 4.065889
686.30 3.946856
686.40 4.208652
686.50 4.459875
686.60 4.206071
686.70 3.818168
686.80 4.909133
686.90 5.199468
687.00 3.858836
687.10 3.795287
687.20 4.71909
687.30 5.316698
687.40 5.340781
687.50 5.100486
687.60 5.351284
687.70 5.512789
687.80 5.410164
687.90 5.686849
688.00 6.010178
688.10 5.887148
688.20 5.71811
688.30 5.763022
688.40 5.726138
688.50 5.552856
688.60 5.655163
688.70 5.91512
688.80 5.732185
688.90 5.941183
689.00 6.089958
689.10 5.60629
689.20 4.835224
689.30 4.065748
689.40 4.624351
689.50 5.525131
689.60 5.567108
689.70 5.48998
689.80 5.447048
689.90 5.42339
690.00 5.31974
690.10 5.083794
690.20 4.975794
690.30 4.894882
690.40 5.087613
690.50 5.57952
690.60 5.606255
690.70 5.60965
690.80 6.010956
690.90 6.074539
691.00 5.846727
691.10 5.981144
691.20 6.321483
691.30 6.297789
691.40 5.969934
691.50 6.113192
691.60 6.489354
691.70 6.360524
691.80 5.860696
691.90 5.768043
692.00 5.862606
692.10 6.024712
692.20 5.907942
692.30 5.477744
692.40 5.991859
692.50 6.774313
692.60 7.192806
692.70 7.556308
692.80 7.300523
692.90 6.733751
693.00 6.315683
693.10 6.289444
693.20 6.705531
693.30 7.10033
693.40 7.424083
693.50 7.132971
693.60 6.848471
693.70 7.225446
693.80 7.378075
693.90 7.383097
694.00 7.152809
694.10 6.888962
694.20 7.027764
694.30 7.368987
694.40 8.305803
694.50 8.701309
694.60 8.581709
694.70 9.061557
694.80 9.680738
694.90 10.1991
695.00 10.1539
695.10 9.617225
695.20 8.940331
695.30 8.369033
695.40 8.22963
695.50 8.166576
695.60 8.350856
695.70 8.321009
695.80 8.230726
695.90 8.345693
696.00 8.453835
696.10 8.643171
696.20 8.405033
696.30 8.245508
696.40 8.721183
696.50 9.304328
696.60 9.66592
696.70 9.775477
696.80 9.925418
696.90 9.972841
697.00 9.706341
697.10 9.128076
697.20 8.918052
697.30 9.703866
697.40 9.62748
697.50 8.965404
697.60 9.344148
697.70 10.02585
697.80 10.68177
697.90 10.90322
698.00 10.69649
698.10 10.44321
698.20 10.37772
698.30 10.72078
698.40 10.96062
698.50 10.7618
698.60 10.79851
698.70 10.74352
698.80 10.71424
698.90 10.58643
699.00 10.97801
699.10 11.01599
699.20 10.32786
699.30 9.8833
699.40 10.00909
699.50 10.51977
699.60 10.46913
699.70 10.086
699.80 9.718471
699.90 9.756062
700.00 10.24426
700.10 10.38079
700.20 10.07776
700.30 10.02843
700.40 10.37026
700.50 10.56575
700.60 10.40778
700.70 10.34879
700.80 10.594
700.90 10.82072
701.00 11.2587
701.10 11.70541
701.20 11.8638
701.30 11.75569
701.40 11.39014
701.50 11.27479
701.60 11.52767
701.70 11.64274
701.80 11.64356
701.90 11.49326
702.00 11.70463
702.10 12.53755
702.20 12.96477
702.30 12.60173
702.40 11.86433
702.50 11.1728
702.60 11.13443
702.70 11.79926
702.80 12.83124
702.90 13.67226
703.00 14.01999
703.10 14.08322
703.20 13.73227
703.30 13.62943
703.40 13.89759
703.50 14.28189
703.60 14.93477
703.70 15.50777
703.80 15.76553
703.90 15.49083
704.00 14.68037
704.10 14.38964
704.20 14.94938
704.30 15.4747
704.40 15.87031
704.50 16.0419
704.60 15.9932
704.70 15.93026
704.80 15.70085
704.90 15.80613
705.00 15.91664
705.10 16.39285
705.20 16.8153
705.30 16.03437
705.40 14.14022
705.50 11.30212
705.60 8.301241
705.70 6.244921
705.80 5.774869
705.90 5.753332
706.00 5.293075
706.10 5.058757
706.20 5.029193
706.30 5.138148
706.40 5.47152
706.50 5.618986
706.60 5.686106
706.70 5.580228
706.80 5.481599
706.90 5.940865
707.00 6.288206
707.10 6.303518
707.20 6.398611
707.30 6.518458
707.40 6.480089
707.50 6.60372
707.60 6.663944
707.70 6.500812
707.80 6.30762
707.90 6.3003
708.00 6.984019
708.10 7.964368
708.20 7.941063
708.30 7.534594
708.40 7.314138
708.50 7.255823
708.60 7.51564
708.70 7.70243
708.80 7.364743
708.90 6.051305
709.00 4.477663
709.10 3.862018
709.20 4.267426
709.30 4.6647
709.40 4.701231
709.50 4.559741
709.60 4.356684
709.70 4.586865
709.80 4.960128
709.90 4.873416
710.00 4.532193
710.10 4.570527
710.20 4.68309
710.30 4.68659
710.40 4.775742
710.50 4.857503
710.60 4.966564
710.70 4.854461
710.80 4.994961
710.90 5.763623
711.00 6.269357
711.10 6.150925
711.20 5.916287
711.30 5.843474
711.40 6.04982
711.50 6.256485
711.60 6.405967
711.70 6.388709
711.80 6.144595
711.90 6.357695
712.00 6.967363
712.10 7.371498
712.20 7.430237
712.30 7.075717
712.40 6.615248
712.50 6.290045
712.60 5.914731
712.70 5.442628
712.80 4.921864
712.90 4.045485
713.00 3.709213
713.10 4.072821
713.20 4.244794
713.30 4.251265
713.40 4.160416
713.50 4.116247
713.60 4.054608
713.70 3.892714
713.80 3.973095
713.90 4.309933
714.00 4.605891
714.10 4.515961
714.20 4.471262
714.30 4.505388
714.40 4.477132
714.50 4.425112
714.60 4.417545
714.70 4.675486
714.80 4.73129
714.90 4.746355
715.00 4.863444
715.10 4.55525
715.20 4.249744
715.30 4.269088
715.40 4.578166
715.50 5.144266
715.60 5.645438
715.70 5.796263
715.80 5.56198
715.90 5.062293
716.00 5.017134
716.10 5.335512
716.20 5.032305
716.30 4.576751
716.40 4.445093
716.50 4.787129
716.60 5.565304
716.70 5.769352
716.80 5.182423
716.90 4.801275
717.00 4.928937
717.10 5.184651
717.20 5.535139
717.30 5.854932
717.40 5.888739
717.50 5.98362
717.60 6.073584
717.70 5.795309
717.80 5.532946
717.90 5.327378
718.00 5.338447
718.10 5.756692
718.20 6.186748
718.30 6.404587
718.40 6.349102
718.50 6.251039
718.60 6.49579
718.70 6.860742
718.80 7.032998
718.90 7.181136
719.00 7.480453
719.10 7.507577
719.20 7.363541
719.30 7.33525
719.40 7.237753
719.50 7.411458
719.60 7.27011
719.70 6.898333
719.80 6.5459
719.90 5.676381
720.00 5.362105
720.10 5.933403
720.20 6.338811
720.30 6.55025
720.40 6.287074
720.50 6.016119
720.60 6.309353
720.70 6.316674
720.80 6.225223
720.90 6.33775
721.00 6.482529
721.10 6.376226
721.20 6.267943
721.30 6.529774
721.40 7.191639
721.50 7.61197
721.60 7.120098
721.70 6.641806
721.80 7.005556
721.90 7.638669
722.00 7.811243
722.10 7.595101
722.20 7.349997
722.30 7.428539
722.40 7.960902
722.50 8.36196
722.60 8.351104
722.70 8.588393
722.80 9.063891
722.90 9.07496
723.00 8.606782
723.10 8.143237
723.20 7.946226
723.30 8.130753
723.40 8.495634
723.50 8.892873
723.60 9.069939
723.70 8.959816
723.80 9.058092
723.90 9.762711
724.00 9.899568
724.10 8.889372
724.20 8.208164
724.30 8.347072
724.40 9.842066
724.50 10.81764
724.60 10.01422
724.70 9.61436
724.80 10.10365
724.90 10.72665
725.00 11.06939
725.10 11.13128
725.20 11.26389
725.30 11.34859
725.40 11.4568
725.50 11.76351
725.60 12.18808
725.70 12.66807
725.80 12.3282
725.90 11.53888
726.00 11.54408
726.10 11.77872
726.20 11.96204
726.30 12.46661
726.40 13.05
726.50 13.63986
726.60 13.85314
726.70 13.32138
726.80 13.22982
726.90 13.57766
727.00 13.43338
727.10 13.16918
727.20 12.99519
727.30 12.7167
727.40 12.76409
727.50 13.35961
727.60 14.22849
727.70 14.66813
727.80 12.41901
727.90 10.38334
728.00 11.82048
728.10 13.46131
728.20 13.52967
728.30 13.23046
728.40 13.44954
728.50 14.25045
728.60 14.45252
728.70 14.2095
728.80 14.48484
728.90 15.14229
729.00 15.83736
729.10 16.10729
729.20 16.04448
729.30 15.91059
729.40 15.75708
729.50 16.05852
729.60 16.41923
729.70 17.02083
729.80 17.55387
729.90 17.28754
730.00 17.14719
730.10 17.43543
730.20 17.82656
730.30 18.32829
730.40 18.8962
730.50 19.24396
730.60 19.4315
730.70 19.11637
730.80 18.64865
730.90 19.25192
731.00 20.03062
731.10 20.07992
731.20 19.68944
731.30 19.71943
731.40 21.01865
731.50 22.46618
731.60 22.24346
731.70 21.03866
731.80 21.17273
731.90 22.157
732.00 22.36554
732.10 22.28424
732.20 22.46983
732.30 22.70765
732.40 22.80253
732.50 22.47658
732.60 22.0299
732.70 21.74887
732.80 21.7058
732.90 22.27006
733.00 22.70959
733.10 23.1888
733.20 23.31296
733.30 22.86806
733.40 22.43722
733.50 22.13988
733.60 22.95102
733.70 24.45142
733.80 25.24947
733.90 25.81037
734.00 27.09591
734.10 28.10041
734.20 28.00917
734.30 27.0156
734.40 25.38138
734.50 23.82054
734.60 22.99943
734.70 22.60272
734.80 22.47096
734.90 23.0412
735.00 24.04775
735.10 24.97929
735.20 25.43846
735.30 25.31864
735.40 25.01077
735.50 24.68054
735.60 24.33002
735.70 23.70571
735.80 23.13201
735.90 23.78938
736.00 24.93795
736.10 25.12772
736.20 24.99814
736.30 25.05423
736.40 25.51834
736.50 26.6411
736.60 27.45174
736.70 27.49357
736.80 27.46698
736.90 28.19427
737.00 28.98432
737.10 28.34863
737.20 27.65861
737.30 27.76428
737.40 27.78016
737.50 27.42217
737.60 26.35419
737.70 25.55901
737.80 25.72196
737.90 26.47945
738.00 27.32118
738.10 27.83006
738.20 28.03478
738.30 27.72273
738.40 27.23977
738.50 27.0295
738.60 27.17176
738.70 27.82376
738.80 28.6182
738.90 29.58869
739.00 30.53459
739.10 30.76463
739.20 30.43119
739.30 29.20474
739.40 27.46776
739.50 25.99317
739.60 25.03573
739.70 25.10529
739.80 25.80832
739.90 27.04078
740.00 28.08004
740.10 27.97547
740.20 28.06091
740.30 29.05809
740.40 29.66026
740.50 28.98797
740.60 26.66348
740.70 25.03213
740.80 25.50126
740.90 26.35547
741.00 27.16045
741.10 27.8024
741.20 28.13705
741.30 28.63762
741.40 29.20733
741.50 29.13472
741.60 28.19982
741.70 27.09686
741.80 26.50728
741.90 26.15835
742.00 25.60877
742.10 25.1605
742.20 25.11035
742.30 25.74983
742.40 26.73255
742.50 27.57696
742.60 28.08181
742.70 28.23624
742.80 28.68706
742.90 29.07517
743.00 29.18384
743.10 29.21206
743.20 28.74764
743.30 28.14667
743.40 27.48961
743.50 26.78061
743.60 26.15163
743.70 25.5855
743.80 25.60399
743.90 26.18551
744.00 26.74924
744.10 27.33935
744.20 27.91182
744.30 27.15182
744.40 25.90815
744.50 25.55321
744.60 25.4851
744.70 25.71327
744.80 25.70973
744.90 25.02265
745.00 24.87915
745.10 25.99405
745.20 27.06967
745.30 27.20423
745.40 26.9762
745.50 26.5592
745.60 26.19633
745.70 25.95908
745.80 25.79853
745.90 26.00558
746.00 26.2022
746.10 26.39352
746.20 26.50714
746.30 26.68721
746.40 27.11518
746.50 27.58665
746.60 27.99938
746.70 28.1641
746.80 27.93647
746.90 27.27163
747.00 27.00425
747.10 27.8528
747.20 29.21999
747.30 29.05272
747.40 27.42023
747.50 26.00784
747.60 25.26966
747.70 25.79287
747.80 27.0726
747.90 27.71148
748.00 27.66006
748.10 28.05624
748.20 28.64802
748.30 29.05502
748.40 29.90862
748.50 30.66841
748.60 30.71657
748.70 30.28411
748.80 29.65793
748.90 29.35946
749.00 29.79072
749.10 29.83305
749.20 29.20248
749.30 28.78059
749.40 28.30421
749.50 27.77238
749.60 27.57187
749.70 27.69759
749.80 28.11816
749.90 28.81221
750.00 29.94285
750.10 30.84282
750.20 31.0137
750.30 31.21438
750.40 31.54022
750.50 31.42218
750.60 30.8587
750.70 30.06369
750.80 29.61673
750.90 30.11946
751.00 31.26729
751.10 32.34669
751.20 32.53359
751.30 31.43859
751.40 30.26183
751.50 30.30978
751.60 30.76548
751.70 30.95722
751.80 30.93784
751.90 30.81807
752.00 30.749
752.10 30.58622
752.20 30.43426
752.30 30.80823
752.40 32.10176
752.50 32.63052
752.60 31.61265
752.70 30.53601
752.80 29.903
752.90 29.97772
753.00 30.92794
753.10 32.09784
753.20 33.18077
753.30 33.81941
753.40 33.30861
753.50 32.19095
753.60 31.54952
753.70 31.70438
753.80 32.83966
753.90 34.37981
754.00 35.53896
754.10 36.1267
754.20 35.86855
754.30 35.22518
754.40 35.27787
754.50 35.66167
754.60 36.00505
754.70 36.01071
754.80 35.33802
754.90 34.68122
755.00 34.43876
755.10 34.91207
755.20 35.70941
755.30 35.80701
755.40 35.24622
755.50 34.78264
755.60 34.82373
755.70 35.01133
755.80 35.44843
755.90 36.37814
756.00 37.27778
756.10 37.98612
756.20 37.91044
756.30 37.13209
756.40 36.85201
756.50 36.34242
756.60 35.34184
756.70 34.77436
756.80 34.28451
756.90 33.75483
757.00 33.36215
757.10 33.28124
757.20 34.24363
757.30 36.62533
757.40 38.73688
757.50 38.47307
757.60 36.9291
757.70 36.03087
757.80 35.66733
757.90 35.60721
758.00 35.96155
758.10 36.72823
758.20 37.88604
758.30 38.76836
758.40 38.94588
758.50 38.94411
758.60 38.64034
758.70 36.80321
758.80 33.38479
758.90 29.29287
759.00 25.12736
759.10 21.44188
759.20 18.49351
759.30 17.07862
759.40 17.79979
759.50 19.16984
759.60 20.26448
759.70 20.66759
759.80 19.69952
759.90 19.46665
760.00 21.02278
760.10 22.7254
760.20 23.07815
760.30 21.58004
760.40 20.07373
760.50 20.36884
760.60 20.92582
760.70 20.70147
760.80 20.35972
760.90 20.3693
761.00 20.66526
761.10 21.54532
761.20 22.81961
761.30 24.24412
761.40 25.37126
761.50 25.12291
761.60 24.22481
761.70 23.96068
761.80 24.71269
761.90 26.22147
762.00 27.51338
762.10 27.64712
762.20 26.70433
762.30 25.21566
762.40 23.94707
762.50 23.47719
762.60 23.00767
762.70 22.0269
762.80 20.39261
762.90 17.59362
763.00 14.97431
763.10 13.84688
763.20 14.25233
763.30 15.47354
763.40 16.13066
763.50 15.95515
763.60 15.23214
763.70 14.72885
763.80 15.19802
763.90 15.607
764.00 15.13999
764.10 14.78907
764.20 14.90782
764.30 15.2406
764.40 15.58787
764.50 15.56293
764.60 15.13196
764.70 14.77571
764.80 14.57951
764.90 14.34643
765.00 14.09047
765.10 13.73241
765.20 13.53745
765.30 13.75929
765.40 13.7665
765.50 13.03352
765.60 11.72104
765.70 10.67838
765.80 10.38055
765.90 10.35968
766.00 10.12918
766.10 9.349204
766.20 8.199535
766.30 6.911206
766.40 5.839407
766.50 5.052674
766.60 4.512496
766.70 4.502488
766.80 5.022191
766.90 5.98613
767.00 6.790192
767.10 7.006652
767.20 7.046294
767.30 7.22237
767.40 7.545345
767.50 8.026855
767.60 8.493336
767.70 8.861753
767.80 9.049711
767.90 9.054838
768.00 9.340222
768.10 10.11115
768.20 10.75349
768.30 10.83168
768.40 10.81909
768.50 10.8692
768.60 10.82514
768.70 10.66494
768.80 10.28057
768.90 10.00513
769.00 10.14255
769.10 10.51086
769.20 10.63039
769.30 10.35707
769.40 9.973654
769.50 9.428843
769.60 8.692786
769.70 7.857994
769.80 6.98699
769.90 6.032598
770.00 4.987605
770.10 4.826701
770.20 5.734554
770.30 6.759213
770.40 7.475219
770.50 7.92225
770.60 8.328365
770.70 8.702334
770.80 9.227448
770.90 9.872656
771.00 10.32722
771.10 11.0469
771.20 11.44301
771.30 11.34558
771.40 12.18232
771.50 12.81869
771.60 12.26716
771.70 11.82723
771.80 11.63599
771.90 12.37961
772.00 13.66543
772.10 13.56737
772.20 13.06931
772.30 13.86952
772.40 14.98934
772.50 15.26185
772.60 15.17684
772.70 14.85962
772.80 14.54326
772.90 15.04054
773.00 16.30377
773.10 17.80778
773.20 18.73699
773.30 18.70053
773.40 18.35651
773.50 18.12258
773.60 18.04645
773.70 18.39106
773.80 19.07164
773.90 19.80274
774.00 20.5046
774.10 20.78412
774.20 20.34911
774.30 19.86046
774.40 19.42552
774.50 18.11081
774.60 16.35352
774.70 15.73187
774.80 15.87601
774.90 15.75142
775.00 15.22907
775.10 13.94912
775.20 13.00636
775.30 13.85141
775.40 15.03054
775.50 15.12156
775.60 14.6874
775.70 14.36432
775.80 14.36715
775.90 14.76559
776.00 15.20361
776.10 15.29534
776.20 14.99323
776.30 14.44916
776.40 14.5172
776.50 15.28544
776.60 15.61404
776.70 15.53019
776.80 16.05385
776.90 16.88995
777.00 17.47716
777.10 17.83115
777.20 17.85509
777.30 17.89569
777.40 18.34962
777.50 18.89659
777.60 19.14222
777.70 19.00162
777.80 18.6262
777.90 18.88283
778.00 19.66801
778.10 19.98168
778.20 19.6395
778.30 18.29014
778.40 16.48454
778.50 15.40642
778.60 15.15148
778.70 15.30294
778.80 15.71719
778.90 16.15987
779.00 16.47369
779.10 17.50054
779.20 18.90603
779.30 19.97521
779.40 20.35367
779.50 19.66539
779.60 19.23212
779.70 19.12486
779.80 18.15537
779.90 17.3373
780.00 16.66058
780.10 15.34046
780.20 14.78869
780.30 15.68055
780.40 17.44944
780.50 19.64544
780.60 21.11561
780.70 21.47629
780.80 21.75813
780.90 22.44882
781.00 22.65213
781.10 22.24799
781.20 22.23908
781.30 22.52924
781.40 22.96721
781.50 23.52843
781.60 23.64379
781.70 23.73001
781.80 24.14659
781.90 24.9039
782.00 25.18458
782.10 23.2903
782.20 21.30301
782.30 20.95779
782.40 20.56727
782.50 20.56062
782.60 20.56345
782.70 20.08685
782.80 20.03692
782.90 19.62737
783.00 18.45143
783.10 17.60083
783.20 17.72047
783.30 18.52095
783.40 19.4124
783.50 19.97624
783.60 20.24747
783.70 20.29111
783.80 20.36923
783.90 20.59637
784.00 20.56568
784.10 20.57296
784.20 20.87231
784.30 20.88929
784.40 20.7949
784.50 21.08227
784.60 21.66541
784.70 22.37381
784.80 22.88949
784.90 22.80447
785.00 22.03337
785.10 21.3929
785.20 21.64932
785.30 22.20672
785.40 22.55279
785.50 22.47163
785.60 21.94627
785.70 21.98294
785.80 22.32169
785.90 22.67232
786.00 23.22742
786.10 22.93482
786.20 22.04274
786.30 21.69551
786.40 21.851
786.50 21.73271
786.60 21.31666
786.70 20.99432
786.80 20.57696
786.90 20.69832
787.00 21.25834
787.10 21.49651
787.20 21.45132
787.30 20.75409
787.40 20.27806
787.50 20.78104
787.60 21.40213
787.70 21.79318
787.80 22.12008
787.90 22.51092
788.00 22.8218
788.10 23.16055
788.20 23.9859
788.30 24.64168
788.40 24.57923
788.50 24.50037
788.60 24.67103
788.70 25.17185
788.80 25.92594
788.90 26.16061
789.00 25.79046
789.10 25.26005
789.20 24.86677
789.30 25.18101
789.40 26.05608
789.50 26.48557
789.60 26.00869
789.70 25.0281
789.80 23.94219
789.90 22.75019
790.00 21.84676
790.10 21.4585
790.20 21.41705
790.30 21.98708
790.40 22.93521
790.50 23.71646
790.60 24.25887
790.70 24.13131
790.80 23.21455
790.90 22.38018
791.00 22.15566
791.10 22.01109
791.20 21.94843
791.30 21.74077
791.40 21.0655
791.50 21.07152
791.60 21.25852
791.70 21.278
791.80 21.93166
791.90 21.99871
792.00 21.00691
792.10 20.0058
792.20 19.62614
792.30 20.19655
792.40 21.29558
792.50 22.28742
792.60 22.68834
792.70 22.61043
792.80 22.81596
792.90 23.19595
793.00 23.39996
793.10 23.50594
793.20 23.72891
793.30 24.79742
793.40 26.17943
793.50 26.98462
793.60 27.27718
793.70 26.87312
793.80 26.49459
793.90 26.40858
794.00 25.3364
794.10 23.53024
794.20 22.15516
794.30 21.54051
794.40 21.83105
794.50 22.56368
794.60 23.09353
794.70 22.62638
794.80 20.3675
794.90 18.28922
795.00 18.75195
795.10 21.04994
795.20 23.25812
795.30 24.54323
795.40 25.51615
795.50 26.63792
795.60 27.48745
795.70 27.8384
795.80 27.45782
795.90 26.68035
796.00 26.31116
796.10 25.62786
796.20 24.07848
796.30 23.37991
796.40 24.40602
796.50 25.35952
796.60 25.05561
796.70 24.42158
796.80 24.48056
796.90 25.83456
797.00 28.01851
797.10 29.17649
797.20 29.00989
797.30 28.91982
797.40 28.68847
797.50 27.54096
797.60 26.41261
797.70 25.89602
797.80 25.68345
797.90 25.54267
798.00 25.28777
798.10 25.20997
798.20 25.41377
798.30 25.4219
798.40 25.099
798.50 24.61933
798.60 24.10627
798.70 23.75671
798.80 23.78906
798.90 23.97663
799.00 24.04474
799.10 24.24267
799.20 24.96264
799.30 26.26122
799.40 27.1109
799.50 26.31459
799.60 25.0728
799.70 24.7802
799.80 25.02488
799.90 25.41154
800.00 25.79973
800.10 26.35557
800.20 27.03696
800.30 27.70841
800.40 28.46013
800.50 28.61347
800.60 28.28985
800.70 28.542
800.80 29.45059
800.90 30.39169
801.00 30.6944
801.10 30.55998
801.20 30.52303
801.30 30.70285
801.40 31.05129
801.50 30.8581
801.60 30.30943
801.70 30.62074
801.80 31.70452
801.90 32.66542
802.00 33.01234
802.10 32.69042
802.20 32.06668
802.30 31.51678
802.40 31.45443
802.50 31.72691
802.60 32.05257
802.70 33.07285
802.80 34.54376
802.90 35.69138
803.00 36.52313
803.10 36.88313
803.20 36.72647
803.30 36.40183
803.40 36.28195
803.50 36.48847
803.60 37.11723
803.70 37.52533
803.80 36.89763
803.90 36.27982
804.00 36.40148
804.10 36.45487
804.20 36.56238
804.30 37.30537
804.40 38.17849
804.50 38.65024
804.60 38.44054
804.70 37.5172
804.80 37.25727
804.90 38.50808
805.00 40.13976
805.10 41.2141
805.20 41.98786
805.30 42.83481
805.40 43.29454
805.50 43.43776
805.60 43.76664
805.70 44.07855
805.80 44.51635
805.90 44.7158
806.00 44.307
806.10 44.5404
806.20 45.53624
806.30 46.08119
806.40 45.82197
806.50 45.38276
806.60 45.36295
806.70 45.56311
806.80 45.77671
806.90 46.01435
807.00 45.67062
807.10 45.10798
807.20 45.57973
807.30 46.79659
807.40 47.843
807.50 48.54108
807.60 48.91734
807.70 49.03404
807.80 49.45522
807.90 50.61055
808.00 51.48156
808.10 50.8878
808.20 50.13809
808.30 50.90195
808.40 52.0014
808.50 52.74262
808.60 53.71972
808.70 54.1271
808.80 53.71158
808.90 53.08105
809.00 52.33453
809.10 52.24576
809.20 53.47076
809.30 55.10066
809.40 55.74923
809.50 55.21842
809.60 54.79547
809.70 54.5794
809.80 54.0875
809.90 53.93084
810.00 53.95736
810.10 53.96125
810.20 54.16706
810.30 53.95948
810.40 53.15284
810.50 52.72494
810.60 53.44282
810.70 55.22974
810.80 56.96114
810.90 57.89792
811.00 58.64091
811.10 59.1215
811.20 58.98818
811.30 58.81313
811.40 58.85733
811.50 59.29089
811.60 59.70677
811.70 59.13741
811.80 58.16527
811.90 58.21407
812.00 59.4136
812.10 60.62445
812.20 61.34198
812.30 61.67722
812.40 61.67652
812.50 62.04217
812.60 62.66422
812.70 62.8131
812.80 63.08752
812.90 63.97621
813.00 64.54804
813.10 64.33798
813.20 64.14701
813.30 64.24532
813.40 64.72839
813.50 65.90281
813.60 66.70062
813.70 66.68399
813.80 66.90183
813.90 67.17449
814.00 67.00934
814.10 66.84985
814.20 66.43185
814.30 65.57605
814.40 64.57173
814.50 63.72654
814.60 63.63636
814.70 64.03244
814.80 64.15833
814.90 63.78631
815.00 63.78383
815.10 65.03994
815.20 66.40639
815.30 66.90113
815.40 66.97681
815.50 66.62105
815.60 65.94949
815.70 65.7557
815.80 65.81936
815.90 65.41621
816.00 64.95083
816.10 64.55193
816.20 63.87684
816.30 63.62611
816.40 64.48085
816.50 66.06336
816.60 67.52494
816.70 68.3482
816.80 68.7853
816.90 69.25033
817.00 69.75391
817.10 70.54923
817.20 70.96192
817.30 70.32114
817.40 70.01383
817.50 69.8996
817.60 68.98404
817.70 67.58294
817.80 65.6337
817.90 63.86234
818.00 63.03412
818.10 61.29176
818.20 56.26412
818.30 48.28115
818.40 40.29748
818.50 36.39582
818.60 38.17107
818.70 43.89183
818.80 50.81
818.90 55.93453
819.00 58.30778
819.10 58.77423
819.20 57.45941
819.30 53.60514
819.40 47.39459
819.50 40.58039
819.60 35.20827
819.70 33.19817
819.80 34.94708
819.90 39.0937
820.00 43.82146
820.10 47.85856
820.20 51.22057
820.30 54.2438
820.40 56.69627
820.50 58.31981
820.60 58.70562
820.70 56.91304
820.80 53.67834
820.90 52.11669
821.00 53.58639
821.10 56.2521
821.20 58.86052
821.30 60.43243
821.40 59.9094
821.50 58.63207
821.60 57.86574
821.70 57.24829
821.80 56.79245
821.90 57.01242
822.00 57.93328
822.10 59.36515
822.20 61.14712
822.30 62.64583
822.40 63.64662
822.50 64.1898
822.60 64.05542
822.70 63.85173
822.80 63.99672
822.90 64.51232
823.00 65.62344
823.10 66.81873
823.20 67.6084
823.30 67.96133
823.40 67.30887
823.50 65.8427
823.60 64.97629
823.70 65.39959
823.80 66.83394
823.90 68.52962
824.00 69.70121
824.10 70.36145
824.20 70.79642
824.30 70.75964
824.40 70.14892
824.50 69.64003
824.60 69.91163
824.70 71.08994
824.80 72.96881
824.90 74.59942
825.00 74.69738
825.10 72.82841
825.20 69.66974
825.30 66.53724
825.40 64.54026
825.50 63.77817
825.60 63.27566
825.70 62.48811
825.80 61.71895
825.90 61.89011
826.00 63.78277
826.10 66.23983
826.20 68.11198
826.30 69.34298
826.40 69.92011
826.50 70.59909
826.60 71.3053
826.70 71.16456
826.80 70.43819
826.90 69.46145
827.00 68.43237
827.10 67.58789
827.20 66.36749
827.30 64.14418
827.40 61.47211
827.50 60.27011
827.60 61.58987
827.70 63.58261
827.80 64.28104
827.90 63.9999
828.00 63.17628
828.10 61.90602
828.20 60.70013
828.30 59.48999
828.40 58.59246
828.50 59.38779
828.60 61.17718
828.70 61.80807
828.80 60.68103
828.90 57.47391
829.00 53.23276
829.10 51.1166
829.20 51.93845
829.30 54.00262
829.40 55.56428
829.50 55.73332
829.60 55.64668
829.70 56.4901
829.80 57.4046
829.90 57.71721
830.00 49.9687
830.10 49.89833
830.20 49.82796
830.30 50.13792
830.40 50.44788
830.50 50.96383
830.60 51.47979
830.70 52.14887
830.80 52.81794
830.90 54.20119
831.00 55.58444
831.10 56.92595
831.20 58.26747
831.30 57.28613
831.40 56.30479
831.50 56.90314
831.60 57.50149
831.70 57.95026
831.80 58.39902
831.90 58.22203
832.00 58.04503
832.10 58.13592
832.20 58.2268
832.30 57.96299
832.40 57.69918
832.50 56.84709
832.60 55.99501
832.70 56.72314
832.80 57.45128
832.90 59.86855
833.00 62.28583
833.10 59.23643
833.20 56.18703
833.30 56.87538
833.40 57.56373
833.50 56.86902
833.60 56.1743
833.70 55.78035
833.80 55.3864
833.90 56.99297
834.00 58.59953
834.10 58.67468
834.20 58.74983
834.30 59.4357
834.40 60.12158
834.50 55.8173
834.60 51.51303
834.70 50.73008
834.80 49.94713
834.90 51.54663
835.00 53.14612
835.10 54.84923
835.20 56.55234
835.30 56.94912
835.40 57.34589
835.50 57.12558
835.60 56.90526
835.70 58.49503
835.80 60.0848
835.90 59.34058
836.00 58.59635
836.10 58.74576
836.20 58.89517
836.30 59.70199
836.40 60.50881
836.50 60.72877
836.60 60.94873
836.70 61.46928
836.80 61.98984
836.90 63.67668
837.00 65.36352
837.10 61.46451
837.20 57.5655
837.30 59.07234
837.40 60.57918
837.50 58.8789
837.60 57.17862
837.70 56.25882
837.80 55.33901
837.90 56.53289
838.00 57.72676
838.10 59.80437
838.20 61.88198
838.30 59.60916
838.40 57.33635
838.50 57.58389
838.60 57.83144
838.70 56.54579
838.80 55.26015
838.90 52.88531
839.00 50.51047
839.10 50.96684
839.20 51.42321
839.30 52.77569
839.40 54.12816
839.50 55.62457
839.60 57.12098
839.70 58.32334
839.80 59.5257
839.90 61.33632
840.00 63.14693
840.10 55.69526
840.20 58.63943
840.30 60.0156
840.40 60.15979
840.50 60.60143
840.60 62.03889
840.70 63.47635
840.80 63.55315
840.90 63.47876
841.00 66.99203
841.10 73.10324
841.20 76.32546
841.30 70.88069
841.40 65.43592
841.50 60.71193
841.60 56.05062
841.70 59.35084
841.80 68.18365
841.90 72.89285
842.00 66.45304
842.10 60.01323
842.20 57.61122
842.30 55.46695
842.40 53.98632
842.50 52.92998
842.60 52.61327
842.70 54.10734
842.80 55.60141
842.90 56.19343
843.00 56.74786
843.10 57.58124
843.20 58.57843
843.30 58.47082
843.40 55.90416
843.50 53.33749
843.60 49.84135
843.70 46.32625
843.80 43.77464
843.90 41.74185
844.00 42.54233
844.10 49.09521
844.20 55.64809
844.30 48.37868
844.40 41.10927
844.50 35.48032
844.60 30.65937
844.70 28.83506
844.80 32.57593
844.90 36.29948
845.00 39.17398
845.10 42.04849
845.20 38.92578
845.30 33.23282
845.40 29.77974
845.50 30.14049
845.60 30.50014
845.70 30.83335
845.80 31.16656
845.90 31.44033
846.00 31.69099
846.10 32.79153
846.20 35.22137
846.30 37.575
846.40 38.91608
846.50 40.25717
846.60 35.00043
846.70 27.42554
846.80 25.81801
846.90 32.4511
847.00 38.06468
847.10 33.36983
847.20 28.67499
847.30 29.34877
847.40 31.62617
847.50 32.88109
847.60 32.83469
847.70 32.91682
847.80 33.94145
847.90 34.96608
848.00 35.71863
848.10 36.39884
848.20 36.86857
848.30 37.10093
848.40 37.24418
848.50 36.83993
848.60 36.43569
848.70 36.27793
848.80 36.17426
848.90 35.4058
849.00 33.94541
849.10 32.83448
849.20 33.42974
849.30 34.025
849.40 33.65753
849.50 33.10668
849.60 33.77882
849.70 35.57987
849.80 36.78663
849.90 35.45979
850.00 34.13296
850.10 38.69262
850.20 44.13187
850.30 44.58979
850.40 40.80437
850.50 38.15522
850.60 39.5347
850.70 40.91419
850.80 37.0315
850.90 32.56413
851.00 31.52911
851.10 33.08341
851.20 35.0632
851.30 38.31942
851.40 41.57565
851.50 40.99698
851.60 40.08485
851.70 36.68667
851.80 31.63113
851.90 28.41693
852.00 29.93763
852.10 31.45832
852.20 30.67955
852.30 29.77977
852.40 31.7462
852.50 35.39598
852.60 38.48886
852.70 40.34218
852.80 42.19551
852.90 40.3084
853.00 38.34496
853.10 37.34993
853.20 36.85377
853.30 37.0539
853.40 38.60565
853.50 40.1203
853.60 37.96208
853.70 35.80387
853.80 37.11621
853.90 39.9878
854.00 41.42424
854.10 40.41706
854.20 39.44947
854.30 39.4321
854.40 39.41472
854.50 40.89377
854.60 42.95476
854.70 43.38537
854.80 41.37041
854.90 39.55287
855.00 40.35831
855.10 41.16375
855.20 41.54093
855.30 41.77537
855.40 42.43794
855.50 43.66804
855.60 44.45464
855.70 41.65288
855.80 38.85111
855.90 38.83217
856.00 39.59812
856.10 39.2253
856.20 37.51566
856.30 36.08467
856.40 36.36545
856.50 36.64622
856.60 39.26204
856.70 42.39042
856.80 43.91434
856.90 43.76832
857.00 43.01834
857.10 39.31964
857.20 35.62095
857.30 33.85288
857.40 32.4255
857.50 33.71924
857.60 37.42604
857.70 40.53303
857.80 41.38357
857.90 42.23412
858.00 42.12935
858.10 41.8943
858.20 41.73847
858.30 41.64488
858.40 41.17415
858.50 39.50917
858.60 37.84419
858.70 41.47138
858.80 45.55877
858.90 47.59204
859.00 48.25591
859.10 48.42857
859.20 47.27315
859.30 46.11774
859.40 44.49344
859.50 42.84446
859.60 43.99304
859.70 46.78463
859.80 48.60512
859.90 48.26413
860.00 47.92315
860.10 48.29142
860.20 48.66685
860.30 51.30819
860.40 55.06556
860.50 55.42784
860.60 49.48494
860.70 43.74533
860.80 44.57918
860.90 45.41304
861.00 45.00773
861.10 44.07136
861.20 43.69221
861.30 44.2222
861.40 44.65212
861.50 43.51408
861.60 42.37604
861.70 43.07571
861.80 44.42105
861.90 44.86914
862.00 44.07819
862.10 43.54257
862.20 45.30495
862.30 47.06734
862.40 48.30302
862.50 49.39014
862.60 48.71066
862.70 45.95733
862.80 43.90938
862.90 46.19445
863.00 48.47951
863.10 46.5041
863.20 43.59347
863.30 43.04671
863.40 44.86381
863.50 45.98744
863.60 43.95191
863.70 41.91637
863.80 43.25388
863.90 45.1405
864.00 46.59237
864.10 47.67392
864.20 47.81929
864.30 44.44283
864.40 41.06637
864.50 44.53692
864.60 48.85372
864.70 48.27916
864.80 44.16257
864.90 41.52968
865.00 43.34792
865.10 45.16616
865.20 43.39466
865.30 41.39403
865.40 41.38207
865.50 42.58899
865.60 44.1311
865.70 46.49388
865.80 48.85665
865.90 49.47514
866.00 50.05803
866.10 50.41929
866.20 50.66637
866.30 50.52067
866.40 49.6125
866.50 48.70789
866.60 47.97775
866.70 47.24762
866.80 46.50414
866.90 45.75496
867.00 46.349
867.10 49.13464
867.20 51.48352
867.30 46.98976
867.40 42.496
867.50 43.34387
867.60 46.06855
867.70 49.22958
867.80 52.9932
867.90 56.22757
868.00 54.69855
868.10 53.16953
868.20 49.56129
868.30 45.36659
868.40 44.87052
868.50 48.7163
868.60 51.68511
868.70 49.26676
868.80 46.84842
868.90 48.52886
869.00 51.04882
869.10 50.11772
869.20 45.87089
869.30 41.97018
869.40 39.54504
869.50 37.11989
869.60 37.97347
869.70 39.31698
869.80 39.22782
869.90 37.96647
870.00 37.4309
870.10 39.32514
870.20 41.21938
870.30 42.58957
870.40 43.90792
870.50 44.32832
870.60 44.12472
870.70 44.53074
870.80 46.50439
870.90 48.47804
871.00 44.6091
871.10 40.49672
871.20 41.28508
871.30 44.83013
871.40 46.20834
871.50 42.98202
871.60 39.75571
871.70 42.04489
871.80 44.33407
871.90 44.87631
872.00 44.59646
872.10 44.38542
872.20 44.29152
872.30 44.11644
872.40 42.39887
872.50 40.6813
872.60 41.4656
872.70 43.17524
872.80 44.79396
872.90 46.28182
873.00 47.77582
873.10 49.33197
873.20 50.88812
873.30 50.30274
873.40 49.11334
873.50 48.31862
873.60 47.98724
873.70 47.3919
873.80 45.17513
873.90 42.95835
874.00 44.41132
874.10 46.66984
874.20 48.29076
874.30 49.29908
874.40 50.74466
874.50 54.05435
874.60 57.36404
874.70 57.76805
874.80 57.73787
874.90 56.49978
875.00 54.27341
875.10 52.58059
875.20 52.57739
875.30 52.57419
875.40 53.70479
875.50 54.93398
875.60 53.2423
875.70 49.60337
875.80 48.06513
875.90 51.66992
876.00 55.27472
876.10 55.74363
876.20 56.11556
876.30 55.12416
876.40 53.39866
876.50 51.95078
876.60 51.06654
876.70 50.23205
876.80 51.8353
876.90 53.43854
877.00 54.93115
877.10 56.37633
877.20 57.75669
877.30 59.03131
877.40 60.53091
877.50 65.01949
877.60 69.50807
877.70 68.59849
877.80 65.88952
877.90 64.00915
878.00 63.22717
878.10 62.35608
878.20 60.83148
878.30 59.30689
878.40 60.452
878.50 62.26453
878.60 64.91369
878.70 68.46918
878.80 71.48535
878.90 71.86841
879.00 72.25146
879.10 70.96095
879.20 69.3751
879.30 67.83673
879.40 66.33881
879.50 65.41044
879.60 66.50138
879.70 67.59231
879.80 67.97696
879.90 68.28314
880.00 68.49906
880.10 68.65225
880.20 67.86564
880.30 64.5381
880.40 61.21056
880.50 60.41194
880.60 59.71869
880.70 60.25736
880.80 61.48899
880.90 61.33242
881.00 58.22594
881.10 55.21972
881.20 62.1397
881.30 69.05968
881.40 72.27492
881.50 73.82571
881.60 75.3216
881.70 76.72791
881.80 78.05055
881.90 78.06244
882.00 78.07433
882.10 75.18524
882.20 71.27688
882.30 67.90319
882.40 65.23828
882.50 62.34292
882.60 57.58307
882.70 52.82323
882.80 56.16867
882.90 61.54042
883.00 66.05293
883.10 69.6346
883.20 72.83802
883.30 74.19463
883.40 75.55125
883.50 74.90529
883.60 73.90592
883.70 73.44531
883.80 73.44363
883.90 74.63778
884.00 80.07167
884.10 85.50557
884.20 82.41575
884.30 78.48292
884.40 76.88682
884.50 76.91452
884.60 75.79982
884.70 71.74749
884.80 67.69517
884.90 62.17016
885.00 56.58379
885.10 57.84545
885.20 62.79452
885.30 68.35285
885.40 75.14817
885.50 81.80023
885.60 81.43334
885.70 81.06644
885.80 76.25484
885.90 69.53837
886.00 64.48279
886.10 62.02502
886.20 59.4461
886.30 55.25759
886.40 51.06907
886.50 50.78984
886.60 51.74511
886.70 54.02985
886.80 58.00665
886.90 61.06033
887.00 57.9363
887.10 54.81226
887.20 52.08574
887.30 49.45245
887.40 47.44569
887.50 46.06544
887.60 45.28308
887.70 47.2244
887.80 49.16572
887.90 51.55682
888.00 54.01512
888.10 55.60065
888.20 56.50044
888.30 56.42447
888.40 53.25859
888.50 50.09271
888.60 51.17117
888.70 52.5691
888.80 51.37239
888.90 48.51683
889.00 48.61558
889.10 55.60777
889.20 62.59996
889.30 62.10414
889.40 61.53268
889.50 58.84345
889.60 55.11114
889.70 53.49647
889.80 55.64648
889.90 57.801
890.00 60.06365
890.10 62.32631
890.20 63.75024
890.30 64.86397
890.40 67.79231
890.50 73.22656
890.60 78.13925
890.70 78.35786
890.80 78.57647
890.90 73.46339
891.00 66.93302
891.10 63.88255
891.20 64.75623
891.30 65.33691
891.40 64.37934
891.50 63.42177
891.60 63.59323
891.70 63.96394
891.80 64.99174
891.90 66.60223
892.00 67.85428
892.10 67.83545
892.20 67.81662
892.30 66.65919
892.40 65.38915
892.50 64.75788
892.60 64.57049
892.70 65.29626
892.80 68.37014
892.90 71.44401
893.00 70.57339
893.10 69.58077
893.20 71.08649
893.30 73.93746
893.40 76.22016
893.50 77.39971
893.60 78.50658
893.70 77.26352
893.80 76.02046
893.90 72.15744
894.00 67.2243
894.10 63.619
894.20 62.00544
894.30 60.53532
894.40 60.51558
894.50 60.49583
894.60 59.83566
894.70 58.99486
894.80 59.69651
894.90 62.20885
895.00 64.27975
895.10 63.84911
895.20 63.41847
895.30 62.35072
895.40 61.16162
895.50 61.28391
895.60 62.6167
895.70 64.23452
895.80 66.9246
895.90 69.61468
896.00 70.81577
896.10 71.85142
896.20 72.80313
896.30 73.69652
896.40 73.47944
896.50 70.25998
896.60 67.04051
896.70 66.78108
896.80 66.64499
896.90 67.92568
897.00 69.96927
897.10 71.33477
897.20 71.38401
897.30 71.47766
897.40 73.74751
897.50 76.01736
897.60 77.7357
897.70 79.22878
897.80 79.33823
897.90 77.37226
898.00 75.78033
898.10 77.97028
898.20 80.16023
898.30 79.80399
898.40 78.68721
898.50 80.16931
898.60 84.70227
898.70 88.4441
898.80 87.70285
898.90 86.96159
899.00 83.25507
899.10 78.98373
899.20 77.72623
899.30 79.14139
899.40 80.659
899.50 82.56205
899.60 84.46509
899.70 81.44843
899.80 77.88513
899.90 76.65161
900.00 77.03709
900.10 77.77046
900.20 79.39841
900.30 81.02636
900.40 84.89077
900.50 88.82436
900.60 92.84533
900.70 96.91337
900.80 97.60896
900.90 91.75805
901.00 86.11417
901.10 87.16421
901.20 88.21425
901.30 87.52032
901.40 86.14818
901.50 85.6394
901.60 86.373
901.70 86.88303
901.80 85.38084
901.90 83.87865
902.00 81.25216
902.10 78.30857
902.20 76.60988
902.30 76.31503
902.40 76.24644
902.50 77.36567
902.60 78.4849
902.70 77.81283
902.80 76.82464
902.90 77.40855
903.00 79.33165
903.10 80.67442
903.20 80.07431
903.30 79.4742
903.40 81.64064
903.50 84.04765
903.60 86.51528
903.70 89.02334
903.80 91.0454
903.90 91.87759
904.00 92.70978
904.10 89.64276
904.20 86.49617
904.30 86.23928
904.40 87.40566
904.50 88.37133
904.60 88.98016
904.70 89.64116
904.80 91.2933
904.90 92.94544
905.00 93.9421
905.10 94.70846
905.20 93.19552
905.30 88.66118
905.40 84.30797
905.50 81.28301
905.60 78.25805
905.70 78.53069
905.80 79.62773
905.90 80.18594
906.00 80.18334
906.10 80.25442
906.20 80.66118
906.30 81.06793
906.40 80.01975
906.50 78.75417
906.60 78.96339
906.70 80.33139
906.80 80.81163
906.90 78.62858
907.00 76.44553
907.10 79.0834
907.20 82.02899
907.30 81.99699
907.40 80.21626
907.50 78.80089
907.60 78.16189
907.70 77.5784
907.80 82.4895
907.90 87.40059
908.00 88.07374
908.10 86.93062
908.20 85.97402
908.30 85.30916
908.40 84.60074
908.50 83.39149
908.60 82.18224
908.70 80.47118
908.80 78.61023
908.90 79.9264
909.00 84.97221
909.10 89.24485
909.20 89.13615
909.30 89.02746
909.40 89.55968
909.50 90.21398
909.60 91.01932
909.70 91.95859
909.80 93.28991
909.90 96.09608
910.00 98.90226
910.10 97.83845
910.20 96.3919
910.30 95.62591
910.40 95.33285
910.50 95.62725
910.60 97.35991
910.70 99.09258
910.80 95.18772
910.90 91.10851
911.00 91.7563
911.10 94.83921
911.20 97.60764
911.30 99.79207
911.40 101.8057
911.50 99.71937
911.60 97.63308
911.70 98.39508
911.80 100.2106
911.90 100.5435
912.00 98.82925
912.10 97.12329
912.20 95.48478
912.30 93.84627
912.40 93.1268
912.50 92.63709
912.60 92.16299
912.70 91.70449
912.80 91.0374
912.90 89.4811
913.00 87.9248
913.10 91.12432
913.20 94.97236
913.30 96.91629
913.40 97.42378
913.50 98.90983
913.60 103.181
913.70 107.4522
913.80 106.114
913.90 104.4805
914.00 99.75059
914.10 93.27891
914.20 89.07812
914.30 89.48794
914.40 89.98179
914.50 94.59313
914.60 99.20448
914.70 101.4231
914.80 102.6643
914.90 102.1837
915.00 99.12041
915.10 96.38612
915.20 96.97857
915.30 97.57103
915.40 97.93887
915.50 98.24337
915.60 102.2496
915.70 110.43
915.80 116.6257
915.90 112.4012
916.00 108.1767
916.10 105.4327
916.20 102.9499
916.30 101.8237
916.40 101.8531
916.50 102.2291
916.60 103.7656
916.70 105.3022
916.80 108.1674
916.90 111.148
917.00 110.6223
917.10 107.9476
917.20 106.3173
917.30 107.0121
917.40 107.7068
917.50 106.6055
917.60 105.5041
917.70 105.745
917.80 106.5888
917.90 107.7093
918.00 109.2812
918.10 110.7381
918.20 110.6663
918.30 110.5945
918.40 109.5352
918.50 108.1642
918.60 106.2172
918.70 103.5665
918.80 102.7069
918.90 112.8501
919.00 122.9934
919.10 124.6146
919.20 124.4904
919.30 121.5618
919.40 116.1465
919.50 111.9845
919.60 112.2663
919.70 112.5481
919.80 116.2281
919.90 120.244
920.00 121.2072
920.10 120.1351
920.20 119.6538
920.30 120.6189
920.40 121.5839
920.50 120.0238
920.60 118.412
920.70 114.5539
920.80 109.5894
920.90 105.2561
921.00 102.0449
921.10 98.83562
921.20 95.65519
921.30 92.47477
921.40 97.02725
921.50 104.1574
921.60 108.8025
921.70 110.2848
921.80 111.4984
921.90 110.9131
922.00 110.3279
922.10 107.3281
922.20 103.7984
922.30 101.8903
922.40 101.5403
922.50 100.9138
922.60 99.18098
922.70 97.44817
922.80 96.71729
922.90 96.09774
923.00 97.18763
923.10 99.46544
923.20 100.8888
923.30 100.1149
923.40 99.34105
923.50 95.11717
923.60 90.78659
923.70 91.18179
923.80 94.01149
923.90 96.30224
924.00 97.59209
924.10 99.01494
924.20 102.9649
924.30 106.9149
924.40 107.6658
924.50 107.2925
924.60 104.9086
924.70 99.85924
924.80 95.47672
924.90 95.98421
925.00 96.4917
925.10 95.52481
925.20 94.21207
925.30 93.71653
925.40 94.03818
925.50 94.40622
925.60 94.95979
925.70 95.51336
925.80 98.81875
925.90 102.4643
926.00 104.745
926.10 106.0376
926.20 106.2362
926.30 103.4774
926.40 100.7186
926.50 102.5233
926.60 104.5181
926.70 105.807
926.80 106.7323
926.90 107.3306
927.00 107.3217
927.10 107.2937
927.20 106.8069
927.30 106.3201
927.40 105.1874
927.50 103.8159
927.60 101.0852
927.70 96.47766
927.80 92.20428
927.90 90.38161
928.00 88.55893
928.10 91.36165
928.20 95.24935
928.30 97.55693
928.40 98.28441
928.50 99.16756
928.60 100.7143
928.70 102.2611
928.80 101.5947
928.90 100.6547
929.00 99.62986
929.10 98.54354
929.20 97.69009
929.30 97.46628
929.40 97.24246
929.50 99.09082
929.60 101.0255
929.70 100.3573
929.80 98.34813
929.90 95.20795
930.00 89.96725
930.10 85.06172
930.20 88.20004
930.30 91.33837
930.40 92.72739
930.50 93.46941
930.60 92.859
930.70 90.38094
930.80 88.28495
930.90 88.99084
931.00 89.69674
931.10 92.11063
931.20 94.92518
931.30 98.26076
931.40 102.1174
931.50 105.0386
931.60 104.2182
931.70 103.3978
931.80 100.3519
931.90 97.03094
932.00 93.77604
932.10 90.56898
932.20 89.20589
932.30 92.82835
932.40 96.45081
932.50 100.5586
932.60 104.6815
932.70 105.0058
932.80 103.3732
932.90 102.2391
933.00 102.0306
933.10 101.8492
933.20 102.3183
933.30 102.7874
933.40 99.01776
933.50 93.75885
933.60 92.93012
933.70 97.97394
933.80 102.2408
933.90 100.8102
934.00 99.37959
934.10 101.9836
934.20 105.5339
934.30 104.382
934.40 98.71217
934.50 95.40649
934.60 101.5573
934.70 107.7081
934.80 106.5503
934.90 104.4893
935.00 105.1546
935.10 102.2993
935.20 99.44391
935.30 98.43666
935.40 98.33967
935.50 98.24268
935.60 99.05203
935.70 99.90907
935.80 100.3768
935.90 99.5409
936.00 98.70505
936.10 99.29651
936.20 101.2593
936.30 103.2221
936.40 103.8664
936.50 104.1603
936.60 104.1998
936.70 100.8605
936.80 97.52127
936.90 95.12246
937.00 94.47018
937.10 93.81791
937.20 91.27705
937.30 87.62704
937.40 83.97703
937.50 88.48577
937.60 93.70398
937.70 98.11529
937.80 99.29906
937.90 100.4828
938.00 101.0834
938.10 101.0522
938.20 101.021
938.30 100.1953
938.40 99.11864
938.50 98.16683
938.60 100.2109
938.70 102.255
938.80 103.7937
938.90 104.2586
939.00 104.7236
939.10 104.6344
939.20 104.1758
939.30 103.7173
939.40 103.4335
939.50 103.1736
939.60 102.6908
939.70 101.1203
939.80 99.5497
939.90 98.08018
940.00 96.73415
940.10 95.38813
940.20 95.95216
940.30 97.22265
940.40 98.48686
940.50 99.12964
940.60 99.77243
940.70 100.9077
940.80 103.2487
940.90 105.5898
941.00 106.8024
941.10 107.1979
941.20 107.5934
941.30 106.5877
941.40 105.3539
941.50 103.9632
941.60 101.6091
941.70 99.25491
941.80 98.25328
941.90 99.11943
942.00 99.98558
942.10 100.7353
942.20 101.4351
942.30 102.135
942.40 104.0616
942.50 106.0006
942.60 107.4205
942.70 107.4371
942.80 107.4536
942.90 106.4603
943.00 104.6409
943.10 102.8215
943.20 104.4745
943.30 106.8386
943.40 109.1464
943.50 111.0414
943.60 112.9363
943.70 112.9747
943.80 110.2281
943.90 107.4816
944.00 106.6099
944.10 106.6205
944.20 106.6311
944.30 105.1411
944.40 103.6047
944.50 102.2881
944.60 101.6308
944.70 100.9734
944.80 101.9108
944.90 104.2624
945.00 106.6141
945.10 105.7607
945.20 104.2038
945.30 102.9101
945.40 103.9856
945.50 105.061
945.60 105.7176
945.70 105.6906
945.80 105.6635
945.90 105.8319
946.00 106.0965
946.10 106.3611
946.20 107.796
946.30 109.2926
946.40 110.5154
946.50 110.8217
946.60 111.128
946.70 111.8193
946.80 112.8662
946.90 113.9131
947.00 112.7419
947.10 111.0162
947.20 109.5331
947.30 110.8385
947.40 112.144
947.50 113.0889
947.60 113.4201
947.70 113.7512
947.80 116.1491
947.90 119.6599
948.00 123.1707
948.10 121.8301
948.20 120.1798
948.30 118.6942
948.40 117.7921
948.50 116.8901
948.60 118.1604
948.70 121.6031
948.80 125.0458
948.90 125.5467
949.00 125.2656
949.10 125.0302
949.20 125.4022
949.30 125.7743
949.40 124.829
949.50 121.5417
949.60 118.2545
949.70 118.966
949.80 121.9269
949.90 124.8878
950.00 123.6734
950.10 122.1447
950.20 120.9651
950.30 121.0988
950.40 121.2326
950.50 120.8706
950.60 120.0127
950.70 119.1549
950.80 119.5085
950.90 120.2038
951.00 120.9534
951.10 122.4251
951.20 123.8969
951.30 123.8287
951.40 120.9005
951.50 117.9724
951.60 116.7737
951.70 116.5479
951.80 116.3221
951.90 117.0384
952.00 117.8366
952.10 118.7392
952.20 120.0344
952.30 121.3296
952.40 122.4706
952.50 123.4511
952.60 124.4316
952.70 124.8984
952.80 125.2203
952.90 125.5729
953.00 126.4049
953.10 127.2369
953.20 127.4486
953.30 126.5084
953.40 125.5681
953.50 124.7735
953.60 124.0644
953.70 123.3553
953.80 122.1749
953.90 120.9535
954.00 120.3606
954.10 122.1323
954.20 123.904
954.30 125.3483
954.40 126.4519
954.50 127.5554
954.60 128.2137
954.70 128.7464
954.80 129.2005
954.90 128.4235
955.00 127.6465
955.10 127.5028
955.20 128.5352
955.30 129.5675
955.40 129.7053
955.50 129.34
955.60 128.9747
955.70 128.1505
955.80 127.2866
955.90 126.7428
956.00 127.4037
956.10 128.0647
956.20 129.1099
956.30 130.5394
956.40 131.9689
956.50 129.9287
956.60 126.9099
956.70 124.203
956.80 125.6405
956.90 127.078
957.00 128.5108
957.10 129.9352
957.20 131.3597
957.30 131.505
957.40 130.9308
957.50 130.3567
957.60 127.5775
957.70 124.6324
957.80 122.5951
957.90 123.7761
958.00 124.9572
958.10 125.2654
958.20 124.7009
958.30 124.1364
958.40 123.0803
958.50 121.8934
958.60 120.6373
958.70 118.5848
958.80 116.5323
958.90 115.0645
959.00 114.6361
959.10 114.2077
959.20 113.8732
959.30 113.5894
959.40 113.3056
959.50 113.1216
959.60 112.944
959.70 112.2492
959.80 109.8229
959.90 107.3966
960.00 106.7067
960.10 107.685
960.20 108.6633
960.30 112.0593
960.40 116.0599
960.50 119.7692
960.60 120.5346
960.70 121.2999
960.80 122.0795
960.90 122.8823
961.00 123.6851
961.10 123.6326
961.20 123.1395
961.30 122.6464
961.40 119.3294
961.50 115.8637
961.60 113.8064
961.70 116.2085
961.80 118.6106
961.90 120.5936
962.00 122.2049
962.10 123.8162
962.20 123.8304
962.30 123.4939
962.40 123.3708
962.50 125.1686
962.60 126.9664
962.70 128.623
962.80 130.0587
962.90 131.4944
963.00 128.4236
963.10 123.232
963.20 118.0405
963.30 118.5134
963.40 119.1614
963.50 118.9788
963.60 116.4321
963.70 113.8854
963.80 110.2367
963.90 105.6494
964.00 101.062
964.10 103.0144
964.20 106.3062
964.30 109.749
964.40 114.2985
964.50 118.848
964.60 120.8594
964.70 119.2186
964.80 117.5778
964.90 117.1857
965.00 117.3287
965.10 117.4717
965.20 116.0226
965.30 114.5574
965.40 113.8033
965.50 114.8775
965.60 115.9517
965.70 117.4484
965.80 119.2638
965.90 121.0793
966.00 122.5774
966.10 124.0239
966.20 125.345
966.30 125.955
966.40 126.565
966.50 127.2775
966.60 128.1257
966.70 128.9739
966.80 128.4644
966.90 127.427
967.00 126.3889
967.10 125.2851
967.20 124.1812
967.30 123.1048
967.40 122.0925
967.50 121.0801
967.60 120.0709
967.70 119.0639
967.80 118.0569
967.90 120.3578
968.00 123.1097
968.10 125.4227
968.20 125.5926
968.30 125.7625
968.40 125.137
968.50 123.5776
968.60 122.0182
968.70 121.2333
968.80 120.7067
968.90 120.2269
969.00 120.8722
969.10 121.5175
969.20 122.6932
969.30 124.9457
969.40 127.1983
969.50 128.2272
969.60 128.506
969.70 128.7849
969.80 130.9344
969.90 133.2689
970.00 134.6383
970.10 132.1472
970.20 129.6561
970.30 128.3635
970.40 128.3183
970.50 128.2732
970.60 125.6432
970.70 122.2842
970.80 119.4366
970.90 123.3829
971.00 127.3293
971.10 131.1982
971.20 134.9294
971.30 138.6606
971.40 139.175
971.50 137.9574
971.60 136.7398
971.70 138.5983
971.80 140.6532
971.90 142.0955
972.00 141.4874
972.10 140.8793
972.20 139.453
972.30 137.2713
972.40 135.0897
972.50 133.8411
972.60 132.7975
972.70 131.4471
972.80 127.6159
972.90 123.7846
973.00 120.4237
973.10 117.7683
973.20 115.1129
973.30 117.5263
973.40 122.217
973.50 126.9077
973.60 126.2508
973.70 125.4848
973.80 125.123
973.90 125.8537
974.00 126.5845
974.10 125.7553
974.20 123.7004
974.30 121.6455
974.40 120.3032
974.50 119.0866
974.60 118.2075
974.70 119.4016
974.80 120.5958
974.90 122.4785
975.00 125.2376
975.10 127.9968
975.20 130.1153
975.30 131.9969
975.40 133.7743
975.50 130.4488
975.60 127.1233
975.70 125.4976
975.80 127.6553
975.90 129.813
976.00 130.9133
976.10 131.3085
976.20 131.7038
976.30 132.6407
976.40 133.6445
976.50 134.3839
976.60 133.9965
976.70 133.6091
976.80 132.7415
976.90 131.3537
977.00 129.9659
977.10 129.9277
977.20 130.2927
977.30 130.7466
977.40 132.5931
977.50 134.4395
977.60 135.9374
977.70 136.788
977.80 137.6386
977.90 137.8284
978.00 137.6626
978.10 137.4967
978.20 133.3652
978.30 128.9805
978.40 125.533
978.50 125.2229
978.60 124.9129
978.70 125.2235
978.80 126.1071
978.90 126.9906
979.00 129.1322
979.10 131.55
979.20 134.0432
979.30 137.1466
979.40 140.25
979.50 143.1699
979.60 145.8147
979.70 148.4596
979.80 148.0146
979.90 146.1815
980.00 144.3483
980.10 144.4553
980.20 144.5819
980.30 144.4255
980.40 143.5414
980.50 142.6573
980.60 141.6038
980.70 140.4226
980.80 139.2414
980.90 139.2417
981.00 139.4344
981.10 139.6883
981.20 140.2639
981.30 140.8395
981.40 140.6266
981.50 139.4498
981.60 138.273
981.70 138.1743
981.80 138.4545
981.90 138.6722
982.00 137.3898
982.10 136.1074
982.20 135.0552
982.30 134.47
982.40 133.8849
982.50 134.9173
982.60 136.941
982.70 138.9647
982.80 138.7874
982.90 138.4188
983.00 138.3749
983.10 139.5526
983.20 140.7303
983.30 140.5473
983.40 139.0036
983.50 137.4599
983.60 136.5453
983.70 135.7879
983.80 135.1199
983.90 135.3556
984.00 135.5912
984.10 136.1194
984.20 137.1248
984.30 138.1301
984.40 139.6285
984.50 141.3588
984.60 143.0892
984.70 142.2718
984.80 141.3757
984.90 140.3157
985.00 138.8128
985.10 137.3099
985.20 136.0187
985.30 134.8937
985.40 133.7687
985.50 135.3294
985.60 137.364
985.70 139.5485
985.80 142.5827
985.90 145.6169
986.00 146.6958
986.10 145.2859
986.20 143.8761
986.30 143.64
986.40 143.8163
986.50 143.9545
986.60 142.8598
986.70 141.7651
986.80 140.3422
986.90 138.2219
987.00 136.1017
987.10 137.1229
987.20 140.0696
987.30 143.0163
987.40 146.3927
987.50 149.8117
987.60 152.0343
987.70 149.7559
987.80 147.4775
987.90 145.235
988.00 143.0284
988.10 140.8219
988.20 141.9316
988.30 143.8703
988.40 145.8569
988.50 148.3274
988.60 150.7978
988.70 151.7648
988.80 150.3801
988.90 148.9955
989.00 147.8383
989.10 146.7881
989.20 145.7379
989.30 143.3283
989.40 140.891
989.50 137.0018
989.60 129.1872
989.70 121.3727
989.80 114.5957
989.90 108.6013
990.00 102.607
990.10 100.9444
990.20 99.98699
990.30 98.41136
990.40 93.59017
990.50 88.76898
990.60 84.64939
990.70 81.3873
990.80 78.12521
990.90 77.49055
991.00 77.7317
991.10 77.99309
991.20 78.74031
991.30 79.48753
991.40 79.41749
991.50 77.76101
991.60 76.10454
991.70 75.53059
991.80 75.59241
991.90 75.65423
992.00 78.94239
992.10 82.4734
992.20 84.96424
992.30 83.76725
992.40 82.57026
992.50 80.67387
992.60 78.13187
992.70 75.58987
992.80 79.50689
992.90 84.93899
993.00 90.12424
993.10 93.3122
993.20 96.50016
993.30 97.51208
993.40 95.39261
993.50 93.27315
993.60 94.59988
993.70 97.40356
993.80 100.2072
993.90 104.0378
994.00 107.8685
994.10 110.422
994.20 109.8487
994.30 109.2754
994.40 108.3507
994.50 107.1817
994.60 106.0127
994.70 107.7119
994.80 109.7656
994.90 112.1136
995.00 115.8023
995.10 119.491
995.20 121.8763
995.30 122.8497
995.40 123.8232
995.50 122.6168
995.60 120.7957
995.70 118.9481
995.80 116.7499
995.90 114.5518
996.00 113.0684
996.10 112.8023
996.20 112.5362
996.30 115.0711
996.40 118.9858
996.50 122.9005
996.60 126.1537
996.70 129.3794
996.80 129.4895
996.90 120.7325
997.00 111.9754
997.10 103.9834
997.20 96.59257
997.30 89.20172
997.40 89.7165
997.50 91.62639
997.60 93.98725
997.70 98.90357
997.80 103.8199
997.90 107.4925
998.00 109.645
998.10 111.7974
998.20 111.8284
998.30 111.1139
998.40 110.3046
998.50 107.2201
998.60 104.1356
998.70 102.0533
998.80 101.9165
998.90 101.7796
999.00 101.9227
999.10 102.2302
999.20 102.5377
999.30 102.8509
999.40 103.1644
999.50 103.0126
999.60 101.3027
999.70 99.5928
999.80 100.7998
999.90 104.5934
1000.00 108.387
1000.10 112.9756
1000.20 117.7629
1000.30 122.1891
1000.40 123.3657
1000.50 124.5422
1000.60 124.1085
1000.70 121.2594
1000.80 118.4103
1000.90 114.5269
1001.00 110.2002
1001.10 105.8735
1001.20 107.0311
1001.30 108.1887
1001.40 109.6492
1001.50 111.8166
1001.60 113.984
1001.70 117.3665
1001.80 121.5592
1001.90 125.7519
1002.00 123.9002
1002.10 121.377
1002.20 119.5665
1002.30 120.6074
1002.40 121.6483
1002.50 122.3145
1002.60 122.606
1002.70 122.8976
1002.80 122.9166
1002.90 122.8675
1003.00 122.7139
1003.10 121.6203
1003.20 120.5266
1003.30 119.1573
1003.40 117.3746
1003.50 115.5919
1003.60 112.5435
1003.70 108.9527
1003.80 105.3618
1003.90 108.7848
1004.00 112.2077
1004.10 116.485
1004.20 122.7559
1004.30 129.0267
1004.40 131.514
1004.50 131.4789
1004.60 131.4438
1004.70 129.2723
1004.80 126.8634
1004.90 123.7516
1005.00 117.828
1005.10 111.9045
1005.20 105.7606
1005.30 99.39634
1005.40 93.03208
1005.50 91.36222
1005.60 90.86595
1005.70 90.79531
1005.80 94.55537
1005.90 98.31544
1006.00 102.0527
1006.10 105.7556
1006.20 109.4586
1006.30 108.5629
1006.40 105.6963
1006.50 102.8298
1006.60 107.2949
1006.70 111.76
1006.80 116.4635
1006.90 121.7231
1007.00 126.9827
1007.10 128.0839
1007.20 126.4129
1007.30 124.7419
1007.40 124.657
1007.50 124.7483
1007.60 125.4326
1007.70 128.4889
1007.80 131.5452
1007.90 133.2623
1008.00 133.64
1008.10 134.0177
1008.20 133.6114
1008.30 133.009
1008.40 132.7571
1008.50 135.6586
1008.60 138.5601
1008.70 138.998
1008.80 135.7403
1008.90 132.4827
1009.00 129.6815
1009.10 127.076
1009.20 124.4705
1009.30 124.4678
1009.40 124.465
1009.50 125.7893
1009.60 130.21
1009.70 134.6307
1009.80 139.2909
1009.90 144.1107
1010.00 148.9305
1010.10 152.0898
1010.20 155.0647
1010.30 156.8025
1010.40 153.5923
1010.50 150.3821
1010.60 147.9139
1010.70 146.1879
1010.80 144.4619
1010.90 140.246
1011.00 135.4076
1011.10 130.7933
1011.20 128.195
1011.30 125.5967
1011.40 123.2779
1011.50 121.3783
1011.60 119.4788
1011.70 117.6285
1011.80 115.7995
1011.90 113.9704
1012.00 119.6562
1012.10 125.342
1012.20 131.4478
1012.30 138.5338
1012.40 145.6197
1012.50 148.2754
1012.60 147.9775
1012.70 147.6797
1012.80 147.9032
1012.90 148.1847
1013.00 148.3306
1013.10 147.934
1013.20 147.5374
1013.30 144.2358
1013.40 138.0292
1013.50 131.8227
1013.60 125.7249
1013.70 119.6542
1013.80 114.1607
1013.90 113.8608
1014.00 113.5608
1014.10 115.1421
1014.20 119.5451
1014.30 123.9481
1014.40 127.0849
1014.50 129.679
1014.60 132.2731
1014.70 129.1404
1014.80 126.0078
1014.90 125.0518
1015.00 129.1749
1015.10 133.2981
1015.20 136.3216
1015.30 138.6119
1015.40 140.9023
1015.50 137.4981
1015.60 133.4612
1015.70 129.5662
1015.80 126.239
1015.90 122.9118
1016.00 122.1821
1016.10 124.0498
1016.20 125.9175
1016.30 127.9765
1016.40 130.0834
1016.50 132.2095
1016.60 134.5078
1016.70 136.8062
1016.80 138.0988
1016.90 137.8828
1017.00 137.6669
1017.10 135.9305
1017.20 133.5425
1017.30 131.1546
1017.40 137.2824
1017.50 143.4103
1017.60 148.0174
1017.70 149.0762
1017.80 150.135
1017.90 147.3685
1018.00 142.0516
1018.10 136.7348
1018.20 132.3526
1018.30 128.0742
1018.40 124.4582
1018.50 123.4915
1018.60 122.5248
1018.70 122.6014
1018.80 123.7214
1018.90 124.8413
1019.00 128.5875
1019.10 132.9903
1019.20 136.9014
1019.30 136.3876
1019.40 135.8738
1019.50 135.7387
1019.60 136.1719
1019.70 136.605
1019.80 137.3682
1019.90 138.2729
1020.00 139.1775
1020.10 138.7509
1020.20 138.3243
1020.30 137.9366
1020.40 137.6396
1020.50 137.3425
1020.60 138.5955
1020.70 140.882
1020.80 143.1684
1020.90 141.6
1021.00 139.6033
1021.10 137.8008
1021.20 136.775
1021.30 135.7491
1021.40 133.7205
1021.50 130.6891
1021.60 127.6576
1021.70 124.4705
1021.80 121.2444
1021.90 118.1722
1022.00 116.4841
1022.10 114.7961
1022.20 115.6115
1022.30 120.1819
1022.40 124.7523
1022.50 128.7221
1022.60 132.4345
1022.70 136.1469
1022.80 135.2911
1022.90 134.4353
1023.00 132.6597
1023.10 128.7378
1023.20 124.816
1023.30 124.7599
1023.40 127.2809
1023.50 129.802
1023.60 132.9085
1023.70 136.0801
1023.80 139.229
1023.90 142.2871
1024.00 145.3453
1024.10 148.2856
1024.20 151.108
1024.30 153.9304
1024.40 152.0277
1024.50 148.9437
1024.60 145.8253
1024.70 142.3969
1024.80 138.9685
1024.90 136.365
1025.00 134.9991
1025.10 133.6331
1025.20 130.3598
1025.30 126.269
1025.40 122.1783
1025.50 125.4381
1025.60 128.698
1025.70 130.2272
1025.80 127.7182
1025.90 125.2092
1026.00 120.9577
1026.10 115.5445
1026.20 110.1312
1026.30 109.0357
1026.40 108.42
1026.50 109.2502
1026.60 115.864
1026.70 122.4777
1026.80 128.3406
1026.90 133.4524
1027.00 138.5643
1027.10 138.3186
1027.20 136.7335
1027.30 135.0667
1027.40 132.6638
1027.50 130.2609
1027.60 128.2744
1027.70 126.9125
1027.80 125.5506
1027.90 123.7501
1028.00 121.8399
1028.10 119.8131
1028.20 116.7356
1028.30 113.6582
1028.40 112.5361
1028.50 114.347
1028.60 116.1579
1028.70 122.0169
1028.80 129.6109
1028.90 137.2049
1029.00 137.6036
1029.10 138.0023
1029.20 137.1193
1029.30 133.2457
1029.40 129.3721
1029.50 128.2144
1029.60 128.8673
1029.70 129.5202
1029.80 130.6917
1029.90 131.9208
1030.00 132.1069
1030.10 128.1211
1030.20 124.1354
1030.30 123.1315
1030.40 125.1093
1030.50 127.0872
1030.60 133.0878
1030.70 140.0941
1030.80 145.999
1030.90 141.9913
1031.00 137.9836
1031.10 136.2139
1031.20 137.8015
1031.30 139.3891
1031.40 140.7499
1031.50 142.0136
1031.60 143.2772
1031.70 137.7276
1031.80 132.178
1031.90 127.938
1032.00 126.7537
1032.10 125.5695
1032.20 125.031
1032.30 124.9231
1032.40 124.8151
1032.50 123.7246
1032.60 122.5248
1032.70 123.1071
1032.80 130.8174
1032.90 138.5277
1033.00 145.5059
1033.10 151.752
1033.20 157.9982
1033.30 157.3104
1033.40 154.8892
1033.50 152.0233
1033.60 145.1559
1033.70 138.2884
1033.80 132.7288
1033.90 129.131
1034.00 125.5332
1034.10 126.9525
1034.20 130.522
1034.30 134.0915
1034.40 133.7385
1034.50 133.3856
1034.60 134.1601
1034.70 137.5656
1034.80 140.9712
1034.90 140.9886
1035.00 138.7473
1035.10 136.5061
1035.20 135.6352
1035.30 134.9167
1035.40 134.5632
1035.50 135.0617
1035.60 135.5602
1035.70 137.0822
1035.80 139.2866
1035.90 141.4909
1036.00 144.4862
1036.10 147.5694
1036.20 150.4125
1036.30 152.2952
1036.40 154.178
1036.50 154.373
1036.60 152.8803
1036.70 151.3876
1036.80 153.0325
1036.90 155.4618
1037.00 158.0855
1037.10 162.4576
1037.20 166.8297
1037.30 169.6842
1037.40 170.2623
1037.50 170.8405
1037.60 165.643
1037.70 157.9703
1037.80 150.2976
1037.90 142.5083
1038.00 134.719
1038.10 129.1292
1038.20 128.6714
1038.30 128.2137
1038.40 132.3441
1038.50 139.5332
1038.60 146.7224
1038.70 149.4135
1038.80 151.6049
1038.90 152.7585
1039.00 149.7612
1039.10 146.764
1039.20 144.5858
1039.30 143.2268
1039.40 141.8678
1039.50 140.4614
1039.60 139.043
1039.70 137.9116
1039.80 139.363
1039.90 140.8143
1040.00 143.5985
1040.10 148.3821
1040.20 153.1656
1040.30 154.909
1040.40 155.3494
1040.50 155.7899
1040.60 156.6815
1040.70 157.573
1040.80 158.235
1040.90 158.3615
1041.00 158.488
1041.10 154.5788
1041.20 148.94
1041.30 143.3013
1041.40 141.2487
1041.50 139.1962
1041.60 140.2409
1041.70 148.5123
1041.80 156.7837
1041.90 161.5059
1042.00 163.862
1042.10 166.2182
1042.20 161.6222
1042.30 156.2537
1042.40 150.7964
1042.50 144.9837
1042.60 139.171
1042.70 133.5992
1042.80 128.2683
1042.90 122.9375
1043.00 126.3832
1043.10 132.023
1043.20 138.1169
1043.30 148.2978
1043.40 158.4787
1043.50 164.313
1043.60 163.6274
1043.70 162.9417
1043.80 162.4259
1043.90 161.983
1044.00 161.54
1044.10 162.336
1044.20 163.1319
1044.30 163.1592
1044.40 161.3931
1044.50 159.6271
1044.60 159.0509
1044.70 159.2679
1044.80 159.4849
1044.90 162.0129
1045.00 164.7978
1045.10 168.4905
1045.20 175.8148
1045.30 183.1391
1045.40 187.6819
1045.50 189.4433
1045.60 191.2047
1045.70 188.3767
1045.80 184.4015
1045.90 179.2111
1046.00 169.1605
1046.10 159.11
1046.20 152.6172
1046.30 149.6823
1046.40 146.7474
1046.50 145.4276
1046.60 144.5115
1046.70 143.3051
1046.80 139.4859
1046.90 135.6666
1047.00 133.2616
1047.10 132.9779
1047.20 132.6942
1047.30 133.418
1047.40 134.5736
1047.50 135.7292
1047.60 137.0303
1047.70 138.3314
1047.80 138.6466
1047.90 136.661
1048.00 134.6754
1048.10 135.7324
1048.20 138.8178
1048.30 141.9032
1048.40 144.2474
1048.50 146.5092
1048.60 148.2568
1048.70 147.9474
1048.80 147.638
1048.90 147.7756
1049.00 148.3602
1049.10 148.9447
1049.20 149.8909
1049.30 150.9274
1049.40 151.8328
1049.50 151.5573
1049.60 151.2819
1049.70 149.7233
1049.80 146.24
1049.90 142.7567
1050.00 142.3163
1050.10 143.1802
1050.20 144.1608
1050.30 146.1928
1050.40 148.2247
1050.50 148.5313
1050.60 146.2497
1050.70 143.9681
1050.80 142.4262
1050.90 141.2013
1051.00 139.9764
1051.10 137.7569
1051.20 135.5373
1051.30 132.9437
1051.40 129.4772
1051.50 126.0106
1051.60 125.8148
1051.70 127.7995
1051.80 129.7842
1051.90 130.4946
1052.00 131.0634
1052.10 131.8886
1052.20 133.7393
1052.30 135.59
1052.40 137.796
1052.50 140.3572
1052.60 142.9184
1052.70 145.6232
1052.80 148.3639
1052.90 150.5646
1053.00 147.905
1053.10 145.2454
1053.20 143.298
1053.30 142.419
1053.40 141.54
1053.50 142.0039
1053.60 143.0434
1053.70 144.0828
1053.80 143.786
1053.90 143.4892
1054.00 143.1234
1054.10 142.654
1054.20 142.1846
1054.30 142.0115
1054.40 141.9654
1054.50 141.9193
1054.60 137.9959
1054.70 134.0725
1054.80 131.663
1054.90 132.786
1055.00 133.909
1055.10 137.1107
1055.20 141.6983
1055.30 146.2859
1055.40 144.4294
1055.50 141.8569
1055.60 138.8576
1055.70 134.1512
1055.80 129.4448
1055.90 126.9983
1056.00 126.8117
1056.10 126.6251
1056.20 125.6124
1056.30 124.3933
1056.40 123.3848
1056.50 124.2713
1056.60 125.1579
1056.70 126.428
1056.80 128.2733
1056.90 130.1186
1057.00 130.0349
1057.10 129.1245
1057.20 128.2141
1057.30 130.6458
1057.40 133.0775
1057.50 135.3639
1057.60 137.3112
1057.70 139.2585
1057.80 138.9459
1057.90 137.6646
1058.00 136.3834
1058.10 137.6064
1058.20 138.8293
1058.30 139.1645
1058.40 137.4284
1058.50 135.6923
1058.60 133.9729
1058.70 132.2646
1058.80 130.5563
1058.90 128.8911
1059.00 127.2307
1059.10 125.9254
1059.20 126.0405
1059.30 126.1557
1059.40 126.9819
1059.50 128.5191
1059.60 130.0564
1059.70 132.2982
1059.80 134.7162
1059.90 136.8141
1060.00 136.0321
1060.10 135.25
1060.20 134.2067
1060.30 132.7714
1060.40 131.3362
1060.50 128.5945
1060.60 125.2928
1060.70 121.9912
1060.80 122.548
1060.90 123.1049
1061.00 124.273
1061.10 126.3582
1061.20 128.4433
1061.30 131.9743
1061.40 136.1249
1061.50 140.2756
1061.60 139.5655
1061.70 138.8555
1061.80 137.7403
1061.90 135.6795
1062.00 133.6187
1062.10 132.6228
1062.20 132.3367
1062.30 132.0507
1062.40 133.6871
1062.50 135.5371
1062.60 137.8457
1062.70 141.9886
1062.80 146.1315
1062.90 148.6778
1063.00 149.6274
1063.10 150.5769
1063.20 149.4906
1063.30 147.8953
1063.40 146.3169
1063.50 144.8903
1063.60 143.4637
1063.70 143.9049
1063.80 147.1476
1063.90 150.3903
1064.00 152.3139
1064.10 153.6721
1064.20 154.9344
1064.30 155.3332
1064.40 155.732
1064.50 155.1312
1064.60 153.0308
1064.70 150.9305
1064.80 151.2392
1064.90 152.5802
1065.00 153.9213
1065.10 152.1902
1065.20 150.4591
1065.30 148.5204
1065.40 146.0973
1065.50 143.6743
1065.60 140.9212
1065.70 137.9482
1065.80 134.9752
1065.90 135.4566
1066.00 136.3218
1066.10 136.6375
1066.20 134.7549
1066.30 132.8724
1066.40 131.2971
1066.50 130.029
1066.60 128.7609
1066.70 129.2022
1066.80 130.0708
1066.90 130.9334
1067.00 131.7414
1067.10 132.5495
1067.20 134.2389
1067.30 136.8097
1067.40 139.3805
1067.50 142.2269
1067.60 145.1422
1067.70 147.9954
1067.80 150.2902
1067.90 152.5851
1068.00 153.7243
1068.10 153.13
1068.20 152.5358
1068.30 153.805
1068.40 155.8729
1068.50 157.9407
1068.60 158.705
1068.70 159.4692
1068.80 159.3319
1068.90 157.091
1069.00 154.8502
1069.10 154.6427
1069.20 155.7908
1069.30 156.939
1069.40 154.4391
1069.50 151.5339
1069.60 148.5585
1069.70 145.302
1069.80 142.0456
1069.90 141.9279
1070.00 144.9491
1070.10 147.9702
1070.20 147.6302
1070.30 146.9168
1070.40 146.6117
1070.50 147.9396
1070.60 149.2676
1070.70 150.0994
1070.80 150.4351
1070.90 150.7708
1071.00 150.3119
1071.10 149.6544
1071.20 149.3022
1071.30 151.6978
1071.40 154.0934
1071.50 156.5028
1071.60 158.9331
1071.70 161.3633
1071.80 161.9516
1071.90 161.7504
1072.00 161.5492
1072.10 161.2121
1072.20 160.8749
1072.30 159.4033
1072.40 155.2847
1072.50 151.166
1072.60 150.6204
1072.70 152.4568
1072.80 154.2932
1072.90 157.0933
1073.00 160.0004
1073.10 161.2857
1073.20 158.7866
1073.30 156.2874
1073.40 154.3863
1073.50 152.8839
1073.60 151.3814
1073.70 151.3626
1073.80 151.5087
1073.90 152.6504
1074.00 157.7751
1074.10 162.8998
1074.20 165.4808
1074.30 165.5182
1074.40 165.5555
1074.50 166.6354
1074.60 167.9759
1074.70 169.0624
1074.80 167.862
1074.90 166.6616
1075.00 164.7217
1075.10 161.6724
1075.20 158.6231
1075.30 155.1411
1075.40 151.4737
1075.50 147.8062
1075.60 152.0577
1075.70 156.3093
1075.80 159.8787
1075.90 162.425
1076.00 164.9713
1076.10 165.3076
1076.20 164.6967
1076.30 164.0858
1076.40 164.246
1076.50 164.4062
1076.60 164.7972
1076.70 165.7267
1076.80 166.6563
1076.90 167.4102
1077.00 168.0472
1077.10 168.6841
1077.20 167.4526
1077.30 166.0134
1077.40 164.4989
1077.50 162.6834
1077.60 160.8678
1077.70 160.2334
1077.80 160.7802
1077.90 161.327
1078.00 162.9895
1078.10 164.9308
1078.20 166.7199
1078.30 167.1388
1078.40 167.5577
1078.50 166.6304
1078.60 164.357
1078.70 162.0835
1078.80 159.5008
1078.90 156.8408
1079.00 154.3322
1079.10 153.186
1079.20 152.0398
1079.30 150.4624
1079.40 148.2382
1079.50 146.014
1079.60 147.1081
1079.70 149.6244
1079.80 152.1407
1079.90 154.8718
1080.00 157.603
1080.10 160.1675
1080.20 162.3434
1080.30 164.5193
1080.40 165.8521
1080.50 166.6228
1080.60 167.3934
1080.70 167.3358
1080.80 167.1862
1080.90 167.6053
1081.00 169.3512
1081.10 171.0971
1081.20 171.0301
1081.30 169.7545
1081.40 168.4789
1081.50 169.2091
1081.60 170.1621
1081.70 171.4672
1081.80 174.1812
1081.90 176.8951
1082.00 176.7889
1082.10 173.8623
1082.20 170.9358
1082.30 168.8059
1082.40 166.8752
1082.50 165.0245
1082.60 163.8942
1082.70 162.7639
1082.80 162.1632
1082.90 162.3569
1083.00 162.5506
1083.10 166.5888
1083.20 172.2746
1083.30 177.9604
1083.40 179.766
1083.50 181.5715
1083.60 182.0724
1083.70 180.616
1083.80 179.1597
1083.90 178.4673
1084.00 178.1023
1084.10 177.7372
1084.20 176.4572
1084.30 175.1772
1084.40 173.2359
1084.50 169.7517
1084.60 166.2674
1084.70 164.3753
1084.80 163.5447
1084.90 162.714
1085.00 166.6643
1085.10 171.1458
1085.20 173.4357
1085.30 166.9595
1085.40 160.4832
1085.50 159.2796
1085.60 163.3485
1085.70 167.4174
1085.80 171.7874
1085.90 176.2328
1086.00 180.3297
1086.10 183.033
1086.20 185.7364
1086.30 187.0206
1086.40 186.8857
1086.50 186.7508
1086.60 186.1984
1086.70 185.5417
1086.80 184.971
1086.90 185.1739
1087.00 185.3767
1087.10 185.8978
1087.20 186.8963
1087.30 187.8947
1087.40 185.4133
1087.50 181.4405
1087.60 177.4678
1087.70 177.8793
1087.80 178.2908
1087.90 178.5082
1088.00 178.2724
1088.10 178.0366
1088.20 176.8545
1088.30 175.0414
1088.40 173.2284
1088.50 175.1291
1088.60 177.0298
1088.70 178.4137
1088.80 178.5914
1088.90 178.7691
1089.00 178.5759
1089.10 178.1353
1089.20 177.6946
1089.30 175.3939
1089.40 172.8865
1089.50 171.3534
1089.60 173.7177
1089.70 176.0819
1089.80 179.192
1089.90 183.048
1090.00 186.9039
1090.10 188.5384
1090.20 189.6175
1090.30 190.7052
1090.40 191.87
1090.50 193.0348
1090.60 191.6915
1090.70 187.84
1090.80 183.9885
1090.90 180.2739
1091.00 176.5935
1091.10 173.3157
1091.20 173.6616
1091.30 174.0075
1091.40 175.9422
1091.50 180.2601
1091.60 184.578
1091.70 188.5532
1091.80 192.3817
1091.90 196.2101
1092.00 194.5865
1092.10 192.9629
1092.20 191.313
1092.30 189.6015
1092.40 187.8901
1092.50 186.6543
1092.60 185.7358
1092.70 184.8173
1092.80 184.2468
1092.90 183.715
1093.00 183.5904
1093.10 184.4161
1093.20 185.2418
1093.30 184.566
1093.40 182.8892
1093.50 181.2125
1093.60 177.1883
1093.70 172.9033
1093.80 170.6778
1093.90 176.6905
1094.00 182.7032
1094.10 186.9981
1094.20 189.5752
1094.30 192.1523
1094.40 188.7185
1094.50 183.782
1094.60 179.0251
1094.70 175.884
1094.80 172.743
1094.90 172.9104
1095.00 178.0407
1095.10 183.171
1095.20 188.6719
1095.30 194.2653
1095.40 199.2465
1095.50 198.7167
1095.60 198.1869
1095.70 197.2244
1095.80 195.613
1095.90 194.0016
1096.00 194.37
1096.10 195.5867
1096.20 196.8035
1096.30 197.1338
1096.40 197.4641
1096.50 197.4015
1096.60 196.4219
1096.70 195.4423
1096.80 192.0331
1096.90 187.0042
1097.00 181.9752
1097.10 177.705
1097.20 173.5192
1097.30 170.5955
1097.40 172.7207
1097.50 174.846
1097.60 177.9019
1097.70 181.5782
1097.80 185.2546
1097.90 186.8146
1098.00 188.1394
1098.10 189.4172
1098.20 190.5068
1098.30 191.5964
1098.40 189.729
1098.50 184.9048
1098.60 180.0805
1098.70 179.9763
1098.80 181.052
1098.90 182.1394
1099.00 183.332
1099.10 184.5247
1099.20 186.2932
1099.30 188.9252
1099.40 191.5573
1099.50 192.0962
1099.60 191.7379
1099.70 191.2886
1099.80 190.0194
1099.90 188.7503
1100.00 188.1745
1100.10 188.6388
1100.20 189.1031
1100.30 187.9439
1100.40 186.0889
1100.50 184.2339
1100.60 184.4117
1100.70 184.5896
1100.80 184.8105
1100.90 185.1319
1101.00 185.4534
1101.10 186.9842
1101.20 189.3213
1101.30 191.6585
1101.40 193.3196
1101.50 194.9056
1101.60 195.7496
1101.70 193.6256
1101.80 191.5016
1101.90 188.371
1102.00 184.5693
1102.10 180.7675
1102.20 177.2463
1102.30 173.7561
1102.40 171.8676
1102.50 176.3855
1102.60 180.9034
1102.70 184.861
1102.80 188.2582
1102.90 191.6555
1103.00 189.824
1103.10 186.6853
1103.20 183.3085
1103.30 177.789
1103.40 172.2696
1103.50 168.1285
1103.60 166.055
1103.70 163.9815
1103.80 165.8576
1103.90 169.4263
1104.00 172.6496
1104.10 172.7636
1104.20 172.8777
1104.30 173.7117
1104.40 175.6255
1104.50 177.5393
1104.60 178.8852
1104.70 179.9876
1104.80 181.09
1104.90 179.4029
1105.00 177.7158
1105.10 175.2101
1105.20 170.7941
1105.30 166.3781
1105.40 161.6364
1105.50 156.6777
1105.60 151.7189
1105.70 156.1449
1105.80 161.6137
1105.90 165.8801
1106.00 165.3369
1106.10 164.7936
1106.20 164.2483
1106.30 163.7016
1106.40 163.1549
1106.50 165.3627
1106.60 167.8765
1106.70 169.2784
1106.80 166.2327
1106.90 163.187
1107.00 161.3969
1107.10 160.8626
1107.20 160.3282
1107.30 162.9611
1107.40 166.3859
1107.50 169.2686
1107.60 167.2728
1107.70 165.277
1107.80 164.4031
1107.90 165.2121
1108.00 166.0211
1108.10 169.5252
1108.20 173.7031
1108.30 177.7437
1108.40 180.5491
1108.50 183.3545
1108.60 184.3062
1108.70 182.4775
1108.80 180.6488
1108.90 179.4372
1109.00 178.4899
1109.10 177.5427
1109.20 178.6154
1109.30 179.6881
1109.40 181.3699
1109.50 184.4728
1109.60 187.5758
1109.70 189.3198
1109.80 190.1578
1109.90 190.9957
1110.00 189.3297
1110.10 187.3853
1110.20 184.0453
1110.30 177.4484
1110.40 170.8515
1110.50 167.4873
1110.60 166.2783
1110.70 165.0693
1110.80 165.8592
1110.90 166.8713
1111.00 167.3048
1111.10 165.4241
1111.20 163.5434
1111.30 162.1422
1111.40 161.2205
1111.50 160.2988
1111.60 161.9865
1111.70 164.3265
1111.80 166.4691
1111.90 166.834
1112.00 167.1989
1112.10 167.1533
1112.20 166.6973
1112.30 166.2412
1112.40 168.3567
1112.50 171.115
1112.60 173.8366
1112.70 176.2269
1112.80 178.6172
1112.90 180.4418
1113.00 181.4177
1113.10 182.3936
1113.20 183.3423
1113.30 184.2793
1113.40 185.2163
1113.50 184.8553
1113.60 184.4943
1113.70 183.1778
1113.80 179.6316
1113.90 176.0854
1114.00 175.4724
1114.10 176.8147
1114.20 178.157
1114.30 182.2989
1114.40 186.4407
1114.50 190.2145
1114.60 193.1295
1114.70 196.0445
1114.80 195.7366
1114.90 193.2802
1115.00 190.8237
1115.10 189.8503
1115.20 189.0417
1115.30 187.8549
1115.40 185.1559
1115.50 182.4569
1115.60 181.8484
1115.70 183.3304
1115.80 184.8124
1115.90 185.2847
1116.00 185.5046
1116.10 185.1083
1116.20 182.2467
1116.30 179.3851
1116.40 177.3474
1116.50 176.1333
1116.60 174.9193
1116.70 173.5642
1116.80 172.1737
1116.90 170.6395
1117.00 167.8118
1117.10 164.984
1117.20 162.7587
1117.30 161.4372
1117.40 160.1156
1117.50 159.5723
1117.60 159.3624
1117.70 159.1526
1117.80 163.2797
1117.90 167.4067
1118.00 170.8484
1118.10 172.6908
1118.20 174.5333
1118.30 176.3241
1118.40 178.0928
1118.50 179.8615
1118.60 183.1502
1118.70 186.4389
1118.80 187.4904
1118.90 183.3218
1119.00 179.1532
1119.10 176.1645
1119.20 173.9624
1119.30 171.7603
1119.40 171.4528
1119.50 171.3557
1119.60 171.6925
1119.70 173.7645
1119.80 175.8366
1119.90 177.0874
1120.00 177.5169
1120.10 177.9464
1120.20 174.6869
1120.30 171.0175
1120.40 169.1745
1120.50 174.6375
1120.60 180.1005
1120.70 184.1957
1120.80 186.923
1120.90 189.6503
1121.00 187.7794
1121.10 184.7588
1121.20 181.8431
1121.30 179.8709
1121.40 177.8988
1121.50 176.3503
1121.60 175.437
1121.70 174.5237
1121.80 172.8902
1121.90 170.948
1122.00 169.321
1122.10 170.5303
1122.20 171.7396
1122.30 174.2035
1122.40 178.5493
1122.50 182.8951
1122.60 182.6605
1122.70 180.4629
1122.80 178.8778
1122.90 179.7429
1123.00 180.608
1123.10 181.4732
1123.20 180.5247
1123.30 179.3747
1123.40 178.2247
1123.50 174.7991
1123.60 170.3981
1123.70 165.9972
1123.80 165.2633
1123.90 170.03
1124.00 174.7967
1124.10 179.419
1124.20 182.7418
1124.30 186.0647
1124.40 189.3875
1124.50 189.6056
1124.60 189.4787
1124.70 189.3519
1124.80 187.6501
1124.90 184.8983
1125.00 182.1466
1125.10 179.3559
1125.20 176.5068
1125.30 173.6577
1125.40 171.3296
1125.50 173.6908
1125.60 176.052
1125.70 178.4131
1125.80 179.98
1125.90 181.4586
1126.00 182.9373
1126.10 182.9245
1126.20 181.9176
1126.30 180.9106
1126.40 180.9799
1126.50 182.6636
1126.60 184.3474
1126.70 186.0349
1126.80 187.7571
1126.90 189.4793
1127.00 191.2015
1127.10 190.3062
1127.20 188.7565
1127.30 187.2068
1127.40 185.2676
1127.50 183.0688
1127.60 180.8699
1127.70 178.9492
1127.80 177.6777
1127.90 176.4062
1128.00 175.4524
1128.10 177.3591
1128.20 179.2657
1128.30 181.1723
1128.40 182.3659
1128.50 183.3811
1128.60 184.3964
1128.70 183.6111
1128.80 181.6254
1128.90 179.6396
1129.00 178.5311
1129.10 179.4692
1129.20 180.4073
1129.30 181.1933
1129.40 180.6098
1129.50 180.0263
1129.60 179.4428
1129.70 180.2659
1129.80 181.4406
1129.90 182.6153
1130.00 183.2546
1130.10 183.3585
1130.20 183.4624
1130.30 182.82
1130.40 180.4365
1130.50 178.053
1130.60 175.6695
1130.70 175.2354
1130.80 174.8013
1130.90 174.3673
1131.00 175.8828
1131.10 177.8858
1131.20 179.8888
1131.30 181.4804
1131.40 182.6606
1131.50 183.8409
1131.60 185.3453
1131.70 187.6063
1131.80 189.8672
1131.90 192.1281
1132.00 190.9643
1132.10 189.8005
1132.20 188.6367
1132.30 187.4692
1132.40 186.3008
1132.50 185.1324
1132.60 184.9486
1132.70 185.7492
1132.80 186.5499
1132.90 187.0688
1133.00 186.9302
1133.10 186.7916
1133.20 186.6531
1133.30 185.2214
1133.40 183.7897
1133.50 182.358
1133.60 179.7326
1133.70 176.5957
1133.80 173.4587
1133.90 171.1976
1134.00 169.8123
1134.10 168.427
1134.20 167.0631
1134.30 165.7846
1134.40 164.5061
1134.50 163.2276
1134.60 160.1771
1134.70 157.1266
1134.80 154.0761
1134.90 158.3961
1135.00 165.8748
1135.10 173.3535
1135.20 176.4849
1135.30 175.2688
1135.40 174.0527
1135.50 173.0106
1135.60 172.6646
1135.70 172.3186
1135.80 171.9726
1135.90 168.7387
1136.00 165.5047
1136.10 162.2708
1136.20 164.0429
1136.30 167.9606
1136.40 171.8782
1136.50 172.9704
1136.60 171.2373
1136.70 169.5041
1136.80 167.6969
1136.90 165.5935
1137.00 163.49
1137.10 161.3865
1137.20 161.1332
1137.30 160.8799
1137.40 160.6265
1137.50 157.2565
1137.60 152.5507
1137.70 147.8449
1137.80 141.6549
1137.90 133.9807
1138.00 126.3065
1138.10 118.9064
1138.20 112.603
1138.30 106.2996
1138.40 99.99611
1138.50 107.6978
1138.60 115.3994
1138.70 123.101
1138.80 131.7731
1138.90 140.8612
1139.00 149.9492
1139.10 155.5085
1139.20 155.7748
1139.30 156.0412
1139.40 155.8225
1139.50 153.6641
1139.60 151.5056
1139.70 149.3471
1139.80 144.4795
1139.90 139.3107
1140.00 134.142
1140.10 126.7432
1140.20 118.3886
1140.30 110.034
1140.40 103.2764
1140.50 98.91418
1140.60 94.55198
1140.70 92.3409
1140.80 98.73431
1140.90 105.1277
1141.00 111.5211
1141.10 122.4369
1141.20 133.8551
1141.30 145.2733
1141.40 151.5062
1141.50 155.5167
1141.60 159.5273
1141.70 163.2156
1141.80 166.4205
1141.90 169.6254
1142.00 172.4008
1142.10 173.458
1142.20 174.5151
1142.30 175.5723
1142.40 176.5175
1142.50 177.4504
1142.60 178.3832
1142.70 178.4976
1142.80 178.2613
1142.90 178.0251
1143.00 177.8569
1143.10 177.7909
1143.20 177.7249
1143.30 177.5822
1143.40 177.1326
1143.50 176.6829
1143.60 176.2333
1143.70 176.8441
1143.80 177.5729
1143.90 178.3016
1144.00 177.3845
1144.10 175.762
1144.20 174.1396
1144.30 172.7417
1144.40 171.6806
1144.50 170.6194
1144.60 170.1575
1144.70 172.0923
1144.80 174.0271
1144.90 175.9619
1145.00 175.6815
1145.10 175.1549
1145.20 174.6283
1145.30 174.506
1145.40 174.5571
1145.50 174.6081
1145.60 174.3666
1145.70 173.6866
1145.80 173.0065
1145.90 173.2405
1146.00 177.1312
1146.10 181.0218
1146.20 184.9124
1146.30 185.6114
1146.40 185.9558
1146.50 186.3001
1146.60 186.5027
1146.70 186.6444
1146.80 186.7862
1146.90 187.2158
1147.00 188.0771
1147.10 188.9385
1147.20 189.3992
1147.30 188.2577
1147.40 187.1162
1147.50 185.9747
1147.60 186.936
1147.70 188.1308
1147.80 189.3256
1147.90 191.2304
1148.00 193.4395
1148.10 195.6485
1148.20 196.1024
1148.30 193.9236
1148.40 191.7447
1148.50 189.838
1148.60 189.0198
1148.70 188.2017
1148.80 187.3835
1148.90 190.4343
1149.00 193.9151
1149.10 197.3959
1149.20 198.7391
1149.30 199.1663
1149.40 199.5934
1149.50 199.1071
1149.60 197.2506
1149.70 195.3942
1149.80 193.6074
1149.90 192.0998
1150.00 190.5921
1150.10 189.0844
1150.20 190.3882
1150.30 192.0043
1150.40 193.6204
1150.50 194.2668
1150.60 194.4977
1150.70 194.7285
1150.80 195.1672
1150.90 195.9178
1151.00 196.6684
1151.10 197.1768
1151.20 196.7167
1151.30 196.2565
1151.40 195.7964
1151.50 195.689
1151.60 195.6208
1151.70 195.5526
1151.80 194.551
1151.90 193.1493
1152.00 191.7476
1152.10 189.874
1152.20 187.2923
1152.30 184.7107
1152.40 181.9559
1152.50 178.5088
1152.60 175.0617
1152.70 171.6146
1152.80 174.8685
1152.90 178.8669
1153.00 182.8653
1153.10 184.7928
1153.20 185.8327
1153.30 186.8726
1153.40 187.3178
1153.50 186.8711
1153.60 186.4245
1153.70 186.4215
1153.80 188.1936
1153.90 189.9656
1154.00 191.7376
1154.10 193.2072
1154.20 194.6432
1154.30 196.0792
1154.40 194.2769
1154.50 191.0868
1154.60 187.8967
1154.70 185.5326
1154.80 184.4077
1154.90 183.2829
1155.00 182.7946
1155.10 184.8527
1155.20 186.9109
1155.30 188.969
1155.40 190.064
1155.50 191.052
1155.60 192.04
1155.70 192.6603
1155.80 193.123
1155.90 193.5857
1156.00 193.6147
1156.10 192.9929
1156.20 192.3712
1156.30 192.0445
1156.40 192.8978
1156.50 193.7511
1156.60 194.6045
1156.70 194.0336
1156.80 193.3044
1156.90 192.5753
1157.00 191.7255
1157.10 190.8241
1157.20 189.9226
1157.30 189.27
1157.40 188.9906
1157.50 188.7112
1157.60 188.4585
1157.70 188.3125
1157.80 188.1664
1157.90 188.0203
1158.00 188.8026
1158.10 189.688
1158.20 190.5734
1158.30 190.4602
1158.40 189.9189
1158.50 189.3776
1158.60 188.6746
1158.70 187.7288
1158.80 186.783
1158.90 185.5506
1159.00 183.1711
1159.10 180.7917
1159.20 178.4123
1159.30 176.1044
1159.40 173.7964
1159.50 171.4885
1159.60 171.0087
1159.70 171.3125
1159.80 171.6163
1159.90 172.698
1160.00 174.5574
1160.10 176.4169
1160.20 178.3858
1160.30 180.7924
1160.40 183.199
1160.50 185.6056
1160.60 183.913
1160.70 182.2204
1160.80 180.5277
1160.90 180.1252
1161.00 180.2756
1161.10 180.426
1161.20 182.5012
1161.30 186.501
1161.40 190.5008
1161.50 193.8785
1161.60 194.7673
1161.70 195.6561
1161.80 196.545
1161.90 193.6454
1162.00 190.7458
1162.10 187.8462
1162.20 186.6512
1162.30 186.1867
1162.40 185.7222
1162.50 186.3606
1162.60 188.1017
1162.70 189.8429
1162.80 191.6812
1162.90 193.9079
1163.00 196.1346
1163.10 198.3613
1163.20 198.1934
1163.30 198.0256
1163.40 197.8578
1163.50 194.5936
1163.60 190.0024
1163.70 185.4113
1163.80 182.2718
1163.90 180.584
1164.00 178.8962
1164.10 177.9456
1164.20 179.9438
1164.30 181.9421
1164.40 183.9403
1164.50 186.677
1164.60 189.4137
1164.70 192.1504
1164.80 191.189
1164.90 189.3031
1165.00 187.4171
1165.10 185.7966
1165.20 184.4415
1165.30 183.0864
1165.40 181.7834
1165.50 180.602
1165.60 179.4205
1165.70 178.239
1165.80 179.8458
1165.90 181.4525
1166.00 183.0592
1166.10 184.877
1166.20 186.7475
1166.30 188.618
1166.40 189.5327
1166.50 189.4916
1166.60 189.4505
1166.70 189.0718
1166.80 187.9054
1166.90 186.7391
1167.00 185.5727
1167.10 184.378
1167.20 183.1833
1167.30 181.9885
1167.40 179.7666
1167.50 177.2878
1167.60 174.809
1167.70 173.7736
1167.80 174.1815
1167.90 174.5894
1168.00 174.3962
1168.10 172.8004
1168.20 171.2046
1168.30 169.2343
1168.40 163.8927
1168.50 158.5512
1168.60 153.2097
1168.70 144.4094
1168.80 134.7443
1168.90 125.0792
1169.00 116.3389
1169.10 108.2152
1169.20 100.0914
1169.30 96.0713
1169.40 101.6264
1169.50 107.1814
1169.60 113.2479
1169.70 123.9176
1169.80 134.5872
1169.90 145.2568
1170.00 152.0523
1170.10 157.8794
1170.20 163.7064
1170.30 168.3586
1170.40 172.2276
1170.50 176.0966
1170.60 179.0469
1170.70 179.8536
1170.80 180.6603
1170.90 181.4644
1171.00 182.2444
1171.10 183.0245
1171.20 183.8045
1171.30 184.0509
1171.40 184.1638
1171.50 184.2767
1171.60 183.9827
1171.70 183.4173
1171.80 182.8519
1171.90 182.0554
1172.00 180.9121
1172.10 179.7688
1172.20 178.7786
1172.30 179.1668
1172.40 179.5551
1172.50 179.9433
1172.60 181.0757
1172.70 182.2908
1172.80 183.5059
1172.90 184.5704
1173.00 185.5344
1173.10 186.4983
1173.20 186.7428
1173.30 185.908
1173.40 185.0732
1173.50 184.2417
1173.60 183.439
1173.70 182.6364
1173.80 181.8337
1173.90 181.1518
1174.00 180.4834
1174.10 179.8149
1174.20 180.4528
1174.30 181.6505
1174.40 182.8483
1174.50 183.5547
1174.60 183.5242
1174.70 183.4937
1174.80 183.1313
1174.90 181.4412
1175.00 179.7512
1175.10 178.0611
1175.20 175.4503
1175.30 172.7371
1175.40 170.024
1175.50 169.9835
1175.60 171.0884
1175.70 172.1934
1175.80 172.1005
1175.90 170.2109
1176.00 168.3212
1176.10 166.2257
1176.20 163.3067
1176.30 160.3877
1176.40 157.4688
1176.50 153.1665
1176.60 148.7106
1176.70 144.2547
1176.80 134.9183
1176.90 123.4902
1177.00 112.0621
1177.10 101.9493
1177.20 93.15172
1177.30 84.35412
1177.40 77.75254
1177.50 79.93503
1177.60 82.11751
1177.70 84.3
1177.80 94.6987
1177.90 105.0974
1178.00 115.4961
1178.10 124.1057
1178.20 131.9486
1178.30 139.7915
1178.40 146.0778
1178.50 150.8076
1178.60 155.5374
1178.70 159.8952
1178.80 162.7649
1178.90 165.6345
1179.00 168.5042
1179.10 169.1101
1179.20 169.716
1179.30 170.322
1179.40 170.4457
1179.50 170.4489
1179.60 170.4521
1179.70 171.045
1179.80 172.2275
1179.90 173.4099
1180.00 174.5218
1180.10 175.4692
1180.20 176.4165
1180.30 177.3638
1180.40 177.9709
1180.50 178.5781
1180.60 179.1852
1180.70 178.8579
1180.80 178.2969
1180.90 177.7359
1181.00 176.9805
1181.10 176.0308
1181.20 175.081
1181.30 174.0403
1181.40 172.7871
1181.50 171.5339
1181.60 170.3617
1181.70 169.9181
1181.80 169.4746
1181.90 169.031
1182.00 170.7257
1182.10 172.9549
1182.20 175.1842
1182.30 176.0106
1182.40 175.9018
1182.50 175.793
1182.60 175.4237
1182.70 174.4465
1182.80 173.4692
1182.90 172.6632
1183.00 173.3982
1183.10 174.1333
1183.20 174.8683
1183.30 174.5486
1183.40 173.9652
1183.50 173.3818
1183.60 171.9004
1183.70 169.8202
1183.80 167.7401
1183.90 167.0332
1184.00 168.3864
1184.10 169.7395
1184.20 171.2478
1184.30 174.1525
1184.40 177.0571
1184.50 179.9618
1184.60 177.5014
1184.70 174.4448
1184.80 171.3882
1184.90 168.6558
1185.00 166.1396
1185.10 163.6233
1185.20 163.0335
1185.30 165.3334
1185.40 167.6332
1185.50 169.9111
1185.60 172.1011
1185.70 174.291
1185.80 176.481
1185.90 176.9186
1186.00 177.1615
1186.10 177.4044
1186.20 177.1809
1186.30 176.7575
1186.40 176.3341
1186.50 175.8544
1186.60 175.2901
1186.70 174.7258
1186.80 173.9592
1186.90 172.3828
1187.00 170.8064
1187.10 169.2301
1187.20 170.3009
1187.30 171.6658
1187.40 173.0307
1187.50 173.5106
1187.60 173.6112
1187.70 173.7117
1187.80 172.9857
1187.90 171.433
1188.00 169.8803
1188.10 167.6672
1188.20 162.8125
1188.30 157.9577
1188.40 153.103
1188.50 152.4507
1188.60 151.7984
1188.70 151.1461
1188.80 154.9475
1188.90 160.6578
1189.00 166.368
1189.10 170.0033
1189.20 171.5636
1189.30 173.1239
1189.40 174.1505
1189.50 173.932
1189.60 173.7135
1189.70 173.495
1189.80 174.3338
1189.90 175.1726
1190.00 176.0114
1190.10 175.691
1190.20 175.081
1190.30 174.4709
1190.40 173.358
1190.50 171.7424
1190.60 170.1267
1190.70 169.471
1190.80 171.0551
1190.90 172.6393
1191.00 174.1606
1191.10 175.1156
1191.20 176.0706
1191.30 177.0257
1191.40 177.4886
1191.50 177.8286
1191.60 178.1685
1191.70 178.2089
1191.80 178.0497
1191.90 177.8904
1192.00 177.7208
1192.10 177.5271
1192.20 177.3334
1192.30 177.0472
1192.40 175.9287
1192.50 174.8102
1192.60 173.6917
1192.70 173.6589
1192.80 173.7466
1192.90 173.8344
1193.00 174.7491
1193.10 176.215
1193.20 177.6809
1193.30 177.9333
1193.40 176.3654
1193.50 174.7976
1193.60 173.0577
1193.70 169.7705
1193.80 166.4832
1193.90 163.1959
1194.00 162.1905
1194.10 161.4386
1194.20 160.6866
1194.30 160.3897
1194.40 160.2876
1194.50 160.1856
1194.60 159.2534
1194.70 157.0759
1194.80 154.8984
1194.90 153.126
1195.00 152.974
1195.10 152.8221
1195.20 152.6701
1195.30 156.3815
1195.40 160.5221
1195.50 164.6627
1195.60 165.7498
1195.70 165.5283
1195.80 165.3067
1195.90 163.8011
1196.00 161.0114
1196.10 158.2218
1196.20 155.8076
1196.30 154.8951
1196.40 153.9826
1196.50 153.0701
1196.60 153.1706
1196.70 153.2711
1196.80 153.3716
1196.90 152.9551
1197.00 152.3169
1197.10 151.6787
1197.20 148.9472
1197.30 144.1225
1197.40 139.2978
1197.50 135.4698
1197.60 133.9674
1197.70 132.465
1197.80 130.9626
1197.90 134.3322
1198.00 137.7017
1198.10 141.0713
1198.20 143.5831
1198.30 145.8803
1198.40 148.1775
1198.50 150.5028
1198.60 152.856
1198.70 155.2092
1198.80 155.8389
1198.90 152.447
1199.00 149.0551
1199.10 145.7965
1199.20 143.7381
1199.30 141.6797
1199.40 139.6214
1199.50 139.7976
1199.60 140.5325
1199.70 141.2674
1199.80 142.4229
1199.90 143.8588
1200.00 145.2946
