# Version 2.1 - nm, norm@500 to 1, cut digits
# Wavelength(nm)  Flambda(ergs/cm^s/s/nm)
300.00 0.005820206
300.10 0.007452496
300.20 0.008580755
300.30 0.009220038
300.40 0.009558664
300.50 0.009762089
300.60 0.009899009
300.70 0.009989159
300.80 0.01005226
300.90 0.01010499
301.00 0.01016009
301.10 0.01022297
301.20 0.01029268
301.30 0.01036706
301.40 0.01044401
301.50 0.01052225
301.60 0.0106012
301.70 0.01068055
301.80 0.01076012
301.90 0.01083977
302.00 0.01091945
302.10 0.01099912
302.20 0.0110788
302.30 0.01115855
302.40 0.01123846
302.50 0.01131868
302.60 0.01139944
302.70 0.01148117
302.80 0.01156486
302.90 0.01165209
303.00 0.01174451
303.10 0.01184283
303.20 0.01194635
303.30 0.01205341
303.40 0.01216242
303.50 0.01227241
303.60 0.01238293
303.70 0.01249377
303.80 0.01260477
303.90 0.01271583
304.00 0.0128269
304.10 0.01293798
304.20 0.01304901
304.30 0.01315985
304.40 0.0132702
304.50 0.01337958
304.60 0.01348733
304.70 0.0135921
304.80 0.01369089
304.90 0.01377885
305.00 0.01385093
305.10 0.01390495
305.20 0.01394309
305.30 0.01397039
305.40 0.01399172
305.50 0.01401007
305.60 0.01402678
305.70 0.01404253
305.80 0.01405779
305.90 0.01407286
306.00 0.01408788
306.10 0.0141029
306.20 0.01411793
306.30 0.01413295
306.40 0.01414797
306.50 0.014163
306.60 0.01417803
306.70 0.01419307
306.80 0.01420812
306.90 0.01422319
307.00 0.0142383
307.10 0.01425344
307.20 0.01426862
307.30 0.01428383
307.40 0.01429905
307.50 0.01431427
307.60 0.0143295
307.70 0.01434473
307.80 0.01435996
307.90 0.01437519
308.00 0.01439042
308.10 0.01440565
308.20 0.01442099
308.30 0.01443682
308.40 0.01445387
308.50 0.01447333
308.60 0.01449688
308.70 0.01452789
308.80 0.01457386
308.90 0.01464696
309.00 0.01475979
309.10 0.01491782
309.20 0.01511558
309.30 0.01534047
309.40 0.01558031
309.50 0.01582762
309.60 0.01607901
309.70 0.01633282
309.80 0.01658786
309.90 0.01684337
310.00 0.017099
310.10 0.01735463
310.20 0.01761014
310.30 0.01786517
310.40 0.01811897
310.50 0.01837035
310.60 0.01861761
310.70 0.01885737
310.80 0.01908209
310.90 0.01927955
311.00 0.01943707
311.10 0.01954914
311.20 0.01962128
311.30 0.01966614
311.40 0.01969598
311.50 0.0197183
311.60 0.01973652
311.70 0.01975231
311.80 0.01976687
311.90 0.01978095
312.00 0.01979491
312.10 0.01980888
312.20 0.01982298
312.30 0.01983768
312.40 0.0198539
312.50 0.01987312
312.60 0.01989741
312.70 0.01993097
312.80 0.0199831
312.90 0.02006891
313.00 0.02020405
313.10 0.02039531
313.20 0.02063589
313.30 0.02091016
313.40 0.02120299
313.50 0.02150509
313.60 0.02181227
313.70 0.02212245
313.80 0.02243414
313.90 0.02274643
314.00 0.02305886
314.10 0.02337129
314.20 0.02368382
314.30 0.02399676
314.40 0.02431076
314.50 0.02462685
314.60 0.02494647
314.70 0.02527254
314.80 0.02561154
314.90 0.02597398
315.00 0.02637075
315.10 0.0268066
315.20 0.02727678
315.30 0.0277704
315.40 0.02827695
315.50 0.02878995
315.60 0.02930649
315.70 0.02982511
315.80 0.03034479
315.90 0.03086488
316.00 0.03138507
316.10 0.03190526
316.20 0.0324251
316.30 0.0329434
316.40 0.03345783
316.50 0.03396459
316.60 0.03445835
316.70 0.03492839
316.80 0.03535093
316.90 0.03568729
317.00 0.03589744
317.10 0.03596398
317.20 0.03590431
317.30 0.03575846
317.40 0.03556511
317.50 0.03534804
317.60 0.03511797
317.70 0.03488024
317.80 0.03463862
317.90 0.03439547
318.00 0.03415197
318.10 0.03390847
318.20 0.03366524
318.30 0.03342319
318.40 0.0331841
318.50 0.03295088
318.60 0.03272761
318.70 0.0325225
318.80 0.03235375
318.90 0.03225097
319.00 0.0322448
319.10 0.03234857
319.20 0.03254894
319.30 0.03281529
319.40 0.033118
319.50 0.03343886
319.60 0.03376968
319.70 0.03410636
319.80 0.03444601
319.90 0.03478684
320.00 0.03512794
320.10 0.03546903
320.20 0.03581003
320.30 0.03615059
320.40 0.03649006
320.50 0.03682735
320.60 0.03716097
320.70 0.03748787
320.80 0.03780132
320.90 0.03809037
321.00 0.03834369
321.10 0.03855635
321.20 0.03873328
321.30 0.03888581
321.40 0.03902489
321.50 0.03915725
321.60 0.03928594
321.70 0.03941246
321.80 0.03953787
321.90 0.03966286
322.00 0.03978774
322.10 0.03991262
322.20 0.04003787
322.30 0.04016471
322.40 0.04029555
322.50 0.04043433
322.60 0.04058654
322.70 0.04076329
322.80 0.04098915
322.90 0.04130414
323.00 0.04174965
323.10 0.04234366
323.20 0.04306819
323.30 0.04388185
323.40 0.04474462
323.50 0.04563193
323.60 0.04653267
323.70 0.04744135
323.80 0.04835403
323.90 0.04926831
324.00 0.05018295
324.10 0.05109758
324.20 0.05201216
324.30 0.05292648
324.40 0.05384015
324.50 0.05475253
324.60 0.05566273
324.70 0.05656894
324.80 0.05746718
324.90 0.05835093
325.00 0.05921349
325.10 0.06005192
325.20 0.06086915
325.30 0.0616719
325.40 0.06246667
325.50 0.06325746
325.60 0.06404607
325.70 0.06483339
325.80 0.06562005
325.90 0.06640646
326.00 0.06719281
326.10 0.06797916
326.20 0.06876564
326.30 0.06955267
326.40 0.0703411
326.50 0.07113232
326.60 0.07192824
326.70 0.07273274
326.80 0.07355445
326.90 0.07440735
327.00 0.07530596
327.10 0.07625656
327.20 0.07725285
327.30 0.07828034
327.40 0.07932504
327.50 0.08037832
327.60 0.08143631
327.70 0.08249707
327.80 0.08355924
327.90 0.08462196
328.00 0.08568481
328.10 0.08674766
328.20 0.08780977
328.30 0.08886861
328.40 0.08991922
328.50 0.09095353
328.60 0.09196023
328.70 0.09291655
328.80 0.09377196
328.90 0.09444428
329.00 0.09484851
329.10 0.09494765
329.20 0.09477868
329.30 0.09442664
329.40 0.09397368
329.50 0.09347034
329.60 0.0929394
329.70 0.09239215
329.80 0.09183667
329.90 0.09127793
330.00 0.09071844
330.10 0.09015895
330.20 0.08960002
330.30 0.08904351
330.40 0.0884931
330.50 0.08795478
330.60 0.08743694
330.70 0.08695649
330.80 0.08655088
330.90 0.08628109
331.00 0.08621017
331.10 0.08636557
331.20 0.08671985
331.30 0.08720995
331.40 0.08777489
331.50 0.08837722
331.60 0.08900002
331.70 0.08963492
331.80 0.09027592
331.90 0.09091934
332.00 0.09156331
332.10 0.09220729
332.20 0.09285091
332.30 0.093493
332.40 0.09413123
332.50 0.0947618
332.60 0.0953794
332.70 0.09597334
332.80 0.09651989
332.90 0.09698045
333.00 0.09731508
333.10 0.09750643
333.20 0.09757186
333.30 0.0975513
333.40 0.09748335
333.50 0.09739172
333.60 0.09728714
333.70 0.0971749
333.80 0.09705879
333.90 0.09694115
334.00 0.09682316
334.10 0.09670989
334.20 0.0966091
334.30 0.09652508
334.40 0.09645819
334.50 0.09640495
334.60 0.09642117
334.70 0.09664643
334.80 0.09716302
334.90 0.09779731
335.00 0.09817742
335.10 0.09823922
335.20 0.09868869
335.30 0.1007638
335.40 0.1052341
335.50 0.1114122
335.60 0.1171431
335.70 0.1199939
335.80 0.1187654
335.90 0.1140683
336.00 0.1076928
336.10 0.1015409
336.20 0.09701108
336.30 0.09478327
336.40 0.09457635
336.50 0.09519205
336.60 0.09527838
336.70 0.09447278
336.80 0.09383894
336.90 0.09499482
337.00 0.09866873
337.10 0.1039043
337.20 0.10856
337.30 0.1107415
337.40 0.1101065
337.50 0.1080593
337.60 0.1066744
337.70 0.1071612
337.80 0.1091501
337.90 0.1113724
338.00 0.1128259
338.10 0.1131973
338.20 0.1123362
338.30 0.1098356
338.40 0.105643
338.50 0.1009332
338.60 0.09791162
338.70 0.09829349
338.80 0.1017659
338.90 0.1061019
339.00 0.1089569
339.10 0.1097642
339.20 0.110055
339.30 0.111886
339.40 0.1158752
339.50 0.1207533
339.60 0.12465
339.70 0.1265978
339.80 0.1267706
339.90 0.125616
340.00 0.1233254
340.10 0.1201352
340.20 0.1165791
340.30 0.1131038
340.40 0.1095762
340.50 0.1055268
340.60 0.1009279
340.70 0.09650879
340.80 0.09325762
340.90 0.09175049
341.00 0.09197215
341.10 0.0935776
341.20 0.09613339
341.30 0.09911811
341.40 0.1019304
341.50 0.1040945
341.60 0.1054912
341.70 0.1063831
341.80 0.1071714
341.90 0.1080645
342.00 0.1088748
342.10 0.1090603
342.20 0.108067
342.30 0.1058242
342.40 0.1030064
342.50 0.1007166
342.60 0.0997809
342.70 0.100259
342.80 0.1015383
342.90 0.1028232
343.00 0.1036188
343.10 0.1039458
343.20 0.1041816
343.30 0.1046549
343.40 0.1053308
343.50 0.1058844
343.60 0.1060334
343.70 0.1057091
343.80 0.1049861
343.90 0.1040263
344.00 0.1031118
344.10 0.1025645
344.20 0.1024817
344.30 0.1026069
344.40 0.1025742
344.50 0.1022824
344.60 0.102
344.70 0.1021535
344.80 0.1030648
344.90 0.1048369
345.00 0.1073799
345.10 0.1104552
345.20 0.1136952
345.30 0.116619
345.40 0.1187118
345.50 0.1196517
345.60 0.1195429
345.70 0.1188933
345.80 0.1182649
345.90 0.1178873
346.00 0.1175623
346.10 0.1168635
346.20 0.1154565
346.30 0.1133847
346.40 0.1111589
346.50 0.1094698
346.60 0.1086512
346.70 0.1084006
346.80 0.1080659
346.90 0.1071839
347.00 0.1057293
347.10 0.1040268
347.20 0.1026025
347.30 0.1020369
347.40 0.1027011
347.50 0.1044776
347.60 0.1068146
347.70 0.1091356
347.80 0.1112011
347.90 0.1131165
348.00 0.1150663
348.10 0.1170415
348.20 0.1187536
348.30 0.119801
348.40 0.1199769
348.50 0.1194433
348.60 0.1185718
348.70 0.1176214
348.80 0.1166309
348.90 0.1155728
349.00 0.1144934
349.10 0.1134881
349.20 0.1126364
349.30 0.1120334
349.40 0.1118315
349.50 0.1121303
349.60 0.1128037
349.70 0.1135206
349.80 0.1140491
349.90 0.1145998
350.00 0.1157911
350.10 0.1181483
350.20 0.1215661
350.30 0.125257
350.40 0.1282439
350.50 0.1299308
350.60 0.1302843
350.70 0.1296073
350.80 0.1282474
350.90 0.1264267
351.00 0.124159
351.10 0.121262
351.20 0.1175507
351.30 0.1131848
351.40 0.1088487
351.50 0.1054557
351.60 0.103545
351.70 0.1029305
351.80 0.102937
351.90 0.102965
352.00 0.1028291
352.10 0.1026366
352.20 0.1025355
352.30 0.1026736
352.40 0.103335
352.50 0.1049979
352.60 0.1080681
352.70 0.1124434
352.80 0.1173583
352.90 0.1217893
353.00 0.1251664
353.10 0.1277058
353.20 0.1300098
353.30 0.132432
353.40 0.134914
353.50 0.1373112
353.60 0.139667
353.70 0.1420981
353.80 0.144571
353.90 0.1468996
354.00 0.148852
354.10 0.1501549
354.20 0.1505112
354.30 0.149825
354.40 0.1484487
354.50 0.1470652
354.60 0.1462044
354.70 0.1458801
354.80 0.1457178
354.90 0.1453713
355.00 0.1447711
355.10 0.1440507
355.20 0.14335
355.30 0.1427255
355.40 0.1421941
355.50 0.1417508
355.60 0.1412918
355.70 0.1405646
355.80 0.1392758
355.90 0.1373245
356.00 0.1349118
356.10 0.1323777
356.20 0.1299201
356.30 0.1274569
356.40 0.1247559
356.50 0.1217358
356.60 0.1186799
356.70 0.1161441
356.80 0.1145869
356.90 0.1140365
357.00 0.1140965
357.10 0.1142322
357.20 0.1140329
357.30 0.1132959
357.40 0.1119964
357.50 0.1102483
357.60 0.1082698
357.70 0.1063111
357.80 0.1045638
357.90 0.1031201
358.00 0.1020295
358.10 0.1014125
358.20 0.1014848
358.30 0.1024196
358.40 0.1041545
358.50 0.1063329
358.60 0.1084329
358.70 0.1099784
358.80 0.1107271
358.90 0.1107783
359.00 0.1105714
359.10 0.1107165
359.20 0.1116589
359.30 0.1133742
359.40 0.1153305
359.50 0.1168145
359.60 0.1174025
359.70 0.1172084
359.80 0.1167209
359.90 0.1163717
360.00 0.1161867
360.10 0.1157881
360.20 0.1147389
360.30 0.1129271
360.40 0.1107074
360.50 0.1087531
360.60 0.1077661
360.70 0.1082089
360.80 0.1101028
360.90 0.1129814
361.00 0.1161083
361.10 0.1188727
361.20 0.1210562
361.30 0.1227448
361.40 0.124036
361.50 0.1249006
361.60 0.1253514
361.70 0.1256253
361.80 0.1260613
361.90 0.1267771
362.00 0.1275487
362.10 0.1280573
362.20 0.1281857
362.30 0.1280547
362.40 0.127873
362.50 0.1278138
362.60 0.1279322
362.70 0.1280668
362.80 0.1278716
362.90 0.1271005
363.00 0.1259127
363.10 0.1248279
363.20 0.1243233
363.30 0.1244899
363.40 0.1250583
363.50 0.1256734
363.60 0.1261129
363.70 0.1263132
363.80 0.1262692
363.90 0.1259362
364.00 0.1252113
364.10 0.1240026
364.20 0.122336
364.30 0.1204094
364.40 0.1185528
364.50 0.1171327
364.60 0.1164251
364.70 0.1164809
364.80 0.117093
364.90 0.1179607
365.00 0.1189546
365.10 0.1202195
365.20 0.1219431
365.30 0.1239992
365.40 0.1258681
365.50 0.12697
365.60 0.1271201
365.70 0.1266604
365.80 0.1261363
365.90 0.1258696
366.00 0.1258409
366.10 0.1259138
366.20 0.1260847
366.30 0.1264578
366.40 0.1270328
366.50 0.1275965
366.60 0.1278267
366.70 0.1274914
366.80 0.1265685
366.90 0.1252292
367.00 0.1237594
367.10 0.1224833
367.20 0.1216948
367.30 0.1215862
367.40 0.1221728
367.50 0.1232777
367.60 0.1246176
367.70 0.1259418
367.80 0.1271271
367.90 0.1281708
368.00 0.1291105
368.10 0.1299406
368.20 0.1305818
368.30 0.1309155
368.40 0.1308615
368.50 0.1304653
368.60 0.1299314
368.70 0.1295457
368.80 0.1295138
368.90 0.1298458
369.00 0.1304025
369.10 0.1310577
369.20 0.1317779
369.30 0.1325289
369.40 0.1331547
369.50 0.1334189
369.60 0.1332093
369.70 0.1326916
369.80 0.1322535
369.90 0.1322952
370.00 0.1330278
370.10 0.1343902
370.20 0.1361135
370.30 0.1378577
370.40 0.1393266
370.50 0.1403203
370.60 0.14076
370.70 0.140733
370.80 0.140492
370.90 0.1403341
371.00 0.1404022
371.10 0.1405607
371.20 0.1404479
371.30 0.1396677
371.40 0.1380184
371.50 0.1356433
371.60 0.1330077
371.70 0.1306911
371.80 0.129131
371.90 0.1284782
372.00 0.1286041
372.10 0.1291393
372.20 0.1294766
372.30 0.1288947
372.40 0.1268968
372.50 0.1236132
372.60 0.1199079
372.70 0.1170119
372.80 0.1159232
372.90 0.1169805
373.00 0.1198198
373.10 0.123619
373.20 0.1274167
373.30 0.1303649
373.40 0.1319038
373.50 0.1318239
373.60 0.1302138
373.70 0.1273586
373.80 0.1236801
373.90 0.1197404
374.00 0.1162171
374.10 0.113788
374.20 0.1129758
374.30 0.1140564
374.40 0.1170596
374.50 0.1217811
374.60 0.1277528
374.70 0.1342112
374.80 0.140168
374.90 0.1446415
375.00 0.1469589
375.10 0.1469485
375.20 0.144926
375.30 0.1415302
375.40 0.1375304
375.50 0.1336655
375.60 0.1304785
375.70 0.128195
375.80 0.1267272
375.90 0.1258267
376.00 0.1253168
376.10 0.1252746
376.20 0.1260676
376.30 0.1282144
376.40 0.1321345
376.50 0.13795
376.60 0.1454641
376.70 0.1542101
376.80 0.1634287
376.90 0.1719997
377.00 0.1785575
377.10 0.1819156
377.20 0.1815529
377.30 0.1777941
377.40 0.1715779
377.50 0.164047
377.60 0.1562395
377.70 0.148967
377.80 0.1427582
377.90 0.1378222
378.00 0.1340846
378.10 0.1313252
378.20 0.1293371
378.30 0.1279839
378.40 0.1271673
378.50 0.1268252
378.60 0.1269917
378.70 0.1278271
378.80 0.1295646
378.90 0.1324587
379.00 0.1368125
379.10 0.1429781
379.20 0.1511857
379.30 0.1612622
379.40 0.1724706
379.50 0.1836058
379.60 0.1932443
379.70 0.2000176
379.80 0.2029076
379.90 0.2015376
380.00 0.1963388
380.10 0.1884252
380.20 0.1792001
380.30 0.1699153
380.40 0.1614189
380.50 0.1541329
380.60 0.1481486
380.70 0.1433256
380.80 0.1393787
380.90 0.1360263
381.00 0.1331362
381.10 0.1307367
381.20 0.1288774
381.30 0.1274892
381.40 0.1264204
381.50 0.125613
381.60 0.1261719
381.70 0.1294031
381.80 0.1358355
381.90 0.1458793
382.00 0.1606641
382.10 0.1729161
382.20 0.1526512
382.30 0.1616947
382.40 0.2048858
382.50 0.2495685
382.60 0.2885675
382.70 0.3174063
382.80 0.339151
382.90 0.3609772
383.00 0.5424886
383.10 0.8709159
383.20 1.051495
383.30 1.057604
383.40 0.9094732
383.50 0.6864615
383.60 0.5049963
383.70 0.4449968
383.80 0.4765126
383.90 0.4965416
384.00 0.4534245
384.10 0.3774051
384.20 0.3009275
384.30 0.2006423
384.40 0.08342509
384.50 0.1007889
384.60 0.2418965
384.70 0.6392822
384.80 1.056365
384.90 1.267352
385.00 1.151079
385.10 0.7780499
385.20 0.382689
385.30 0.2181883
385.40 0.3662763
385.50 0.6782552
385.60 0.9253645
385.70 0.9806218
385.80 0.8522515
385.90 0.6149839
386.00 0.3650416
386.10 0.1964485
386.20 0.1643445
386.30 0.2427468
386.40 0.3582815
386.50 0.4649029
386.60 0.5583711
386.70 0.644013
386.80 0.7101497
386.90 0.7592023
387.00 0.8168911
387.10 0.8895993
387.20 0.9477434
387.30 0.9653521
387.40 0.960043
387.50 0.9519973
387.60 0.9106607
387.70 0.7965248
387.80 0.6662586
387.90 0.6377727
388.00 0.7350757
388.10 0.8348969
388.20 0.797956
388.30 0.6348727
388.40 0.4683112
388.50 0.3948586
388.60 0.4226198
388.70 0.5151999
388.80 0.6362639
388.90 0.7458783
389.00 0.8003152
389.10 0.7653327
389.20 0.6289426
389.30 0.4033899
389.40 0.1592297
389.50 0
389.60 0
389.70 0
389.80 0.120206
389.90 0.1386
390.00 0.01026739
390.10 0.0226335
390.20 0.03406155
390.30 0.08019864
390.40 0.2307826
390.50 0.230604
390.60 0.1690722
390.70 0.2243406
390.80 0.4501394
390.90 0.7122106
391.00 0.8218804
391.10 0.6792095
391.20 0.3276277
391.30 0.2436241
391.40 0.2101999
391.50 0.1720108
391.60 0.1309608
391.70 0.0858264
391.80 0.03572765
391.90 0
392.00 0
392.10 0
392.20 0
392.30 0.05136747
392.40 0.05590908
392.50 0
392.60 0
392.70 0
392.80 0
392.90 0
393.00 0.1802517
393.10 0.6118772
393.20 1.070266
393.30 1.463641
393.40 1.582277
393.50 1.3004
393.60 0.7529784
393.70 0.2577776
393.80 0.0381686
393.90 0.05995108
394.00 0.1296438
394.10 0.1166548
394.20 0
394.30 0.002268565
394.40 0.000603777
394.50 0
394.60 0
394.70 0.04724238
394.80 0.01446091
394.90 0.0291762
395.00 0.03452301
395.10 0.02938356
395.20 0.0159463
395.30 0
395.40 0
395.50 0.1614153
395.60 0.5013231
395.70 0.6057391
395.80 0.4517121
395.90 0.1817246
396.00 0.06059519
396.10 0.1130069
396.20 0.1608269
396.30 0.1998288
396.40 0.2282925
396.50 0.3597059
396.60 0.6455358
396.70 1.006354
396.80 1.344828
396.90 1.540841
397.00 1.539241
397.10 1.361161
397.20 1.056202
397.30 0.7221987
397.40 0.3908718
397.50 0.1341493
397.60 0.04129195
397.70 0.1114275
397.80 0.2510732
397.90 0.3624364
398.00 0.4287662
398.10 0.5018266
398.20 0.6070991
398.30 0.6860768
398.40 0.6477529
398.50 0.4635997
398.60 0.2056344
398.70 0
398.80 0
398.90 0
399.00 0
399.10 0
399.20 0
399.30 0
399.40 0
399.50 0
399.60 0.06498467
399.70 0.1338326
399.80 0.1337599
399.90 0.1183246
400.00 0.1412452
400.10 0.2123285
400.20 0.2852048
400.30 0.2984866
400.40 0.2388081
400.50 0.1739272
400.60 0.1834355
400.70 0.1804745
400.80 0.1667449
400.90 0.2133351
401.00 0.2248029
401.10 0.1570923
401.20 0.02196806
401.30 0
401.40 0
401.50 0
401.60 0
401.70 0.1025192
401.80 0.2754145
401.90 0.3644485
402.00 0.3907049
402.10 0.4096197
402.20 0.465514
402.30 0.5427487
402.40 0.5746939
402.50 0.5236839
402.60 0.4315538
402.70 0.3609059
402.80 0.3224284
402.90 0.294404
403.00 0.279866
403.10 0.3133262
403.20 0.3961152
403.30 0.4690344
403.40 0.4661926
403.50 0.3765025
403.60 0.2519029
403.70 0.1908289
403.80 0.1901675
403.90 0.1960917
404.00 0.2045404
404.10 0.2182128
404.20 0.2789445
404.30 0.4018582
404.40 0.5538797
404.50 0.6794425
404.60 0.7280784
404.70 0.6626075
404.80 0.4895875
404.90 0.2865889
405.00 0.151239
405.10 0.1147717
405.20 0.1256662
405.30 0.1290757
405.40 0.1325216
405.50 0.1635712
405.60 0.2081257
405.70 0.2121836
405.80 0.1433141
405.90 0.07886043
406.00 0.09629701
406.10 0.1872825
406.20 0.2797009
406.30 0.3276479
406.40 0.3466124
406.50 0.3908291
406.60 0.4539942
406.70 0.5025484
406.80 0.5161075
406.90 0.4703466
407.00 0.3475883
407.10 0.1728593
407.20 0.08902932
407.30 0.0836927
407.40 0.07700189
407.50 0.1515861
407.60 0.2081357
407.70 0.2248589
407.80 0.2276455
407.90 0.215977
408.00 0.173691
408.10 0.1077742
408.20 0.05299547
408.30 0.02791007
408.40 0.0323084
408.50 0.06222477
408.60 0.1116187
408.70 0.1562382
408.80 0.1579791
408.90 0.1017503
409.00 0.03042872
409.10 0.03826012
409.20 0.1560394
409.30 0.3156486
409.40 0.3941305
409.50 0.3628986
409.60 0.3192228
409.70 0.3810016
409.80 0.5715761
409.90 0.820832
410.00 1.035069
410.10 1.142985
410.20 1.103962
410.30 0.9145582
410.40 0.618404
410.50 0.2932721
410.60 0.01898412
410.70 0
410.80 0
410.90 0
411.00 0
411.10 0.001922976
411.20 0.008218394
411.30 0.01191137
411.40 0.01112621
411.50 0.003293459
411.60 0.1949914
411.70 0.5405636
411.80 0.782176
411.90 0.8526504
412.00 0.7912869
412.10 0.6814895
412.20 0.5963485
412.30 0.5407101
412.40 0.497999
412.50 0.4448202
412.60 0.3731027
412.70 0.2909308
412.80 0.2118983
412.90 0.1449344
413.00 0.09620818
413.10 0.07240514
413.20 0.07141441
413.30 0.08742605
413.40 0.1192102
413.50 0.1656588
413.60 0.2200226
413.70 0.2728019
413.80 0.3128021
413.90 0.3178101
414.00 0.2567075
414.10 0.1105529
414.20 0.08414657
414.30 0.0611623
414.40 0.03605271
414.50 0.009947773
414.60 0
414.70 0
414.80 0.08024593
414.90 0.1562599
415.00 0.06942024
415.10 0
415.20 0
415.30 0
415.40 0
415.50 0
415.60 0
415.70 0
415.80 0
415.90 0
416.00 0.02241728
416.10 0.1141083
416.20 0.1984015
416.30 0.2256958
416.40 0.1564317
416.50 0.005733816
416.60 0
416.70 0
416.80 0
416.90 0
417.00 0.04981793
417.10 0.2192221
417.20 0.2827388
417.30 0.2854178
417.40 0.3022006
417.50 0.3311647
417.60 0.3042055
417.70 0.1883316
417.80 0.03563403
417.90 0.02161764
418.00 0.007094354
418.10 0
418.20 0
418.30 0
418.40 0
418.50 0.02563993
418.60 0.2664337
418.70 0.5142009
418.80 0.7247883
418.90 0.874431
419.00 0.9705669
419.10 1.019707
419.20 1.004295
419.30 0.9050216
419.40 0.7356831
419.50 0.5346952
419.60 0.3448269
419.70 0.2066022
419.80 0.1541898
419.90 0.1708341
420.00 0.2017506
420.10 0.1803336
420.20 0.08254643
420.30 0.01114033
420.40 0
420.50 0
420.60 0
420.70 0
420.80 0.04824409
420.90 0.09696425
421.00 0.08915225
421.10 0.0718598
421.20 0.1173186
421.30 0.2509513
421.40 0.450981
421.50 0.6116757
421.60 0.692018
421.70 0.7019122
421.80 0.6706265
421.90 0.614604
422.00 0.5400104
422.10 0.4635607
422.20 0.4106627
422.30 0.3798902
422.40 0.321946
422.50 0.1886453
422.60 0.01607238
422.70 0.01271918
422.80 0.006413824
422.90 0.0004926278
423.00 0
423.10 0.005921842
423.20 0.0219708
423.30 0.04699682
423.40 0.0778425
423.50 0.2084259
423.60 0.4533087
423.70 0.6183397
423.80 0.6749165
423.90 0.6358625
424.00 0.5296143
424.10 0.3882718
424.20 0.2399835
424.30 0.09897202
424.40 0.03138459
424.50 0.01607322
424.60 0.008359911
424.70 0.009124461
424.80 0.1173985
424.90 0.2690921
425.00 0.4038078
425.10 0.4873927
425.20 0.49819
425.30 0.4466299
425.40 0.3681416
425.50 0.3084995
425.60 0.3012073
425.70 0.3477141
425.80 0.4132329
425.90 0.4440298
426.00 0.4111264
426.10 0.3378754
426.20 0.2700241
426.30 0.235135
426.40 0.2465793
426.50 0.3048806
426.60 0.3718459
426.70 0.3627487
426.80 0.2151031
426.90 0.0506384
427.00 0.04206417
427.10 0.03198692
427.20 0.02037805
427.30 0.006738086
427.40 0
427.50 0
427.60 0
427.70 0
427.80 0.03239807
427.90 0.04295276
428.00 0.01380542
428.10 0
428.20 0
428.30 0
428.40 0
428.50 0.0265397
428.60 0.0588622
428.70 0.09030456
428.80 0.1154349
428.90 0.1323153
429.00 0.1432171
429.10 0.2376336
429.20 0.3446217
429.30 0.4131554
429.40 0.4578457
429.50 0.4905146
429.60 0.5133262
429.70 0.5074541
429.80 0.4507026
429.90 0.3650275
430.00 0.3199056
430.10 0.3566189
430.20 0.4297986
430.30 0.457754
430.40 0.4217727
430.50 0.3843903
430.60 0.3968797
430.70 0.4346757
430.80 0.4472321
430.90 0.4257424
431.00 0.3978351
431.10 0.3857763
431.20 0.3893437
431.30 0.3967136
431.40 0.3910963
431.50 0.353698
431.60 0.318434
431.70 0.3013024
431.80 0.2759142
431.90 0.2462511
432.00 0.2321839
432.10 0.2919786
432.20 0.3674385
432.30 0.4488159
432.40 0.5081002
432.50 0.5048167
432.60 0.4155238
432.70 0.2729916
432.80 0.1571866
432.90 0.118479
433.00 0.1185292
433.10 0.07474374
433.20 0.02822243
433.30 0.03487975
433.40 0.04577656
433.50 0.05902584
433.60 0.07165587
433.70 0.09960181
433.80 0.3302827
433.90 0.6289105
434.00 0.9491881
434.10 1.185535
434.20 1.232807
434.30 1.077421
434.40 0.8209534
434.50 0.6009356
434.60 0.4893227
434.70 0.4625664
434.80 0.4492941
434.90 0.3954062
435.00 0.2949646
435.10 0.1800932
435.20 0.09022873
435.30 0.04459847
435.40 0.04433413
435.50 0.09839179
435.60 0.2003306
435.70 0.3504949
435.80 0.4854937
435.90 0.4917122
436.00 0.3163017
436.10 0.06088724
436.20 0
436.30 0.0233594
436.40 0.1366708
436.50 0.2796473
436.60 0.3217487
436.70 0.3172927
436.80 0.3597085
436.90 0.4717949
437.00 0.5849582
437.10 0.614887
437.20 0.5324995
437.30 0.3731547
437.40 0.2010429
437.50 0.06598238
437.60 0
437.70 0
437.80 0
437.90 0.05993879
438.00 0.1324631
438.10 0.1790768
438.20 0.1548785
438.30 0.08358335
438.40 0.04465298
438.50 0.05445224
438.60 0.05729861
438.70 0.06283185
438.80 0.1224339
438.90 0.2213736
439.00 0.3111705
439.10 0.3185449
439.20 0.2303154
439.30 0.1088632
439.40 0.01965556
439.50 0
439.60 0
439.70 0
439.80 0
439.90 0.07673151
440.00 0.186564
440.10 0.2154962
440.20 0.1378584
440.30 0.004601359
440.40 0
440.50 0
440.60 0
440.70 0
440.80 0
440.90 0.1199013
441.00 0.2891885
441.10 0.4232418
441.20 0.4825556
441.30 0.4659775
441.40 0.4151995
441.50 0.3791752
441.60 0.3774331
441.70 0.3918315
441.80 0.3849145
441.90 0.333027
442.00 0.2506298
442.10 0.182982
442.20 0.1705781
442.30 0.2159271
442.40 0.276587
442.50 0.2974802
442.60 0.2576702
442.70 0.1876933
442.80 0.1450086
442.90 0.1643932
443.00 0.2247284
443.10 0.2663928
443.20 0.2410294
443.30 0.1473644
443.40 0.0256624
443.50 0
443.60 0
443.70 0.0181558
443.80 0.1630793
443.90 0.3089176
444.00 0.3939727
444.10 0.4084847
444.20 0.3937046
444.30 0.384935
444.40 0.3700241
444.50 0.3266628
444.60 0.2427542
444.70 0.1427236
444.80 0.08627244
444.90 0.1055246
445.00 0.1913691
445.10 0.3213354
445.20 0.4776266
445.30 0.6219039
445.40 0.6836823
445.50 0.614818
445.60 0.4808637
445.70 0.3459422
445.80 0.2834201
445.90 0.2795804
446.00 0.2827764
446.10 0.2861095
446.20 0.3322082
446.30 0.4478567
446.40 0.5995021
446.50 0.7114539
446.60 0.7158426
446.70 0.6027524
446.80 0.4392839
446.90 0.3254925
447.00 0.3103012
447.10 0.3524968
447.20 0.3776051
447.30 0.3613073
447.40 0.3339564
447.50 0.3228254
447.60 0.3172537
447.70 0.2811138
447.80 0.1938142
447.90 0.07813829
448.00 0.08201278
448.10 0.07743025
448.20 0.09581818
448.30 0.2265764
448.40 0.3202829
448.50 0.3567328
448.60 0.3703001
448.70 0.4006133
448.80 0.4479272
448.90 0.4859046
449.00 0.5067663
449.10 0.5331956
449.20 0.5867739
449.30 0.6545996
449.40 0.6960997
449.50 0.6863931
449.60 0.6426504
449.70 0.6019654
449.80 0.5873833
449.90 0.5935525
450.00 0.5993336
450.10 0.5899757
450.20 0.5644108
450.30 0.5373232
450.40 0.5310255
450.50 0.5525368
450.60 0.5807301
450.70 0.5873308
450.80 0.5664073
450.90 0.5396743
451.00 0.5308835
451.10 0.5406549
451.20 0.5555327
451.30 0.5629187
451.40 0.5544599
451.50 0.5221139
451.60 0.4603412
451.70 0.3799652
451.80 0.3150947
451.90 0.3049732
452.00 0.3603157
452.10 0.4537506
452.20 0.5451304
452.30 0.6167607
452.40 0.6799712
452.50 0.7499651
452.60 0.8192444
452.70 0.854588
452.80 0.8176836
452.90 0.7030437
453.00 0.56078
453.10 0.4653949
453.20 0.457068
453.30 0.5109174
453.40 0.5616015
453.50 0.5533405
453.60 0.4720503
453.70 0.3481545
453.80 0.2408986
453.90 0.1974211
454.00 0.2181056
454.10 0.2669536
454.20 0.3063827
454.30 0.3277379
454.40 0.3512772
454.50 0.3894255
454.60 0.4163032
454.70 0.3880241
454.80 0.2895618
454.90 0.1587392
455.00 0.06224854
455.10 0.05848965
455.20 0.1832706
455.30 0.4210384
455.40 0.678611
455.50 0.8343456
455.60 0.8391707
455.70 0.751598
455.80 0.6613578
455.90 0.6049147
456.00 0.5702963
456.10 0.5476096
456.20 0.5431116
456.30 0.559864
456.40 0.5882177
456.50 0.6190036
456.60 0.6501153
456.70 0.6810065
456.80 0.7069807
456.90 0.7205473
457.00 0.7219862
457.10 0.7214051
457.20 0.7315295
457.30 0.7650441
457.40 0.8296791
457.50 0.9079022
457.60 0.9497236
457.70 0.908382
457.80 0.7979234
457.90 0.6947732
458.00 0.6636883
458.10 0.7090563
458.20 0.7926382
458.30 0.8670622
458.40 0.8910837
458.50 0.8363847
458.60 0.7078297
458.70 0.5516705
458.80 0.4269787
458.90 0.3681459
459.00 0.3643108
459.10 0.3633024
459.20 0.318401
459.30 0.244661
459.40 0.2087559
459.50 0.253227
459.60 0.3433914
459.70 0.4099952
459.80 0.4268878
459.90 0.4210726
460.00 0.420733
460.10 0.4212828
460.20 0.4042152
460.30 0.3640886
460.40 0.309492
460.50 0.2541491
460.60 0.2144548
460.70 0.2018757
460.80 0.218109
460.90 0.2701096
461.00 0.3794053
461.10 0.5497414
461.20 0.7245201
461.30 0.8168191
461.40 0.7982497
461.50 0.7287922
461.60 0.6825719
461.70 0.6686408
461.80 0.6509045
461.90 0.6173085
462.00 0.5956038
462.10 0.6113271
462.20 0.6630052
462.30 0.7404549
462.40 0.8329707
462.50 0.9111765
462.60 0.9249486
462.70 0.8413973
462.80 0.6746618
462.90 0.4784215
463.00 0.3205819
463.10 0.2567829
463.20 0.3002774
463.30 0.4038035
463.40 0.4949747
463.50 0.5411912
463.60 0.5671602
463.70 0.6009667
463.80 0.6300614
463.90 0.6243165
464.00 0.5800055
464.10 0.5292128
464.20 0.5087147
464.30 0.5270074
464.40 0.5638475
464.50 0.5952479
464.60 0.617228
464.70 0.6484289
464.80 0.7033413
464.90 0.7627051
465.00 0.7839799
465.10 0.7430359
465.20 0.6584307
465.30 0.572832
465.40 0.519302
465.50 0.5099314
465.60 0.5478163
465.70 0.6332529
465.80 0.7514683
465.90 0.8705999
466.00 0.9531595
466.10 0.9715645
466.20 0.9283731
466.30 0.8639225
466.40 0.8309544
466.50 0.854016
466.60 0.9115879
466.70 0.9569345
466.80 0.9468397
466.90 0.8524686
467.00 0.6795403
467.10 0.4905089
467.20 0.3773692
467.30 0.3851566
467.40 0.470846
467.50 0.5490772
467.60 0.5673035
467.70 0.5264852
467.80 0.4555962
467.90 0.3903902
468.00 0.3637992
468.10 0.3908342
468.20 0.456672
468.30 0.534746
468.40 0.6117819
468.50 0.6897354
468.60 0.7673193
468.70 0.8289374
468.80 0.8592211
468.90 0.8577688
469.00 0.8311162
469.10 0.7799689
469.20 0.7115451
469.30 0.6622526
469.40 0.6698085
469.50 0.7160369
469.60 0.7315776
469.70 0.6790062
469.80 0.6012761
469.90 0.5571655
470.00 0.5395344
470.10 0.4981585
470.20 0.4287945
470.30 0.3836872
470.40 0.3990608
470.50 0.4433161
470.60 0.4514912
470.70 0.400234
470.80 0.3288134
470.90 0.3007302
471.00 0.3526016
471.10 0.4717195
471.20 0.6063925
471.30 0.6978028
471.40 0.7197273
471.50 0.6990388
471.60 0.6917798
471.70 0.7217582
471.80 0.751323
471.90 0.7218193
472.00 0.6201399
472.10 0.4987132
472.20 0.4348336
472.30 0.4746995
472.40 0.5987412
472.50 0.7365943
472.60 0.8246836
472.70 0.8587782
472.80 0.8848643
472.90 0.9330725
473.00 0.9753415
473.10 0.961595
473.20 0.8801353
473.30 0.7643324
473.40 0.6519261
473.50 0.5577378
473.60 0.4892137
473.70 0.4685912
473.80 0.5215386
473.90 0.6444177
474.00 0.7883176
474.10 0.8835338
474.20 0.8884421
474.30 0.8201203
474.40 0.7368934
474.50 0.6873569
474.60 0.6747712
474.70 0.6674513
474.80 0.635474
474.90 0.5774817
475.00 0.5204166
475.10 0.4983231
475.20 0.5359651
475.30 0.6351724
475.40 0.7629211
475.50 0.8579281
475.60 0.8616773
475.70 0.758449
475.80 0.5914913
475.90 0.4312549
476.00 0.3155626
476.10 0.2226839
476.20 0.108201
476.30 0
476.40 0
476.50 0
476.60 0
476.70 0.04330651
476.80 0.1866592
476.90 0.2898866
477.00 0.339581
477.10 0.3647542
477.20 0.406764
477.30 0.4747814
477.40 0.5391674
477.50 0.5683745
477.60 0.5563803
477.70 0.5121968
477.80 0.4389183
477.90 0.3442428
478.00 0.2631597
478.10 0.2408842
478.20 0.285296
478.30 0.3467516
478.40 0.3631125
478.50 0.3297188
478.60 0.3045354
478.70 0.332159
478.80 0.3860965
478.90 0.3984015
479.00 0.3429322
479.10 0.2737773
479.20 0.2715149
479.30 0.3653646
479.40 0.513779
479.50 0.647474
479.60 0.7233135
479.70 0.744673
479.80 0.7436693
479.90 0.7466669
480.00 0.7482612
480.10 0.7190826
480.20 0.641098
480.30 0.5269095
480.40 0.403604
480.50 0.2937501
480.60 0.2174281
480.70 0.2019473
480.80 0.2687645
480.90 0.4088686
481.00 0.5792373
481.10 0.7253957
481.20 0.8171411
481.30 0.863722
481.40 0.8887055
481.50 0.8905404
481.60 0.843457
481.70 0.7400351
481.80 0.6190858
481.90 0.539363
482.00 0.5240959
482.10 0.5466967
482.20 0.5666368
482.30 0.564494
482.40 0.5454967
482.50 0.52606
482.60 0.527174
482.70 0.5621309
482.80 0.6142418
482.90 0.6381809
483.00 0.6082308
483.10 0.5499955
483.20 0.5025197
483.30 0.4703624
483.40 0.4392616
483.50 0.42598
483.60 0.4680417
483.70 0.5664288
483.80 0.6752403
483.90 0.7542957
484.00 0.8051943
484.10 0.8520051
484.20 0.9079374
484.30 0.9628191
484.40 0.9888497
484.50 0.9568398
484.60 0.8643787
484.70 0.7561781
484.80 0.7004073
484.90 0.7295421
485.00 0.8033485
485.10 0.8391852
485.20 0.7870137
485.30 0.6739009
485.40 0.5681424
485.50 0.5011992
485.60 0.4500239
485.70 0.412409
485.80 0.476444
485.90 0.7687478
486.00 1.306785
486.10 1.909256
486.20 2.28663
486.30 2.247544
486.40 1.835745
486.50 1.286292
486.60 0.8498658
486.70 0.6379539
486.80 0.598866
486.90 0.6067205
487.00 0.5673742
487.10 0.4695961
487.20 0.3690484
487.30 0.3368181
487.40 0.4078636
487.50 0.5572149
487.60 0.7215909
487.70 0.8413422
487.80 0.8876375
487.90 0.8611877
488.00 0.7812234
488.10 0.6825222
488.20 0.6083585
488.30 0.5911421
488.40 0.6325066
488.50 0.7033093
488.60 0.7609853
488.70 0.7726386
488.80 0.7293119
488.90 0.646678
489.00 0.5590456
489.10 0.510088
489.20 0.531218
489.30 0.6090507
489.40 0.6813271
489.50 0.6875369
489.60 0.6302954
489.70 0.5680516
489.80 0.5482411
489.90 0.5735024
490.00 0.6294792
490.10 0.7074111
490.20 0.7849911
490.30 0.818562
490.40 0.7870766
490.50 0.7312543
490.60 0.7146831
490.70 0.7508598
490.80 0.795106
490.90 0.8056334
491.00 0.7911449
491.10 0.7870039
491.20 0.8033128
491.30 0.8202329
491.40 0.8225929
491.50 0.8151343
491.60 0.8114352
491.70 0.8233432
491.80 0.8594981
491.90 0.9209465
492.00 0.990395
492.10 1.041263
492.20 1.067766
492.30 1.092078
492.40 1.133488
492.50 1.175446
492.60 1.175258
492.70 1.11898
492.80 1.051941
492.90 1.037704
493.00 1.092525
493.10 1.174435
493.20 1.238345
493.30 1.280561
493.40 1.320818
493.50 1.364264
493.60 1.399718
493.70 1.420381
493.80 1.428653
493.90 1.423131
494.00 1.400069
494.10 1.368586
494.20 1.347596
494.30 1.349455
494.40 1.376529
494.50 1.42682
494.60 1.492675
494.70 1.557182
494.80 1.600055
494.90 1.611495
495.00 1.593323
495.10 1.554787
495.20 1.513366
495.30 1.479605
495.40 1.432367
495.50 1.325782
495.60 1.136897
495.70 0.8993263
495.80 0.6711768
495.90 0.4764728
496.00 0.3041342
496.10 0.1554754
496.20 0.06105434
496.30 0.04967913
496.40 0.1164316
496.50 0.2243659
496.60 0.3259378
496.70 0.3860232
496.80 0.4067877
496.90 0.427187
497.00 0.4701938
497.10 0.495411
497.20 0.4347781
497.30 0.2805917
497.40 0.1128886
497.50 0.03036297
497.60 0.07812415
497.70 0.2427514
497.80 0.4781991
497.90 0.7091306
498.00 0.841412
498.10 0.8230204
498.20 0.7064442
498.30 0.6194189
498.40 0.657901
498.50 0.8116176
498.60 0.9856268
498.70 1.083514
498.80 1.071034
498.90 0.9819322
499.00 0.8773015
499.10 0.7951788
499.20 0.7329723
499.30 0.6732287
499.40 0.6157282
499.50 0.5802351
499.60 0.5808762
499.70 0.5995006
499.80 0.5884323
499.90 0.5084239
500.00 1
500.10 1.114734
500.20 0.6369171
500.30 0.08552216
500.40 0.5539846
500.50 0.9158618
500.60 0.7125141
500.70 0.8230048
500.80 0.796784
500.90 0.4419445
501.00 0.4583793
501.10 0.7072072
501.20 0.8831728
501.30 0.4741692
501.40 0.8077088
501.50 1.254625
501.60 0.431467
501.70 0.1848808
501.80 0.573275
501.90 0.8618199
502.00 1.313738
502.10 0.5202097
502.20 0.2893565
502.30 0.4724096
502.40 0.364018
502.50 0.3537535
502.60 0.9299382
502.70 0.9957567
502.80 0.9344901
502.90 0.9022175
503.00 1.059886
503.10 1.03807
503.20 0.8469026
503.30 1.012122
503.40 1.114744
503.50 0.7024264
503.60 0.7530848
503.70 1.175671
503.80 1.095694
503.90 0.910084
504.00 1.073716
504.10 0.7603919
504.20 0.4471643
504.30 0.6687902
504.40 0.7757413
504.50 0.630509
504.60 0.7238689
504.70 0.8984242
504.80 0.9504767
504.90 0.7719071
505.00 0.8027719
505.10 0.5511916
505.20 0.67141
505.30 1.202269
505.40 0.6970824
505.50 0
505.60 0.5952629
505.70 1.254005
505.80 1.125506
505.90 0.6971854
506.00 0.7715223
506.10 0.7358061
506.20 0.2032246
506.30 0.8360409
506.40 1.098756
506.50 0.7226323
506.60 0.6988026
506.70 0.7044305
506.80 0.6423726
506.90 0.6665668
507.00 1.353551
507.10 1.650391
507.20 1.165276
507.30 0.5926116
507.40 1.079381
507.50 1.82031
507.60 1.887101
507.70 1.601358
507.80 1.465745
507.90 1.483756
508.00 1.354644
508.10 1.457804
508.20 1.646067
508.30 1.27275
508.40 0.6126943
508.50 0.4479625
508.60 0.8907452
508.70 1.368651
508.80 1.498174
508.90 1.390689
509.00 1.398219
509.10 0.8351623
509.20 0.8318671
509.30 1.23086
509.40 1.239886
509.50 1.134626
509.60 1.795702
509.70 1.833305
509.80 1.479519
509.90 1.704592
510.00 1.464563
510.10 0.6642317
510.20 0.272454
510.30 0.4778015
510.40 0.5382422
510.50 1.10255
510.60 1.015895
510.70 0.7002423
510.80 0.8350882
510.90 1.088694
511.00 1.04059
511.10 1.018809
511.20 1.422204
511.30 1.590041
511.40 1.409967
511.50 1.356305
511.60 1.704868
511.70 1.832575
511.80 0.913643
511.90 0.883539
512.00 1.338029
512.10 1.584842
512.20 1.64734
512.30 1.818722
512.40 1.656492
512.50 1.035907
512.60 1.001456
512.70 1.25771
512.80 1.208783
512.90 0.5008789
513.00 0.6674031
513.10 1.508258
513.20 1.384717
513.30 1.352914
513.40 1.522954
513.50 1.282759
513.60 1.627081
513.70 1.483275
513.80 1.275058
513.90 1.142476
514.00 1.56578
514.10 1.15821
514.20 0.8317483
514.30 0.9152021
514.40 1.455753
514.50 1.737637
514.60 1.403602
514.70 1.006077
514.80 0.9670624
514.90 0.8458161
515.00 0.679046
515.10 0.8012476
515.20 1.314402
515.30 1.38354
515.40 0.9643241
515.50 1.150755
515.60 1.214369
515.70 1.569236
515.80 1.734403
515.90 1.847999
516.00 1.917679
516.10 1.784302
516.20 1.883364
516.30 2.030623
516.40 2.331346
516.50 2.072895
516.60 1.553079
516.70 1.125328
516.80 0.9822045
516.90 0.3555368
517.00 0
517.10 0
517.20 0.2058086
517.30 0.5432357
517.40 0.4961568
517.50 0.6495117
517.60 0.757511
517.70 0.5921726
517.80 0.4855219
517.90 0.4739827
518.00 0.4595269
518.10 0.387171
518.20 0.3185779
518.30 0
518.40 0.2852192
518.50 0.62826
518.60 1.129278
518.70 1.213042
518.80 1.065537
518.90 0.8150205
519.00 0.7639237
519.10 0.7659898
519.20 0.8664029
519.30 0.6261901
519.40 0.6498038
519.50 0.7128982
519.60 0.8519186
519.70 0.8733244
519.80 0.4599102
519.90 0.3406684
520.00 0.4496326
520.10 0.1863271
520.20 0.2460907
520.30 1.088722
520.40 1.243293
520.50 0.8657522
520.60 0.8689333
520.70 0.8119698
520.80 1.097838
520.90 1.060305
521.00 0.6836769
521.10 0.4999247
521.20 0.7959237
521.30 0.9838315
521.40 1.472542
521.50 1.175084
521.60 0.753272
521.70 1.146242
521.80 1.16707
521.90 0.8526643
522.00 1.060413
522.10 1.298762
522.20 1.207569
522.30 0.8911816
522.40 1.099632
522.50 1.871052
522.60 1.757339
522.70 1.696562
522.80 1.665653
522.90 1.298308
523.00 1.158895
523.10 1.166518
523.20 1.455986
523.30 1.487519
523.40 1.096635
523.50 0.8079472
523.60 1.232712
523.70 1.275445
523.80 1.3181
523.90 1.499518
524.00 1.610572
524.10 1.406238
524.20 1.37566
524.30 0.9705625
524.40 0.7049963
524.50 0.6718455
524.60 0.7630879
524.70 1.027926
524.80 0.9566542
524.90 0.7119617
525.00 1.124746
525.10 1.093347
525.20 0.9798264
525.30 1.296733
525.40 1.628836
525.50 1.636766
525.60 1.213079
525.70 1.29019
525.80 1.615946
525.90 1.659111
526.00 1.311015
526.10 1.162201
526.20 1.159775
526.30 1.390547
526.40 1.279712
526.50 1.126108
526.60 0.9708855
526.70 1.129548
526.80 1.556558
526.90 1.129747
527.00 1.197225
527.10 1.570066
527.20 1.246899
527.30 1.24283
527.40 1.445785
527.50 1.529103
527.60 1.689081
527.70 1.301811
527.80 1.122635
527.90 1.436016
528.00 1.799515
528.10 1.178226
528.20 0.8242688
528.30 1.554343
528.40 1.869832
528.50 1.296724
528.60 1.147341
528.70 1.532406
528.80 1.568974
528.90 1.510661
529.00 1.68457
529.10 1.658817
529.20 1.776719
529.30 1.707478
529.40 1.668326
529.50 1.640865
529.60 1.617231
529.70 1.717467
529.80 1.893377
529.90 1.366255
530.00 1.144729
530.10 1.501486
530.20 2.087126
530.30 1.928293
530.40 1.765502
530.50 1.988351
530.60 1.861991
530.70 1.563151
530.80 1.462358
530.90 1.585768
531.00 1.53116
531.10 1.312177
531.20 1.401468
531.30 1.384135
531.40 1.176056
531.50 1.187021
531.60 1.358725
531.70 1.286426
531.80 1.303321
531.90 1.330066
532.00 1.367563
532.10 1.978682
532.20 1.953108
532.30 1.415657
532.40 1.123006
532.50 1.35917
532.60 1.63163
532.70 1.411271
532.80 1.108227
532.90 1.766472
533.00 1.414346
533.10 1.141883
533.20 1.404934
533.30 2.203975
533.40 1.832733
533.50 1.00532
533.60 1.202756
533.70 1.147105
533.80 1.345594
533.90 1.499367
534.00 1.7452
534.10 1.595421
534.20 1.144328
534.30 1.378739
534.40 1.87442
534.50 2.17202
534.60 2.220361
534.70 1.686277
534.80 1.016382
534.90 1.058955
535.00 1.51132
535.10 1.970904
535.20 2.100181
535.30 2.38485
535.40 2.602355
535.50 2.326953
535.60 1.858099
535.70 1.796917
535.80 1.281415
535.90 1.318596
536.00 1.601518
536.10 1.880686
536.20 1.725484
536.30 1.692599
536.40 1.330139
536.50 1.353392
536.60 1.265658
536.70 1.228764
536.80 1.283945
536.90 1.425501
537.00 1.40321
537.10 1.449818
537.20 1.365078
537.30 1.579418
537.40 1.350782
537.50 1.237337
537.60 1.442574
537.70 1.729315
537.80 1.738609
537.90 2.150531
538.00 2.479968
538.10 2.091185
538.20 1.544927
538.30 1.73663
538.40 2.431962
538.50 2.378088
538.60 1.933825
538.70 1.726192
538.80 2.09683
538.90 1.866464
539.00 1.765215
539.10 2.011606
539.20 1.90835
539.30 1.444693
539.40 1.61287
539.50 1.942258
539.60 1.980961
539.70 1.845454
539.80 2.203249
539.90 2.42072
540.00 2.091581
540.10 2.387649
540.20 2.718504
540.30 2.728273
540.40 2.365748
540.50 2.091264
540.60 1.945011
540.70 2.397713
540.80 2.338568
540.90 1.644446
541.00 1.527002
541.10 1.32339
541.20 1.728027
541.30 2.02363
541.40 1.86196
541.50 1.652805
541.60 1.709449
541.70 1.859942
541.80 2.292831
541.90 2.329623
542.00 1.741066
542.10 1.876954
542.20 2.264675
542.30 2.606607
542.40 2.673768
542.50 2.472992
542.60 2.338706
542.70 2.072471
542.80 1.988414
542.90 2.250154
543.00 1.907922
543.10 1.772556
543.20 1.767388
543.30 1.964183
543.40 1.937541
543.50 2.073857
543.60 2.095193
543.70 2.059881
543.80 1.955324
543.90 2.4038
544.00 2.459504
544.10 2.418231
544.20 2.964003
544.30 3.021023
544.40 2.463069
544.50 2.49064
544.60 2.937221
544.70 2.790594
544.80 2.316986
544.90 1.807747
545.00 1.104735
545.10 0.2381028
545.20 0.1559198
545.30 0.1794265
545.40 0.2446187
545.50 0.3870993
545.60 0.5740941
545.70 0.9653826
545.80 1.008298
545.90 0.7958576
546.00 1.001026
546.10 1.767971
546.20 1.751957
546.30 1.795508
546.40 1.53313
546.50 0.8917225
546.60 0.7908656
546.70 0.9455227
546.80 1.577436
546.90 1.650412
547.00 1.208327
547.10 0.7710228
547.20 0.6070332
547.30 0.5222166
547.40 0.4798017
547.50 0.8547676
547.60 1.347398
547.70 1.440384
547.80 1.139711
547.90 1.117878
548.00 1.199264
548.10 1.200742
548.20 1.089713
548.30 0.8789981
548.40 0.9705495
548.50 1.266277
548.60 1.257548
548.70 1.268447
548.80 1.225685
548.90 0.9265191
549.00 0.9019095
549.10 0.8598948
549.20 1.163561
549.30 1.142565
549.40 0.8454639
549.50 1.156975
549.60 1.336244
549.70 0.9015949
549.80 0.7902707
549.90 1.329344
550.00 0.9622795
550.10 0.5448462
550.20 0.6648643
550.30 0.7972573
550.40 0.6456066
550.50 0.6226555
550.60 0.906118
550.70 0.5491498
550.80 0.3923608
550.90 0.5166014
551.00 0.3657819
551.10 0.1893396
551.20 0
551.30 0.02518102
551.40 0.2813374
551.50 0.7562929
551.60 1.190469
551.70 0.997902
551.80 0.3332476
551.90 0
552.00 0.3562423
552.10 0.5896005
552.20 0.06805414
552.30 0.06890409
552.40 0.2830527
552.50 0.3623005
552.60 0.7253154
552.70 0.4193232
552.80 0.3049771
552.90 0.4242706
553.00 0.3087685
553.10 0.3915346
553.20 0.5567206
553.30 0.666959
553.40 0.6553469
553.50 0.6523306
553.60 0.3123533
553.70 0.282628
553.80 0.2963535
553.90 0.3626496
554.00 0.8075
554.10 0.7278299
554.20 0.2910127
554.30 0.1753964
554.40 0.712559
554.50 0.8713839
554.60 0.3367969
554.70 0.04521627
554.80 0.1051639
554.90 0.3898277
555.00 0.4410846
555.10 0.4122807
555.20 0
555.30 0.3561639
555.40 0.6130467
555.50 0.4592607
555.60 0.5743169
555.70 0.7810378
555.80 0.8578735
555.90 0.4539224
556.00 0.3517652
556.10 0.7703205
556.20 0.7838538
556.30 0.5916505
556.40 0.8644793
556.50 1.071091
556.60 0.9911639
556.70 0.6706137
556.80 0.7274487
556.90 0.7736934
557.00 0.8881947
557.10 1.058342
557.20 1.059835
557.30 1.055243
557.40 1.055303
557.50 1.055303
557.60 1.055303
557.70 1.055303
557.80 1.055303
557.90 1.055303
558.00 1.055303
558.10 1.055303
558.20 1.055348
558.30 1.062496
558.40 1.018851
558.50 0.9741071
558.60 1.367466
558.70 1.597538
558.80 1.431196
558.90 1.147569
559.00 1.28313
559.10 1.405453
559.20 1.389265
559.30 1.277228
559.40 1.330995
559.50 1.540477
559.60 1.458752
559.70 0.8638403
559.80 0.7921056
559.90 0.9136329
560.00 0.991946
560.10 1.14469
560.20 1.500584
560.30 1.62677
560.40 1.336558
560.50 1.131273
560.60 1.231118
560.70 0.7831718
560.80 0.5638815
560.90 0.9161968
561.00 1.46411
561.10 1.696817
561.20 1.232458
561.30 0.9989372
561.40 1.451335
561.50 1.468888
561.60 1.215838
561.70 1.367166
561.80 1.296965
561.90 0.8796536
562.00 0.6332916
562.10 0.7917215
562.20 1.177835
562.30 0.9184631
562.40 1.20973
562.50 1.144113
562.60 1.000298
562.70 0.959281
562.80 1.101264
562.90 1.113751
563.00 1.392597
563.10 1.01167
563.20 0.41837
563.30 0.5061905
563.40 1.07623
563.50 1.452723
563.60 1.238819
563.70 0.6828621
563.80 0.5606419
563.90 1.055032
564.00 0.9935838
564.10 0.732746
564.20 0.62809
564.30 0.8566492
564.40 1.05635
564.50 0.9909607
564.60 1.243608
564.70 1.028917
564.80 1.242788
564.90 1.520726
565.00 1.496985
565.10 1.244435
565.20 1.116858
565.30 1.572849
565.40 1.79089
565.50 1.493454
565.60 0.8452943
565.70 0.9652353
565.80 1.353123
565.90 1.679563
566.00 1.419169
566.10 1.160358
566.20 1.205822
566.30 1.516945
566.40 1.629943
566.50 1.068541
566.60 1.118612
566.70 1.467876
566.80 1.487756
566.90 1.392923
567.00 1.460933
567.10 1.605288
567.20 1.604749
567.30 1.642451
567.40 1.178552
567.50 1.17843
567.60 0.96306
567.70 1.141864
567.80 1.243068
567.90 1.403023
568.00 1.46245
568.10 0.9794234
568.20 0.8334653
568.30 1.55391
568.40 2.404574
568.50 2.223575
568.60 1.377996
568.70 1.061113
568.80 1.359113
568.90 1.971217
569.00 2.200741
569.10 1.374777
569.20 1.597165
569.30 1.934023
569.40 1.8857
569.50 1.549394
569.60 1.249174
569.70 1.400956
569.80 1.67712
569.90 1.944089
570.00 1.868211
570.10 1.60917
570.20 1.432363
570.30 1.417857
570.40 1.688573
570.50 1.976783
570.60 2.183611
570.70 2.151102
570.80 2.186853
570.90 1.821552
571.00 1.669059
571.10 1.79912
571.20 1.801608
571.30 1.9609
571.40 1.758904
571.50 1.257674
571.60 1.254134
571.70 1.519818
571.80 1.89361
571.90 1.827475
572.00 1.504436
572.10 0.9576711
572.20 1.062125
572.30 1.445428
572.40 1.789248
572.50 1.86924
572.60 1.8311
572.70 1.835781
572.80 1.719472
572.90 1.609258
573.00 1.872205
573.10 1.820908
573.20 1.690874
573.30 1.750044
573.40 1.947105
573.50 2.072971
573.60 2.100996
573.70 1.897299
573.80 1.658574
573.90 1.464093
574.00 1.298348
574.10 1.435985
574.20 1.658998
574.30 1.95271
574.40 2.324654
574.50 2.198599
574.60 1.764894
574.70 1.535864
574.80 2.273028
574.90 1.81263
575.00 1.24454
575.10 1.535113
575.20 2.023506
575.30 1.714237
575.40 1.445103
575.50 2.007276
575.60 2.025656
575.70 1.943463
575.80 2.043274
575.90 2.164491
576.00 1.938371
576.10 1.466469
576.20 1.450691
576.30 1.697045
576.40 2.082775
576.50 1.884609
576.60 1.529844
576.70 1.522696
576.80 1.730489
576.90 1.314669
577.00 1.160028
577.10 1.463978
577.20 1.454757
577.30 0.9861549
577.40 1.055181
577.50 1.630571
577.60 2.005765
577.70 1.923724
577.80 1.507848
577.90 1.441162
578.00 1.775454
578.10 2.213676
578.20 2.082819
578.30 1.42391
578.40 1.003751
578.50 1.561505
578.60 2.083229
578.70 2.295317
578.80 2.102651
578.90 2.095696
579.00 2.212245
579.10 2.353197
579.20 2.440142
579.30 2.125824
579.40 1.767259
579.50 1.855949
579.60 2.17373
579.70 2.545481
579.80 2.432061
579.90 2.11278
580.00 2.296626
580.10 2.357087
580.20 2.240583
580.30 2.290004
580.40 2.00908
580.50 2.109198
580.60 2.479935
580.70 2.5825
580.80 2.926554
580.90 3.020373
581.00 2.563047
581.10 2.060224
581.20 2.069247
581.30 1.862315
581.40 1.742326
581.50 1.565132
581.60 1.64274
581.70 1.647776
581.80 2.161527
581.90 2.158167
582.00 1.554647
582.10 1.609784
582.20 1.791745
582.30 1.845181
582.40 1.692255
582.50 1.457531
582.60 1.599581
582.70 1.770833
582.80 1.945278
582.90 1.724265
583.00 1.764351
583.10 2.028714
583.20 1.905495
583.30 1.446292
583.40 2.050808
583.50 2.220477
583.60 1.361332
583.70 1.502404
583.80 1.440064
583.90 1.317388
584.00 1.331236
584.10 1.932112
584.20 2.192104
584.30 1.945779
584.40 2.160943
584.50 2.253577
584.60 1.62371
584.70 1.25243
584.80 1.188694
584.90 1.69255
585.00 1.891194
585.10 1.691552
585.20 0.9816702
585.30 1.00221
585.40 1.333145
585.50 1.451601
585.60 1.765429
585.70 1.564244
585.80 1.40155
585.90 1.397489
586.00 1.293671
586.10 0.60188
586.20 0.4314427
586.30 0.8440487
586.40 1.346273
586.50 1.335418
586.60 1.277017
586.70 1.235461
586.80 1.083411
586.90 1.308416
587.00 1.397254
587.10 1.282167
587.20 1.07758
587.30 1.011859
587.40 1.194166
587.50 1.173196
587.60 0.9595284
587.70 0.9122834
587.80 0.8521254
587.90 0.736099
588.00 0.9188738
588.10 0.676777
588.20 0.6523319
588.30 0.728253
588.40 0.9858861
588.50 0.7933974
588.60 0.4382822
588.70 0.637194
588.80 1.182469
588.90 1.954136
589.00 2.129312
589.10 0.9082343
589.20 1.316862
589.30 2.585365
589.40 1.977229
589.50 1.119023
589.60 0.4163524
589.70 1.118255
589.80 1.112093
589.90 0.7534486
590.00 0.9652336
590.10 0.6695045
590.20 0.6972224
590.30 0.7294225
590.40 0.5148356
590.50 0.5596463
590.60 0.78318
590.70 1.075461
590.80 0.9055102
590.90 0.6807662
591.00 0.7236115
591.10 0.8832204
591.20 1.150983
591.30 0.9793054
591.40 0.7827146
591.50 0.8189975
591.60 1.214213
591.70 1.105639
591.80 0.5433513
591.90 0.6615019
592.00 0.7725264
592.10 0.807661
592.20 0.7013022
592.30 1.09722
592.40 1.172865
592.50 0.2337968
592.60 0.4518857
592.70 1.114639
592.80 1.293565
592.90 0.9499729
593.00 0.7437438
593.10 0.8868282
593.20 1.062477
593.30 0.9411397
593.40 0.7431078
593.50 0.4546141
593.60 0.4232627
593.70 0.9298726
593.80 0.9477479
593.90 0.7320602
594.00 0.7002606
594.10 0.8886816
594.20 0.7810003
594.30 1.036708
594.40 1.145084
594.50 1.043482
594.60 0.9431744
594.70 1.348722
594.80 1.597843
594.90 1.629986
595.00 1.769568
595.10 1.316239
595.20 0.9994154
595.30 0.7123144
595.40 0.6172223
595.50 0.4688376
595.60 0.8492616
595.70 1.873148
595.80 1.83791
595.90 1.320315
596.00 1.043872
596.10 1.158816
596.20 0.9174004
596.30 0.5668299
596.40 0.6307186
596.50 1.313933
596.60 1.42122
596.70 1.328568
596.80 1.49168
596.90 1.134392
597.00 0.8837565
597.10 0.7267693
597.20 0.6952416
597.30 0.5296339
597.40 0.5433502
597.50 0.9509133
597.60 0.8466371
597.70 0.7285282
597.80 0.5101354
597.90 0.6891579
598.00 0.8323327
598.10 1.226431
598.20 1.234212
598.30 1.030176
598.40 1.07251
598.50 1.291226
598.60 1.313762
598.70 1.02514
598.80 1.188678
598.90 1.390639
599.00 1.051493
599.10 1.124105
599.20 1.268329
599.30 1.205741
599.40 0.9996464
599.50 0.9433017
599.60 1.083656
599.70 1.14364
599.80 1.212679
599.90 1.522251
600.00 1.548376
600.10 1.357611
600.20 1.186438
600.30 1.212855
600.40 1.410045
600.50 1.243131
600.60 1.198868
600.70 0.9867132
600.80 1.133578
600.90 1.456249
601.00 1.192117
601.10 0.9006761
601.20 0.9848959
601.30 1.453713
601.40 1.230804
601.50 0.7703033
601.60 1.219284
601.70 1.419771
601.80 1.58671
601.90 1.682976
602.00 1.598731
602.10 1.144624
602.20 1.071262
602.30 1.255002
602.40 1.247413
602.50 1.260014
602.60 1.157545
602.70 1.179224
602.80 0.927521
602.90 0.8832717
603.00 0.7680155
603.10 0.6319339
603.20 0.9230003
603.30 1.1888
603.40 1.617779
603.50 1.593817
603.60 1.470486
603.70 1.557851
603.80 1.421585
603.90 1.010084
604.00 0.930458
604.10 1.116845
604.20 1.243922
604.30 1.477957
604.40 1.662737
604.50 1.547319
604.60 1.317077
604.70 1.455932
604.80 2.009953
604.90 1.868936
605.00 1.265126
605.10 1.03917
605.20 1.413023
605.30 1.56577
605.40 1.422262
605.50 1.216564
605.60 1.258126
605.70 1.707191
605.80 1.867878
605.90 1.364012
606.00 1.179643
606.10 1.236744
606.20 1.402226
606.30 1.529374
606.40 1.6085
606.50 1.52346
606.60 1.341236
606.70 1.702278
606.80 1.913095
606.90 1.928918
607.00 1.724762
607.10 1.617208
607.20 1.650566
607.30 1.406861
607.40 1.296207
607.50 1.460507
607.60 1.570643
607.70 1.599524
607.80 1.496542
607.90 1.55015
608.00 1.43518
608.10 1.461074
608.20 1.396132
608.30 1.460747
608.40 1.929918
608.50 1.868761
608.60 1.435784
608.70 1.221976
608.80 1.457151
608.90 1.603961
609.00 1.257099
609.10 1.434857
609.20 1.712301
609.30 1.778572
609.40 1.530733
609.50 1.4477
609.60 1.438447
609.70 1.549231
609.80 1.95887
609.90 1.932045
610.00 1.707637
610.10 1.8541
610.20 1.761288
610.30 1.501024
610.40 1.06905
610.50 1.266066
610.60 1.409655
610.70 1.373518
610.80 1.26171
610.90 1.585699
611.00 1.830721
611.10 1.924559
611.20 2.004563
611.30 1.83356
611.40 1.515435
611.50 1.353999
611.60 1.198386
611.70 1.287343
611.80 1.282367
611.90 1.516384
612.00 1.778054
612.10 1.703741
612.20 1.573772
612.30 1.623459
612.40 1.66508
612.50 1.490226
612.60 1.177534
612.70 1.117919
612.80 1.044663
612.90 1.036658
613.00 1.371785
613.10 1.486973
613.20 1.124995
613.30 1.297467
613.40 1.58551
613.50 1.642481
613.60 1.473584
613.70 1.457321
613.80 1.51044
613.90 1.196927
614.00 1.205714
614.10 1.277524
614.20 1.147442
614.30 0.8044789
614.40 0.9243006
614.50 1.399598
614.60 1.61632
614.70 1.362852
614.80 1.175696
614.90 0.9896567
615.00 1.058888
615.10 0.8754709
615.20 0.6838677
615.30 0.9759186
615.40 1.215951
615.50 1.148445
615.60 0.842473
615.70 0.9670299
615.80 1.47557
615.90 1.307344
616.00 1.055864
616.10 0.8423954
616.20 0.8553798
616.30 1.081396
616.40 1.223565
616.50 1.116386
616.60 0.5849571
616.70 0.5080493
616.80 0.6473407
616.90 0.6666925
617.00 0.7988316
617.10 0.7501146
617.20 0.8183831
617.30 0.9015711
617.40 0.8484272
617.50 0.9522413
617.60 0.9282177
617.70 0.7709567
617.80 0.6526463
617.90 0.8545531
618.00 0.6689953
618.10 0.4080948
618.20 0.2510307
618.30 0.2306072
618.40 0.812131
618.50 1.056864
618.60 1.032363
618.70 0.9590368
618.80 0.8116924
618.90 0.6547047
619.00 0.7490784
619.10 0.907894
619.20 0.8621283
619.30 1.385324
619.40 1.541952
619.50 1.249673
619.60 0.961693
619.70 1.018639
619.80 0.849863
619.90 0.5389585
620.00 0.6236726
620.10 0.6728675
620.20 0.7232827
620.30 0.7170733
620.40 0.8977657
620.50 1.031931
620.60 0.9027454
620.70 0.73835
620.80 0.879392
620.90 1.190392
621.00 1.140331
621.10 1.047707
621.20 1.02864
621.30 0.7365567
621.40 0.7755174
621.50 0.9365322
621.60 1.055677
621.70 0.8049635
621.80 0.698769
621.90 0.9711783
622.00 1.160639
622.10 1.064291
622.20 0.9767723
622.30 0.7430625
622.40 0.841351
622.50 0.8745917
622.60 0.9086662
622.70 0.7968013
622.80 0.6443679
622.90 0.9098636
623.00 0.934661
623.10 1.020764
623.20 1.048211
623.30 1.073846
623.40 0.9426198
623.50 0.7958805
623.60 0.6063512
623.70 0.6799107
623.80 0.4059551
623.90 0
624.00 0.575744
624.10 1.410041
624.20 1.390979
624.30 0.5241213
624.40 0.4123637
624.50 1.057524
624.60 1.257947
624.70 1.008789
624.80 0.6540843
624.90 0.6104099
625.00 0.6821457
625.10 0.7067043
625.20 0.7342447
625.30 1.009786
625.40 1.398867
625.50 1.028425
625.60 0.7093512
625.70 0.6732734
625.80 0.9518758
625.90 1.173451
626.00 1.089039
626.10 1.121085
626.20 1.304332
626.30 1.134828
626.40 0.6653185
626.50 0.6758792
626.60 0.9039216
626.70 0.847478
626.80 0.690968
626.90 0.9415997
627.00 1.167291
627.10 1.17043
627.20 0.8874744
627.30 0.9463717
627.40 1.269905
627.50 1.311653
627.60 1.207402
627.70 1.193302
627.80 1.455798
627.90 1.406952
628.00 1.251186
628.10 1.080789
628.20 1.066037
628.30 1.270748
628.40 1.261061
628.50 0.9040739
628.60 0.7325285
628.70 1.070149
628.80 1.38773
628.90 1.180225
629.00 1.113775
629.10 1.283424
629.20 1.385143
629.30 1.579684
629.40 1.476147
629.50 1.431025
629.60 1.395329
629.70 1.464694
629.80 1.950818
629.90 2.173484
630.00 2.027246
630.10 0.7644347
630.20 0.4332452
630.30 0.4996002
630.40 1.874618
630.50 3.230907
630.60 2.146237
630.70 1.586885
630.80 1.529617
630.90 1.603472
631.00 1.611416
631.10 1.782097
631.20 2.249503
631.30 2.16282
631.40 1.889853
631.50 1.591377
631.60 1.429097
631.70 1.716883
631.80 1.878327
631.90 1.748629
632.00 1.593784
632.10 2.009948
632.20 2.107246
632.30 1.809941
632.40 1.791041
632.50 1.914014
632.60 1.855722
632.70 1.673776
632.80 1.653685
632.90 1.966893
633.00 2.225791
633.10 1.758953
633.20 1.397655
633.30 1.533136
633.40 2.031456
633.50 2.284328
633.60 2.158487
633.70 2.216268
633.80 2.237742
633.90 2.305912
634.00 2.164788
634.10 2.102292
634.20 2.472514
634.30 2.609135
634.40 2.286268
634.50 2.112201
634.60 2.376197
634.70 2.64292
634.80 2.693532
634.90 2.446974
635.00 2.526915
635.10 2.519568
635.20 2.239917
635.30 2.131228
635.40 2.274978
635.50 2.342135
635.60 2.232922
635.70 2.537662
635.80 2.587391
635.90 2.034886
636.00 1.858947
636.10 2.401827
636.20 3.14026
636.30 3.110194
636.40 2.372282
636.50 1.707329
636.60 1.581791
636.70 1.577284
636.80 1.952891
636.90 2.188578
637.00 2.258539
637.10 2.507938
637.20 2.617571
637.30 2.41533
637.40 2.174121
637.50 2.061749
637.60 2.250663
637.70 2.412661
637.80 2.327858
637.90 2.181227
638.00 2.102879
638.10 2.185777
638.20 1.868009
638.30 1.783343
638.40 2.116411
638.50 2.219798
638.60 2.319263
638.70 2.373018
638.80 2.347847
638.90 2.247947
639.00 2.202935
639.10 2.266528
639.20 2.250349
639.30 2.272415
639.40 2.517211
639.50 2.545949
639.60 2.354254
639.70 2.230153
639.80 2.342252
639.90 2.531338
640.00 2.752898
640.10 2.906853
640.20 2.657486
640.30 2.430112
640.40 2.572863
640.50 2.905448
640.60 3.068963
640.70 2.892174
640.80 2.656422
640.90 2.508904
641.00 2.379375
641.10 2.431596
641.20 2.496852
641.30 2.59867
641.40 2.718866
641.50 2.648985
641.60 2.450461
641.70 2.38177
641.80 2.622841
641.90 2.709853
642.00 2.690223
642.10 2.634996
642.20 2.425877
642.30 2.233554
642.40 2.197693
642.50 2.242412
642.60 2.158025
642.70 2.148382
642.80 2.376539
642.90 2.720335
643.00 2.747973
643.10 2.575303
643.20 2.582826
643.30 2.58319
643.40 2.644636
643.50 2.415396
643.60 2.20322
643.70 2.359032
643.80 2.636637
643.90 2.868803
644.00 2.749047
644.10 2.493448
644.20 2.422741
644.30 2.633754
644.40 2.720779
644.50 2.505216
644.60 2.427027
644.70 2.664343
644.80 2.728942
644.90 2.449876
645.00 2.328043
645.10 2.468599
645.20 2.607642
645.30 2.759135
645.40 2.672166
645.50 2.649113
645.60 2.73395
645.70 2.711751
645.80 2.585786
645.90 2.422121
646.00 2.553659
646.10 2.900158
646.20 2.87783
646.30 2.509987
646.40 2.58761
646.50 2.810391
646.60 2.655506
646.70 2.294417
646.80 2.436856
646.90 2.857618
647.00 3.080992
647.10 2.828517
647.20 2.696064
647.30 3.183721
647.40 3.685527
647.50 3.480158
647.60 2.829061
647.70 2.639481
647.80 2.738164
647.90 2.840489
648.00 2.677272
648.10 2.568941
648.20 2.707761
648.30 2.746718
648.40 2.688556
648.50 2.616114
648.60 2.501079
648.70 2.689743
648.80 2.839266
648.90 2.75365
649.00 2.823993
649.10 2.805967
649.20 2.818136
649.30 2.965964
649.40 2.955883
649.50 3.00863
649.60 3.219101
649.70 3.373286
649.80 3.082381
649.90 2.92712
650.00 3.457308
650.10 3.417426
650.20 3.358441
650.30 3.530205
650.40 3.750363
650.50 3.665658
650.60 3.397818
650.70 3.689993
650.80 3.911546
650.90 3.911248
651.00 3.952632
651.10 4.137121
651.20 4.301397
651.30 4.319561
651.40 4.087295
651.50 3.959966
651.60 4.078455
651.70 4.160024
651.80 4.140292
651.90 4.335429
652.00 4.643973
652.10 4.599539
652.20 4.69351
652.30 4.822833
652.40 4.881876
652.50 4.847408
652.60 4.880557
652.70 5.37711
652.80 5.750613
652.90 5.785308
653.00 5.841502
653.10 5.980363
653.20 5.99183
653.30 5.632819
653.40 5.445661
653.50 5.665661
653.60 5.903938
653.70 6.034861
653.80 6.195098
653.90 6.4793
654.00 6.647083
654.10 6.616215
654.20 6.612714
654.30 6.540266
654.40 6.368655
654.50 6.129085
654.60 5.812679
654.70 5.648048
654.80 5.706762
654.90 5.768104
655.00 5.539727
655.10 5.196255
655.20 5.24599
655.30 5.38471
655.40 5.171672
655.50 4.929311
655.60 5.072411
655.70 5.204454
655.80 5.291171
655.90 5.594916
656.00 6.02376
656.10 6.463886
656.20 8.758286
656.30 12.35012
656.40 14.41537
656.50 13.53933
656.60 10.52123
656.70 7.532317
656.80 5.460239
656.90 4.618322
657.00 4.437359
657.10 4.219199
657.20 4.264126
657.30 4.377893
657.40 4.28654
657.50 4.131542
657.60 4.259509
657.70 4.476484
657.80 4.246254
657.90 3.943382
658.00 3.788392
658.10 3.610889
658.20 3.54595
658.30 3.703712
658.40 3.787691
658.50 3.831697
658.60 4.037341
658.70 4.530114
658.80 4.693602
658.90 4.352764
659.00 4.081913
659.10 4.062111
659.20 4.168709
659.30 4.31256
659.40 4.261949
659.50 4.030368
659.60 3.96262
659.70 4.072405
659.80 4.134717
659.90 3.971772
660.00 3.894194
660.10 3.914943
660.20 4.031394
660.30 4.1394
660.40 4.141392
660.50 4.142452
660.60 4.164043
660.70 4.118815
660.80 3.943233
660.90 3.920372
661.00 4.014143
661.10 4.061257
661.20 4.063534
661.30 4.16475
661.40 4.301218
661.50 4.352131
661.60 4.02477
661.70 3.855544
661.80 4.144065
661.90 4.219472
662.00 4.0139
662.10 3.767776
662.20 3.734712
662.30 3.778618
662.40 3.740989
662.50 3.700647
662.60 3.359504
662.70 3.032907
662.80 3.205482
662.90 3.290545
663.00 3.28877
663.10 3.432291
663.20 3.653598
663.30 3.792444
663.40 3.795454
663.50 3.700879
663.60 3.64166
663.70 3.492406
663.80 3.243518
663.90 3.231432
664.00 3.289247
664.10 3.446815
664.20 3.528846
664.30 3.647412
664.40 3.625591
664.50 3.606727
664.60 3.529276
664.70 3.444495
664.80 3.554581
664.90 3.679771
665.00 3.705265
665.10 3.485516
665.20 2.921092
665.30 2.572867
665.40 2.61839
665.50 2.761303
665.60 2.974618
665.70 2.946669
665.80 2.735645
665.90 2.597998
666.00 2.81094
666.10 2.915202
666.20 2.975287
666.30 3.114898
666.40 3.212846
666.50 3.27436
666.60 3.26368
666.70 3.250374
666.80 3.21096
666.90 3.370656
667.00 3.618441
667.10 3.575188
667.20 3.499346
667.30 3.258292
667.40 3.062263
667.50 3.215869
667.60 3.384928
667.70 3.624476
667.80 3.765064
667.90 3.857086
668.00 3.696053
668.10 3.487213
668.20 3.210886
668.30 2.74119
668.40 2.656353
668.50 2.710607
668.60 2.881234
668.70 2.821082
668.80 2.58959
668.90 2.615453
669.00 2.735571
669.10 2.850409
669.20 2.96275
669.30 2.893542
669.40 2.526777
669.50 2.441446
669.60 2.797738
669.70 3.164715
669.80 3.225582
669.90 2.942779
670.00 2.881157
670.10 3.10737
670.20 3.381477
670.30 3.481924
670.40 3.378049
670.50 3.334681
670.60 3.482446
670.70 3.587792
670.80 3.577013
670.90 3.287611
671.00 3.14426
671.10 3.382034
671.20 3.63895
671.30 3.649367
671.40 3.325603
671.50 2.990242
671.60 2.790382
671.70 2.65466
671.80 2.523383
671.90 2.462545
672.00 2.552796
672.10 2.703138
672.20 2.785942
672.30 2.769454
672.40 2.725522
672.50 2.796144
672.60 2.793042
672.70 2.844584
672.80 3.142627
672.90 3.317739
673.00 3.088464
673.10 2.837523
673.20 2.920176
673.30 3.236205
673.40 3.398052
673.50 3.229447
673.60 3.002652
673.70 2.823935
673.80 2.824387
673.90 3.112692
674.00 3.22068
674.10 3.158371
674.20 3.126848
674.30 3.231791
674.40 3.356216
674.50 3.34868
674.60 3.353963
674.70 3.281285
674.80 3.041219
674.90 2.804475
675.00 2.785845
675.10 2.991083
675.20 3.094864
675.30 3.024007
675.40 2.966146
675.50 3.225335
675.60 3.316574
675.70 3.310293
675.80 3.318693
675.90 3.124339
676.00 3.100463
676.10 3.322289
676.20 3.433574
676.30 3.518991
676.40 3.405079
676.50 3.369142
676.60 3.778416
676.70 3.881407
676.80 3.778869
676.90 3.842979
677.00 3.956853
677.10 4.224631
677.20 4.290963
677.30 4.086037
677.40 3.965472
677.50 4.019619
677.60 4.007157
677.70 4.029616
677.80 3.958503
677.90 4.035478
678.00 4.162713
678.10 3.961182
678.20 3.573195
678.30 3.108196
678.40 2.908115
678.50 2.91859
678.60 2.843022
678.70 2.793353
678.80 2.88226
678.90 3.185994
679.00 3.432154
679.10 3.545844
679.20 3.485594
679.30 3.130595
679.40 2.984142
679.50 3.172623
679.60 3.368316
679.70 3.420423
679.80 3.398429
679.90 3.423678
680.00 3.47001
680.10 3.55156
680.20 3.513515
680.30 3.444378
680.40 3.476351
680.50 3.520713
680.60 3.63486
680.70 3.808905
680.80 3.77415
680.90 3.578901
681.00 3.559083
681.10 3.725088
681.20 3.922955
681.30 3.996128
681.40 3.843631
681.50 3.576086
681.60 3.409685
681.70 3.499602
681.80 3.583808
681.90 3.574412
682.00 3.607981
682.10 3.520026
682.20 3.468965
682.30 3.568155
682.40 3.554659
682.50 3.511576
682.60 3.636024
682.70 3.922912
682.80 4.098588
682.90 3.989566
683.00 3.633708
683.10 3.347086
683.20 3.576432
683.30 3.847418
683.40 3.83191
683.50 3.910536
683.60 4.228872
683.70 4.38571
683.80 4.25869
683.90 4.245439
684.00 4.137369
684.10 4.104405
684.20 4.375391
684.30 4.481464
684.40 4.37368
684.50 4.218125
684.60 4.073121
684.70 4.064933
684.80 4.14493
684.90 4.090335
685.00 3.893302
685.10 3.691124
685.20 3.643372
685.30 3.541855
685.40 3.4425
685.50 3.48279
685.60 3.683238
685.70 3.865693
685.80 3.803459
685.90 3.683024
686.00 3.65035
686.10 3.77266
686.20 3.896017
686.30 4.018268
686.40 4.260595
686.50 4.348842
686.60 4.056617
686.70 3.665886
686.80 3.713266
686.90 4.055288
687.00 3.64766
687.10 3.342179
687.20 3.679858
687.30 4.176557
687.40 4.529963
687.50 4.607108
687.60 4.740925
687.70 4.706353
687.80 4.535709
687.90 4.512308
688.00 4.338303
688.10 4.304228
688.20 4.524335
688.30 4.561286
688.40 4.468033
688.50 4.299206
688.60 4.421708
688.70 4.762005
688.80 4.717353
688.90 4.645773
689.00 4.465042
689.10 4.05538
689.20 3.936202
689.30 4.101577
689.40 4.466191
689.50 4.579317
689.60 4.389782
689.70 4.438144
689.80 4.479313
689.90 4.491324
690.00 4.442502
690.10 4.251101
690.20 3.970914
690.30 3.886733
690.40 4.206407
690.50 4.529943
690.60 4.501198
690.70 4.614551
690.80 5.136016
690.90 5.287836
691.00 4.974321
691.10 4.832343
691.20 4.881599
691.30 5.140176
691.40 5.032372
691.50 4.982398
691.60 5.205524
691.70 5.137461
691.80 4.809804
691.90 4.384212
692.00 4.119111
692.10 4.171964
692.20 4.347658
692.30 4.642272
692.40 5.16627
692.50 5.244853
692.60 5.000837
692.70 5.295905
692.80 5.546876
692.90 5.506939
693.00 5.274126
693.10 5.189004
693.20 5.528165
693.30 5.834098
693.40 6.09184
693.50 6.074293
693.60 5.982918
693.70 6.137908
693.80 6.107435
693.90 5.950937
694.00 5.779547
694.10 5.768091
694.20 6.019606
694.30 6.32853
694.40 6.918683
694.50 7.373137
694.60 7.523621
694.70 7.916808
694.80 8.195202
694.90 8.132473
695.00 8.022949
695.10 7.809228
695.20 7.70247
695.30 7.49366
695.40 7.173651
695.50 6.946343
695.60 6.984817
695.70 7.199689
695.80 7.063969
695.90 6.84506
696.00 6.773804
696.10 6.929873
696.20 7.088714
696.30 7.116554
696.40 7.335334
696.50 7.656285
696.60 7.785178
696.70 7.761224
696.80 7.847813
696.90 7.932051
697.00 7.814502
697.10 7.5408
697.20 7.28029
697.30 7.466286
697.40 7.505724
697.50 7.283336
697.60 7.502871
697.70 8.066774
697.80 8.697931
697.90 8.948125
698.00 8.646965
698.10 8.262736
698.20 8.251857
698.30 8.600585
698.40 8.712282
698.50 8.459986
698.60 8.450821
698.70 8.66363
698.80 8.745426
698.90 8.572771
699.00 8.406273
699.10 8.376869
699.20 8.252224
699.30 8.0207
699.40 8.23245
699.50 8.651675
699.60 8.749752
699.70 8.627532
699.80 8.328786
699.90 8.086057
700.00 8.093794
700.10 8.281514
700.20 8.464603
700.30 8.608375
700.40 8.543433
700.50 8.286484
700.60 8.203634
700.70 8.477138
700.80 8.870845
700.90 9.063246
701.00 9.307103
701.10 9.535161
701.20 9.659119
701.30 9.56678
701.40 9.133135
701.50 9.103948
701.60 9.601787
701.70 9.919591
701.80 9.925841
701.90 9.810123
702.00 10.05848
702.10 10.61546
702.20 10.6203
702.30 10.1993
702.40 9.863972
702.50 9.537297
702.60 9.609508
702.70 9.897812
702.80 10.64705
702.90 11.52937
703.00 11.76818
703.10 11.81696
703.20 11.72307
703.30 11.6122
703.40 11.71762
703.50 11.98011
703.60 12.47338
703.70 12.97874
703.80 13.25256
703.90 13.2593
704.00 12.97187
704.10 12.90321
704.20 13.05194
704.30 13.22889
704.40 13.49383
704.50 13.71294
704.60 13.88564
704.70 13.91606
704.80 13.77129
704.90 13.71402
705.00 13.81369
705.10 14.342
705.20 14.65649
705.30 13.98537
705.40 12.41065
705.50 10.0629
705.60 7.510276
705.70 5.553755
705.80 4.670506
705.90 4.577249
706.00 4.607723
706.10 4.430424
706.20 4.273469
706.30 4.220417
706.40 4.262197
706.50 4.328868
706.60 4.520969
706.70 4.760713
706.80 4.961013
706.90 5.066451
707.00 5.119772
707.10 5.20606
707.20 5.353839
707.30 5.527224
707.40 5.475423
707.50 5.408345
707.60 5.366203
707.70 5.257993
707.80 5.266356
707.90 5.445726
708.00 5.643025
708.10 5.703891
708.20 5.814115
708.30 6.065959
708.40 6.209236
708.50 6.180105
708.60 6.124334
708.70 5.998287
708.80 5.676962
708.90 5.036757
709.00 4.160856
709.10 3.615491
709.20 3.645212
709.30 3.766316
709.40 3.726056
709.50 3.655926
709.60 3.606051
709.70 3.711535
709.80 3.906313
709.90 3.978256
710.00 3.879384
710.10 3.833883
710.20 3.892826
710.30 3.922518
710.40 4.053664
710.50 4.220567
710.60 4.324154
710.70 4.257078
710.80 4.245623
710.90 4.552864
711.00 4.886126
711.10 5.026023
711.20 4.950122
711.30 4.747174
711.40 4.720672
711.50 4.950177
711.60 5.114126
711.70 5.020676
711.80 4.961624
711.90 5.189289
712.00 5.611433
712.10 5.86583
712.20 5.799137
712.30 5.669445
712.40 5.497154
712.50 5.113385
712.60 4.645476
712.70 4.203156
712.80 3.818981
712.90 3.462605
713.00 3.269438
713.10 3.375474
713.20 3.50534
713.30 3.528153
713.40 3.489139
713.50 3.523511
713.60 3.627591
713.70 3.57618
713.80 3.322065
713.90 3.328281
714.00 3.561703
714.10 3.654305
714.20 3.77224
714.30 3.849746
714.40 3.799503
714.50 3.765984
714.60 3.811554
714.70 4.006646
714.80 4.228324
714.90 4.180098
715.00 3.971369
715.10 3.824284
715.20 3.854925
715.30 3.915828
715.40 4.067312
715.50 4.361441
715.60 4.697786
715.70 4.892249
715.80 4.718448
715.90 4.315943
716.00 4.273765
716.10 4.504488
716.20 4.308799
716.30 3.891356
716.40 3.679112
716.50 3.942602
716.60 4.524312
716.70 4.700479
716.80 4.436179
716.90 4.201711
717.00 4.224431
717.10 4.489937
717.20 4.620465
717.30 4.637083
717.40 4.562226
717.50 4.492889
717.60 4.600448
717.70 4.624335
717.80 4.72306
717.90 4.735978
718.00 4.830482
718.10 5.219363
718.20 5.394023
718.30 5.426371
718.40 5.381138
718.50 5.402983
718.60 5.5939
718.70 5.670871
718.80 5.704834
718.90 5.862074
719.00 6.095508
719.10 6.281945
719.20 6.301408
719.30 6.20846
719.40 6.123002
719.50 6.182325
719.60 6.155831
719.70 5.894864
719.80 5.647965
719.90 5.266648
720.00 4.907302
720.10 4.859413
720.20 5.089243
720.30 5.417649
720.40 5.409388
720.50 5.243048
720.60 5.246974
720.70 5.38058
720.80 5.42133
720.90 5.303867
721.00 5.21135
721.10 5.300462
721.20 5.499478
721.30 5.683155
721.40 5.941417
721.50 6.084554
721.60 5.946499
721.70 5.75805
721.80 5.815786
721.90 6.022502
722.00 6.033861
722.10 5.987553
722.20 6.04644
722.30 6.209146
722.40 6.500379
722.50 6.66888
722.60 6.725846
722.70 6.941204
722.80 7.237378
722.90 7.351797
723.00 7.160145
723.10 6.822324
723.20 6.756233
723.30 6.953339
723.40 7.068006
723.50 7.208981
723.60 7.323722
723.70 7.362019
723.80 7.553702
723.90 7.803317
724.00 7.851339
724.10 7.733524
724.20 7.373925
724.30 7.317735
724.40 7.881536
724.50 8.255065
724.60 8.218933
724.70 8.484092
724.80 8.999372
724.90 8.973814
725.00 8.911616
725.10 9.306775
725.20 9.755093
725.30 9.796019
725.40 9.563148
725.50 9.582391
725.60 9.901054
725.70 10.2569
725.80 10.28692
725.90 10.02894
726.00 9.911221
726.10 9.977064
726.20 10.27882
726.30 10.78391
726.40 11.18668
726.50 11.6069
726.60 11.85962
726.70 11.63845
726.80 11.54776
726.90 11.56863
727.00 11.288
727.10 10.91984
727.20 10.49644
727.30 10.06067
727.40 9.933915
727.50 10.57697
727.60 11.75878
727.70 12.52045
727.80 11.77386
727.90 10.49109
728.00 10.95086
728.10 12.01975
728.20 11.98242
728.30 11.49939
728.40 11.37185
728.50 11.87365
728.60 12.51701
728.70 12.47544
728.80 12.34001
728.90 12.84818
729.00 13.2562
729.10 13.27621
729.20 13.20301
729.30 13.26297
729.40 13.49299
729.50 13.87033
729.60 14.29147
729.70 14.9302
729.80 15.36288
729.90 14.97755
730.00 14.59491
730.10 14.96828
730.20 15.52925
730.30 15.82661
730.40 16.25407
730.50 16.62919
730.60 16.5169
730.70 16.36697
730.80 16.65722
730.90 17.32546
731.00 17.72657
731.10 17.54957
731.20 17.20258
731.30 17.18185
731.40 17.6619
731.50 18.289
731.60 18.60973
731.70 18.49032
731.80 18.35882
731.90 18.52349
732.00 19.237
732.10 19.90872
732.20 19.92987
732.30 19.76168
732.40 19.7324
732.50 19.73315
732.60 19.5963
732.70 19.34498
732.80 19.55981
732.90 20.21851
733.00 20.3154
733.10 20.20315
733.20 20.17872
733.30 20.06187
733.40 19.89429
733.50 19.7688
733.60 20.35196
733.70 21.43867
733.80 22.16104
733.90 22.61131
734.00 22.86033
734.10 23.45934
734.20 24.08108
734.30 23.15151
734.40 21.98277
734.50 21.35983
734.60 20.58799
734.70 19.96154
734.80 19.71354
734.90 20.17626
735.00 21.00639
735.10 21.61256
735.20 21.98828
735.30 22.20174
735.40 22.18049
735.50 21.76435
735.60 21.12977
735.70 20.51516
735.80 20.52586
735.90 21.32199
736.00 21.98114
736.10 22.01716
736.20 21.93509
736.30 22.30685
736.40 23.09306
736.50 23.94369
736.60 24.37961
736.70 24.26762
736.80 24.4857
736.90 25.23324
737.00 25.77495
737.10 25.66425
737.20 25.27231
737.30 24.99951
737.40 24.55422
737.50 23.73147
737.60 22.83033
737.70 22.6121
737.80 23.04497
737.90 23.70475
738.00 24.0998
738.10 24.07242
738.20 24.01506
738.30 24.1554
738.40 24.3445
738.50 24.31933
738.60 24.23984
738.70 24.43205
738.80 24.94668
738.90 25.86546
739.00 26.71989
739.10 27.06456
739.20 26.86222
739.30 25.90054
739.40 24.49616
739.50 23.24369
739.60 22.41782
739.70 22.35455
739.80 22.98361
739.90 23.91702
740.00 24.61626
740.10 24.89702
740.20 25.25366
740.30 25.87775
740.40 25.90653
740.50 24.75628
740.60 22.90921
740.70 22.07186
740.80 22.42146
740.90 22.73446
741.00 23.26337
741.10 23.99782
741.20 24.42937
741.30 24.6094
741.40 24.82235
741.50 25.0991
741.60 25.102
741.70 24.53021
741.80 23.46101
741.90 22.53176
742.00 21.86029
742.10 21.64621
742.20 22.02775
742.30 22.57982
742.40 23.14082
742.50 23.88227
742.60 24.42537
742.70 24.65016
742.80 24.78511
742.90 24.75505
743.00 24.96169
743.10 25.25962
743.20 25.12123
743.30 25.00571
743.40 24.84829
743.50 23.91136
743.60 22.58468
743.70 21.63569
743.80 21.67281
743.90 22.7966
744.00 23.95267
744.10 24.25246
744.20 23.93621
744.30 23.34361
744.40 22.74599
744.50 22.39879
744.60 22.11388
744.70 22.04887
744.80 21.96375
744.90 21.69003
745.00 21.87426
745.10 22.61393
745.20 23.47805
745.30 23.93655
745.40 23.81713
745.50 23.40558
745.60 23.07408
745.70 22.82346
745.80 22.5929
745.90 22.51445
746.00 22.51449
746.10 22.71323
746.20 23.03384
746.30 23.53507
746.40 24.0882
746.50 24.28006
746.60 24.32585
746.70 24.33342
746.80 24.19224
746.90 23.90245
747.00 23.84842
747.10 24.44632
747.20 25.25336
747.30 25.28858
747.40 24.1863
747.50 22.91705
747.60 22.57006
747.70 23.07783
747.80 23.85956
747.90 24.45665
748.00 24.56745
748.10 24.51919
748.20 24.7441
748.30 25.01847
748.40 25.58642
748.50 26.37692
748.60 26.41935
748.70 25.87775
748.80 25.38656
748.90 25.2899
749.00 25.58564
749.10 25.71151
749.20 25.54832
749.30 25.23927
749.40 24.70155
749.50 24.15896
749.60 23.96919
749.70 24.226
749.80 24.86198
749.90 25.65617
750.00 26.52355
750.10 27.07642
750.20 27.07552
750.30 27.06948
750.40 27.2026
750.50 26.95505
750.60 26.2521
750.70 25.682
750.80 25.67537
750.90 26.29641
751.00 27.30737
751.10 28.12304
751.20 28.38858
751.30 27.97334
751.40 27.25123
751.50 26.93935
751.60 26.88586
751.70 27.08041
751.80 27.3565
751.90 27.20833
752.00 26.91296
752.10 26.85081
752.20 26.68707
752.30 26.77819
752.40 27.60405
752.50 27.99959
752.60 27.99344
752.70 27.81602
752.80 26.81549
752.90 26.18498
753.00 26.47008
753.10 27.43889
753.20 28.69531
753.30 29.06825
753.40 28.50386
753.50 27.93735
753.60 27.63625
753.70 27.78451
753.80 28.69025
753.90 29.9352
754.00 31.06636
754.10 31.59424
754.20 31.33542
754.30 30.97458
754.40 31.03437
754.50 31.33677
754.60 31.54867
754.70 31.33433
754.80 30.75979
754.90 30.20135
755.00 29.7986
755.10 29.89059
755.20 30.65742
755.30 31.27131
755.40 31.24958
755.50 30.91031
755.60 30.74204
755.70 30.85251
755.80 31.03934
755.90 31.50235
756.00 32.1009
756.10 32.45854
756.20 32.39653
756.30 32.0626
756.40 31.84556
756.50 31.40288
756.60 30.81647
756.70 30.39887
756.80 29.84841
756.90 29.20675
757.00 28.77575
757.10 29.09383
757.20 30.59408
757.30 32.6313
757.40 33.64007
757.50 33.12888
757.60 32.38962
757.70 31.93966
757.80 31.18071
757.90 30.527
758.00 30.70962
758.10 31.82388
758.20 33.42653
758.30 34.54341
758.40 34.7952
758.50 34.55404
758.60 33.85789
758.70 32.48374
758.80 30.03458
758.90 26.21946
759.00 21.92814
759.10 18.29887
759.20 15.71605
759.30 14.63326
759.40 15.02163
759.50 15.98561
759.60 16.78296
759.70 16.90417
759.80 16.47665
759.90 16.85394
760.00 18.13123
760.10 18.59882
760.20 17.8195
760.30 16.79598
760.40 16.66707
760.50 17.56772
760.60 18.05861
760.70 17.75096
760.80 17.56861
760.90 17.74043
761.00 18.0884
761.10 18.43766
761.20 18.75589
761.30 19.27059
761.40 20.19608
761.50 21.04943
761.60 21.16075
761.70 21.10024
761.80 21.37725
761.90 21.78265
762.00 22.42494
762.10 22.58498
762.20 21.70505
762.30 20.89015
762.40 20.65124
762.50 20.50687
762.60 20.01192
762.70 18.69945
762.80 16.904
762.90 15.02644
763.00 13.14379
763.10 11.88988
763.20 11.87586
763.30 12.50383
763.40 13.01236
763.50 13.09435
763.60 12.71832
763.70 12.54445
763.80 12.85821
763.90 12.98523
764.00 12.82257
764.10 12.51168
764.20 12.16398
764.30 12.23862
764.40 12.5617
764.50 12.74771
764.60 12.32381
764.70 11.55431
764.80 11.40389
764.90 11.65076
765.00 11.63238
765.10 11.31458
765.20 10.94478
765.30 10.96342
765.40 11.06838
765.50 10.41308
765.60 9.208688
765.70 8.483434
765.80 8.408236
765.90 8.401988
766.00 8.015543
766.10 7.301256
766.20 6.601934
766.30 5.857735
766.40 5.289494
766.50 4.955942
766.60 4.597592
766.70 4.496889
766.80 4.624313
766.90 4.837705
767.00 5.299368
767.10 5.835844
767.20 6.200458
767.30 6.317545
767.40 6.431612
767.50 6.680028
767.60 7.046844
767.70 7.479684
767.80 7.669149
767.90 7.72264
768.00 7.945936
768.10 8.223343
768.20 8.335568
768.30 8.362315
768.40 8.574004
768.50 8.885375
768.60 9.047103
768.70 8.978154
768.80 8.784655
768.90 8.634983
769.00 8.65886
769.10 8.843543
769.20 8.813529
769.30 8.565901
769.40 8.221315
769.50 7.668555
769.60 7.150466
769.70 6.609625
769.80 5.952106
769.90 5.268089
770.00 4.574987
770.10 4.394247
770.20 4.782722
770.30 5.319622
770.40 5.988224
770.50 6.620036
770.60 7.084775
770.70 7.464988
770.80 7.726105
770.90 8.133023
771.00 8.758549
771.10 9.230856
771.20 9.353555
771.30 9.417722
771.40 9.961054
771.50 10.45852
771.60 10.32806
771.70 10.42
771.80 10.79569
771.90 10.75854
772.00 11.0107
772.10 11.49777
772.20 11.78976
772.30 12.25605
772.40 12.49194
772.50 12.64722
772.60 12.99284
772.70 13.19081
772.80 13.27963
772.90 13.60389
773.00 14.07176
773.10 14.55296
773.20 14.97403
773.30 15.13935
773.40 15.29232
773.50 15.45934
773.60 15.42425
773.70 15.54453
773.80 16.07421
773.90 16.59888
774.00 16.85733
774.10 16.87453
774.20 16.73032
774.30 16.52253
774.40 15.93925
774.50 14.81116
774.60 13.76706
774.70 13.36578
774.80 13.21758
774.90 13.05036
775.00 12.61615
775.10 11.78374
775.20 11.38359
775.30 11.39154
775.40 11.55709
775.50 12.05116
775.60 12.42233
775.70 12.47146
775.80 12.49752
775.90 12.80782
776.00 13.09724
776.10 13.25166
776.20 13.38218
776.30 13.18877
776.40 12.94641
776.50 13.06049
776.60 13.24123
776.70 13.38343
776.80 13.90773
776.90 14.59768
777.00 14.90634
777.10 14.90903
777.20 14.86665
777.30 15.02059
777.40 15.48067
777.50 15.86101
777.60 15.8916
777.70 15.79949
777.80 15.53866
777.90 15.48625
778.00 15.91348
778.10 16.22473
778.20 16.15973
778.30 15.54292
778.40 14.454
778.50 13.69442
778.60 13.50822
778.70 13.52534
778.80 13.61745
778.90 13.74082
779.00 14.02001
779.10 14.68418
779.20 15.22135
779.30 15.35719
779.40 15.74671
779.50 16.27774
779.60 16.51799
779.70 16.46147
779.80 15.73315
779.90 14.64767
780.00 13.45133
780.10 12.23
780.20 11.99528
780.30 13.00128
780.40 14.73175
780.50 16.78408
780.60 18.36735
780.70 19.16558
780.80 19.55475
780.90 19.59514
781.00 19.29467
781.10 18.94608
781.20 18.67432
781.30 18.79879
781.40 19.65315
781.50 20.5847
781.60 20.95593
781.70 21.01132
781.80 21.03983
781.90 21.23984
782.00 21.2074
782.10 20.35879
782.20 18.98677
782.30 17.62811
782.40 17.03177
782.50 17.53976
782.60 18.36118
782.70 18.73512
782.80 18.28268
782.90 17.23907
783.00 16.08279
783.10 15.32223
783.20 15.23854
783.30 15.77418
783.40 16.54992
783.50 17.10068
783.60 17.40831
783.70 17.54046
783.80 17.68473
783.90 17.98148
784.00 18.07589
784.10 18.09661
784.20 18.29558
784.30 18.23723
784.40 18.13275
784.50 18.41214
784.60 18.96788
784.70 19.62271
784.80 19.90165
784.90 19.65063
785.00 19.02807
785.10 18.39922
785.20 18.45868
785.30 19.08469
785.40 19.62975
785.50 19.73057
785.60 19.67227
785.70 19.77398
785.80 19.88497
785.90 20.18564
786.00 20.32579
786.10 19.93295
786.20 19.69655
786.30 19.58792
786.40 19.09523
786.50 18.64052
786.60 18.43627
786.70 18.17236
786.80 17.98816
786.90 18.07488
787.00 18.48168
787.10 18.89896
787.20 18.76456
787.30 18.00353
787.40 17.40075
787.50 17.64841
787.60 18.37463
787.70 18.99286
787.80 19.58221
787.90 20.55628
788.00 21.25444
788.10 21.30852
788.20 21.21853
788.30 21.03705
788.40 21.29723
788.50 21.80311
788.60 21.99729
788.70 22.22018
788.80 22.36686
788.90 22.45216
789.00 22.57782
789.10 22.49545
789.20 22.35556
789.30 22.52766
789.40 23.06675
789.50 23.50028
789.60 23.25993
789.70 22.33305
789.80 21.27437
789.90 20.37007
790.00 19.55238
790.10 18.98686
790.20 18.85848
790.30 19.27287
790.40 20.24267
790.50 21.21802
790.60 21.80299
790.70 21.95247
790.80 21.4273
790.90 20.25875
791.00 19.11117
791.10 18.17037
791.20 17.32672
791.30 17.27914
791.40 18.05476
791.50 19.0613
791.60 19.68572
791.70 19.49986
791.80 19.06893
791.90 18.61522
792.00 17.93551
792.10 17.5263
792.20 17.92511
792.30 18.69742
792.40 18.97581
792.50 19.00506
792.60 19.33589
792.70 19.7024
792.80 19.95995
792.90 20.02965
793.00 19.94224
793.10 20.22422
793.20 21.01371
793.30 22.12694
793.40 23.07726
793.50 23.34728
793.60 23.28127
793.70 23.22563
793.80 23.31612
793.90 23.38251
794.00 22.56058
794.10 20.92693
794.20 19.49426
794.30 18.81228
794.40 19.15373
794.50 19.97721
794.60 20.28486
794.70 19.63911
794.80 18.07063
794.90 16.53859
795.00 16.50825
795.10 18.1036
795.20 19.98092
795.30 21.51004
795.40 22.78505
795.50 23.54622
795.60 23.88822
795.70 24.07606
795.80 24.03719
795.90 23.63632
796.00 23.0502
796.10 22.31099
796.20 21.22521
796.30 20.46582
796.40 20.77736
796.50 21.62073
796.60 22.31217
796.70 22.85455
796.80 23.20242
796.90 23.69244
797.00 24.62863
797.10 25.4536
797.20 25.93291
797.30 26.20741
797.40 25.82835
797.50 24.67541
797.60 23.46714
797.70 22.72846
797.80 22.33491
797.90 22.12129
798.00 22.10264
798.10 22.30728
798.20 22.60374
798.30 22.64456
798.40 22.26479
798.50 21.71852
798.60 21.24842
798.70 20.83416
798.80 20.5157
798.90 20.53457
799.00 21.05906
799.10 21.91229
799.20 22.91515
799.30 23.93313
799.40 24.27827
799.50 23.45443
799.60 22.45113
799.70 22.4582
799.80 23.01344
799.90 23.24934
800.00 23.27051
800.10 23.54604
800.20 24.06157
800.30 24.53329
800.40 24.99512
800.50 25.309
800.60 25.38633
800.70 25.57832
800.80 26.10887
800.90 26.85346
801.00 27.26641
801.10 27.177
801.20 27.05348
801.30 27.14017
801.40 27.41694
801.50 27.55697
801.60 27.51656
801.70 27.91808
801.80 28.74766
801.90 29.36301
802.00 29.62861
802.10 29.6138
802.20 29.36215
802.30 29.09556
802.40 29.10237
802.50 29.55322
802.60 30.40337
802.70 31.46011
802.80 32.04376
802.90 31.98295
803.00 32.19756
803.10 32.75426
803.20 33.03301
803.30 32.98627
803.40 32.80847
803.50 32.77013
803.60 33.01926
803.70 33.25389
803.80 33.21143
803.90 33.11331
804.00 32.95774
804.10 32.68864
804.20 32.76098
804.30 33.2379
804.40 33.91848
804.50 34.64371
804.60 34.81202
804.70 34.43298
804.80 34.1973
804.90 34.17291
805.00 34.69732
805.10 36.04164
805.20 37.44046
805.30 38.6613
805.40 39.582
805.50 39.78983
805.60 39.71878
805.70 39.7218
805.80 39.7236
805.90 39.75736
806.00 39.91172
806.10 40.42625
806.20 41.08115
806.30 41.20269
806.40 40.73494
806.50 40.3532
806.60 40.18595
806.70 40.38529
806.80 41.17801
806.90 41.67021
807.00 41.39759
807.10 40.98694
807.20 40.99727
807.30 41.70983
807.40 42.92303
807.50 43.96241
807.60 44.42406
807.70 44.60871
807.80 44.934
807.90 45.57645
808.00 46.16038
808.10 46.20896
808.20 46.2707
808.30 46.83964
808.40 47.40646
808.50 47.92043
808.60 48.59569
808.70 48.803
808.80 48.34153
808.90 47.67602
809.00 47.10023
809.10 47.12661
809.20 47.89423
809.30 48.90517
809.40 49.6319
809.50 49.70604
809.60 49.38607
809.70 48.85441
809.80 48.12738
809.90 47.75042
810.00 47.85856
810.10 48.08573
810.20 48.41676
810.30 48.66727
810.40 48.46599
810.50 48.12443
810.60 48.37674
810.70 49.45354
810.80 50.79051
810.90 51.82242
811.00 52.492
811.10 52.68877
811.20 52.46435
811.30 52.43724
811.40 52.93451
811.50 53.47984
811.60 53.467
811.70 52.78025
811.80 51.98048
811.90 52.15405
812.00 53.57115
812.10 55.15525
812.20 56.0502
812.30 56.21287
812.40 55.9377
812.50 55.80888
812.60 56.04168
812.70 56.43356
812.80 57.07448
812.90 57.88072
813.00 58.30178
813.10 58.13119
813.20 57.74123
813.30 57.66541
813.40 58.12663
813.50 58.86021
813.60 59.34935
813.70 59.4056
813.80 59.58723
813.90 60.40021
814.00 61.37182
814.10 61.44767
814.20 60.27163
814.30 58.61711
814.40 57.14751
814.50 56.26871
814.60 56.47652
814.70 57.26304
814.80 57.58086
814.90 57.27725
815.00 56.82334
815.10 56.79955
815.20 57.54961
815.30 58.71729
815.40 59.64037
815.50 59.66224
815.60 58.95411
815.70 58.55192
815.80 58.67152
815.90 58.80398
816.00 58.62054
816.10 58.11233
816.20 57.62739
816.30 57.65758
816.40 58.51992
816.50 59.87711
816.60 60.94723
816.70 61.30459
816.80 61.37533
816.90 61.98743
817.00 62.93518
817.10 63.59361
817.20 63.71551
817.30 63.28577
817.40 62.79394
817.50 62.24871
817.60 61.71096
817.70 61.24023
817.80 60.10283
817.90 58.55967
818.00 56.98973
818.10 54.40739
818.20 50.03954
818.30 43.6547
818.40 36.71678
818.50 32.96548
818.60 34.20926
818.70 39.10678
818.80 45.24473
818.90 49.98191
819.00 52.19664
819.10 52.5351
819.20 51.37748
819.30 48.23283
819.40 42.89953
819.50 36.37913
819.60 30.96499
819.70 28.9677
819.80 30.96209
819.90 35.22452
820.00 39.49085
820.10 43.15058
820.20 46.22035
820.30 48.86849
820.40 51.30044
820.50 52.6485
820.60 52.2346
820.70 50.22248
820.80 47.54609
820.90 46.24777
821.00 47.22002
821.10 49.24633
821.20 51.32027
821.30 52.67453
821.40 52.64417
821.50 51.74575
821.60 50.89565
821.70 50.49652
821.80 50.63063
821.90 51.34173
822.00 52.36954
822.10 53.43732
822.20 54.59584
822.30 55.63833
822.40 56.38823
822.50 56.9059
822.60 57.22345
822.70 57.49018
822.80 57.67142
822.90 57.90058
823.00 58.62495
823.10 59.86481
823.20 61.10218
823.30 61.4537
823.40 60.44754
823.50 58.8045
823.60 57.75126
823.70 57.934
823.80 59.16793
823.90 60.78197
824.00 62.17194
824.10 63.17066
824.20 63.77235
824.30 63.67865
824.40 62.73759
824.50 61.64731
824.60 61.32621
824.70 62.21866
824.80 64.30217
824.90 66.28597
825.00 66.48955
825.10 64.90316
825.20 62.386
825.30 59.71638
825.40 57.81482
825.50 56.88115
825.60 56.30972
825.70 55.77919
825.80 55.45208
825.90 55.76569
826.00 56.94367
826.10 58.62357
826.20 60.32962
826.30 61.62543
826.40 62.37564
826.50 62.82702
826.60 62.94779
826.70 63.03425
826.80 63.3065
826.90 63.16152
827.00 62.345
827.10 60.89936
827.20 58.93809
827.30 56.92641
827.40 55.201
827.50 54.30517
827.60 54.71039
827.70 55.81223
827.80 56.87491
827.90 57.60552
828.00 57.59961
828.10 56.94926
828.20 55.7188
828.30 54.00771
828.40 52.80717
828.50 52.52586
828.60 52.80256
828.70 53.35114
828.80 53.62737
828.90 52.73298
829.00 50.64837
829.10 48.60805
829.20 47.48958
829.30 47.62187
829.40 48.63293
829.50 49.47803
829.60 49.92804
829.70 50.47884
829.80 51.26003
829.90 51.61399
830.00 48.73505
830.10 47.87911
830.20 47.02318
830.30 46.29037
830.40 45.55756
830.50 45.55442
830.60 45.55127
830.70 46.01781
830.80 46.48434
830.90 47.72596
831.00 48.96758
831.10 49.7343
831.20 50.50102
831.30 50.13275
831.40 49.76449
831.50 49.66825
831.60 49.57202
831.70 50.46542
831.80 51.35882
831.90 51.73393
832.00 52.10904
832.10 52.45993
832.20 52.81081
832.30 53.17503
832.40 53.53924
832.50 53.44691
832.60 53.35457
832.70 52.61569
832.80 51.8768
832.90 51.81237
833.00 51.74795
833.10 52.06482
833.20 52.38169
833.30 53.05775
833.40 53.73381
833.50 52.34236
833.60 50.95092
833.70 50.26514
833.80 49.57937
833.90 50.47205
834.00 51.36474
834.10 51.84589
834.20 52.32705
834.30 53.27715
834.40 54.22724
834.50 52.3386
834.60 50.44996
834.70 48.92124
834.80 47.39253
834.90 48.25898
835.00 49.12543
835.10 50.35318
835.20 51.58094
835.30 51.68304
835.40 51.78513
835.50 51.61204
835.60 51.43895
835.70 51.81629
835.80 52.19364
835.90 52.75346
836.00 53.31329
836.10 53.65437
836.20 53.99546
836.30 53.68404
836.40 53.37262
836.50 52.959
836.60 52.54538
836.70 53.2379
836.80 53.93043
836.90 55.75167
837.00 57.57292
837.10 57.14465
837.20 56.71638
837.30 55.54314
837.40 54.36991
837.50 52.39617
837.60 50.42244
837.70 49.86246
837.80 49.30248
837.90 50.36683
838.00 51.43118
838.10 52.6218
838.20 53.81243
838.30 53.06629
838.40 52.32015
838.50 51.84563
838.60 51.3711
838.70 49.82574
838.80 48.28038
838.90 46.58879
839.00 44.8972
839.10 45.74114
839.20 46.58507
839.30 47.75883
839.40 48.93259
839.50 49.5571
839.60 50.18161
839.70 50.73976
839.80 51.29792
839.90 52.10335
840.00 52.90878
840.10 51.94242
840.20 53.56967
840.30 54.14224
840.40 54.14537
840.50 54.33488
840.60 54.92428
840.70 55.51274
840.80 55.74117
840.90 55.95249
841.00 57.23462
841.10 59.21976
841.20 59.85413
841.30 57.28432
841.40 54.82925
841.50 54.42953
841.60 53.99708
841.70 55.54981
841.80 58.52163
841.90 59.72585
842.00 56.98619
842.10 54.342
842.20 52.57071
842.30 50.77363
842.40 50.61558
842.50 50.99675
842.60 51.28048
842.70 51.60157
842.80 51.92662
842.90 51.74279
843.00 51.46006
843.10 51.81698
843.20 52.38939
843.30 51.34473
843.40 48.17406
843.50 45.06337
843.60 41.04633
843.70 36.89119
843.80 36.03595
843.90 35.82056
844.00 37.14995
844.10 40.91901
844.20 44.02305
844.30 40.18834
844.40 36.47673
844.50 33.25886
844.60 30.20217
844.70 28.94434
844.80 30.0415
844.90 31.16846
845.00 32.61949
845.10 34.17615
845.20 32.37651
845.30 29.77269
845.40 27.63189
845.50 26.29717
845.60 25.28571
845.70 25.55538
845.80 25.79059
845.90 25.86451
846.00 25.92559
846.10 26.68196
846.20 28.06866
846.30 29.22058
846.40 29.7106
846.50 30.29983
846.60 28.43116
846.70 25.9472
846.80 25.28394
846.90 26.87755
847.00 28.32357
847.10 27.51879
847.20 26.74307
847.30 26.8596
847.40 27.3549
847.50 27.5026
847.60 27.30779
847.70 27.56135
847.80 28.79133
847.90 30.03739
848.00 30.30276
848.10 30.53743
848.20 30.5774
848.30 30.51378
848.40 30.55871
848.50 30.68024
848.60 30.78498
848.70 30.97698
848.80 31.20969
848.90 31.46859
849.00 31.59607
849.10 31.8077
849.20 32.53521
849.30 33.2267
849.40 33.28986
849.50 33.34917
849.60 32.75939
849.70 32.20102
849.80 31.69795
849.90 30.77943
850.00 29.92503
850.10 31.42538
850.20 33.15987
850.30 34.09555
850.40 34.06223
850.50 33.41355
850.60 32.86372
850.70 32.35866
850.80 30.54172
850.90 28.52255
851.00 28.4567
851.10 29.20071
851.20 30.27688
851.30 31.90314
851.40 33.38566
851.50 33.08314
851.60 32.70809
851.70 31.08993
851.80 28.98326
851.90 27.57396
852.00 27.52794
852.10 27.54001
852.20 27.29498
852.30 27.0216
852.40 28.1513
852.50 29.72585
852.60 31.31973
852.70 32.74004
852.80 33.92695
852.90 33.59759
853.00 33.28872
853.10 32.95287
853.20 32.72967
853.30 32.93652
853.40 33.62291
853.50 34.30789
853.60 34.05107
853.70 33.81032
853.80 34.13818
853.90 34.84301
854.00 35.12765
854.10 34.78565
854.20 34.62141
854.30 34.84589
854.40 35.04927
854.50 35.62573
854.60 36.31398
854.70 36.89146
854.80 36.9808
854.90 37.01217
855.00 37.49829
855.10 37.98463
855.20 38.53879
855.30 39.06711
855.40 39.39768
855.50 39.77982
855.60 40.2019
855.70 39.8615
855.80 39.37093
855.90 38.50587
856.00 37.88531
856.10 37.20164
856.20 36.20464
856.30 35.63735
856.40 35.97968
856.50 36.38914
856.60 37.99494
856.70 39.7322
856.80 40.51334
856.90 40.7922
857.00 40.5072
857.10 39.0573
857.20 37.63198
857.30 36.60635
857.40 35.62812
857.50 36.15942
857.60 37.39725
857.70 38.59663
857.80 39.32944
857.90 39.98117
858.00 40.29629
858.10 40.67171
858.20 40.07734
858.30 39.39998
858.40 39.09321
858.50 38.81956
858.60 38.64018
858.70 40.01599
858.80 41.47992
858.90 42.0968
859.00 42.37719
859.10 42.44661
859.20 42.11928
859.30 41.70172
859.40 40.97373
859.50 40.2256
859.60 41.17312
859.70 42.54152
859.80 43.5117
859.90 43.86664
860.00 44.00614
860.10 43.95207
860.20 43.88052
860.30 44.52314
860.40 45.47227
860.50 46.02084
860.60 45.12344
860.70 44.07355
860.80 44.46504
860.90 44.80825
861.00 44.31998
861.10 43.74806
861.20 43.51456
861.30 43.54469
861.40 43.30986
861.50 42.42291
861.60 41.51487
861.70 41.30909
861.80 41.29638
861.90 41.65022
862.00 41.79011
862.10 41.98058
862.20 42.81977
862.30 43.58957
862.40 43.99461
862.50 44.44148
862.60 43.40126
862.70 41.64004
862.80 40.60003
862.90 41.20572
863.00 41.79397
863.10 40.96526
863.20 39.89536
863.30 40.26892
863.40 41.29852
863.50 41.86643
863.60 41.48862
863.70 41.15693
863.80 41.56248
863.90 42.07464
864.00 42.40048
864.10 42.62466
864.20 42.56334
864.30 41.59469
864.40 40.89398
864.50 42.50671
864.60 44.41357
864.70 43.71839
864.80 42.10581
864.90 40.89462
865.00 40.84025
865.10 41.21153
865.20 41.47207
865.30 41.68418
865.40 42.2024
865.50 43.0189
865.60 44.04856
865.70 45.34144
865.80 46.32349
865.90 46.35591
866.00 46.35633
866.10 45.7668
866.20 45.17362
866.30 44.76897
866.40 44.22575
866.50 44.21316
866.60 45.04021
866.70 45.70374
866.80 45.70359
866.90 45.76628
867.00 45.82891
867.10 46.36364
867.20 46.75319
867.30 45.32902
867.40 43.94334
867.50 44.56161
867.60 45.68914
867.70 46.91721
867.80 48.27397
867.90 49.36372
868.00 49.19295
868.10 49.03073
868.20 48.13604
868.30 47.13065
868.40 46.48617
868.50 46.85081
868.60 47.61566
868.70 47.50459
868.80 47.16328
868.90 46.94067
869.00 46.9439
869.10 45.70999
869.20 43.61676
869.30 41.8069
869.40 40.48941
869.50 39.15213
869.60 38.58181
869.70 38.05816
869.80 38.69753
869.90 39.04407
870.00 39.13908
870.10 39.64798
870.20 40.33816
870.30 41.20968
870.40 42.05498
870.50 42.62292
870.60 43.02557
870.70 43.74388
870.80 44.93012
870.90 45.4964
871.00 43.54492
871.10 41.64973
871.20 41.63491
871.30 42.26577
871.40 42.59998
871.50 41.85142
871.60 40.99339
871.70 41.44148
871.80 41.91713
871.90 41.78998
872.00 41.40913
872.10 41.61926
872.20 41.98317
872.30 42.28979
872.40 42.14711
872.50 41.9899
872.60 42.37651
872.70 42.93276
872.80 44.8693
872.90 46.95432
873.00 48.18031
873.10 48.76996
873.20 49.18761
873.30 48.0675
873.40 46.79411
873.50 45.98701
873.60 45.30534
873.70 45.15354
873.80 44.98083
873.90 44.69196
874.00 45.09224
874.10 45.6269
874.20 46.81744
874.30 47.87832
874.40 49.52813
874.50 51.8666
874.60 53.74454
874.70 54.09466
874.80 54.41891
874.90 52.81967
875.00 50.95968
875.10 50.13648
875.20 50.08052
875.30 50.3372
875.40 51.65285
875.50 52.96381
875.60 52.82219
875.70 52.23958
875.80 51.921
875.90 52.78484
876.00 54.0451
876.10 55.10267
876.20 55.9425
876.30 55.1835
876.40 54.33147
876.50 52.90519
876.60 51.4588
876.70 50.40135
876.80 50.37508
876.90 50.59357
877.00 52.03702
877.10 53.35968
877.20 55.31299
877.30 57.36385
877.40 59.34007
877.50 61.90044
877.60 64.28396
877.70 64.83149
877.80 65.07596
877.90 62.67868
878.00 60.35044
878.10 58.68079
878.20 57.25675
878.30 56.24855
878.40 57.4417
878.50 58.82076
878.60 60.40437
878.70 62.22794
878.80 63.04023
878.90 62.746
879.00 62.71054
879.10 62.78543
879.20 62.759
879.30 62.87329
879.40 63.05782
879.50 63.10911
879.60 63.51222
879.70 64.25103
879.80 65.53723
879.90 66.71157
880.00 66.63964
880.10 66.68258
880.20 64.06714
880.30 60.02344
880.40 56.88858
880.50 55.59349
880.60 54.49761
880.70 55.74004
880.80 57.17706
880.90 57.5063
881.00 56.92713
881.10 57.45776
881.20 61.55089
881.30 65.35126
881.40 67.62458
881.50 69.52959
881.60 70.75457
881.70 71.8991
881.80 72.99032
881.90 73.62657
882.00 73.90826
882.10 72.55659
882.20 71.10054
882.30 68.14116
882.40 65.22789
882.50 62.45784
882.60 59.34304
882.70 56.96578
882.80 58.81613
882.90 61.08994
883.00 63.67029
883.10 66.01127
883.20 68.29589
883.30 70.14648
883.40 71.48917
883.50 71.28511
883.60 71.06383
883.70 71.22717
883.80 71.49858
883.90 72.36641
884.00 74.41579
884.10 76.29684
884.20 75.79583
884.30 75.02065
884.40 74.25893
884.50 73.97332
884.60 72.15495
884.70 69.24427
884.80 66.52535
884.90 63.64743
885.00 61.00812
885.10 61.79305
885.20 63.35258
885.30 68.08427
885.40 73.73857
885.50 77.80484
885.60 78.7015
885.70 78.94682
885.80 74.61557
885.90 69.93301
886.00 65.27843
886.10 61.21791
886.20 57.05293
886.30 52.44267
886.40 48.7936
886.50 49.47345
886.60 50.31152
886.70 53.44511
886.80 57.18135
886.90 57.95907
887.00 55.53399
887.10 52.64426
887.20 48.53632
887.30 44.46846
887.40 43.63529
887.50 42.84595
887.60 43.24563
887.70 44.85613
887.80 46.76413
887.90 49.40798
888.00 52.03383
888.10 53.61974
888.20 55.09596
888.30 54.46927
888.40 52.46941
888.50 50.76955
888.60 50.3245
888.70 49.95063
888.80 49.74045
888.90 49.03951
889.00 50.57513
889.10 54.23459
889.20 57.19294
889.30 57.46775
889.40 57.55214
889.50 56.18033
889.60 54.61516
889.70 52.93549
889.80 52.07387
889.90 52.18073
890.00 53.14039
890.10 54.45982
890.20 57.26484
890.30 60.05463
890.40 62.34605
890.50 65.18767
890.60 67.20564
890.70 67.62923
890.80 67.66515
890.90 65.18263
891.00 62.40272
891.10 60.65278
891.20 59.8876
891.30 59.62905
891.40 59.25538
891.50 59.42909
891.60 61.18938
891.70 62.94616
891.80 63.15654
891.90 63.52466
892.00 64.54119
892.10 65.49312
892.20 65.90323
892.30 65.2551
892.40 64.57367
892.50 63.40652
892.60 62.31767
892.70 62.16496
892.80 62.7816
892.90 63.57377
893.00 63.61489
893.10 63.89646
893.20 66.34583
893.30 69.11072
893.40 71.2906
893.50 73.14296
893.60 73.75124
893.70 72.66824
893.80 71.06959
893.90 66.37127
894.00 61.40413
894.10 59.17257
894.20 57.58457
894.30 57.129
894.40 57.88544
894.50 58.31695
894.60 57.56659
894.70 56.68618
894.80 58.51164
894.90 60.82364
895.00 61.99569
895.10 62.05034
895.20 61.89043
895.30 60.93321
895.40 60.04588
895.50 60.33843
895.60 60.84527
895.70 62.36219
895.80 64.5548
895.90 66.34207
896.00 67.04169
896.10 67.63707
896.20 67.23839
896.30 66.82273
896.40 66.69149
896.50 65.94848
896.60 64.82305
896.70 64.05715
896.80 63.42954
896.90 63.42786
897.00 63.57479
897.10 65.08249
897.20 66.53801
897.30 67.32535
897.40 68.07724
897.50 69.05615
897.60 70.74
897.70 72.32784
897.80 73.31855
897.90 73.81004
898.00 73.08775
898.10 72.36233
898.20 71.81686
898.30 71.0194
898.40 69.90198
898.50 72.41806
898.60 75.79988
898.70 78.45834
898.80 79.71623
898.90 80.00224
899.00 77.58887
899.10 75.13569
899.20 74.15392
899.30 73.82814
899.40 73.94706
899.50 74.32791
899.60 74.58768
899.70 73.42496
899.80 72.10079
899.90 71.06452
900.00 70.46383
900.10 70.30161
900.20 70.39745
900.30 71.56321
900.40 74.78222
900.50 78.05289
900.60 81.1395
900.70 84.28842
900.80 84.07369
900.90 81.79343
901.00 79.34877
901.10 78.29367
901.20 77.72285
901.30 78.57672
901.40 79.20982
901.50 79.20389
901.60 79.45564
901.70 79.1066
901.80 77.86148
901.90 76.69543
902.00 75.19443
902.10 73.6216
902.20 72.32523
902.30 71.36276
902.40 70.43433
902.50 69.81252
902.60 69.37231
902.70 68.80628
902.80 68.15275
902.90 68.45734
903.00 69.03387
903.10 70.11003
903.20 70.97711
903.30 72.02008
903.40 73.89797
903.50 75.75114
903.60 77.46034
903.70 79.22629
903.80 80.78971
903.90 82.01389
904.00 82.86291
904.10 82.37386
904.20 81.78892
904.30 80.90967
904.40 80.37832
904.50 80.12075
904.60 79.79415
904.70 80.43697
904.80 82.2116
904.90 83.93821
905.00 85.26785
905.10 86.60572
905.20 84.35044
905.30 81.1187
905.40 78.78749
905.50 77.29169
905.60 75.85796
905.70 75.49333
905.80 75.33178
905.90 75.46279
906.00 75.4553
906.10 75.77266
906.20 76.31529
906.30 76.97777
906.40 77.68199
906.50 78.24134
906.60 77.0369
906.70 76.14879
906.80 75.27863
906.90 73.81124
907.00 72.74249
907.10 73.3427
907.20 74.08493
907.30 75.20169
907.40 75.88608
907.50 75.944
907.60 76.03718
907.70 76.36943
907.80 78.31192
907.90 80.47032
908.00 82.73409
908.10 84.55297
908.20 84.5536
908.30 84.42551
908.40 83.51976
908.50 81.78508
908.60 80.3895
908.70 80.18842
908.80 79.96612
908.90 80.05643
909.00 81.05863
909.10 81.97115
909.20 81.83879
909.30 82.04387
909.40 83.22096
909.50 84.43256
909.60 85.41765
909.70 86.43595
909.80 87.08152
909.90 87.90641
910.00 88.863
910.10 89.07438
910.20 89.16734
910.30 88.49951
910.40 87.94337
910.50 87.17483
910.60 86.67296
910.70 86.21131
910.80 84.31078
910.90 82.70145
911.00 84.4982
911.10 86.87961
911.20 88.97443
911.30 90.87969
911.40 92.18347
911.50 91.98807
911.60 91.54087
911.70 90.60071
911.80 89.93707
911.90 89.7665
912.00 89.15625
912.10 89.16413
912.20 89.61423
912.30 89.73497
912.40 89.30197
912.50 88.94578
912.60 88.44535
912.70 87.92185
912.80 87.57207
912.90 87.1335
913.00 86.9282
913.10 88.318
913.20 89.92714
913.30 91.62786
913.40 92.95271
913.50 94.06742
913.60 95.73994
913.70 96.65938
913.80 95.04711
913.90 93.30266
914.00 89.99964
914.10 86.2562
914.20 84.3227
914.30 83.80636
914.40 84.41954
914.50 87.35234
914.60 90.16692
914.70 92.04118
914.80 93.75979
914.90 92.70274
915.00 90.67883
915.10 88.96912
915.20 88.23805
915.30 88.12937
915.40 90.08455
915.50 91.93641
915.60 95.84488
915.70 100.8853
915.80 103.5412
915.90 102.4407
916.00 101.0745
916.10 99.08185
916.20 97.1419
916.30 95.05285
916.40 93.23784
916.50 93.4041
916.60 94.63771
916.70 95.96789
916.80 97.99526
916.90 100.0333
917.00 100.108
917.10 99.6349
917.20 98.89907
917.30 98.61375
917.40 98.07064
917.50 96.70359
917.60 95.50411
917.70 95.56203
917.80 95.72062
917.90 96.2243
918.00 96.90622
918.10 97.84186
918.20 98.60785
918.30 99.19896
918.40 98.96842
918.50 98.71549
918.60 97.21311
918.70 95.40274
918.80 95.72126
918.90 99.93268
919.00 104.4608
919.10 108.0099
919.20 111.2782
919.30 109.1463
919.40 106.3942
919.50 103.1386
919.60 100.5615
919.70 99.29289
919.80 101.4558
919.90 103.6498
920.00 105.0653
920.10 106.0379
920.20 105.5618
920.30 104.8742
920.40 104.582
920.50 104.2782
920.60 103.9158
920.70 102.046
920.80 99.9511
920.90 95.81914
921.00 91.47264
921.10 88.80637
921.20 87.77406
921.30 86.89096
921.40 89.23629
921.50 92.20168
921.60 93.71298
921.70 94.32848
921.80 94.83461
921.90 94.85979
922.00 94.76197
922.10 93.21283
922.20 91.46731
922.30 90.4012
922.40 89.76355
922.50 89.05293
922.60 88.03188
922.70 87.35923
922.80 87.80849
922.90 88.2272
923.00 88.46838
923.10 89.10396
923.20 87.9574
923.30 85.62388
923.40 84.21316
923.50 83.23151
923.60 82.20207
923.70 83.17885
923.80 84.78092
923.90 85.47458
924.00 85.72548
924.10 86.52066
924.20 88.45319
924.30 90.29453
924.40 91.97218
924.50 93.52301
924.60 92.18761
924.70 89.84068
924.80 87.49172
924.90 86.16571
925.00 85.19228
925.10 85.07729
925.20 84.83189
925.30 84.59277
925.40 84.53842
925.50 85.12933
925.60 86.13678
925.70 87.49054
925.80 90.5889
925.90 93.77967
926.00 93.90944
926.10 93.85802
926.20 92.96307
926.30 91.04862
926.40 89.7523
926.50 90.49992
926.60 91.35526
926.70 93.8799
926.80 96.30689
926.90 96.93904
927.00 96.98121
927.10 96.64605
927.20 95.69787
927.30 94.67816
927.40 92.95484
927.50 91.20487
927.60 89.01474
927.70 86.31753
927.80 83.61792
927.90 81.50447
928.00 80.07365
928.10 81.95109
928.20 84.01061
928.30 85.58559
928.40 86.75447
928.50 88.28848
928.60 90.18935
928.70 91.21972
928.80 89.62816
928.90 88.0135
929.00 87.58961
929.10 87.1436
929.20 86.31506
929.30 85.45634
929.40 85.01599
929.50 85.84275
929.60 86.70012
929.70 87.12907
929.80 87.2619
929.90 85.49774
930.00 82.74623
930.10 80.21183
930.20 79.78354
930.30 79.58504
930.40 80.72528
930.50 81.67323
930.60 81.52744
930.70 80.81229
930.80 80.48597
930.90 81.02667
931.00 81.72546
931.10 83.59069
931.20 85.45496
931.30 87.405
931.40 89.50852
931.50 90.31223
931.60 89.47965
931.70 88.66293
931.80 87.24954
931.90 85.89581
932.00 84.46438
932.10 83.80638
932.20 83.61748
932.30 84.70931
932.40 85.81736
932.50 87.06704
932.60 88.05619
932.70 87.84821
932.80 87.12629
932.90 86.93366
933.00 87.0397
933.10 87.06991
933.20 87.12936
933.30 87.19173
933.40 86.16702
933.50 84.65345
933.60 84.25432
933.70 85.86178
933.80 87.48312
933.90 87.65418
934.00 87.80052
934.10 88.96189
934.20 89.99914
934.30 88.84499
934.40 86.55085
934.50 85.76649
934.60 88.09613
934.70 90.42238
934.80 90.8569
934.90 91.05011
935.00 91.7442
935.10 89.8827
935.20 88.02067
935.30 86.93723
935.40 86.59364
935.50 86.23994
935.60 86.28951
935.70 86.44115
935.80 86.50566
935.90 87.23725
936.00 88.00135
936.10 89.13341
936.20 90.86512
936.30 92.61233
936.40 93.042
936.50 92.42293
936.60 91.74639
936.70 90.38646
936.80 89.06117
936.90 87.90832
937.00 86.61605
937.10 85.32416
937.20 83.92629
937.30 82.76934
937.40 81.58343
937.50 82.99012
937.60 84.89418
937.70 86.6068
937.80 87.17588
937.90 87.7205
938.00 88.03603
938.10 87.93856
938.20 87.84834
938.30 87.75467
938.40 87.73301
938.50 87.70679
938.60 88.46076
938.70 89.23337
938.80 89.9097
938.90 90.52541
939.00 91.14123
939.10 91.4848
939.20 91.55588
939.30 91.63712
939.40 91.60337
939.50 91.46702
939.60 91.3219
939.70 89.87602
939.80 88.33427
939.90 87.13106
940.00 87.25575
940.10 87.37228
940.20 87.79904
940.30 88.31144
940.40 88.84324
940.50 89.77175
940.60 90.856
940.70 92.01778
940.80 93.66722
940.90 95.31799
941.00 96.31054
941.10 96.32657
941.20 96.37439
941.30 95.69372
941.40 94.66166
941.50 93.60471
941.60 91.93243
941.70 90.22464
941.80 88.97576
941.90 89.10332
942.00 89.2361
942.10 89.73462
942.20 90.63937
942.30 91.54267
942.40 92.30684
942.50 92.93267
942.60 93.39014
942.70 92.77812
942.80 92.1659
942.90 91.87974
943.00 92.58362
943.10 93.25804
943.20 94.63302
943.30 96.13394
943.40 97.67216
943.50 98.20375
943.60 98.61489
943.70 98.43607
943.80 96.81796
943.90 95.20093
944.00 94.06239
944.10 93.12245
944.20 92.16757
944.30 91.36049
944.40 90.73697
944.50 90.2241
944.60 90.58826
944.70 90.95326
944.80 91.62869
944.90 92.64967
945.00 93.66742
945.10 93.82438
945.20 93.77729
945.30 93.802
945.40 93.71683
945.50 93.53349
945.60 93.34404
945.70 93.45027
945.80 93.56324
945.90 93.54349
946.00 93.23841
946.10 92.90166
946.20 93.96781
946.30 95.46058
946.40 96.79061
946.50 96.7256
946.60 96.65632
946.70 96.92
946.80 97.48574
946.90 98.04349
947.00 98.03239
947.10 97.89504
947.20 97.82484
947.30 98.30042
947.40 98.75222
947.50 99.1741
947.60 99.82544
947.70 100.4772
947.80 101.5161
947.90 102.6757
948.00 103.8247
948.10 103.7488
948.20 103.5962
948.30 103.5319
948.40 103.9636
948.50 104.3956
948.60 105.073
948.70 105.7118
948.80 106.3622
948.90 106.5757
949.00 106.7828
949.10 106.9699
949.20 107.1774
949.30 107.3667
949.40 107.0845
949.50 105.0204
949.60 102.9568
949.70 102.79
949.80 104.269
949.90 105.6914
950.00 105.6213
950.10 105.3397
950.20 105.1648
950.30 105.6877
950.40 106.208
950.50 106.351
950.60 105.5531
950.70 104.7384
950.80 104.7059
950.90 105.13
951.00 105.5423
951.10 105.968
951.20 106.3723
951.30 106.2652
951.40 104.659
951.50 103.0538
951.60 102.1054
951.70 101.6564
951.80 101.2093
951.90 101.1408
952.00 101.1433
952.10 101.1663
952.20 102.2286
952.30 103.2918
952.40 104.4531
952.50 106.0358
952.60 107.6222
952.70 108.5572
952.80 109.0936
952.90 109.6823
953.00 109.6831
953.10 109.5836
953.20 109.3125
953.30 108.6181
953.40 107.9239
953.50 106.9254
953.60 105.5305
953.70 104.1371
953.80 103.7341
953.90 103.691
954.00 103.7281
954.10 103.7714
954.20 103.8172
954.30 103.9338
954.40 104.2167
954.50 104.5197
954.60 105.1008
954.70 105.8601
954.80 106.5576
954.90 106.5149
955.00 106.4294
955.10 106.4556
955.20 106.8022
955.30 107.1553
955.40 107.4122
955.50 107.6416
955.60 107.8626
955.70 108.4472
955.80 109.1768
955.90 109.9656
956.00 110.6538
956.10 111.3411
956.20 111.6713
956.30 111.0726
956.40 110.4923
956.50 109.3798
956.60 108.208
956.70 107.037
956.80 108.187
956.90 109.4709
957.00 110.7613
957.10 111.7851
957.20 112.8027
957.30 112.7565
957.40 111.7763
957.50 110.8315
957.60 109.1168
957.70 107.2865
957.80 105.7074
957.90 105.6373
958.00 105.5687
958.10 105.514
958.20 105.8705
958.30 106.2458
958.40 106.3045
958.50 106.1924
958.60 106.069
958.70 104.7127
958.80 103.2754
958.90 101.8833
959.00 100.1472
959.10 98.40032
959.20 97.85333
959.30 98.55697
959.40 99.22445
959.50 99.71113
959.60 100.1488
959.70 100.4267
959.80 98.24014
959.90 96.05055
960.00 94.76021
960.10 94.70551
960.20 94.57156
960.30 96.49234
960.40 99.40184
960.50 102.1781
960.60 103.2567
960.70 104.2801
960.80 105.2411
960.90 105.6267
961.00 106.0292
961.10 106.0431
961.20 105.7279
961.30 105.4255
961.40 103.8819
961.50 102.184
961.60 100.9582
961.70 101.9651
961.80 102.9631
961.90 104.2461
962.00 106.2562
962.10 108.288
962.20 108.8146
962.30 108.7116
962.40 108.7215
962.50 109.0051
962.60 109.2856
962.70 109.5324
962.80 109.9284
962.90 110.3341
963.00 109.2253
963.10 107.2413
963.20 105.2782
963.30 104.5138
963.40 103.7461
963.50 102.7209
963.60 100.5308
963.70 98.36306
963.80 95.4259
963.90 91.26437
964.00 86.99505
964.10 87.63288
964.20 90.03555
964.30 92.18983
964.40 95.7639
964.50 99.33477
964.60 101.7737
964.70 101.3567
964.80 100.9606
964.90 101.0433
965.00 101.3422
965.10 101.5791
965.20 101.1759
965.30 100.7426
965.40 100.5144
965.50 101.0014
965.60 101.4943
965.70 102.5477
965.80 104.1894
965.90 105.828
966.00 107.1817
966.10 108.4524
966.20 109.6635
966.30 110.0998
966.40 110.536
966.50 110.8076
966.60 110.6034
966.70 110.419
966.80 110.0803
966.90 109.6944
967.00 109.2531
967.10 108.776
967.20 108.2998
967.30 107.8042
967.40 106.8195
967.50 105.8603
967.60 104.3659
967.70 102.1864
967.80 99.87313
967.90 100.9203
968.00 102.8566
968.10 104.5813
968.20 106.5469
968.30 108.5181
968.40 109.4074
968.50 108.0718
968.60 106.7559
968.70 105.4188
968.80 104.0057
968.90 102.6489
969.00 102.9213
969.10 103.2853
969.20 103.9533
969.30 106.1285
969.40 108.2917
969.50 109.7214
969.60 110.6227
969.70 111.5905
969.80 112.4698
969.90 113.2538
970.00 113.7899
970.10 113.1712
970.20 112.5574
970.30 111.9837
970.40 111.2294
970.50 110.5577
970.60 108.2096
970.70 105.1649
970.80 102.095
970.90 103.9708
971.00 105.9298
971.10 108.0917
971.20 111.5365
971.30 115.0151
971.40 116.8028
971.50 117.4056
971.60 118.0687
971.70 118.9149
971.80 119.7012
971.90 120.2392
972.00 119.2583
972.10 118.276
972.20 117.0623
972.30 115.6414
972.40 114.178
972.50 113.539
972.60 113.1736
972.70 112.7913
972.80 110.4014
972.90 108.0061
973.00 105.7303
973.10 103.4325
973.20 101.0272
973.30 101.8617
973.40 104.6887
973.50 107.5217
973.60 107.8025
973.70 107.9308
973.80 108.244
973.90 108.6655
974.00 109.0856
974.10 108.608
974.20 107.2918
974.30 106.0443
974.40 104.3267
974.50 102.437
974.60 100.7314
974.70 101.5965
974.80 102.452
974.90 103.4755
975.00 105.0605
975.10 106.6865
975.20 108.007
975.30 109.1533
975.40 110.278
975.50 110.0044
975.60 109.7239
975.70 109.8761
975.80 110.8172
975.90 111.7375
976.00 112.1046
976.10 112.1036
976.20 112.1633
976.30 112.1607
976.40 112.1256
976.50 112.114
976.60 112.9269
976.70 113.7478
976.80 114.0088
976.90 113.436
977.00 112.9319
977.10 111.6764
977.20 110.042
977.30 108.3464
977.40 109.715
977.50 111.0929
977.60 112.326
977.70 113.6733
977.80 115.0541
977.90 115.4249
978.00 115.0553
978.10 114.7828
978.20 112.2686
978.30 109.5193
978.40 107.1732
978.50 105.681
978.60 104.1384
978.70 103.4682
978.80 104.042
978.90 104.5752
979.00 105.9146
979.10 107.4899
979.20 109.0683
979.30 112.2614
979.40 115.4593
979.50 117.9811
979.60 119.1541
979.70 120.3952
979.80 120.5301
979.90 120.0712
980.00 119.5663
980.10 119.6777
980.20 119.8047
980.30 119.8207
980.40 119.4571
980.50 119.0963
980.60 118.4757
980.70 117.6208
980.80 116.7658
980.90 116.812
981.00 117.0329
981.10 117.3122
981.20 118.2929
981.30 119.2811
981.40 119.0806
981.50 117.1758
981.60 115.2955
981.70 114.4549
981.80 114.0167
981.90 113.4583
982.00 113.8268
982.10 114.1951
982.20 114.4028
982.30 114.0452
982.40 113.6806
982.50 114.0582
982.60 114.9311
982.70 115.7846
982.80 115.8663
982.90 115.8717
983.00 115.9285
983.10 115.8232
983.20 115.7113
983.30 115.4394
983.40 115.0529
983.50 114.676
983.60 114.0652
983.70 113.3739
983.80 112.7826
983.90 113.4587
984.00 114.1297
984.10 114.7858
984.20 115.5601
984.30 116.3501
984.40 116.7516
984.50 116.9298
984.60 117.1075
984.70 117.468
984.80 117.8543
984.90 117.9124
985.00 116.9588
985.10 116.0267
985.20 115.0435
985.30 113.9589
985.40 112.8243
985.50 113.8278
985.60 115.2432
985.70 116.6216
985.80 117.9904
985.90 119.3681
986.00 119.9604
986.10 119.4433
986.20 118.9217
986.30 118.8813
986.40 119.0214
986.50 119.1164
986.60 119.127
986.70 119.1392
986.80 118.6382
986.90 116.7892
987.00 114.9343
987.10 114.6375
987.20 115.3322
987.30 115.9137
987.40 118.5214
987.50 121.3365
987.60 123.5274
987.70 123.0027
987.80 122.5039
987.90 121.1942
988.00 118.9734
988.10 116.7339
988.20 117.0029
988.30 117.9105
988.40 118.8705
988.50 121.3594
988.60 123.8524
988.70 125.1648
988.80 124.5642
988.90 123.9922
989.00 123.0193
989.10 121.8357
989.20 120.6642
989.30 118.903
989.40 117.1264
989.50 114.5418
989.60 109.558
989.70 104.6335
989.80 99.86786
989.90 95.11803
990.00 90.21357
990.10 88.5988
990.20 87.51252
990.30 86.06777
990.40 82.75892
990.50 79.46668
990.60 76.09549
990.70 72.53892
990.80 68.92548
990.90 68.13068
991.00 68.26772
991.10 68.33316
991.20 69.36551
991.30 70.40657
991.40 70.50505
991.50 68.59239
991.60 66.67856
991.70 65.88724
991.80 65.72716
991.90 65.418
992.00 68.32466
992.10 71.42561
992.20 73.71014
992.30 72.96275
992.40 72.26112
992.50 71.00865
992.60 69.16244
992.70 67.1791
992.80 69.57758
992.90 72.91369
993.00 76.18305
993.10 79.44531
993.20 82.73315
993.30 84.06622
993.40 82.51512
993.50 80.98887
993.60 81.19304
993.70 82.09347
993.80 82.90747
993.90 87.0355
994.00 91.16802
994.10 94.1778
994.20 94.57042
994.30 95.03055
994.40 94.68186
994.50 93.74359
994.60 92.7832
994.70 93.52215
994.80 94.44205
994.90 95.54091
995.00 97.79361
995.10 100.0514
995.20 101.8489
995.30 103.1463
995.40 104.4545
995.50 104.2832
995.60 103.7272
995.70 103.1249
995.80 100.6621
995.90 98.18601
996.00 96.40656
996.10 95.82189
996.20 95.18245
996.30 96.8557
996.40 99.60741
996.50 102.2671
996.60 105.6863
996.70 109.0994
996.80 110.1897
996.90 104.8425
997.00 99.58482
997.10 94.11293
997.20 88.3986
997.30 82.55621
997.40 82.08159
997.50 82.35678
997.60 82.98387
997.70 86.24924
997.80 89.51058
997.90 92.18362
998.00 94.20251
998.10 96.23704
998.20 96.6934
998.30 96.67055
998.40 96.63928
998.50 94.03655
998.60 91.42523
998.70 89.76061
998.80 89.78092
998.90 89.75032
999.00 89.52365
999.10 89.24921
999.20 89.0086
999.30 89.01739
999.40 89.03535
999.50 89.03928
999.60 89.1412
999.70 89.28199
999.80 89.83989
999.90 90.76148
1000.00 91.56813
1000.10 95.12004
1000.20 99.01781
1000.30 102.5884
1000.40 104.4645
1000.50 106.3669
1000.60 107.0105
1000.70 106.0625
1000.80 105.1934
1000.90 102.3549
1001.00 98.95529
1001.10 95.68135
1001.20 94.80347
1001.30 93.90483
1001.40 94.11454
1001.50 96.43778
1001.60 98.74177
1001.70 101.5126
1001.80 104.5629
1001.90 107.7355
1002.00 106.453
1002.10 104.9936
1002.20 103.9103
1002.30 103.8306
1002.40 103.6957
1002.50 104.3705
1002.60 105.6386
1002.70 106.9492
1002.80 106.1947
1002.90 105.1921
1003.00 104.4048
1003.10 103.9187
1003.20 103.4247
1003.30 102.4052
1003.40 100.857
1003.50 99.33033
1003.60 97.1634
1003.70 94.77662
1003.80 92.5815
1003.90 94.20138
1004.00 95.80495
1004.10 98.21669
1004.20 102.3249
1004.30 106.433
1004.40 108.7196
1004.50 109.9907
1004.60 111.3998
1004.70 110.4623
1004.80 109.4581
1004.90 107.6261
1005.00 103.2579
1005.10 98.9222
1005.20 94.21691
1005.30 89.1989
1005.40 84.12468
1005.50 82.32933
1005.60 81.07671
1005.70 80.3877
1005.80 83.18802
1005.90 85.97028
1006.00 88.76648
1006.10 91.65332
1006.20 94.59799
1006.30 94.24701
1006.40 92.84504
1006.50 91.61929
1006.60 93.85852
1006.70 96.0865
1006.80 98.97268
1006.90 103.1148
1007.00 107.3065
1007.10 107.7976
1007.20 106.4074
1007.30 105.1206
1007.40 104.8532
1007.50 104.6379
1007.60 105.0927
1007.70 107.7803
1007.80 110.4696
1007.90 111.8554
1008.00 112.2487
1008.10 112.695
1008.20 112.7771
1008.30 112.7889
1008.40 113.014
1008.50 114.5091
1008.60 115.9977
1008.70 115.9961
1008.80 114.2077
1008.90 112.5141
1009.00 109.7589
1009.10 106.7356
1009.20 103.8317
1009.30 103.0801
1009.40 102.3132
1009.50 102.849
1009.60 105.9072
1009.70 108.9549
1009.80 112.6021
1009.90 116.5291
1010.00 120.448
1010.10 123.8064
1010.20 127.1169
1010.30 129.2019
1010.40 127.7838
1010.50 126.4207
1010.60 124.8101
1010.70 123.005
1010.80 121.2151
1010.90 118.7127
1011.00 116.0413
1011.10 113.3161
1011.20 110.4871
1011.30 107.6407
1011.40 105.6546
1011.50 104.6433
1011.60 103.6201
1011.70 102.2957
1011.80 100.901
1011.90 99.71214
1012.00 102.4741
1012.10 105.2138
1012.20 108.8904
1012.30 114.4473
1012.40 120.0606
1012.50 122.832
1012.60 124.0743
1012.70 125.4531
1012.80 124.4383
1012.90 123.4386
1013.00 122.6206
1013.10 122.387
1013.20 122.1777
1013.30 120.3537
1013.40 117.1547
1013.50 114.078
1013.60 108.5569
1013.70 102.7595
1013.80 97.77752
1013.90 97.1345
1014.00 96.44312
1014.10 97.51242
1014.20 100.8062
1014.30 104.0626
1014.40 106.561
1014.50 108.8118
1014.60 110.9064
1014.70 108.4401
1014.80 105.9726
1014.90 105.0315
1015.00 106.839
1015.10 108.5091
1015.20 111.2346
1015.30 114.4307
1015.40 117.8016
1015.50 115.5474
1015.60 113.122
1015.70 110.6164
1015.80 107.4106
1015.90 104.1499
1016.00 103.1965
1016.10 104.0968
1016.20 104.8997
1016.30 106.367
1016.40 107.9205
1016.50 109.4979
1016.60 110.8539
1016.70 112.1935
1016.80 113.2445
1016.90 113.9346
1017.00 114.7239
1017.10 112.8524
1017.20 110.2235
1017.30 107.9273
1017.40 111.5184
1017.50 115.0945
1017.60 118.4242
1017.70 121.3712
1017.80 124.464
1017.90 122.5101
1018.00 118.0604
1018.10 113.6497
1018.20 111.2409
1018.30 108.8627
1018.40 106.6118
1018.50 105.175
1018.60 103.7321
1018.70 103.2736
1018.80 103.5779
1018.90 103.7485
1019.00 106.656
1019.10 109.9696
1019.20 112.9078
1019.30 113.5049
1019.40 114.1371
1019.50 114.3728
1019.60 114.1708
1019.70 113.9372
1019.80 114.3221
1019.90 114.8792
1020.00 115.3907
1020.10 114.744
1020.20 114.0846
1020.30 113.7896
1020.40 114.1345
1020.50 114.4627
1020.60 115.4776
1020.70 116.888
1020.80 118.3216
1020.90 117.8311
1021.00 117.2348
1021.10 116.3275
1021.20 114.6321
1021.30 112.9873
1021.40 110.7275
1021.50 107.9225
1021.60 105.0701
1021.70 102.8572
1021.80 100.713
1021.90 98.74508
1022.00 97.75586
1022.10 96.74512
1022.20 97.40242
1022.30 99.7509
1022.40 101.9652
1022.50 105.3085
1022.60 108.7358
1022.70 111.8528
1022.80 111.9431
1022.90 112.0441
1023.00 111.3439
1023.10 109.4692
1023.20 107.6265
1023.30 107.2007
1023.40 107.532
1023.50 107.9424
1023.60 110.6627
1023.70 113.4027
1023.80 115.5922
1023.90 116.9313
1024.00 118.3043
1024.10 120.1652
1024.20 122.1968
1024.30 124.1914
1024.40 123.24
1024.50 121.984
1024.60 120.5013
1024.70 117.8915
1024.80 115.2458
1024.90 113.4272
1025.00 112.3894
1025.10 111.3936
1025.20 108.7434
1025.30 105.7523
1025.40 103.2585
1025.50 104.7925
1025.60 106.2941
1025.70 107.0815
1025.80 106.7046
1025.90 106.4818
1026.00 103.0437
1026.10 98.57466
1026.20 94.31823
1026.30 93.26891
1026.40 92.32351
1026.50 92.64251
1026.60 96.10029
1026.70 99.47871
1026.80 103.9375
1026.90 108.7994
1027.00 113.7906
1027.10 114.3893
1027.20 114.6601
1027.30 114.399
1027.40 112.3434
1027.50 110.2965
1027.60 108.2205
1027.70 106.2105
1027.80 104.1271
1027.90 103.3845
1028.00 102.7789
1028.10 101.988
1028.20 99.96468
1028.30 97.94661
1028.40 96.74613
1028.50 96.61059
1028.60 96.30997
1028.70 100.6698
1028.80 106.4136
1028.90 111.8408
1029.00 113.1607
1029.10 114.5382
1029.20 114.5212
1029.30 111.7433
1029.40 108.9455
1029.50 108.4853
1029.60 108.906
1029.70 109.1898
1029.80 109.0078
1029.90 108.8461
1030.00 108.3906
1030.10 106.722
1030.20 105.0455
1030.30 104.8772
1030.40 105.7978
1030.50 106.5884
1030.60 110.5934
1030.70 114.8531
1030.80 117.9281
1030.90 116.0562
1031.00 114.2164
1031.10 113.3027
1031.20 113.4325
1031.30 113.4574
1031.40 114.8676
1031.50 116.4196
1031.60 117.4554
1031.70 114.3145
1031.80 111.1907
1031.90 108.76
1032.00 107.3923
1032.10 105.9395
1032.20 105.7318
1032.30 105.9212
1032.40 106.0346
1032.50 104.3717
1032.60 102.6671
1032.70 103.014
1032.80 107.8042
1032.90 112.5392
1033.00 117.2303
1033.10 121.8295
1033.20 126.5171
1033.30 126.9748
1033.40 127.0117
1033.50 125.8438
1033.60 120.5496
1033.70 115.2923
1033.80 111.0464
1033.90 107.7212
1034.00 104.2557
1034.10 104.9579
1034.20 106.5336
1034.30 107.827
1034.40 107.0141
1034.50 106.201
1034.60 106.2344
1034.70 107.5128
1034.80 108.6503
1034.90 109.9238
1035.00 110.8963
1035.10 111.4698
1035.20 110.0747
1035.30 108.7019
1035.40 108.4503
1035.50 109.502
1035.60 110.5479
1035.70 111.8389
1035.80 113.3029
1035.90 114.8401
1036.00 117.4783
1036.10 120.1348
1036.20 122.2903
1036.30 123.5807
1036.40 124.9243
1036.50 125.0871
1036.60 124.4652
1036.70 123.8329
1036.80 124.6174
1036.90 125.6018
1037.00 126.9942
1037.10 129.8422
1037.20 132.6875
1037.30 134.6575
1037.40 135.7216
1037.50 136.8721
1037.60 133.8123
1037.70 129.808
1037.80 125.6057
1037.90 119.9143
1038.00 114.2135
1038.10 109.9314
1038.20 107.8587
1038.30 105.6255
1038.40 107.8715
1038.50 111.7567
1038.60 115.5552
1038.70 118.3066
1038.80 120.9651
1038.90 122.2423
1039.00 120.5594
1039.10 118.8978
1039.20 117.6294
1039.30 116.6382
1039.40 115.6495
1039.50 114.5587
1039.60 113.4647
1039.70 112.7893
1039.80 113.5491
1039.90 114.2534
1040.00 115.7828
1040.10 118.0726
1040.20 120.2989
1040.30 122.461
1040.40 124.2914
1040.50 125.7944
1040.60 126.4614
1040.70 127.1417
1040.80 127.8028
1040.90 128.3238
1041.00 128.8939
1041.10 126.0209
1041.20 122.43
1041.30 118.9535
1041.40 116.3972
1041.50 113.8045
1041.60 114.0969
1041.70 118.4976
1041.80 122.7849
1041.90 126.9154
1042.00 130.6541
1042.10 134.0354
1042.20 130.7077
1042.30 127.1942
1042.40 123.7464
1042.50 120.116
1042.60 116.5083
1042.70 112.4704
1042.80 108.2774
1042.90 103.976
1043.00 105.4276
1043.10 107.4083
1043.20 110.5238
1043.30 117.8147
1043.40 125.1438
1043.50 129.5911
1043.60 131.15
1043.70 132.8627
1043.80 132.2214
1043.90 131.3221
1044.00 130.6003
1044.10 131.0217
1044.20 131.443
1044.30 131.3809
1044.40 130.6761
1044.50 129.9981
1044.60 129.6007
1044.70 129.3956
1044.80 129.2531
1044.90 130.2264
1045.00 131.2481
1045.10 133.8128
1045.20 138.696
1045.30 143.6042
1045.40 146.8198
1045.50 149.0722
1045.60 151.145
1045.70 149.9583
1045.80 148.4961
1045.90 145.6617
1046.00 139.7527
1046.10 133.8446
1046.20 129.135
1046.30 125.4573
1046.40 121.7101
1046.50 120.59
1046.60 119.5762
1046.70 118.4534
1046.80 116.4823
1046.90 114.508
1047.00 112.8075
1047.10 111.5979
1047.20 110.3021
1047.30 111.2109
1047.40 112.4531
1047.50 113.6238
1047.60 114.6724
1047.70 115.7282
1047.80 115.8888
1047.90 114.7985
1048.00 113.7294
1048.10 113.9295
1048.20 114.7693
1048.30 115.9249
1048.40 118.6228
1048.50 121.3113
1048.60 122.9377
1048.70 123.0582
1048.80 123.2112
1048.90 123.1065
1049.00 123.0169
1049.10 123.0092
1049.20 123.8664
1049.30 124.7488
1049.40 125.2827
1049.50 124.9932
1049.60 124.7908
1049.70 122.595
1049.80 119.1455
1049.90 115.5265
1050.00 116.2581
1050.10 117.3293
1050.20 118.4061
1050.30 120.0424
1050.40 121.7428
1050.50 122.1312
1050.60 121.2115
1050.70 120.3086
1050.80 119.5657
1050.90 118.8997
1051.00 118.1208
1051.10 116.7514
1051.20 115.4312
1051.30 113.4584
1051.40 110.591
1051.50 107.6573
1051.60 107.6845
1051.70 108.8134
1051.80 109.7545
1051.90 110.0137
1052.00 110.249
1052.10 110.5824
1052.20 111.1595
1052.30 111.7127
1052.40 113.3875
1052.50 115.4225
1052.60 117.4355
1052.70 120.2438
1052.80 123.0686
1052.90 124.7291
1053.00 123.4833
1053.10 122.3081
1053.20 120.883
1053.30 119.5007
1053.40 118.0237
1053.50 119.15
1053.60 120.4231
1053.70 121.3744
1053.80 121.1786
1053.90 121.0193
1054.00 120.3092
1054.10 119.1863
1054.20 117.9653
1054.30 118.8492
1054.40 119.9946
1054.50 120.5871
1054.60 117.6274
1054.70 114.6963
1054.80 112.5771
1054.90 111.7157
1055.00 110.7373
1055.10 113.191
1055.20 116.7479
1055.30 119.8318
1055.40 119.4649
1055.50 118.9472
1055.60 117.3574
1055.70 114.2214
1055.80 111.1049
1055.90 109.1684
1056.00 107.9513
1056.10 106.7518
1056.20 105.9055
1056.30 105.0019
1056.40 104.4764
1056.50 105.0654
1056.60 105.6321
1056.70 106.6771
1056.80 108.0415
1056.90 109.4688
1057.00 109.3373
1057.10 108.994
1057.20 109.0185
1057.30 110.8185
1057.40 112.6004
1057.50 114.109
1057.60 115.3918
1057.70 116.7184
1057.80 116.4701
1057.90 115.8616
1058.00 115.3782
1058.10 115.958
1058.20 116.5358
1058.30 116.589
1058.40 115.8126
1058.50 115.1343
1058.60 113.4521
1058.70 111.6546
1058.80 109.9555
1058.90 109.0704
1059.00 108.1739
1059.10 107.581
1059.20 107.6278
1059.30 107.6764
1059.40 108.6901
1059.50 110.0827
1059.60 111.4167
1059.70 112.8261
1059.80 114.2919
1059.90 115.0596
1060.00 113.9614
1060.10 112.8639
1060.20 112.1703
1060.30 111.5807
1060.40 110.9883
1060.50 109.3937
1060.60 107.6585
1060.70 105.9338
1060.80 105.174
1060.90 104.3937
1061.00 104.6432
1061.10 105.7372
1061.20 106.7417
1061.30 109.1676
1061.40 111.8729
1061.50 114.3749
1061.60 115.0735
1061.70 115.8061
1061.80 115.5682
1061.90 114.4494
1062.00 113.3231
1062.10 112.0264
1062.20 110.8653
1062.30 110.0785
1062.40 111.3823
1062.50 112.717
1062.60 114.5994
1062.70 117.4843
1062.80 120.3616
1062.90 122.4698
1063.00 124.0774
1063.10 125.5595
1063.20 124.2637
1063.30 122.8465
1063.40 121.7354
1063.50 121.0586
1063.60 120.3301
1063.70 120.7852
1063.80 122.2775
1063.90 123.7188
1064.00 125.1125
1064.10 126.3697
1064.20 127.3143
1064.30 127.2408
1064.40 127.1861
1064.50 126.8005
1064.60 125.9926
1064.70 125.1804
1064.80 125.4947
1064.90 126.0684
1065.00 126.5715
1065.10 126.1981
1065.20 125.8531
1065.30 124.2967
1065.40 121.793
1065.50 119.3203
1065.60 117.358
1065.70 115.411
1065.80 113.6202
1065.90 113.7344
1066.00 113.9447
1066.10 113.6416
1066.20 112.3962
1066.30 111.2262
1066.40 109.6397
1066.50 108.003
1066.60 106.4266
1066.70 107.2985
1066.80 108.2858
1066.90 108.85
1067.00 108.7272
1067.10 108.6132
1067.20 109.4699
1067.30 110.8753
1067.40 112.3359
1067.50 115.4332
1067.60 118.5524
1067.70 121.0822
1067.80 122.5247
1067.90 123.9836
1068.00 124.8282
1068.10 125.0895
1068.20 125.3575
1068.30 128.2163
1068.40 131.2767
1068.50 133.8773
1068.60 135.0977
1068.70 136.3342
1068.80 136.1667
1068.90 134.6528
1069.00 133.1592
1069.10 132.6259
1069.20 132.4855
1069.30 132.2019
1069.40 130.4944
1069.50 128.71
1069.60 126.1601
1069.70 122.7336
1069.80 119.257
1069.90 119.1106
1070.00 120.4016
1070.10 121.4575
1070.20 120.7954
1070.30 120.0468
1070.40 119.9455
1070.50 120.7721
1070.60 121.5352
1070.70 123.3324
1070.80 125.3087
1070.90 127.0414
1071.00 125.9179
1071.10 124.7442
1071.20 124.0721
1071.30 124.6955
1071.40 125.2594
1071.50 126.8071
1071.60 128.8138
1071.70 130.9367
1071.80 130.6257
1071.90 130.113
1072.00 129.7683
1072.10 129.7985
1072.20 129.8356
1072.30 128.6597
1072.40 126.1835
1072.50 123.7832
1072.60 122.979
1072.70 122.8529
1072.80 123.3263
1072.90 125.8751
1073.00 128.4446
1073.10 129.7457
1073.20 129.5231
1073.30 129.3829
1073.40 127.1892
1073.50 124.8442
1073.60 122.9237
1073.70 123.3411
1073.80 123.7887
1073.90 124.9049
1074.00 127.5054
1074.10 130.1093
1074.20 131.8772
1074.30 132.9486
1074.40 133.974
1074.50 133.9942
1074.60 134.0719
1074.70 134.3755
1074.80 134.5695
1074.90 134.7599
1075.00 133.712
1075.10 131.937
1075.20 130.2378
1075.30 127.8932
1075.40 125.5012
1075.50 123.8133
1075.60 125.2063
1075.70 126.5281
1075.80 128.9315
1075.90 131.6624
1076.00 134.4472
1076.10 134.4048
1076.20 134.1167
1076.30 133.7841
1076.40 133.4321
1076.50 133.0701
1076.60 132.88
1076.70 132.9203
1076.80 132.9638
1076.90 133.797
1077.00 134.6921
1077.10 135.3695
1077.20 134.6459
1077.30 133.8789
1077.40 132.8622
1077.50 131.5106
1077.60 130.2036
1077.70 129.5224
1077.80 129.219
1077.90 128.916
1078.00 130.3239
1078.10 131.809
1078.20 132.7253
1078.30 132.7384
1078.40 132.7772
1078.50 132.8132
1078.60 132.5877
1078.70 132.1947
1078.80 129.9232
1078.90 127.6348
1079.00 125.7444
1079.10 124.6692
1079.20 123.5744
1079.30 122.3416
1079.40 120.9427
1079.50 119.4795
1079.60 120.4909
1079.70 121.8641
1079.80 123.3046
1079.90 125.0361
1080.00 126.7715
1080.10 128.1678
1080.20 129.2622
1080.30 130.3782
1080.40 131.129
1080.50 131.7191
1080.60 132.3552
1080.70 133.0129
1080.80 133.6635
1080.90 134.2301
1081.00 134.9515
1081.10 135.6848
1081.20 135.6874
1081.30 135.3539
1081.40 135.0592
1081.50 135.4296
1081.60 135.8462
1081.70 136.9037
1081.80 138.9091
1081.90 140.9481
1082.00 140.6801
1082.10 139.2913
1082.20 137.9215
1082.30 136.2704
1082.40 134.662
1082.50 133.1707
1082.60 132.0598
1082.70 130.9243
1082.80 130.6868
1082.90 130.9903
1083.00 131.3356
1083.10 133.3039
1083.20 135.6864
1083.30 138.1686
1083.40 139.8308
1083.50 141.5189
1083.60 141.6816
1083.70 140.8227
1083.80 139.9689
1083.90 139.6239
1084.00 139.3684
1084.10 139.0918
1084.20 138.5751
1084.30 138.065
1084.40 137.318
1084.50 136.1201
1084.60 134.9785
1084.70 133.1919
1084.80 131.5564
1084.90 130.3236
1085.00 132.4137
1085.10 134.6209
1085.20 135.7697
1085.30 134.2365
1085.40 132.8025
1085.50 131.9955
1085.60 132.4372
1085.70 133.1631
1085.80 135.6251
1085.90 138.1075
1086.00 140.6008
1086.10 142.8363
1086.20 145.0825
1086.30 145.9741
1086.40 146.2518
1086.50 146.4631
1086.60 145.1564
1086.70 143.822
1086.80 143.0121
1086.90 143.155
1087.00 143.2306
1087.10 143.9757
1087.20 145.1225
1087.30 146.3518
1087.40 144.4876
1087.50 142.2525
1087.60 140.2617
1087.70 139.7377
1087.80 139.1334
1087.90 139.6063
1088.00 140.499
1088.10 141.4639
1088.20 140.2271
1088.30 138.8293
1088.40 137.796
1088.50 138.535
1088.60 139.242
1088.70 139.7472
1088.80 139.9467
1088.90 140.2368
1089.00 139.888
1089.10 139.4157
1089.20 138.9978
1089.30 138.4785
1089.40 137.9067
1089.50 137.466
1089.60 137.896
1089.70 138.2728
1089.80 140.4336
1089.90 143.1942
1090.00 145.7235
1090.10 146.8548
1090.20 147.8615
1090.30 148.4999
1090.40 148.7134
1090.50 148.9488
1090.60 147.9069
1090.70 146.0606
1090.80 144.1277
1090.90 141.2094
1091.00 138.3071
1091.10 136.0574
1091.20 135.5157
1091.30 134.8977
1091.40 135.8678
1091.50 137.9883
1091.60 140.0485
1091.70 142.6605
1091.80 145.2403
1091.90 147.4555
1092.00 147.2357
1092.10 147.0457
1092.20 146.5069
1092.30 145.6951
1092.40 144.8277
1092.50 144.4097
1092.60 144.0708
1092.70 143.8754
1092.80 144.0001
1092.90 144.1324
1093.00 144.034
1093.10 143.9541
1093.20 143.8788
1093.30 143.3593
1093.40 142.5807
1093.50 141.8307
1093.60 140.5836
1093.70 139.2722
1093.80 138.5893
1093.90 140.0987
1094.00 141.5206
1094.10 143.4252
1094.20 145.1388
1094.30 146.6927
1094.40 144.209
1094.50 141.3614
1094.60 138.7345
1094.70 136.6233
1094.80 134.4404
1094.90 135.7381
1095.00 138.9724
1095.10 142.1308
1095.20 145.3605
1095.30 148.6158
1095.40 151.2165
1095.50 151.6377
1095.60 152.1165
1095.70 151.4158
1095.80 150.0678
1095.90 148.7181
1096.00 149.4182
1096.10 150.3322
1096.20 151.1102
1096.30 151.4248
1096.40 151.7414
1096.50 151.5738
1096.60 150.9101
1096.70 150.3049
1096.80 147.9063
1096.90 144.9606
1097.00 141.8968
1097.10 138.6141
1097.20 135.3215
1097.30 134.1682
1097.40 135.5663
1097.50 136.8905
1097.60 138.616
1097.70 140.5198
1097.80 142.5009
1097.90 144.1479
1098.00 145.7349
1098.10 146.5284
1098.20 146.4848
1098.30 146.5333
1098.40 145.3949
1098.50 143.3841
1098.60 141.3656
1098.70 140.8836
1098.80 140.693
1098.90 140.7649
1099.00 141.3044
1099.10 141.8316
1099.20 142.8817
1099.30 144.251
1099.40 145.5834
1099.50 146.4936
1099.60 147.1845
1099.70 147.5513
1099.80 147.0965
1099.90 146.6345
1100.00 146.118
1100.10 145.7681
1100.20 145.4376
1100.30 144.2191
1100.40 142.826
1100.50 141.6247
1100.60 141.3381
1100.70 141.005
1100.80 141.3864
1100.90 142.3144
1101.00 143.2625
1101.10 143.8823
1101.20 144.63
1101.30 145.6993
1101.40 147.3729
1101.50 149.0329
1101.60 149.3113
1101.70 148.026
1101.80 146.8255
1101.90 144.3442
1102.00 141.5672
1102.10 138.8586
1102.20 136.6676
1102.30 134.4893
1102.40 133.3545
1102.50 134.4957
1102.60 135.4979
1102.70 138.4235
1102.80 141.749
1102.90 144.9711
1103.00 145.2854
1103.10 145.2839
1103.20 144.0487
1103.30 140.3583
1103.40 136.7332
1103.50 133.1341
1103.60 129.9691
1103.70 127.0108
1103.80 128.2671
1103.90 129.9536
1104.00 131.811
1104.10 133.331
1104.20 134.8521
1104.30 135.2979
1104.40 135.474
1104.50 135.6929
1104.60 136.682
1104.70 137.6161
1104.80 138.5738
1104.90 138.8116
1105.00 139.0368
1105.10 137.4612
1105.20 134.3405
1105.30 131.3388
1105.40 128.0746
1105.50 124.7354
1105.60 122.0343
1105.70 123.4919
1105.80 125.1753
1105.90 126.9029
1106.00 127.7103
1106.10 128.5765
1106.20 128.4667
1106.30 128.2422
1106.40 128.1796
1106.50 129.4728
1106.60 130.854
1106.70 131.3197
1106.80 129.9924
1106.90 128.7089
1107.00 127.1621
1107.10 125.7859
1107.20 124.5501
1107.30 126.1593
1107.40 127.9511
1107.50 129.4012
1107.60 129.4304
1107.70 129.531
1107.80 129.5821
1107.90 129.9615
1108.00 130.3428
1108.10 131.8574
1108.20 133.5309
1108.30 135.4525
1108.40 137.5539
1108.50 139.6688
1108.60 140.5703
1108.70 140.4432
1108.80 140.3961
1108.90 139.5463
1109.00 138.7655
1109.10 138.1109
1109.20 138.1981
1109.30 138.2294
1109.40 138.9717
1109.50 140.5025
1109.60 142.0497
1109.70 143.2124
1109.80 144.1397
1109.90 144.6738
1110.00 143.4836
1110.10 142.2573
1110.20 139.9718
1110.30 136.3341
1110.40 132.6927
1110.50 130.3344
1110.60 128.5775
1110.70 127.1248
1110.80 128.1515
1110.90 129.2531
1111.00 129.4813
1111.10 128.3488
1111.20 127.2408
1111.30 126.4387
1111.40 125.8014
1111.50 125.1689
1111.60 125.8629
1111.70 126.7188
1111.80 127.761
1111.90 128.6051
1112.00 129.4932
1112.10 129.4372
1112.20 129.0577
1112.30 128.7247
1112.40 129.6507
1112.50 130.7242
1112.60 132.1656
1112.70 134.1946
1112.80 136.2086
1112.90 137.7771
1113.00 139.0053
1113.10 140.3081
1113.20 140.4212
1113.30 140.5308
1113.40 140.5573
1113.50 140.0168
1113.60 139.5392
1113.70 138.1554
1113.80 135.7015
1113.90 133.1267
1114.00 133.725
1114.10 134.8215
1114.20 136.0017
1114.30 138.284
1114.40 140.5466
1114.50 142.5336
1114.60 144.1952
1114.70 145.9971
1114.80 144.7394
1114.90 142.681
1115.00 140.9371
1115.10 140.5445
1115.20 140.1305
1115.30 140.0156
1115.40 140.0598
1115.50 140.1585
1115.60 140.0827
1115.70 140.3443
1115.80 140.51
1115.90 139.619
1116.00 138.6702
1116.10 137.8182
1116.20 136.5902
1116.30 135.3465
1116.40 134.6338
1116.50 134.2071
1116.60 133.8704
1116.70 134.2006
1116.80 134.5408
1116.90 134.0117
1117.00 131.7905
1117.10 129.5796
1117.20 127.6749
1117.30 126.0589
1117.40 124.4099
1117.50 124.5544
1117.60 124.7726
1117.70 124.9192
1117.80 126.2153
1117.90 127.4805
1118.00 129.0314
1118.10 130.5181
1118.20 132.0431
1118.30 134.34
1118.40 136.6272
1118.50 138.5097
1118.60 139.9064
1118.70 141.3655
1118.80 141.0831
1118.90 138.6456
1119.00 137.0501
1119.10 135.962
1119.20 135.074
1119.30 134.154
1119.40 133.6881
1119.50 133.279
1119.60 132.8927
1119.70 132.8751
1119.80 132.8599
1119.90 132.6656
1120.00 132.5245
1120.10 132.3816
1120.20 131.3105
1120.30 131.2402
1120.40 131.9069
1120.50 134.3894
1120.60 136.7102
1120.70 138.6236
1120.80 140.1879
1120.90 141.2374
1121.00 139.6364
1121.10 137.7465
1121.20 135.8847
1121.30 135.6183
1121.40 135.3541
1121.50 135.1869
1121.60 133.9616
1121.70 132.4328
1121.80 130.7256
1121.90 129.2993
1122.00 128.2945
1122.10 128.0084
1122.20 128.1725
1122.30 129.735
1122.40 131.7713
1122.50 133.7247
1122.60 136.172
1122.70 138.1299
1122.80 140.2531
1122.90 141.2622
1123.00 141.5155
1123.10 141.7926
1123.20 140.2062
1123.30 137.0402
1123.40 133.8677
1123.50 130.8948
1123.60 130.6586
1123.70 130.4443
1123.80 131.0501
1123.90 133.4869
1124.00 135.9199
1124.10 138.3224
1124.20 139.869
1124.30 141.183
1124.40 142.4981
1124.50 143.0694
1124.60 143.5696
1124.70 144.0655
1124.80 143.5937
1124.90 140.2412
1125.00 136.882
1125.10 133.5618
1125.20 133.9511
1125.30 134.7592
1125.40 135.5865
1125.50 137.3969
1125.60 139.1992
1125.70 141.0152
1125.80 141.7819
1125.90 141.1238
1126.00 140.4606
1126.10 139.6892
1126.20 139.4875
1126.30 139.2873
1126.40 139.3405
1126.50 140.1757
1126.60 141.0556
1126.70 141.9284
1126.80 142.1954
1126.90 142.2036
1127.00 142.2123
1127.10 141.6822
1127.20 141.1424
1127.30 140.5986
1127.40 139.9113
1127.50 138.8145
1127.60 137.7183
1127.70 136.7278
1127.80 136.6969
1127.90 136.7573
1128.00 136.8885
1128.10 137.5903
1128.20 138.2082
1128.30 138.8202
1128.40 139.3115
1128.50 139.9129
1128.60 140.5153
1128.70 140.6105
1128.80 139.5407
1128.90 138.467
1129.00 137.6252
1129.10 137.4244
1129.20 137.2351
1129.30 136.9827
1129.40 136.9327
1129.50 137.2895
1129.60 137.6521
1129.70 138.7248
1129.80 140.403
1129.90 142.0807
1130.00 143.4528
1130.10 142.632
1130.20 141.7943
1130.30 140.7986
1130.40 139.0185
1130.50 137.2005
1130.60 135.3732
1130.70 134.5002
1130.80 133.9587
1130.90 133.4172
1131.00 133.6875
1131.10 134.961
1131.20 136.2358
1131.30 137.359
1131.40 138.2046
1131.50 139.0474
1131.60 139.9799
1131.70 141.0186
1131.80 142.0319
1131.90 143.0512
1132.00 142.7883
1132.10 142.2334
1132.20 141.6774
1132.30 141.22
1132.40 140.9829
1132.50 140.7475
1132.60 140.7582
1132.70 140.8171
1132.80 140.8762
1132.90 140.8522
1133.00 140.4475
1133.10 139.9891
1133.20 139.5362
1133.30 138.6144
1133.40 137.5869
1133.50 136.5604
1133.60 135.0625
1133.70 132.9511
1133.80 130.8396
1133.90 129.0015
1134.00 127.6131
1134.10 126.2242
1134.20 124.8095
1134.30 125.1269
1134.40 125.881
1134.50 126.6035
1134.60 126.8209
1134.70 127.0612
1134.80 127.3089
1134.90 129.3135
1135.00 132.1532
1135.10 134.9808
1135.20 136.9034
1135.30 135.8484
1135.40 134.7889
1135.50 133.7983
1135.60 131.8963
1135.70 129.7186
1135.80 127.5204
1135.90 126.5159
1136.00 127.487
1136.10 128.4636
1136.20 130.2142
1136.30 131.5531
1136.40 132.8821
1136.50 133.5774
1136.60 132.0997
1136.70 130.6203
1136.80 129.1448
1136.90 127.7628
1137.00 126.4189
1137.10 125.0621
1137.20 124.0198
1137.30 122.8546
1137.40 121.6861
1137.50 119.8562
1137.60 117.8688
1137.70 115.868
1137.80 113.5588
1137.90 107.7849
1138.00 101.9907
1138.10 96.30833
1138.20 91.43205
1138.30 86.70962
1138.40 81.9122
1138.50 83.8542
1138.60 89.24508
1138.70 94.67232
1138.80 100.215
1138.90 106.0503
1139.00 111.8606
1139.10 116.8556
1139.20 117.7929
1139.30 118.7075
1139.40 119.5789
1139.50 118.3439
1139.60 116.6764
1139.70 115.0258
1139.80 112.6703
1139.90 110.1252
1140.00 107.5674
1140.10 103.9604
1140.20 97.68752
1140.30 91.39578
1140.40 85.5561
1140.50 80.95884
1140.60 76.41
1140.70 72.20495
1140.80 75.1189
1140.90 80.28852
1141.00 85.43239
1141.10 91.86242
1141.20 98.74239
1141.30 105.6067
1141.40 111.155
1141.50 115.7703
1141.60 120.3714
1141.70 124.9786
1141.80 126.7691
1141.90 128.5483
1142.00 130.2394
1142.10 131.2662
1142.20 132.1804
1142.30 133.112
1142.40 133.792
1142.50 134.1707
1142.60 134.5521
1142.70 134.7558
1142.80 135.1942
1142.90 135.6312
1143.00 136.1049
1143.10 135.6239
1143.20 135.1396
1143.30 134.6393
1143.40 134.4139
1143.50 134.3377
1143.60 134.2612
1143.70 134.2359
1143.80 134.0213
1143.90 133.8005
1144.00 133.3699
1144.10 133.6282
1144.20 133.8955
1144.30 134.2144
1144.40 134.1242
1144.50 134.0343
1144.60 134.119
1144.70 134.6228
1144.80 135.0386
1144.90 135.442
1145.00 135.4493
1145.10 135.6071
1145.20 135.7637
1145.30 135.9241
1145.40 135.5748
1145.50 135.2247
1145.60 134.8139
1145.70 134.3507
1145.80 133.8883
1145.90 133.6282
1146.00 134.9255
1146.10 136.5102
1146.20 138.101
1146.30 138.698
1146.40 138.9947
1146.50 139.2918
1146.60 139.6298
1146.70 140.3654
1146.80 141.0943
1146.90 141.9217
1147.00 141.1658
1147.10 140.4062
1147.20 139.5594
1147.30 139.2986
1147.40 139.4631
1147.50 139.6277
1147.60 140.4865
1147.70 141.5791
1147.80 142.6721
1147.90 143.7867
1148.00 144.4068
1148.10 145.0247
1148.20 145.1843
1148.30 143.7382
1148.40 142.284
1148.50 140.9029
1148.60 140.7846
1148.70 141.0977
1148.80 141.4034
1148.90 142.9865
1149.00 145.0075
1149.10 147.0267
1149.20 148.0955
1149.30 146.9555
1149.40 145.81
1149.50 144.4189
1149.60 144.1556
1149.70 143.8985
1149.80 143.6495
1149.90 143.665
1150.00 143.7642
1150.10 143.8749
1150.20 144.1515
1150.30 143.9355
1150.40 143.7203
1150.50 143.4063
1150.60 143.782
1150.70 144.1611
1150.80 144.57
1150.90 145.2973
1151.00 146.0216
1151.10 146.7141
1151.20 146.7622
1151.30 146.6249
1151.40 146.4932
1151.50 146.0697
1151.60 145.2625
1151.70 144.4558
1151.80 143.5997
1151.90 143.4454
1152.00 143.292
1152.10 142.9869
1152.20 141.1533
1152.30 139.3114
1152.40 137.4744
1152.50 136.0464
1152.60 134.8531
1152.70 133.6386
1152.80 134.6977
1152.90 136.5854
1153.00 138.4731
1153.10 139.5815
1153.20 139.4822
1153.30 139.3823
1153.40 139.1454
1153.50 138.9582
1153.60 138.7756
1153.70 138.6812
1153.80 139.7654
1153.90 141.174
1154.00 142.5849
1154.10 143.8113
1154.20 144.9124
1154.30 146.01
1154.40 146.051
1154.50 144.5287
1154.60 143.001
1154.70 141.7041
1154.80 140.5562
1154.90 139.4169
1155.00 138.4008
1155.10 139.0357
1155.20 139.9357
1155.30 140.8442
1155.40 141.4939
1155.50 142.0832
1155.60 142.6682
1155.70 143.2941
1155.80 144.2643
1155.90 145.2314
1156.00 146.1085
1156.10 145.403
1156.20 144.6979
1156.30 144.077
1156.40 144.6314
1156.50 145.4044
1156.60 146.1717
1156.70 146.1087
1156.80 145.5446
1156.90 144.9839
1157.00 144.3354
1157.10 143.3928
1157.20 142.4546
1157.30 141.5171
1157.40 141.4363
1157.50 141.3559
1157.60 141.2979
1157.70 141.4561
1157.80 141.6599
1157.90 141.8585
1158.00 142.3939
1158.10 143.0716
1158.20 143.7485
1158.30 143.9364
1158.40 143.4713
1158.50 143.0047
1158.60 142.5409
1158.70 141.8428
1158.80 141.1419
1158.90 140.3745
1159.00 139.182
1159.10 137.9483
1159.20 136.7218
1159.30 135.0418
1159.40 132.8709
1159.50 130.6978
1159.60 129.4271
1159.70 129.4589
1159.80 129.503
1159.90 129.6478
1160.00 131.0793
1160.10 132.512
1160.20 133.9788
1160.30 135.6665
1160.40 137.3739
1160.50 139.1062
1160.60 138.973
1160.70 137.9539
1160.80 136.9356
1160.90 136.1348
1161.00 135.038
1161.10 133.9583
1161.20 133.53
1161.30 136.4204
1161.40 139.3257
1161.50 142.0203
1161.60 143.4723
1161.70 144.7646
1161.80 146.1329
1161.90 145.3366
1162.00 143.6486
1162.10 141.9545
1162.20 140.8874
1162.30 140.5272
1162.40 140.1714
1162.50 140.1495
1162.60 141.3415
1162.70 142.5359
1162.80 143.7581
1162.90 145.2573
1163.00 146.7999
1163.10 148.3445
1163.20 148.665
1163.30 148.5655
1163.40 148.4796
1163.50 147.1676
1163.60 144.3248
1163.70 141.4728
1163.80 139.0787
1163.90 137.2067
1164.00 135.3445
1164.10 133.5592
1164.20 134.3899
1164.30 135.7214
1164.40 137.0105
1164.50 138.796
1164.60 140.8256
1164.70 142.87
1164.80 143.523
1164.90 143.1287
1165.00 142.7301
1165.10 142.3667
1165.20 141.2847
1165.30 140.2005
1165.40 139.1423
1165.50 138.1226
1165.60 137.1076
1165.70 136.0626
1165.80 136.7755
1165.90 138.2259
1166.00 139.668
1166.10 141.112
1166.20 142.5544
1166.30 143.9958
1166.40 145.1169
1166.50 144.8784
1166.60 144.6375
1166.70 144.3445
1166.80 143.5874
1166.90 142.7934
1167.00 142.0133
1167.10 141.2879
1167.20 140.5956
1167.30 139.8956
1167.40 138.8408
1167.50 137.6265
1167.60 136.4128
1167.70 135.5908
1167.80 135.345
1167.90 135.1014
1168.00 134.7121
1168.10 133.6493
1168.20 132.5451
1168.30 131.3788
1168.40 128.5579
1168.50 125.3695
1168.60 122.2005
1168.70 117.3019
1168.80 110.7433
1168.90 104.1619
1169.00 97.76079
1169.10 90.33483
1169.20 82.93741
1169.30 76.26983
1169.40 79.20296
1169.50 83.00748
1169.60 86.71184
1169.70 93.79227
1169.80 101.9135
1169.90 110.0713
1170.00 116.3461
1170.10 120.8587
1170.20 125.3601
1170.30 129.3362
1170.40 131.7114
1170.50 134.0795
1170.60 136.3057
1170.70 137.0738
1170.80 137.7324
1170.90 138.4137
1171.00 138.5873
1171.10 138.5366
1171.20 138.4819
1171.30 138.5939
1171.40 138.983
1171.50 139.371
1171.60 139.4697
1171.70 138.7814
1171.80 138.0899
1171.90 137.3839
1172.00 136.8813
1172.10 136.3816
1172.20 135.8887
1172.30 136.0464
1172.40 136.3453
1172.50 136.6387
1172.60 137.1721
1172.70 137.7951
1172.80 138.4208
1172.90 139.0584
1173.00 139.8354
1173.10 140.6105
1173.20 141.2259
1173.30 140.4735
1173.40 139.7149
1173.50 138.9788
1173.60 138.2513
1173.70 137.5224
1173.80 136.7682
1173.90 136.5067
1174.00 136.7512
1174.10 136.995
1174.20 137.6059
1174.30 138.509
1174.40 139.4131
1174.50 140.2321
1174.60 140.5728
1174.70 140.908
1174.80 141.1739
1174.90 140.4988
1175.00 139.6668
1175.10 138.8524
1175.20 137.7913
1175.30 136.6635
1175.40 135.5321
1175.50 135.2561
1175.60 135.7992
1175.70 136.3461
1175.80 136.4413
1175.90 134.9138
1176.00 133.3805
1176.10 131.8414
1176.20 129.7001
1176.30 127.4533
1176.40 125.2157
1176.50 122.5524
1176.60 119.7773
1176.70 117.0258
1176.80 112.0783
1176.90 104.0306
1177.00 95.95979
1177.10 88.33733
1177.20 80.12402
1177.30 71.9341
1177.40 64.11068
1177.50 63.61164
1177.60 64.485
1177.70 65.13127
1177.80 71.10799
1177.90 79.50113
1178.00 87.89849
1178.10 95.11952
1178.20 101.0426
1178.30 106.944
1178.40 112.4426
1178.50 115.8341
1178.60 119.2198
1178.70 122.5617
1178.80 124.5683
1178.90 126.4638
1179.00 128.3898
1179.10 129.354
1179.20 130.0303
1179.30 130.7139
1179.40 131.0866
1179.50 131.082
1179.60 131.0762
1179.70 131.2198
1179.80 131.6603
1179.90 132.1033
1180.00 132.5415
1180.10 133.4583
1180.20 134.4355
1180.30 135.3855
1180.40 136.0277
1180.50 136.5829
1180.60 137.1559
1180.70 137.116
1180.80 136.3822
1180.90 135.6475
1181.00 134.8953
1181.10 134.1937
1181.20 133.4924
1181.30 132.7683
1181.40 132.0652
1181.50 131.3701
1181.60 130.683
1181.70 130.6316
1181.80 130.7804
1181.90 130.9224
1182.00 131.7542
1182.10 132.8915
1182.20 134.0328
1182.30 134.6803
1182.40 134.3961
1182.50 134.1042
1182.60 133.8081
1182.70 132.5876
1182.80 131.363
1182.90 130.1678
1183.00 130.0427
1183.10 130.2277
1183.20 130.3845
1183.30 130.4165
1183.40 130.5966
1183.50 130.7798
1183.60 130.5381
1183.70 129.2147
1183.80 127.8877
1183.90 126.9207
1184.00 127.8994
1184.10 128.889
1184.20 129.8483
1184.30 131.8343
1184.40 133.9936
1184.50 136.2021
1184.60 136.039
1184.70 134.6224
1184.80 133.2074
1184.90 131.8691
1185.00 130.4549
1185.10 129.0459
1185.20 128.0705
1185.30 128.8407
1185.40 129.618
1185.50 130.3446
1185.60 131.4472
1185.70 132.6496
1185.80 133.8591
1185.90 134.2908
1186.00 134.4416
1186.10 134.5972
1186.20 134.7704
1186.30 135.1665
1186.40 135.5611
1186.50 135.8546
1186.60 135.366
1186.70 134.8738
1186.80 134.3737
1186.90 133.3031
1187.00 132.14
1187.10 130.9521
1187.20 131.0532
1187.30 131.6627
1187.40 132.2598
1187.50 132.6963
1187.60 133.2127
1187.70 133.7258
1187.80 134.0161
1187.90 133.0689
1188.00 132.1101
1188.10 131.0614
1188.20 127.5516
1188.30 123.8252
1188.40 120.1364
1188.50 118.0589
1188.60 116.3538
1188.70 114.5557
1188.80 115.514
1188.90 119.7864
1189.00 124.0693
1189.10 127.5279
1189.20 129.4544
1189.30 131.3597
1189.40 133.2717
1189.50 133.9817
1189.60 134.5896
1189.70 135.1787
1189.80 135.6689
1189.90 136.0077
1190.00 136.3545
1190.10 136.1128
1190.20 135.3207
1190.30 134.5317
1190.40 133.6476
1190.50 132.5398
1190.60 131.4309
1190.70 130.5464
1190.80 130.9218
1190.90 131.3066
1191.00 131.6382
1191.10 132.3812
1191.20 133.3699
1191.30 134.3618
1191.40 134.8634
1191.50 134.9606
1191.60 135.0583
1191.70 135.0483
1191.80 134.8085
1191.90 134.5694
1192.00 134.3349
1192.10 134.5792
1192.20 134.8205
1192.30 135.0567
1192.40 134.4963
1192.50 133.7861
1192.60 133.0654
1192.70 132.8634
1192.80 132.956
1192.90 133.0478
1193.00 133.444
1193.10 134.2287
1193.20 135.012
1193.30 135.4289
1193.40 134.7697
1193.50 134.1044
1193.60 133.4517
1193.70 131.4595
1193.80 129.2222
1193.90 126.9796
1194.00 125.8402
1194.10 125.1271
1194.20 124.4017
1194.30 123.9907
1194.40 124.2402
1194.50 124.488
1194.60 124.4116
1194.70 122.7571
1194.80 121.0951
1194.90 119.5998
1195.00 118.695
1195.10 117.8188
1195.20 116.8681
1195.30 118.354
1195.40 120.9815
1195.50 123.5965
1195.60 125.1208
1195.70 125.8822
1195.80 126.6342
1195.90 127.0161
1196.00 125.3272
1196.10 123.6364
1196.20 122.042
1196.30 121.266
1196.40 120.5433
1196.50 119.7945
1196.60 119.644
1196.70 119.6529
1196.80 119.6655
1196.90 119.3802
1197.00 118.7653
1197.10 118.154
1197.20 116.695
1197.30 112.888
1197.40 109.0785
1197.50 105.5214
1197.60 104.3112
1197.70 103.1386
1197.80 101.8079
1197.90 103.502
1198.00 106.013
1198.10 108.5296
1198.20 110.4277
1198.30 111.8594
1198.40 113.2877
1198.50 114.8704
1198.60 117.0852
1198.70 119.2948
1198.80 121.1654
1198.90 119.4434
1199.00 117.7069
1199.10 116.0637
1199.20 114.3586
1199.30 112.5591
1199.40 110.7235
1199.50 110.2135
1199.60 110.6679
1199.70 111.1149
1199.80 111.7688
1199.90 112.8219
1200.00 113.8723
