# Version 2.1 - nm, norm@500 to 1, cut digits, bergeron_3000_65.dat_3000
# Wavelength(nm)  Flambda(ergs/cm^s/s/nm)
300.00 0.05583
300.10 0.056
300.20 0.05618
300.30 0.05635
300.40 0.05653
300.50 0.05671
300.60 0.05688
300.70 0.05706
300.80 0.05723
300.90 0.05741
301.00 0.05759
301.10 0.05776
301.20 0.05794
301.30 0.05811
301.40 0.05828
301.50 0.05846
301.60 0.05863
301.70 0.05881
301.80 0.05898
301.90 0.05915
302.00 0.05933
302.10 0.05951
302.20 0.05969
302.30 0.05988
302.40 0.06006
302.50 0.06025
302.60 0.06043
302.70 0.06061
302.80 0.06079
302.90 0.06098
303.00 0.06116
303.10 0.06134
303.20 0.06152
303.30 0.06171
303.40 0.06189
303.50 0.06207
303.60 0.06225
303.70 0.06243
303.80 0.06261
303.90 0.06279
304.00 0.06298
304.10 0.06317
304.20 0.06336
304.30 0.06355
304.40 0.06374
304.50 0.06393
304.60 0.06412
304.70 0.06431
304.80 0.0645
304.90 0.06469
305.00 0.06488
305.10 0.06507
305.20 0.06526
305.30 0.06545
305.40 0.06564
305.50 0.06583
305.60 0.06601
305.70 0.0662
305.80 0.06639
305.90 0.06658
306.00 0.06677
306.10 0.06697
306.20 0.06716
306.30 0.06736
306.40 0.06756
306.50 0.06776
306.60 0.06796
306.70 0.06816
306.80 0.06835
306.90 0.06855
307.00 0.06875
307.10 0.06895
307.20 0.06914
307.30 0.06934
307.40 0.06954
307.50 0.06973
307.60 0.06993
307.70 0.07012
307.80 0.07032
307.90 0.07051
308.00 0.07072
308.10 0.07092
308.20 0.07112
308.30 0.07133
308.40 0.07154
308.50 0.07174
308.60 0.07195
308.70 0.07215
308.80 0.07236
308.90 0.07256
309.00 0.07277
309.10 0.07297
309.20 0.07318
309.30 0.07338
309.40 0.07358
309.50 0.07379
309.60 0.07399
309.70 0.07419
309.80 0.0744
309.90 0.0746
310.00 0.07481
310.10 0.07502
310.20 0.07523
310.30 0.07545
310.40 0.07566
310.50 0.07588
310.60 0.07609
310.70 0.0763
310.80 0.07652
310.90 0.07673
311.00 0.07694
311.10 0.07716
311.20 0.07737
311.30 0.07758
311.40 0.07779
311.50 0.07801
311.60 0.07822
311.70 0.07843
311.80 0.07864
311.90 0.07885
312.00 0.07906
312.10 0.07927
312.20 0.07948
312.30 0.0797
312.40 0.07992
312.50 0.08015
312.60 0.08037
312.70 0.08059
312.80 0.08081
312.90 0.08103
313.00 0.08125
313.10 0.08147
313.20 0.08169
313.30 0.08191
313.40 0.08213
313.50 0.08235
313.60 0.08257
313.70 0.08279
313.80 0.08301
313.90 0.08323
314.00 0.08345
314.10 0.08368
314.20 0.08391
314.30 0.08414
314.40 0.08437
314.50 0.0846
314.60 0.08482
314.70 0.08505
314.80 0.08528
314.90 0.08551
315.00 0.08574
315.10 0.08596
315.20 0.08619
315.30 0.08642
315.40 0.08665
315.50 0.08687
315.60 0.0871
315.70 0.08732
315.80 0.08755
315.90 0.08778
316.00 0.08801
316.10 0.08824
316.20 0.08848
316.30 0.08871
316.40 0.08895
316.50 0.08919
316.60 0.08943
316.70 0.08966
316.80 0.0899
316.90 0.09014
317.00 0.09037
317.10 0.09061
317.20 0.09084
317.30 0.09108
317.40 0.09131
317.50 0.09154
317.60 0.09178
317.70 0.09201
317.80 0.09225
317.90 0.09248
318.00 0.09272
318.10 0.09296
318.20 0.0932
318.30 0.09345
318.40 0.0937
318.50 0.09394
318.60 0.09419
318.70 0.09443
318.80 0.09467
318.90 0.09492
319.00 0.09516
319.10 0.0954
319.20 0.09565
319.30 0.09589
319.40 0.09613
319.50 0.09637
319.60 0.09662
319.70 0.09686
319.80 0.0971
319.90 0.09734
320.00 0.09759
320.10 0.09784
320.20 0.09809
320.30 0.09834
320.40 0.09859
320.50 0.09885
320.60 0.0991
320.70 0.09935
320.80 0.0996
320.90 0.09985
321.00 0.1001
321.10 0.1004
321.20 0.1006
321.30 0.1009
321.40 0.1011
321.50 0.1014
321.60 0.1016
321.70 0.1019
321.80 0.1021
321.90 0.1023
322.00 0.1026
322.10 0.1029
322.20 0.1031
322.30 0.1034
322.40 0.1036
322.50 0.1039
322.60 0.1042
322.70 0.1044
322.80 0.1047
322.90 0.1049
323.00 0.1052
323.10 0.1055
323.20 0.1057
323.30 0.106
323.40 0.1062
323.50 0.1065
323.60 0.1068
323.70 0.107
323.80 0.1073
323.90 0.1075
324.00 0.1078
324.10 0.1081
324.20 0.1083
324.30 0.1086
324.40 0.1089
324.50 0.1091
324.60 0.1094
324.70 0.1097
324.80 0.1099
324.90 0.1102
325.00 0.1105
325.10 0.1107
325.20 0.111
325.30 0.1113
325.40 0.1115
325.50 0.1118
325.60 0.1121
325.70 0.1123
325.80 0.1126
325.90 0.1129
326.00 0.1131
326.10 0.1134
326.20 0.1137
326.30 0.114
326.40 0.1142
326.50 0.1145
326.60 0.1148
326.70 0.1151
326.80 0.1153
326.90 0.1156
327.00 0.1159
327.10 0.1162
327.20 0.1164
327.30 0.1167
327.40 0.117
327.50 0.1173
327.60 0.1175
327.70 0.1178
327.80 0.1181
327.90 0.1184
328.00 0.1186
328.10 0.1189
328.20 0.1192
328.30 0.1195
328.40 0.1198
328.50 0.1201
328.60 0.1203
328.70 0.1206
328.80 0.1209
328.90 0.1212
329.00 0.1215
329.10 0.1218
329.20 0.122
329.30 0.1223
329.40 0.1226
329.50 0.1229
329.60 0.1232
329.70 0.1234
329.80 0.1237
329.90 0.124
330.00 0.1243
330.10 0.1246
330.20 0.1249
330.30 0.1252
330.40 0.1255
330.50 0.1258
330.60 0.126
330.70 0.1263
330.80 0.1266
330.90 0.1269
331.00 0.1272
331.10 0.1275
331.20 0.1278
331.30 0.1281
331.40 0.1284
331.50 0.1287
331.60 0.129
331.70 0.1292
331.80 0.1295
331.90 0.1298
332.00 0.1301
332.10 0.1304
332.20 0.1307
332.30 0.131
332.40 0.1313
332.50 0.1316
332.60 0.1319
332.70 0.1322
332.80 0.1325
332.90 0.1328
333.00 0.1331
333.10 0.1334
333.20 0.1337
333.30 0.134
333.40 0.1343
333.50 0.1346
333.60 0.1349
333.70 0.1352
333.80 0.1355
333.90 0.1358
334.00 0.1361
334.10 0.1364
334.20 0.1367
334.30 0.137
334.40 0.1373
334.50 0.1376
334.60 0.1379
334.70 0.1383
334.80 0.1386
334.90 0.1389
335.00 0.1392
335.10 0.1395
335.20 0.1398
335.30 0.1401
335.40 0.1404
335.50 0.1407
335.60 0.141
335.70 0.1413
335.80 0.1416
335.90 0.1419
336.00 0.1422
336.10 0.1425
336.20 0.1429
336.30 0.1432
336.40 0.1435
336.50 0.1438
336.60 0.1441
336.70 0.1444
336.80 0.1448
336.90 0.1451
337.00 0.1454
337.10 0.1457
337.20 0.146
337.30 0.1463
337.40 0.1467
337.50 0.147
337.60 0.1473
337.70 0.1476
337.80 0.1479
337.90 0.1482
338.00 0.1485
338.10 0.1489
338.20 0.1492
338.30 0.1495
338.40 0.1498
338.50 0.1502
338.60 0.1505
338.70 0.1508
338.80 0.1511
338.90 0.1514
339.00 0.1518
339.10 0.1521
339.20 0.1524
339.30 0.1527
339.40 0.1531
339.50 0.1534
339.60 0.1537
339.70 0.154
339.80 0.1543
339.90 0.1547
340.00 0.155
340.10 0.1553
340.20 0.1556
340.30 0.156
340.40 0.1563
340.50 0.1566
340.60 0.157
340.70 0.1573
340.80 0.1576
340.90 0.158
341.00 0.1583
341.10 0.1586
341.20 0.159
341.30 0.1593
341.40 0.1596
341.50 0.16
341.60 0.1603
341.70 0.1606
341.80 0.1609
341.90 0.1613
342.00 0.1616
342.10 0.1619
342.20 0.1623
342.30 0.1626
342.40 0.163
342.50 0.1633
342.60 0.1636
342.70 0.164
342.80 0.1643
342.90 0.1647
343.00 0.165
343.10 0.1653
343.20 0.1657
343.30 0.166
343.40 0.1664
343.50 0.1667
343.60 0.167
343.70 0.1674
343.80 0.1677
343.90 0.168
344.00 0.1684
344.10 0.1687
344.20 0.1691
344.30 0.1694
344.40 0.1698
344.50 0.1701
344.60 0.1705
344.70 0.1708
344.80 0.1712
344.90 0.1715
345.00 0.1719
345.10 0.1722
345.20 0.1725
345.30 0.1729
345.40 0.1732
345.50 0.1736
345.60 0.1739
345.70 0.1743
345.80 0.1746
345.90 0.175
346.00 0.1753
346.10 0.1757
346.20 0.176
346.30 0.1764
346.40 0.1767
346.50 0.1771
346.60 0.1774
346.70 0.1778
346.80 0.1782
346.90 0.1785
347.00 0.1789
347.10 0.1792
347.20 0.1796
347.30 0.1799
347.40 0.1803
347.50 0.1806
347.60 0.181
347.70 0.1813
347.80 0.1817
347.90 0.182
348.00 0.1824
348.10 0.1828
348.20 0.1831
348.30 0.1835
348.40 0.1838
348.50 0.1842
348.60 0.1846
348.70 0.1849
348.80 0.1853
348.90 0.1857
349.00 0.186
349.10 0.1864
349.20 0.1867
349.30 0.1871
349.40 0.1875
349.50 0.1878
349.60 0.1882
349.70 0.1885
349.80 0.1889
349.90 0.1893
350.00 0.1896
350.10 0.19
350.20 0.1904
350.30 0.1907
350.40 0.1911
350.50 0.1915
350.60 0.1919
350.70 0.1922
350.80 0.1926
350.90 0.193
351.00 0.1933
351.10 0.1937
351.20 0.1941
351.30 0.1945
351.40 0.1948
351.50 0.1952
351.60 0.1956
351.70 0.1959
351.80 0.1963
351.90 0.1967
352.00 0.197
352.10 0.1974
352.20 0.1978
352.30 0.1982
352.40 0.1985
352.50 0.1989
352.60 0.1993
352.70 0.1997
352.80 0.2001
352.90 0.2004
353.00 0.2008
353.10 0.2012
353.20 0.2016
353.30 0.2019
353.40 0.2023
353.50 0.2027
353.60 0.2031
353.70 0.2034
353.80 0.2038
353.90 0.2042
354.00 0.2046
354.10 0.2049
354.20 0.2053
354.30 0.2057
354.40 0.2061
354.50 0.2065
354.60 0.2069
354.70 0.2073
354.80 0.2077
354.90 0.208
355.00 0.2084
355.10 0.2088
355.20 0.2092
355.30 0.2096
355.40 0.21
355.50 0.2104
355.60 0.2107
355.70 0.2111
355.80 0.2115
355.90 0.2119
356.00 0.2123
356.10 0.2127
356.20 0.2131
356.30 0.2134
356.40 0.2138
356.50 0.2142
356.60 0.2146
356.70 0.215
356.80 0.2154
356.90 0.2158
357.00 0.2162
357.10 0.2166
357.20 0.217
357.30 0.2174
357.40 0.2178
357.50 0.2182
357.60 0.2186
357.70 0.2189
357.80 0.2193
357.90 0.2197
358.00 0.2201
358.10 0.2205
358.20 0.2209
358.30 0.2213
358.40 0.2217
358.50 0.2221
358.60 0.2225
358.70 0.2229
358.80 0.2233
358.90 0.2237
359.00 0.2241
359.10 0.2245
359.20 0.2249
359.30 0.2253
359.40 0.2257
359.50 0.2261
359.60 0.2265
359.70 0.2269
359.80 0.2273
359.90 0.2277
360.00 0.2281
360.10 0.2285
360.20 0.2289
360.30 0.2293
360.40 0.2297
360.50 0.2301
360.60 0.2306
360.70 0.231
360.80 0.2314
360.90 0.2318
361.00 0.2322
361.10 0.2326
361.20 0.233
361.30 0.2334
361.40 0.2338
361.50 0.2342
361.60 0.2346
361.70 0.235
361.80 0.2354
361.90 0.2358
362.00 0.2362
362.10 0.2366
362.20 0.2371
362.30 0.2375
362.40 0.2379
362.50 0.2383
362.60 0.2387
362.70 0.2391
362.80 0.2395
362.90 0.2399
363.00 0.2404
363.10 0.2408
363.20 0.2412
363.30 0.2416
363.40 0.242
363.50 0.2425
363.60 0.2429
363.70 0.2433
363.80 0.2437
363.90 0.2441
364.00 0.2445
364.10 0.245
364.20 0.2454
364.30 0.2458
364.40 0.2462
364.50 0.2466
364.60 0.247
364.70 0.2475
364.80 0.2479
364.90 0.2483
365.00 0.2487
365.10 0.2492
365.20 0.2496
365.30 0.25
365.40 0.2504
365.50 0.2508
365.60 0.2513
365.70 0.2517
365.80 0.2521
365.90 0.2525
366.00 0.2529
366.10 0.2534
366.20 0.2538
366.30 0.2542
366.40 0.2547
366.50 0.2551
366.60 0.2555
366.70 0.256
366.80 0.2564
366.90 0.2568
367.00 0.2573
367.10 0.2577
367.20 0.2581
367.30 0.2585
367.40 0.259
367.50 0.2594
367.60 0.2598
367.70 0.2602
367.80 0.2607
367.90 0.2611
368.00 0.2615
368.10 0.2619
368.20 0.2624
368.30 0.2628
368.40 0.2633
368.50 0.2637
368.60 0.2641
368.70 0.2646
368.80 0.265
368.90 0.2655
369.00 0.2659
369.10 0.2663
369.20 0.2668
369.30 0.2672
369.40 0.2676
369.50 0.2681
369.60 0.2685
369.70 0.2689
369.80 0.2694
369.90 0.2698
370.00 0.2702
370.10 0.2707
370.20 0.2711
370.30 0.2716
370.40 0.272
370.50 0.2724
370.60 0.2729
370.70 0.2733
370.80 0.2738
370.90 0.2742
371.00 0.2747
371.10 0.2751
371.20 0.2755
371.30 0.276
371.40 0.2764
371.50 0.2769
371.60 0.2773
371.70 0.2777
371.80 0.2782
371.90 0.2786
372.00 0.2791
372.10 0.2795
372.20 0.28
372.30 0.2804
372.40 0.2809
372.50 0.2813
372.60 0.2818
372.70 0.2822
372.80 0.2827
372.90 0.2831
373.00 0.2836
373.10 0.284
373.20 0.2845
373.30 0.2849
373.40 0.2854
373.50 0.2858
373.60 0.2863
373.70 0.2867
373.80 0.2871
373.90 0.2876
374.00 0.288
374.10 0.2885
374.20 0.289
374.30 0.2894
374.40 0.2899
374.50 0.2903
374.60 0.2908
374.70 0.2912
374.80 0.2917
374.90 0.2922
375.00 0.2926
375.10 0.2931
375.20 0.2935
375.30 0.294
375.40 0.2944
375.50 0.2949
375.60 0.2953
375.70 0.2958
375.80 0.2962
375.90 0.2967
376.00 0.2971
376.10 0.2976
376.20 0.2981
376.30 0.2985
376.40 0.299
376.50 0.2994
376.60 0.2999
376.70 0.3004
376.80 0.3008
376.90 0.3013
377.00 0.3017
377.10 0.3022
377.20 0.3027
377.30 0.3031
377.40 0.3036
377.50 0.3041
377.60 0.3045
377.70 0.305
377.80 0.3055
377.90 0.3059
378.00 0.3064
378.10 0.3068
378.20 0.3073
378.30 0.3078
378.40 0.3082
378.50 0.3087
378.60 0.3092
378.70 0.3096
378.80 0.3101
378.90 0.3106
379.00 0.311
379.10 0.3115
379.20 0.312
379.30 0.3125
379.40 0.3129
379.50 0.3134
379.60 0.3139
379.70 0.3143
379.80 0.3148
379.90 0.3153
380.00 0.3157
380.10 0.3162
380.20 0.3167
380.30 0.3172
380.40 0.3176
380.50 0.3181
380.60 0.3186
380.70 0.3191
380.80 0.3195
380.90 0.32
381.00 0.3205
381.10 0.3209
381.20 0.3214
381.30 0.3219
381.40 0.3224
381.50 0.3228
381.60 0.3233
381.70 0.3238
381.80 0.3243
381.90 0.3247
382.00 0.3252
382.10 0.3257
382.20 0.3262
382.30 0.3267
382.40 0.3271
382.50 0.3276
382.60 0.3281
382.70 0.3286
382.80 0.3291
382.90 0.3295
383.00 0.33
383.10 0.3305
383.20 0.331
383.30 0.3315
383.40 0.3319
383.50 0.3324
383.60 0.3329
383.70 0.3334
383.80 0.3339
383.90 0.3344
384.00 0.3348
384.10 0.3353
384.20 0.3358
384.30 0.3363
384.40 0.3368
384.50 0.3373
384.60 0.3377
384.70 0.3382
384.80 0.3387
384.90 0.3392
385.00 0.3397
385.10 0.3402
385.20 0.3407
385.30 0.3411
385.40 0.3416
385.50 0.3421
385.60 0.3426
385.70 0.3431
385.80 0.3436
385.90 0.3441
386.00 0.3446
386.10 0.3451
386.20 0.3455
386.30 0.346
386.40 0.3465
386.50 0.347
386.60 0.3475
386.70 0.348
386.80 0.3485
386.90 0.349
387.00 0.3495
387.10 0.35
387.20 0.3505
387.30 0.3509
387.40 0.3514
387.50 0.3519
387.60 0.3524
387.70 0.3529
387.80 0.3534
387.90 0.3539
388.00 0.3544
388.10 0.3549
388.20 0.3554
388.30 0.3559
388.40 0.3564
388.50 0.3569
388.60 0.3574
388.70 0.3579
388.80 0.3584
388.90 0.3589
389.00 0.3594
389.10 0.3599
389.20 0.3604
389.30 0.3609
389.40 0.3614
389.50 0.3619
389.60 0.3624
389.70 0.3629
389.80 0.3634
389.90 0.3639
390.00 0.3644
390.10 0.3649
390.20 0.3654
390.30 0.3659
390.40 0.3664
390.50 0.3669
390.60 0.3674
390.70 0.3679
390.80 0.3684
390.90 0.3689
391.00 0.3694
391.10 0.3699
391.20 0.3704
391.30 0.3709
391.40 0.3714
391.50 0.3719
391.60 0.3724
391.70 0.3729
391.80 0.3734
391.90 0.3739
392.00 0.3744
392.10 0.3749
392.20 0.3754
392.30 0.3759
392.40 0.3765
392.50 0.377
392.60 0.3775
392.70 0.378
392.80 0.3785
392.90 0.379
393.00 0.3795
393.10 0.38
393.20 0.3805
393.30 0.381
393.40 0.3815
393.50 0.3821
393.60 0.3826
393.70 0.3831
393.80 0.3836
393.90 0.3841
394.00 0.3846
394.10 0.3851
394.20 0.3856
394.30 0.3861
394.40 0.3867
394.50 0.3872
394.60 0.3877
394.70 0.3882
394.80 0.3887
394.90 0.3892
395.00 0.3897
395.10 0.3903
395.20 0.3908
395.30 0.3913
395.40 0.3918
395.50 0.3923
395.60 0.3928
395.70 0.3933
395.80 0.3939
395.90 0.3944
396.00 0.3949
396.10 0.3954
396.20 0.3959
396.30 0.3964
396.40 0.397
396.50 0.3975
396.60 0.398
396.70 0.3985
396.80 0.399
396.90 0.3996
397.00 0.4001
397.10 0.4006
397.20 0.4011
397.30 0.4016
397.40 0.4021
397.50 0.4027
397.60 0.4032
397.70 0.4037
397.80 0.4042
397.90 0.4048
398.00 0.4053
398.10 0.4058
398.20 0.4063
398.30 0.4068
398.40 0.4074
398.50 0.4079
398.60 0.4084
398.70 0.4089
398.80 0.4095
398.90 0.41
399.00 0.4105
399.10 0.411
399.20 0.4116
399.30 0.4121
399.40 0.4126
399.50 0.4131
399.60 0.4137
399.70 0.4142
399.80 0.4147
399.90 0.4152
400.00 0.4158
400.10 0.4163
400.20 0.4168
400.30 0.4173
400.40 0.4179
400.50 0.4184
400.60 0.4189
400.70 0.4194
400.80 0.42
400.90 0.4205
401.00 0.421
401.10 0.4216
401.20 0.4221
401.30 0.4226
401.40 0.4232
401.50 0.4237
401.60 0.4242
401.70 0.4247
401.80 0.4253
401.90 0.4258
402.00 0.4263
402.10 0.4269
402.20 0.4274
402.30 0.4279
402.40 0.4285
402.50 0.429
402.60 0.4295
402.70 0.4301
402.80 0.4306
402.90 0.4311
403.00 0.4317
403.10 0.4322
403.20 0.4327
403.30 0.4333
403.40 0.4338
403.50 0.4343
403.60 0.4349
403.70 0.4354
403.80 0.4359
403.90 0.4365
404.00 0.437
404.10 0.4375
404.20 0.4381
404.30 0.4386
404.40 0.4392
404.50 0.4397
404.60 0.4402
404.70 0.4408
404.80 0.4413
404.90 0.4418
405.00 0.4424
405.10 0.4429
405.20 0.4435
405.30 0.444
405.40 0.4445
405.50 0.4451
405.60 0.4456
405.70 0.4462
405.80 0.4467
405.90 0.4472
406.00 0.4478
406.10 0.4483
406.20 0.4489
406.30 0.4494
406.40 0.4499
406.50 0.4505
406.60 0.451
406.70 0.4516
406.80 0.4521
406.90 0.4526
407.00 0.4532
407.10 0.4537
407.20 0.4543
407.30 0.4548
407.40 0.4554
407.50 0.4559
407.60 0.4564
407.70 0.457
407.80 0.4575
407.90 0.4581
408.00 0.4586
408.10 0.4592
408.20 0.4597
408.30 0.4603
408.40 0.4608
408.50 0.4613
408.60 0.4619
408.70 0.4624
408.80 0.463
408.90 0.4635
409.00 0.4641
409.10 0.4646
409.20 0.4652
409.30 0.4657
409.40 0.4663
409.50 0.4668
409.60 0.4674
409.70 0.4679
409.80 0.4685
409.90 0.469
410.00 0.4696
410.10 0.4701
410.20 0.4707
410.30 0.4712
410.40 0.4718
410.50 0.4723
410.60 0.4729
410.70 0.4734
410.80 0.474
410.90 0.4745
411.00 0.4751
411.10 0.4756
411.20 0.4762
411.30 0.4767
411.40 0.4773
411.50 0.4778
411.60 0.4784
411.70 0.4789
411.80 0.4795
411.90 0.48
412.00 0.4806
412.10 0.4811
412.20 0.4817
412.30 0.4822
412.40 0.4828
412.50 0.4833
412.60 0.4839
412.70 0.4844
412.80 0.485
412.90 0.4856
413.00 0.4861
413.10 0.4867
413.20 0.4872
413.30 0.4878
413.40 0.4883
413.50 0.4889
413.60 0.4894
413.70 0.49
413.80 0.4906
413.90 0.4911
414.00 0.4917
414.10 0.4922
414.20 0.4928
414.30 0.4933
414.40 0.4939
414.50 0.4945
414.60 0.495
414.70 0.4956
414.80 0.4961
414.90 0.4967
415.00 0.4972
415.10 0.4978
415.20 0.4984
415.30 0.4989
415.40 0.4995
415.50 0.5
415.60 0.5006
415.70 0.5012
415.80 0.5017
415.90 0.5023
416.00 0.5028
416.10 0.5034
416.20 0.504
416.30 0.5045
416.40 0.5051
416.50 0.5056
416.60 0.5062
416.70 0.5068
416.80 0.5073
416.90 0.5079
417.00 0.5085
417.10 0.509
417.20 0.5096
417.30 0.5101
417.40 0.5107
417.50 0.5113
417.60 0.5118
417.70 0.5124
417.80 0.513
417.90 0.5135
418.00 0.5141
418.10 0.5146
418.20 0.5152
418.30 0.5158
418.40 0.5163
418.50 0.5169
418.60 0.5175
418.70 0.518
418.80 0.5186
418.90 0.5192
419.00 0.5197
419.10 0.5203
419.20 0.5209
419.30 0.5214
419.40 0.522
419.50 0.5226
419.60 0.5231
419.70 0.5237
419.80 0.5243
419.90 0.5248
420.00 0.5254
420.10 0.526
420.20 0.5265
420.30 0.5271
420.40 0.5277
420.50 0.5282
420.60 0.5288
420.70 0.5293
420.80 0.5299
420.90 0.5305
421.00 0.5311
421.10 0.5316
421.20 0.5322
421.30 0.5328
421.40 0.5333
421.50 0.5339
421.60 0.5345
421.70 0.535
421.80 0.5356
421.90 0.5362
422.00 0.5368
422.10 0.5373
422.20 0.5379
422.30 0.5385
422.40 0.5391
422.50 0.5396
422.60 0.5402
422.70 0.5407
422.80 0.5413
422.90 0.5419
423.00 0.5425
423.10 0.543
423.20 0.5436
423.30 0.5442
423.40 0.5448
423.50 0.5453
423.60 0.5459
423.70 0.5465
423.80 0.5471
423.90 0.5476
424.00 0.5482
424.10 0.5488
424.20 0.5493
424.30 0.5499
424.40 0.5505
424.50 0.5511
424.60 0.5517
424.70 0.5522
424.80 0.5528
424.90 0.5533
425.00 0.5539
425.10 0.5545
425.20 0.5551
425.30 0.5557
425.40 0.5563
425.50 0.5568
425.60 0.5574
425.70 0.558
425.80 0.5586
425.90 0.5591
426.00 0.5597
426.10 0.5603
426.20 0.5609
426.30 0.5614
426.40 0.562
426.50 0.5626
426.60 0.5632
426.70 0.5638
426.80 0.5643
426.90 0.5649
427.00 0.5655
427.10 0.5661
427.20 0.5666
427.30 0.5672
427.40 0.5678
427.50 0.5683
427.60 0.5689
427.70 0.5695
427.80 0.5701
427.90 0.5707
428.00 0.5712
428.10 0.5718
428.20 0.5724
428.30 0.573
428.40 0.5736
428.50 0.5741
428.60 0.5747
428.70 0.5753
428.80 0.5759
428.90 0.5765
429.00 0.5771
429.10 0.5776
429.20 0.5782
429.30 0.5788
429.40 0.5794
429.50 0.58
429.60 0.5805
429.70 0.5811
429.80 0.5817
429.90 0.5823
430.00 0.5829
430.10 0.5834
430.20 0.584
430.30 0.5846
430.40 0.5852
430.50 0.5858
430.60 0.5864
430.70 0.587
430.80 0.5875
430.90 0.5881
431.00 0.5887
431.10 0.5893
431.20 0.5898
431.30 0.5904
431.40 0.591
431.50 0.5916
431.60 0.5922
431.70 0.5928
431.80 0.5933
431.90 0.5939
432.00 0.5945
432.10 0.5951
432.20 0.5957
432.30 0.5963
432.40 0.5969
432.50 0.5974
432.60 0.598
432.70 0.5986
432.80 0.5992
432.90 0.5998
433.00 0.6004
433.10 0.6009
433.20 0.6015
433.30 0.6021
433.40 0.6027
433.50 0.6033
433.60 0.6039
433.70 0.6045
433.80 0.6051
433.90 0.6056
434.00 0.6062
434.10 0.6068
434.20 0.6074
434.30 0.608
434.40 0.6086
434.50 0.6091
434.60 0.6097
434.70 0.6103
434.80 0.6109
434.90 0.6115
435.00 0.6121
435.10 0.6127
435.20 0.6133
435.30 0.6139
435.40 0.6144
435.50 0.615
435.60 0.6156
435.70 0.6162
435.80 0.6168
435.90 0.6174
436.00 0.618
436.10 0.6186
436.20 0.6192
436.30 0.6198
436.40 0.6203
436.50 0.6209
436.60 0.6215
436.70 0.6221
436.80 0.6227
436.90 0.6233
437.00 0.6239
437.10 0.6245
437.20 0.6251
437.30 0.6256
437.40 0.6262
437.50 0.6268
437.60 0.6274
437.70 0.628
437.80 0.6286
437.90 0.6292
438.00 0.6298
438.10 0.6303
438.20 0.631
438.30 0.6316
438.40 0.6321
438.50 0.6327
438.60 0.6333
438.70 0.6339
438.80 0.6345
438.90 0.6351
439.00 0.6357
439.10 0.6362
439.20 0.6368
439.30 0.6375
439.40 0.638
439.50 0.6386
439.60 0.6392
439.70 0.6398
439.80 0.6404
439.90 0.641
440.00 0.6416
440.10 0.6422
440.20 0.6428
440.30 0.6434
440.40 0.644
440.50 0.6445
440.60 0.6451
440.70 0.6457
440.80 0.6463
440.90 0.6469
441.00 0.6475
441.10 0.6481
441.20 0.6487
441.30 0.6493
441.40 0.6499
441.50 0.6505
441.60 0.6511
441.70 0.6517
441.80 0.6523
441.90 0.6529
442.00 0.6535
442.10 0.654
442.20 0.6546
442.30 0.6552
442.40 0.6558
442.50 0.6564
442.60 0.657
442.70 0.6576
442.80 0.6582
442.90 0.6588
443.00 0.6594
443.10 0.66
443.20 0.6606
443.30 0.6612
443.40 0.6618
443.50 0.6624
443.60 0.663
443.70 0.6636
443.80 0.6642
443.90 0.6648
444.00 0.6654
444.10 0.666
444.20 0.6665
444.30 0.6671
444.40 0.6677
444.50 0.6683
444.60 0.6689
444.70 0.6695
444.80 0.6701
444.90 0.6707
445.00 0.6713
445.10 0.6719
445.20 0.6725
445.30 0.6731
445.40 0.6737
445.50 0.6743
445.60 0.6749
445.70 0.6755
445.80 0.6761
445.90 0.6767
446.00 0.6773
446.10 0.6778
446.20 0.6784
446.30 0.679
446.40 0.6796
446.50 0.6802
446.60 0.6808
446.70 0.6814
446.80 0.682
446.90 0.6826
447.00 0.6832
447.10 0.6839
447.20 0.6845
447.30 0.685
447.40 0.6856
447.50 0.6862
447.60 0.6868
447.70 0.6874
447.80 0.688
447.90 0.6886
448.00 0.6892
448.10 0.6898
448.20 0.6904
448.30 0.691
448.40 0.6916
448.50 0.6922
448.60 0.6928
448.70 0.6934
448.80 0.694
448.90 0.6946
449.00 0.6952
449.10 0.6958
449.20 0.6964
449.30 0.697
449.40 0.6976
449.50 0.6982
449.60 0.6988
449.70 0.6994
449.80 0.7
449.90 0.7006
450.00 0.7012
450.10 0.7018
450.20 0.7024
450.30 0.703
450.40 0.7036
450.50 0.7042
450.60 0.7048
450.70 0.7054
450.80 0.706
450.90 0.7066
451.00 0.7072
451.10 0.7078
451.20 0.7084
451.30 0.709
451.40 0.7096
451.50 0.7102
451.60 0.7108
451.70 0.7114
451.80 0.712
451.90 0.7126
452.00 0.7132
452.10 0.7138
452.20 0.7144
452.30 0.715
452.40 0.7156
452.50 0.7162
452.60 0.7168
452.70 0.7174
452.80 0.718
452.90 0.7186
453.00 0.7192
453.10 0.7198
453.20 0.7204
453.30 0.721
453.40 0.7216
453.50 0.7222
453.60 0.7228
453.70 0.7234
453.80 0.724
453.90 0.7246
454.00 0.7252
454.10 0.7258
454.20 0.7264
454.30 0.727
454.40 0.7276
454.50 0.7282
454.60 0.7288
454.70 0.7294
454.80 0.73
454.90 0.7306
455.00 0.7312
455.10 0.7318
455.20 0.7324
455.30 0.733
455.40 0.7336
455.50 0.7342
455.60 0.7348
455.70 0.7354
455.80 0.736
455.90 0.7366
456.00 0.7372
456.10 0.7378
456.20 0.7384
456.30 0.739
456.40 0.7396
456.50 0.7402
456.60 0.7408
456.70 0.7414
456.80 0.742
456.90 0.7426
457.00 0.7432
457.10 0.7438
457.20 0.7444
457.30 0.745
457.40 0.7456
457.50 0.7462
457.60 0.7468
457.70 0.7474
457.80 0.7481
457.90 0.7487
458.00 0.7493
458.10 0.7499
458.20 0.7505
458.30 0.7511
458.40 0.7517
458.50 0.7523
458.60 0.7529
458.70 0.7535
458.80 0.7541
458.90 0.7547
459.00 0.7553
459.10 0.7559
459.20 0.7565
459.30 0.7571
459.40 0.7577
459.50 0.7583
459.60 0.7589
459.70 0.7595
459.80 0.7601
459.90 0.7607
460.00 0.7613
460.10 0.7619
460.20 0.7625
460.30 0.7631
460.40 0.7637
460.50 0.7643
460.60 0.7649
460.70 0.7655
460.80 0.7661
460.90 0.7667
461.00 0.7673
461.10 0.7679
461.20 0.7685
461.30 0.7691
461.40 0.7697
461.50 0.7703
461.60 0.7709
461.70 0.7715
461.80 0.7721
461.90 0.7727
462.00 0.7733
462.10 0.7739
462.20 0.7745
462.30 0.7751
462.40 0.7757
462.50 0.7764
462.60 0.777
462.70 0.7776
462.80 0.7782
462.90 0.7788
463.00 0.7794
463.10 0.78
463.20 0.7806
463.30 0.7812
463.40 0.7818
463.50 0.7824
463.60 0.783
463.70 0.7836
463.80 0.7842
463.90 0.7848
464.00 0.7854
464.10 0.786
464.20 0.7866
464.30 0.7872
464.40 0.7878
464.50 0.7884
464.60 0.789
464.70 0.7896
464.80 0.7902
464.90 0.7908
465.00 0.7914
465.10 0.792
465.20 0.7926
465.30 0.7932
465.40 0.7938
465.50 0.7944
465.60 0.795
465.70 0.7956
465.80 0.7962
465.90 0.7968
466.00 0.7974
466.10 0.798
466.20 0.7986
466.30 0.7993
466.40 0.7999
466.50 0.8005
466.60 0.8011
466.70 0.8017
466.80 0.8023
466.90 0.8029
467.00 0.8035
467.10 0.8041
467.20 0.8047
467.30 0.8053
467.40 0.8059
467.50 0.8065
467.60 0.8071
467.70 0.8077
467.80 0.8083
467.90 0.8089
468.00 0.8095
468.10 0.8101
468.20 0.8107
468.30 0.8113
468.40 0.8119
468.50 0.8125
468.60 0.8131
468.70 0.8137
468.80 0.8143
468.90 0.8149
469.00 0.8155
469.10 0.8161
469.20 0.8167
469.30 0.8173
469.40 0.8179
469.50 0.8186
469.60 0.8192
469.70 0.8198
469.80 0.8204
469.90 0.821
470.00 0.8216
470.10 0.8222
470.20 0.8228
470.30 0.8234
470.40 0.824
470.50 0.8246
470.60 0.8252
470.70 0.8258
470.80 0.8264
470.90 0.827
471.00 0.8276
471.10 0.8282
471.20 0.8288
471.30 0.8294
471.40 0.83
471.50 0.8306
471.60 0.8312
471.70 0.8318
471.80 0.8324
471.90 0.833
472.00 0.8336
472.10 0.8342
472.20 0.8348
472.30 0.8354
472.40 0.836
472.50 0.8366
472.60 0.8372
472.70 0.8378
472.80 0.8384
472.90 0.839
473.00 0.8396
473.10 0.8402
473.20 0.8408
473.30 0.8414
473.40 0.842
473.50 0.8426
473.60 0.8432
473.70 0.8438
473.80 0.8444
473.90 0.845
474.00 0.8456
474.10 0.8462
474.20 0.8468
474.30 0.8474
474.40 0.848
474.50 0.8486
474.60 0.8492
474.70 0.8498
474.80 0.8504
474.90 0.851
475.00 0.8516
475.10 0.8522
475.20 0.8528
475.30 0.8534
475.40 0.854
475.50 0.8546
475.60 0.8552
475.70 0.8559
475.80 0.8565
475.90 0.8571
476.00 0.8577
476.10 0.8583
476.20 0.8589
476.30 0.8595
476.40 0.8601
476.50 0.8606
476.60 0.8612
476.70 0.8618
476.80 0.8624
476.90 0.863
477.00 0.8636
477.10 0.8642
477.20 0.8648
477.30 0.8654
477.40 0.866
477.50 0.8666
477.60 0.8672
477.70 0.8678
477.80 0.8684
477.90 0.8691
478.00 0.8697
478.10 0.8703
478.20 0.8709
478.30 0.8715
478.40 0.8721
478.50 0.8727
478.60 0.8732
478.70 0.8738
478.80 0.8744
478.90 0.875
479.00 0.8756
479.10 0.8762
479.20 0.8768
479.30 0.8774
479.40 0.878
479.50 0.8786
479.60 0.8792
479.70 0.8798
479.80 0.8804
479.90 0.881
480.00 0.8816
480.10 0.8822
480.20 0.8828
480.30 0.8834
480.40 0.884
480.50 0.8846
480.60 0.8852
480.70 0.8858
480.80 0.8864
480.90 0.887
481.00 0.8876
481.10 0.8882
481.20 0.8888
481.30 0.8894
481.40 0.89
481.50 0.8906
481.60 0.8912
481.70 0.8918
481.80 0.8924
481.90 0.893
482.00 0.8936
482.10 0.8942
482.20 0.8948
482.30 0.8954
482.40 0.896
482.50 0.8966
482.60 0.8972
482.70 0.8978
482.80 0.8984
482.90 0.899
483.00 0.8996
483.10 0.9002
483.20 0.9008
483.30 0.9014
483.40 0.902
483.50 0.9025
483.60 0.9031
483.70 0.9037
483.80 0.9043
483.90 0.9049
484.00 0.9055
484.10 0.9061
484.20 0.9067
484.30 0.9073
484.40 0.9079
484.50 0.9085
484.60 0.9091
484.70 0.9097
484.80 0.9103
484.90 0.9109
485.00 0.9115
485.10 0.9121
485.20 0.9127
485.30 0.9133
485.40 0.9139
485.50 0.9145
485.60 0.9151
485.70 0.9157
485.80 0.9163
485.90 0.9169
486.00 0.9174
486.10 0.918
486.20 0.9186
486.30 0.9192
486.40 0.9198
486.50 0.9204
486.60 0.921
486.70 0.9216
486.80 0.9222
486.90 0.9228
487.00 0.9234
487.10 0.924
487.20 0.9246
487.30 0.9252
487.40 0.9258
487.50 0.9264
487.60 0.927
487.70 0.9276
487.80 0.9282
487.90 0.9288
488.00 0.9293
488.10 0.9299
488.20 0.9305
488.30 0.9311
488.40 0.9317
488.50 0.9323
488.60 0.9329
488.70 0.9335
488.80 0.9341
488.90 0.9347
489.00 0.9353
489.10 0.9359
489.20 0.9365
489.30 0.9371
489.40 0.9377
489.50 0.9382
489.60 0.9388
489.70 0.9394
489.80 0.94
489.90 0.9406
490.00 0.9412
490.10 0.9418
490.20 0.9424
490.30 0.943
490.40 0.9436
490.50 0.9442
490.60 0.9448
490.70 0.9453
490.80 0.9459
490.90 0.9465
491.00 0.9471
491.10 0.9477
491.20 0.9483
491.30 0.9489
491.40 0.9495
491.50 0.9501
491.60 0.9507
491.70 0.9513
491.80 0.9519
491.90 0.9524
492.00 0.953
492.10 0.9536
492.20 0.9542
492.30 0.9548
492.40 0.9554
492.50 0.956
492.60 0.9566
492.70 0.9572
492.80 0.9578
492.90 0.9584
493.00 0.9589
493.10 0.9595
493.20 0.9601
493.30 0.9607
493.40 0.9613
493.50 0.9619
493.60 0.9625
493.70 0.9631
493.80 0.9637
493.90 0.9642
494.00 0.9648
494.10 0.9654
494.20 0.966
494.30 0.9666
494.40 0.9672
494.50 0.9678
494.60 0.9684
494.70 0.9689
494.80 0.9695
494.90 0.9701
495.00 0.9707
495.10 0.9713
495.20 0.9719
495.30 0.9725
495.40 0.9731
495.50 0.9737
495.60 0.9742
495.70 0.9748
495.80 0.9754
495.90 0.976
496.00 0.9766
496.10 0.9772
496.20 0.9778
496.30 0.9784
496.40 0.9789
496.50 0.9795
496.60 0.9801
496.70 0.9807
496.80 0.9813
496.90 0.9819
497.00 0.9825
497.10 0.983
497.20 0.9836
497.30 0.9842
497.40 0.9848
497.50 0.9854
497.60 0.986
497.70 0.9866
497.80 0.9872
497.90 0.9877
498.00 0.9883
498.10 0.9889
498.20 0.9895
498.30 0.9901
498.40 0.9907
498.50 0.9913
498.60 0.9918
498.70 0.9924
498.80 0.993
498.90 0.9936
499.00 0.9942
499.10 0.9947
499.20 0.9953
499.30 0.9959
499.40 0.9965
499.50 0.9971
499.60 0.9977
499.70 0.9983
499.80 0.9988
499.90 0.9994
500.00 1
500.10 1.001
500.20 1.001
500.30 1.002
500.40 1.002
500.50 1.003
500.60 1.004
500.70 1.004
500.80 1.005
500.90 1.005
501.00 1.006
501.10 1.006
501.20 1.007
501.30 1.008
501.40 1.008
501.50 1.009
501.60 1.009
501.70 1.01
501.80 1.01
501.90 1.011
502.00 1.012
502.10 1.012
502.20 1.013
502.30 1.013
502.40 1.014
502.50 1.015
502.60 1.015
502.70 1.016
502.80 1.016
502.90 1.017
503.00 1.017
503.10 1.018
503.20 1.019
503.30 1.019
503.40 1.02
503.50 1.02
503.60 1.021
503.70 1.022
503.80 1.022
503.90 1.023
504.00 1.023
504.10 1.024
504.20 1.024
504.30 1.025
504.40 1.026
504.50 1.026
504.60 1.027
504.70 1.027
504.80 1.028
504.90 1.028
505.00 1.029
505.10 1.03
505.20 1.03
505.30 1.031
505.40 1.031
505.50 1.032
505.60 1.032
505.70 1.033
505.80 1.034
505.90 1.034
506.00 1.035
506.10 1.035
506.20 1.036
506.30 1.037
506.40 1.037
506.50 1.038
506.60 1.038
506.70 1.039
506.80 1.039
506.90 1.04
507.00 1.041
507.10 1.041
507.20 1.042
507.30 1.042
507.40 1.043
507.50 1.043
507.60 1.044
507.70 1.045
507.80 1.045
507.90 1.046
508.00 1.046
508.10 1.047
508.20 1.047
508.30 1.048
508.40 1.049
508.50 1.049
508.60 1.05
508.70 1.05
508.80 1.051
508.90 1.051
509.00 1.052
509.10 1.053
509.20 1.053
509.30 1.054
509.40 1.054
509.50 1.055
509.60 1.055
509.70 1.056
509.80 1.057
509.90 1.057
510.00 1.058
510.10 1.058
510.20 1.059
510.30 1.059
510.40 1.06
510.50 1.061
510.60 1.061
510.70 1.062
510.80 1.062
510.90 1.063
511.00 1.063
511.10 1.064
511.20 1.065
511.30 1.065
511.40 1.066
511.50 1.066
511.60 1.067
511.70 1.067
511.80 1.068
511.90 1.069
512.00 1.069
512.10 1.07
512.20 1.07
512.30 1.071
512.40 1.071
512.50 1.072
512.60 1.073
512.70 1.073
512.80 1.074
512.90 1.074
513.00 1.075
513.10 1.075
513.20 1.076
513.30 1.077
513.40 1.077
513.50 1.078
513.60 1.078
513.70 1.079
513.80 1.079
513.90 1.08
514.00 1.08
514.10 1.081
514.20 1.082
514.30 1.082
514.40 1.083
514.50 1.083
514.60 1.084
514.70 1.084
514.80 1.085
514.90 1.086
515.00 1.086
515.10 1.087
515.20 1.087
515.30 1.088
515.40 1.088
515.50 1.089
515.60 1.09
515.70 1.09
515.80 1.091
515.90 1.091
516.00 1.092
516.10 1.092
516.20 1.093
516.30 1.093
516.40 1.094
516.50 1.095
516.60 1.095
516.70 1.096
516.80 1.096
516.90 1.097
517.00 1.097
517.10 1.098
517.20 1.099
517.30 1.099
517.40 1.1
517.50 1.1
517.60 1.101
517.70 1.101
517.80 1.102
517.90 1.102
518.00 1.103
518.10 1.104
518.20 1.104
518.30 1.105
518.40 1.105
518.50 1.106
518.60 1.106
518.70 1.107
518.80 1.108
518.90 1.108
519.00 1.109
519.10 1.109
519.20 1.11
519.30 1.11
519.40 1.111
519.50 1.111
519.60 1.112
519.70 1.113
519.80 1.113
519.90 1.114
520.00 1.114
520.10 1.115
520.20 1.115
520.30 1.116
520.40 1.116
520.50 1.117
520.60 1.118
520.70 1.118
520.80 1.119
520.90 1.119
521.00 1.12
521.10 1.12
521.20 1.121
521.30 1.121
521.40 1.122
521.50 1.123
521.60 1.123
521.70 1.124
521.80 1.124
521.90 1.125
522.00 1.125
522.10 1.126
522.20 1.126
522.30 1.127
522.40 1.128
522.50 1.128
522.60 1.129
522.70 1.129
522.80 1.13
522.90 1.13
523.00 1.131
523.10 1.131
523.20 1.132
523.30 1.133
523.40 1.133
523.50 1.134
523.60 1.134
523.70 1.135
523.80 1.135
523.90 1.136
524.00 1.136
524.10 1.137
524.20 1.137
524.30 1.138
524.40 1.139
524.50 1.139
524.60 1.14
524.70 1.14
524.80 1.141
524.90 1.141
525.00 1.142
525.10 1.142
525.20 1.143
525.30 1.144
525.40 1.144
525.50 1.145
525.60 1.145
525.70 1.146
525.80 1.146
525.90 1.147
526.00 1.147
526.10 1.148
526.20 1.148
526.30 1.149
526.40 1.15
526.50 1.15
526.60 1.151
526.70 1.151
526.80 1.152
526.90 1.152
527.00 1.153
527.10 1.153
527.20 1.154
527.30 1.154
527.40 1.155
527.50 1.156
527.60 1.156
527.70 1.157
527.80 1.157
527.90 1.158
528.00 1.158
528.10 1.159
528.20 1.159
528.30 1.16
528.40 1.161
528.50 1.161
528.60 1.162
528.70 1.162
528.80 1.163
528.90 1.163
529.00 1.164
529.10 1.164
529.20 1.165
529.30 1.165
529.40 1.166
529.50 1.166
529.60 1.167
529.70 1.168
529.80 1.168
529.90 1.169
530.00 1.169
530.10 1.17
530.20 1.17
530.30 1.171
530.40 1.171
530.50 1.172
530.60 1.172
530.70 1.173
530.80 1.174
530.90 1.174
531.00 1.175
531.10 1.175
531.20 1.176
531.30 1.176
531.40 1.177
531.50 1.177
531.60 1.178
531.70 1.178
531.80 1.179
531.90 1.179
532.00 1.18
532.10 1.181
532.20 1.181
532.30 1.182
532.40 1.182
532.50 1.183
532.60 1.183
532.70 1.184
532.80 1.184
532.90 1.185
533.00 1.185
533.10 1.186
533.20 1.186
533.30 1.187
533.40 1.188
533.50 1.188
533.60 1.189
533.70 1.189
533.80 1.19
533.90 1.19
534.00 1.191
534.10 1.191
534.20 1.192
534.30 1.192
534.40 1.193
534.50 1.193
534.60 1.194
534.70 1.194
534.80 1.195
534.90 1.196
535.00 1.196
535.10 1.197
535.20 1.197
535.30 1.198
535.40 1.198
535.50 1.199
535.60 1.199
535.70 1.2
535.80 1.2
535.90 1.201
536.00 1.201
536.10 1.202
536.20 1.202
536.30 1.203
536.40 1.203
536.50 1.204
536.60 1.205
536.70 1.205
536.80 1.206
536.90 1.206
537.00 1.207
537.10 1.207
537.20 1.208
537.30 1.208
537.40 1.209
537.50 1.209
537.60 1.21
537.70 1.21
537.80 1.211
537.90 1.211
538.00 1.212
538.10 1.213
538.20 1.213
538.30 1.214
538.40 1.214
538.50 1.215
538.60 1.215
538.70 1.216
538.80 1.216
538.90 1.217
539.00 1.217
539.10 1.218
539.20 1.218
539.30 1.219
539.40 1.219
539.50 1.22
539.60 1.22
539.70 1.221
539.80 1.221
539.90 1.222
540.00 1.222
540.10 1.223
540.20 1.224
540.30 1.224
540.40 1.225
540.50 1.225
540.60 1.226
540.70 1.226
540.80 1.227
540.90 1.227
541.00 1.228
541.10 1.228
541.20 1.229
541.30 1.229
541.40 1.23
541.50 1.23
541.60 1.231
541.70 1.231
541.80 1.232
541.90 1.232
542.00 1.233
542.10 1.233
542.20 1.234
542.30 1.234
542.40 1.235
542.50 1.236
542.60 1.236
542.70 1.237
542.80 1.237
542.90 1.238
543.00 1.238
543.10 1.239
543.20 1.239
543.30 1.24
543.40 1.24
543.50 1.241
543.60 1.241
543.70 1.242
543.80 1.242
543.90 1.243
544.00 1.243
544.10 1.244
544.20 1.244
544.30 1.245
544.40 1.245
544.50 1.246
544.60 1.246
544.70 1.247
544.80 1.247
544.90 1.248
545.00 1.248
545.10 1.249
545.20 1.249
545.30 1.25
545.40 1.251
545.50 1.251
545.60 1.252
545.70 1.252
545.80 1.253
545.90 1.253
546.00 1.254
546.10 1.254
546.20 1.255
546.30 1.255
546.40 1.256
546.50 1.256
546.60 1.257
546.70 1.257
546.80 1.258
546.90 1.258
547.00 1.259
547.10 1.259
547.20 1.26
547.30 1.26
547.40 1.261
547.50 1.261
547.60 1.262
547.70 1.262
547.80 1.263
547.90 1.263
548.00 1.264
548.10 1.264
548.20 1.265
548.30 1.265
548.40 1.266
548.50 1.266
548.60 1.267
548.70 1.267
548.80 1.268
548.90 1.268
549.00 1.269
549.10 1.269
549.20 1.27
549.30 1.27
549.40 1.271
549.50 1.271
549.60 1.272
549.70 1.272
549.80 1.273
549.90 1.273
550.00 1.274
550.10 1.274
550.20 1.275
550.30 1.275
550.40 1.276
550.50 1.276
550.60 1.277
550.70 1.277
550.80 1.278
550.90 1.278
551.00 1.279
551.10 1.279
551.20 1.28
551.30 1.28
551.40 1.281
551.50 1.281
551.60 1.282
551.70 1.282
551.80 1.283
551.90 1.283
552.00 1.284
552.10 1.284
552.20 1.285
552.30 1.285
552.40 1.286
552.50 1.286
552.60 1.287
552.70 1.287
552.80 1.288
552.90 1.288
553.00 1.289
553.10 1.289
553.20 1.29
553.30 1.29
553.40 1.291
553.50 1.291
553.60 1.292
553.70 1.292
553.80 1.293
553.90 1.293
554.00 1.294
554.10 1.294
554.20 1.295
554.30 1.295
554.40 1.296
554.50 1.296
554.60 1.297
554.70 1.297
554.80 1.298
554.90 1.298
555.00 1.299
555.10 1.299
555.20 1.3
555.30 1.3
555.40 1.301
555.50 1.301
555.60 1.302
555.70 1.302
555.80 1.303
555.90 1.303
556.00 1.304
556.10 1.304
556.20 1.305
556.30 1.305
556.40 1.306
556.50 1.306
556.60 1.307
556.70 1.307
556.80 1.308
556.90 1.308
557.00 1.309
557.10 1.309
557.20 1.31
557.30 1.31
557.40 1.311
557.50 1.311
557.60 1.312
557.70 1.312
557.80 1.313
557.90 1.313
558.00 1.314
558.10 1.314
558.20 1.315
558.30 1.315
558.40 1.316
558.50 1.316
558.60 1.317
558.70 1.317
558.80 1.318
558.90 1.318
559.00 1.319
559.10 1.319
559.20 1.319
559.30 1.32
559.40 1.32
559.50 1.321
559.60 1.321
559.70 1.322
559.80 1.322
559.90 1.323
560.00 1.323
560.10 1.324
560.20 1.324
560.30 1.325
560.40 1.325
560.50 1.326
560.60 1.326
560.70 1.327
560.80 1.327
560.90 1.328
561.00 1.328
561.10 1.329
561.20 1.329
561.30 1.33
561.40 1.33
561.50 1.331
561.60 1.331
561.70 1.332
561.80 1.332
561.90 1.333
562.00 1.333
562.10 1.333
562.20 1.334
562.30 1.334
562.40 1.335
562.50 1.335
562.60 1.336
562.70 1.336
562.80 1.337
562.90 1.337
563.00 1.338
563.10 1.338
563.20 1.339
563.30 1.339
563.40 1.34
563.50 1.34
563.60 1.341
563.70 1.341
563.80 1.342
563.90 1.342
564.00 1.343
564.10 1.343
564.20 1.343
564.30 1.344
564.40 1.344
564.50 1.345
564.60 1.345
564.70 1.346
564.80 1.346
564.90 1.347
565.00 1.347
565.10 1.348
565.20 1.348
565.30 1.349
565.40 1.349
565.50 1.35
565.60 1.35
565.70 1.351
565.80 1.351
565.90 1.352
566.00 1.352
566.10 1.352
566.20 1.353
566.30 1.353
566.40 1.354
566.50 1.354
566.60 1.355
566.70 1.355
566.80 1.356
566.90 1.356
567.00 1.357
567.10 1.357
567.20 1.358
567.30 1.358
567.40 1.359
567.50 1.359
567.60 1.36
567.70 1.36
567.80 1.36
567.90 1.361
568.00 1.361
568.10 1.362
568.20 1.362
568.30 1.363
568.40 1.363
568.50 1.364
568.60 1.364
568.70 1.365
568.80 1.365
568.90 1.366
569.00 1.366
569.10 1.367
569.20 1.367
569.30 1.367
569.40 1.368
569.50 1.368
569.60 1.369
569.70 1.369
569.80 1.37
569.90 1.37
570.00 1.371
570.10 1.371
570.20 1.372
570.30 1.372
570.40 1.373
570.50 1.373
570.60 1.373
570.70 1.374
570.80 1.374
570.90 1.375
571.00 1.375
571.10 1.376
571.20 1.376
571.30 1.377
571.40 1.377
571.50 1.378
571.60 1.378
571.70 1.378
571.80 1.379
571.90 1.379
572.00 1.38
572.10 1.38
572.20 1.381
572.30 1.381
572.40 1.382
572.50 1.382
572.60 1.383
572.70 1.383
572.80 1.384
572.90 1.384
573.00 1.384
573.10 1.385
573.20 1.385
573.30 1.386
573.40 1.386
573.50 1.387
573.60 1.387
573.70 1.388
573.80 1.388
573.90 1.389
574.00 1.389
574.10 1.389
574.20 1.39
574.30 1.39
574.40 1.391
574.50 1.391
574.60 1.392
574.70 1.392
574.80 1.393
574.90 1.393
575.00 1.393
575.10 1.394
575.20 1.394
575.30 1.395
575.40 1.395
575.50 1.396
575.60 1.396
575.70 1.397
575.80 1.397
575.90 1.398
576.00 1.398
576.10 1.398
576.20 1.399
576.30 1.399
576.40 1.4
576.50 1.4
576.60 1.401
576.70 1.401
576.80 1.402
576.90 1.402
577.00 1.402
577.10 1.403
577.20 1.403
577.30 1.404
577.40 1.404
577.50 1.405
577.60 1.405
577.70 1.406
577.80 1.406
577.90 1.406
578.00 1.407
578.10 1.407
578.20 1.408
578.30 1.408
578.40 1.409
578.50 1.409
578.60 1.41
578.70 1.41
578.80 1.41
578.90 1.411
579.00 1.411
579.10 1.412
579.20 1.412
579.30 1.413
579.40 1.413
579.50 1.414
579.60 1.414
579.70 1.414
579.80 1.415
579.90 1.415
580.00 1.416
580.10 1.416
580.20 1.417
580.30 1.417
580.40 1.417
580.50 1.418
580.60 1.418
580.70 1.419
580.80 1.419
580.90 1.42
581.00 1.42
581.10 1.421
581.20 1.421
581.30 1.421
581.40 1.422
581.50 1.422
581.60 1.423
581.70 1.423
581.80 1.424
581.90 1.424
582.00 1.424
582.10 1.425
582.20 1.425
582.30 1.426
582.40 1.426
582.50 1.427
582.60 1.427
582.70 1.427
582.80 1.428
582.90 1.428
583.00 1.429
583.10 1.429
583.20 1.43
583.30 1.43
583.40 1.431
583.50 1.431
583.60 1.431
583.70 1.432
583.80 1.432
583.90 1.433
584.00 1.433
584.10 1.434
584.20 1.434
584.30 1.434
584.40 1.435
584.50 1.435
584.60 1.436
584.70 1.436
584.80 1.437
584.90 1.437
585.00 1.437
585.10 1.438
585.20 1.438
585.30 1.439
585.40 1.439
585.50 1.439
585.60 1.44
585.70 1.44
585.80 1.441
585.90 1.441
586.00 1.442
586.10 1.442
586.20 1.442
586.30 1.443
586.40 1.443
586.50 1.444
586.60 1.444
586.70 1.445
586.80 1.445
586.90 1.445
587.00 1.446
587.10 1.446
587.20 1.447
587.30 1.447
587.40 1.448
587.50 1.448
587.60 1.448
587.70 1.449
587.80 1.449
587.90 1.45
588.00 1.45
588.10 1.45
588.20 1.451
588.30 1.451
588.40 1.452
588.50 1.452
588.60 1.453
588.70 1.453
588.80 1.453
588.90 1.454
589.00 1.454
589.10 1.455
589.20 1.455
589.30 1.456
589.40 1.456
589.50 1.456
589.60 1.457
589.70 1.457
589.80 1.458
589.90 1.458
590.00 1.458
590.10 1.459
590.20 1.459
590.30 1.46
590.40 1.46
590.50 1.46
590.60 1.461
590.70 1.461
590.80 1.462
590.90 1.462
591.00 1.463
591.10 1.463
591.20 1.463
591.30 1.464
591.40 1.464
591.50 1.465
591.60 1.465
591.70 1.465
591.80 1.466
591.90 1.466
592.00 1.467
592.10 1.467
592.20 1.467
592.30 1.468
592.40 1.468
592.50 1.469
592.60 1.469
592.70 1.47
592.80 1.47
592.90 1.47
593.00 1.471
593.10 1.471
593.20 1.472
593.30 1.472
593.40 1.472
593.50 1.473
593.60 1.473
593.70 1.474
593.80 1.474
593.90 1.474
594.00 1.475
594.10 1.475
594.20 1.476
594.30 1.476
594.40 1.476
594.50 1.477
594.60 1.477
594.70 1.478
594.80 1.478
594.90 1.478
595.00 1.479
595.10 1.479
595.20 1.48
595.30 1.48
595.40 1.48
595.50 1.481
595.60 1.481
595.70 1.482
595.80 1.482
595.90 1.482
596.00 1.483
596.10 1.483
596.20 1.484
596.30 1.484
596.40 1.484
596.50 1.485
596.60 1.485
596.70 1.486
596.80 1.486
596.90 1.486
597.00 1.487
597.10 1.487
597.20 1.488
597.30 1.488
597.40 1.488
597.50 1.489
597.60 1.489
597.70 1.49
597.80 1.49
597.90 1.49
598.00 1.491
598.10 1.491
598.20 1.492
598.30 1.492
598.40 1.492
598.50 1.493
598.60 1.493
598.70 1.494
598.80 1.494
598.90 1.494
599.00 1.495
599.10 1.495
599.20 1.496
599.30 1.496
599.40 1.496
599.50 1.497
599.60 1.497
599.70 1.497
599.80 1.498
599.90 1.498
600.00 1.499
600.10 1.499
600.20 1.499
600.30 1.5
600.40 1.5
600.50 1.501
600.60 1.501
600.70 1.501
600.80 1.502
600.90 1.502
601.00 1.503
601.10 1.503
601.20 1.503
601.30 1.504
601.40 1.504
601.50 1.504
601.60 1.505
601.70 1.505
601.80 1.506
601.90 1.506
602.00 1.506
602.10 1.507
602.20 1.507
602.30 1.508
602.40 1.508
602.50 1.508
602.60 1.509
602.70 1.509
602.80 1.509
602.90 1.51
603.00 1.51
603.10 1.511
603.20 1.511
603.30 1.511
603.40 1.512
603.50 1.512
603.60 1.513
603.70 1.513
603.80 1.513
603.90 1.514
604.00 1.514
604.10 1.514
604.20 1.515
604.30 1.515
604.40 1.516
604.50 1.516
604.60 1.516
604.70 1.517
604.80 1.517
604.90 1.517
605.00 1.518
605.10 1.518
605.20 1.519
605.30 1.519
605.40 1.519
605.50 1.52
605.60 1.52
605.70 1.52
605.80 1.521
605.90 1.521
606.00 1.522
606.10 1.522
606.20 1.522
606.30 1.523
606.40 1.523
606.50 1.523
606.60 1.524
606.70 1.524
606.80 1.525
606.90 1.525
607.00 1.525
607.10 1.526
607.20 1.526
607.30 1.526
607.40 1.527
607.50 1.527
607.60 1.528
607.70 1.528
607.80 1.528
607.90 1.529
608.00 1.529
608.10 1.529
608.20 1.53
608.30 1.53
608.40 1.53
608.50 1.531
608.60 1.531
608.70 1.532
608.80 1.532
608.90 1.532
609.00 1.533
609.10 1.533
609.20 1.533
609.30 1.534
609.40 1.534
609.50 1.535
609.60 1.535
609.70 1.535
609.80 1.536
609.90 1.536
610.00 1.536
610.10 1.537
610.20 1.537
610.30 1.537
610.40 1.538
610.50 1.538
610.60 1.539
610.70 1.539
610.80 1.539
610.90 1.54
611.00 1.54
611.10 1.54
611.20 1.541
611.30 1.541
611.40 1.541
611.50 1.542
611.60 1.542
611.70 1.542
611.80 1.543
611.90 1.543
612.00 1.544
612.10 1.544
612.20 1.544
612.30 1.545
612.40 1.545
612.50 1.545
612.60 1.546
612.70 1.546
612.80 1.546
612.90 1.547
613.00 1.547
613.10 1.547
613.20 1.548
613.30 1.548
613.40 1.549
613.50 1.549
613.60 1.549
613.70 1.55
613.80 1.55
613.90 1.55
614.00 1.551
614.10 1.551
614.20 1.551
614.30 1.552
614.40 1.552
614.50 1.552
614.60 1.553
614.70 1.553
614.80 1.553
614.90 1.554
615.00 1.554
615.10 1.555
615.20 1.555
615.30 1.555
615.40 1.556
615.50 1.556
615.60 1.556
615.70 1.557
615.80 1.557
615.90 1.557
616.00 1.558
616.10 1.558
616.20 1.558
616.30 1.559
616.40 1.559
616.50 1.559
616.60 1.56
616.70 1.56
616.80 1.56
616.90 1.561
617.00 1.561
617.10 1.561
617.20 1.562
617.30 1.562
617.40 1.562
617.50 1.563
617.60 1.563
617.70 1.564
617.80 1.564
617.90 1.564
618.00 1.565
618.10 1.565
618.20 1.565
618.30 1.566
618.40 1.566
618.50 1.566
618.60 1.567
618.70 1.567
618.80 1.567
618.90 1.568
619.00 1.568
619.10 1.568
619.20 1.569
619.30 1.569
619.40 1.569
619.50 1.57
619.60 1.57
619.70 1.57
619.80 1.571
619.90 1.571
620.00 1.571
620.10 1.572
620.20 1.572
620.30 1.572
620.40 1.573
620.50 1.573
620.60 1.573
620.70 1.574
620.80 1.574
620.90 1.574
621.00 1.575
621.10 1.575
621.20 1.575
621.30 1.576
621.40 1.576
621.50 1.576
621.60 1.577
621.70 1.577
621.80 1.577
621.90 1.578
622.00 1.578
622.10 1.578
622.20 1.579
622.30 1.579
622.40 1.579
622.50 1.58
622.60 1.58
622.70 1.58
622.80 1.581
622.90 1.581
623.00 1.581
623.10 1.582
623.20 1.582
623.30 1.582
623.40 1.583
623.50 1.583
623.60 1.583
623.70 1.584
623.80 1.584
623.90 1.584
624.00 1.585
624.10 1.585
624.20 1.585
624.30 1.586
624.40 1.586
624.50 1.586
624.60 1.586
624.70 1.587
624.80 1.587
624.90 1.587
625.00 1.588
625.10 1.588
625.20 1.588
625.30 1.589
625.40 1.589
625.50 1.589
625.60 1.59
625.70 1.59
625.80 1.59
625.90 1.591
626.00 1.591
626.10 1.591
626.20 1.592
626.30 1.592
626.40 1.592
626.50 1.593
626.60 1.593
626.70 1.593
626.80 1.594
626.90 1.594
627.00 1.594
627.10 1.594
627.20 1.595
627.30 1.595
627.40 1.595
627.50 1.596
627.60 1.596
627.70 1.596
627.80 1.597
627.90 1.597
628.00 1.597
628.10 1.598
628.20 1.598
628.30 1.598
628.40 1.599
628.50 1.599
628.60 1.599
628.70 1.599
628.80 1.6
628.90 1.6
629.00 1.6
629.10 1.601
629.20 1.601
629.30 1.601
629.40 1.602
629.50 1.602
629.60 1.602
629.70 1.603
629.80 1.603
629.90 1.603
630.00 1.603
630.10 1.604
630.20 1.604
630.30 1.604
630.40 1.605
630.50 1.605
630.60 1.605
630.70 1.606
630.80 1.606
630.90 1.606
631.00 1.607
631.10 1.607
631.20 1.607
631.30 1.607
631.40 1.608
631.50 1.608
631.60 1.608
631.70 1.609
631.80 1.609
631.90 1.609
632.00 1.61
632.10 1.61
632.20 1.61
632.30 1.61
632.40 1.611
632.50 1.611
632.60 1.611
632.70 1.612
632.80 1.612
632.90 1.612
633.00 1.613
633.10 1.613
633.20 1.613
633.30 1.613
633.40 1.614
633.50 1.614
633.60 1.614
633.70 1.615
633.80 1.615
633.90 1.615
634.00 1.616
634.10 1.616
634.20 1.616
634.30 1.616
634.40 1.617
634.50 1.617
634.60 1.617
634.70 1.618
634.80 1.618
634.90 1.618
635.00 1.618
635.10 1.619
635.20 1.619
635.30 1.619
635.40 1.62
635.50 1.62
635.60 1.62
635.70 1.621
635.80 1.621
635.90 1.621
636.00 1.621
636.10 1.622
636.20 1.622
636.30 1.622
636.40 1.623
636.50 1.623
636.60 1.623
636.70 1.623
636.80 1.624
636.90 1.624
637.00 1.624
637.10 1.625
637.20 1.625
637.30 1.625
637.40 1.625
637.50 1.626
637.60 1.626
637.70 1.626
637.80 1.627
637.90 1.627
638.00 1.627
638.10 1.627
638.20 1.628
638.30 1.628
638.40 1.628
638.50 1.629
638.60 1.629
638.70 1.629
638.80 1.629
638.90 1.63
639.00 1.63
639.10 1.63
639.20 1.63
639.30 1.631
639.40 1.631
639.50 1.631
639.60 1.632
639.70 1.632
639.80 1.632
639.90 1.632
640.00 1.633
640.10 1.633
640.20 1.633
640.30 1.634
640.40 1.634
640.50 1.634
640.60 1.634
640.70 1.635
640.80 1.635
640.90 1.635
641.00 1.635
641.10 1.636
641.20 1.636
641.30 1.636
641.40 1.637
641.50 1.637
641.60 1.637
641.70 1.637
641.80 1.638
641.90 1.638
642.00 1.638
642.10 1.638
642.20 1.639
642.30 1.639
642.40 1.639
642.50 1.639
642.60 1.64
642.70 1.64
642.80 1.64
642.90 1.641
643.00 1.641
643.10 1.641
643.20 1.641
643.30 1.642
643.40 1.642
643.50 1.642
643.60 1.642
643.70 1.643
643.80 1.643
643.90 1.643
644.00 1.643
644.10 1.644
644.20 1.644
644.30 1.644
644.40 1.644
644.50 1.645
644.60 1.645
644.70 1.645
644.80 1.646
644.90 1.646
645.00 1.646
645.10 1.646
645.20 1.647
645.30 1.647
645.40 1.647
645.50 1.647
645.60 1.648
645.70 1.648
645.80 1.648
645.90 1.648
646.00 1.649
646.10 1.649
646.20 1.649
646.30 1.649
646.40 1.65
646.50 1.65
646.60 1.65
646.70 1.65
646.80 1.651
646.90 1.651
647.00 1.651
647.10 1.651
647.20 1.652
647.30 1.652
647.40 1.652
647.50 1.652
647.60 1.653
647.70 1.653
647.80 1.653
647.90 1.653
648.00 1.654
648.10 1.654
648.20 1.654
648.30 1.654
648.40 1.655
648.50 1.655
648.60 1.655
648.70 1.655
648.80 1.656
648.90 1.656
649.00 1.656
649.10 1.656
649.20 1.657
649.30 1.657
649.40 1.657
649.50 1.657
649.60 1.658
649.70 1.658
649.80 1.658
649.90 1.658
650.00 1.659
650.10 1.659
650.20 1.659
650.30 1.659
650.40 1.66
650.50 1.66
650.60 1.66
650.70 1.66
650.80 1.661
650.90 1.661
651.00 1.661
651.10 1.661
651.20 1.661
651.30 1.662
651.40 1.662
651.50 1.662
651.60 1.662
651.70 1.663
651.80 1.663
651.90 1.663
652.00 1.663
652.10 1.664
652.20 1.664
652.30 1.664
652.40 1.664
652.50 1.665
652.60 1.665
652.70 1.665
652.80 1.665
652.90 1.665
653.00 1.666
653.10 1.666
653.20 1.666
653.30 1.666
653.40 1.667
653.50 1.667
653.60 1.667
653.70 1.667
653.80 1.668
653.90 1.668
654.00 1.668
654.10 1.668
654.20 1.668
654.30 1.669
654.40 1.669
654.50 1.669
654.60 1.669
654.70 1.67
654.80 1.67
654.90 1.67
655.00 1.67
655.10 1.67
655.20 1.671
655.30 1.671
655.40 1.671
655.50 1.671
655.60 1.672
655.70 1.672
655.80 1.672
655.90 1.672
656.00 1.672
656.10 1.673
656.20 1.673
656.30 1.673
656.40 1.673
656.50 1.673
656.60 1.674
656.70 1.674
656.80 1.674
656.90 1.674
657.00 1.675
657.10 1.675
657.20 1.675
657.30 1.675
657.40 1.675
657.50 1.676
657.60 1.676
657.70 1.676
657.80 1.676
657.90 1.677
658.00 1.677
658.10 1.677
658.20 1.677
658.30 1.677
658.40 1.678
658.50 1.678
658.60 1.678
658.70 1.678
658.80 1.678
658.90 1.679
659.00 1.679
659.10 1.679
659.20 1.679
659.30 1.679
659.40 1.68
659.50 1.68
659.60 1.68
659.70 1.68
659.80 1.68
659.90 1.681
660.00 1.681
660.10 1.681
660.20 1.681
660.30 1.682
660.40 1.682
660.50 1.682
660.60 1.682
660.70 1.682
660.80 1.683
660.90 1.683
661.00 1.683
661.10 1.683
661.20 1.683
661.30 1.684
661.40 1.684
661.50 1.684
661.60 1.684
661.70 1.684
661.80 1.685
661.90 1.685
662.00 1.685
662.10 1.685
662.20 1.685
662.30 1.685
662.40 1.686
662.50 1.686
662.60 1.686
662.70 1.686
662.80 1.686
662.90 1.687
663.00 1.687
663.10 1.687
663.20 1.687
663.30 1.687
663.40 1.688
663.50 1.688
663.60 1.688
663.70 1.688
663.80 1.688
663.90 1.689
664.00 1.689
664.10 1.689
664.20 1.689
664.30 1.689
664.40 1.689
664.50 1.69
664.60 1.69
664.70 1.69
664.80 1.69
664.90 1.69
665.00 1.691
665.10 1.691
665.20 1.691
665.30 1.691
665.40 1.691
665.50 1.691
665.60 1.692
665.70 1.692
665.80 1.692
665.90 1.692
666.00 1.692
666.10 1.693
666.20 1.693
666.30 1.693
666.40 1.693
666.50 1.693
666.60 1.693
666.70 1.694
666.80 1.694
666.90 1.694
667.00 1.694
667.10 1.694
667.20 1.694
667.30 1.695
667.40 1.695
667.50 1.695
667.60 1.695
667.70 1.695
667.80 1.695
667.90 1.696
668.00 1.696
668.10 1.696
668.20 1.696
668.30 1.696
668.40 1.696
668.50 1.697
668.60 1.697
668.70 1.697
668.80 1.697
668.90 1.697
669.00 1.697
669.10 1.698
669.20 1.698
669.30 1.698
669.40 1.698
669.50 1.698
669.60 1.698
669.70 1.699
669.80 1.699
669.90 1.699
670.00 1.699
670.10 1.699
670.20 1.699
670.30 1.7
670.40 1.7
670.50 1.7
670.60 1.7
670.70 1.7
670.80 1.7
670.90 1.7
671.00 1.701
671.10 1.701
671.20 1.701
671.30 1.701
671.40 1.701
671.50 1.701
671.60 1.702
671.70 1.702
671.80 1.702
671.90 1.702
672.00 1.702
672.10 1.702
672.20 1.702
672.30 1.703
672.40 1.703
672.50 1.703
672.60 1.703
672.70 1.703
672.80 1.703
672.90 1.703
673.00 1.704
673.10 1.704
673.20 1.704
673.30 1.704
673.40 1.704
673.50 1.704
673.60 1.704
673.70 1.705
673.80 1.705
673.90 1.705
674.00 1.705
674.10 1.705
674.20 1.705
674.30 1.705
674.40 1.706
674.50 1.706
674.60 1.706
674.70 1.706
674.80 1.706
674.90 1.706
675.00 1.706
675.10 1.706
675.20 1.707
675.30 1.707
675.40 1.707
675.50 1.707
675.60 1.707
675.70 1.707
675.80 1.707
675.90 1.707
676.00 1.708
676.10 1.708
676.20 1.708
676.30 1.708
676.40 1.708
676.50 1.708
676.60 1.708
676.70 1.708
676.80 1.709
676.90 1.709
677.00 1.709
677.10 1.709
677.20 1.709
677.30 1.709
677.40 1.709
677.50 1.709
677.60 1.71
677.70 1.71
677.80 1.71
677.90 1.71
678.00 1.71
678.10 1.71
678.20 1.71
678.30 1.71
678.40 1.71
678.50 1.711
678.60 1.711
678.70 1.711
678.80 1.711
678.90 1.711
679.00 1.711
679.10 1.711
679.20 1.711
679.30 1.711
679.40 1.712
679.50 1.712
679.60 1.712
679.70 1.712
679.80 1.712
679.90 1.712
680.00 1.712
680.10 1.712
680.20 1.712
680.30 1.713
680.40 1.713
680.50 1.713
680.60 1.713
680.70 1.713
680.80 1.713
680.90 1.713
681.00 1.713
681.10 1.713
681.20 1.713
681.30 1.713
681.40 1.714
681.50 1.714
681.60 1.714
681.70 1.714
681.80 1.714
681.90 1.714
682.00 1.714
682.10 1.714
682.20 1.714
682.30 1.714
682.40 1.714
682.50 1.715
682.60 1.715
682.70 1.715
682.80 1.715
682.90 1.715
683.00 1.715
683.10 1.715
683.20 1.715
683.30 1.715
683.40 1.715
683.50 1.715
683.60 1.715
683.70 1.716
683.80 1.716
683.90 1.716
684.00 1.716
684.10 1.716
684.20 1.716
684.30 1.716
684.40 1.716
684.50 1.716
684.60 1.716
684.70 1.716
684.80 1.716
684.90 1.716
685.00 1.717
685.10 1.717
685.20 1.717
685.30 1.717
685.40 1.717
685.50 1.717
685.60 1.717
685.70 1.717
685.80 1.717
685.90 1.717
686.00 1.717
686.10 1.717
686.20 1.717
686.30 1.717
686.40 1.717
686.50 1.718
686.60 1.718
686.70 1.718
686.80 1.718
686.90 1.718
687.00 1.718
687.10 1.718
687.20 1.718
687.30 1.718
687.40 1.718
687.50 1.718
687.60 1.718
687.70 1.718
687.80 1.718
687.90 1.718
688.00 1.718
688.10 1.718
688.20 1.718
688.30 1.718
688.40 1.718
688.50 1.719
688.60 1.719
688.70 1.719
688.80 1.719
688.90 1.719
689.00 1.719
689.10 1.719
689.20 1.719
689.30 1.719
689.40 1.719
689.50 1.719
689.60 1.719
689.70 1.719
689.80 1.719
689.90 1.719
690.00 1.719
690.10 1.719
690.20 1.719
690.30 1.719
690.40 1.719
690.50 1.719
690.60 1.719
690.70 1.719
690.80 1.719
690.90 1.719
691.00 1.719
691.10 1.719
691.20 1.719
691.30 1.719
691.40 1.719
691.50 1.719
691.60 1.719
691.70 1.719
691.80 1.719
691.90 1.719
692.00 1.719
692.10 1.719
692.20 1.719
692.30 1.719
692.40 1.719
692.50 1.719
692.60 1.719
692.70 1.719
692.80 1.719
692.90 1.719
693.00 1.719
693.10 1.72
693.20 1.72
693.30 1.72
693.40 1.72
693.50 1.72
693.60 1.72
693.70 1.72
693.80 1.72
693.90 1.72
694.00 1.72
694.10 1.72
694.20 1.72
694.30 1.72
694.40 1.72
694.50 1.72
694.60 1.72
694.70 1.72
694.80 1.72
694.90 1.72
695.00 1.72
695.10 1.72
695.20 1.72
695.30 1.72
695.40 1.72
695.50 1.72
695.60 1.72
695.70 1.72
695.80 1.72
695.90 1.72
696.00 1.72
696.10 1.72
696.20 1.719
696.30 1.719
696.40 1.719
696.50 1.719
696.60 1.719
696.70 1.719
696.80 1.719
696.90 1.719
697.00 1.719
697.10 1.719
697.20 1.719
697.30 1.719
697.40 1.719
697.50 1.719
697.60 1.719
697.70 1.719
697.80 1.719
697.90 1.719
698.00 1.719
698.10 1.719
698.20 1.719
698.30 1.719
698.40 1.719
698.50 1.719
698.60 1.719
698.70 1.719
698.80 1.719
698.90 1.719
699.00 1.719
699.10 1.719
699.20 1.719
699.30 1.719
699.40 1.719
699.50 1.719
699.60 1.719
699.70 1.719
699.80 1.719
699.90 1.719
700.00 1.718
700.10 1.718
700.20 1.718
700.30 1.718
700.40 1.718
700.50 1.718
700.60 1.718
700.70 1.718
700.80 1.718
700.90 1.718
701.00 1.718
701.10 1.718
701.20 1.718
701.30 1.718
701.40 1.718
701.50 1.717
701.60 1.717
701.70 1.717
701.80 1.717
701.90 1.717
702.00 1.717
702.10 1.717
702.20 1.717
702.30 1.717
702.40 1.717
702.50 1.717
702.60 1.717
702.70 1.717
702.80 1.717
702.90 1.716
703.00 1.716
703.10 1.716
703.20 1.716
703.30 1.716
703.40 1.716
703.50 1.716
703.60 1.716
703.70 1.716
703.80 1.716
703.90 1.716
704.00 1.716
704.10 1.716
704.20 1.716
704.30 1.715
704.40 1.715
704.50 1.715
704.60 1.715
704.70 1.715
704.80 1.715
704.90 1.715
705.00 1.715
705.10 1.715
705.20 1.715
705.30 1.715
705.40 1.715
705.50 1.714
705.60 1.714
705.70 1.714
705.80 1.714
705.90 1.714
706.00 1.714
706.10 1.714
706.20 1.714
706.30 1.714
706.40 1.713
706.50 1.713
706.60 1.713
706.70 1.713
706.80 1.713
706.90 1.713
707.00 1.713
707.10 1.713
707.20 1.713
707.30 1.712
707.40 1.712
707.50 1.712
707.60 1.712
707.70 1.712
707.80 1.712
707.90 1.712
708.00 1.712
708.10 1.712
708.20 1.711
708.30 1.711
708.40 1.711
708.50 1.711
708.60 1.711
708.70 1.711
708.80 1.711
708.90 1.711
709.00 1.711
709.10 1.71
709.20 1.71
709.30 1.71
709.40 1.71
709.50 1.71
709.60 1.71
709.70 1.71
709.80 1.71
709.90 1.71
710.00 1.709
710.10 1.709
710.20 1.709
710.30 1.709
710.40 1.709
710.50 1.709
710.60 1.708
710.70 1.708
710.80 1.708
710.90 1.708
711.00 1.708
711.10 1.708
711.20 1.708
711.30 1.707
711.40 1.707
711.50 1.707
711.60 1.707
711.70 1.707
711.80 1.707
711.90 1.706
712.00 1.706
712.10 1.706
712.20 1.706
712.30 1.706
712.40 1.706
712.50 1.706
712.60 1.705
712.70 1.705
712.80 1.705
712.90 1.705
713.00 1.705
713.10 1.705
713.20 1.705
713.30 1.704
713.40 1.704
713.50 1.704
713.60 1.704
713.70 1.704
713.80 1.704
713.90 1.703
714.00 1.703
714.10 1.703
714.20 1.703
714.30 1.703
714.40 1.703
714.50 1.703
714.60 1.702
714.70 1.702
714.80 1.702
714.90 1.702
715.00 1.702
715.10 1.702
715.20 1.701
715.30 1.701
715.40 1.701
715.50 1.701
715.60 1.701
715.70 1.7
715.80 1.7
715.90 1.7
716.00 1.7
716.10 1.7
716.20 1.7
716.30 1.699
716.40 1.699
716.50 1.699
716.60 1.699
716.70 1.699
716.80 1.698
716.90 1.698
717.00 1.698
717.10 1.698
717.20 1.698
717.30 1.697
717.40 1.697
717.50 1.697
717.60 1.697
717.70 1.697
717.80 1.696
717.90 1.696
718.00 1.696
718.10 1.696
718.20 1.696
718.30 1.696
718.40 1.695
718.50 1.695
718.60 1.695
718.70 1.695
718.80 1.695
718.90 1.694
719.00 1.694
719.10 1.694
719.20 1.694
719.30 1.694
719.40 1.693
719.50 1.693
719.60 1.693
719.70 1.693
719.80 1.693
719.90 1.693
720.00 1.692
720.10 1.692
720.20 1.692
720.30 1.692
720.40 1.691
720.50 1.691
720.60 1.691
720.70 1.691
720.80 1.691
720.90 1.69
721.00 1.69
721.10 1.69
721.20 1.69
721.30 1.69
721.40 1.689
721.50 1.689
721.60 1.689
721.70 1.689
721.80 1.688
721.90 1.688
722.00 1.688
722.10 1.688
722.20 1.688
722.30 1.687
722.40 1.687
722.50 1.687
722.60 1.687
722.70 1.687
722.80 1.686
722.90 1.686
723.00 1.686
723.10 1.686
723.20 1.685
723.30 1.685
723.40 1.685
723.50 1.685
723.60 1.685
723.70 1.684
723.80 1.684
723.90 1.684
724.00 1.684
724.10 1.684
724.20 1.683
724.30 1.683
724.40 1.683
724.50 1.683
724.60 1.683
724.70 1.682
724.80 1.682
724.90 1.682
725.00 1.682
725.10 1.681
725.20 1.681
725.30 1.681
725.40 1.681
725.50 1.681
725.60 1.68
725.70 1.68
725.80 1.68
725.90 1.68
726.00 1.679
726.10 1.679
726.20 1.679
726.30 1.679
726.40 1.678
726.50 1.678
726.60 1.678
726.70 1.678
726.80 1.678
726.90 1.677
727.00 1.677
727.10 1.677
727.20 1.677
727.30 1.676
727.40 1.676
727.50 1.676
727.60 1.676
727.70 1.675
727.80 1.675
727.90 1.675
728.00 1.675
728.10 1.675
728.20 1.674
728.30 1.674
728.40 1.674
728.50 1.674
728.60 1.673
728.70 1.673
728.80 1.673
728.90 1.673
729.00 1.673
729.10 1.672
729.20 1.672
729.30 1.672
729.40 1.672
729.50 1.671
729.60 1.671
729.70 1.671
729.80 1.671
729.90 1.67
730.00 1.67
730.10 1.67
730.20 1.67
730.30 1.67
730.40 1.669
730.50 1.669
730.60 1.669
730.70 1.669
730.80 1.668
730.90 1.668
731.00 1.668
731.10 1.668
731.20 1.668
731.30 1.667
731.40 1.667
731.50 1.667
731.60 1.667
731.70 1.667
731.80 1.666
731.90 1.666
732.00 1.666
732.10 1.666
732.20 1.665
732.30 1.665
732.40 1.665
732.50 1.665
732.60 1.665
732.70 1.664
732.80 1.664
732.90 1.664
733.00 1.664
733.10 1.663
733.20 1.663
733.30 1.663
733.40 1.663
733.50 1.663
733.60 1.662
733.70 1.662
733.80 1.662
733.90 1.662
734.00 1.661
734.10 1.661
734.20 1.661
734.30 1.661
734.40 1.661
734.50 1.66
734.60 1.66
734.70 1.66
734.80 1.66
734.90 1.659
735.00 1.659
735.10 1.659
735.20 1.659
735.30 1.659
735.40 1.658
735.50 1.658
735.60 1.658
735.70 1.658
735.80 1.657
735.90 1.657
736.00 1.657
736.10 1.657
736.20 1.657
736.30 1.656
736.40 1.656
736.50 1.656
736.60 1.656
736.70 1.656
736.80 1.655
736.90 1.655
737.00 1.655
737.10 1.655
737.20 1.654
737.30 1.654
737.40 1.654
737.50 1.654
737.60 1.654
737.70 1.653
737.80 1.653
737.90 1.653
738.00 1.653
738.10 1.652
738.20 1.652
738.30 1.652
738.40 1.652
738.50 1.652
738.60 1.651
738.70 1.651
738.80 1.651
738.90 1.651
739.00 1.651
739.10 1.65
739.20 1.65
739.30 1.65
739.40 1.65
739.50 1.649
739.60 1.649
739.70 1.649
739.80 1.649
739.90 1.649
740.00 1.648
740.10 1.648
740.20 1.648
740.30 1.648
740.40 1.648
740.50 1.647
740.60 1.647
740.70 1.647
740.80 1.647
740.90 1.647
741.00 1.647
741.10 1.646
741.20 1.646
741.30 1.646
741.40 1.646
741.50 1.646
741.60 1.645
741.70 1.645
741.80 1.645
741.90 1.645
742.00 1.645
742.10 1.645
742.20 1.644
742.30 1.644
742.40 1.644
742.50 1.644
742.60 1.644
742.70 1.643
742.80 1.643
742.90 1.643
743.00 1.643
743.10 1.643
743.20 1.643
743.30 1.642
743.40 1.642
743.50 1.642
743.60 1.642
743.70 1.642
743.80 1.641
743.90 1.641
744.00 1.641
744.10 1.641
744.20 1.641
744.30 1.641
744.40 1.64
744.50 1.64
744.60 1.64
744.70 1.64
744.80 1.64
744.90 1.639
745.00 1.639
745.10 1.639
745.20 1.639
745.30 1.639
745.40 1.639
745.50 1.638
745.60 1.638
745.70 1.638
745.80 1.638
745.90 1.638
746.00 1.637
746.10 1.637
746.20 1.637
746.30 1.637
746.40 1.637
746.50 1.637
746.60 1.636
746.70 1.636
746.80 1.636
746.90 1.636
747.00 1.636
747.10 1.635
747.20 1.635
747.30 1.635
747.40 1.635
747.50 1.635
747.60 1.635
747.70 1.634
747.80 1.634
747.90 1.634
748.00 1.634
748.10 1.634
748.20 1.633
748.30 1.633
748.40 1.633
748.50 1.633
748.60 1.633
748.70 1.633
748.80 1.632
748.90 1.632
749.00 1.632
749.10 1.632
749.20 1.632
749.30 1.631
749.40 1.631
749.50 1.631
749.60 1.631
749.70 1.631
749.80 1.631
749.90 1.63
750.00 1.63
750.10 1.63
750.20 1.63
750.30 1.63
750.40 1.63
750.50 1.629
750.60 1.629
750.70 1.629
750.80 1.629
750.90 1.629
751.00 1.629
751.10 1.629
751.20 1.628
751.30 1.628
751.40 1.628
751.50 1.628
751.60 1.628
751.70 1.628
751.80 1.627
751.90 1.627
752.00 1.627
752.10 1.627
752.20 1.627
752.30 1.627
752.40 1.627
752.50 1.626
752.60 1.626
752.70 1.626
752.80 1.626
752.90 1.626
753.00 1.626
753.10 1.625
753.20 1.625
753.30 1.625
753.40 1.625
753.50 1.625
753.60 1.625
753.70 1.625
753.80 1.624
753.90 1.624
754.00 1.624
754.10 1.624
754.20 1.624
754.30 1.624
754.40 1.624
754.50 1.623
754.60 1.623
754.70 1.623
754.80 1.623
754.90 1.623
755.00 1.623
755.10 1.622
755.20 1.622
755.30 1.622
755.40 1.622
755.50 1.622
755.60 1.622
755.70 1.622
755.80 1.621
755.90 1.621
756.00 1.621
756.10 1.621
756.20 1.621
756.30 1.621
756.40 1.62
756.50 1.62
756.60 1.62
756.70 1.62
756.80 1.62
756.90 1.62
757.00 1.62
757.10 1.619
757.20 1.619
757.30 1.619
757.40 1.619
757.50 1.619
757.60 1.619
757.70 1.619
757.80 1.618
757.90 1.618
758.00 1.618
758.10 1.618
758.20 1.618
758.30 1.618
758.40 1.617
758.50 1.617
758.60 1.617
758.70 1.617
758.80 1.617
758.90 1.617
759.00 1.617
759.10 1.616
759.20 1.616
759.30 1.616
759.40 1.616
759.50 1.616
759.60 1.616
759.70 1.616
759.80 1.615
759.90 1.615
760.00 1.615
760.10 1.615
760.20 1.615
760.30 1.615
760.40 1.615
760.50 1.614
760.60 1.614
760.70 1.614
760.80 1.614
760.90 1.614
761.00 1.614
761.10 1.614
761.20 1.613
761.30 1.613
761.40 1.613
761.50 1.613
761.60 1.613
761.70 1.613
761.80 1.613
761.90 1.613
762.00 1.612
762.10 1.612
762.20 1.612
762.30 1.612
762.40 1.612
762.50 1.612
762.60 1.612
762.70 1.611
762.80 1.611
762.90 1.611
763.00 1.611
763.10 1.611
763.20 1.611
763.30 1.611
763.40 1.611
763.50 1.61
763.60 1.61
763.70 1.61
763.80 1.61
763.90 1.61
764.00 1.61
764.10 1.61
764.20 1.609
764.30 1.609
764.40 1.609
764.50 1.609
764.60 1.609
764.70 1.609
764.80 1.609
764.90 1.609
765.00 1.608
765.10 1.608
765.20 1.608
765.30 1.608
765.40 1.608
765.50 1.608
765.60 1.608
765.70 1.607
765.80 1.607
765.90 1.607
766.00 1.607
766.10 1.607
766.20 1.607
766.30 1.607
766.40 1.607
766.50 1.606
766.60 1.606
766.70 1.606
766.80 1.606
766.90 1.606
767.00 1.606
767.10 1.606
767.20 1.605
767.30 1.605
767.40 1.605
767.50 1.605
767.60 1.605
767.70 1.605
767.80 1.605
767.90 1.605
768.00 1.604
768.10 1.604
768.20 1.604
768.30 1.604
768.40 1.604
768.50 1.604
768.60 1.604
768.70 1.604
768.80 1.603
768.90 1.603
769.00 1.603
769.10 1.603
769.20 1.603
769.30 1.603
769.40 1.603
769.50 1.602
769.60 1.602
769.70 1.602
769.80 1.602
769.90 1.602
770.00 1.602
770.10 1.602
770.20 1.602
770.30 1.601
770.40 1.601
770.50 1.601
770.60 1.601
770.70 1.601
770.80 1.601
770.90 1.601
771.00 1.601
771.10 1.601
771.20 1.601
771.30 1.601
771.40 1.6
771.50 1.6
771.60 1.6
771.70 1.6
771.80 1.6
771.90 1.6
772.00 1.6
772.10 1.6
772.20 1.6
772.30 1.6
772.40 1.599
772.50 1.599
772.60 1.599
772.70 1.599
772.80 1.599
772.90 1.599
773.00 1.599
773.10 1.599
773.20 1.599
773.30 1.599
773.40 1.599
773.50 1.598
773.60 1.598
773.70 1.598
773.80 1.598
773.90 1.598
774.00 1.598
774.10 1.598
774.20 1.598
774.30 1.598
774.40 1.598
774.50 1.597
774.60 1.597
774.70 1.597
774.80 1.597
774.90 1.597
775.00 1.597
775.10 1.597
775.20 1.597
775.30 1.597
775.40 1.597
775.50 1.596
775.60 1.596
775.70 1.596
775.80 1.596
775.90 1.596
776.00 1.596
776.10 1.596
776.20 1.596
776.30 1.596
776.40 1.596
776.50 1.596
776.60 1.595
776.70 1.595
776.80 1.595
776.90 1.595
777.00 1.595
777.10 1.595
777.20 1.595
777.30 1.595
777.40 1.595
777.50 1.595
777.60 1.594
777.70 1.594
777.80 1.594
777.90 1.594
778.00 1.594
778.10 1.594
778.20 1.594
778.30 1.594
778.40 1.594
778.50 1.594
778.60 1.594
778.70 1.593
778.80 1.593
778.90 1.593
779.00 1.593
779.10 1.593
779.20 1.593
779.30 1.593
779.40 1.593
779.50 1.593
779.60 1.593
779.70 1.592
779.80 1.592
779.90 1.592
780.00 1.592
780.10 1.592
780.20 1.592
780.30 1.592
780.40 1.592
780.50 1.592
780.60 1.592
780.70 1.592
780.80 1.592
780.90 1.592
781.00 1.592
781.10 1.592
781.20 1.592
781.30 1.592
781.40 1.592
781.50 1.591
781.60 1.591
781.70 1.591
781.80 1.591
781.90 1.591
782.00 1.591
782.10 1.591
782.20 1.591
782.30 1.591
782.40 1.591
782.50 1.591
782.60 1.591
782.70 1.591
782.80 1.591
782.90 1.591
783.00 1.591
783.10 1.591
783.20 1.591
783.30 1.591
783.40 1.591
783.50 1.59
783.60 1.59
783.70 1.59
783.80 1.59
783.90 1.59
784.00 1.59
784.10 1.59
784.20 1.59
784.30 1.59
784.40 1.59
784.50 1.59
784.60 1.59
784.70 1.59
784.80 1.59
784.90 1.59
785.00 1.59
785.10 1.59
785.20 1.59
785.30 1.59
785.40 1.59
785.50 1.59
785.60 1.589
785.70 1.589
785.80 1.589
785.90 1.589
786.00 1.589
786.10 1.589
786.20 1.589
786.30 1.589
786.40 1.589
786.50 1.589
786.60 1.589
786.70 1.589
786.80 1.589
786.90 1.589
787.00 1.589
787.10 1.589
787.20 1.589
787.30 1.589
787.40 1.589
787.50 1.589
787.60 1.588
787.70 1.588
787.80 1.588
787.90 1.588
788.00 1.588
788.10 1.588
788.20 1.588
788.30 1.588
788.40 1.588
788.50 1.588
788.60 1.588
788.70 1.588
788.80 1.588
788.90 1.588
789.00 1.588
789.10 1.588
789.20 1.588
789.30 1.588
789.40 1.588
789.50 1.588
789.60 1.587
789.70 1.587
789.80 1.587
789.90 1.587
790.00 1.587
790.10 1.587
790.20 1.587
790.30 1.587
790.40 1.587
790.50 1.587
790.60 1.587
790.70 1.587
790.80 1.587
790.90 1.587
791.00 1.587
791.10 1.587
791.20 1.587
791.30 1.587
791.40 1.587
791.50 1.587
791.60 1.587
791.70 1.587
791.80 1.587
791.90 1.587
792.00 1.586
792.10 1.586
792.20 1.586
792.30 1.586
792.40 1.586
792.50 1.586
792.60 1.586
792.70 1.586
792.80 1.586
792.90 1.586
793.00 1.586
793.10 1.586
793.20 1.586
793.30 1.586
793.40 1.586
793.50 1.586
793.60 1.586
793.70 1.586
793.80 1.586
793.90 1.586
794.00 1.586
794.10 1.586
794.20 1.586
794.30 1.585
794.40 1.585
794.50 1.585
794.60 1.585
794.70 1.585
794.80 1.585
794.90 1.585
795.00 1.585
795.10 1.585
795.20 1.585
795.30 1.585
795.40 1.585
795.50 1.585
795.60 1.585
795.70 1.585
795.80 1.585
795.90 1.585
796.00 1.585
796.10 1.585
796.20 1.585
796.30 1.585
796.40 1.585
796.50 1.585
796.60 1.585
796.70 1.584
796.80 1.584
796.90 1.584
797.00 1.584
797.10 1.584
797.20 1.584
797.30 1.584
797.40 1.584
797.50 1.584
797.60 1.584
797.70 1.584
797.80 1.584
797.90 1.584
798.00 1.584
798.10 1.584
798.20 1.584
798.30 1.584
798.40 1.584
798.50 1.584
798.60 1.584
798.70 1.584
798.80 1.584
798.90 1.584
799.00 1.583
799.10 1.583
799.20 1.583
799.30 1.583
799.40 1.583
799.50 1.583
799.60 1.583
799.70 1.583
799.80 1.583
799.90 1.583
800.00 1.583
800.10 1.583
800.20 1.583
800.30 1.583
800.40 1.583
800.50 1.583
800.60 1.583
800.70 1.582
800.80 1.582
800.90 1.582
801.00 1.582
801.10 1.582
801.20 1.582
801.30 1.582
801.40 1.582
801.50 1.582
801.60 1.582
801.70 1.582
801.80 1.581
801.90 1.581
802.00 1.581
802.10 1.581
802.20 1.581
802.30 1.581
802.40 1.581
802.50 1.581
802.60 1.581
802.70 1.581
802.80 1.581
802.90 1.58
803.00 1.58
803.10 1.58
803.20 1.58
803.30 1.58
803.40 1.58
803.50 1.58
803.60 1.58
803.70 1.58
803.80 1.58
803.90 1.58
804.00 1.58
804.10 1.579
804.20 1.579
804.30 1.579
804.40 1.579
804.50 1.579
804.60 1.579
804.70 1.579
804.80 1.579
804.90 1.579
805.00 1.579
805.10 1.579
805.20 1.578
805.30 1.578
805.40 1.578
805.50 1.578
805.60 1.578
805.70 1.578
805.80 1.578
805.90 1.578
806.00 1.578
806.10 1.578
806.20 1.578
806.30 1.578
806.40 1.577
806.50 1.577
806.60 1.577
806.70 1.577
806.80 1.577
806.90 1.577
807.00 1.577
807.10 1.577
807.20 1.577
807.30 1.577
807.40 1.577
807.50 1.576
807.60 1.576
807.70 1.576
807.80 1.576
807.90 1.576
808.00 1.576
808.10 1.576
808.20 1.576
808.30 1.576
808.40 1.576
808.50 1.576
808.60 1.575
808.70 1.575
808.80 1.575
808.90 1.575
809.00 1.575
809.10 1.575
809.20 1.575
809.30 1.575
809.40 1.575
809.50 1.575
809.60 1.575
809.70 1.575
809.80 1.574
809.90 1.574
810.00 1.574
810.10 1.574
810.20 1.574
810.30 1.574
810.40 1.574
810.50 1.573
810.60 1.573
810.70 1.573
810.80 1.573
810.90 1.573
811.00 1.573
811.10 1.573
811.20 1.572
811.30 1.572
811.40 1.572
811.50 1.572
811.60 1.572
811.70 1.572
811.80 1.572
811.90 1.571
812.00 1.571
812.10 1.571
812.20 1.571
812.30 1.571
812.40 1.571
812.50 1.57
812.60 1.57
812.70 1.57
812.80 1.57
812.90 1.57
813.00 1.57
813.10 1.57
813.20 1.569
813.30 1.569
813.40 1.569
813.50 1.569
813.60 1.569
813.70 1.569
813.80 1.569
813.90 1.568
814.00 1.568
814.10 1.568
814.20 1.568
814.30 1.568
814.40 1.568
814.50 1.567
814.60 1.567
814.70 1.567
814.80 1.567
814.90 1.567
815.00 1.567
815.10 1.567
815.20 1.566
815.30 1.566
815.40 1.566
815.50 1.566
815.60 1.566
815.70 1.566
815.80 1.566
815.90 1.565
816.00 1.565
816.10 1.565
816.20 1.565
816.30 1.565
816.40 1.565
816.50 1.564
816.60 1.564
816.70 1.564
816.80 1.564
816.90 1.564
817.00 1.564
817.10 1.564
817.20 1.563
817.30 1.563
817.40 1.563
817.50 1.563
817.60 1.563
817.70 1.563
817.80 1.563
817.90 1.562
818.00 1.562
818.10 1.562
818.20 1.562
818.30 1.562
818.40 1.562
818.50 1.561
818.60 1.561
818.70 1.561
818.80 1.561
818.90 1.561
819.00 1.561
819.10 1.561
819.20 1.56
819.30 1.56
819.40 1.56
819.50 1.56
819.60 1.56
819.70 1.56
819.80 1.56
819.90 1.559
820.00 1.559
820.10 1.559
820.20 1.559
820.30 1.559
820.40 1.559
820.50 1.558
820.60 1.558
820.70 1.558
820.80 1.558
820.90 1.558
821.00 1.558
821.10 1.557
821.20 1.557
821.30 1.557
821.40 1.557
821.50 1.557
821.60 1.556
821.70 1.556
821.80 1.556
821.90 1.556
822.00 1.556
822.10 1.556
822.20 1.555
822.30 1.555
822.40 1.555
822.50 1.555
822.60 1.555
822.70 1.554
822.80 1.554
822.90 1.554
823.00 1.554
823.10 1.554
823.20 1.553
823.30 1.553
823.40 1.553
823.50 1.553
823.60 1.553
823.70 1.552
823.80 1.552
823.90 1.552
824.00 1.552
824.10 1.552
824.20 1.552
824.30 1.551
824.40 1.551
824.50 1.551
824.60 1.551
824.70 1.551
824.80 1.55
824.90 1.55
825.00 1.55
825.10 1.55
825.20 1.55
825.30 1.549
825.40 1.549
825.50 1.549
825.60 1.549
825.70 1.549
825.80 1.549
825.90 1.548
826.00 1.548
826.10 1.548
826.20 1.548
826.30 1.548
826.40 1.547
826.50 1.547
826.60 1.547
826.70 1.547
826.80 1.547
826.90 1.546
827.00 1.546
827.10 1.546
827.20 1.546
827.30 1.546
827.40 1.545
827.50 1.545
827.60 1.545
827.70 1.545
827.80 1.545
827.90 1.544
828.00 1.544
828.10 1.544
828.20 1.544
828.30 1.543
828.40 1.543
828.50 1.543
828.60 1.543
828.70 1.543
828.80 1.542
828.90 1.542
829.00 1.542
829.10 1.542
829.20 1.542
829.30 1.541
829.40 1.541
829.50 1.541
829.60 1.541
829.70 1.541
829.80 1.54
829.90 1.54
830.00 1.54
830.10 1.54
830.20 1.54
830.30 1.539
830.40 1.539
830.50 1.539
830.60 1.539
830.70 1.538
830.80 1.538
830.90 1.538
831.00 1.538
831.10 1.538
831.20 1.537
831.30 1.537
831.40 1.537
831.50 1.537
831.60 1.537
831.70 1.536
831.80 1.536
831.90 1.536
832.00 1.536
832.10 1.536
832.20 1.535
832.30 1.535
832.40 1.535
832.50 1.535
832.60 1.534
832.70 1.534
832.80 1.534
832.90 1.534
833.00 1.534
833.10 1.533
833.20 1.533
833.30 1.533
833.40 1.533
833.50 1.532
833.60 1.532
833.70 1.532
833.80 1.532
833.90 1.532
834.00 1.531
834.10 1.531
834.20 1.531
834.30 1.531
834.40 1.53
834.50 1.53
834.60 1.53
834.70 1.53
834.80 1.53
834.90 1.529
835.00 1.529
835.10 1.529
835.20 1.529
835.30 1.528
835.40 1.528
835.50 1.528
835.60 1.528
835.70 1.528
835.80 1.527
835.90 1.527
836.00 1.527
836.10 1.527
836.20 1.527
836.30 1.526
836.40 1.526
836.50 1.526
836.60 1.526
836.70 1.525
836.80 1.525
836.90 1.525
837.00 1.525
837.10 1.525
837.20 1.524
837.30 1.524
837.40 1.524
837.50 1.524
837.60 1.523
837.70 1.523
837.80 1.523
837.90 1.523
838.00 1.522
838.10 1.522
838.20 1.522
838.30 1.522
838.40 1.521
838.50 1.521
838.60 1.521
838.70 1.521
838.80 1.521
838.90 1.52
839.00 1.52
839.10 1.52
839.20 1.52
839.30 1.519
839.40 1.519
839.50 1.519
839.60 1.519
839.70 1.518
839.80 1.518
839.90 1.518
840.00 1.518
840.10 1.517
840.20 1.517
840.30 1.517
840.40 1.517
840.50 1.517
840.60 1.516
840.70 1.516
840.80 1.516
840.90 1.516
841.00 1.515
841.10 1.515
841.20 1.515
841.30 1.515
841.40 1.514
841.50 1.514
841.60 1.514
841.70 1.514
841.80 1.513
841.90 1.513
842.00 1.513
842.10 1.513
842.20 1.513
842.30 1.512
842.40 1.512
842.50 1.512
842.60 1.512
842.70 1.511
842.80 1.511
842.90 1.511
843.00 1.511
843.10 1.51
843.20 1.51
843.30 1.51
843.40 1.51
843.50 1.509
843.60 1.509
843.70 1.509
843.80 1.509
843.90 1.508
844.00 1.508
844.10 1.508
844.20 1.508
844.30 1.507
844.40 1.507
844.50 1.507
844.60 1.507
844.70 1.506
844.80 1.506
844.90 1.506
845.00 1.506
845.10 1.505
845.20 1.505
845.30 1.505
845.40 1.505
845.50 1.504
845.60 1.504
845.70 1.504
845.80 1.504
845.90 1.503
846.00 1.503
846.10 1.503
846.20 1.503
846.30 1.502
846.40 1.502
846.50 1.502
846.60 1.502
846.70 1.501
846.80 1.501
846.90 1.501
847.00 1.501
847.10 1.5
847.20 1.5
847.30 1.5
847.40 1.5
847.50 1.499
847.60 1.499
847.70 1.499
847.80 1.499
847.90 1.498
848.00 1.498
848.10 1.498
848.20 1.498
848.30 1.497
848.40 1.497
848.50 1.497
848.60 1.496
848.70 1.496
848.80 1.496
848.90 1.496
849.00 1.495
849.10 1.495
849.20 1.495
849.30 1.495
849.40 1.494
849.50 1.494
849.60 1.494
849.70 1.494
849.80 1.493
849.90 1.493
850.00 1.493
850.10 1.493
850.20 1.492
850.30 1.492
850.40 1.492
850.50 1.492
850.60 1.491
850.70 1.491
850.80 1.491
850.90 1.491
851.00 1.49
851.10 1.49
851.20 1.49
851.30 1.49
851.40 1.489
851.50 1.489
851.60 1.489
851.70 1.488
851.80 1.488
851.90 1.488
852.00 1.488
852.10 1.487
852.20 1.487
852.30 1.487
852.40 1.487
852.50 1.486
852.60 1.486
852.70 1.486
852.80 1.485
852.90 1.485
853.00 1.485
853.10 1.485
853.20 1.484
853.30 1.484
853.40 1.484
853.50 1.484
853.60 1.483
853.70 1.483
853.80 1.483
853.90 1.482
854.00 1.482
854.10 1.482
854.20 1.482
854.30 1.481
854.40 1.481
854.50 1.481
854.60 1.481
854.70 1.48
854.80 1.48
854.90 1.48
855.00 1.479
855.10 1.479
855.20 1.479
855.30 1.479
855.40 1.478
855.50 1.478
855.60 1.478
855.70 1.478
855.80 1.477
855.90 1.477
856.00 1.477
856.10 1.476
856.20 1.476
856.30 1.476
856.40 1.476
856.50 1.475
856.60 1.475
856.70 1.475
856.80 1.474
856.90 1.474
857.00 1.474
857.10 1.474
857.20 1.473
857.30 1.473
857.40 1.473
857.50 1.472
857.60 1.472
857.70 1.472
857.80 1.472
857.90 1.471
858.00 1.471
858.10 1.471
858.20 1.47
858.30 1.47
858.40 1.47
858.50 1.47
858.60 1.469
858.70 1.469
858.80 1.469
858.90 1.468
859.00 1.468
859.10 1.468
859.20 1.468
859.30 1.467
859.40 1.467
859.50 1.467
859.60 1.466
859.70 1.466
859.80 1.466
859.90 1.466
860.00 1.465
860.10 1.465
860.20 1.465
860.30 1.464
860.40 1.464
860.50 1.464
860.60 1.464
860.70 1.463
860.80 1.463
860.90 1.463
861.00 1.462
861.10 1.462
861.20 1.462
861.30 1.462
861.40 1.461
861.50 1.461
861.60 1.461
861.70 1.46
861.80 1.46
861.90 1.46
862.00 1.46
862.10 1.459
862.20 1.459
862.30 1.459
862.40 1.458
862.50 1.458
862.60 1.458
862.70 1.457
862.80 1.457
862.90 1.457
863.00 1.456
863.10 1.456
863.20 1.456
863.30 1.456
863.40 1.455
863.50 1.455
863.60 1.455
863.70 1.454
863.80 1.454
863.90 1.454
864.00 1.453
864.10 1.453
864.20 1.453
864.30 1.453
864.40 1.452
864.50 1.452
864.60 1.452
864.70 1.451
864.80 1.451
864.90 1.451
865.00 1.45
865.10 1.45
865.20 1.45
865.30 1.449
865.40 1.449
865.50 1.449
865.60 1.449
865.70 1.448
865.80 1.448
865.90 1.448
866.00 1.447
866.10 1.447
866.20 1.447
866.30 1.446
866.40 1.446
866.50 1.446
866.60 1.446
866.70 1.445
866.80 1.445
866.90 1.445
867.00 1.444
867.10 1.444
867.20 1.444
867.30 1.443
867.40 1.443
867.50 1.443
867.60 1.442
867.70 1.442
867.80 1.442
867.90 1.441
868.00 1.441
868.10 1.441
868.20 1.44
868.30 1.44
868.40 1.44
868.50 1.439
868.60 1.439
868.70 1.439
868.80 1.438
868.90 1.438
869.00 1.438
869.10 1.437
869.20 1.437
869.30 1.437
869.40 1.436
869.50 1.436
869.60 1.436
869.70 1.435
869.80 1.435
869.90 1.435
870.00 1.434
870.10 1.434
870.20 1.434
870.30 1.433
870.40 1.433
870.50 1.433
870.60 1.433
870.70 1.432
870.80 1.432
870.90 1.432
871.00 1.431
871.10 1.431
871.20 1.431
871.30 1.43
871.40 1.43
871.50 1.43
871.60 1.429
871.70 1.429
871.80 1.429
871.90 1.428
872.00 1.428
872.10 1.428
872.20 1.427
872.30 1.427
872.40 1.427
872.50 1.426
872.60 1.426
872.70 1.425
872.80 1.425
872.90 1.425
873.00 1.424
873.10 1.424
873.20 1.424
873.30 1.423
873.40 1.423
873.50 1.423
873.60 1.422
873.70 1.422
873.80 1.422
873.90 1.421
874.00 1.421
874.10 1.421
874.20 1.42
874.30 1.42
874.40 1.419
874.50 1.419
874.60 1.419
874.70 1.418
874.80 1.418
874.90 1.418
875.00 1.417
875.10 1.417
875.20 1.417
875.30 1.416
875.40 1.416
875.50 1.416
875.60 1.415
875.70 1.415
875.80 1.415
875.90 1.414
876.00 1.414
876.10 1.414
876.20 1.413
876.30 1.413
876.40 1.412
876.50 1.412
876.60 1.412
876.70 1.411
876.80 1.411
876.90 1.411
877.00 1.41
877.10 1.41
877.20 1.41
877.30 1.409
877.40 1.409
877.50 1.408
877.60 1.408
877.70 1.408
877.80 1.407
877.90 1.407
878.00 1.407
878.10 1.406
878.20 1.406
878.30 1.405
878.40 1.405
878.50 1.405
878.60 1.404
878.70 1.404
878.80 1.403
878.90 1.403
879.00 1.403
879.10 1.402
879.20 1.402
879.30 1.402
879.40 1.401
879.50 1.401
879.60 1.4
879.70 1.4
879.80 1.4
879.90 1.399
880.00 1.399
880.10 1.399
880.20 1.398
880.30 1.398
880.40 1.397
880.50 1.397
880.60 1.397
880.70 1.396
880.80 1.396
880.90 1.395
881.00 1.395
881.10 1.395
881.20 1.394
881.30 1.394
881.40 1.394
881.50 1.393
881.60 1.393
881.70 1.392
881.80 1.392
881.90 1.392
882.00 1.391
882.10 1.391
882.20 1.391
882.30 1.39
882.40 1.39
882.50 1.389
882.60 1.389
882.70 1.388
882.80 1.388
882.90 1.388
883.00 1.387
883.10 1.387
883.20 1.386
883.30 1.386
883.40 1.386
883.50 1.385
883.60 1.385
883.70 1.384
883.80 1.384
883.90 1.384
884.00 1.383
884.10 1.383
884.20 1.382
884.30 1.382
884.40 1.381
884.50 1.381
884.60 1.381
884.70 1.38
884.80 1.38
884.90 1.379
885.00 1.379
885.10 1.379
885.20 1.378
885.30 1.378
885.40 1.377
885.50 1.377
885.60 1.377
885.70 1.376
885.80 1.376
885.90 1.375
886.00 1.375
886.10 1.375
886.20 1.374
886.30 1.374
886.40 1.373
886.50 1.373
886.60 1.372
886.70 1.372
886.80 1.372
886.90 1.371
887.00 1.371
887.10 1.37
887.20 1.37
887.30 1.369
887.40 1.369
887.50 1.369
887.60 1.368
887.70 1.368
887.80 1.367
887.90 1.367
888.00 1.366
888.10 1.366
888.20 1.365
888.30 1.365
888.40 1.365
888.50 1.364
888.60 1.364
888.70 1.363
888.80 1.363
888.90 1.362
889.00 1.362
889.10 1.361
889.20 1.361
889.30 1.361
889.40 1.36
889.50 1.36
889.60 1.359
889.70 1.359
889.80 1.358
889.90 1.358
890.00 1.357
890.10 1.357
890.20 1.357
890.30 1.356
890.40 1.356
890.50 1.355
890.60 1.355
890.70 1.354
890.80 1.354
890.90 1.353
891.00 1.353
891.10 1.353
891.20 1.352
891.30 1.352
891.40 1.351
891.50 1.351
891.60 1.35
891.70 1.35
891.80 1.35
891.90 1.349
892.00 1.349
892.10 1.348
892.20 1.348
892.30 1.347
892.40 1.347
892.50 1.346
892.60 1.346
892.70 1.345
892.80 1.345
892.90 1.345
893.00 1.344
893.10 1.344
893.20 1.343
893.30 1.343
893.40 1.342
893.50 1.342
893.60 1.341
893.70 1.341
893.80 1.34
893.90 1.34
894.00 1.34
894.10 1.339
894.20 1.339
894.30 1.338
894.40 1.338
894.50 1.337
894.60 1.337
894.70 1.336
894.80 1.336
894.90 1.335
895.00 1.335
895.10 1.335
895.20 1.334
895.30 1.334
895.40 1.333
895.50 1.333
895.60 1.332
895.70 1.332
895.80 1.331
895.90 1.331
896.00 1.33
896.10 1.33
896.20 1.33
896.30 1.329
896.40 1.329
896.50 1.328
896.60 1.328
896.70 1.327
896.80 1.327
896.90 1.326
897.00 1.326
897.10 1.325
897.20 1.325
897.30 1.324
897.40 1.324
897.50 1.323
897.60 1.323
897.70 1.322
897.80 1.322
897.90 1.321
898.00 1.321
898.10 1.32
898.20 1.32
898.30 1.319
898.40 1.319
898.50 1.318
898.60 1.318
898.70 1.317
898.80 1.317
898.90 1.316
899.00 1.316
899.10 1.315
899.20 1.315
899.30 1.314
899.40 1.314
899.50 1.313
899.60 1.313
899.70 1.312
899.80 1.312
899.90 1.311
900.00 1.311
900.10 1.31
900.20 1.31
900.30 1.309
900.40 1.309
900.50 1.308
900.60 1.307
900.70 1.307
900.80 1.306
900.90 1.306
901.00 1.305
901.10 1.305
901.20 1.304
901.30 1.304
901.40 1.303
901.50 1.303
901.60 1.302
901.70 1.302
901.80 1.301
901.90 1.301
902.00 1.3
902.10 1.3
902.20 1.299
902.30 1.299
902.40 1.298
902.50 1.297
902.60 1.297
902.70 1.296
902.80 1.296
902.90 1.295
903.00 1.294
903.10 1.294
903.20 1.293
903.30 1.293
903.40 1.292
903.50 1.291
903.60 1.291
903.70 1.29
903.80 1.29
903.90 1.289
904.00 1.288
904.10 1.288
904.20 1.287
904.30 1.287
904.40 1.286
904.50 1.286
904.60 1.285
904.70 1.284
904.80 1.284
904.90 1.283
905.00 1.283
905.10 1.282
905.20 1.281
905.30 1.281
905.40 1.28
905.50 1.28
905.60 1.279
905.70 1.278
905.80 1.278
905.90 1.277
906.00 1.277
906.10 1.276
906.20 1.275
906.30 1.275
906.40 1.274
906.50 1.274
906.60 1.273
906.70 1.273
906.80 1.272
906.90 1.271
907.00 1.271
907.10 1.27
907.20 1.27
907.30 1.269
907.40 1.268
907.50 1.268
907.60 1.267
907.70 1.267
907.80 1.266
907.90 1.266
908.00 1.265
908.10 1.264
908.20 1.264
908.30 1.263
908.40 1.263
908.50 1.262
908.60 1.261
908.70 1.261
908.80 1.26
908.90 1.26
909.00 1.259
909.10 1.259
909.20 1.258
909.30 1.257
909.40 1.257
909.50 1.256
909.60 1.256
909.70 1.255
909.80 1.255
909.90 1.254
910.00 1.253
910.10 1.253
910.20 1.252
910.30 1.252
910.40 1.251
910.50 1.251
910.60 1.25
910.70 1.249
910.80 1.249
910.90 1.248
911.00 1.248
911.10 1.247
911.20 1.246
911.30 1.246
911.40 1.245
911.50 1.245
911.60 1.244
911.70 1.244
911.80 1.243
911.90 1.242
912.00 1.242
912.10 1.241
912.20 1.241
912.30 1.24
912.40 1.24
912.50 1.239
912.60 1.238
912.70 1.238
912.80 1.237
912.90 1.237
913.00 1.236
913.10 1.236
913.20 1.235
913.30 1.234
913.40 1.234
913.50 1.233
913.60 1.233
913.70 1.232
913.80 1.231
913.90 1.231
914.00 1.23
914.10 1.23
914.20 1.229
914.30 1.229
914.40 1.228
914.50 1.227
914.60 1.227
914.70 1.226
914.80 1.226
914.90 1.225
915.00 1.225
915.10 1.224
915.20 1.223
915.30 1.223
915.40 1.222
915.50 1.222
915.60 1.221
915.70 1.221
915.80 1.22
915.90 1.219
916.00 1.219
916.10 1.218
916.20 1.218
916.30 1.217
916.40 1.217
916.50 1.216
916.60 1.215
916.70 1.215
916.80 1.214
916.90 1.214
917.00 1.213
917.10 1.213
917.20 1.212
917.30 1.211
917.40 1.211
917.50 1.21
917.60 1.209
917.70 1.209
917.80 1.208
917.90 1.208
918.00 1.207
918.10 1.206
918.20 1.206
918.30 1.205
918.40 1.205
918.50 1.204
918.60 1.203
918.70 1.203
918.80 1.202
918.90 1.201
919.00 1.201
919.10 1.2
919.20 1.2
919.30 1.199
919.40 1.198
919.50 1.198
919.60 1.197
919.70 1.197
919.80 1.196
919.90 1.195
920.00 1.195
920.10 1.194
920.20 1.193
920.30 1.193
920.40 1.192
920.50 1.192
920.60 1.191
920.70 1.19
920.80 1.19
920.90 1.189
921.00 1.189
921.10 1.188
921.20 1.187
921.30 1.187
921.40 1.186
921.50 1.186
921.60 1.185
921.70 1.184
921.80 1.184
921.90 1.183
922.00 1.183
922.10 1.182
922.20 1.181
922.30 1.181
922.40 1.18
922.50 1.179
922.60 1.179
922.70 1.178
922.80 1.177
922.90 1.177
923.00 1.176
923.10 1.175
923.20 1.175
923.30 1.174
923.40 1.174
923.50 1.173
923.60 1.172
923.70 1.172
923.80 1.171
923.90 1.17
924.00 1.17
924.10 1.169
924.20 1.169
924.30 1.168
924.40 1.167
924.50 1.167
924.60 1.166
924.70 1.165
924.80 1.165
924.90 1.164
925.00 1.163
925.10 1.163
925.20 1.162
925.30 1.162
925.40 1.161
925.50 1.16
925.60 1.16
925.70 1.159
925.80 1.158
925.90 1.158
926.00 1.157
926.10 1.156
926.20 1.156
926.30 1.155
926.40 1.155
926.50 1.154
926.60 1.153
926.70 1.153
926.80 1.152
926.90 1.151
927.00 1.151
927.10 1.15
927.20 1.15
927.30 1.149
927.40 1.148
927.50 1.148
927.60 1.147
927.70 1.146
927.80 1.146
927.90 1.145
928.00 1.144
928.10 1.144
928.20 1.143
928.30 1.142
928.40 1.142
928.50 1.141
928.60 1.14
928.70 1.14
928.80 1.139
928.90 1.138
929.00 1.138
929.10 1.137
929.20 1.136
929.30 1.136
929.40 1.135
929.50 1.135
929.60 1.134
929.70 1.133
929.80 1.133
929.90 1.132
930.00 1.131
930.10 1.131
930.20 1.13
930.30 1.129
930.40 1.129
930.50 1.128
930.60 1.127
930.70 1.127
930.80 1.126
930.90 1.125
931.00 1.125
931.10 1.124
931.20 1.124
931.30 1.123
931.40 1.122
931.50 1.122
931.60 1.121
931.70 1.12
931.80 1.12
931.90 1.119
932.00 1.118
932.10 1.118
932.20 1.117
932.30 1.116
932.40 1.116
932.50 1.115
932.60 1.114
932.70 1.114
932.80 1.113
932.90 1.112
933.00 1.112
933.10 1.111
933.20 1.11
933.30 1.11
933.40 1.109
933.50 1.108
933.60 1.108
933.70 1.107
933.80 1.106
933.90 1.106
934.00 1.105
934.10 1.105
934.20 1.104
934.30 1.103
934.40 1.103
934.50 1.102
934.60 1.101
934.70 1.101
934.80 1.1
934.90 1.099
935.00 1.098
935.10 1.098
935.20 1.097
935.30 1.096
935.40 1.096
935.50 1.095
935.60 1.094
935.70 1.094
935.80 1.093
935.90 1.092
936.00 1.092
936.10 1.091
936.20 1.09
936.30 1.09
936.40 1.089
936.50 1.089
936.60 1.088
936.70 1.087
936.80 1.087
936.90 1.086
937.00 1.085
937.10 1.085
937.20 1.084
937.30 1.083
937.40 1.082
937.50 1.082
937.60 1.081
937.70 1.08
937.80 1.08
937.90 1.079
938.00 1.078
938.10 1.078
938.20 1.077
938.30 1.076
938.40 1.076
938.50 1.075
938.60 1.074
938.70 1.074
938.80 1.073
938.90 1.072
939.00 1.072
939.10 1.071
939.20 1.07
939.30 1.07
939.40 1.069
939.50 1.068
939.60 1.068
939.70 1.067
939.80 1.066
939.90 1.066
940.00 1.065
940.10 1.064
940.20 1.064
940.30 1.063
940.40 1.062
940.50 1.061
940.60 1.061
940.70 1.06
940.80 1.059
940.90 1.059
941.00 1.058
941.10 1.057
941.20 1.057
941.30 1.056
941.40 1.055
941.50 1.055
941.60 1.054
941.70 1.053
941.80 1.053
941.90 1.052
942.00 1.051
942.10 1.051
942.20 1.05
942.30 1.049
942.40 1.049
942.50 1.048
942.60 1.047
942.70 1.047
942.80 1.046
942.90 1.045
943.00 1.045
943.10 1.044
943.20 1.043
943.30 1.043
943.40 1.042
943.50 1.041
943.60 1.041
943.70 1.04
943.80 1.039
943.90 1.039
944.00 1.038
944.10 1.037
944.20 1.037
944.30 1.036
944.40 1.035
944.50 1.034
944.60 1.034
944.70 1.033
944.80 1.032
944.90 1.032
945.00 1.031
945.10 1.03
945.20 1.03
945.30 1.029
945.40 1.028
945.50 1.028
945.60 1.027
945.70 1.026
945.80 1.026
945.90 1.025
946.00 1.024
946.10 1.024
946.20 1.023
946.30 1.022
946.40 1.022
946.50 1.021
946.60 1.02
946.70 1.02
946.80 1.019
946.90 1.018
947.00 1.018
947.10 1.017
947.20 1.016
947.30 1.015
947.40 1.015
947.50 1.014
947.60 1.013
947.70 1.013
947.80 1.012
947.90 1.011
948.00 1.011
948.10 1.01
948.20 1.009
948.30 1.009
948.40 1.008
948.50 1.007
948.60 1.007
948.70 1.006
948.80 1.005
948.90 1.005
949.00 1.004
949.10 1.003
949.20 1.002
949.30 1.002
949.40 1.001
949.50 1
949.60 0.9997
949.70 0.9991
949.80 0.9984
949.90 0.9977
950.00 0.997
950.10 0.9964
950.20 0.9957
950.30 0.995
950.40 0.9943
950.50 0.9936
950.60 0.993
950.70 0.9923
950.80 0.9916
950.90 0.9909
951.00 0.9903
951.10 0.9896
951.20 0.9889
951.30 0.9882
951.40 0.9876
951.50 0.9869
951.60 0.9862
951.70 0.9855
951.80 0.9849
951.90 0.9842
952.00 0.9835
952.10 0.9828
952.20 0.9822
952.30 0.9815
952.40 0.9808
952.50 0.9801
952.60 0.9795
952.70 0.9788
952.80 0.9781
952.90 0.9774
953.00 0.9768
953.10 0.9761
953.20 0.9754
953.30 0.9747
953.40 0.9741
953.50 0.9734
953.60 0.9727
953.70 0.9721
953.80 0.9714
953.90 0.9707
954.00 0.97
954.10 0.9694
954.20 0.9687
954.30 0.968
954.40 0.9673
954.50 0.9667
954.60 0.966
954.70 0.9653
954.80 0.9646
954.90 0.964
955.00 0.9633
955.10 0.9626
955.20 0.962
955.30 0.9613
955.40 0.9606
955.50 0.9599
955.60 0.9593
955.70 0.9586
955.80 0.9579
955.90 0.9573
956.00 0.9566
956.10 0.9559
956.20 0.9552
956.30 0.9545
956.40 0.9538
956.50 0.9531
956.60 0.9525
956.70 0.9518
956.80 0.9511
956.90 0.9504
957.00 0.9497
957.10 0.9491
957.20 0.9484
957.30 0.9477
957.40 0.947
957.50 0.9464
957.60 0.9457
957.70 0.945
957.80 0.9444
957.90 0.9437
958.00 0.943
958.10 0.9424
958.20 0.9417
958.30 0.941
958.40 0.9404
958.50 0.9397
958.60 0.939
958.70 0.9384
958.80 0.9377
958.90 0.9371
959.00 0.9364
959.10 0.9357
959.20 0.9351
959.30 0.9344
959.40 0.9337
959.50 0.9331
959.60 0.9324
959.70 0.9318
959.80 0.9311
959.90 0.9304
960.00 0.9298
960.10 0.9291
960.20 0.9285
960.30 0.9278
960.40 0.9271
960.50 0.9265
960.60 0.9258
960.70 0.9252
960.80 0.9245
960.90 0.9238
961.00 0.9232
961.10 0.9225
961.20 0.9219
961.30 0.9212
961.40 0.9206
961.50 0.9199
961.60 0.9193
961.70 0.9186
961.80 0.9179
961.90 0.9173
962.00 0.9166
962.10 0.916
962.20 0.9153
962.30 0.9147
962.40 0.914
962.50 0.9134
962.60 0.9127
962.70 0.9121
962.80 0.9114
962.90 0.9108
963.00 0.9101
963.10 0.9095
963.20 0.9088
963.30 0.9082
963.40 0.9075
963.50 0.9069
963.60 0.9062
963.70 0.9056
963.80 0.9049
963.90 0.9043
964.00 0.9036
964.10 0.903
964.20 0.9023
964.30 0.9017
964.40 0.901
964.50 0.9004
964.60 0.8997
964.70 0.899
964.80 0.8984
964.90 0.8977
965.00 0.8971
965.10 0.8964
965.20 0.8958
965.30 0.8951
965.40 0.8945
965.50 0.8938
965.60 0.8932
965.70 0.8925
965.80 0.8919
965.90 0.8912
966.00 0.8906
966.10 0.8899
966.20 0.8893
966.30 0.8886
966.40 0.888
966.50 0.8873
966.60 0.8867
966.70 0.886
966.80 0.8854
966.90 0.8848
967.00 0.8841
967.10 0.8835
967.20 0.8829
967.30 0.8822
967.40 0.8816
967.50 0.881
967.60 0.8803
967.70 0.8797
967.80 0.8791
967.90 0.8784
968.00 0.8778
968.10 0.8772
968.20 0.8765
968.30 0.8759
968.40 0.8753
968.50 0.8746
968.60 0.874
968.70 0.8734
968.80 0.8728
968.90 0.8721
969.00 0.8715
969.10 0.8709
969.20 0.8702
969.30 0.8696
969.40 0.869
969.50 0.8684
969.60 0.8677
969.70 0.8671
969.80 0.8665
969.90 0.8659
970.00 0.8652
970.10 0.8646
970.20 0.864
970.30 0.8634
970.40 0.8628
970.50 0.8621
970.60 0.8615
970.70 0.8609
970.80 0.8603
970.90 0.8597
971.00 0.859
971.10 0.8584
971.20 0.8578
971.30 0.8572
971.40 0.8566
971.50 0.856
971.60 0.8553
971.70 0.8547
971.80 0.8541
971.90 0.8535
972.00 0.8529
972.10 0.8523
972.20 0.8517
972.30 0.851
972.40 0.8504
972.50 0.8498
972.60 0.8492
972.70 0.8486
972.80 0.848
972.90 0.8474
973.00 0.8468
973.10 0.8462
973.20 0.8456
973.30 0.845
973.40 0.8444
973.50 0.8437
973.60 0.8431
973.70 0.8425
973.80 0.8419
973.90 0.8413
974.00 0.8407
974.10 0.8401
974.20 0.8395
974.30 0.8389
974.40 0.8383
974.50 0.8377
974.60 0.8371
974.70 0.8365
974.80 0.8359
974.90 0.8353
975.00 0.8347
975.10 0.8341
975.20 0.8335
975.30 0.8329
975.40 0.8323
975.50 0.8317
975.60 0.8311
975.70 0.8305
975.80 0.8299
975.90 0.8293
976.00 0.8287
976.10 0.8281
976.20 0.8275
976.30 0.8269
976.40 0.8263
976.50 0.8257
976.60 0.8251
976.70 0.8245
976.80 0.8239
976.90 0.8233
977.00 0.8227
977.10 0.8221
977.20 0.8216
977.30 0.821
977.40 0.8204
977.50 0.8198
977.60 0.8192
977.70 0.8187
977.80 0.8181
977.90 0.8175
978.00 0.8169
978.10 0.8164
978.20 0.8158
978.30 0.8152
978.40 0.8146
978.50 0.8141
978.60 0.8135
978.70 0.8129
978.80 0.8123
978.90 0.8118
979.00 0.8112
979.10 0.8106
979.20 0.81
979.30 0.8095
979.40 0.8089
979.50 0.8083
979.60 0.8077
979.70 0.8072
979.80 0.8066
979.90 0.806
980.00 0.8054
980.10 0.8049
980.20 0.8043
980.30 0.8037
980.40 0.8032
980.50 0.8026
980.60 0.802
980.70 0.8014
980.80 0.8009
980.90 0.8003
981.00 0.7997
981.10 0.7992
981.20 0.7986
981.30 0.798
981.40 0.7974
981.50 0.7969
981.60 0.7963
981.70 0.7957
981.80 0.7952
981.90 0.7946
982.00 0.794
982.10 0.7935
982.20 0.7929
982.30 0.7924
982.40 0.7918
982.50 0.7913
982.60 0.7907
982.70 0.7902
982.80 0.7896
982.90 0.789
983.00 0.7885
983.10 0.7879
983.20 0.7874
983.30 0.7868
983.40 0.7863
983.50 0.7857
983.60 0.7852
983.70 0.7846
983.80 0.7841
983.90 0.7835
984.00 0.783
984.10 0.7824
984.20 0.7819
984.30 0.7813
984.40 0.7808
984.50 0.7802
984.60 0.7797
984.70 0.7791
984.80 0.7786
984.90 0.7781
985.00 0.7776
985.10 0.7771
985.20 0.7765
985.30 0.776
985.40 0.7755
985.50 0.775
985.60 0.7745
985.70 0.7739
985.80 0.7734
985.90 0.7729
986.00 0.7724
986.10 0.7719
986.20 0.7713
986.30 0.7708
986.40 0.7703
986.50 0.7698
986.60 0.7693
986.70 0.7688
986.80 0.7682
986.90 0.7677
987.00 0.7672
987.10 0.7667
987.20 0.7661
987.30 0.7656
987.40 0.765
987.50 0.7645
987.60 0.764
987.70 0.7634
987.80 0.7629
987.90 0.7623
988.00 0.7618
988.10 0.7613
988.20 0.7607
988.30 0.7602
988.40 0.7596
988.50 0.7591
988.60 0.7586
988.70 0.758
988.80 0.7575
988.90 0.7569
989.00 0.7564
989.10 0.7559
989.20 0.7553
989.30 0.7548
989.40 0.7542
989.50 0.7537
989.60 0.7532
989.70 0.7526
989.80 0.7521
989.90 0.7516
990.00 0.751
990.10 0.7505
990.20 0.7499
990.30 0.7494
990.40 0.7489
990.50 0.7483
990.60 0.7478
990.70 0.7473
990.80 0.7467
990.90 0.7462
991.00 0.7456
991.10 0.7451
991.20 0.7446
991.30 0.744
991.40 0.7435
991.50 0.7429
991.60 0.7424
991.70 0.7419
991.80 0.7413
991.90 0.7408
992.00 0.7403
992.10 0.7397
992.20 0.7392
992.30 0.7387
992.40 0.7381
992.50 0.7376
992.60 0.737
992.70 0.7365
992.80 0.736
992.90 0.7354
993.00 0.7349
993.10 0.7344
993.20 0.7338
993.30 0.7333
993.40 0.7328
993.50 0.7322
993.60 0.7317
993.70 0.7312
993.80 0.7306
993.90 0.7301
994.00 0.7295
994.10 0.729
994.20 0.7285
994.30 0.7279
994.40 0.7274
994.50 0.7269
994.60 0.7263
994.70 0.7257
994.80 0.7251
994.90 0.7245
995.00 0.7238
995.10 0.7232
995.20 0.7225
995.30 0.7219
995.40 0.7213
995.50 0.7206
995.60 0.72
995.70 0.7195
995.80 0.7189
995.90 0.7184
996.00 0.7179
996.10 0.7174
996.20 0.7168
996.30 0.7163
996.40 0.7158
996.50 0.7153
996.60 0.7148
996.70 0.7142
996.80 0.7137
996.90 0.7132
997.00 0.7127
997.10 0.7122
997.20 0.7116
997.30 0.7111
997.40 0.7106
997.50 0.7101
997.60 0.7096
997.70 0.7091
997.80 0.7086
997.90 0.7081
998.00 0.7076
998.10 0.7071
998.20 0.7066
998.30 0.7061
998.40 0.7056
998.50 0.7051
998.60 0.7046
998.70 0.7041
998.80 0.7036
998.90 0.7031
999.00 0.7026
999.10 0.7021
999.20 0.7016
999.30 0.7011
999.40 0.7006
999.50 0.7001
999.60 0.6996
999.70 0.6991
999.80 0.6986
999.90 0.6981
1000.00 0.6976
1000.10 0.6972
1000.20 0.6967
1000.30 0.6962
1000.40 0.6957
1000.50 0.6952
1000.60 0.6948
1000.70 0.6943
1000.80 0.6938
1000.90 0.6933
1001.00 0.6928
1001.10 0.6923
1001.20 0.6919
1001.30 0.6914
1001.40 0.6909
1001.50 0.6904
1001.60 0.6899
1001.70 0.6895
1001.80 0.689
1001.90 0.6885
1002.00 0.6881
1002.10 0.6876
1002.20 0.6871
1002.30 0.6867
1002.40 0.6862
1002.50 0.6857
1002.60 0.6853
1002.70 0.6848
1002.80 0.6843
1002.90 0.6839
1003.00 0.6834
1003.10 0.6829
1003.20 0.6825
1003.30 0.682
1003.40 0.6816
1003.50 0.6811
1003.60 0.6807
1003.70 0.6802
1003.80 0.6797
1003.90 0.6793
1004.00 0.6788
1004.10 0.6784
1004.20 0.6779
1004.30 0.6775
1004.40 0.677
1004.50 0.6766
1004.60 0.6761
1004.70 0.6757
1004.80 0.6752
1004.90 0.6747
1005.00 0.6741
1005.10 0.6737
1005.20 0.6732
1005.30 0.6728
1005.40 0.6723
1005.50 0.6719
1005.60 0.6715
1005.70 0.671
1005.80 0.6706
1005.90 0.6702
1006.00 0.6697
1006.10 0.6693
1006.20 0.6689
1006.30 0.6684
1006.40 0.668
1006.50 0.6676
1006.60 0.6672
1006.70 0.6667
1006.80 0.6663
1006.90 0.6659
1007.00 0.6654
1007.10 0.665
1007.20 0.6646
1007.30 0.6642
1007.40 0.6638
1007.50 0.6634
1007.60 0.6629
1007.70 0.6625
1007.80 0.6621
1007.90 0.6617
1008.00 0.6613
1008.10 0.6609
1008.20 0.6605
1008.30 0.6601
1008.40 0.6597
1008.50 0.6593
1008.60 0.6589
1008.70 0.6585
1008.80 0.6581
1008.90 0.6577
1009.00 0.6572
1009.10 0.6568
1009.20 0.6564
1009.30 0.656
1009.40 0.6556
1009.50 0.6552
1009.60 0.6548
1009.70 0.6544
1009.80 0.654
1009.90 0.6537
1010.00 0.6533
1010.10 0.6529
1010.20 0.6525
1010.30 0.6521
1010.40 0.6517
1010.50 0.6513
1010.60 0.651
1010.70 0.6506
1010.80 0.6502
1010.90 0.6498
1011.00 0.6494
1011.10 0.649
1011.20 0.6487
1011.30 0.6483
1011.40 0.6479
1011.50 0.6475
1011.60 0.6471
1011.70 0.6467
1011.80 0.6464
1011.90 0.646
1012.00 0.6456
1012.10 0.6453
1012.20 0.6449
1012.30 0.6445
1012.40 0.6442
1012.50 0.6438
1012.60 0.6434
1012.70 0.6431
1012.80 0.6427
1012.90 0.6424
1013.00 0.642
1013.10 0.6416
1013.20 0.6413
1013.30 0.6409
1013.40 0.6405
1013.50 0.6402
1013.60 0.6398
1013.70 0.6395
1013.80 0.6391
1013.90 0.6388
1014.00 0.6384
1014.10 0.6381
1014.20 0.6377
1014.30 0.6374
1014.40 0.637
1014.50 0.6367
1014.60 0.6363
1014.70 0.636
1014.80 0.6357
1014.90 0.6354
1015.00 0.6351
1015.10 0.6348
1015.20 0.6345
1015.30 0.6342
1015.40 0.6338
1015.50 0.6335
1015.60 0.6332
1015.70 0.6329
1015.80 0.6326
1015.90 0.6323
1016.00 0.632
1016.10 0.6317
1016.20 0.6314
1016.30 0.6311
1016.40 0.6308
1016.50 0.6305
1016.60 0.6302
1016.70 0.6298
1016.80 0.6295
1016.90 0.6292
1017.00 0.6288
1017.10 0.6285
1017.20 0.6282
1017.30 0.6279
1017.40 0.6275
1017.50 0.6272
1017.60 0.6269
1017.70 0.6266
1017.80 0.6262
1017.90 0.6259
1018.00 0.6256
1018.10 0.6252
1018.20 0.6249
1018.30 0.6246
1018.40 0.6243
1018.50 0.6239
1018.60 0.6236
1018.70 0.6233
1018.80 0.623
1018.90 0.6227
1019.00 0.6223
1019.10 0.622
1019.20 0.6217
1019.30 0.6214
1019.40 0.6211
1019.50 0.6207
1019.60 0.6204
1019.70 0.6201
1019.80 0.6198
1019.90 0.6195
1020.00 0.6191
1020.10 0.6188
1020.20 0.6185
1020.30 0.6182
1020.40 0.6179
1020.50 0.6176
1020.60 0.6172
1020.70 0.6169
1020.80 0.6166
1020.90 0.6163
1021.00 0.616
1021.10 0.6157
1021.20 0.6154
1021.30 0.6151
1021.40 0.6148
1021.50 0.6144
1021.60 0.6141
1021.70 0.6138
1021.80 0.6135
1021.90 0.6132
1022.00 0.6129
1022.10 0.6126
1022.20 0.6123
1022.30 0.612
1022.40 0.6117
1022.50 0.6114
1022.60 0.6111
1022.70 0.6108
1022.80 0.6105
1022.90 0.6102
1023.00 0.6099
1023.10 0.6096
1023.20 0.6093
1023.30 0.609
1023.40 0.6087
1023.50 0.6084
1023.60 0.6081
1023.70 0.6078
1023.80 0.6075
1023.90 0.6072
1024.00 0.6069
1024.10 0.6066
1024.20 0.6063
1024.30 0.606
1024.40 0.6057
1024.50 0.6054
1024.60 0.6051
1024.70 0.6048
1024.80 0.6045
1024.90 0.6042
1025.00 0.6039
1025.10 0.6036
1025.20 0.6033
1025.30 0.603
1025.40 0.6027
1025.50 0.6024
1025.60 0.6021
1025.70 0.6018
1025.80 0.6015
1025.90 0.6012
1026.00 0.6009
1026.10 0.6007
1026.20 0.6004
1026.30 0.6001
1026.40 0.5998
1026.50 0.5995
1026.60 0.5992
1026.70 0.5989
1026.80 0.5986
1026.90 0.5983
1027.00 0.598
1027.10 0.5977
1027.20 0.5975
1027.30 0.5972
1027.40 0.5969
1027.50 0.5967
1027.60 0.5964
1027.70 0.5961
1027.80 0.5958
1027.90 0.5956
1028.00 0.5953
1028.10 0.595
1028.20 0.5947
1028.30 0.5945
1028.40 0.5942
1028.50 0.5939
1028.60 0.5936
1028.70 0.5934
1028.80 0.5931
1028.90 0.5928
1029.00 0.5925
1029.10 0.5923
1029.20 0.592
1029.30 0.5917
1029.40 0.5915
1029.50 0.5912
1029.60 0.5909
1029.70 0.5906
1029.80 0.5904
1029.90 0.5901
1030.00 0.5898
1030.10 0.5896
1030.20 0.5893
1030.30 0.589
1030.40 0.5887
1030.50 0.5885
1030.60 0.5882
1030.70 0.5879
1030.80 0.5877
1030.90 0.5874
1031.00 0.5871
1031.10 0.5868
1031.20 0.5866
1031.30 0.5863
1031.40 0.586
1031.50 0.5858
1031.60 0.5855
1031.70 0.5852
1031.80 0.5849
1031.90 0.5847
1032.00 0.5844
1032.10 0.5842
1032.20 0.5839
1032.30 0.5837
1032.40 0.5834
1032.50 0.5831
1032.60 0.5829
1032.70 0.5826
1032.80 0.5824
1032.90 0.5821
1033.00 0.5819
1033.10 0.5816
1033.20 0.5814
1033.30 0.5811
1033.40 0.5809
1033.50 0.5806
1033.60 0.5804
1033.70 0.5801
1033.80 0.5799
1033.90 0.5796
1034.00 0.5794
1034.10 0.5791
1034.20 0.5789
1034.30 0.5786
1034.40 0.5784
1034.50 0.5781
1034.60 0.5779
1034.70 0.5776
1034.80 0.5774
1034.90 0.5771
1035.00 0.5769
1035.10 0.5766
1035.20 0.5764
1035.30 0.5761
1035.40 0.5759
1035.50 0.5756
1035.60 0.5754
1035.70 0.5751
1035.80 0.5749
1035.90 0.5746
1036.00 0.5744
1036.10 0.5741
1036.20 0.5739
1036.30 0.5736
1036.40 0.5734
1036.50 0.5731
1036.60 0.5729
1036.70 0.5726
1036.80 0.5724
1036.90 0.5721
1037.00 0.5719
1037.10 0.5717
1037.20 0.5714
1037.30 0.5712
1037.40 0.571
1037.50 0.5708
1037.60 0.5705
1037.70 0.5703
1037.80 0.5701
1037.90 0.5698
1038.00 0.5696
1038.10 0.5694
1038.20 0.5692
1038.30 0.5689
1038.40 0.5687
1038.50 0.5685
1038.60 0.5683
1038.70 0.568
1038.80 0.5678
1038.90 0.5676
1039.00 0.5674
1039.10 0.5671
1039.20 0.5669
1039.30 0.5667
1039.40 0.5664
1039.50 0.5662
1039.60 0.566
1039.70 0.5658
1039.80 0.5655
1039.90 0.5653
1040.00 0.5651
1040.10 0.5649
1040.20 0.5646
1040.30 0.5644
1040.40 0.5642
1040.50 0.564
1040.60 0.5637
1040.70 0.5635
1040.80 0.5633
1040.90 0.5631
1041.00 0.5628
1041.10 0.5626
1041.20 0.5624
1041.30 0.5622
1041.40 0.5619
1041.50 0.5617
1041.60 0.5615
1041.70 0.5613
1041.80 0.561
1041.90 0.5608
1042.00 0.5606
1042.10 0.5604
1042.20 0.5602
1042.30 0.56
1042.40 0.5598
1042.50 0.5596
1042.60 0.5594
1042.70 0.5592
1042.80 0.559
1042.90 0.5588
1043.00 0.5586
1043.10 0.5584
1043.20 0.5581
1043.30 0.5579
1043.40 0.5577
1043.50 0.5575
1043.60 0.5573
1043.70 0.5571
1043.80 0.5569
1043.90 0.5567
1044.00 0.5565
1044.10 0.5563
1044.20 0.5561
1044.30 0.5559
1044.40 0.5557
1044.50 0.5555
1044.60 0.5553
1044.70 0.5551
1044.80 0.5549
1044.90 0.5547
1045.00 0.5545
1045.10 0.5543
1045.20 0.5541
1045.30 0.5539
1045.40 0.5537
1045.50 0.5535
1045.60 0.5533
1045.70 0.5531
1045.80 0.5529
1045.90 0.5527
1046.00 0.5525
1046.10 0.5523
1046.20 0.5521
1046.30 0.5519
1046.40 0.5517
1046.50 0.5515
1046.60 0.5513
1046.70 0.5511
1046.80 0.5508
1046.90 0.5506
1047.00 0.5504
1047.10 0.5503
1047.20 0.5501
1047.30 0.5499
1047.40 0.5497
1047.50 0.5495
1047.60 0.5493
1047.70 0.5492
1047.80 0.549
1047.90 0.5488
1048.00 0.5486
1048.10 0.5484
1048.20 0.5483
1048.30 0.5481
1048.40 0.5479
1048.50 0.5477
1048.60 0.5475
1048.70 0.5473
1048.80 0.5472
1048.90 0.547
1049.00 0.5468
1049.10 0.5466
1049.20 0.5464
1049.30 0.5463
1049.40 0.5461
1049.50 0.5459
1049.60 0.5457
1049.70 0.5455
1049.80 0.5453
1049.90 0.5452
1050.00 0.545
1050.10 0.5448
1050.20 0.5446
1050.30 0.5444
1050.40 0.5443
1050.50 0.5441
1050.60 0.5439
1050.70 0.5437
1050.80 0.5435
1050.90 0.5434
1051.00 0.5432
1051.10 0.543
1051.20 0.5428
1051.30 0.5426
1051.40 0.5424
1051.50 0.5423
1051.60 0.5421
1051.70 0.5419
1051.80 0.5417
1051.90 0.5415
1052.00 0.5414
1052.10 0.5412
1052.20 0.541
1052.30 0.5409
1052.40 0.5407
1052.50 0.5406
1052.60 0.5404
1052.70 0.5402
1052.80 0.5401
1052.90 0.5399
1053.00 0.5398
1053.10 0.5396
1053.20 0.5394
1053.30 0.5393
1053.40 0.5391
1053.50 0.539
1053.60 0.5388
1053.70 0.5386
1053.80 0.5385
1053.90 0.5383
1054.00 0.5382
1054.10 0.538
1054.20 0.5378
1054.30 0.5377
1054.40 0.5375
1054.50 0.5374
1054.60 0.5372
1054.70 0.5371
1054.80 0.5369
1054.90 0.5367
1055.00 0.5366
1055.10 0.5364
1055.20 0.5363
1055.30 0.5361
1055.40 0.5359
1055.50 0.5358
1055.60 0.5356
1055.70 0.5355
1055.80 0.5353
1055.90 0.5351
1056.00 0.535
1056.10 0.5348
1056.20 0.5347
1056.30 0.5345
1056.40 0.5344
1056.50 0.5342
1056.60 0.534
1056.70 0.5339
1056.80 0.5337
1056.90 0.5336
1057.00 0.5334
1057.10 0.5333
1057.20 0.5331
1057.30 0.533
1057.40 0.5328
1057.50 0.5327
1057.60 0.5326
1057.70 0.5324
1057.80 0.5323
1057.90 0.5321
1058.00 0.532
1058.10 0.5319
1058.20 0.5317
1058.30 0.5316
1058.40 0.5315
1058.50 0.5313
1058.60 0.5312
1058.70 0.531
1058.80 0.5309
1058.90 0.5308
1059.00 0.5306
1059.10 0.5305
1059.20 0.5303
1059.30 0.5302
1059.40 0.5301
1059.50 0.5299
1059.60 0.5298
1059.70 0.5297
1059.80 0.5295
1059.90 0.5294
1060.00 0.5292
1060.10 0.5291
1060.20 0.529
1060.30 0.5288
1060.40 0.5287
1060.50 0.5285
1060.60 0.5284
1060.70 0.5283
1060.80 0.5281
1060.90 0.528
1061.00 0.5279
1061.10 0.5277
1061.20 0.5276
1061.30 0.5274
1061.40 0.5273
1061.50 0.5272
1061.60 0.527
1061.70 0.5269
1061.80 0.5268
1061.90 0.5266
1062.00 0.5265
1062.10 0.5264
1062.20 0.5262
1062.30 0.5261
1062.40 0.526
1062.50 0.5259
1062.60 0.5258
1062.70 0.5256
1062.80 0.5255
1062.90 0.5254
1063.00 0.5253
1063.10 0.5251
1063.20 0.525
1063.30 0.5249
1063.40 0.5248
1063.50 0.5247
1063.60 0.5245
1063.70 0.5244
1063.80 0.5243
1063.90 0.5242
1064.00 0.5241
1064.10 0.5239
1064.20 0.5238
1064.30 0.5237
1064.40 0.5236
1064.50 0.5235
1064.60 0.5233
1064.70 0.5232
1064.80 0.5231
1064.90 0.523
1065.00 0.5229
1065.10 0.5227
1065.20 0.5226
1065.30 0.5225
1065.40 0.5224
1065.50 0.5223
1065.60 0.5221
1065.70 0.522
1065.80 0.5219
1065.90 0.5218
1066.00 0.5217
1066.10 0.5215
1066.20 0.5214
1066.30 0.5213
1066.40 0.5212
1066.50 0.5211
1066.60 0.5209
1066.70 0.5208
1066.80 0.5207
1066.90 0.5206
1067.00 0.5205
1067.10 0.5204
1067.20 0.5203
1067.30 0.5202
1067.40 0.5201
1067.50 0.52
1067.60 0.5199
1067.70 0.5198
1067.80 0.5197
1067.90 0.5196
1068.00 0.5195
1068.10 0.5194
1068.20 0.5193
1068.30 0.5192
1068.40 0.5191
1068.50 0.519
1068.60 0.5189
1068.70 0.5188
1068.80 0.5186
1068.90 0.5185
1069.00 0.5184
1069.10 0.5183
1069.20 0.5182
1069.30 0.5181
1069.40 0.518
1069.50 0.5179
1069.60 0.5178
1069.70 0.5177
1069.80 0.5176
1069.90 0.5175
1070.00 0.5174
1070.10 0.5173
1070.20 0.5172
1070.30 0.5171
1070.40 0.517
1070.50 0.5169
1070.60 0.5168
1070.70 0.5167
1070.80 0.5166
1070.90 0.5165
1071.00 0.5164
1071.10 0.5163
1071.20 0.5162
1071.30 0.5161
1071.40 0.516
1071.50 0.5159
1071.60 0.5158
1071.70 0.5157
1071.80 0.5156
1071.90 0.5155
1072.00 0.5154
1072.10 0.5153
1072.20 0.5153
1072.30 0.5152
1072.40 0.5151
1072.50 0.515
1072.60 0.5149
1072.70 0.5148
1072.80 0.5147
1072.90 0.5146
1073.00 0.5145
1073.10 0.5144
1073.20 0.5143
1073.30 0.5142
1073.40 0.5141
1073.50 0.514
1073.60 0.514
1073.70 0.5139
1073.80 0.5138
1073.90 0.5137
1074.00 0.5136
1074.10 0.5135
1074.20 0.5134
1074.30 0.5134
1074.40 0.5133
1074.50 0.5132
1074.60 0.5131
1074.70 0.513
1074.80 0.5129
1074.90 0.5128
1075.00 0.5127
1075.10 0.5127
1075.20 0.5126
1075.30 0.5125
1075.40 0.5124
1075.50 0.5123
1075.60 0.5122
1075.70 0.5121
1075.80 0.5121
1075.90 0.512
1076.00 0.5119
1076.10 0.5118
1076.20 0.5117
1076.30 0.5116
1076.40 0.5115
1076.50 0.5115
1076.60 0.5114
1076.70 0.5113
1076.80 0.5112
1076.90 0.5111
1077.00 0.511
1077.10 0.511
1077.20 0.5109
1077.30 0.5108
1077.40 0.5107
1077.50 0.5106
1077.60 0.5106
1077.70 0.5105
1077.80 0.5104
1077.90 0.5103
1078.00 0.5102
1078.10 0.5102
1078.20 0.5101
1078.30 0.51
1078.40 0.5099
1078.50 0.5099
1078.60 0.5098
1078.70 0.5097
1078.80 0.5096
1078.90 0.5095
1079.00 0.5095
1079.10 0.5094
1079.20 0.5093
1079.30 0.5092
1079.40 0.5092
1079.50 0.5091
1079.60 0.509
1079.70 0.5089
1079.80 0.5089
1079.90 0.5088
1080.00 0.5087
1080.10 0.5087
1080.20 0.5086
1080.30 0.5085
1080.40 0.5085
1080.50 0.5084
1080.60 0.5083
1080.70 0.5083
1080.80 0.5082
1080.90 0.5081
1081.00 0.508
1081.10 0.508
1081.20 0.5079
1081.30 0.5078
1081.40 0.5078
1081.50 0.5077
1081.60 0.5076
1081.70 0.5076
1081.80 0.5075
1081.90 0.5074
1082.00 0.5074
1082.10 0.5073
1082.20 0.5072
1082.30 0.5072
1082.40 0.5071
1082.50 0.507
1082.60 0.507
1082.70 0.5069
1082.80 0.5068
1082.90 0.5068
1083.00 0.5067
1083.10 0.5066
1083.20 0.5066
1083.30 0.5065
1083.40 0.5064
1083.50 0.5064
1083.60 0.5063
1083.70 0.5062
1083.80 0.5062
1083.90 0.5061
1084.00 0.506
1084.10 0.506
1084.20 0.5059
1084.30 0.5059
1084.40 0.5058
1084.50 0.5057
1084.60 0.5057
1084.70 0.5056
1084.80 0.5055
1084.90 0.5055
1085.00 0.5054
1085.10 0.5054
1085.20 0.5053
1085.30 0.5052
1085.40 0.5052
1085.50 0.5051
1085.60 0.5051
1085.70 0.505
1085.80 0.5049
1085.90 0.5049
1086.00 0.5048
1086.10 0.5048
1086.20 0.5047
1086.30 0.5046
1086.40 0.5046
1086.50 0.5045
1086.60 0.5045
1086.70 0.5044
1086.80 0.5043
1086.90 0.5043
1087.00 0.5042
1087.10 0.5042
1087.20 0.5041
1087.30 0.5041
1087.40 0.504
1087.50 0.5039
1087.60 0.5039
1087.70 0.5038
1087.80 0.5038
1087.90 0.5037
1088.00 0.5037
1088.10 0.5036
1088.20 0.5035
1088.30 0.5035
1088.40 0.5034
1088.50 0.5034
1088.60 0.5033
1088.70 0.5033
1088.80 0.5032
1088.90 0.5032
1089.00 0.5031
1089.10 0.5031
1089.20 0.503
1089.30 0.503
1089.40 0.5029
1089.50 0.5029
1089.60 0.5028
1089.70 0.5028
1089.80 0.5027
1089.90 0.5027
1090.00 0.5026
1090.10 0.5026
1090.20 0.5025
1090.30 0.5024
1090.40 0.5024
1090.50 0.5023
1090.60 0.5023
1090.70 0.5022
1090.80 0.5022
1090.90 0.5022
1091.00 0.5021
1091.10 0.5021
1091.20 0.502
1091.30 0.502
1091.40 0.5019
1091.50 0.5019
1091.60 0.5018
1091.70 0.5018
1091.80 0.5017
1091.90 0.5017
1092.00 0.5016
1092.10 0.5016
1092.20 0.5015
1092.30 0.5015
1092.40 0.5014
1092.50 0.5014
1092.60 0.5013
1092.70 0.5013
1092.80 0.5013
1092.90 0.5013
1093.00 0.5013
1093.10 0.5012
1093.20 0.5012
1093.30 0.5011
1093.40 0.5011
1093.50 0.5011
1093.60 0.501
1093.70 0.501
1093.80 0.5009
1093.90 0.5009
1094.00 0.5008
1094.10 0.5008
1094.20 0.5007
1094.30 0.5007
1094.40 0.5007
1094.50 0.5006
1094.60 0.5006
1094.70 0.5005
1094.80 0.5005
1094.90 0.5004
1095.00 0.5004
1095.10 0.5004
1095.20 0.5003
1095.30 0.5003
1095.40 0.5002
1095.50 0.5002
1095.60 0.5002
1095.70 0.5001
1095.80 0.5001
1095.90 0.5
1096.00 0.5
1096.10 0.5
1096.20 0.4999
1096.30 0.4999
1096.40 0.4998
1096.50 0.4998
1096.60 0.4997
1096.70 0.4997
1096.80 0.4997
1096.90 0.4996
1097.00 0.4996
1097.10 0.4995
1097.20 0.4995
1097.30 0.4995
1097.40 0.4994
1097.50 0.4994
1097.60 0.4994
1097.70 0.4993
1097.80 0.4993
1097.90 0.4992
1098.00 0.4992
1098.10 0.4992
1098.20 0.4991
1098.30 0.4991
1098.40 0.4991
1098.50 0.499
1098.60 0.499
1098.70 0.4989
1098.80 0.4989
1098.90 0.4989
1099.00 0.4988
1099.10 0.4988
1099.20 0.4988
1099.30 0.4987
1099.40 0.4987
1099.50 0.4987
1099.60 0.4986
1099.70 0.4986
1099.80 0.4985
1099.90 0.4985
1100.00 0.4985
1100.10 0.4984
1100.20 0.4984
1100.30 0.4984
1100.40 0.4983
1100.50 0.4983
1100.60 0.4983
1100.70 0.4982
1100.80 0.4982
1100.90 0.4982
1101.00 0.4981
1101.10 0.4981
1101.20 0.4981
1101.30 0.498
1101.40 0.498
1101.50 0.498
1101.60 0.4979
1101.70 0.4979
1101.80 0.4979
1101.90 0.4978
1102.00 0.4978
1102.10 0.4978
1102.20 0.4977
1102.30 0.4977
1102.40 0.4977
1102.50 0.4976
1102.60 0.4976
1102.70 0.4976
1102.80 0.4975
1102.90 0.4975
1103.00 0.4975
1103.10 0.4974
1103.20 0.4974
1103.30 0.4974
1103.40 0.4974
1103.50 0.4973
1103.60 0.4973
1103.70 0.4973
1103.80 0.4972
1103.90 0.4972
1104.00 0.4972
1104.10 0.4972
1104.20 0.4971
1104.30 0.4971
1104.40 0.4971
1104.50 0.4971
1104.60 0.497
1104.70 0.497
1104.80 0.497
1104.90 0.497
1105.00 0.4969
1105.10 0.4969
1105.20 0.4969
1105.30 0.4969
1105.40 0.4968
1105.50 0.4968
1105.60 0.4968
1105.70 0.4968
1105.80 0.4967
1105.90 0.4967
1106.00 0.4967
1106.10 0.4967
1106.20 0.4966
1106.30 0.4966
1106.40 0.4966
1106.50 0.4965
1106.60 0.4965
1106.70 0.4965
1106.80 0.4965
1106.90 0.4964
1107.00 0.4964
1107.10 0.4964
1107.20 0.4963
1107.30 0.4963
1107.40 0.4963
1107.50 0.4963
1107.60 0.4962
1107.70 0.4962
1107.80 0.4962
1107.90 0.4962
1108.00 0.4961
1108.10 0.4961
1108.20 0.4961
1108.30 0.4961
1108.40 0.496
1108.50 0.496
1108.60 0.496
1108.70 0.496
1108.80 0.4959
1108.90 0.4959
1109.00 0.4959
1109.10 0.4958
1109.20 0.4958
1109.30 0.4958
1109.40 0.4958
1109.50 0.4957
1109.60 0.4957
1109.70 0.4957
1109.80 0.4957
1109.90 0.4956
1110.00 0.4956
1110.10 0.4956
1110.20 0.4956
1110.30 0.4956
1110.40 0.4955
1110.50 0.4955
1110.60 0.4955
1110.70 0.4955
1110.80 0.4954
1110.90 0.4954
1111.00 0.4954
1111.10 0.4954
1111.20 0.4953
1111.30 0.4953
1111.40 0.4953
1111.50 0.4953
1111.60 0.4952
1111.70 0.4952
1111.80 0.4952
1111.90 0.4952
1112.00 0.4951
1112.10 0.4951
1112.20 0.4951
1112.30 0.4951
1112.40 0.495
1112.50 0.495
1112.60 0.495
1112.70 0.495
1112.80 0.495
1112.90 0.4949
1113.00 0.4949
1113.10 0.4949
1113.20 0.4949
1113.30 0.4948
1113.40 0.4948
1113.50 0.4948
1113.60 0.4948
1113.70 0.4948
1113.80 0.4947
1113.90 0.4947
1114.00 0.4947
1114.10 0.4947
1114.20 0.4946
1114.30 0.4946
1114.40 0.4946
1114.50 0.4946
1114.60 0.4946
1114.70 0.4945
1114.80 0.4945
1114.90 0.4945
1115.00 0.4945
1115.10 0.4945
1115.20 0.4944
1115.30 0.4944
1115.40 0.4944
1115.50 0.4944
1115.60 0.4944
1115.70 0.4943
1115.80 0.4943
1115.90 0.4943
1116.00 0.4943
1116.10 0.4942
1116.20 0.4942
1116.30 0.4942
1116.40 0.4942
1116.50 0.4942
1116.60 0.4941
1116.70 0.4941
1116.80 0.4941
1116.90 0.4941
1117.00 0.4941
1117.10 0.494
1117.20 0.494
1117.30 0.494
1117.40 0.494
1117.50 0.494
1117.60 0.494
1117.70 0.4939
1117.80 0.4939
1117.90 0.4939
1118.00 0.4939
1118.10 0.4939
1118.20 0.4939
1118.30 0.4938
1118.40 0.4938
1118.50 0.4938
1118.60 0.4938
1118.70 0.4938
1118.80 0.4938
1118.90 0.4937
1119.00 0.4937
1119.10 0.4937
1119.20 0.4937
1119.30 0.4937
1119.40 0.4936
1119.50 0.4936
1119.60 0.4936
1119.70 0.4936
1119.80 0.4936
1119.90 0.4936
1120.00 0.4935
1120.10 0.4935
1120.20 0.4935
1120.30 0.4935
1120.40 0.4935
1120.50 0.4935
1120.60 0.4934
1120.70 0.4934
1120.80 0.4934
1120.90 0.4934
1121.00 0.4934
1121.10 0.4934
1121.20 0.4933
1121.30 0.4933
1121.40 0.4933
1121.50 0.4933
1121.60 0.4933
1121.70 0.4933
1121.80 0.4932
1121.90 0.4932
1122.00 0.4932
1122.10 0.4932
1122.20 0.4932
1122.30 0.4932
1122.40 0.4931
1122.50 0.4931
1122.60 0.4931
1122.70 0.4931
1122.80 0.4931
1122.90 0.493
1123.00 0.493
1123.10 0.493
1123.20 0.493
1123.30 0.493
1123.40 0.4929
1123.50 0.4929
1123.60 0.4929
1123.70 0.4929
1123.80 0.4929
1123.90 0.4928
1124.00 0.4928
1124.10 0.4928
1124.20 0.4928
1124.30 0.4928
1124.40 0.4927
1124.50 0.4927
1124.60 0.4927
1124.70 0.4927
1124.80 0.4927
1124.90 0.4927
1125.00 0.4926
1125.10 0.4926
1125.20 0.4926
1125.30 0.4926
1125.40 0.4926
1125.50 0.4925
1125.60 0.4925
1125.70 0.4925
1125.80 0.4925
1125.90 0.4925
1126.00 0.4924
1126.10 0.4924
1126.20 0.4924
1126.30 0.4924
1126.40 0.4924
1126.50 0.4923
1126.60 0.4923
1126.70 0.4923
1126.80 0.4923
1126.90 0.4923
1127.00 0.4922
1127.10 0.4922
1127.20 0.4922
1127.30 0.4922
1127.40 0.4922
1127.50 0.4922
1127.60 0.4922
1127.70 0.4921
1127.80 0.4921
1127.90 0.4921
1128.00 0.4921
1128.10 0.4921
1128.20 0.4921
1128.30 0.492
1128.40 0.492
1128.50 0.492
1128.60 0.492
1128.70 0.492
1128.80 0.492
1128.90 0.4919
1129.00 0.4919
1129.10 0.4919
1129.20 0.4919
1129.30 0.4919
1129.40 0.4919
1129.50 0.4919
1129.60 0.4918
1129.70 0.4918
1129.80 0.4918
1129.90 0.4918
1130.00 0.4918
1130.10 0.4918
1130.20 0.4917
1130.30 0.4917
1130.40 0.4917
1130.50 0.4917
1130.60 0.4917
1130.70 0.4917
1130.80 0.4916
1130.90 0.4916
1131.00 0.4916
1131.10 0.4916
1131.20 0.4916
1131.30 0.4916
1131.40 0.4916
1131.50 0.4915
1131.60 0.4915
1131.70 0.4915
1131.80 0.4915
1131.90 0.4915
1132.00 0.4915
1132.10 0.4914
1132.20 0.4914
1132.30 0.4914
1132.40 0.4914
1132.50 0.4913
1132.60 0.4913
1132.70 0.4913
1132.80 0.4913
1132.90 0.4913
1133.00 0.4912
1133.10 0.4912
1133.20 0.4912
1133.30 0.4912
1133.40 0.4911
1133.50 0.4911
1133.60 0.4911
1133.70 0.4911
1133.80 0.491
1133.90 0.491
1134.00 0.491
1134.10 0.491
1134.20 0.491
1134.30 0.4909
1134.40 0.4909
1134.50 0.4909
1134.60 0.4909
1134.70 0.4908
1134.80 0.4908
1134.90 0.4908
1135.00 0.4908
1135.10 0.4907
1135.20 0.4907
1135.30 0.4907
1135.40 0.4907
1135.50 0.4907
1135.60 0.4906
1135.70 0.4906
1135.80 0.4906
1135.90 0.4906
1136.00 0.4905
1136.10 0.4905
1136.20 0.4905
1136.30 0.4905
1136.40 0.4905
1136.50 0.4904
1136.60 0.4904
1136.70 0.4904
1136.80 0.4904
1136.90 0.4903
1137.00 0.4903
1137.10 0.4903
1137.20 0.4903
1137.30 0.4902
1137.40 0.4902
1137.50 0.4902
1137.60 0.4902
1137.70 0.4901
1137.80 0.4901
1137.90 0.4901
1138.00 0.49
1138.10 0.49
1138.20 0.49
1138.30 0.49
1138.40 0.4899
1138.50 0.4899
1138.60 0.4899
1138.70 0.4899
1138.80 0.4898
1138.90 0.4898
1139.00 0.4898
1139.10 0.4897
1139.20 0.4897
1139.30 0.4897
1139.40 0.4897
1139.50 0.4896
1139.60 0.4896
1139.70 0.4896
1139.80 0.4896
1139.90 0.4895
1140.00 0.4895
1140.10 0.4895
1140.20 0.4895
1140.30 0.4894
1140.40 0.4894
1140.50 0.4894
1140.60 0.4893
1140.70 0.4893
1140.80 0.4893
1140.90 0.4893
1141.00 0.4892
1141.10 0.4892
1141.20 0.4892
1141.30 0.4892
1141.40 0.4891
1141.50 0.4891
1141.60 0.4891
1141.70 0.4891
1141.80 0.489
1141.90 0.489
1142.00 0.489
1142.10 0.4889
1142.20 0.4889
1142.30 0.4889
1142.40 0.4889
1142.50 0.4888
1142.60 0.4888
1142.70 0.4888
1142.80 0.4887
1142.90 0.4887
1143.00 0.4887
1143.10 0.4887
1143.20 0.4886
1143.30 0.4886
1143.40 0.4886
1143.50 0.4885
1143.60 0.4885
1143.70 0.4885
1143.80 0.4885
1143.90 0.4884
1144.00 0.4884
1144.10 0.4884
1144.20 0.4883
1144.30 0.4883
1144.40 0.4883
1144.50 0.4882
1144.60 0.4882
1144.70 0.4882
1144.80 0.4882
1144.90 0.4881
1145.00 0.4881
1145.10 0.4881
1145.20 0.488
1145.30 0.488
1145.40 0.488
1145.50 0.488
1145.60 0.4879
1145.70 0.4879
1145.80 0.4879
1145.90 0.4878
1146.00 0.4878
1146.10 0.4878
1146.20 0.4878
1146.30 0.4877
1146.40 0.4877
1146.50 0.4877
1146.60 0.4876
1146.70 0.4876
1146.80 0.4876
1146.90 0.4875
1147.00 0.4875
1147.10 0.4875
1147.20 0.4874
1147.30 0.4874
1147.40 0.4874
1147.50 0.4873
1147.60 0.4873
1147.70 0.4873
1147.80 0.4872
1147.90 0.4872
1148.00 0.4871
1148.10 0.4871
1148.20 0.4871
1148.30 0.487
1148.40 0.487
1148.50 0.487
1148.60 0.4869
1148.70 0.4869
1148.80 0.4868
1148.90 0.4868
1149.00 0.4868
1149.10 0.4867
1149.20 0.4867
1149.30 0.4866
1149.40 0.4866
1149.50 0.4866
1149.60 0.4865
1149.70 0.4865
1149.80 0.4865
1149.90 0.4864
1150.00 0.4864
1150.10 0.4863
1150.20 0.4863
1150.30 0.4863
1150.40 0.4862
1150.50 0.4862
1150.60 0.4862
1150.70 0.4861
1150.80 0.4861
1150.90 0.486
1151.00 0.486
1151.10 0.486
1151.20 0.4859
1151.30 0.4859
1151.40 0.4859
1151.50 0.4858
1151.60 0.4858
1151.70 0.4857
1151.80 0.4857
1151.90 0.4857
1152.00 0.4856
1152.10 0.4856
1152.20 0.4855
1152.30 0.4855
1152.40 0.4855
1152.50 0.4854
1152.60 0.4854
1152.70 0.4853
1152.80 0.4853
1152.90 0.4853
1153.00 0.4852
1153.10 0.4852
1153.20 0.4851
1153.30 0.4851
1153.40 0.485
1153.50 0.485
1153.60 0.485
1153.70 0.4849
1153.80 0.4849
1153.90 0.4848
1154.00 0.4848
1154.10 0.4848
1154.20 0.4847
1154.30 0.4847
1154.40 0.4846
1154.50 0.4846
1154.60 0.4845
1154.70 0.4845
1154.80 0.4845
1154.90 0.4844
1155.00 0.4844
1155.10 0.4843
1155.20 0.4843
1155.30 0.4843
1155.40 0.4842
1155.50 0.4842
1155.60 0.4841
1155.70 0.4841
1155.80 0.484
1155.90 0.484
1156.00 0.484
1156.10 0.4839
1156.20 0.4839
1156.30 0.4838
1156.40 0.4838
1156.50 0.4838
1156.60 0.4837
1156.70 0.4837
1156.80 0.4836
1156.90 0.4836
1157.00 0.4835
1157.10 0.4835
1157.20 0.4834
1157.30 0.4834
1157.40 0.4833
1157.50 0.4833
1157.60 0.4832
1157.70 0.4832
1157.80 0.4831
1157.90 0.4831
1158.00 0.483
1158.10 0.483
1158.20 0.4829
1158.30 0.4829
1158.40 0.4828
1158.50 0.4828
1158.60 0.4827
1158.70 0.4827
1158.80 0.4826
1158.90 0.4826
1159.00 0.4825
1159.10 0.4825
1159.20 0.4824
1159.30 0.4824
1159.40 0.4823
1159.50 0.4823
1159.60 0.4822
1159.70 0.4822
1159.80 0.4821
1159.90 0.4821
1160.00 0.482
1160.10 0.482
1160.20 0.4819
1160.30 0.4818
1160.40 0.4818
1160.50 0.4817
1160.60 0.4817
1160.70 0.4816
1160.80 0.4816
1160.90 0.4815
1161.00 0.4815
1161.10 0.4814
1161.20 0.4814
1161.30 0.4813
1161.40 0.4813
1161.50 0.4812
1161.60 0.4812
1161.70 0.4811
1161.80 0.4811
1161.90 0.481
1162.00 0.481
1162.10 0.4809
1162.20 0.4809
1162.30 0.4808
1162.40 0.4807
1162.50 0.4807
1162.60 0.4806
1162.70 0.4806
1162.80 0.4805
1162.90 0.4804
1163.00 0.4804
1163.10 0.4803
1163.20 0.4803
1163.30 0.4802
1163.40 0.4801
1163.50 0.4801
1163.60 0.48
1163.70 0.48
1163.80 0.4799
1163.90 0.4798
1164.00 0.4798
1164.10 0.4797
1164.20 0.4797
1164.30 0.4796
1164.40 0.4795
1164.50 0.4795
1164.60 0.4794
1164.70 0.4794
1164.80 0.4793
1164.90 0.4792
1165.00 0.4792
1165.10 0.4791
1165.20 0.4791
1165.30 0.479
1165.40 0.4789
1165.50 0.4789
1165.60 0.4788
1165.70 0.4788
1165.80 0.4787
1165.90 0.4786
1166.00 0.4786
1166.10 0.4785
1166.20 0.4785
1166.30 0.4784
1166.40 0.4783
1166.50 0.4783
1166.60 0.4782
1166.70 0.4782
1166.80 0.4781
1166.90 0.478
1167.00 0.478
1167.10 0.4779
1167.20 0.4779
1167.30 0.4778
1167.40 0.4777
1167.50 0.4777
1167.60 0.4776
1167.70 0.4775
1167.80 0.4774
1167.90 0.4774
1168.00 0.4773
1168.10 0.4772
1168.20 0.4772
1168.30 0.4771
1168.40 0.477
1168.50 0.477
1168.60 0.4769
1168.70 0.4768
1168.80 0.4768
1168.90 0.4767
1169.00 0.4766
1169.10 0.4766
1169.20 0.4765
1169.30 0.4764
1169.40 0.4764
1169.50 0.4763
1169.60 0.4762
1169.70 0.4762
1169.80 0.4761
1169.90 0.476
1170.00 0.476
1170.10 0.4759
1170.20 0.4758
1170.30 0.4758
1170.40 0.4757
1170.50 0.4756
1170.60 0.4756
1170.70 0.4755
1170.80 0.4754
1170.90 0.4754
1171.00 0.4753
1171.10 0.4752
1171.20 0.4752
1171.30 0.4751
1171.40 0.475
1171.50 0.475
1171.60 0.4749
1171.70 0.4748
1171.80 0.4748
1171.90 0.4747
1172.00 0.4746
1172.10 0.4745
1172.20 0.4745
1172.30 0.4744
1172.40 0.4743
1172.50 0.4742
1172.60 0.4742
1172.70 0.4741
1172.80 0.474
1172.90 0.4739
1173.00 0.4739
1173.10 0.4738
1173.20 0.4737
1173.30 0.4736
1173.40 0.4736
1173.50 0.4735
1173.60 0.4734
1173.70 0.4734
1173.80 0.4733
1173.90 0.4732
1174.00 0.4731
1174.10 0.4731
1174.20 0.473
1174.30 0.4729
1174.40 0.4728
1174.50 0.4728
1174.60 0.4727
1174.70 0.4726
1174.80 0.4725
1174.90 0.4725
1175.00 0.4724
1175.10 0.4723
1175.20 0.4722
1175.30 0.4722
1175.40 0.4721
1175.50 0.472
1175.60 0.4719
1175.70 0.4719
1175.80 0.4718
1175.90 0.4717
1176.00 0.4716
1176.10 0.4716
1176.20 0.4715
1176.30 0.4714
1176.40 0.4714
1176.50 0.4713
1176.60 0.4712
1176.70 0.4711
1176.80 0.4711
1176.90 0.471
1177.00 0.4709
1177.10 0.4708
1177.20 0.4707
1177.30 0.4707
1177.40 0.4706
1177.50 0.4705
1177.60 0.4704
1177.70 0.4703
1177.80 0.4703
1177.90 0.4702
1178.00 0.4701
1178.10 0.47
1178.20 0.4699
1178.30 0.4699
1178.40 0.4698
1178.50 0.4697
1178.60 0.4696
1178.70 0.4695
1178.80 0.4695
1178.90 0.4694
1179.00 0.4693
1179.10 0.4692
1179.20 0.4691
1179.30 0.469
1179.40 0.469
1179.50 0.4689
1179.60 0.4688
1179.70 0.4687
1179.80 0.4686
1179.90 0.4686
1180.00 0.4685
1180.10 0.4684
1180.20 0.4683
1180.30 0.4682
1180.40 0.4682
1180.50 0.4681
1180.60 0.468
1180.70 0.4679
1180.80 0.4678
1180.90 0.4678
1181.00 0.4677
1181.10 0.4676
1181.20 0.4675
1181.30 0.4674
1181.40 0.4674
1181.50 0.4673
1181.60 0.4672
1181.70 0.4671
1181.80 0.467
1181.90 0.467
1182.00 0.4669
1182.10 0.4668
1182.20 0.4667
1182.30 0.4666
1182.40 0.4665
1182.50 0.4664
1182.60 0.4663
1182.70 0.4662
1182.80 0.4662
1182.90 0.4661
1183.00 0.466
1183.10 0.4659
1183.20 0.4658
1183.30 0.4657
1183.40 0.4656
1183.50 0.4655
1183.60 0.4654
1183.70 0.4654
1183.80 0.4653
1183.90 0.4652
1184.00 0.4651
1184.10 0.465
1184.20 0.4649
1184.30 0.4648
1184.40 0.4647
1184.50 0.4646
1184.60 0.4646
1184.70 0.4645
1184.80 0.4644
1184.90 0.4643
1185.00 0.4642
1185.10 0.4641
1185.20 0.464
1185.30 0.4639
1185.40 0.4639
1185.50 0.4638
1185.60 0.4637
1185.70 0.4636
1185.80 0.4635
1185.90 0.4634
1186.00 0.4633
1186.10 0.4632
1186.20 0.4631
1186.30 0.4631
1186.40 0.463
1186.50 0.4629
1186.60 0.4628
1186.70 0.4627
1186.80 0.4626
1186.90 0.4625
1187.00 0.4624
1187.10 0.4623
1187.20 0.4623
1187.30 0.4622
1187.40 0.4621
1187.50 0.462
1187.60 0.4619
1187.70 0.4618
1187.80 0.4617
1187.90 0.4616
1188.00 0.4615
1188.10 0.4614
1188.20 0.4614
1188.30 0.4613
1188.40 0.4612
1188.50 0.4611
1188.60 0.461
1188.70 0.4609
1188.80 0.4608
1188.90 0.4607
1189.00 0.4606
1189.10 0.4605
1189.20 0.4605
1189.30 0.4604
1189.40 0.4603
1189.50 0.4602
1189.60 0.4601
1189.70 0.46
1189.80 0.4599
1189.90 0.4598
1190.00 0.4597
1190.10 0.4597
1190.20 0.4596
1190.30 0.4595
1190.40 0.4594
1190.50 0.4593
1190.60 0.4592
1190.70 0.4591
1190.80 0.459
1190.90 0.4589
1191.00 0.4588
1191.10 0.4588
1191.20 0.4587
1191.30 0.4586
1191.40 0.4585
1191.50 0.4584
1191.60 0.4583
1191.70 0.4582
1191.80 0.4581
1191.90 0.458
1192.00 0.458
1192.10 0.4579
1192.20 0.4578
1192.30 0.4577
1192.40 0.4576
1192.50 0.4575
1192.60 0.4574
1192.70 0.4573
1192.80 0.4572
1192.90 0.4571
1193.00 0.457
1193.10 0.4569
1193.20 0.4568
1193.30 0.4567
1193.40 0.4566
1193.50 0.4566
1193.60 0.4565
1193.70 0.4564
1193.80 0.4563
1193.90 0.4562
1194.00 0.4561
1194.10 0.456
1194.20 0.4559
1194.30 0.4558
1194.40 0.4557
1194.50 0.4556
1194.60 0.4555
1194.70 0.4554
1194.80 0.4553
1194.90 0.4552
1195.00 0.4552
1195.10 0.4551
1195.20 0.455
1195.30 0.4549
1195.40 0.4548
1195.50 0.4547
1195.60 0.4546
1195.70 0.4545
1195.80 0.4544
1195.90 0.4543
1196.00 0.4542
1196.10 0.4541
1196.20 0.454
1196.30 0.454
1196.40 0.4539
1196.50 0.4538
1196.60 0.4537
1196.70 0.4536
1196.80 0.4535
1196.90 0.4534
1197.00 0.4533
1197.10 0.4532
1197.20 0.4531
1197.30 0.453
1197.40 0.4529
1197.50 0.4528
1197.60 0.4527
1197.70 0.4526
1197.80 0.4525
1197.90 0.4524
1198.00 0.4523
1198.10 0.4522
1198.20 0.4521
1198.30 0.452
1198.40 0.4519
1198.50 0.4518
1198.60 0.4517
1198.70 0.4516
1198.80 0.4515
1198.90 0.4514
1199.00 0.4513
1199.10 0.4512
1199.20 0.4511
1199.30 0.451
1199.40 0.4509
1199.50 0.4508
1199.60 0.4507
1199.70 0.4506
1199.80 0.4505
1199.90 0.4504
1200.00 0
