# Version 2.1 - nm, norm@500 to 1, cut digits, bergeron_70000_65.dat_70000
# Wavelength(nm)  Flambda(ergs/cm^s/s/nm)
300.00 6.537
300.10 6.529
300.20 6.521
300.30 6.512
300.40 6.504
300.50 6.497
300.60 6.489
300.70 6.481
300.80 6.473
300.90 6.465
301.00 6.457
301.10 6.449
301.20 6.441
301.30 6.433
301.40 6.425
301.50 6.417
301.60 6.409
301.70 6.402
301.80 6.394
301.90 6.386
302.00 6.378
302.10 6.37
302.20 6.362
302.30 6.355
302.40 6.347
302.50 6.339
302.60 6.331
302.70 6.324
302.80 6.316
302.90 6.308
303.00 6.301
303.10 6.293
303.20 6.285
303.30 6.278
303.40 6.27
303.50 6.262
303.60 6.255
303.70 6.247
303.80 6.239
303.90 6.232
304.00 6.224
304.10 6.217
304.20 6.209
304.30 6.202
304.40 6.194
304.50 6.187
304.60 6.179
304.70 6.172
304.80 6.164
304.90 6.157
305.00 6.149
305.10 6.142
305.20 6.134
305.30 6.127
305.40 6.119
305.50 6.112
305.60 6.105
305.70 6.097
305.80 6.09
305.90 6.082
306.00 6.075
306.10 6.068
306.20 6.06
306.30 6.053
306.40 6.046
306.50 6.039
306.60 6.031
306.70 6.024
306.80 6.017
306.90 6.009
307.00 6.002
307.10 5.995
307.20 5.988
307.30 5.981
307.40 5.973
307.50 5.966
307.60 5.959
307.70 5.952
307.80 5.945
307.90 5.938
308.00 5.93
308.10 5.923
308.20 5.916
308.30 5.909
308.40 5.902
308.50 5.895
308.60 5.888
308.70 5.881
308.80 5.874
308.90 5.867
309.00 5.86
309.10 5.853
309.20 5.846
309.30 5.839
309.40 5.832
309.50 5.825
309.60 5.818
309.70 5.811
309.80 5.804
309.90 5.797
310.00 5.79
310.10 5.783
310.20 5.776
310.30 5.769
310.40 5.762
310.50 5.756
310.60 5.749
310.70 5.742
310.80 5.735
310.90 5.728
311.00 5.721
311.10 5.715
311.20 5.708
311.30 5.701
311.40 5.694
311.50 5.687
311.60 5.681
311.70 5.674
311.80 5.667
311.90 5.66
312.00 5.654
312.10 5.647
312.20 5.64
312.30 5.634
312.40 5.627
312.50 5.62
312.60 5.614
312.70 5.607
312.80 5.6
312.90 5.594
313.00 5.587
313.10 5.58
313.20 5.574
313.30 5.567
313.40 5.561
313.50 5.554
313.60 5.548
313.70 5.541
313.80 5.534
313.90 5.528
314.00 5.521
314.10 5.515
314.20 5.508
314.30 5.502
314.40 5.495
314.50 5.489
314.60 5.482
314.70 5.476
314.80 5.47
314.90 5.463
315.00 5.457
315.10 5.45
315.20 5.444
315.30 5.438
315.40 5.431
315.50 5.425
315.60 5.418
315.70 5.412
315.80 5.406
315.90 5.399
316.00 5.393
316.10 5.387
316.20 5.38
316.30 5.374
316.40 5.368
316.50 5.361
316.60 5.355
316.70 5.349
316.80 5.343
316.90 5.336
317.00 5.33
317.10 5.324
317.20 5.318
317.30 5.312
317.40 5.305
317.50 5.299
317.60 5.293
317.70 5.287
317.80 5.281
317.90 5.274
318.00 5.268
318.10 5.262
318.20 5.256
318.30 5.25
318.40 5.244
318.50 5.238
318.60 5.232
318.70 5.226
318.80 5.219
318.90 5.213
319.00 5.207
319.10 5.201
319.20 5.195
319.30 5.189
319.40 5.183
319.50 5.177
319.60 5.171
319.70 5.165
319.80 5.159
319.90 5.153
320.00 5.147
320.10 5.141
320.20 5.135
320.30 5.129
320.40 5.123
320.50 5.117
320.60 5.112
320.70 5.106
320.80 5.1
320.90 5.094
321.00 5.088
321.10 5.082
321.20 5.076
321.30 5.07
321.40 5.064
321.50 5.059
321.60 5.053
321.70 5.047
321.80 5.041
321.90 5.035
322.00 5.03
322.10 5.024
322.20 5.018
322.30 5.012
322.40 5.006
322.50 5.001
322.60 4.995
322.70 4.989
322.80 4.983
322.90 4.978
323.00 4.972
323.10 4.966
323.20 4.961
323.30 4.955
323.40 4.949
323.50 4.944
323.60 4.938
323.70 4.932
323.80 4.927
323.90 4.921
324.00 4.915
324.10 4.91
324.20 4.904
324.30 4.898
324.40 4.893
324.50 4.887
324.60 4.882
324.70 4.876
324.80 4.87
324.90 4.865
325.00 4.859
325.10 4.854
325.20 4.848
325.30 4.843
325.40 4.837
325.50 4.832
325.60 4.826
325.70 4.821
325.80 4.815
325.90 4.81
326.00 4.804
326.10 4.799
326.20 4.793
326.30 4.788
326.40 4.782
326.50 4.777
326.60 4.771
326.70 4.766
326.80 4.761
326.90 4.755
327.00 4.75
327.10 4.744
327.20 4.739
327.30 4.734
327.40 4.728
327.50 4.723
327.60 4.718
327.70 4.712
327.80 4.707
327.90 4.702
328.00 4.696
328.10 4.691
328.20 4.686
328.30 4.68
328.40 4.675
328.50 4.67
328.60 4.664
328.70 4.659
328.80 4.654
328.90 4.649
329.00 4.643
329.10 4.638
329.20 4.633
329.30 4.628
329.40 4.622
329.50 4.617
329.60 4.612
329.70 4.607
329.80 4.602
329.90 4.596
330.00 4.591
330.10 4.586
330.20 4.581
330.30 4.576
330.40 4.571
330.50 4.566
330.60 4.56
330.70 4.555
330.80 4.55
330.90 4.545
331.00 4.54
331.10 4.535
331.20 4.53
331.30 4.525
331.40 4.52
331.50 4.515
331.60 4.51
331.70 4.504
331.80 4.499
331.90 4.494
332.00 4.489
332.10 4.484
332.20 4.479
332.30 4.474
332.40 4.469
332.50 4.464
332.60 4.459
332.70 4.454
332.80 4.449
332.90 4.444
333.00 4.439
333.10 4.435
333.20 4.43
333.30 4.425
333.40 4.42
333.50 4.415
333.60 4.41
333.70 4.405
333.80 4.4
333.90 4.395
334.00 4.39
334.10 4.385
334.20 4.38
334.30 4.376
334.40 4.371
334.50 4.366
334.60 4.361
334.70 4.356
334.80 4.351
334.90 4.346
335.00 4.342
335.10 4.337
335.20 4.332
335.30 4.327
335.40 4.322
335.50 4.318
335.60 4.313
335.70 4.308
335.80 4.303
335.90 4.298
336.00 4.294
336.10 4.289
336.20 4.284
336.30 4.28
336.40 4.275
336.50 4.27
336.60 4.265
336.70 4.261
336.80 4.256
336.90 4.251
337.00 4.247
337.10 4.242
337.20 4.237
337.30 4.233
337.40 4.228
337.50 4.223
337.60 4.219
337.70 4.214
337.80 4.209
337.90 4.205
338.00 4.2
338.10 4.195
338.20 4.191
338.30 4.186
338.40 4.182
338.50 4.177
338.60 4.172
338.70 4.168
338.80 4.163
338.90 4.159
339.00 4.154
339.10 4.149
339.20 4.145
339.30 4.14
339.40 4.136
339.50 4.131
339.60 4.127
339.70 4.122
339.80 4.118
339.90 4.113
340.00 4.109
340.10 4.104
340.20 4.1
340.30 4.095
340.40 4.091
340.50 4.086
340.60 4.082
340.70 4.077
340.80 4.073
340.90 4.068
341.00 4.064
341.10 4.06
341.20 4.055
341.30 4.051
341.40 4.046
341.50 4.042
341.60 4.037
341.70 4.033
341.80 4.029
341.90 4.024
342.00 4.02
342.10 4.015
342.20 4.011
342.30 4.007
342.40 4.002
342.50 3.998
342.60 3.994
342.70 3.989
342.80 3.985
342.90 3.981
343.00 3.976
343.10 3.972
343.20 3.968
343.30 3.964
343.40 3.959
343.50 3.955
343.60 3.951
343.70 3.946
343.80 3.942
343.90 3.938
344.00 3.933
344.10 3.929
344.20 3.925
344.30 3.921
344.40 3.917
344.50 3.912
344.60 3.908
344.70 3.904
344.80 3.9
344.90 3.895
345.00 3.891
345.10 3.887
345.20 3.883
345.30 3.879
345.40 3.874
345.50 3.87
345.60 3.866
345.70 3.862
345.80 3.858
345.90 3.854
346.00 3.849
346.10 3.845
346.20 3.841
346.30 3.837
346.40 3.833
346.50 3.829
346.60 3.825
346.70 3.821
346.80 3.816
346.90 3.812
347.00 3.808
347.10 3.804
347.20 3.8
347.30 3.796
347.40 3.792
347.50 3.788
347.60 3.784
347.70 3.78
347.80 3.776
347.90 3.772
348.00 3.768
348.10 3.764
348.20 3.76
348.30 3.756
348.40 3.751
348.50 3.747
348.60 3.743
348.70 3.739
348.80 3.735
348.90 3.732
349.00 3.728
349.10 3.724
349.20 3.72
349.30 3.716
349.40 3.712
349.50 3.708
349.60 3.704
349.70 3.7
349.80 3.696
349.90 3.692
350.00 3.688
350.10 3.684
350.20 3.68
350.30 3.676
350.40 3.672
350.50 3.668
350.60 3.664
350.70 3.661
350.80 3.657
350.90 3.653
351.00 3.649
351.10 3.645
351.20 3.641
351.30 3.637
351.40 3.633
351.50 3.63
351.60 3.626
351.70 3.622
351.80 3.618
351.90 3.614
352.00 3.61
352.10 3.606
352.20 3.603
352.30 3.599
352.40 3.595
352.50 3.591
352.60 3.587
352.70 3.584
352.80 3.58
352.90 3.576
353.00 3.572
353.10 3.569
353.20 3.565
353.30 3.561
353.40 3.557
353.50 3.554
353.60 3.55
353.70 3.546
353.80 3.542
353.90 3.539
354.00 3.535
354.10 3.531
354.20 3.527
354.30 3.524
354.40 3.52
354.50 3.516
354.60 3.513
354.70 3.509
354.80 3.505
354.90 3.501
355.00 3.498
355.10 3.494
355.20 3.49
355.30 3.487
355.40 3.483
355.50 3.479
355.60 3.476
355.70 3.472
355.80 3.469
355.90 3.465
356.00 3.461
356.10 3.458
356.20 3.454
356.30 3.45
356.40 3.447
356.50 3.443
356.60 3.44
356.70 3.436
356.80 3.432
356.90 3.429
357.00 3.425
357.10 3.422
357.20 3.418
357.30 3.414
357.40 3.411
357.50 3.407
357.60 3.404
357.70 3.4
357.80 3.397
357.90 3.393
358.00 3.39
358.10 3.386
358.20 3.382
358.30 3.379
358.40 3.375
358.50 3.372
358.60 3.368
358.70 3.365
358.80 3.361
358.90 3.358
359.00 3.354
359.10 3.351
359.20 3.347
359.30 3.344
359.40 3.341
359.50 3.337
359.60 3.334
359.70 3.33
359.80 3.327
359.90 3.323
360.00 3.32
360.10 3.316
360.20 3.313
360.30 3.309
360.40 3.306
360.50 3.303
360.60 3.299
360.70 3.296
360.80 3.292
360.90 3.289
361.00 3.286
361.10 3.282
361.20 3.279
361.30 3.275
361.40 3.272
361.50 3.269
361.60 3.265
361.70 3.262
361.80 3.258
361.90 3.255
362.00 3.252
362.10 3.248
362.20 3.245
362.30 3.242
362.40 3.238
362.50 3.235
362.60 3.232
362.70 3.228
362.80 3.225
362.90 3.222
363.00 3.218
363.10 3.215
363.20 3.212
363.30 3.208
363.40 3.205
363.50 3.202
363.60 3.199
363.70 3.195
363.80 3.192
363.90 3.189
364.00 3.185
364.10 3.182
364.20 3.179
364.30 3.176
364.40 3.172
364.50 3.169
364.60 3.166
364.70 3.163
364.80 3.159
364.90 3.156
365.00 3.153
365.10 3.15
365.20 3.146
365.30 3.143
365.40 3.14
365.50 3.137
365.60 3.134
365.70 3.13
365.80 3.127
365.90 3.124
366.00 3.121
366.10 3.118
366.20 3.114
366.30 3.111
366.40 3.108
366.50 3.104
366.60 3.101
366.70 3.098
366.80 3.095
366.90 3.091
367.00 3.088
367.10 3.085
367.20 3.082
367.30 3.078
367.40 3.075
367.50 3.072
367.60 3.069
367.70 3.066
367.80 3.062
367.90 3.059
368.00 3.056
368.10 3.053
368.20 3.049
368.30 3.046
368.40 3.043
368.50 3.04
368.60 3.037
368.70 3.034
368.80 3.03
368.90 3.027
369.00 3.024
369.10 3.021
369.20 3.018
369.30 3.015
369.40 3.012
369.50 3.008
369.60 3.005
369.70 3.002
369.80 2.999
369.90 2.996
370.00 2.993
370.10 2.99
370.20 2.987
370.30 2.984
370.40 2.98
370.50 2.977
370.60 2.974
370.70 2.971
370.80 2.968
370.90 2.965
371.00 2.962
371.10 2.959
371.20 2.956
371.30 2.953
371.40 2.95
371.50 2.947
371.60 2.944
371.70 2.941
371.80 2.938
371.90 2.935
372.00 2.932
372.10 2.929
372.20 2.926
372.30 2.923
372.40 2.92
372.50 2.917
372.60 2.915
372.70 2.912
372.80 2.909
372.90 2.906
373.00 2.903
373.10 2.9
373.20 2.897
373.30 2.895
373.40 2.892
373.50 2.889
373.60 2.886
373.70 2.883
373.80 2.88
373.90 2.878
374.00 2.875
374.10 2.872
374.20 2.869
374.30 2.867
374.40 2.864
374.50 2.861
374.60 2.859
374.70 2.856
374.80 2.853
374.90 2.851
375.00 2.848
375.10 2.845
375.20 2.843
375.30 2.84
375.40 2.837
375.50 2.835
375.60 2.832
375.70 2.829
375.80 2.827
375.90 2.824
376.00 2.821
376.10 2.818
376.20 2.815
376.30 2.812
376.40 2.809
376.50 2.806
376.60 2.803
376.70 2.8
376.80 2.796
376.90 2.793
377.00 2.79
377.10 2.788
377.20 2.786
377.30 2.785
377.40 2.783
377.50 2.781
377.60 2.779
377.70 2.777
377.80 2.776
377.90 2.774
378.00 2.772
378.10 2.769
378.20 2.766
378.30 2.762
378.40 2.759
378.50 2.756
378.60 2.753
378.70 2.75
378.80 2.747
378.90 2.744
379.00 2.741
379.10 2.737
379.20 2.734
379.30 2.73
379.40 2.727
379.50 2.723
379.60 2.72
379.70 2.716
379.80 2.713
379.90 2.709
380.00 2.706
380.10 2.705
380.20 2.705
380.30 2.705
380.40 2.704
380.50 2.704
380.60 2.703
380.70 2.703
380.80 2.703
380.90 2.702
381.00 2.702
381.10 2.7
381.20 2.698
381.30 2.695
381.40 2.693
381.50 2.691
381.60 2.688
381.70 2.685
381.80 2.682
381.90 2.678
382.00 2.674
382.10 2.669
382.20 2.665
382.30 2.658
382.40 2.652
382.50 2.645
382.60 2.638
382.70 2.632
382.80 2.625
382.90 2.619
383.00 2.612
383.10 2.606
383.20 2.599
383.30 2.591
383.40 2.584
383.50 2.577
383.60 2.576
383.70 2.579
383.80 2.582
383.90 2.586
384.00 2.59
384.10 2.593
384.20 2.596
384.30 2.599
384.40 2.602
384.50 2.604
384.60 2.606
384.70 2.607
384.80 2.609
384.90 2.609
385.00 2.61
385.10 2.61
385.20 2.61
385.30 2.61
385.40 2.61
385.50 2.609
385.60 2.608
385.70 2.606
385.80 2.605
385.90 2.603
386.00 2.601
386.10 2.598
386.20 2.596
386.30 2.593
386.40 2.589
386.50 2.586
386.60 2.582
386.70 2.578
386.80 2.573
386.90 2.568
387.00 2.563
387.10 2.557
387.20 2.551
387.30 2.544
387.40 2.537
387.50 2.53
387.60 2.522
387.70 2.514
387.80 2.504
387.90 2.495
388.00 2.485
388.10 2.474
388.20 2.463
388.30 2.451
388.40 2.438
388.50 2.425
388.60 2.412
388.70 2.399
388.80 2.389
388.90 2.382
389.00 2.384
389.10 2.389
389.20 2.398
389.30 2.407
389.40 2.416
389.50 2.424
389.60 2.432
389.70 2.439
389.80 2.445
389.90 2.451
390.00 2.457
390.10 2.462
390.20 2.466
390.30 2.469
390.40 2.473
390.50 2.476
390.60 2.478
390.70 2.48
390.80 2.482
390.90 2.484
391.00 2.485
391.10 2.485
391.20 2.486
391.30 2.486
391.40 2.486
391.50 2.486
391.60 2.486
391.70 2.485
391.80 2.485
391.90 2.484
392.00 2.483
392.10 2.481
392.20 2.48
392.30 2.479
392.40 2.477
392.50 2.475
392.60 2.473
392.70 2.471
392.80 2.469
392.90 2.467
393.00 2.464
393.10 2.462
393.20 2.459
393.30 2.456
393.40 2.454
393.50 2.45
393.60 2.447
393.70 2.444
393.80 2.44
393.90 2.437
394.00 2.433
394.10 2.429
394.20 2.425
394.30 2.42
394.40 2.415
394.50 2.41
394.60 2.405
394.70 2.4
394.80 2.394
394.90 2.388
395.00 2.381
395.10 2.374
395.20 2.366
395.30 2.358
395.40 2.35
395.50 2.341
395.60 2.331
395.70 2.32
395.80 2.309
395.90 2.297
396.00 2.284
396.10 2.271
396.20 2.256
396.30 2.241
396.40 2.224
396.50 2.206
396.60 2.188
396.70 2.168
396.80 2.146
396.90 2.125
397.00 2.103
397.10 2.119
397.20 2.136
397.30 2.154
397.40 2.169
397.50 2.184
397.60 2.198
397.70 2.211
397.80 2.222
397.90 2.233
398.00 2.242
398.10 2.251
398.20 2.259
398.30 2.265
398.40 2.271
398.50 2.277
398.60 2.282
398.70 2.286
398.80 2.29
398.90 2.293
399.00 2.296
399.10 2.298
399.20 2.3
399.30 2.302
399.40 2.303
399.50 2.304
399.60 2.305
399.70 2.306
399.80 2.306
399.90 2.306
400.00 2.306
400.10 2.305
400.20 2.305
400.30 2.304
400.40 2.304
400.50 2.303
400.60 2.302
400.70 2.301
400.80 2.3
400.90 2.299
401.00 2.297
401.10 2.296
401.20 2.295
401.30 2.293
401.40 2.292
401.50 2.29
401.60 2.289
401.70 2.287
401.80 2.285
401.90 2.283
402.00 2.282
402.10 2.28
402.20 2.278
402.30 2.276
402.40 2.274
402.50 2.272
402.60 2.271
402.70 2.269
402.80 2.267
402.90 2.265
403.00 2.263
403.10 2.261
403.20 2.259
403.30 2.257
403.40 2.255
403.50 2.252
403.60 2.25
403.70 2.248
403.80 2.246
403.90 2.244
404.00 2.242
404.10 2.24
404.20 2.237
404.30 2.235
404.40 2.233
404.50 2.231
404.60 2.228
404.70 2.226
404.80 2.224
404.90 2.221
405.00 2.219
405.10 2.217
405.20 2.214
405.30 2.212
405.40 2.209
405.50 2.207
405.60 2.204
405.70 2.201
405.80 2.199
405.90 2.196
406.00 2.193
406.10 2.191
406.20 2.188
406.30 2.185
406.40 2.182
406.50 2.179
406.60 2.175
406.70 2.172
406.80 2.169
406.90 2.165
407.00 2.161
407.10 2.158
407.20 2.154
407.30 2.15
407.40 2.145
407.50 2.141
407.60 2.136
407.70 2.131
407.80 2.125
407.90 2.12
408.00 2.114
408.10 2.107
408.20 2.1
408.30 2.093
408.40 2.085
408.50 2.077
408.60 2.068
408.70 2.058
408.80 2.047
408.90 2.036
409.00 2.024
409.10 2.011
409.20 1.996
409.30 1.981
409.40 1.965
409.50 1.947
409.60 1.928
409.70 1.906
409.80 1.883
409.90 1.858
410.00 1.827
410.10 1.805
410.20 1.793
410.30 1.813
410.40 1.836
410.50 1.861
410.60 1.882
410.70 1.9
410.80 1.917
410.90 1.932
411.00 1.945
411.10 1.958
411.20 1.968
411.30 1.978
411.40 1.987
411.50 1.995
411.60 2.002
411.70 2.008
411.80 2.013
411.90 2.018
412.00 2.022
412.10 2.026
412.20 2.029
412.30 2.032
412.40 2.034
412.50 2.036
412.60 2.037
412.70 2.038
412.80 2.039
412.90 2.04
413.00 2.041
413.10 2.041
413.20 2.041
413.30 2.041
413.40 2.041
413.50 2.04
413.60 2.04
413.70 2.039
413.80 2.038
413.90 2.038
414.00 2.037
414.10 2.036
414.20 2.035
414.30 2.034
414.40 2.033
414.50 2.031
414.60 2.03
414.70 2.029
414.80 2.028
414.90 2.026
415.00 2.025
415.10 2.023
415.20 2.022
415.30 2.021
415.40 2.019
415.50 2.018
415.60 2.016
415.70 2.015
415.80 2.013
415.90 2.011
416.00 2.01
416.10 2.008
416.20 2.007
416.30 2.005
416.40 2.003
416.50 2.002
416.60 2
416.70 1.998
416.80 1.997
416.90 1.995
417.00 1.993
417.10 1.992
417.20 1.99
417.30 1.988
417.40 1.987
417.50 1.985
417.60 1.983
417.70 1.982
417.80 1.98
417.90 1.978
418.00 1.976
418.10 1.975
418.20 1.973
418.30 1.971
418.40 1.97
418.50 1.968
418.60 1.966
418.70 1.964
418.80 1.963
418.90 1.961
419.00 1.959
419.10 1.957
419.20 1.956
419.30 1.954
419.40 1.952
419.50 1.951
419.60 1.949
419.70 1.947
419.80 1.945
419.90 1.944
420.00 1.942
420.10 1.94
420.20 1.938
420.30 1.937
420.40 1.935
420.50 1.933
420.60 1.932
420.70 1.93
420.80 1.928
420.90 1.926
421.00 1.925
421.10 1.923
421.20 1.921
421.30 1.92
421.40 1.918
421.50 1.916
421.60 1.914
421.70 1.913
421.80 1.911
421.90 1.909
422.00 1.907
422.10 1.906
422.20 1.904
422.30 1.902
422.40 1.901
422.50 1.899
422.60 1.897
422.70 1.895
422.80 1.894
422.90 1.892
423.00 1.89
423.10 1.889
423.20 1.887
423.30 1.885
423.40 1.884
423.50 1.882
423.60 1.88
423.70 1.878
423.80 1.877
423.90 1.875
424.00 1.873
424.10 1.872
424.20 1.87
424.30 1.868
424.40 1.866
424.50 1.865
424.60 1.863
424.70 1.861
424.80 1.86
424.90 1.858
425.00 1.856
425.10 1.855
425.20 1.853
425.30 1.851
425.40 1.849
425.50 1.848
425.60 1.846
425.70 1.844
425.80 1.843
425.90 1.841
426.00 1.839
426.10 1.838
426.20 1.836
426.30 1.834
426.40 1.832
426.50 1.831
426.60 1.829
426.70 1.827
426.80 1.825
426.90 1.824
427.00 1.822
427.10 1.82
427.20 1.819
427.30 1.817
427.40 1.815
427.50 1.813
427.60 1.812
427.70 1.81
427.80 1.808
427.90 1.806
428.00 1.804
428.10 1.803
428.20 1.801
428.30 1.799
428.40 1.797
428.50 1.795
428.60 1.793
428.70 1.792
428.80 1.79
428.90 1.788
429.00 1.786
429.10 1.784
429.20 1.782
429.30 1.78
429.40 1.778
429.50 1.776
429.60 1.774
429.70 1.772
429.80 1.77
429.90 1.767
430.00 1.765
430.10 1.763
430.20 1.761
430.30 1.758
430.40 1.756
430.50 1.753
430.60 1.751
430.70 1.748
430.80 1.745
430.90 1.742
431.00 1.739
431.10 1.736
431.20 1.733
431.30 1.73
431.40 1.726
431.50 1.722
431.60 1.718
431.70 1.714
431.80 1.709
431.90 1.705
432.00 1.699
432.10 1.694
432.20 1.688
432.30 1.681
432.40 1.674
432.50 1.667
432.60 1.658
432.70 1.65
432.80 1.64
432.90 1.629
433.00 1.618
433.10 1.605
433.20 1.591
433.30 1.576
433.40 1.56
433.50 1.542
433.60 1.522
433.70 1.499
433.80 1.47
433.90 1.437
434.00 1.402
434.10 1.402
434.20 1.437
434.30 1.466
434.40 1.492
434.50 1.512
434.60 1.529
434.70 1.544
434.80 1.558
434.90 1.57
435.00 1.58
435.10 1.59
435.20 1.599
435.30 1.606
435.40 1.613
435.50 1.619
435.60 1.624
435.70 1.629
435.80 1.632
435.90 1.636
436.00 1.639
436.10 1.641
436.20 1.643
436.30 1.645
436.40 1.647
436.50 1.648
436.60 1.649
436.70 1.649
436.80 1.65
436.90 1.65
437.00 1.65
437.10 1.65
437.20 1.65
437.30 1.65
437.40 1.65
437.50 1.649
437.60 1.649
437.70 1.648
437.80 1.648
437.90 1.647
438.00 1.646
438.10 1.645
438.20 1.645
438.30 1.644
438.40 1.643
438.50 1.642
438.60 1.641
438.70 1.64
438.80 1.639
438.90 1.638
439.00 1.637
439.10 1.636
439.20 1.634
439.30 1.633
439.40 1.632
439.50 1.631
439.60 1.63
439.70 1.629
439.80 1.627
439.90 1.626
440.00 1.625
440.10 1.624
440.20 1.623
440.30 1.621
440.40 1.62
440.50 1.619
440.60 1.617
440.70 1.616
440.80 1.615
440.90 1.614
441.00 1.612
441.10 1.611
441.20 1.61
441.30 1.608
441.40 1.607
441.50 1.606
441.60 1.605
441.70 1.603
441.80 1.602
441.90 1.601
442.00 1.599
442.10 1.598
442.20 1.597
442.30 1.595
442.40 1.594
442.50 1.593
442.60 1.591
442.70 1.59
442.80 1.589
442.90 1.587
443.00 1.586
443.10 1.585
443.20 1.583
443.30 1.582
443.40 1.581
443.50 1.58
443.60 1.578
443.70 1.577
443.80 1.576
443.90 1.574
444.00 1.573
444.10 1.572
444.20 1.57
444.30 1.569
444.40 1.568
444.50 1.566
444.60 1.565
444.70 1.564
444.80 1.562
444.90 1.561
445.00 1.56
445.10 1.558
445.20 1.557
445.30 1.556
445.40 1.554
445.50 1.553
445.60 1.552
445.70 1.551
445.80 1.549
445.90 1.548
446.00 1.547
446.10 1.545
446.20 1.544
446.30 1.543
446.40 1.541
446.50 1.54
446.60 1.539
446.70 1.538
446.80 1.536
446.90 1.535
447.00 1.534
447.10 1.532
447.20 1.531
447.30 1.53
447.40 1.528
447.50 1.527
447.60 1.526
447.70 1.525
447.80 1.523
447.90 1.522
448.00 1.521
448.10 1.519
448.20 1.518
448.30 1.517
448.40 1.516
448.50 1.514
448.60 1.513
448.70 1.512
448.80 1.51
448.90 1.509
449.00 1.508
449.10 1.507
449.20 1.505
449.30 1.504
449.40 1.503
449.50 1.502
449.60 1.5
449.70 1.499
449.80 1.498
449.90 1.496
450.00 1.495
450.10 1.494
450.20 1.493
450.30 1.491
450.40 1.49
450.50 1.489
450.60 1.488
450.70 1.486
450.80 1.485
450.90 1.484
451.00 1.483
451.10 1.481
451.20 1.48
451.30 1.479
451.40 1.478
451.50 1.476
451.60 1.475
451.70 1.474
451.80 1.473
451.90 1.471
452.00 1.47
452.10 1.469
452.20 1.468
452.30 1.467
452.40 1.465
452.50 1.464
452.60 1.463
452.70 1.462
452.80 1.46
452.90 1.459
453.00 1.458
453.10 1.457
453.20 1.455
453.30 1.454
453.40 1.453
453.50 1.452
453.60 1.451
453.70 1.449
453.80 1.448
453.90 1.447
454.00 1.446
454.10 1.445
454.20 1.443
454.30 1.442
454.40 1.441
454.50 1.44
454.60 1.439
454.70 1.437
454.80 1.436
454.90 1.435
455.00 1.434
455.10 1.432
455.20 1.431
455.30 1.43
455.40 1.429
455.50 1.428
455.60 1.427
455.70 1.425
455.80 1.424
455.90 1.423
456.00 1.422
456.10 1.421
456.20 1.419
456.30 1.418
456.40 1.417
456.50 1.416
456.60 1.415
456.70 1.413
456.80 1.412
456.90 1.411
457.00 1.41
457.10 1.409
457.20 1.408
457.30 1.406
457.40 1.405
457.50 1.404
457.60 1.403
457.70 1.402
457.80 1.401
457.90 1.399
458.00 1.398
458.10 1.397
458.20 1.396
458.30 1.395
458.40 1.394
458.50 1.392
458.60 1.391
458.70 1.39
458.80 1.389
458.90 1.388
459.00 1.387
459.10 1.386
459.20 1.384
459.30 1.383
459.40 1.382
459.50 1.381
459.60 1.38
459.70 1.379
459.80 1.377
459.90 1.376
460.00 1.375
460.10 1.374
460.20 1.373
460.30 1.372
460.40 1.371
460.50 1.37
460.60 1.368
460.70 1.367
460.80 1.366
460.90 1.365
461.00 1.364
461.10 1.363
461.20 1.362
461.30 1.36
461.40 1.359
461.50 1.358
461.60 1.357
461.70 1.356
461.80 1.355
461.90 1.354
462.00 1.353
462.10 1.351
462.20 1.35
462.30 1.349
462.40 1.348
462.50 1.347
462.60 1.346
462.70 1.345
462.80 1.344
462.90 1.343
463.00 1.341
463.10 1.34
463.20 1.339
463.30 1.338
463.40 1.337
463.50 1.336
463.60 1.335
463.70 1.334
463.80 1.333
463.90 1.332
464.00 1.33
464.10 1.329
464.20 1.328
464.30 1.327
464.40 1.326
464.50 1.325
464.60 1.324
464.70 1.323
464.80 1.322
464.90 1.321
465.00 1.32
465.10 1.319
465.20 1.317
465.30 1.316
465.40 1.315
465.50 1.314
465.60 1.313
465.70 1.312
465.80 1.311
465.90 1.31
466.00 1.309
466.10 1.308
466.20 1.307
466.30 1.306
466.40 1.305
466.50 1.303
466.60 1.302
466.70 1.301
466.80 1.3
466.90 1.299
467.00 1.298
467.10 1.297
467.20 1.296
467.30 1.295
467.40 1.294
467.50 1.293
467.60 1.292
467.70 1.291
467.80 1.29
467.90 1.289
468.00 1.288
468.10 1.286
468.20 1.285
468.30 1.284
468.40 1.283
468.50 1.282
468.60 1.281
468.70 1.28
468.80 1.279
468.90 1.278
469.00 1.277
469.10 1.276
469.20 1.275
469.30 1.274
469.40 1.273
469.50 1.272
469.60 1.271
469.70 1.27
469.80 1.269
469.90 1.268
470.00 1.267
470.10 1.266
470.20 1.265
470.30 1.264
470.40 1.263
470.50 1.261
470.60 1.26
470.70 1.259
470.80 1.258
470.90 1.257
471.00 1.256
471.10 1.255
471.20 1.254
471.30 1.253
471.40 1.252
471.50 1.251
471.60 1.25
471.70 1.249
471.80 1.248
471.90 1.247
472.00 1.246
472.10 1.245
472.20 1.244
472.30 1.243
472.40 1.242
472.50 1.241
472.60 1.24
472.70 1.239
472.80 1.238
472.90 1.237
473.00 1.236
473.10 1.235
473.20 1.234
473.30 1.233
473.40 1.232
473.50 1.231
473.60 1.23
473.70 1.229
473.80 1.228
473.90 1.227
474.00 1.226
474.10 1.225
474.20 1.224
474.30 1.223
474.40 1.222
474.50 1.221
474.60 1.22
474.70 1.219
474.80 1.218
474.90 1.217
475.00 1.216
475.10 1.215
475.20 1.214
475.30 1.213
475.40 1.212
475.50 1.211
475.60 1.21
475.70 1.209
475.80 1.208
475.90 1.207
476.00 1.206
476.10 1.205
476.20 1.204
476.30 1.203
476.40 1.202
476.50 1.201
476.60 1.2
476.70 1.199
476.80 1.198
476.90 1.197
477.00 1.196
477.10 1.195
477.20 1.194
477.30 1.193
477.40 1.192
477.50 1.191
477.60 1.19
477.70 1.189
477.80 1.188
477.90 1.187
478.00 1.186
478.10 1.185
478.20 1.184
478.30 1.183
478.40 1.182
478.50 1.181
478.60 1.18
478.70 1.179
478.80 1.178
478.90 1.177
479.00 1.176
479.10 1.175
479.20 1.174
479.30 1.173
479.40 1.172
479.50 1.171
479.60 1.17
479.70 1.169
479.80 1.168
479.90 1.167
480.00 1.166
480.10 1.165
480.20 1.164
480.30 1.163
480.40 1.161
480.50 1.16
480.60 1.159
480.70 1.158
480.80 1.157
480.90 1.156
481.00 1.155
481.10 1.154
481.20 1.153
481.30 1.151
481.40 1.15
481.50 1.149
481.60 1.148
481.70 1.146
481.80 1.145
481.90 1.144
482.00 1.143
482.10 1.141
482.20 1.14
482.30 1.138
482.40 1.137
482.50 1.135
482.60 1.134
482.70 1.132
482.80 1.131
482.90 1.129
483.00 1.127
483.10 1.126
483.20 1.124
483.30 1.121
483.40 1.119
483.50 1.116
483.60 1.114
483.70 1.111
483.80 1.109
483.90 1.106
484.00 1.104
484.10 1.101
484.20 1.098
484.30 1.094
484.40 1.09
484.50 1.086
484.60 1.082
484.70 1.076
484.80 1.07
484.90 1.064
485.00 1.058
485.10 1.052
485.20 1.044
485.30 1.036
485.40 1.026
485.50 1.016
485.60 1.004
485.70 0.9912
485.80 0.9732
485.90 0.9527
486.00 0.9208
486.10 0.8875
486.20 0.8913
486.30 0.9323
486.40 0.9554
486.50 0.9747
486.60 0.9886
486.70 1
486.80 1.009
486.90 1.018
487.00 1.025
487.10 1.032
487.20 1.037
487.30 1.041
487.40 1.046
487.50 1.05
487.60 1.054
487.70 1.057
487.80 1.06
487.90 1.062
488.00 1.064
488.10 1.067
488.20 1.068
488.30 1.068
488.40 1.069
488.50 1.07
488.60 1.071
488.70 1.071
488.80 1.072
488.90 1.073
489.00 1.073
489.10 1.074
489.20 1.074
489.30 1.074
489.40 1.074
489.50 1.073
489.60 1.073
489.70 1.073
489.80 1.073
489.90 1.073
490.00 1.072
490.10 1.072
490.20 1.072
490.30 1.071
490.40 1.071
490.50 1.07
490.60 1.07
490.70 1.069
490.80 1.068
490.90 1.068
491.00 1.067
491.10 1.067
491.20 1.066
491.30 1.066
491.40 1.065
491.50 1.064
491.60 1.064
491.70 1.063
491.80 1.062
491.90 1.062
492.00 1.061
492.10 1.06
492.20 1.059
492.30 1.059
492.40 1.058
492.50 1.057
492.60 1.057
492.70 1.056
492.80 1.055
492.90 1.054
493.00 1.054
493.10 1.053
493.20 1.052
493.30 1.051
493.40 1.051
493.50 1.05
493.60 1.049
493.70 1.048
493.80 1.048
493.90 1.047
494.00 1.046
494.10 1.045
494.20 1.045
494.30 1.044
494.40 1.043
494.50 1.042
494.60 1.041
494.70 1.041
494.80 1.04
494.90 1.039
495.00 1.038
495.10 1.038
495.20 1.037
495.30 1.036
495.40 1.035
495.50 1.035
495.60 1.034
495.70 1.033
495.80 1.032
495.90 1.031
496.00 1.031
496.10 1.03
496.20 1.029
496.30 1.028
496.40 1.028
496.50 1.027
496.60 1.026
496.70 1.025
496.80 1.025
496.90 1.024
497.00 1.023
497.10 1.022
497.20 1.021
497.30 1.021
497.40 1.02
497.50 1.019
497.60 1.018
497.70 1.018
497.80 1.017
497.90 1.016
498.00 1.015
498.10 1.015
498.20 1.014
498.30 1.013
498.40 1.012
498.50 1.011
498.60 1.011
498.70 1.01
498.80 1.009
498.90 1.008
499.00 1.008
499.10 1.007
499.20 1.006
499.30 1.005
499.40 1.005
499.50 1.004
499.60 1.003
499.70 1.002
499.80 1.002
499.90 1.001
500.00 1
500.10 0.9992
500.20 0.9985
500.30 0.9977
500.40 0.997
500.50 0.9962
500.60 0.9955
500.70 0.9947
500.80 0.994
500.90 0.9932
501.00 0.9924
501.10 0.9917
501.20 0.9909
501.30 0.9902
501.40 0.9894
501.50 0.9887
501.60 0.9879
501.70 0.9872
501.80 0.9864
501.90 0.9857
502.00 0.9849
502.10 0.9842
502.20 0.9834
502.30 0.9827
502.40 0.982
502.50 0.9812
502.60 0.9805
502.70 0.9797
502.80 0.979
502.90 0.9783
503.00 0.9775
503.10 0.9768
503.20 0.976
503.30 0.9753
503.40 0.9746
503.50 0.9738
503.60 0.9731
503.70 0.9723
503.80 0.9716
503.90 0.9709
504.00 0.9701
504.10 0.9694
504.20 0.9687
504.30 0.9679
504.40 0.9672
504.50 0.9665
504.60 0.9657
504.70 0.965
504.80 0.9643
504.90 0.9636
505.00 0.9628
505.10 0.9621
505.20 0.9614
505.30 0.9607
505.40 0.9599
505.50 0.9592
505.60 0.9585
505.70 0.9578
505.80 0.957
505.90 0.9563
506.00 0.9556
506.10 0.9549
506.20 0.9542
506.30 0.9534
506.40 0.9527
506.50 0.952
506.60 0.9513
506.70 0.9506
506.80 0.9499
506.90 0.9491
507.00 0.9484
507.10 0.9477
507.20 0.947
507.30 0.9463
507.40 0.9456
507.50 0.9449
507.60 0.9441
507.70 0.9434
507.80 0.9427
507.90 0.942
508.00 0.9413
508.10 0.9406
508.20 0.9399
508.30 0.9392
508.40 0.9385
508.50 0.9378
508.60 0.9371
508.70 0.9364
508.80 0.9357
508.90 0.935
509.00 0.9343
509.10 0.9336
509.20 0.9329
509.30 0.9322
509.40 0.9315
509.50 0.9308
509.60 0.9301
509.70 0.9294
509.80 0.9287
509.90 0.928
510.00 0.9273
510.10 0.9266
510.20 0.9259
510.30 0.9252
510.40 0.9245
510.50 0.9238
510.60 0.9231
510.70 0.9224
510.80 0.9217
510.90 0.9211
511.00 0.9204
511.10 0.9197
511.20 0.919
511.30 0.9183
511.40 0.9176
511.50 0.9169
511.60 0.9162
511.70 0.9156
511.80 0.9149
511.90 0.9142
512.00 0.9135
512.10 0.9128
512.20 0.9122
512.30 0.9115
512.40 0.9108
512.50 0.9101
512.60 0.9094
512.70 0.9088
512.80 0.9081
512.90 0.9074
513.00 0.9067
513.10 0.906
513.20 0.9054
513.30 0.9047
513.40 0.904
513.50 0.9034
513.60 0.9027
513.70 0.902
513.80 0.9013
513.90 0.9007
514.00 0.9
514.10 0.8993
514.20 0.8987
514.30 0.898
514.40 0.8973
514.50 0.8967
514.60 0.896
514.70 0.8953
514.80 0.8947
514.90 0.894
515.00 0.8933
515.10 0.8927
515.20 0.892
515.30 0.8913
515.40 0.8907
515.50 0.89
515.60 0.8894
515.70 0.8887
515.80 0.888
515.90 0.8874
516.00 0.8867
516.10 0.8861
516.20 0.8854
516.30 0.8848
516.40 0.8841
516.50 0.8834
516.60 0.8828
516.70 0.8821
516.80 0.8815
516.90 0.8808
517.00 0.8802
517.10 0.8795
517.20 0.8789
517.30 0.8782
517.40 0.8776
517.50 0.8769
517.60 0.8763
517.70 0.8756
517.80 0.875
517.90 0.8743
518.00 0.8737
518.10 0.8731
518.20 0.8724
518.30 0.8718
518.40 0.8711
518.50 0.8705
518.60 0.8698
518.70 0.8692
518.80 0.8686
518.90 0.8679
519.00 0.8673
519.10 0.8666
519.20 0.866
519.30 0.8654
519.40 0.8647
519.50 0.8641
519.60 0.8635
519.70 0.8628
519.80 0.8622
519.90 0.8615
520.00 0.8609
520.10 0.8603
520.20 0.8596
520.30 0.859
520.40 0.8584
520.50 0.8577
520.60 0.8571
520.70 0.8565
520.80 0.8559
520.90 0.8552
521.00 0.8546
521.10 0.854
521.20 0.8533
521.30 0.8527
521.40 0.8521
521.50 0.8515
521.60 0.8508
521.70 0.8502
521.80 0.8496
521.90 0.849
522.00 0.8484
522.10 0.8477
522.20 0.8471
522.30 0.8465
522.40 0.8459
522.50 0.8453
522.60 0.8446
522.70 0.844
522.80 0.8434
522.90 0.8428
523.00 0.8422
523.10 0.8415
523.20 0.8409
523.30 0.8403
523.40 0.8397
523.50 0.8391
523.60 0.8385
523.70 0.8379
523.80 0.8372
523.90 0.8366
524.00 0.836
524.10 0.8354
524.20 0.8348
524.30 0.8342
524.40 0.8336
524.50 0.833
524.60 0.8324
524.70 0.8318
524.80 0.8312
524.90 0.8306
525.00 0.8299
525.10 0.8293
525.20 0.8287
525.30 0.8281
525.40 0.8275
525.50 0.8269
525.60 0.8263
525.70 0.8257
525.80 0.8251
525.90 0.8245
526.00 0.8239
526.10 0.8233
526.20 0.8227
526.30 0.8221
526.40 0.8215
526.50 0.8209
526.60 0.8203
526.70 0.8197
526.80 0.8191
526.90 0.8185
527.00 0.8179
527.10 0.8174
527.20 0.8168
527.30 0.8162
527.40 0.8156
527.50 0.815
527.60 0.8144
527.70 0.8138
527.80 0.8132
527.90 0.8126
528.00 0.812
528.10 0.8114
528.20 0.8109
528.30 0.8103
528.40 0.8097
528.50 0.8091
528.60 0.8085
528.70 0.8079
528.80 0.8073
528.90 0.8068
529.00 0.8062
529.10 0.8056
529.20 0.805
529.30 0.8044
529.40 0.8038
529.50 0.8033
529.60 0.8027
529.70 0.8021
529.80 0.8015
529.90 0.8009
530.00 0.8004
530.10 0.7998
530.20 0.7992
530.30 0.7986
530.40 0.798
530.50 0.7975
530.60 0.7969
530.70 0.7963
530.80 0.7957
530.90 0.7952
531.00 0.7946
531.10 0.794
531.20 0.7935
531.30 0.7929
531.40 0.7923
531.50 0.7917
531.60 0.7912
531.70 0.7906
531.80 0.79
531.90 0.7895
532.00 0.7889
532.10 0.7883
532.20 0.7878
532.30 0.7872
532.40 0.7866
532.50 0.7861
532.60 0.7855
532.70 0.7849
532.80 0.7844
532.90 0.7838
533.00 0.7832
533.10 0.7827
533.20 0.7821
533.30 0.7816
533.40 0.781
533.50 0.7804
533.60 0.7799
533.70 0.7793
533.80 0.7788
533.90 0.7782
534.00 0.7776
534.10 0.7771
534.20 0.7765
534.30 0.776
534.40 0.7754
534.50 0.7749
534.60 0.7743
534.70 0.7737
534.80 0.7732
534.90 0.7726
535.00 0.7721
535.10 0.7715
535.20 0.771
535.30 0.7704
535.40 0.7699
535.50 0.7693
535.60 0.7688
535.70 0.7682
535.80 0.7677
535.90 0.7671
536.00 0.7666
536.10 0.766
536.20 0.7655
536.30 0.7649
536.40 0.7644
536.50 0.7638
536.60 0.7633
536.70 0.7628
536.80 0.7622
536.90 0.7617
537.00 0.7611
537.10 0.7606
537.20 0.76
537.30 0.7595
537.40 0.759
537.50 0.7584
537.60 0.7579
537.70 0.7573
537.80 0.7568
537.90 0.7562
538.00 0.7557
538.10 0.7552
538.20 0.7546
538.30 0.7541
538.40 0.7536
538.50 0.753
538.60 0.7525
538.70 0.752
538.80 0.7514
538.90 0.7509
539.00 0.7504
539.10 0.7498
539.20 0.7493
539.30 0.7488
539.40 0.7482
539.50 0.7477
539.60 0.7472
539.70 0.7466
539.80 0.7461
539.90 0.7456
540.00 0.745
540.10 0.7445
540.20 0.744
540.30 0.7435
540.40 0.7429
540.50 0.7424
540.60 0.7419
540.70 0.7414
540.80 0.7408
540.90 0.7403
541.00 0.7398
541.10 0.7393
541.20 0.7387
541.30 0.7382
541.40 0.7377
541.50 0.7372
541.60 0.7366
541.70 0.7361
541.80 0.7356
541.90 0.7351
542.00 0.7346
542.10 0.734
542.20 0.7335
542.30 0.733
542.40 0.7325
542.50 0.732
542.60 0.7314
542.70 0.7309
542.80 0.7304
542.90 0.7299
543.00 0.7294
543.10 0.7289
543.20 0.7284
543.30 0.7278
543.40 0.7273
543.50 0.7268
543.60 0.7263
543.70 0.7258
543.80 0.7253
543.90 0.7248
544.00 0.7243
544.10 0.7237
544.20 0.7232
544.30 0.7227
544.40 0.7222
544.50 0.7217
544.60 0.7212
544.70 0.7207
544.80 0.7202
544.90 0.7197
545.00 0.7192
545.10 0.7187
545.20 0.7182
545.30 0.7177
545.40 0.7172
545.50 0.7167
545.60 0.7162
545.70 0.7156
545.80 0.7151
545.90 0.7146
546.00 0.7141
546.10 0.7136
546.20 0.7131
546.30 0.7126
546.40 0.7121
546.50 0.7116
546.60 0.7111
546.70 0.7106
546.80 0.7101
546.90 0.7096
547.00 0.7091
547.10 0.7087
547.20 0.7082
547.30 0.7077
547.40 0.7072
547.50 0.7067
547.60 0.7062
547.70 0.7057
547.80 0.7052
547.90 0.7047
548.00 0.7042
548.10 0.7037
548.20 0.7032
548.30 0.7027
548.40 0.7022
548.50 0.7017
548.60 0.7013
548.70 0.7008
548.80 0.7003
548.90 0.6998
549.00 0.6993
549.10 0.6988
549.20 0.6983
549.30 0.6978
549.40 0.6973
549.50 0.6969
549.60 0.6964
549.70 0.6959
549.80 0.6954
549.90 0.6949
550.00 0.6944
550.10 0.6939
550.20 0.6935
550.30 0.693
550.40 0.6925
550.50 0.692
550.60 0.6915
550.70 0.6911
550.80 0.6906
550.90 0.6901
551.00 0.6896
551.10 0.6891
551.20 0.6887
551.30 0.6882
551.40 0.6877
551.50 0.6872
551.60 0.6867
551.70 0.6863
551.80 0.6858
551.90 0.6853
552.00 0.6848
552.10 0.6844
552.20 0.6839
552.30 0.6834
552.40 0.6829
552.50 0.6825
552.60 0.682
552.70 0.6815
552.80 0.681
552.90 0.6806
553.00 0.6801
553.10 0.6796
553.20 0.6791
553.30 0.6787
553.40 0.6782
553.50 0.6777
553.60 0.6773
553.70 0.6768
553.80 0.6763
553.90 0.6759
554.00 0.6754
554.10 0.6749
554.20 0.6745
554.30 0.674
554.40 0.6735
554.50 0.6731
554.60 0.6726
554.70 0.6721
554.80 0.6717
554.90 0.6712
555.00 0.6707
555.10 0.6703
555.20 0.6698
555.30 0.6694
555.40 0.6689
555.50 0.6684
555.60 0.668
555.70 0.6675
555.80 0.667
555.90 0.6666
556.00 0.6661
556.10 0.6657
556.20 0.6652
556.30 0.6647
556.40 0.6643
556.50 0.6638
556.60 0.6634
556.70 0.6629
556.80 0.6625
556.90 0.662
557.00 0.6615
557.10 0.6611
557.20 0.6606
557.30 0.6602
557.40 0.6597
557.50 0.6593
557.60 0.6588
557.70 0.6584
557.80 0.6579
557.90 0.6575
558.00 0.657
558.10 0.6566
558.20 0.6561
558.30 0.6557
558.40 0.6552
558.50 0.6548
558.60 0.6543
558.70 0.6539
558.80 0.6534
558.90 0.653
559.00 0.6525
559.10 0.6521
559.20 0.6516
559.30 0.6512
559.40 0.6507
559.50 0.6503
559.60 0.6498
559.70 0.6494
559.80 0.6489
559.90 0.6485
560.00 0.6481
560.10 0.6476
560.20 0.6472
560.30 0.6467
560.40 0.6463
560.50 0.6458
560.60 0.6454
560.70 0.645
560.80 0.6445
560.90 0.6441
561.00 0.6436
561.10 0.6432
561.20 0.6428
561.30 0.6423
561.40 0.6419
561.50 0.6414
561.60 0.641
561.70 0.6406
561.80 0.6401
561.90 0.6397
562.00 0.6392
562.10 0.6388
562.20 0.6384
562.30 0.6379
562.40 0.6375
562.50 0.6371
562.60 0.6366
562.70 0.6362
562.80 0.6358
562.90 0.6353
563.00 0.6349
563.10 0.6345
563.20 0.634
563.30 0.6336
563.40 0.6332
563.50 0.6327
563.60 0.6323
563.70 0.6319
563.80 0.6315
563.90 0.631
564.00 0.6306
564.10 0.6302
564.20 0.6297
564.30 0.6293
564.40 0.6289
564.50 0.6285
564.60 0.628
564.70 0.6276
564.80 0.6272
564.90 0.6267
565.00 0.6263
565.10 0.6259
565.20 0.6255
565.30 0.625
565.40 0.6246
565.50 0.6242
565.60 0.6238
565.70 0.6234
565.80 0.6229
565.90 0.6225
566.00 0.6221
566.10 0.6217
566.20 0.6212
566.30 0.6208
566.40 0.6204
566.50 0.62
566.60 0.6196
566.70 0.6191
566.80 0.6187
566.90 0.6183
567.00 0.6179
567.10 0.6175
567.20 0.617
567.30 0.6166
567.40 0.6162
567.50 0.6158
567.60 0.6154
567.70 0.615
567.80 0.6146
567.90 0.6141
568.00 0.6137
568.10 0.6133
568.20 0.6129
568.30 0.6125
568.40 0.6121
568.50 0.6117
568.60 0.6112
568.70 0.6108
568.80 0.6104
568.90 0.61
569.00 0.6096
569.10 0.6092
569.20 0.6088
569.30 0.6084
569.40 0.6079
569.50 0.6075
569.60 0.6071
569.70 0.6067
569.80 0.6063
569.90 0.6059
570.00 0.6055
570.10 0.6051
570.20 0.6047
570.30 0.6043
570.40 0.6039
570.50 0.6035
570.60 0.6031
570.70 0.6026
570.80 0.6022
570.90 0.6018
571.00 0.6014
571.10 0.601
571.20 0.6006
571.30 0.6002
571.40 0.5998
571.50 0.5994
571.60 0.599
571.70 0.5986
571.80 0.5982
571.90 0.5978
572.00 0.5974
572.10 0.597
572.20 0.5966
572.30 0.5962
572.40 0.5958
572.50 0.5954
572.60 0.595
572.70 0.5946
572.80 0.5942
572.90 0.5938
573.00 0.5934
573.10 0.593
573.20 0.5926
573.30 0.5922
573.40 0.5918
573.50 0.5914
573.60 0.591
573.70 0.5906
573.80 0.5902
573.90 0.5898
574.00 0.5895
574.10 0.5891
574.20 0.5887
574.30 0.5883
574.40 0.5879
574.50 0.5875
574.60 0.5871
574.70 0.5867
574.80 0.5863
574.90 0.5859
575.00 0.5855
575.10 0.5851
575.20 0.5847
575.30 0.5844
575.40 0.584
575.50 0.5836
575.60 0.5832
575.70 0.5828
575.80 0.5824
575.90 0.582
576.00 0.5816
576.10 0.5812
576.20 0.5809
576.30 0.5805
576.40 0.5801
576.50 0.5797
576.60 0.5793
576.70 0.5789
576.80 0.5785
576.90 0.5782
577.00 0.5778
577.10 0.5774
577.20 0.577
577.30 0.5766
577.40 0.5762
577.50 0.5759
577.60 0.5755
577.70 0.5751
577.80 0.5747
577.90 0.5743
578.00 0.5739
578.10 0.5736
578.20 0.5732
578.30 0.5728
578.40 0.5724
578.50 0.572
578.60 0.5717
578.70 0.5713
578.80 0.5709
578.90 0.5705
579.00 0.5701
579.10 0.5698
579.20 0.5694
579.30 0.569
579.40 0.5686
579.50 0.5683
579.60 0.5679
579.70 0.5675
579.80 0.5671
579.90 0.5668
580.00 0.5664
580.10 0.566
580.20 0.5656
580.30 0.5653
580.40 0.5649
580.50 0.5645
580.60 0.5641
580.70 0.5638
580.80 0.5634
580.90 0.563
581.00 0.5626
581.10 0.5623
581.20 0.5619
581.30 0.5615
581.40 0.5612
581.50 0.5608
581.60 0.5604
581.70 0.56
581.80 0.5597
581.90 0.5593
582.00 0.5589
582.10 0.5586
582.20 0.5582
582.30 0.5578
582.40 0.5575
582.50 0.5571
582.60 0.5567
582.70 0.5564
582.80 0.556
582.90 0.5556
583.00 0.5553
583.10 0.5549
583.20 0.5545
583.30 0.5542
583.40 0.5538
583.50 0.5534
583.60 0.5531
583.70 0.5527
583.80 0.5523
583.90 0.552
584.00 0.5516
584.10 0.5513
584.20 0.5509
584.30 0.5505
584.40 0.5502
584.50 0.5498
584.60 0.5495
584.70 0.5491
584.80 0.5487
584.90 0.5484
585.00 0.548
585.10 0.5476
585.20 0.5473
585.30 0.5469
585.40 0.5466
585.50 0.5462
585.60 0.5459
585.70 0.5455
585.80 0.5451
585.90 0.5448
586.00 0.5444
586.10 0.5441
586.20 0.5437
586.30 0.5434
586.40 0.543
586.50 0.5426
586.60 0.5423
586.70 0.5419
586.80 0.5416
586.90 0.5412
587.00 0.5409
587.10 0.5405
587.20 0.5402
587.30 0.5398
587.40 0.5395
587.50 0.5391
587.60 0.5388
587.70 0.5384
587.80 0.538
587.90 0.5377
588.00 0.5373
588.10 0.537
588.20 0.5366
588.30 0.5363
588.40 0.5359
588.50 0.5356
588.60 0.5352
588.70 0.5349
588.80 0.5345
588.90 0.5342
589.00 0.5338
589.10 0.5335
589.20 0.5332
589.30 0.5328
589.40 0.5325
589.50 0.5321
589.60 0.5318
589.70 0.5314
589.80 0.5311
589.90 0.5307
590.00 0.5304
590.10 0.53
590.20 0.5297
590.30 0.5293
590.40 0.529
590.50 0.5287
590.60 0.5283
590.70 0.528
590.80 0.5276
590.90 0.5273
591.00 0.5269
591.10 0.5266
591.20 0.5263
591.30 0.5259
591.40 0.5256
591.50 0.5252
591.60 0.5249
591.70 0.5245
591.80 0.5242
591.90 0.5239
592.00 0.5235
592.10 0.5232
592.20 0.5228
592.30 0.5225
592.40 0.5222
592.50 0.5218
592.60 0.5215
592.70 0.5212
592.80 0.5208
592.90 0.5205
593.00 0.5201
593.10 0.5198
593.20 0.5195
593.30 0.5191
593.40 0.5188
593.50 0.5185
593.60 0.5181
593.70 0.5178
593.80 0.5175
593.90 0.5171
594.00 0.5168
594.10 0.5164
594.20 0.5161
594.30 0.5158
594.40 0.5154
594.50 0.5151
594.60 0.5148
594.70 0.5145
594.80 0.5141
594.90 0.5138
595.00 0.5135
595.10 0.5131
595.20 0.5128
595.30 0.5125
595.40 0.5121
595.50 0.5118
595.60 0.5115
595.70 0.5111
595.80 0.5108
595.90 0.5105
596.00 0.5102
596.10 0.5098
596.20 0.5095
596.30 0.5092
596.40 0.5088
596.50 0.5085
596.60 0.5082
596.70 0.5079
596.80 0.5075
596.90 0.5072
597.00 0.5069
597.10 0.5065
597.20 0.5062
597.30 0.5059
597.40 0.5056
597.50 0.5052
597.60 0.5049
597.70 0.5046
597.80 0.5043
597.90 0.5039
598.00 0.5036
598.10 0.5033
598.20 0.503
598.30 0.5027
598.40 0.5023
598.50 0.502
598.60 0.5017
598.70 0.5014
598.80 0.501
598.90 0.5007
599.00 0.5004
599.10 0.5001
599.20 0.4998
599.30 0.4994
599.40 0.4991
599.50 0.4988
599.60 0.4985
599.70 0.4982
599.80 0.4978
599.90 0.4975
600.00 0.4972
600.10 0.4969
600.20 0.4966
600.30 0.4962
600.40 0.4959
600.50 0.4956
600.60 0.4953
600.70 0.495
600.80 0.4947
600.90 0.4943
601.00 0.494
601.10 0.4937
601.20 0.4934
601.30 0.4931
601.40 0.4928
601.50 0.4924
601.60 0.4921
601.70 0.4918
601.80 0.4915
601.90 0.4912
602.00 0.4909
602.10 0.4906
602.20 0.4903
602.30 0.4899
602.40 0.4896
602.50 0.4893
602.60 0.489
602.70 0.4887
602.80 0.4884
602.90 0.4881
603.00 0.4878
603.10 0.4874
603.20 0.4871
603.30 0.4868
603.40 0.4865
603.50 0.4862
603.60 0.4859
603.70 0.4856
603.80 0.4853
603.90 0.485
604.00 0.4847
604.10 0.4843
604.20 0.484
604.30 0.4837
604.40 0.4834
604.50 0.4831
604.60 0.4828
604.70 0.4825
604.80 0.4822
604.90 0.4819
605.00 0.4816
605.10 0.4813
605.20 0.481
605.30 0.4807
605.40 0.4804
605.50 0.4801
605.60 0.4798
605.70 0.4794
605.80 0.4791
605.90 0.4788
606.00 0.4785
606.10 0.4782
606.20 0.4779
606.30 0.4776
606.40 0.4773
606.50 0.477
606.60 0.4767
606.70 0.4764
606.80 0.4761
606.90 0.4758
607.00 0.4755
607.10 0.4752
607.20 0.4749
607.30 0.4746
607.40 0.4743
607.50 0.474
607.60 0.4737
607.70 0.4734
607.80 0.4731
607.90 0.4728
608.00 0.4725
608.10 0.4722
608.20 0.4719
608.30 0.4716
608.40 0.4713
608.50 0.471
608.60 0.4707
608.70 0.4704
608.80 0.4701
608.90 0.4698
609.00 0.4695
609.10 0.4692
609.20 0.4689
609.30 0.4686
609.40 0.4683
609.50 0.4681
609.60 0.4678
609.70 0.4675
609.80 0.4672
609.90 0.4669
610.00 0.4666
610.10 0.4663
610.20 0.466
610.30 0.4657
610.40 0.4654
610.50 0.4651
610.60 0.4648
610.70 0.4645
610.80 0.4642
610.90 0.4639
611.00 0.4636
611.10 0.4634
611.20 0.4631
611.30 0.4628
611.40 0.4625
611.50 0.4622
611.60 0.4619
611.70 0.4616
611.80 0.4613
611.90 0.461
612.00 0.4607
612.10 0.4604
612.20 0.4602
612.30 0.4599
612.40 0.4596
612.50 0.4593
612.60 0.459
612.70 0.4587
612.80 0.4584
612.90 0.4581
613.00 0.4579
613.10 0.4576
613.20 0.4573
613.30 0.457
613.40 0.4567
613.50 0.4564
613.60 0.4561
613.70 0.4558
613.80 0.4556
613.90 0.4553
614.00 0.455
614.10 0.4547
614.20 0.4544
614.30 0.4541
614.40 0.4539
614.50 0.4536
614.60 0.4533
614.70 0.453
614.80 0.4527
614.90 0.4524
615.00 0.4522
615.10 0.4519
615.20 0.4516
615.30 0.4513
615.40 0.451
615.50 0.4507
615.60 0.4505
615.70 0.4502
615.80 0.4499
615.90 0.4496
616.00 0.4493
616.10 0.4491
616.20 0.4488
616.30 0.4485
616.40 0.4482
616.50 0.4479
616.60 0.4477
616.70 0.4474
616.80 0.4471
616.90 0.4468
617.00 0.4465
617.10 0.4463
617.20 0.446
617.30 0.4457
617.40 0.4454
617.50 0.4451
617.60 0.4449
617.70 0.4446
617.80 0.4443
617.90 0.444
618.00 0.4438
618.10 0.4435
618.20 0.4432
618.30 0.4429
618.40 0.4427
618.50 0.4424
618.60 0.4421
618.70 0.4418
618.80 0.4416
618.90 0.4413
619.00 0.441
619.10 0.4407
619.20 0.4405
619.30 0.4402
619.40 0.4399
619.50 0.4396
619.60 0.4394
619.70 0.4391
619.80 0.4388
619.90 0.4386
620.00 0.4383
620.10 0.438
620.20 0.4377
620.30 0.4375
620.40 0.4372
620.50 0.4369
620.60 0.4367
620.70 0.4364
620.80 0.4361
620.90 0.4358
621.00 0.4356
621.10 0.4353
621.20 0.435
621.30 0.4348
621.40 0.4345
621.50 0.4342
621.60 0.434
621.70 0.4337
621.80 0.4334
621.90 0.4331
622.00 0.4329
622.10 0.4326
622.20 0.4323
622.30 0.4321
622.40 0.4318
622.50 0.4315
622.60 0.4313
622.70 0.431
622.80 0.4307
622.90 0.4305
623.00 0.4302
623.10 0.4299
623.20 0.4297
623.30 0.4294
623.40 0.4291
623.50 0.4289
623.60 0.4286
623.70 0.4284
623.80 0.4281
623.90 0.4278
624.00 0.4276
624.10 0.4273
624.20 0.427
624.30 0.4268
624.40 0.4265
624.50 0.4262
624.60 0.426
624.70 0.4257
624.80 0.4255
624.90 0.4252
625.00 0.4249
625.10 0.4247
625.20 0.4244
625.30 0.4241
625.40 0.4239
625.50 0.4236
625.60 0.4234
625.70 0.4231
625.80 0.4228
625.90 0.4226
626.00 0.4223
626.10 0.4221
626.20 0.4218
626.30 0.4215
626.40 0.4213
626.50 0.421
626.60 0.4208
626.70 0.4205
626.80 0.4203
626.90 0.42
627.00 0.4197
627.10 0.4195
627.20 0.4192
627.30 0.419
627.40 0.4187
627.50 0.4185
627.60 0.4182
627.70 0.4179
627.80 0.4177
627.90 0.4174
628.00 0.4172
628.10 0.4169
628.20 0.4167
628.30 0.4164
628.40 0.4161
628.50 0.4159
628.60 0.4156
628.70 0.4154
628.80 0.4151
628.90 0.4149
629.00 0.4146
629.10 0.4144
629.20 0.4141
629.30 0.4139
629.40 0.4136
629.50 0.4134
629.60 0.4131
629.70 0.4128
629.80 0.4126
629.90 0.4123
630.00 0.4121
630.10 0.4118
630.20 0.4116
630.30 0.4113
630.40 0.4111
630.50 0.4108
630.60 0.4106
630.70 0.4103
630.80 0.4101
630.90 0.4098
631.00 0.4096
631.10 0.4093
631.20 0.4091
631.30 0.4088
631.40 0.4086
631.50 0.4083
631.60 0.4081
631.70 0.4078
631.80 0.4076
631.90 0.4073
632.00 0.4071
632.10 0.4068
632.20 0.4066
632.30 0.4063
632.40 0.4061
632.50 0.4058
632.60 0.4056
632.70 0.4054
632.80 0.4051
632.90 0.4049
633.00 0.4046
633.10 0.4044
633.20 0.4041
633.30 0.4039
633.40 0.4036
633.50 0.4034
633.60 0.4031
633.70 0.4029
633.80 0.4026
633.90 0.4024
634.00 0.4022
634.10 0.4019
634.20 0.4017
634.30 0.4014
634.40 0.4012
634.50 0.4009
634.60 0.4007
634.70 0.4004
634.80 0.4002
634.90 0.4
635.00 0.3997
635.10 0.3995
635.20 0.3992
635.30 0.399
635.40 0.3987
635.50 0.3985
635.60 0.3983
635.70 0.398
635.80 0.3978
635.90 0.3975
636.00 0.3973
636.10 0.3971
636.20 0.3968
636.30 0.3966
636.40 0.3963
636.50 0.3961
636.60 0.3959
636.70 0.3956
636.80 0.3954
636.90 0.3951
637.00 0.3949
637.10 0.3947
637.20 0.3944
637.30 0.3942
637.40 0.3939
637.50 0.3937
637.60 0.3935
637.70 0.3932
637.80 0.393
637.90 0.3927
638.00 0.3925
638.10 0.3923
638.20 0.392
638.30 0.3918
638.40 0.3916
638.50 0.3913
638.60 0.3911
638.70 0.3908
638.80 0.3906
638.90 0.3904
639.00 0.3901
639.10 0.3899
639.20 0.3897
639.30 0.3894
639.40 0.3892
639.50 0.389
639.60 0.3887
639.70 0.3885
639.80 0.3883
639.90 0.388
640.00 0.3878
640.10 0.3875
640.20 0.3873
640.30 0.3871
640.40 0.3868
640.50 0.3866
640.60 0.3864
640.70 0.3861
640.80 0.3859
640.90 0.3857
641.00 0.3854
641.10 0.3852
641.20 0.385
641.30 0.3847
641.40 0.3845
641.50 0.3843
641.60 0.384
641.70 0.3838
641.80 0.3836
641.90 0.3833
642.00 0.3831
642.10 0.3829
642.20 0.3827
642.30 0.3824
642.40 0.3822
642.50 0.382
642.60 0.3817
642.70 0.3815
642.80 0.3813
642.90 0.381
643.00 0.3808
643.10 0.3806
643.20 0.3803
643.30 0.3801
643.40 0.3799
643.50 0.3796
643.60 0.3794
643.70 0.3792
643.80 0.379
643.90 0.3787
644.00 0.3785
644.10 0.3783
644.20 0.378
644.30 0.3778
644.40 0.3776
644.50 0.3774
644.60 0.3771
644.70 0.3769
644.80 0.3767
644.90 0.3764
645.00 0.3762
645.10 0.376
645.20 0.3757
645.30 0.3755
645.40 0.3753
645.50 0.3751
645.60 0.3748
645.70 0.3746
645.80 0.3744
645.90 0.3741
646.00 0.3739
646.10 0.3737
646.20 0.3735
646.30 0.3732
646.40 0.373
646.50 0.3728
646.60 0.3725
646.70 0.3723
646.80 0.3721
646.90 0.3719
647.00 0.3716
647.10 0.3714
647.20 0.3712
647.30 0.3709
647.40 0.3707
647.50 0.3705
647.60 0.3702
647.70 0.37
647.80 0.3698
647.90 0.3695
648.00 0.3693
648.10 0.3691
648.20 0.3689
648.30 0.3686
648.40 0.3684
648.50 0.3682
648.60 0.3679
648.70 0.3677
648.80 0.3674
648.90 0.3672
649.00 0.367
649.10 0.3667
649.20 0.3665
649.30 0.3663
649.40 0.366
649.50 0.3658
649.60 0.3655
649.70 0.3653
649.80 0.3651
649.90 0.3648
650.00 0.3646
650.10 0.3643
650.20 0.3641
650.30 0.3638
650.40 0.3636
650.50 0.3633
650.60 0.3631
650.70 0.3628
650.80 0.3626
650.90 0.3623
651.00 0.362
651.10 0.3618
651.20 0.3615
651.30 0.3613
651.40 0.361
651.50 0.3607
651.60 0.3604
651.70 0.3601
651.80 0.3598
651.90 0.3595
652.00 0.3592
652.10 0.3589
652.20 0.3586
652.30 0.3583
652.40 0.3579
652.50 0.3575
652.60 0.3572
652.70 0.3568
652.80 0.3564
652.90 0.356
653.00 0.3557
653.10 0.3553
653.20 0.3549
653.30 0.3545
653.40 0.3539
653.50 0.3532
653.60 0.3526
653.70 0.352
653.80 0.3514
653.90 0.3508
654.00 0.3502
654.10 0.3496
654.20 0.349
654.30 0.3483
654.40 0.3472
654.50 0.3462
654.60 0.3451
654.70 0.3441
654.80 0.3429
654.90 0.3413
655.00 0.3396
655.10 0.338
655.20 0.3363
655.30 0.3345
655.40 0.3321
655.50 0.3295
655.60 0.3264
655.70 0.3229
655.80 0.3183
655.90 0.3127
656.00 0.3031
656.10 0.292
656.20 0.2754
656.30 0.2884
656.40 0.2785
656.50 0.2961
656.60 0.3055
656.70 0.3139
656.80 0.3182
656.90 0.3221
657.00 0.3249
657.10 0.3275
657.20 0.3295
657.30 0.3313
657.40 0.3326
657.50 0.3339
657.60 0.3351
657.70 0.3364
657.80 0.3375
657.90 0.3381
658.00 0.3388
658.10 0.3394
658.20 0.34
658.30 0.3405
658.40 0.3407
658.50 0.3409
658.60 0.3411
658.70 0.3413
658.80 0.3415
658.90 0.3417
659.00 0.3419
659.10 0.3421
659.20 0.3423
659.30 0.3424
659.40 0.3424
659.50 0.3423
659.60 0.3423
659.70 0.3423
659.80 0.3422
659.90 0.3422
660.00 0.3421
660.10 0.3421
660.20 0.3421
660.30 0.342
660.40 0.3419
660.50 0.3417
660.60 0.3416
660.70 0.3415
660.80 0.3414
660.90 0.3413
661.00 0.3411
661.10 0.341
661.20 0.3409
661.30 0.3407
661.40 0.3406
661.50 0.3404
661.60 0.3403
661.70 0.3401
661.80 0.34
661.90 0.3398
662.00 0.3396
662.10 0.3395
662.20 0.3393
662.30 0.3392
662.40 0.339
662.50 0.3388
662.60 0.3386
662.70 0.3385
662.80 0.3383
662.90 0.3381
663.00 0.3379
663.10 0.3378
663.20 0.3376
663.30 0.3374
663.40 0.3372
663.50 0.3371
663.60 0.3369
663.70 0.3367
663.80 0.3365
663.90 0.3363
664.00 0.3362
664.10 0.336
664.20 0.3358
664.30 0.3356
664.40 0.3354
664.50 0.3352
664.60 0.3351
664.70 0.3349
664.80 0.3347
664.90 0.3345
665.00 0.3343
665.10 0.3341
665.20 0.334
665.30 0.3338
665.40 0.3336
665.50 0.3334
665.60 0.3332
665.70 0.333
665.80 0.3328
665.90 0.3327
666.00 0.3325
666.10 0.3323
666.20 0.3321
666.30 0.3319
666.40 0.3317
666.50 0.3315
666.60 0.3313
666.70 0.3312
666.80 0.331
666.90 0.3308
667.00 0.3306
667.10 0.3304
667.20 0.3302
667.30 0.33
667.40 0.3299
667.50 0.3297
667.60 0.3295
667.70 0.3293
667.80 0.3291
667.90 0.3289
668.00 0.3287
668.10 0.3285
668.20 0.3284
668.30 0.3282
668.40 0.328
668.50 0.3278
668.60 0.3276
668.70 0.3274
668.80 0.3272
668.90 0.3271
669.00 0.3269
669.10 0.3267
669.20 0.3265
669.30 0.3263
669.40 0.3261
669.50 0.3259
669.60 0.3258
669.70 0.3256
669.80 0.3254
669.90 0.3252
670.00 0.325
670.10 0.3248
670.20 0.3246
670.30 0.3245
670.40 0.3243
670.50 0.3241
670.60 0.3239
670.70 0.3237
670.80 0.3235
670.90 0.3234
671.00 0.3232
671.10 0.323
671.20 0.3228
671.30 0.3226
671.40 0.3224
671.50 0.3222
671.60 0.3221
671.70 0.3219
671.80 0.3217
671.90 0.3215
672.00 0.3213
672.10 0.3211
672.20 0.321
672.30 0.3208
672.40 0.3206
672.50 0.3204
672.60 0.3202
672.70 0.3201
672.80 0.3199
672.90 0.3197
673.00 0.3195
673.10 0.3193
673.20 0.3191
673.30 0.319
673.40 0.3188
673.50 0.3186
673.60 0.3184
673.70 0.3182
673.80 0.3181
673.90 0.3179
674.00 0.3177
674.10 0.3175
674.20 0.3173
674.30 0.3171
674.40 0.317
674.50 0.3168
674.60 0.3166
674.70 0.3164
674.80 0.3162
674.90 0.3161
675.00 0.3159
675.10 0.3157
675.20 0.3155
675.30 0.3153
675.40 0.3152
675.50 0.315
675.60 0.3148
675.70 0.3146
675.80 0.3144
675.90 0.3143
676.00 0.3141
676.10 0.3139
676.20 0.3137
676.30 0.3136
676.40 0.3134
676.50 0.3132
676.60 0.313
676.70 0.3128
676.80 0.3127
676.90 0.3125
677.00 0.3123
677.10 0.3121
677.20 0.312
677.30 0.3118
677.40 0.3116
677.50 0.3114
677.60 0.3112
677.70 0.3111
677.80 0.3109
677.90 0.3107
678.00 0.3105
678.10 0.3104
678.20 0.3102
678.30 0.31
678.40 0.3098
678.50 0.3097
678.60 0.3095
678.70 0.3093
678.80 0.3091
678.90 0.309
679.00 0.3088
679.10 0.3086
679.20 0.3084
679.30 0.3083
679.40 0.3081
679.50 0.3079
679.60 0.3077
679.70 0.3076
679.80 0.3074
679.90 0.3072
680.00 0.307
680.10 0.3069
680.20 0.3067
680.30 0.3065
680.40 0.3063
680.50 0.3062
680.60 0.306
680.70 0.3058
680.80 0.3057
680.90 0.3055
681.00 0.3053
681.10 0.3051
681.20 0.305
681.30 0.3048
681.40 0.3046
681.50 0.3044
681.60 0.3043
681.70 0.3041
681.80 0.3039
681.90 0.3038
682.00 0.3036
682.10 0.3034
682.20 0.3032
682.30 0.3031
682.40 0.3029
682.50 0.3027
682.60 0.3026
682.70 0.3024
682.80 0.3022
682.90 0.302
683.00 0.3019
683.10 0.3017
683.20 0.3015
683.30 0.3014
683.40 0.3012
683.50 0.301
683.60 0.3009
683.70 0.3007
683.80 0.3005
683.90 0.3004
684.00 0.3002
684.10 0.3
684.20 0.2998
684.30 0.2997
684.40 0.2995
684.50 0.2993
684.60 0.2992
684.70 0.299
684.80 0.2988
684.90 0.2987
685.00 0.2985
685.10 0.2983
685.20 0.2982
685.30 0.298
685.40 0.2978
685.50 0.2977
685.60 0.2975
685.70 0.2973
685.80 0.2972
685.90 0.297
686.00 0.2968
686.10 0.2967
686.20 0.2965
686.30 0.2963
686.40 0.2962
686.50 0.296
686.60 0.2958
686.70 0.2957
686.80 0.2955
686.90 0.2953
687.00 0.2952
687.10 0.295
687.20 0.2948
687.30 0.2947
687.40 0.2945
687.50 0.2943
687.60 0.2942
687.70 0.294
687.80 0.2938
687.90 0.2937
688.00 0.2935
688.10 0.2933
688.20 0.2932
688.30 0.293
688.40 0.2929
688.50 0.2927
688.60 0.2925
688.70 0.2924
688.80 0.2922
688.90 0.292
689.00 0.2919
689.10 0.2917
689.20 0.2915
689.30 0.2914
689.40 0.2912
689.50 0.2911
689.60 0.2909
689.70 0.2907
689.80 0.2906
689.90 0.2904
690.00 0.2902
690.10 0.2901
690.20 0.2899
690.30 0.2898
690.40 0.2896
690.50 0.2894
690.60 0.2893
690.70 0.2891
690.80 0.289
690.90 0.2888
691.00 0.2886
691.10 0.2885
691.20 0.2883
691.30 0.2882
691.40 0.288
691.50 0.2878
691.60 0.2877
691.70 0.2875
691.80 0.2874
691.90 0.2872
692.00 0.287
692.10 0.2869
692.20 0.2867
692.30 0.2866
692.40 0.2864
692.50 0.2862
692.60 0.2861
692.70 0.2859
692.80 0.2858
692.90 0.2856
693.00 0.2854
693.10 0.2853
693.20 0.2851
693.30 0.285
693.40 0.2848
693.50 0.2846
693.60 0.2845
693.70 0.2843
693.80 0.2842
693.90 0.284
694.00 0.2839
694.10 0.2837
694.20 0.2835
694.30 0.2834
694.40 0.2832
694.50 0.2831
694.60 0.2829
694.70 0.2827
694.80 0.2826
694.90 0.2824
695.00 0.2823
695.10 0.2821
695.20 0.282
695.30 0.2818
695.40 0.2816
695.50 0.2815
695.60 0.2813
695.70 0.2812
695.80 0.281
695.90 0.2809
696.00 0.2807
696.10 0.2806
696.20 0.2804
696.30 0.2803
696.40 0.2801
696.50 0.2799
696.60 0.2798
696.70 0.2796
696.80 0.2795
696.90 0.2793
697.00 0.2792
697.10 0.279
697.20 0.2789
697.30 0.2787
697.40 0.2786
697.50 0.2784
697.60 0.2782
697.70 0.2781
697.80 0.2779
697.90 0.2778
698.00 0.2776
698.10 0.2775
698.20 0.2773
698.30 0.2772
698.40 0.277
698.50 0.2769
698.60 0.2767
698.70 0.2766
698.80 0.2764
698.90 0.2762
699.00 0.2761
699.10 0.2759
699.20 0.2758
699.30 0.2756
699.40 0.2755
699.50 0.2753
699.60 0.2752
699.70 0.275
699.80 0.2749
699.90 0.2747
700.00 0.2746
700.10 0.2744
700.20 0.2743
700.30 0.2741
700.40 0.274
700.50 0.2738
700.60 0.2737
700.70 0.2735
700.80 0.2734
700.90 0.2732
701.00 0.2731
701.10 0.2729
701.20 0.2728
701.30 0.2726
701.40 0.2725
701.50 0.2723
701.60 0.2722
701.70 0.272
701.80 0.2719
701.90 0.2717
702.00 0.2716
702.10 0.2714
702.20 0.2713
702.30 0.2711
702.40 0.271
702.50 0.2708
702.60 0.2707
702.70 0.2705
702.80 0.2704
702.90 0.2702
703.00 0.2701
703.10 0.2699
703.20 0.2698
703.30 0.2696
703.40 0.2695
703.50 0.2693
703.60 0.2692
703.70 0.269
703.80 0.2689
703.90 0.2688
704.00 0.2686
704.10 0.2685
704.20 0.2683
704.30 0.2682
704.40 0.268
704.50 0.2679
704.60 0.2677
704.70 0.2676
704.80 0.2674
704.90 0.2673
705.00 0.2671
705.10 0.267
705.20 0.2668
705.30 0.2667
705.40 0.2666
705.50 0.2664
705.60 0.2663
705.70 0.2661
705.80 0.266
705.90 0.2658
706.00 0.2657
706.10 0.2655
706.20 0.2654
706.30 0.2652
706.40 0.2651
706.50 0.265
706.60 0.2648
706.70 0.2647
706.80 0.2645
706.90 0.2644
707.00 0.2642
707.10 0.2641
707.20 0.2639
707.30 0.2638
707.40 0.2637
707.50 0.2635
707.60 0.2634
707.70 0.2632
707.80 0.2631
707.90 0.2629
708.00 0.2628
708.10 0.2627
708.20 0.2625
708.30 0.2624
708.40 0.2622
708.50 0.2621
708.60 0.2619
708.70 0.2618
708.80 0.2617
708.90 0.2615
709.00 0.2614
709.10 0.2612
709.20 0.2611
709.30 0.2609
709.40 0.2608
709.50 0.2607
709.60 0.2605
709.70 0.2604
709.80 0.2602
709.90 0.2601
710.00 0.2599
710.10 0.2598
710.20 0.2597
710.30 0.2595
710.40 0.2594
710.50 0.2592
710.60 0.2591
710.70 0.259
710.80 0.2588
710.90 0.2587
711.00 0.2585
711.10 0.2584
711.20 0.2583
711.30 0.2581
711.40 0.258
711.50 0.2578
711.60 0.2577
711.70 0.2576
711.80 0.2574
711.90 0.2573
712.00 0.2571
712.10 0.257
712.20 0.2569
712.30 0.2567
712.40 0.2566
712.50 0.2564
712.60 0.2563
712.70 0.2562
712.80 0.256
712.90 0.2559
713.00 0.2558
713.10 0.2556
713.20 0.2555
713.30 0.2553
713.40 0.2552
713.50 0.2551
713.60 0.2549
713.70 0.2548
713.80 0.2546
713.90 0.2545
714.00 0.2544
714.10 0.2542
714.20 0.2541
714.30 0.254
714.40 0.2538
714.50 0.2537
714.60 0.2535
714.70 0.2534
714.80 0.2533
714.90 0.2531
715.00 0.253
715.10 0.2529
715.20 0.2527
715.30 0.2526
715.40 0.2525
715.50 0.2523
715.60 0.2522
715.70 0.252
715.80 0.2519
715.90 0.2518
716.00 0.2516
716.10 0.2515
716.20 0.2514
716.30 0.2512
716.40 0.2511
716.50 0.251
716.60 0.2508
716.70 0.2507
716.80 0.2506
716.90 0.2504
717.00 0.2503
717.10 0.2502
717.20 0.25
717.30 0.2499
717.40 0.2498
717.50 0.2496
717.60 0.2495
717.70 0.2493
717.80 0.2492
717.90 0.2491
718.00 0.2489
718.10 0.2488
718.20 0.2487
718.30 0.2485
718.40 0.2484
718.50 0.2483
718.60 0.2481
718.70 0.248
718.80 0.2479
718.90 0.2477
719.00 0.2476
719.10 0.2475
719.20 0.2473
719.30 0.2472
719.40 0.2471
719.50 0.2469
719.60 0.2468
719.70 0.2467
719.80 0.2465
719.90 0.2464
720.00 0.2463
720.10 0.2461
720.20 0.246
720.30 0.2459
720.40 0.2458
720.50 0.2456
720.60 0.2455
720.70 0.2454
720.80 0.2452
720.90 0.2451
721.00 0.245
721.10 0.2448
721.20 0.2447
721.30 0.2446
721.40 0.2444
721.50 0.2443
721.60 0.2442
721.70 0.2441
721.80 0.2439
721.90 0.2438
722.00 0.2437
722.10 0.2435
722.20 0.2434
722.30 0.2433
722.40 0.2431
722.50 0.243
722.60 0.2429
722.70 0.2428
722.80 0.2426
722.90 0.2425
723.00 0.2424
723.10 0.2422
723.20 0.2421
723.30 0.242
723.40 0.2418
723.50 0.2417
723.60 0.2416
723.70 0.2415
723.80 0.2413
723.90 0.2412
724.00 0.2411
724.10 0.2409
724.20 0.2408
724.30 0.2407
724.40 0.2406
724.50 0.2404
724.60 0.2403
724.70 0.2402
724.80 0.24
724.90 0.2399
725.00 0.2398
725.10 0.2397
725.20 0.2395
725.30 0.2394
725.40 0.2393
725.50 0.2391
725.60 0.239
725.70 0.2389
725.80 0.2388
725.90 0.2386
726.00 0.2385
726.10 0.2384
726.20 0.2383
726.30 0.2381
726.40 0.238
726.50 0.2379
726.60 0.2378
726.70 0.2376
726.80 0.2375
726.90 0.2374
727.00 0.2373
727.10 0.2371
727.20 0.237
727.30 0.2369
727.40 0.2367
727.50 0.2366
727.60 0.2365
727.70 0.2364
727.80 0.2362
727.90 0.2361
728.00 0.236
728.10 0.2359
728.20 0.2357
728.30 0.2356
728.40 0.2355
728.50 0.2354
728.60 0.2352
728.70 0.2351
728.80 0.235
728.90 0.2349
729.00 0.2347
729.10 0.2346
729.20 0.2345
729.30 0.2344
729.40 0.2342
729.50 0.2341
729.60 0.234
729.70 0.2339
729.80 0.2337
729.90 0.2336
730.00 0.2335
730.10 0.2334
730.20 0.2333
730.30 0.2331
730.40 0.233
730.50 0.2329
730.60 0.2328
730.70 0.2326
730.80 0.2325
730.90 0.2324
731.00 0.2323
731.10 0.2322
731.20 0.232
731.30 0.2319
731.40 0.2318
731.50 0.2317
731.60 0.2315
731.70 0.2314
731.80 0.2313
731.90 0.2312
732.00 0.2311
732.10 0.2309
732.20 0.2308
732.30 0.2307
732.40 0.2306
732.50 0.2305
732.60 0.2303
732.70 0.2302
732.80 0.2301
732.90 0.23
733.00 0.2299
733.10 0.2297
733.20 0.2296
733.30 0.2295
733.40 0.2294
733.50 0.2293
733.60 0.2291
733.70 0.229
733.80 0.2289
733.90 0.2288
734.00 0.2286
734.10 0.2285
734.20 0.2284
734.30 0.2283
734.40 0.2282
734.50 0.228
734.60 0.2279
734.70 0.2278
734.80 0.2277
734.90 0.2276
735.00 0.2275
735.10 0.2273
735.20 0.2272
735.30 0.2271
735.40 0.227
735.50 0.2269
735.60 0.2267
735.70 0.2266
735.80 0.2265
735.90 0.2264
736.00 0.2263
736.10 0.2261
736.20 0.226
736.30 0.2259
736.40 0.2258
736.50 0.2257
736.60 0.2255
736.70 0.2254
736.80 0.2253
736.90 0.2252
737.00 0.2251
737.10 0.225
737.20 0.2248
737.30 0.2247
737.40 0.2246
737.50 0.2245
737.60 0.2244
737.70 0.2242
737.80 0.2241
737.90 0.224
738.00 0.2239
738.10 0.2238
738.20 0.2237
738.30 0.2235
738.40 0.2234
738.50 0.2233
738.60 0.2232
738.70 0.2231
738.80 0.2229
738.90 0.2228
739.00 0.2227
739.10 0.2226
739.20 0.2225
739.30 0.2224
739.40 0.2222
739.50 0.2221
739.60 0.222
739.70 0.2219
739.80 0.2218
739.90 0.2217
740.00 0.2215
740.10 0.2214
740.20 0.2213
740.30 0.2212
740.40 0.2211
740.50 0.221
740.60 0.2209
740.70 0.2207
740.80 0.2206
740.90 0.2205
741.00 0.2204
741.10 0.2203
741.20 0.2202
741.30 0.2201
741.40 0.2199
741.50 0.2198
741.60 0.2197
741.70 0.2196
741.80 0.2195
741.90 0.2194
742.00 0.2193
742.10 0.2191
742.20 0.219
742.30 0.2189
742.40 0.2188
742.50 0.2187
742.60 0.2186
742.70 0.2185
742.80 0.2184
742.90 0.2182
743.00 0.2181
743.10 0.218
743.20 0.2179
743.30 0.2178
743.40 0.2177
743.50 0.2176
743.60 0.2175
743.70 0.2173
743.80 0.2172
743.90 0.2171
744.00 0.217
744.10 0.2169
744.20 0.2168
744.30 0.2167
744.40 0.2166
744.50 0.2164
744.60 0.2163
744.70 0.2162
744.80 0.2161
744.90 0.216
745.00 0.2159
745.10 0.2158
745.20 0.2157
745.30 0.2155
745.40 0.2154
745.50 0.2153
745.60 0.2152
745.70 0.2151
745.80 0.215
745.90 0.2149
746.00 0.2148
746.10 0.2146
746.20 0.2145
746.30 0.2144
746.40 0.2143
746.50 0.2142
746.60 0.2141
746.70 0.214
746.80 0.2139
746.90 0.2138
747.00 0.2136
747.10 0.2135
747.20 0.2134
747.30 0.2133
747.40 0.2132
747.50 0.2131
747.60 0.213
747.70 0.2129
747.80 0.2128
747.90 0.2127
748.00 0.2125
748.10 0.2124
748.20 0.2123
748.30 0.2122
748.40 0.2121
748.50 0.212
748.60 0.2119
748.70 0.2118
748.80 0.2117
748.90 0.2115
749.00 0.2114
749.10 0.2113
749.20 0.2112
749.30 0.2111
749.40 0.211
749.50 0.2109
749.60 0.2108
749.70 0.2107
749.80 0.2106
749.90 0.2105
750.00 0.2103
750.10 0.2102
750.20 0.2101
750.30 0.21
750.40 0.2099
750.50 0.2098
750.60 0.2097
750.70 0.2096
750.80 0.2095
750.90 0.2094
751.00 0.2093
751.10 0.2092
751.20 0.2091
751.30 0.209
751.40 0.2088
751.50 0.2087
751.60 0.2086
751.70 0.2085
751.80 0.2084
751.90 0.2083
752.00 0.2082
752.10 0.2081
752.20 0.208
752.30 0.2079
752.40 0.2078
752.50 0.2077
752.60 0.2076
752.70 0.2075
752.80 0.2074
752.90 0.2072
753.00 0.2071
753.10 0.207
753.20 0.2069
753.30 0.2068
753.40 0.2067
753.50 0.2066
753.60 0.2065
753.70 0.2064
753.80 0.2063
753.90 0.2062
754.00 0.2061
754.10 0.206
754.20 0.2059
754.30 0.2058
754.40 0.2057
754.50 0.2056
754.60 0.2055
754.70 0.2053
754.80 0.2052
754.90 0.2051
755.00 0.205
755.10 0.2049
755.20 0.2048
755.30 0.2047
755.40 0.2046
755.50 0.2045
755.60 0.2044
755.70 0.2043
755.80 0.2042
755.90 0.2041
756.00 0.204
756.10 0.2039
756.20 0.2038
756.30 0.2037
756.40 0.2036
756.50 0.2035
756.60 0.2034
756.70 0.2033
756.80 0.2032
756.90 0.203
757.00 0.2029
757.10 0.2028
757.20 0.2027
757.30 0.2026
757.40 0.2025
757.50 0.2024
757.60 0.2023
757.70 0.2022
757.80 0.2021
757.90 0.202
758.00 0.2019
758.10 0.2018
758.20 0.2017
758.30 0.2016
758.40 0.2015
758.50 0.2014
758.60 0.2013
758.70 0.2012
758.80 0.2011
758.90 0.201
759.00 0.2009
759.10 0.2008
759.20 0.2007
759.30 0.2006
759.40 0.2005
759.50 0.2004
759.60 0.2003
759.70 0.2002
759.80 0.2
759.90 0.1999
760.00 0.1998
760.10 0.1997
760.20 0.1996
760.30 0.1995
760.40 0.1994
760.50 0.1993
760.60 0.1992
760.70 0.1991
760.80 0.199
760.90 0.1989
761.00 0.1988
761.10 0.1987
761.20 0.1986
761.30 0.1985
761.40 0.1984
761.50 0.1983
761.60 0.1982
761.70 0.1981
761.80 0.198
761.90 0.1979
762.00 0.1978
762.10 0.1977
762.20 0.1976
762.30 0.1975
762.40 0.1974
762.50 0.1973
762.60 0.1972
762.70 0.1971
762.80 0.197
762.90 0.1969
763.00 0.1968
763.10 0.1967
763.20 0.1966
763.30 0.1965
763.40 0.1964
763.50 0.1963
763.60 0.1962
763.70 0.1961
763.80 0.196
763.90 0.1959
764.00 0.1958
764.10 0.1957
764.20 0.1957
764.30 0.1956
764.40 0.1955
764.50 0.1954
764.60 0.1953
764.70 0.1952
764.80 0.1951
764.90 0.195
765.00 0.1949
765.10 0.1948
765.20 0.1947
765.30 0.1946
765.40 0.1945
765.50 0.1944
765.60 0.1943
765.70 0.1942
765.80 0.1941
765.90 0.194
766.00 0.1939
766.10 0.1938
766.20 0.1937
766.30 0.1936
766.40 0.1935
766.50 0.1934
766.60 0.1933
766.70 0.1932
766.80 0.1931
766.90 0.193
767.00 0.1929
767.10 0.1928
767.20 0.1927
767.30 0.1926
767.40 0.1925
767.50 0.1924
767.60 0.1923
767.70 0.1922
767.80 0.1921
767.90 0.192
768.00 0.1919
768.10 0.1918
768.20 0.1917
768.30 0.1916
768.40 0.1915
768.50 0.1914
768.60 0.1913
768.70 0.1912
768.80 0.1912
768.90 0.1911
769.00 0.191
769.10 0.1909
769.20 0.1908
769.30 0.1907
769.40 0.1906
769.50 0.1905
769.60 0.1904
769.70 0.1903
769.80 0.1902
769.90 0.1901
770.00 0.19
770.10 0.1899
770.20 0.1898
770.30 0.1897
770.40 0.1896
770.50 0.1895
770.60 0.1894
770.70 0.1893
770.80 0.1892
770.90 0.1891
771.00 0.189
771.10 0.189
771.20 0.1889
771.30 0.1888
771.40 0.1887
771.50 0.1886
771.60 0.1885
771.70 0.1884
771.80 0.1883
771.90 0.1882
772.00 0.1881
772.10 0.188
772.20 0.1879
772.30 0.1878
772.40 0.1877
772.50 0.1876
772.60 0.1875
772.70 0.1875
772.80 0.1874
772.90 0.1873
773.00 0.1872
773.10 0.1871
773.20 0.187
773.30 0.1869
773.40 0.1868
773.50 0.1867
773.60 0.1866
773.70 0.1865
773.80 0.1864
773.90 0.1863
774.00 0.1862
774.10 0.1861
774.20 0.1861
774.30 0.186
774.40 0.1859
774.50 0.1858
774.60 0.1857
774.70 0.1856
774.80 0.1855
774.90 0.1854
775.00 0.1853
775.10 0.1852
775.20 0.1851
775.30 0.185
775.40 0.1849
775.50 0.1849
775.60 0.1848
775.70 0.1847
775.80 0.1846
775.90 0.1845
776.00 0.1844
776.10 0.1843
776.20 0.1842
776.30 0.1841
776.40 0.184
776.50 0.1839
776.60 0.1838
776.70 0.1837
776.80 0.1837
776.90 0.1836
777.00 0.1835
777.10 0.1834
777.20 0.1833
777.30 0.1832
777.40 0.1831
777.50 0.183
777.60 0.1829
777.70 0.1828
777.80 0.1827
777.90 0.1826
778.00 0.1826
778.10 0.1825
778.20 0.1824
778.30 0.1823
778.40 0.1822
778.50 0.1821
778.60 0.182
778.70 0.1819
778.80 0.1818
778.90 0.1817
779.00 0.1816
779.10 0.1816
779.20 0.1815
779.30 0.1814
779.40 0.1813
779.50 0.1812
779.60 0.1811
779.70 0.181
779.80 0.1809
779.90 0.1808
780.00 0.1807
780.10 0.1807
780.20 0.1806
780.30 0.1805
780.40 0.1804
780.50 0.1803
780.60 0.1802
780.70 0.1801
780.80 0.18
780.90 0.1799
781.00 0.1799
781.10 0.1798
781.20 0.1797
781.30 0.1796
781.40 0.1795
781.50 0.1794
781.60 0.1793
781.70 0.1792
781.80 0.1791
781.90 0.1791
782.00 0.179
782.10 0.1789
782.20 0.1788
782.30 0.1787
782.40 0.1786
782.50 0.1785
782.60 0.1784
782.70 0.1784
782.80 0.1783
782.90 0.1782
783.00 0.1781
783.10 0.178
783.20 0.1779
783.30 0.1778
783.40 0.1777
783.50 0.1777
783.60 0.1776
783.70 0.1775
783.80 0.1774
783.90 0.1773
784.00 0.1772
784.10 0.1771
784.20 0.177
784.30 0.177
784.40 0.1769
784.50 0.1768
784.60 0.1767
784.70 0.1766
784.80 0.1765
784.90 0.1764
785.00 0.1763
785.10 0.1763
785.20 0.1762
785.30 0.1761
785.40 0.176
785.50 0.1759
785.60 0.1758
785.70 0.1757
785.80 0.1757
785.90 0.1756
786.00 0.1755
786.10 0.1754
786.20 0.1753
786.30 0.1752
786.40 0.1751
786.50 0.175
786.60 0.175
786.70 0.1749
786.80 0.1748
786.90 0.1747
787.00 0.1746
787.10 0.1745
787.20 0.1744
787.30 0.1744
787.40 0.1743
787.50 0.1742
787.60 0.1741
787.70 0.174
787.80 0.1739
787.90 0.1738
788.00 0.1738
788.10 0.1737
788.20 0.1736
788.30 0.1735
788.40 0.1734
788.50 0.1733
788.60 0.1732
788.70 0.1732
788.80 0.1731
788.90 0.173
789.00 0.1729
789.10 0.1728
789.20 0.1727
789.30 0.1726
789.40 0.1726
789.50 0.1725
789.60 0.1724
789.70 0.1723
789.80 0.1722
789.90 0.1721
790.00 0.172
790.10 0.172
790.20 0.1719
790.30 0.1718
790.40 0.1717
790.50 0.1716
790.60 0.1715
790.70 0.1715
790.80 0.1714
790.90 0.1713
791.00 0.1712
791.10 0.1711
791.20 0.171
791.30 0.171
791.40 0.1709
791.50 0.1708
791.60 0.1707
791.70 0.1706
791.80 0.1705
791.90 0.1705
792.00 0.1704
792.10 0.1703
792.20 0.1702
792.30 0.1701
792.40 0.1701
792.50 0.17
792.60 0.1699
792.70 0.1698
792.80 0.1697
792.90 0.1696
793.00 0.1696
793.10 0.1695
793.20 0.1694
793.30 0.1693
793.40 0.1692
793.50 0.1691
793.60 0.1691
793.70 0.169
793.80 0.1689
793.90 0.1688
794.00 0.1687
794.10 0.1687
794.20 0.1686
794.30 0.1685
794.40 0.1684
794.50 0.1683
794.60 0.1682
794.70 0.1682
794.80 0.1681
794.90 0.168
795.00 0.1679
795.10 0.1678
795.20 0.1678
795.30 0.1677
795.40 0.1676
795.50 0.1675
795.60 0.1674
795.70 0.1673
795.80 0.1673
795.90 0.1672
796.00 0.1671
796.10 0.167
796.20 0.1669
796.30 0.1669
796.40 0.1668
796.50 0.1667
796.60 0.1666
796.70 0.1665
796.80 0.1664
796.90 0.1664
797.00 0.1663
797.10 0.1662
797.20 0.1661
797.30 0.166
797.40 0.166
797.50 0.1659
797.60 0.1658
797.70 0.1657
797.80 0.1656
797.90 0.1656
798.00 0.1655
798.10 0.1654
798.20 0.1653
798.30 0.1652
798.40 0.1652
798.50 0.1651
798.60 0.165
798.70 0.1649
798.80 0.1648
798.90 0.1648
799.00 0.1647
799.10 0.1646
799.20 0.1645
799.30 0.1644
799.40 0.1644
799.50 0.1643
799.60 0.1642
799.70 0.1641
799.80 0.164
799.90 0.164
800.00 0.1639
800.10 0.1638
800.20 0.1637
800.30 0.1636
800.40 0.1636
800.50 0.1635
800.60 0.1634
800.70 0.1633
800.80 0.1632
800.90 0.1632
801.00 0.1631
801.10 0.163
801.20 0.1629
801.30 0.1629
801.40 0.1628
801.50 0.1627
801.60 0.1626
801.70 0.1625
801.80 0.1625
801.90 0.1624
802.00 0.1623
802.10 0.1622
802.20 0.1621
802.30 0.1621
802.40 0.162
802.50 0.1619
802.60 0.1618
802.70 0.1618
802.80 0.1617
802.90 0.1616
803.00 0.1615
803.10 0.1614
803.20 0.1614
803.30 0.1613
803.40 0.1612
803.50 0.1611
803.60 0.1611
803.70 0.161
803.80 0.1609
803.90 0.1608
804.00 0.1608
804.10 0.1607
804.20 0.1606
804.30 0.1605
804.40 0.1604
804.50 0.1604
804.60 0.1603
804.70 0.1602
804.80 0.1601
804.90 0.1601
805.00 0.16
805.10 0.1599
805.20 0.1598
805.30 0.1598
805.40 0.1597
805.50 0.1596
805.60 0.1595
805.70 0.1594
805.80 0.1594
805.90 0.1593
806.00 0.1592
806.10 0.1591
806.20 0.1591
806.30 0.159
806.40 0.1589
806.50 0.1588
806.60 0.1588
806.70 0.1587
806.80 0.1586
806.90 0.1585
807.00 0.1584
807.10 0.1584
807.20 0.1583
807.30 0.1582
807.40 0.1581
807.50 0.1581
807.60 0.158
807.70 0.1579
807.80 0.1578
807.90 0.1578
808.00 0.1577
808.10 0.1576
808.20 0.1575
808.30 0.1575
808.40 0.1574
808.50 0.1573
808.60 0.1572
808.70 0.1572
808.80 0.1571
808.90 0.157
809.00 0.1569
809.10 0.1569
809.20 0.1568
809.30 0.1567
809.40 0.1566
809.50 0.1566
809.60 0.1565
809.70 0.1564
809.80 0.1563
809.90 0.1563
810.00 0.1562
810.10 0.1561
810.20 0.156
810.30 0.156
810.40 0.1559
810.50 0.1558
810.60 0.1557
810.70 0.1557
810.80 0.1556
810.90 0.1555
811.00 0.1554
811.10 0.1554
811.20 0.1553
811.30 0.1552
811.40 0.1551
811.50 0.1551
811.60 0.155
811.70 0.1549
811.80 0.1548
811.90 0.1548
812.00 0.1547
812.10 0.1546
812.20 0.1546
812.30 0.1545
812.40 0.1544
812.50 0.1543
812.60 0.1543
812.70 0.1542
812.80 0.1541
812.90 0.154
813.00 0.154
813.10 0.1539
813.20 0.1538
813.30 0.1538
813.40 0.1537
813.50 0.1536
813.60 0.1535
813.70 0.1535
813.80 0.1534
813.90 0.1533
814.00 0.1532
814.10 0.1532
814.20 0.1531
814.30 0.153
814.40 0.1529
814.50 0.1529
814.60 0.1528
814.70 0.1527
814.80 0.1527
814.90 0.1526
815.00 0.1525
815.10 0.1524
815.20 0.1524
815.30 0.1523
815.40 0.1522
815.50 0.1522
815.60 0.1521
815.70 0.152
815.80 0.1519
815.90 0.1519
816.00 0.1518
816.10 0.1517
816.20 0.1516
816.30 0.1516
816.40 0.1515
816.50 0.1514
816.60 0.1514
816.70 0.1513
816.80 0.1512
816.90 0.1511
817.00 0.1511
817.10 0.151
817.20 0.1509
817.30 0.1509
817.40 0.1508
817.50 0.1507
817.60 0.1506
817.70 0.1506
817.80 0.1505
817.90 0.1504
818.00 0.1504
818.10 0.1503
818.20 0.1502
818.30 0.1501
818.40 0.1501
818.50 0.15
818.60 0.1499
818.70 0.1499
818.80 0.1498
818.90 0.1497
819.00 0.1496
819.10 0.1496
819.20 0.1495
819.30 0.1494
819.40 0.1494
819.50 0.1493
819.60 0.1492
819.70 0.1491
819.80 0.1491
819.90 0.149
820.00 0.1489
820.10 0.1489
820.20 0.1488
820.30 0.1487
820.40 0.1486
820.50 0.1486
820.60 0.1485
820.70 0.1484
820.80 0.1484
820.90 0.1483
821.00 0.1482
821.10 0.1482
821.20 0.1481
821.30 0.148
821.40 0.1479
821.50 0.1479
821.60 0.1478
821.70 0.1477
821.80 0.1477
821.90 0.1476
822.00 0.1475
822.10 0.1475
822.20 0.1474
822.30 0.1473
822.40 0.1473
822.50 0.1472
822.60 0.1471
822.70 0.147
822.80 0.147
822.90 0.1469
823.00 0.1468
823.10 0.1468
823.20 0.1467
823.30 0.1466
823.40 0.1466
823.50 0.1465
823.60 0.1464
823.70 0.1464
823.80 0.1463
823.90 0.1462
824.00 0.1462
824.10 0.1461
824.20 0.146
824.30 0.1459
824.40 0.1459
824.50 0.1458
824.60 0.1457
824.70 0.1457
824.80 0.1456
824.90 0.1455
825.00 0.1455
825.10 0.1454
825.20 0.1453
825.30 0.1453
825.40 0.1452
825.50 0.1451
825.60 0.1451
825.70 0.145
825.80 0.1449
825.90 0.1449
826.00 0.1448
826.10 0.1447
826.20 0.1446
826.30 0.1446
826.40 0.1445
826.50 0.1444
826.60 0.1444
826.70 0.1443
826.80 0.1442
826.90 0.1442
827.00 0.1441
827.10 0.144
827.20 0.144
827.30 0.1439
827.40 0.1438
827.50 0.1438
827.60 0.1437
827.70 0.1436
827.80 0.1436
827.90 0.1435
828.00 0.1434
828.10 0.1434
828.20 0.1433
828.30 0.1432
828.40 0.1432
828.50 0.1431
828.60 0.143
828.70 0.143
828.80 0.1429
828.90 0.1428
829.00 0.1428
829.10 0.1427
829.20 0.1426
829.30 0.1426
829.40 0.1425
829.50 0.1424
829.60 0.1424
829.70 0.1423
829.80 0.1422
829.90 0.1422
830.00 0.1421
830.10 0.142
830.20 0.142
830.30 0.1419
830.40 0.1418
830.50 0.1418
830.60 0.1417
830.70 0.1416
830.80 0.1416
830.90 0.1415
831.00 0.1414
831.10 0.1414
831.20 0.1413
831.30 0.1412
831.40 0.1412
831.50 0.1411
831.60 0.141
831.70 0.141
831.80 0.1409
831.90 0.1408
832.00 0.1408
832.10 0.1407
832.20 0.1406
832.30 0.1406
832.40 0.1405
832.50 0.1404
832.60 0.1404
832.70 0.1403
832.80 0.1403
832.90 0.1402
833.00 0.1401
833.10 0.1401
833.20 0.14
833.30 0.1399
833.40 0.1399
833.50 0.1398
833.60 0.1397
833.70 0.1397
833.80 0.1396
833.90 0.1395
834.00 0.1395
834.10 0.1394
834.20 0.1393
834.30 0.1393
834.40 0.1392
834.50 0.1391
834.60 0.1391
834.70 0.139
834.80 0.139
834.90 0.1389
835.00 0.1388
835.10 0.1388
835.20 0.1387
835.30 0.1386
835.40 0.1386
835.50 0.1385
835.60 0.1384
835.70 0.1384
835.80 0.1383
835.90 0.1382
836.00 0.1382
836.10 0.1381
836.20 0.138
836.30 0.138
836.40 0.1379
836.50 0.1379
836.60 0.1378
836.70 0.1377
836.80 0.1377
836.90 0.1376
837.00 0.1375
837.10 0.1375
837.20 0.1374
837.30 0.1373
837.40 0.1373
837.50 0.1372
837.60 0.1372
837.70 0.1371
837.80 0.137
837.90 0.137
838.00 0.1369
838.10 0.1368
838.20 0.1368
838.30 0.1367
838.40 0.1366
838.50 0.1366
838.60 0.1365
838.70 0.1365
838.80 0.1364
838.90 0.1363
839.00 0.1363
839.10 0.1362
839.20 0.1361
839.30 0.1361
839.40 0.136
839.50 0.136
839.60 0.1359
839.70 0.1358
839.80 0.1358
839.90 0.1357
840.00 0.1356
840.10 0.1356
840.20 0.1355
840.30 0.1355
840.40 0.1354
840.50 0.1353
840.60 0.1353
840.70 0.1352
840.80 0.1351
840.90 0.1351
841.00 0.135
841.10 0.1349
841.20 0.1349
841.30 0.1348
841.40 0.1348
841.50 0.1347
841.60 0.1346
841.70 0.1346
841.80 0.1345
841.90 0.1345
842.00 0.1344
842.10 0.1343
842.20 0.1343
842.30 0.1342
842.40 0.1341
842.50 0.1341
842.60 0.134
842.70 0.134
842.80 0.1339
842.90 0.1338
843.00 0.1338
843.10 0.1337
843.20 0.1336
843.30 0.1336
843.40 0.1335
843.50 0.1335
843.60 0.1334
843.70 0.1333
843.80 0.1333
843.90 0.1332
844.00 0.1332
844.10 0.1331
844.20 0.133
844.30 0.133
844.40 0.1329
844.50 0.1329
844.60 0.1328
844.70 0.1327
844.80 0.1327
844.90 0.1326
845.00 0.1325
845.10 0.1325
845.20 0.1324
845.30 0.1324
845.40 0.1323
845.50 0.1322
845.60 0.1322
845.70 0.1321
845.80 0.1321
845.90 0.132
846.00 0.1319
846.10 0.1319
846.20 0.1318
846.30 0.1318
846.40 0.1317
846.50 0.1316
846.60 0.1316
846.70 0.1315
846.80 0.1315
846.90 0.1314
847.00 0.1313
847.10 0.1313
847.20 0.1312
847.30 0.1312
847.40 0.1311
847.50 0.131
847.60 0.131
847.70 0.1309
847.80 0.1309
847.90 0.1308
848.00 0.1307
848.10 0.1307
848.20 0.1306
848.30 0.1306
848.40 0.1305
848.50 0.1304
848.60 0.1304
848.70 0.1303
848.80 0.1303
848.90 0.1302
849.00 0.1301
849.10 0.1301
849.20 0.13
849.30 0.13
849.40 0.1299
849.50 0.1298
849.60 0.1298
849.70 0.1297
849.80 0.1297
849.90 0.1296
850.00 0.1295
850.10 0.1295
850.20 0.1294
850.30 0.1294
850.40 0.1293
850.50 0.1292
850.60 0.1292
850.70 0.1291
850.80 0.1291
850.90 0.129
851.00 0.129
851.10 0.1289
851.20 0.1288
851.30 0.1288
851.40 0.1287
851.50 0.1287
851.60 0.1286
851.70 0.1285
851.80 0.1285
851.90 0.1284
852.00 0.1284
852.10 0.1283
852.20 0.1282
852.30 0.1282
852.40 0.1281
852.50 0.1281
852.60 0.128
852.70 0.128
852.80 0.1279
852.90 0.1278
853.00 0.1278
853.10 0.1277
853.20 0.1277
853.30 0.1276
853.40 0.1276
853.50 0.1275
853.60 0.1274
853.70 0.1274
853.80 0.1273
853.90 0.1273
854.00 0.1272
854.10 0.1271
854.20 0.1271
854.30 0.127
854.40 0.127
854.50 0.1269
854.60 0.1269
854.70 0.1268
854.80 0.1267
854.90 0.1267
855.00 0.1266
855.10 0.1266
855.20 0.1265
855.30 0.1265
855.40 0.1264
855.50 0.1263
855.60 0.1263
855.70 0.1262
855.80 0.1262
855.90 0.1261
856.00 0.1261
856.10 0.126
856.20 0.1259
856.30 0.1259
856.40 0.1258
856.50 0.1258
856.60 0.1257
856.70 0.1257
856.80 0.1256
856.90 0.1255
857.00 0.1255
857.10 0.1254
857.20 0.1254
857.30 0.1253
857.40 0.1253
857.50 0.1252
857.60 0.1251
857.70 0.1251
857.80 0.125
857.90 0.125
858.00 0.1249
858.10 0.1249
858.20 0.1248
858.30 0.1247
858.40 0.1247
858.50 0.1246
858.60 0.1246
858.70 0.1245
858.80 0.1245
858.90 0.1244
859.00 0.1244
859.10 0.1243
859.20 0.1242
859.30 0.1242
859.40 0.1241
859.50 0.1241
859.60 0.124
859.70 0.124
859.80 0.1239
859.90 0.1239
860.00 0.1238
860.10 0.1237
860.20 0.1237
860.30 0.1236
860.40 0.1236
860.50 0.1235
860.60 0.1235
860.70 0.1234
860.80 0.1234
860.90 0.1233
861.00 0.1232
861.10 0.1232
861.20 0.1231
861.30 0.1231
861.40 0.123
861.50 0.123
861.60 0.1229
861.70 0.1229
861.80 0.1228
861.90 0.1227
862.00 0.1227
862.10 0.1226
862.20 0.1226
862.30 0.1225
862.40 0.1225
862.50 0.1224
862.60 0.1224
862.70 0.1223
862.80 0.1223
862.90 0.1222
863.00 0.1221
863.10 0.1221
863.20 0.122
863.30 0.122
863.40 0.1219
863.50 0.1219
863.60 0.1218
863.70 0.1218
863.80 0.1217
863.90 0.1217
864.00 0.1216
864.10 0.1215
864.20 0.1215
864.30 0.1214
864.40 0.1214
864.50 0.1213
864.60 0.1213
864.70 0.1212
864.80 0.1212
864.90 0.1211
865.00 0.1211
865.10 0.121
865.20 0.121
865.30 0.1209
865.40 0.1208
865.50 0.1208
865.60 0.1207
865.70 0.1207
865.80 0.1206
865.90 0.1206
866.00 0.1205
866.10 0.1205
866.20 0.1204
866.30 0.1204
866.40 0.1203
866.50 0.1203
866.60 0.1202
866.70 0.1201
866.80 0.1201
866.90 0.12
867.00 0.12
867.10 0.1199
867.20 0.1199
867.30 0.1198
867.40 0.1198
867.50 0.1197
867.60 0.1197
867.70 0.1196
867.80 0.1196
867.90 0.1195
868.00 0.1194
868.10 0.1194
868.20 0.1193
868.30 0.1193
868.40 0.1192
868.50 0.1192
868.60 0.1191
868.70 0.1191
868.80 0.119
868.90 0.119
869.00 0.1189
869.10 0.1189
869.20 0.1188
869.30 0.1188
869.40 0.1187
869.50 0.1187
869.60 0.1186
869.70 0.1185
869.80 0.1185
869.90 0.1184
870.00 0.1184
870.10 0.1183
870.20 0.1183
870.30 0.1182
870.40 0.1182
870.50 0.1181
870.60 0.1181
870.70 0.118
870.80 0.118
870.90 0.1179
871.00 0.1179
871.10 0.1178
871.20 0.1178
871.30 0.1177
871.40 0.1177
871.50 0.1176
871.60 0.1175
871.70 0.1175
871.80 0.1174
871.90 0.1174
872.00 0.1173
872.10 0.1173
872.20 0.1172
872.30 0.1172
872.40 0.1171
872.50 0.1171
872.60 0.117
872.70 0.117
872.80 0.1169
872.90 0.1169
873.00 0.1168
873.10 0.1168
873.20 0.1167
873.30 0.1167
873.40 0.1166
873.50 0.1166
873.60 0.1165
873.70 0.1165
873.80 0.1164
873.90 0.1164
874.00 0.1163
874.10 0.1163
874.20 0.1162
874.30 0.1162
874.40 0.1161
874.50 0.1161
874.60 0.116
874.70 0.116
874.80 0.1159
874.90 0.1158
875.00 0.1158
875.10 0.1157
875.20 0.1157
875.30 0.1156
875.40 0.1156
875.50 0.1155
875.60 0.1155
875.70 0.1154
875.80 0.1154
875.90 0.1153
876.00 0.1153
876.10 0.1152
876.20 0.1152
876.30 0.1151
876.40 0.1151
876.50 0.115
876.60 0.115
876.70 0.1149
876.80 0.1149
876.90 0.1148
877.00 0.1148
877.10 0.1147
877.20 0.1147
877.30 0.1146
877.40 0.1146
877.50 0.1145
877.60 0.1145
877.70 0.1144
877.80 0.1144
877.90 0.1143
878.00 0.1143
878.10 0.1142
878.20 0.1142
878.30 0.1141
878.40 0.1141
878.50 0.114
878.60 0.114
878.70 0.1139
878.80 0.1139
878.90 0.1138
879.00 0.1138
879.10 0.1137
879.20 0.1137
879.30 0.1136
879.40 0.1136
879.50 0.1135
879.60 0.1135
879.70 0.1134
879.80 0.1134
879.90 0.1133
880.00 0.1133
880.10 0.1132
880.20 0.1132
880.30 0.1131
880.40 0.1131
880.50 0.113
880.60 0.113
880.70 0.1129
880.80 0.1129
880.90 0.1128
881.00 0.1128
881.10 0.1127
881.20 0.1127
881.30 0.1126
881.40 0.1126
881.50 0.1125
881.60 0.1125
881.70 0.1124
881.80 0.1124
881.90 0.1123
882.00 0.1123
882.10 0.1122
882.20 0.1122
882.30 0.1121
882.40 0.1121
882.50 0.112
882.60 0.112
882.70 0.1119
882.80 0.1119
882.90 0.1118
883.00 0.1118
883.10 0.1117
883.20 0.1117
883.30 0.1116
883.40 0.1116
883.50 0.1115
883.60 0.1115
883.70 0.1114
883.80 0.1114
883.90 0.1114
884.00 0.1113
884.10 0.1113
884.20 0.1112
884.30 0.1112
884.40 0.1111
884.50 0.1111
884.60 0.111
884.70 0.111
884.80 0.1109
884.90 0.1109
885.00 0.1108
885.10 0.1108
885.20 0.1107
885.30 0.1107
885.40 0.1106
885.50 0.1106
885.60 0.1105
885.70 0.1105
885.80 0.1104
885.90 0.1104
886.00 0.1103
886.10 0.1103
886.20 0.1102
886.30 0.1102
886.40 0.1101
886.50 0.1101
886.60 0.11
886.70 0.11
886.80 0.1099
886.90 0.1099
887.00 0.1098
887.10 0.1098
887.20 0.1098
887.30 0.1097
887.40 0.1097
887.50 0.1096
887.60 0.1096
887.70 0.1095
887.80 0.1095
887.90 0.1094
888.00 0.1094
888.10 0.1093
888.20 0.1093
888.30 0.1092
888.40 0.1092
888.50 0.1092
888.60 0.1091
888.70 0.1091
888.80 0.109
888.90 0.109
889.00 0.1089
889.10 0.1089
889.20 0.1088
889.30 0.1088
889.40 0.1087
889.50 0.1087
889.60 0.1086
889.70 0.1086
889.80 0.1085
889.90 0.1085
890.00 0.1085
890.10 0.1084
890.20 0.1084
890.30 0.1083
890.40 0.1083
890.50 0.1082
890.60 0.1082
890.70 0.1081
890.80 0.1081
890.90 0.108
891.00 0.108
891.10 0.1079
891.20 0.1079
891.30 0.1079
891.40 0.1078
891.50 0.1078
891.60 0.1077
891.70 0.1077
891.80 0.1076
891.90 0.1076
892.00 0.1075
892.10 0.1075
892.20 0.1074
892.30 0.1074
892.40 0.1073
892.50 0.1073
892.60 0.1072
892.70 0.1072
892.80 0.1072
892.90 0.1071
893.00 0.1071
893.10 0.107
893.20 0.107
893.30 0.1069
893.40 0.1069
893.50 0.1068
893.60 0.1068
893.70 0.1067
893.80 0.1067
893.90 0.1066
894.00 0.1066
894.10 0.1065
894.20 0.1065
894.30 0.1064
894.40 0.1064
894.50 0.1063
894.60 0.1063
894.70 0.1062
894.80 0.1062
894.90 0.1062
895.00 0.1061
895.10 0.1061
895.20 0.106
895.30 0.106
895.40 0.1059
895.50 0.1059
895.60 0.1058
895.70 0.1058
895.80 0.1057
895.90 0.1057
896.00 0.1056
896.10 0.1056
896.20 0.1055
896.30 0.1055
896.40 0.1054
896.50 0.1054
896.60 0.1054
896.70 0.1053
896.80 0.1053
896.90 0.1052
897.00 0.1052
897.10 0.1051
897.20 0.1051
897.30 0.105
897.40 0.105
897.50 0.1049
897.60 0.1049
897.70 0.1048
897.80 0.1048
897.90 0.1047
898.00 0.1047
898.10 0.1046
898.20 0.1046
898.30 0.1046
898.40 0.1045
898.50 0.1045
898.60 0.1044
898.70 0.1044
898.80 0.1043
898.90 0.1043
899.00 0.1042
899.10 0.1042
899.20 0.1041
899.30 0.1041
899.40 0.104
899.50 0.104
899.60 0.1039
899.70 0.1039
899.80 0.1038
899.90 0.1038
900.00 0.1038
900.10 0.1037
900.20 0.1037
900.30 0.1036
900.40 0.1036
900.50 0.1035
900.60 0.1035
900.70 0.1034
900.80 0.1034
900.90 0.1033
901.00 0.1033
901.10 0.1032
901.20 0.1032
901.30 0.1031
901.40 0.1031
901.50 0.1031
901.60 0.103
901.70 0.103
901.80 0.1029
901.90 0.1029
902.00 0.1028
902.10 0.1028
902.20 0.1027
902.30 0.1027
902.40 0.1027
902.50 0.1026
902.60 0.1026
902.70 0.1025
902.80 0.1025
902.90 0.1025
903.00 0.1024
903.10 0.1024
903.20 0.1023
903.30 0.1023
903.40 0.1023
903.50 0.1022
903.60 0.1022
903.70 0.1021
903.80 0.1021
903.90 0.1021
904.00 0.102
904.10 0.102
904.20 0.1019
904.30 0.1019
904.40 0.1019
904.50 0.1018
904.60 0.1018
904.70 0.1017
904.80 0.1017
904.90 0.1017
905.00 0.1016
905.10 0.1016
905.20 0.1015
905.30 0.1015
905.40 0.1015
905.50 0.1014
905.60 0.1014
905.70 0.1013
905.80 0.1013
905.90 0.1013
906.00 0.1012
906.10 0.1012
906.20 0.1011
906.30 0.1011
906.40 0.1011
906.50 0.101
906.60 0.101
906.70 0.1009
906.80 0.1009
906.90 0.1009
907.00 0.1008
907.10 0.1008
907.20 0.1007
907.30 0.1007
907.40 0.1007
907.50 0.1006
907.60 0.1006
907.70 0.1005
907.80 0.1005
907.90 0.1005
908.00 0.1004
908.10 0.1004
908.20 0.1003
908.30 0.1003
908.40 0.1003
908.50 0.1002
908.60 0.1002
908.70 0.1001
908.80 0.1001
908.90 0.1
909.00 0.1
909.10 0.09996
909.20 0.09992
909.30 0.09988
909.40 0.09984
909.50 0.0998
909.60 0.09976
909.70 0.09971
909.80 0.09967
909.90 0.09963
910.00 0.09959
910.10 0.09955
910.20 0.09951
910.30 0.09947
910.40 0.09943
910.50 0.09939
910.60 0.09935
910.70 0.0993
910.80 0.09926
910.90 0.09922
911.00 0.09918
911.10 0.09914
911.20 0.0991
911.30 0.09906
911.40 0.09902
911.50 0.09898
911.60 0.09894
911.70 0.0989
911.80 0.09886
911.90 0.09881
912.00 0.09877
912.10 0.09873
912.20 0.09868
912.30 0.09864
912.40 0.0986
912.50 0.09855
912.60 0.09851
912.70 0.09846
912.80 0.09842
912.90 0.09837
913.00 0.09833
913.10 0.09828
913.20 0.09824
913.30 0.09819
913.40 0.09815
913.50 0.09811
913.60 0.09806
913.70 0.09802
913.80 0.09797
913.90 0.09793
914.00 0.09788
914.10 0.09784
914.20 0.09779
914.30 0.09775
914.40 0.09771
914.50 0.09766
914.60 0.09762
914.70 0.09757
914.80 0.09753
914.90 0.09748
915.00 0.09744
915.10 0.0974
915.20 0.09735
915.30 0.09731
915.40 0.09726
915.50 0.09722
915.60 0.09718
915.70 0.09713
915.80 0.09709
915.90 0.09704
916.00 0.097
916.10 0.09695
916.20 0.09691
916.30 0.09687
916.40 0.09682
916.50 0.09678
916.60 0.09673
916.70 0.09669
916.80 0.09665
916.90 0.0966
917.00 0.09656
917.10 0.09651
917.20 0.09646
917.30 0.09641
917.40 0.09637
917.50 0.09632
917.60 0.09627
917.70 0.09622
917.80 0.09617
917.90 0.09612
918.00 0.09607
918.10 0.09603
918.20 0.09598
918.30 0.09593
918.40 0.09588
918.50 0.09583
918.60 0.09579
918.70 0.09574
918.80 0.09569
918.90 0.09564
919.00 0.09559
919.10 0.09554
919.20 0.0955
919.30 0.09545
919.40 0.0954
919.50 0.09535
919.60 0.0953
919.70 0.09526
919.80 0.09521
919.90 0.09516
920.00 0.09511
920.10 0.09506
920.20 0.09502
920.30 0.09497
920.40 0.09492
920.50 0.09487
920.60 0.09482
920.70 0.09478
920.80 0.09473
920.90 0.09468
921.00 0.09463
921.10 0.09459
921.20 0.09454
921.30 0.09449
921.40 0.09444
921.50 0.09439
921.60 0.09435
921.70 0.0943
921.80 0.09425
921.90 0.0942
922.00 0.09416
922.10 0.09412
922.20 0.09409
922.30 0.09406
922.40 0.09402
922.50 0.09399
922.60 0.09395
922.70 0.09392
922.80 0.09389
922.90 0.09385
923.00 0.09382
923.10 0.09379
923.20 0.09375
923.30 0.09372
923.40 0.09369
923.50 0.09365
923.60 0.09362
923.70 0.09359
923.80 0.09355
923.90 0.09352
924.00 0.09349
924.10 0.09345
924.20 0.09342
924.30 0.09339
924.40 0.09335
924.50 0.09332
924.60 0.09329
924.70 0.09325
924.80 0.09322
924.90 0.09319
925.00 0.09315
925.10 0.09312
925.20 0.09309
925.30 0.09305
925.40 0.09302
925.50 0.09299
925.60 0.09296
925.70 0.09292
925.80 0.09289
925.90 0.09286
926.00 0.09282
926.10 0.09279
926.20 0.09276
926.30 0.09272
926.40 0.09269
926.50 0.09266
926.60 0.09262
926.70 0.09259
926.80 0.09256
926.90 0.09253
927.00 0.09249
927.10 0.09246
927.20 0.09243
927.30 0.09239
927.40 0.09236
927.50 0.09233
927.60 0.09229
927.70 0.09226
927.80 0.09223
927.90 0.0922
928.00 0.09216
928.10 0.09213
928.20 0.0921
928.30 0.09206
928.40 0.09203
928.50 0.092
928.60 0.09197
928.70 0.09193
928.80 0.0919
928.90 0.09187
929.00 0.09183
929.10 0.0918
929.20 0.09177
929.30 0.09174
929.40 0.0917
929.50 0.09167
929.60 0.09164
929.70 0.0916
929.80 0.09157
929.90 0.09154
930.00 0.09151
930.10 0.09147
930.20 0.09144
930.30 0.09141
930.40 0.09138
930.50 0.09134
930.60 0.09131
930.70 0.09128
930.80 0.09124
930.90 0.09121
931.00 0.09118
931.10 0.09115
931.20 0.09111
931.30 0.09108
931.40 0.09105
931.50 0.09102
931.60 0.09098
931.70 0.09095
931.80 0.09092
931.90 0.09089
932.00 0.09085
932.10 0.09082
932.20 0.09078
932.30 0.09075
932.40 0.09071
932.50 0.09068
932.60 0.09064
932.70 0.09061
932.80 0.09057
932.90 0.09054
933.00 0.0905
933.10 0.09046
933.20 0.09043
933.30 0.09039
933.40 0.09036
933.50 0.09032
933.60 0.09029
933.70 0.09025
933.80 0.09022
933.90 0.09018
934.00 0.09015
934.10 0.09011
934.20 0.09008
934.30 0.09004
934.40 0.09
934.50 0.08997
934.60 0.08993
934.70 0.0899
934.80 0.08986
934.90 0.08982
935.00 0.08979
935.10 0.08975
935.20 0.08971
935.30 0.08968
935.40 0.08964
935.50 0.08961
935.60 0.08957
935.70 0.08953
935.80 0.0895
935.90 0.08946
936.00 0.08943
936.10 0.08939
936.20 0.08935
936.30 0.08932
936.40 0.08928
936.50 0.08925
936.60 0.08921
936.70 0.08917
936.80 0.08914
936.90 0.0891
937.00 0.08907
937.10 0.08903
937.20 0.08899
937.30 0.08896
937.40 0.08892
937.50 0.08888
937.60 0.08885
937.70 0.08881
937.80 0.08877
937.90 0.08874
938.00 0.0887
938.10 0.08866
938.20 0.08863
938.30 0.08859
938.40 0.08855
938.50 0.08852
938.60 0.08848
938.70 0.08844
938.80 0.0884
938.90 0.08837
939.00 0.08833
939.10 0.08829
939.20 0.08826
939.30 0.08822
939.40 0.08818
939.50 0.08815
939.60 0.08811
939.70 0.08807
939.80 0.08804
939.90 0.088
940.00 0.08796
940.10 0.08793
940.20 0.08789
940.30 0.08785
940.40 0.08781
940.50 0.08778
940.60 0.08774
940.70 0.0877
940.80 0.08767
940.90 0.08763
941.00 0.08759
941.10 0.08755
941.20 0.08752
941.30 0.08748
941.40 0.08744
941.50 0.0874
941.60 0.08737
941.70 0.08733
941.80 0.08729
941.90 0.08726
942.00 0.08722
942.10 0.08718
942.20 0.08714
942.30 0.08711
942.40 0.08707
942.50 0.08703
942.60 0.08699
942.70 0.08695
942.80 0.08692
942.90 0.08688
943.00 0.08684
943.10 0.0868
943.20 0.08676
943.30 0.08673
943.40 0.08669
943.50 0.08665
943.60 0.08661
943.70 0.08657
943.80 0.08654
943.90 0.0865
944.00 0.08646
944.10 0.08642
944.20 0.08638
944.30 0.08635
944.40 0.08631
944.50 0.08627
944.60 0.08623
944.70 0.08619
944.80 0.08615
944.90 0.08611
945.00 0.08607
945.10 0.08603
945.20 0.086
945.30 0.08596
945.40 0.08592
945.50 0.08588
945.60 0.08584
945.70 0.0858
945.80 0.08576
945.90 0.08571
946.00 0.08567
946.10 0.08563
946.20 0.08559
946.30 0.08555
946.40 0.08551
946.50 0.08547
946.60 0.08543
946.70 0.08539
946.80 0.08535
946.90 0.08531
947.00 0.08527
947.10 0.08523
947.20 0.08519
947.30 0.08515
947.40 0.08511
947.50 0.08506
947.60 0.08502
947.70 0.08498
947.80 0.08493
947.90 0.08489
948.00 0.08485
948.10 0.0848
948.20 0.08476
948.30 0.08472
948.40 0.08467
948.50 0.08463
948.60 0.08459
948.70 0.08455
948.80 0.0845
948.90 0.08446
949.00 0.08442
949.10 0.08437
949.20 0.08433
949.30 0.08429
949.40 0.08424
949.50 0.08419
949.60 0.08414
949.70 0.0841
949.80 0.08405
949.90 0.084
950.00 0.08395
950.10 0.0839
950.20 0.08386
950.30 0.08381
950.40 0.08376
950.50 0.08371
950.60 0.08367
950.70 0.08362
950.80 0.08357
950.90 0.08352
951.00 0.08348
951.10 0.08343
951.20 0.08338
951.30 0.08333
951.40 0.08328
951.50 0.08323
951.60 0.08318
951.70 0.08313
951.80 0.08308
951.90 0.08303
952.00 0.08298
952.10 0.08292
952.20 0.08287
952.30 0.08282
952.40 0.08277
952.50 0.08272
952.60 0.08266
952.70 0.08261
952.80 0.08256
952.90 0.08251
953.00 0.08246
953.10 0.08241
953.20 0.08236
953.30 0.08231
953.40 0.08226
953.50 0.08221
953.60 0.08217
953.70 0.08213
953.80 0.08209
953.90 0.08204
954.00 0.08201
954.10 0.08198
954.20 0.08195
954.30 0.08193
954.40 0.08191
954.50 0.08189
954.60 0.08186
954.70 0.08183
954.80 0.08178
954.90 0.08174
955.00 0.08169
955.10 0.08165
955.20 0.08162
955.30 0.0816
955.40 0.08157
955.50 0.08155
955.60 0.08152
955.70 0.0815
955.80 0.08147
955.90 0.08146
956.00 0.08144
956.10 0.08142
956.20 0.08141
956.30 0.08139
956.40 0.08138
956.50 0.08136
956.60 0.08135
956.70 0.08133
956.80 0.08132
956.90 0.0813
957.00 0.08129
957.10 0.08127
957.20 0.08126
957.30 0.08124
957.40 0.08122
957.50 0.08121
957.60 0.08119
957.70 0.08117
957.80 0.08115
957.90 0.08113
958.00 0.08112
958.10 0.0811
958.20 0.08108
958.30 0.08106
958.40 0.08104
958.50 0.08103
958.60 0.08101
958.70 0.08099
958.80 0.08097
958.90 0.08095
959.00 0.08094
959.10 0.08092
959.20 0.0809
959.30 0.08088
959.40 0.08086
959.50 0.08084
959.60 0.08081
959.70 0.08079
959.80 0.08077
959.90 0.08074
960.00 0.08072
960.10 0.0807
960.20 0.08067
960.30 0.08065
960.40 0.08063
960.50 0.0806
960.60 0.08058
960.70 0.08056
960.80 0.08053
960.90 0.08051
961.00 0.08049
961.10 0.08046
961.20 0.08044
961.30 0.08042
961.40 0.08039
961.50 0.08037
961.60 0.08034
961.70 0.08032
961.80 0.08029
961.90 0.08026
962.00 0.08024
962.10 0.08021
962.20 0.08018
962.30 0.08016
962.40 0.08013
962.50 0.0801
962.60 0.08008
962.70 0.08005
962.80 0.08002
962.90 0.07999
963.00 0.07997
963.10 0.07994
963.20 0.07991
963.30 0.07989
963.40 0.07986
963.50 0.07983
963.60 0.0798
963.70 0.07977
963.80 0.07974
963.90 0.07972
964.00 0.07969
964.10 0.07966
964.20 0.07963
964.30 0.0796
964.40 0.07957
964.50 0.07955
964.60 0.07952
964.70 0.07949
964.80 0.07946
964.90 0.07943
965.00 0.0794
965.10 0.07937
965.20 0.07934
965.30 0.07931
965.40 0.07928
965.50 0.07925
965.60 0.07922
965.70 0.07919
965.80 0.07917
965.90 0.07914
966.00 0.07911
966.10 0.07908
966.20 0.07905
966.30 0.07902
966.40 0.07899
966.50 0.07896
966.60 0.07893
966.70 0.0789
966.80 0.07887
966.90 0.07884
967.00 0.07881
967.10 0.07878
967.20 0.07875
967.30 0.07872
967.40 0.07869
967.50 0.07866
967.60 0.07863
967.70 0.0786
967.80 0.07857
967.90 0.07854
968.00 0.07851
968.10 0.07848
968.20 0.07845
968.30 0.07842
968.40 0.07839
968.50 0.07836
968.60 0.07833
968.70 0.0783
968.80 0.07827
968.90 0.07824
969.00 0.07821
969.10 0.07818
969.20 0.07815
969.30 0.07812
969.40 0.07809
969.50 0.07806
969.60 0.07803
969.70 0.078
969.80 0.07797
969.90 0.07794
970.00 0.07791
970.10 0.07788
970.20 0.07785
970.30 0.07782
970.40 0.07779
970.50 0.07776
970.60 0.07772
970.70 0.07769
970.80 0.07766
970.90 0.07763
971.00 0.0776
971.10 0.07757
971.20 0.07754
971.30 0.07751
971.40 0.07748
971.50 0.07745
971.60 0.07742
971.70 0.07739
971.80 0.07736
971.90 0.07733
972.00 0.0773
972.10 0.07727
972.20 0.07724
972.30 0.07721
972.40 0.07718
972.50 0.07715
972.60 0.07712
972.70 0.07709
972.80 0.07706
972.90 0.07703
973.00 0.077
973.10 0.07697
973.20 0.07694
973.30 0.07691
973.40 0.07688
973.50 0.07684
973.60 0.07681
973.70 0.07678
973.80 0.07675
973.90 0.07672
974.00 0.07669
974.10 0.07666
974.20 0.07663
974.30 0.0766
974.40 0.07657
974.50 0.07654
974.60 0.07651
974.70 0.07648
974.80 0.07645
974.90 0.07642
975.00 0.07639
975.10 0.07636
975.20 0.07633
975.30 0.0763
975.40 0.07627
975.50 0.07624
975.60 0.07621
975.70 0.07618
975.80 0.07615
975.90 0.07612
976.00 0.07609
976.10 0.07606
976.20 0.07603
976.30 0.076
976.40 0.07597
976.50 0.07594
976.60 0.07591
976.70 0.07588
976.80 0.07585
976.90 0.07582
977.00 0.07579
977.10 0.07576
977.20 0.07573
977.30 0.0757
977.40 0.07567
977.50 0.07564
977.60 0.07561
977.70 0.07558
977.80 0.07555
977.90 0.07552
978.00 0.07549
978.10 0.07546
978.20 0.07543
978.30 0.0754
978.40 0.07537
978.50 0.07534
978.60 0.07531
978.70 0.07528
978.80 0.07525
978.90 0.07522
979.00 0.07519
979.10 0.07516
979.20 0.07513
979.30 0.0751
979.40 0.07507
979.50 0.07504
979.60 0.07501
979.70 0.07498
979.80 0.07495
979.90 0.07492
980.00 0.07489
980.10 0.07486
980.20 0.07483
980.30 0.0748
980.40 0.07477
980.50 0.07474
980.60 0.07471
980.70 0.07468
980.80 0.07465
980.90 0.07462
981.00 0.07459
981.10 0.07457
981.20 0.07454
981.30 0.07451
981.40 0.07448
981.50 0.07445
981.60 0.07442
981.70 0.07439
981.80 0.07436
981.90 0.07433
982.00 0.0743
982.10 0.07427
982.20 0.07424
982.30 0.07421
982.40 0.07418
982.50 0.07415
982.60 0.07412
982.70 0.07409
982.80 0.07406
982.90 0.07403
983.00 0.074
983.10 0.07397
983.20 0.07394
983.30 0.07392
983.40 0.07389
983.50 0.07386
983.60 0.07383
983.70 0.0738
983.80 0.07377
983.90 0.07374
984.00 0.07371
984.10 0.07368
984.20 0.07365
984.30 0.07362
984.40 0.07359
984.50 0.07356
984.60 0.07353
984.70 0.0735
984.80 0.07347
984.90 0.07345
985.00 0.07342
985.10 0.07339
985.20 0.07336
985.30 0.07333
985.40 0.0733
985.50 0.07327
985.60 0.07324
985.70 0.07321
985.80 0.07318
985.90 0.07315
986.00 0.07312
986.10 0.07309
986.20 0.07306
986.30 0.07303
986.40 0.07301
986.50 0.07298
986.60 0.07295
986.70 0.07292
986.80 0.07289
986.90 0.07286
987.00 0.07283
987.10 0.0728
987.20 0.07277
987.30 0.07274
987.40 0.07271
987.50 0.07268
987.60 0.07265
987.70 0.07263
987.80 0.0726
987.90 0.07257
988.00 0.07254
988.10 0.07251
988.20 0.07248
988.30 0.07245
988.40 0.07242
988.50 0.07239
988.60 0.07236
988.70 0.07233
988.80 0.0723
988.90 0.07228
989.00 0.07225
989.10 0.07222
989.20 0.07219
989.30 0.07216
989.40 0.07213
989.50 0.0721
989.60 0.07207
989.70 0.07204
989.80 0.07201
989.90 0.07198
990.00 0.07195
990.10 0.07192
990.20 0.07189
990.30 0.07187
990.40 0.07184
990.50 0.07181
990.60 0.07178
990.70 0.07175
990.80 0.07172
990.90 0.07169
991.00 0.07166
991.10 0.07163
991.20 0.0716
991.30 0.07157
991.40 0.07154
991.50 0.07151
991.60 0.07148
991.70 0.07145
991.80 0.07142
991.90 0.07139
992.00 0.07137
992.10 0.07134
992.20 0.07131
992.30 0.07128
992.40 0.07125
992.50 0.07122
992.60 0.07119
992.70 0.07116
992.80 0.07113
992.90 0.0711
993.00 0.07107
993.10 0.07104
993.20 0.07101
993.30 0.07098
993.40 0.07094
993.50 0.07091
993.60 0.07088
993.70 0.07085
993.80 0.07082
993.90 0.07079
994.00 0.07076
994.10 0.07073
994.20 0.0707
994.30 0.07067
994.40 0.07064
994.50 0.07061
994.60 0.07058
994.70 0.07055
994.80 0.07052
994.90 0.07049
995.00 0.07046
995.10 0.07043
995.20 0.0704
995.30 0.07036
995.40 0.07033
995.50 0.0703
995.60 0.07027
995.70 0.07024
995.80 0.07021
995.90 0.07017
996.00 0.07014
996.10 0.07011
996.20 0.07008
996.30 0.07004
996.40 0.07001
996.50 0.06998
996.60 0.06995
996.70 0.06992
996.80 0.06988
996.90 0.06985
997.00 0.06982
997.10 0.06978
997.20 0.06975
997.30 0.06972
997.40 0.06968
997.50 0.06965
997.60 0.06961
997.70 0.06958
997.80 0.06954
997.90 0.0695
998.00 0.06947
998.10 0.06943
998.20 0.06939
998.30 0.06936
998.40 0.06932
998.50 0.06928
998.60 0.06924
998.70 0.06921
998.80 0.06917
998.90 0.06913
999.00 0.0691
999.10 0.06906
999.20 0.06902
999.30 0.06899
999.40 0.06895
999.50 0.06891
999.60 0.06888
999.70 0.06883
999.80 0.06879
999.90 0.06874
1000.00 0.0687
1000.10 0.06865
1000.20 0.06861
1000.30 0.06856
1000.40 0.06851
1000.50 0.06847
1000.60 0.06842
1000.70 0.06838
1000.80 0.06833
1000.90 0.06829
1001.00 0.06824
1001.10 0.0682
1001.20 0.06815
1001.30 0.06811
1001.40 0.06806
1001.50 0.06802
1001.60 0.06797
1001.70 0.06792
1001.80 0.06787
1001.90 0.06782
1002.00 0.06777
1002.10 0.06772
1002.20 0.06766
1002.30 0.0676
1002.40 0.06755
1002.50 0.06749
1002.60 0.06744
1002.70 0.06738
1002.80 0.06733
1002.90 0.06727
1003.00 0.06722
1003.10 0.06716
1003.20 0.06711
1003.30 0.06705
1003.40 0.06699
1003.50 0.06693
1003.60 0.06688
1003.70 0.06682
1003.80 0.06676
1003.90 0.06672
1004.00 0.06667
1004.10 0.06663
1004.20 0.06658
1004.30 0.06656
1004.40 0.06655
1004.50 0.06654
1004.60 0.06658
1004.70 0.06664
1004.80 0.06672
1004.90 0.06671
1005.00 0.06671
1005.10 0.06663
1005.20 0.06652
1005.30 0.06642
1005.40 0.06631
1005.50 0.06628
1005.60 0.06626
1005.70 0.06625
1005.80 0.06623
1005.90 0.06622
1006.00 0.06621
1006.10 0.06619
1006.20 0.06619
1006.30 0.0662
1006.40 0.06621
1006.50 0.06621
1006.60 0.06622
1006.70 0.06622
1006.80 0.06623
1006.90 0.06623
1007.00 0.06624
1007.10 0.06624
1007.20 0.06625
1007.30 0.06625
1007.40 0.06625
1007.50 0.06626
1007.60 0.06626
1007.70 0.06626
1007.80 0.06625
1007.90 0.06625
1008.00 0.06624
1008.10 0.06624
1008.20 0.06624
1008.30 0.06623
1008.40 0.06623
1008.50 0.06622
1008.60 0.06622
1008.70 0.06621
1008.80 0.06621
1008.90 0.0662
1009.00 0.0662
1009.10 0.06619
1009.20 0.06619
1009.30 0.06618
1009.40 0.06618
1009.50 0.06617
1009.60 0.06617
1009.70 0.06616
1009.80 0.06614
1009.90 0.06613
1010.00 0.06611
1010.10 0.0661
1010.20 0.06609
1010.30 0.06607
1010.40 0.06606
1010.50 0.06604
1010.60 0.06603
1010.70 0.06601
1010.80 0.066
1010.90 0.06599
1011.00 0.06597
1011.10 0.06596
1011.20 0.06594
1011.30 0.06593
1011.40 0.06592
1011.50 0.0659
1011.60 0.06589
1011.70 0.06587
1011.80 0.06585
1011.90 0.06584
1012.00 0.06582
1012.10 0.0658
1012.20 0.06578
1012.30 0.06576
1012.40 0.06574
1012.50 0.06572
1012.60 0.0657
1012.70 0.06568
1012.80 0.06566
1012.90 0.06564
1013.00 0.06562
1013.10 0.0656
1013.20 0.06558
1013.30 0.06556
1013.40 0.06554
1013.50 0.06552
1013.60 0.0655
1013.70 0.06548
1013.80 0.06546
1013.90 0.06544
1014.00 0.06542
1014.10 0.0654
1014.20 0.06538
1014.30 0.06536
1014.40 0.06533
1014.50 0.06531
1014.60 0.06529
1014.70 0.06527
1014.80 0.06525
1014.90 0.06522
1015.00 0.0652
1015.10 0.06518
1015.20 0.06516
1015.30 0.06513
1015.40 0.06511
1015.50 0.06509
1015.60 0.06507
1015.70 0.06504
1015.80 0.06502
1015.90 0.065
1016.00 0.06498
1016.10 0.06495
1016.20 0.06493
1016.30 0.06491
1016.40 0.06489
1016.50 0.06487
1016.60 0.06484
1016.70 0.06482
1016.80 0.0648
1016.90 0.06477
1017.00 0.06475
1017.10 0.06473
1017.20 0.0647
1017.30 0.06468
1017.40 0.06466
1017.50 0.06463
1017.60 0.06461
1017.70 0.06459
1017.80 0.06456
1017.90 0.06454
1018.00 0.06452
1018.10 0.06449
1018.20 0.06447
1018.30 0.06445
1018.40 0.06442
1018.50 0.0644
1018.60 0.06438
1018.70 0.06435
1018.80 0.06433
1018.90 0.06431
1019.00 0.06428
1019.10 0.06426
1019.20 0.06424
1019.30 0.06421
1019.40 0.06419
1019.50 0.06417
1019.60 0.06414
1019.70 0.06412
1019.80 0.0641
1019.90 0.06407
1020.00 0.06405
1020.10 0.06402
1020.20 0.064
1020.30 0.06398
1020.40 0.06395
1020.50 0.06393
1020.60 0.06391
1020.70 0.06388
1020.80 0.06386
1020.90 0.06384
1021.00 0.06381
1021.10 0.06379
1021.20 0.06376
1021.30 0.06374
1021.40 0.06372
1021.50 0.06369
1021.60 0.06367
1021.70 0.06365
1021.80 0.06362
1021.90 0.0636
1022.00 0.06358
1022.10 0.06355
1022.20 0.06353
1022.30 0.0635
1022.40 0.06348
1022.50 0.06346
1022.60 0.06343
1022.70 0.06341
1022.80 0.06339
1022.90 0.06336
1023.00 0.06334
1023.10 0.06331
1023.20 0.06329
1023.30 0.06327
1023.40 0.06324
1023.50 0.06322
1023.60 0.0632
1023.70 0.06317
1023.80 0.06315
1023.90 0.06313
1024.00 0.0631
1024.10 0.06308
1024.20 0.06306
1024.30 0.06303
1024.40 0.06301
1024.50 0.06298
1024.60 0.06296
1024.70 0.06294
1024.80 0.06291
1024.90 0.06289
1025.00 0.06287
1025.10 0.06284
1025.20 0.06282
1025.30 0.0628
1025.40 0.06277
1025.50 0.06275
1025.60 0.06273
1025.70 0.0627
1025.80 0.06268
1025.90 0.06265
1026.00 0.06263
1026.10 0.06261
1026.20 0.06258
1026.30 0.06256
1026.40 0.06254
1026.50 0.06251
1026.60 0.06249
1026.70 0.06247
1026.80 0.06244
1026.90 0.06242
1027.00 0.0624
1027.10 0.06237
1027.20 0.06235
1027.30 0.06233
1027.40 0.0623
1027.50 0.06228
1027.60 0.06226
1027.70 0.06223
1027.80 0.06221
1027.90 0.06219
1028.00 0.06216
1028.10 0.06214
1028.20 0.06212
1028.30 0.06209
1028.40 0.06207
1028.50 0.06205
1028.60 0.06202
1028.70 0.062
1028.80 0.06198
1028.90 0.06195
1029.00 0.06193
1029.10 0.06191
1029.20 0.06188
1029.30 0.06186
1029.40 0.06184
1029.50 0.06181
1029.60 0.06179
1029.70 0.06177
1029.80 0.06174
1029.90 0.06172
1030.00 0.0617
1030.10 0.06167
1030.20 0.06165
1030.30 0.06163
1030.40 0.06161
1030.50 0.06158
1030.60 0.06156
1030.70 0.06154
1030.80 0.06151
1030.90 0.06149
1031.00 0.06147
1031.10 0.06144
1031.20 0.06142
1031.30 0.0614
1031.40 0.06137
1031.50 0.06135
1031.60 0.06133
1031.70 0.0613
1031.80 0.06128
1031.90 0.06126
1032.00 0.06124
1032.10 0.06121
1032.20 0.06119
1032.30 0.06117
1032.40 0.06114
1032.50 0.06112
1032.60 0.0611
1032.70 0.06108
1032.80 0.06105
1032.90 0.06103
1033.00 0.06101
1033.10 0.06098
1033.20 0.06096
1033.30 0.06094
1033.40 0.06092
1033.50 0.06089
1033.60 0.06087
1033.70 0.06085
1033.80 0.06082
1033.90 0.0608
1034.00 0.06078
1034.10 0.06076
1034.20 0.06073
1034.30 0.06071
1034.40 0.06069
1034.50 0.06066
1034.60 0.06064
1034.70 0.06062
1034.80 0.0606
1034.90 0.06057
1035.00 0.06055
1035.10 0.06053
1035.20 0.06051
1035.30 0.06048
1035.40 0.06046
1035.50 0.06044
1035.60 0.06041
1035.70 0.06039
1035.80 0.06037
1035.90 0.06035
1036.00 0.06032
1036.10 0.0603
1036.20 0.06028
1036.30 0.06026
1036.40 0.06023
1036.50 0.06021
1036.60 0.06019
1036.70 0.06017
1036.80 0.06014
1036.90 0.06012
1037.00 0.0601
1037.10 0.06008
1037.20 0.06005
1037.30 0.06003
1037.40 0.06001
1037.50 0.05999
1037.60 0.05996
1037.70 0.05994
1037.80 0.05992
1037.90 0.0599
1038.00 0.05987
1038.10 0.05985
1038.20 0.05983
1038.30 0.05981
1038.40 0.05978
1038.50 0.05976
1038.60 0.05974
1038.70 0.05972
1038.80 0.0597
1038.90 0.05967
1039.00 0.05965
1039.10 0.05963
1039.20 0.05961
1039.30 0.05958
1039.40 0.05956
1039.50 0.05954
1039.60 0.05952
1039.70 0.0595
1039.80 0.05947
1039.90 0.05945
1040.00 0.05943
1040.10 0.05941
1040.20 0.05938
1040.30 0.05936
1040.40 0.05934
1040.50 0.05932
1040.60 0.0593
1040.70 0.05927
1040.80 0.05925
1040.90 0.05923
1041.00 0.05921
1041.10 0.05918
1041.20 0.05916
1041.30 0.05914
1041.40 0.05912
1041.50 0.0591
1041.60 0.05907
1041.70 0.05905
1041.80 0.05903
1041.90 0.05901
1042.00 0.05899
1042.10 0.05896
1042.20 0.05894
1042.30 0.05892
1042.40 0.0589
1042.50 0.05888
1042.60 0.05885
1042.70 0.05883
1042.80 0.05881
1042.90 0.05879
1043.00 0.05877
1043.10 0.05874
1043.20 0.05872
1043.30 0.0587
1043.40 0.05868
1043.50 0.05866
1043.60 0.05864
1043.70 0.05861
1043.80 0.05859
1043.90 0.05857
1044.00 0.05855
1044.10 0.05853
1044.20 0.0585
1044.30 0.05848
1044.40 0.05846
1044.50 0.05844
1044.60 0.05842
1044.70 0.0584
1044.80 0.05837
1044.90 0.05835
1045.00 0.05833
1045.10 0.05831
1045.20 0.05829
1045.30 0.05827
1045.40 0.05824
1045.50 0.05822
1045.60 0.0582
1045.70 0.05818
1045.80 0.05816
1045.90 0.05814
1046.00 0.05811
1046.10 0.05809
1046.20 0.05807
1046.30 0.05805
1046.40 0.05803
1046.50 0.05801
1046.60 0.05798
1046.70 0.05796
1046.80 0.05794
1046.90 0.05792
1047.00 0.0579
1047.10 0.05788
1047.20 0.05785
1047.30 0.05783
1047.40 0.05781
1047.50 0.05779
1047.60 0.05777
1047.70 0.05775
1047.80 0.05773
1047.90 0.0577
1048.00 0.05768
1048.10 0.05766
1048.20 0.05764
1048.30 0.05762
1048.40 0.0576
1048.50 0.05758
1048.60 0.05756
1048.70 0.05753
1048.80 0.05751
1048.90 0.05749
1049.00 0.05747
1049.10 0.05745
1049.20 0.05743
1049.30 0.05741
1049.40 0.05738
1049.50 0.05736
1049.60 0.05734
1049.70 0.05732
1049.80 0.0573
1049.90 0.05728
1050.00 0.05726
1050.10 0.05724
1050.20 0.05721
1050.30 0.05719
1050.40 0.05717
1050.50 0.05715
1050.60 0.05713
1050.70 0.05711
1050.80 0.05709
1050.90 0.05707
1051.00 0.05704
1051.10 0.05702
1051.20 0.057
1051.30 0.05698
1051.40 0.05696
1051.50 0.05694
1051.60 0.05692
1051.70 0.0569
1051.80 0.05688
1051.90 0.05685
1052.00 0.05683
1052.10 0.05681
1052.20 0.05679
1052.30 0.05677
1052.40 0.05675
1052.50 0.05673
1052.60 0.05671
1052.70 0.05669
1052.80 0.05667
1052.90 0.05664
1053.00 0.05662
1053.10 0.0566
1053.20 0.05658
1053.30 0.05656
1053.40 0.05654
1053.50 0.05652
1053.60 0.0565
1053.70 0.05648
1053.80 0.05646
1053.90 0.05644
1054.00 0.05642
1054.10 0.05639
1054.20 0.05637
1054.30 0.05635
1054.40 0.05633
1054.50 0.05631
1054.60 0.05629
1054.70 0.05627
1054.80 0.05625
1054.90 0.05623
1055.00 0.05621
1055.10 0.05619
1055.20 0.05617
1055.30 0.05614
1055.40 0.05612
1055.50 0.0561
1055.60 0.05608
1055.70 0.05606
1055.80 0.05604
1055.90 0.05602
1056.00 0.056
1056.10 0.05598
1056.20 0.05596
1056.30 0.05594
1056.40 0.05592
1056.50 0.0559
1056.60 0.05588
1056.70 0.05585
1056.80 0.05583
1056.90 0.05581
1057.00 0.05579
1057.10 0.05577
1057.20 0.05575
1057.30 0.05573
1057.40 0.05571
1057.50 0.05569
1057.60 0.05567
1057.70 0.05565
1057.80 0.05563
1057.90 0.05561
1058.00 0.05559
1058.10 0.05557
1058.20 0.05555
1058.30 0.05553
1058.40 0.05551
1058.50 0.05549
1058.60 0.05547
1058.70 0.05545
1058.80 0.05542
1058.90 0.0554
1059.00 0.05538
1059.10 0.05536
1059.20 0.05534
1059.30 0.05532
1059.40 0.0553
1059.50 0.05528
1059.60 0.05526
1059.70 0.05524
1059.80 0.05522
1059.90 0.0552
1060.00 0.05518
1060.10 0.05516
1060.20 0.05514
1060.30 0.05512
1060.40 0.0551
1060.50 0.05508
1060.60 0.05506
1060.70 0.05504
1060.80 0.05502
1060.90 0.055
1061.00 0.05498
1061.10 0.05496
1061.20 0.05494
1061.30 0.05492
1061.40 0.0549
1061.50 0.05488
1061.60 0.05486
1061.70 0.05484
1061.80 0.05482
1061.90 0.0548
1062.00 0.05478
1062.10 0.05476
1062.20 0.05473
1062.30 0.05471
1062.40 0.05469
1062.50 0.05467
1062.60 0.05465
1062.70 0.05463
1062.80 0.05461
1062.90 0.05459
1063.00 0.05457
1063.10 0.05455
1063.20 0.05453
1063.30 0.05451
1063.40 0.05449
1063.50 0.05447
1063.60 0.05445
1063.70 0.05443
1063.80 0.05441
1063.90 0.05439
1064.00 0.05437
1064.10 0.05435
1064.20 0.05433
1064.30 0.05431
1064.40 0.05429
1064.50 0.05427
1064.60 0.05426
1064.70 0.05424
1064.80 0.05422
1064.90 0.0542
1065.00 0.05418
1065.10 0.05416
1065.20 0.05414
1065.30 0.05412
1065.40 0.0541
1065.50 0.05408
1065.60 0.05406
1065.70 0.05404
1065.80 0.05402
1065.90 0.054
1066.00 0.05398
1066.10 0.05396
1066.20 0.05394
1066.30 0.05392
1066.40 0.0539
1066.50 0.05388
1066.60 0.05386
1066.70 0.05384
1066.80 0.05382
1066.90 0.0538
1067.00 0.05378
1067.10 0.05376
1067.20 0.05374
1067.30 0.05372
1067.40 0.0537
1067.50 0.05368
1067.60 0.05366
1067.70 0.05364
1067.80 0.05362
1067.90 0.0536
1068.00 0.05358
1068.10 0.05356
1068.20 0.05354
1068.30 0.05352
1068.40 0.0535
1068.50 0.05348
1068.60 0.05346
1068.70 0.05344
1068.80 0.05343
1068.90 0.05341
1069.00 0.05339
1069.10 0.05337
1069.20 0.05335
1069.30 0.05333
1069.40 0.05331
1069.50 0.05329
1069.60 0.05327
1069.70 0.05325
1069.80 0.05323
1069.90 0.05321
1070.00 0.05319
1070.10 0.05317
1070.20 0.05315
1070.30 0.05313
1070.40 0.05311
1070.50 0.05309
1070.60 0.05307
1070.70 0.05305
1070.80 0.05303
1070.90 0.05301
1071.00 0.053
1071.10 0.05298
1071.20 0.05296
1071.30 0.05294
1071.40 0.05292
1071.50 0.0529
1071.60 0.05288
1071.70 0.05286
1071.80 0.05284
1071.90 0.05282
1072.00 0.0528
1072.10 0.05278
1072.20 0.05276
1072.30 0.05274
1072.40 0.05272
1072.50 0.0527
1072.60 0.05268
1072.70 0.05267
1072.80 0.05265
1072.90 0.05263
1073.00 0.05261
1073.10 0.05259
1073.20 0.05257
1073.30 0.05255
1073.40 0.05253
1073.50 0.05251
1073.60 0.05249
1073.70 0.05247
1073.80 0.05245
1073.90 0.05243
1074.00 0.05241
1074.10 0.05239
1074.20 0.05238
1074.30 0.05236
1074.40 0.05234
1074.50 0.05232
1074.60 0.0523
1074.70 0.05228
1074.80 0.05226
1074.90 0.05224
1075.00 0.05222
1075.10 0.0522
1075.20 0.05218
1075.30 0.05216
1075.40 0.05214
1075.50 0.05212
1075.60 0.05211
1075.70 0.05209
1075.80 0.05207
1075.90 0.05205
1076.00 0.05203
1076.10 0.05201
1076.20 0.05199
1076.30 0.05197
1076.40 0.05195
1076.50 0.05193
1076.60 0.05191
1076.70 0.05189
1076.80 0.05187
1076.90 0.05186
1077.00 0.05184
1077.10 0.05182
1077.20 0.0518
1077.30 0.05178
1077.40 0.05176
1077.50 0.05174
1077.60 0.05172
1077.70 0.0517
1077.80 0.05168
1077.90 0.05166
1078.00 0.05164
1078.10 0.05162
1078.20 0.0516
1078.30 0.05159
1078.40 0.05157
1078.50 0.05155
1078.60 0.05153
1078.70 0.05151
1078.80 0.05149
1078.90 0.05147
1079.00 0.05145
1079.10 0.05143
1079.20 0.05141
1079.30 0.05139
1079.40 0.05137
1079.50 0.05135
1079.60 0.05133
1079.70 0.05131
1079.80 0.0513
1079.90 0.05128
1080.00 0.05126
1080.10 0.05124
1080.20 0.05122
1080.30 0.0512
1080.40 0.05118
1080.50 0.05116
1080.60 0.05114
1080.70 0.05112
1080.80 0.0511
1080.90 0.05108
1081.00 0.05106
1081.10 0.05104
1081.20 0.05102
1081.30 0.051
1081.40 0.05098
1081.50 0.05096
1081.60 0.05094
1081.70 0.05092
1081.80 0.0509
1081.90 0.05088
1082.00 0.05086
1082.10 0.05084
1082.20 0.05082
1082.30 0.0508
1082.40 0.05078
1082.50 0.05076
1082.60 0.05074
1082.70 0.05072
1082.80 0.0507
1082.90 0.05068
1083.00 0.05066
1083.10 0.05064
1083.20 0.05062
1083.30 0.0506
1083.40 0.05058
1083.50 0.05056
1083.60 0.05054
1083.70 0.05052
1083.80 0.0505
1083.90 0.05048
1084.00 0.05046
1084.10 0.05044
1084.20 0.05042
1084.30 0.0504
1084.40 0.05037
1084.50 0.05035
1084.60 0.05033
1084.70 0.05031
1084.80 0.05029
1084.90 0.05026
1085.00 0.05024
1085.10 0.05022
1085.20 0.0502
1085.30 0.05017
1085.40 0.05015
1085.50 0.05013
1085.60 0.05011
1085.70 0.05009
1085.80 0.05006
1085.90 0.05004
1086.00 0.05002
1086.10 0.05
1086.20 0.04997
1086.30 0.04995
1086.40 0.04993
1086.50 0.04991
1086.60 0.04988
1086.70 0.04986
1086.80 0.04983
1086.90 0.04981
1087.00 0.04979
1087.10 0.04976
1087.20 0.04973
1087.30 0.0497
1087.40 0.04968
1087.50 0.04965
1087.60 0.04962
1087.70 0.0496
1087.80 0.04957
1087.90 0.04954
1088.00 0.04952
1088.10 0.04949
1088.20 0.04946
1088.30 0.04944
1088.40 0.04941
1088.50 0.04938
1088.60 0.04934
1088.70 0.04931
1088.80 0.04928
1088.90 0.04924
1089.00 0.04921
1089.10 0.04917
1089.20 0.04914
1089.30 0.0491
1089.40 0.04907
1089.50 0.04903
1089.60 0.049
1089.70 0.04897
1089.80 0.04893
1089.90 0.0489
1090.00 0.04886
1090.10 0.04883
1090.20 0.04879
1090.30 0.04876
1090.40 0.04872
1090.50 0.04869
1090.60 0.04864
1090.70 0.04859
1090.80 0.04855
1090.90 0.0485
1091.00 0.04845
1091.10 0.04841
1091.20 0.04836
1091.30 0.04832
1091.40 0.04827
1091.50 0.04822
1091.60 0.04818
1091.70 0.04813
1091.80 0.04808
1091.90 0.04804
1092.00 0.04799
1092.10 0.04794
1092.20 0.04789
1092.30 0.04784
1092.40 0.04779
1092.50 0.04774
1092.60 0.04769
1092.70 0.04765
1092.80 0.04762
1092.90 0.04758
1093.00 0.04755
1093.10 0.04752
1093.20 0.04752
1093.30 0.04752
1093.40 0.04755
1093.50 0.0476
1093.60 0.0477
1093.70 0.04778
1093.80 0.04783
1093.90 0.04783
1094.00 0.04771
1094.10 0.04758
1094.20 0.04746
1094.30 0.04737
1094.40 0.04736
1094.50 0.04735
1094.60 0.04733
1094.70 0.04732
1094.80 0.04731
1094.90 0.04729
1095.00 0.04729
1095.10 0.0473
1095.20 0.04732
1095.30 0.04733
1095.40 0.04735
1095.50 0.04736
1095.60 0.04738
1095.70 0.04739
1095.80 0.04741
1095.90 0.04742
1096.00 0.04744
1096.10 0.04745
1096.20 0.04747
1096.30 0.04749
1096.40 0.0475
1096.50 0.04751
1096.60 0.04752
1096.70 0.04753
1096.80 0.04754
1096.90 0.04755
1097.00 0.04756
1097.10 0.04756
1097.20 0.04756
1097.30 0.04757
1097.40 0.04757
1097.50 0.04757
1097.60 0.04757
1097.70 0.04757
1097.80 0.04758
1097.90 0.04758
1098.00 0.04758
1098.10 0.04758
1098.20 0.04758
1098.30 0.04759
1098.40 0.04759
1098.50 0.04759
1098.60 0.04758
1098.70 0.04757
1098.80 0.04757
1098.90 0.04756
1099.00 0.04755
1099.10 0.04755
1099.20 0.04754
1099.30 0.04753
1099.40 0.04753
1099.50 0.04752
1099.60 0.04751
1099.70 0.04751
1099.80 0.0475
1099.90 0.04749
1100.00 0.04749
1100.10 0.04748
1100.20 0.04747
1100.30 0.04747
1100.40 0.04746
1100.50 0.04745
1100.60 0.04744
1100.70 0.04743
1100.80 0.04742
1100.90 0.04741
1101.00 0.0474
1101.10 0.04738
1101.20 0.04737
1101.30 0.04736
1101.40 0.04735
1101.50 0.04734
1101.60 0.04733
1101.70 0.04732
1101.80 0.0473
1101.90 0.04729
1102.00 0.04728
1102.10 0.04727
1102.20 0.04726
1102.30 0.04724
1102.40 0.04723
1102.50 0.04722
1102.60 0.0472
1102.70 0.04719
1102.80 0.04718
1102.90 0.04716
1103.00 0.04715
1103.10 0.04713
1103.20 0.04712
1103.30 0.04711
1103.40 0.04709
1103.50 0.04708
1103.60 0.04707
1103.70 0.04705
1103.80 0.04704
1103.90 0.04702
1104.00 0.04701
1104.10 0.04699
1104.20 0.04698
1104.30 0.04696
1104.40 0.04695
1104.50 0.04693
1104.60 0.04692
1104.70 0.0469
1104.80 0.04689
1104.90 0.04687
1105.00 0.04686
1105.10 0.04685
1105.20 0.04683
1105.30 0.04682
1105.40 0.0468
1105.50 0.04679
1105.60 0.04677
1105.70 0.04676
1105.80 0.04674
1105.90 0.04673
1106.00 0.04671
1106.10 0.0467
1106.20 0.04668
1106.30 0.04666
1106.40 0.04665
1106.50 0.04663
1106.60 0.04662
1106.70 0.0466
1106.80 0.04659
1106.90 0.04657
1107.00 0.04656
1107.10 0.04654
1107.20 0.04653
1107.30 0.04651
1107.40 0.0465
1107.50 0.04648
1107.60 0.04646
1107.70 0.04645
1107.80 0.04643
1107.90 0.04642
1108.00 0.0464
1108.10 0.04639
1108.20 0.04637
1108.30 0.04636
1108.40 0.04634
1108.50 0.04632
1108.60 0.04631
1108.70 0.04629
1108.80 0.04628
1108.90 0.04626
1109.00 0.04625
1109.10 0.04623
1109.20 0.04622
1109.30 0.0462
1109.40 0.04618
1109.50 0.04617
1109.60 0.04615
1109.70 0.04614
1109.80 0.04612
1109.90 0.04611
1110.00 0.04609
1110.10 0.04607
1110.20 0.04606
1110.30 0.04604
1110.40 0.04603
1110.50 0.04601
1110.60 0.046
1110.70 0.04598
1110.80 0.04596
1110.90 0.04595
1111.00 0.04593
1111.10 0.04592
1111.20 0.0459
1111.30 0.04589
1111.40 0.04587
1111.50 0.04585
1111.60 0.04584
1111.70 0.04582
1111.80 0.04581
1111.90 0.04579
1112.00 0.04578
1112.10 0.04576
1112.20 0.04574
1112.30 0.04573
1112.40 0.04571
1112.50 0.0457
1112.60 0.04568
1112.70 0.04567
1112.80 0.04565
1112.90 0.04563
1113.00 0.04562
1113.10 0.0456
1113.20 0.04559
1113.30 0.04557
1113.40 0.04556
1113.50 0.04554
1113.60 0.04552
1113.70 0.04551
1113.80 0.04549
1113.90 0.04548
1114.00 0.04546
1114.10 0.04545
1114.20 0.04543
1114.30 0.04541
1114.40 0.0454
1114.50 0.04538
1114.60 0.04537
1114.70 0.04535
1114.80 0.04534
1114.90 0.04532
1115.00 0.0453
1115.10 0.04529
1115.20 0.04527
1115.30 0.04526
1115.40 0.04524
1115.50 0.04523
1115.60 0.04521
1115.70 0.0452
1115.80 0.04518
1115.90 0.04516
1116.00 0.04515
1116.10 0.04513
1116.20 0.04512
1116.30 0.0451
1116.40 0.04509
1116.50 0.04507
1116.60 0.04505
1116.70 0.04504
1116.80 0.04502
1116.90 0.04501
1117.00 0.04499
1117.10 0.04498
1117.20 0.04496
1117.30 0.04495
1117.40 0.04493
1117.50 0.04492
1117.60 0.0449
1117.70 0.04488
1117.80 0.04487
1117.90 0.04485
1118.00 0.04484
1118.10 0.04482
1118.20 0.04481
1118.30 0.04479
1118.40 0.04478
1118.50 0.04476
1118.60 0.04474
1118.70 0.04473
1118.80 0.04471
1118.90 0.0447
1119.00 0.04468
1119.10 0.04467
1119.20 0.04465
1119.30 0.04464
1119.40 0.04462
1119.50 0.04461
1119.60 0.04459
1119.70 0.04457
1119.80 0.04456
1119.90 0.04454
1120.00 0.04453
1120.10 0.04451
1120.20 0.0445
1120.30 0.04448
1120.40 0.04447
1120.50 0.04445
1120.60 0.04444
1120.70 0.04442
1120.80 0.04441
1120.90 0.04439
1121.00 0.04437
1121.10 0.04436
1121.20 0.04434
1121.30 0.04433
1121.40 0.04431
1121.50 0.0443
1121.60 0.04428
1121.70 0.04427
1121.80 0.04425
1121.90 0.04424
1122.00 0.04422
1122.10 0.04421
1122.20 0.04419
1122.30 0.04418
1122.40 0.04416
1122.50 0.04414
1122.60 0.04413
1122.70 0.04411
1122.80 0.0441
1122.90 0.04408
1123.00 0.04407
1123.10 0.04405
1123.20 0.04404
1123.30 0.04402
1123.40 0.04401
1123.50 0.04399
1123.60 0.04398
1123.70 0.04396
1123.80 0.04395
1123.90 0.04393
1124.00 0.04392
1124.10 0.0439
1124.20 0.04389
1124.30 0.04387
1124.40 0.04386
1124.50 0.04384
1124.60 0.04383
1124.70 0.04381
1124.80 0.0438
1124.90 0.04378
1125.00 0.04377
1125.10 0.04375
1125.20 0.04374
1125.30 0.04372
1125.40 0.04371
1125.50 0.04369
1125.60 0.04367
1125.70 0.04366
1125.80 0.04364
1125.90 0.04363
1126.00 0.04361
1126.10 0.0436
1126.20 0.04358
1126.30 0.04357
1126.40 0.04355
1126.50 0.04354
1126.60 0.04352
1126.70 0.04351
1126.80 0.04349
1126.90 0.04348
1127.00 0.04346
1127.10 0.04345
1127.20 0.04343
1127.30 0.04342
1127.40 0.0434
1127.50 0.04339
1127.60 0.04337
1127.70 0.04336
1127.80 0.04334
1127.90 0.04333
1128.00 0.04331
1128.10 0.0433
1128.20 0.04328
1128.30 0.04327
1128.40 0.04326
1128.50 0.04324
1128.60 0.04323
1128.70 0.04321
1128.80 0.0432
1128.90 0.04318
1129.00 0.04317
1129.10 0.04315
1129.20 0.04314
1129.30 0.04312
1129.40 0.04311
1129.50 0.04309
1129.60 0.04308
1129.70 0.04306
1129.80 0.04305
1129.90 0.04303
1130.00 0.04302
1130.10 0.043
1130.20 0.04299
1130.30 0.04297
1130.40 0.04296
1130.50 0.04294
1130.60 0.04293
1130.70 0.04291
1130.80 0.0429
1130.90 0.04288
1131.00 0.04287
1131.10 0.04285
1131.20 0.04284
1131.30 0.04283
1131.40 0.04281
1131.50 0.0428
1131.60 0.04278
1131.70 0.04277
1131.80 0.04275
1131.90 0.04274
1132.00 0.04272
1132.10 0.04271
1132.20 0.04269
1132.30 0.04268
1132.40 0.04266
1132.50 0.04265
1132.60 0.04263
1132.70 0.04262
1132.80 0.04261
1132.90 0.04259
1133.00 0.04258
1133.10 0.04256
1133.20 0.04255
1133.30 0.04253
1133.40 0.04252
1133.50 0.0425
1133.60 0.04249
1133.70 0.04247
1133.80 0.04246
1133.90 0.04244
1134.00 0.04243
1134.10 0.04242
1134.20 0.0424
1134.30 0.04239
1134.40 0.04237
1134.50 0.04236
1134.60 0.04234
1134.70 0.04233
1134.80 0.04231
1134.90 0.0423
1135.00 0.04228
1135.10 0.04227
1135.20 0.04226
1135.30 0.04224
1135.40 0.04223
1135.50 0.04221
1135.60 0.0422
1135.70 0.04218
1135.80 0.04217
1135.90 0.04215
1136.00 0.04214
1136.10 0.04213
1136.20 0.04211
1136.30 0.0421
1136.40 0.04208
1136.50 0.04207
1136.60 0.04205
1136.70 0.04204
1136.80 0.04202
1136.90 0.04201
1137.00 0.042
1137.10 0.04198
1137.20 0.04197
1137.30 0.04195
1137.40 0.04194
1137.50 0.04192
1137.60 0.04191
1137.70 0.0419
1137.80 0.04188
1137.90 0.04187
1138.00 0.04185
1138.10 0.04184
1138.20 0.04182
1138.30 0.04181
1138.40 0.0418
1138.50 0.04178
1138.60 0.04177
1138.70 0.04175
1138.80 0.04174
1138.90 0.04172
1139.00 0.04171
1139.10 0.0417
1139.20 0.04168
1139.30 0.04167
1139.40 0.04165
1139.50 0.04164
1139.60 0.04162
1139.70 0.04161
1139.80 0.0416
1139.90 0.04158
1140.00 0.04157
1140.10 0.04155
1140.20 0.04154
1140.30 0.04152
1140.40 0.04151
1140.50 0.0415
1140.60 0.04148
1140.70 0.04147
1140.80 0.04145
1140.90 0.04144
1141.00 0.04143
1141.10 0.04141
1141.20 0.0414
1141.30 0.04138
1141.40 0.04137
1141.50 0.04135
1141.60 0.04134
1141.70 0.04133
1141.80 0.04131
1141.90 0.0413
1142.00 0.04128
1142.10 0.04127
1142.20 0.04126
1142.30 0.04124
1142.40 0.04123
1142.50 0.04121
1142.60 0.0412
1142.70 0.04119
1142.80 0.04117
1142.90 0.04116
1143.00 0.04114
1143.10 0.04113
1143.20 0.04112
1143.30 0.0411
1143.40 0.04109
1143.50 0.04107
1143.60 0.04106
1143.70 0.04105
1143.80 0.04103
1143.90 0.04102
1144.00 0.041
1144.10 0.04099
1144.20 0.04098
1144.30 0.04096
1144.40 0.04095
1144.50 0.04093
1144.60 0.04092
1144.70 0.04091
1144.80 0.04089
1144.90 0.04088
1145.00 0.04086
1145.10 0.04085
1145.20 0.04084
1145.30 0.04082
1145.40 0.04081
1145.50 0.0408
1145.60 0.04078
1145.70 0.04077
1145.80 0.04075
1145.90 0.04074
1146.00 0.04073
1146.10 0.04071
1146.20 0.0407
1146.30 0.04068
1146.40 0.04067
1146.50 0.04066
1146.60 0.04064
1146.70 0.04063
1146.80 0.04061
1146.90 0.0406
1147.00 0.04059
1147.10 0.04057
1147.20 0.04056
1147.30 0.04055
1147.40 0.04053
1147.50 0.04052
1147.60 0.0405
1147.70 0.04049
1147.80 0.04048
1147.90 0.04046
1148.00 0.04045
1148.10 0.04044
1148.20 0.04042
1148.30 0.04041
1148.40 0.0404
1148.50 0.04038
1148.60 0.04037
1148.70 0.04035
1148.80 0.04034
1148.90 0.04033
1149.00 0.04031
1149.10 0.0403
1149.20 0.04029
1149.30 0.04027
1149.40 0.04026
1149.50 0.04024
1149.60 0.04023
1149.70 0.04022
1149.80 0.0402
1149.90 0.04019
1150.00 0.04018
1150.10 0.04016
1150.20 0.04015
1150.30 0.04014
1150.40 0.04012
1150.50 0.04011
1150.60 0.0401
1150.70 0.04008
1150.80 0.04007
1150.90 0.04005
1151.00 0.04004
1151.10 0.04003
1151.20 0.04001
1151.30 0.04
1151.40 0.03999
1151.50 0.03997
1151.60 0.03996
1151.70 0.03995
1151.80 0.03993
1151.90 0.03992
1152.00 0.03991
1152.10 0.03989
1152.20 0.03988
1152.30 0.03986
1152.40 0.03985
1152.50 0.03984
1152.60 0.03982
1152.70 0.03981
1152.80 0.0398
1152.90 0.03978
1153.00 0.03977
1153.10 0.03976
1153.20 0.03974
1153.30 0.03973
1153.40 0.03972
1153.50 0.0397
1153.60 0.03969
1153.70 0.03968
1153.80 0.03966
1153.90 0.03965
1154.00 0.03964
1154.10 0.03962
1154.20 0.03961
1154.30 0.0396
1154.40 0.03958
1154.50 0.03957
1154.60 0.03956
1154.70 0.03954
1154.80 0.03953
1154.90 0.03952
1155.00 0.0395
1155.10 0.03949
1155.20 0.03948
1155.30 0.03946
1155.40 0.03945
1155.50 0.03944
1155.60 0.03942
1155.70 0.03941
1155.80 0.0394
1155.90 0.03938
1156.00 0.03937
1156.10 0.03936
1156.20 0.03934
1156.30 0.03933
1156.40 0.03932
1156.50 0.0393
1156.60 0.03929
1156.70 0.03928
1156.80 0.03926
1156.90 0.03925
1157.00 0.03924
1157.10 0.03922
1157.20 0.03921
1157.30 0.0392
1157.40 0.03918
1157.50 0.03917
1157.60 0.03916
1157.70 0.03915
1157.80 0.03913
1157.90 0.03912
1158.00 0.03911
1158.10 0.03909
1158.20 0.03908
1158.30 0.03907
1158.40 0.03905
1158.50 0.03904
1158.60 0.03903
1158.70 0.03901
1158.80 0.039
1158.90 0.03899
1159.00 0.03897
1159.10 0.03896
1159.20 0.03895
1159.30 0.03894
1159.40 0.03892
1159.50 0.03891
1159.60 0.0389
1159.70 0.03888
1159.80 0.03887
1159.90 0.03886
1160.00 0.03884
1160.10 0.03883
1160.20 0.03882
1160.30 0.0388
1160.40 0.03879
1160.50 0.03878
1160.60 0.03877
1160.70 0.03875
1160.80 0.03874
1160.90 0.03873
1161.00 0.03871
1161.10 0.0387
1161.20 0.03869
1161.30 0.03867
1161.40 0.03866
1161.50 0.03865
1161.60 0.03864
1161.70 0.03862
1161.80 0.03861
1161.90 0.0386
1162.00 0.03858
1162.10 0.03857
1162.20 0.03856
1162.30 0.03854
1162.40 0.03853
1162.50 0.03852
1162.60 0.03851
1162.70 0.03849
1162.80 0.03848
1162.90 0.03847
1163.00 0.03845
1163.10 0.03844
1163.20 0.03843
1163.30 0.03842
1163.40 0.0384
1163.50 0.03839
1163.60 0.03838
1163.70 0.03836
1163.80 0.03835
1163.90 0.03834
1164.00 0.03833
1164.10 0.03831
1164.20 0.0383
1164.30 0.03829
1164.40 0.03827
1164.50 0.03826
1164.60 0.03825
1164.70 0.03824
1164.80 0.03822
1164.90 0.03821
1165.00 0.0382
1165.10 0.03819
1165.20 0.03817
1165.30 0.03816
1165.40 0.03815
1165.50 0.03813
1165.60 0.03812
1165.70 0.03811
1165.80 0.0381
1165.90 0.03808
1166.00 0.03807
1166.10 0.03806
1166.20 0.03804
1166.30 0.03803
1166.40 0.03802
1166.50 0.03801
1166.60 0.03799
1166.70 0.03798
1166.80 0.03797
1166.90 0.03796
1167.00 0.03794
1167.10 0.03793
1167.20 0.03792
1167.30 0.03791
1167.40 0.03789
1167.50 0.03788
1167.60 0.03787
1167.70 0.03785
1167.80 0.03784
1167.90 0.03783
1168.00 0.03782
1168.10 0.0378
1168.20 0.03779
1168.30 0.03778
1168.40 0.03777
1168.50 0.03775
1168.60 0.03774
1168.70 0.03773
1168.80 0.03772
1168.90 0.0377
1169.00 0.03769
1169.10 0.03768
1169.20 0.03767
1169.30 0.03765
1169.40 0.03764
1169.50 0.03763
1169.60 0.03762
1169.70 0.0376
1169.80 0.03759
1169.90 0.03758
1170.00 0.03757
1170.10 0.03755
1170.20 0.03754
1170.30 0.03753
1170.40 0.03752
1170.50 0.0375
1170.60 0.03749
1170.70 0.03748
1170.80 0.03747
1170.90 0.03745
1171.00 0.03744
1171.10 0.03743
1171.20 0.03742
1171.30 0.0374
1171.40 0.03739
1171.50 0.03738
1171.60 0.03737
1171.70 0.03735
1171.80 0.03734
1171.90 0.03733
1172.00 0.03732
1172.10 0.0373
1172.20 0.03729
1172.30 0.03728
1172.40 0.03727
1172.50 0.03725
1172.60 0.03724
1172.70 0.03723
1172.80 0.03722
1172.90 0.0372
1173.00 0.03719
1173.10 0.03718
1173.20 0.03717
1173.30 0.03716
1173.40 0.03714
1173.50 0.03713
1173.60 0.03712
1173.70 0.03711
1173.80 0.03709
1173.90 0.03708
1174.00 0.03707
1174.10 0.03706
1174.20 0.03704
1174.30 0.03703
1174.40 0.03702
1174.50 0.03701
1174.60 0.037
1174.70 0.03698
1174.80 0.03697
1174.90 0.03696
1175.00 0.03695
1175.10 0.03693
1175.20 0.03692
1175.30 0.03691
1175.40 0.0369
1175.50 0.03688
1175.60 0.03687
1175.70 0.03686
1175.80 0.03685
1175.90 0.03684
1176.00 0.03682
1176.10 0.03681
1176.20 0.0368
1176.30 0.03679
1176.40 0.03677
1176.50 0.03676
1176.60 0.03675
1176.70 0.03674
1176.80 0.03673
1176.90 0.03671
1177.00 0.0367
1177.10 0.03669
1177.20 0.03668
1177.30 0.03667
1177.40 0.03665
1177.50 0.03664
1177.60 0.03663
1177.70 0.03662
1177.80 0.0366
1177.90 0.03659
1178.00 0.03658
1178.10 0.03657
1178.20 0.03656
1178.30 0.03654
1178.40 0.03653
1178.50 0.03652
1178.60 0.03651
1178.70 0.0365
1178.80 0.03648
1178.90 0.03647
1179.00 0.03646
1179.10 0.03645
1179.20 0.03644
1179.30 0.03642
1179.40 0.03641
1179.50 0.0364
1179.60 0.03639
1179.70 0.03638
1179.80 0.03636
1179.90 0.03635
1180.00 0.03634
1180.10 0.03633
1180.20 0.03632
1180.30 0.0363
1180.40 0.03629
1180.50 0.03628
1180.60 0.03627
1180.70 0.03626
1180.80 0.03624
1180.90 0.03623
1181.00 0.03622
1181.10 0.03621
1181.20 0.0362
1181.30 0.03618
1181.40 0.03617
1181.50 0.03616
1181.60 0.03615
1181.70 0.03614
1181.80 0.03612
1181.90 0.03611
1182.00 0.0361
1182.10 0.03609
1182.20 0.03608
1182.30 0.03606
1182.40 0.03605
1182.50 0.03604
1182.60 0.03603
1182.70 0.03602
1182.80 0.03601
1182.90 0.03599
1183.00 0.03598
1183.10 0.03597
1183.20 0.03596
1183.30 0.03595
1183.40 0.03593
1183.50 0.03592
1183.60 0.03591
1183.70 0.0359
1183.80 0.03589
1183.90 0.03587
1184.00 0.03586
1184.10 0.03585
1184.20 0.03584
1184.30 0.03583
1184.40 0.03582
1184.50 0.0358
1184.60 0.03579
1184.70 0.03578
1184.80 0.03577
1184.90 0.03576
1185.00 0.03575
1185.10 0.03573
1185.20 0.03572
1185.30 0.03571
1185.40 0.0357
1185.50 0.03569
1185.60 0.03567
1185.70 0.03566
1185.80 0.03565
1185.90 0.03564
1186.00 0.03563
1186.10 0.03562
1186.20 0.0356
1186.30 0.03559
1186.40 0.03558
1186.50 0.03557
1186.60 0.03556
1186.70 0.03555
1186.80 0.03553
1186.90 0.03552
1187.00 0.03551
1187.10 0.0355
1187.20 0.03549
1187.30 0.03548
1187.40 0.03546
1187.50 0.03545
1187.60 0.03544
1187.70 0.03543
1187.80 0.03542
1187.90 0.03541
1188.00 0.03539
1188.10 0.03538
1188.20 0.03537
1188.30 0.03536
1188.40 0.03535
1188.50 0.03534
1188.60 0.03532
1188.70 0.03531
1188.80 0.0353
1188.90 0.03529
1189.00 0.03528
1189.10 0.03527
1189.20 0.03526
1189.30 0.03524
1189.40 0.03523
1189.50 0.03522
1189.60 0.03521
1189.70 0.0352
1189.80 0.03519
1189.90 0.03517
1190.00 0.03516
1190.10 0.03515
1190.20 0.03514
1190.30 0.03513
1190.40 0.03512
1190.50 0.03511
1190.60 0.03509
1190.70 0.03508
1190.80 0.03507
1190.90 0.03506
1191.00 0.03505
1191.10 0.03504
1191.20 0.03503
1191.30 0.03501
1191.40 0.035
1191.50 0.03499
1191.60 0.03498
1191.70 0.03497
1191.80 0.03496
1191.90 0.03494
1192.00 0.03493
1192.10 0.03492
1192.20 0.03491
1192.30 0.0349
1192.40 0.03489
1192.50 0.03488
1192.60 0.03486
1192.70 0.03485
1192.80 0.03484
1192.90 0.03483
1193.00 0.03482
1193.10 0.03481
1193.20 0.0348
1193.30 0.03479
1193.40 0.03477
1193.50 0.03476
1193.60 0.03475
1193.70 0.03474
1193.80 0.03473
1193.90 0.03472
1194.00 0.03471
1194.10 0.03469
1194.20 0.03468
1194.30 0.03467
1194.40 0.03466
1194.50 0.03465
1194.60 0.03464
1194.70 0.03463
1194.80 0.03462
1194.90 0.0346
1195.00 0.03459
1195.10 0.03458
1195.20 0.03457
1195.30 0.03456
1195.40 0.03455
1195.50 0.03454
1195.60 0.03453
1195.70 0.03451
1195.80 0.0345
1195.90 0.03449
1196.00 0.03448
1196.10 0.03447
1196.20 0.03446
1196.30 0.03445
1196.40 0.03444
1196.50 0.03442
1196.60 0.03441
1196.70 0.0344
1196.80 0.03439
1196.90 0.03438
1197.00 0.03437
1197.10 0.03436
1197.20 0.03435
1197.30 0.03433
1197.40 0.03432
1197.50 0.03431
1197.60 0.0343
1197.70 0.03429
1197.80 0.03428
1197.90 0.03427
1198.00 0.03426
1198.10 0.03424
1198.20 0.03423
1198.30 0.03422
1198.40 0.03421
1198.50 0.0342
1198.60 0.03419
1198.70 0.03418
1198.80 0.03417
1198.90 0.03416
1199.00 0.03414
1199.10 0.03413
1199.20 0.03412
1199.30 0.03411
1199.40 0.0341
1199.50 0.03409
1199.60 0.03408
1199.70 0.03407
1199.80 0.03406
1199.90 0.03405
1200.00 0
