# Version 2.1 - nm, norm@500 to 1, cut digits, bergeron_90000_85.dat_90000
# Wavelength(nm)  Flambda(ergs/cm^s/s/nm)
300.00 6.769
300.10 6.76
300.20 6.752
300.30 6.743
300.40 6.735
300.50 6.727
300.60 6.718
300.70 6.71
300.80 6.701
300.90 6.693
301.00 6.685
301.10 6.676
301.20 6.668
301.30 6.66
301.40 6.651
301.50 6.643
301.60 6.635
301.70 6.627
301.80 6.618
301.90 6.61
302.00 6.602
302.10 6.594
302.20 6.586
302.30 6.577
302.40 6.569
302.50 6.561
302.60 6.553
302.70 6.545
302.80 6.537
302.90 6.529
303.00 6.521
303.10 6.513
303.20 6.504
303.30 6.496
303.40 6.488
303.50 6.48
303.60 6.472
303.70 6.464
303.80 6.456
303.90 6.448
304.00 6.44
304.10 6.432
304.20 6.425
304.30 6.417
304.40 6.409
304.50 6.401
304.60 6.393
304.70 6.385
304.80 6.377
304.90 6.369
305.00 6.362
305.10 6.354
305.20 6.346
305.30 6.338
305.40 6.33
305.50 6.323
305.60 6.315
305.70 6.307
305.80 6.299
305.90 6.291
306.00 6.284
306.10 6.276
306.20 6.268
306.30 6.261
306.40 6.253
306.50 6.245
306.60 6.238
306.70 6.23
306.80 6.222
306.90 6.215
307.00 6.207
307.10 6.2
307.20 6.192
307.30 6.185
307.40 6.177
307.50 6.169
307.60 6.162
307.70 6.154
307.80 6.147
307.90 6.139
308.00 6.132
308.10 6.124
308.20 6.117
308.30 6.109
308.40 6.102
308.50 6.095
308.60 6.087
308.70 6.08
308.80 6.072
308.90 6.065
309.00 6.058
309.10 6.05
309.20 6.043
309.30 6.036
309.40 6.028
309.50 6.021
309.60 6.014
309.70 6.006
309.80 5.999
309.90 5.992
310.00 5.985
310.10 5.977
310.20 5.97
310.30 5.963
310.40 5.956
310.50 5.948
310.60 5.941
310.70 5.934
310.80 5.927
310.90 5.92
311.00 5.913
311.10 5.905
311.20 5.898
311.30 5.891
311.40 5.884
311.50 5.877
311.60 5.87
311.70 5.863
311.80 5.856
311.90 5.849
312.00 5.842
312.10 5.835
312.20 5.828
312.30 5.821
312.40 5.814
312.50 5.807
312.60 5.8
312.70 5.793
312.80 5.786
312.90 5.779
313.00 5.772
313.10 5.765
313.20 5.758
313.30 5.751
313.40 5.744
313.50 5.737
313.60 5.73
313.70 5.723
313.80 5.717
313.90 5.71
314.00 5.703
314.10 5.696
314.20 5.689
314.30 5.682
314.40 5.676
314.50 5.669
314.60 5.662
314.70 5.655
314.80 5.649
314.90 5.642
315.00 5.635
315.10 5.628
315.20 5.622
315.30 5.615
315.40 5.608
315.50 5.602
315.60 5.595
315.70 5.588
315.80 5.582
315.90 5.575
316.00 5.568
316.10 5.562
316.20 5.555
316.30 5.549
316.40 5.542
316.50 5.535
316.60 5.529
316.70 5.522
316.80 5.516
316.90 5.509
317.00 5.503
317.10 5.496
317.20 5.49
317.30 5.483
317.40 5.477
317.50 5.47
317.60 5.464
317.70 5.457
317.80 5.451
317.90 5.444
318.00 5.438
318.10 5.431
318.20 5.425
318.30 5.419
318.40 5.412
318.50 5.406
318.60 5.399
318.70 5.393
318.80 5.387
318.90 5.38
319.00 5.374
319.10 5.368
319.20 5.361
319.30 5.355
319.40 5.349
319.50 5.342
319.60 5.336
319.70 5.33
319.80 5.323
319.90 5.317
320.00 5.311
320.10 5.305
320.20 5.298
320.30 5.292
320.40 5.286
320.50 5.28
320.60 5.274
320.70 5.267
320.80 5.261
320.90 5.255
321.00 5.249
321.10 5.243
321.20 5.237
321.30 5.231
321.40 5.224
321.50 5.218
321.60 5.212
321.70 5.206
321.80 5.2
321.90 5.194
322.00 5.188
322.10 5.182
322.20 5.176
322.30 5.17
322.40 5.164
322.50 5.158
322.60 5.152
322.70 5.146
322.80 5.14
322.90 5.134
323.00 5.128
323.10 5.122
323.20 5.116
323.30 5.11
323.40 5.104
323.50 5.098
323.60 5.092
323.70 5.086
323.80 5.08
323.90 5.074
324.00 5.068
324.10 5.062
324.20 5.057
324.30 5.051
324.40 5.045
324.50 5.039
324.60 5.033
324.70 5.027
324.80 5.021
324.90 5.016
325.00 5.01
325.10 5.004
325.20 4.998
325.30 4.992
325.40 4.987
325.50 4.981
325.60 4.975
325.70 4.969
325.80 4.964
325.90 4.958
326.00 4.952
326.10 4.946
326.20 4.941
326.30 4.935
326.40 4.929
326.50 4.924
326.60 4.918
326.70 4.912
326.80 4.907
326.90 4.901
327.00 4.895
327.10 4.89
327.20 4.884
327.30 4.879
327.40 4.873
327.50 4.867
327.60 4.862
327.70 4.856
327.80 4.851
327.90 4.845
328.00 4.839
328.10 4.834
328.20 4.828
328.30 4.823
328.40 4.817
328.50 4.812
328.60 4.806
328.70 4.801
328.80 4.795
328.90 4.79
329.00 4.784
329.10 4.779
329.20 4.773
329.30 4.768
329.40 4.762
329.50 4.757
329.60 4.751
329.70 4.746
329.80 4.741
329.90 4.735
330.00 4.73
330.10 4.724
330.20 4.719
330.30 4.714
330.40 4.708
330.50 4.703
330.60 4.698
330.70 4.692
330.80 4.687
330.90 4.682
331.00 4.676
331.10 4.671
331.20 4.666
331.30 4.66
331.40 4.655
331.50 4.65
331.60 4.644
331.70 4.639
331.80 4.634
331.90 4.629
332.00 4.623
332.10 4.618
332.20 4.613
332.30 4.608
332.40 4.602
332.50 4.597
332.60 4.592
332.70 4.587
332.80 4.582
332.90 4.576
333.00 4.571
333.10 4.566
333.20 4.561
333.30 4.556
333.40 4.551
333.50 4.545
333.60 4.54
333.70 4.535
333.80 4.53
333.90 4.525
334.00 4.52
334.10 4.515
334.20 4.51
334.30 4.505
334.40 4.5
334.50 4.494
334.60 4.489
334.70 4.484
334.80 4.479
334.90 4.474
335.00 4.469
335.10 4.464
335.20 4.459
335.30 4.454
335.40 4.449
335.50 4.444
335.60 4.439
335.70 4.434
335.80 4.429
335.90 4.424
336.00 4.419
336.10 4.414
336.20 4.409
336.30 4.404
336.40 4.399
336.50 4.395
336.60 4.39
336.70 4.385
336.80 4.38
336.90 4.375
337.00 4.37
337.10 4.365
337.20 4.36
337.30 4.355
337.40 4.351
337.50 4.346
337.60 4.341
337.70 4.336
337.80 4.331
337.90 4.326
338.00 4.321
338.10 4.317
338.20 4.312
338.30 4.307
338.40 4.302
338.50 4.297
338.60 4.293
338.70 4.288
338.80 4.283
338.90 4.278
339.00 4.274
339.10 4.269
339.20 4.264
339.30 4.259
339.40 4.255
339.50 4.25
339.60 4.245
339.70 4.24
339.80 4.236
339.90 4.231
340.00 4.226
340.10 4.222
340.20 4.217
340.30 4.212
340.40 4.208
340.50 4.203
340.60 4.198
340.70 4.194
340.80 4.189
340.90 4.184
341.00 4.18
341.10 4.175
341.20 4.171
341.30 4.166
341.40 4.161
341.50 4.157
341.60 4.152
341.70 4.147
341.80 4.143
341.90 4.138
342.00 4.134
342.10 4.129
342.20 4.125
342.30 4.12
342.40 4.116
342.50 4.111
342.60 4.107
342.70 4.102
342.80 4.098
342.90 4.093
343.00 4.089
343.10 4.084
343.20 4.08
343.30 4.075
343.40 4.071
343.50 4.066
343.60 4.062
343.70 4.057
343.80 4.053
343.90 4.048
344.00 4.044
344.10 4.039
344.20 4.035
344.30 4.031
344.40 4.026
344.50 4.022
344.60 4.017
344.70 4.013
344.80 4.009
344.90 4.004
345.00 4
345.10 3.995
345.20 3.991
345.30 3.987
345.40 3.982
345.50 3.978
345.60 3.974
345.70 3.969
345.80 3.965
345.90 3.961
346.00 3.956
346.10 3.952
346.20 3.948
346.30 3.943
346.40 3.939
346.50 3.935
346.60 3.93
346.70 3.926
346.80 3.922
346.90 3.918
347.00 3.913
347.10 3.909
347.20 3.905
347.30 3.901
347.40 3.896
347.50 3.892
347.60 3.888
347.70 3.884
347.80 3.879
347.90 3.875
348.00 3.871
348.10 3.867
348.20 3.863
348.30 3.858
348.40 3.854
348.50 3.85
348.60 3.846
348.70 3.842
348.80 3.838
348.90 3.834
349.00 3.829
349.10 3.825
349.20 3.821
349.30 3.817
349.40 3.813
349.50 3.809
349.60 3.805
349.70 3.8
349.80 3.796
349.90 3.792
350.00 3.788
350.10 3.784
350.20 3.78
350.30 3.776
350.40 3.772
350.50 3.768
350.60 3.764
350.70 3.76
350.80 3.756
350.90 3.752
351.00 3.748
351.10 3.744
351.20 3.74
351.30 3.735
351.40 3.731
351.50 3.727
351.60 3.723
351.70 3.719
351.80 3.715
351.90 3.711
352.00 3.707
352.10 3.703
352.20 3.7
352.30 3.696
352.40 3.692
352.50 3.688
352.60 3.684
352.70 3.68
352.80 3.676
352.90 3.672
353.00 3.668
353.10 3.664
353.20 3.66
353.30 3.656
353.40 3.652
353.50 3.648
353.60 3.644
353.70 3.641
353.80 3.637
353.90 3.633
354.00 3.629
354.10 3.625
354.20 3.621
354.30 3.617
354.40 3.613
354.50 3.61
354.60 3.606
354.70 3.602
354.80 3.598
354.90 3.594
355.00 3.59
355.10 3.587
355.20 3.583
355.30 3.579
355.40 3.575
355.50 3.571
355.60 3.568
355.70 3.564
355.80 3.56
355.90 3.556
356.00 3.552
356.10 3.549
356.20 3.545
356.30 3.541
356.40 3.537
356.50 3.534
356.60 3.53
356.70 3.526
356.80 3.522
356.90 3.519
357.00 3.515
357.10 3.511
357.20 3.508
357.30 3.504
357.40 3.5
357.50 3.496
357.60 3.493
357.70 3.489
357.80 3.485
357.90 3.482
358.00 3.478
358.10 3.474
358.20 3.471
358.30 3.467
358.40 3.463
358.50 3.46
358.60 3.456
358.70 3.452
358.80 3.449
358.90 3.445
359.00 3.442
359.10 3.438
359.20 3.434
359.30 3.431
359.40 3.427
359.50 3.423
359.60 3.42
359.70 3.416
359.80 3.413
359.90 3.409
360.00 3.405
360.10 3.402
360.20 3.398
360.30 3.395
360.40 3.391
360.50 3.388
360.60 3.384
360.70 3.381
360.80 3.377
360.90 3.374
361.00 3.37
361.10 3.366
361.20 3.363
361.30 3.359
361.40 3.356
361.50 3.352
361.60 3.349
361.70 3.345
361.80 3.342
361.90 3.338
362.00 3.335
362.10 3.331
362.20 3.328
362.30 3.324
362.40 3.321
362.50 3.317
362.60 3.314
362.70 3.311
362.80 3.307
362.90 3.304
363.00 3.3
363.10 3.297
363.20 3.293
363.30 3.29
363.40 3.287
363.50 3.283
363.60 3.28
363.70 3.276
363.80 3.273
363.90 3.269
364.00 3.266
364.10 3.263
364.20 3.259
364.30 3.256
364.40 3.253
364.50 3.249
364.60 3.246
364.70 3.242
364.80 3.239
364.90 3.236
365.00 3.232
365.10 3.229
365.20 3.226
365.30 3.222
365.40 3.219
365.50 3.216
365.60 3.212
365.70 3.209
365.80 3.206
365.90 3.202
366.00 3.199
366.10 3.196
366.20 3.192
366.30 3.189
366.40 3.186
366.50 3.182
366.60 3.179
366.70 3.176
366.80 3.173
366.90 3.169
367.00 3.166
367.10 3.163
367.20 3.159
367.30 3.156
367.40 3.153
367.50 3.149
367.60 3.146
367.70 3.143
367.80 3.14
367.90 3.136
368.00 3.133
368.10 3.13
368.20 3.127
368.30 3.123
368.40 3.12
368.50 3.117
368.60 3.113
368.70 3.11
368.80 3.107
368.90 3.104
369.00 3.1
369.10 3.097
369.20 3.094
369.30 3.091
369.40 3.087
369.50 3.084
369.60 3.081
369.70 3.078
369.80 3.074
369.90 3.071
370.00 3.068
370.10 3.065
370.20 3.062
370.30 3.058
370.40 3.055
370.50 3.052
370.60 3.049
370.70 3.046
370.80 3.043
370.90 3.039
371.00 3.036
371.10 3.033
371.20 3.03
371.30 3.027
371.40 3.024
371.50 3.02
371.60 3.017
371.70 3.014
371.80 3.011
371.90 3.008
372.00 3.005
372.10 3.002
372.20 2.999
372.30 2.996
372.40 2.993
372.50 2.99
372.60 2.987
372.70 2.983
372.80 2.98
372.90 2.977
373.00 2.974
373.10 2.971
373.20 2.968
373.30 2.965
373.40 2.962
373.50 2.959
373.60 2.956
373.70 2.953
373.80 2.95
373.90 2.947
374.00 2.944
374.10 2.941
374.20 2.938
374.30 2.935
374.40 2.932
374.50 2.929
374.60 2.926
374.70 2.923
374.80 2.92
374.90 2.917
375.00 2.914
375.10 2.911
375.20 2.908
375.30 2.905
375.40 2.902
375.50 2.899
375.60 2.896
375.70 2.893
375.80 2.89
375.90 2.887
376.00 2.884
376.10 2.881
376.20 2.878
376.30 2.875
376.40 2.872
376.50 2.869
376.60 2.867
376.70 2.864
376.80 2.861
376.90 2.858
377.00 2.855
377.10 2.852
377.20 2.849
377.30 2.846
377.40 2.843
377.50 2.84
377.60 2.838
377.70 2.835
377.80 2.832
377.90 2.829
378.00 2.826
378.10 2.823
378.20 2.82
378.30 2.818
378.40 2.815
378.50 2.812
378.60 2.809
378.70 2.806
378.80 2.804
378.90 2.801
379.00 2.798
379.10 2.795
379.20 2.792
379.30 2.79
379.40 2.787
379.50 2.784
379.60 2.781
379.70 2.778
379.80 2.776
379.90 2.773
380.00 2.77
380.10 2.767
380.20 2.765
380.30 2.762
380.40 2.759
380.50 2.757
380.60 2.754
380.70 2.751
380.80 2.748
380.90 2.746
381.00 2.743
381.10 2.74
381.20 2.738
381.30 2.735
381.40 2.732
381.50 2.729
381.60 2.727
381.70 2.724
381.80 2.721
381.90 2.719
382.00 2.716
382.10 2.713
382.20 2.711
382.30 2.708
382.40 2.706
382.50 2.703
382.60 2.7
382.70 2.698
382.80 2.695
382.90 2.692
383.00 2.69
383.10 2.687
383.20 2.685
383.30 2.682
383.40 2.679
383.50 2.677
383.60 2.674
383.70 2.672
383.80 2.669
383.90 2.667
384.00 2.664
384.10 2.662
384.20 2.659
384.30 2.657
384.40 2.654
384.50 2.652
384.60 2.649
384.70 2.647
384.80 2.644
384.90 2.642
385.00 2.639
385.10 2.637
385.20 2.634
385.30 2.632
385.40 2.629
385.50 2.627
385.60 2.624
385.70 2.622
385.80 2.619
385.90 2.617
386.00 2.614
386.10 2.612
386.20 2.609
386.30 2.606
386.40 2.604
386.50 2.601
386.60 2.599
386.70 2.596
386.80 2.594
386.90 2.591
387.00 2.589
387.10 2.586
387.20 2.584
387.30 2.581
387.40 2.579
387.50 2.576
387.60 2.573
387.70 2.571
387.80 2.568
387.90 2.566
388.00 2.563
388.10 2.561
388.20 2.558
388.30 2.556
388.40 2.553
388.50 2.551
388.60 2.549
388.70 2.546
388.80 2.544
388.90 2.542
389.00 2.539
389.10 2.537
389.20 2.535
389.30 2.533
389.40 2.53
389.50 2.528
389.60 2.526
389.70 2.524
389.80 2.522
389.90 2.52
390.00 2.517
390.10 2.515
390.20 2.513
390.30 2.511
390.40 2.509
390.50 2.507
390.60 2.505
390.70 2.502
390.80 2.5
390.90 2.498
391.00 2.496
391.10 2.494
391.20 2.492
391.30 2.489
391.40 2.487
391.50 2.485
391.60 2.483
391.70 2.48
391.80 2.478
391.90 2.476
392.00 2.473
392.10 2.471
392.20 2.469
392.30 2.466
392.40 2.464
392.50 2.462
392.60 2.459
392.70 2.457
392.80 2.454
392.90 2.452
393.00 2.449
393.10 2.447
393.20 2.444
393.30 2.442
393.40 2.439
393.50 2.436
393.60 2.434
393.70 2.431
393.80 2.429
393.90 2.426
394.00 2.423
394.10 2.421
394.20 2.418
394.30 2.415
394.40 2.412
394.50 2.41
394.60 2.407
394.70 2.404
394.80 2.401
394.90 2.398
395.00 2.395
395.10 2.392
395.20 2.39
395.30 2.387
395.40 2.384
395.50 2.381
395.60 2.378
395.70 2.375
395.80 2.372
395.90 2.369
396.00 2.366
396.10 2.363
396.20 2.36
396.30 2.358
396.40 2.355
396.50 2.352
396.60 2.349
396.70 2.346
396.80 2.344
396.90 2.341
397.00 2.339
397.10 2.337
397.20 2.336
397.30 2.334
397.40 2.333
397.50 2.331
397.60 2.33
397.70 2.329
397.80 2.327
397.90 2.326
398.00 2.325
398.10 2.324
398.20 2.323
398.30 2.321
398.40 2.32
398.50 2.319
398.60 2.318
398.70 2.317
398.80 2.315
398.90 2.314
399.00 2.313
399.10 2.312
399.20 2.31
399.30 2.309
399.40 2.308
399.50 2.306
399.60 2.305
399.70 2.303
399.80 2.302
399.90 2.301
400.00 2.299
400.10 2.298
400.20 2.296
400.30 2.295
400.40 2.293
400.50 2.292
400.60 2.29
400.70 2.288
400.80 2.287
400.90 2.285
401.00 2.283
401.10 2.282
401.20 2.28
401.30 2.278
401.40 2.276
401.50 2.275
401.60 2.273
401.70 2.271
401.80 2.269
401.90 2.267
402.00 2.265
402.10 2.263
402.20 2.261
402.30 2.259
402.40 2.257
402.50 2.255
402.60 2.253
402.70 2.251
402.80 2.249
402.90 2.247
403.00 2.245
403.10 2.243
403.20 2.241
403.30 2.238
403.40 2.236
403.50 2.234
403.60 2.232
403.70 2.229
403.80 2.227
403.90 2.225
404.00 2.222
404.10 2.22
404.20 2.217
404.30 2.215
404.40 2.212
404.50 2.21
404.60 2.207
404.70 2.205
404.80 2.202
404.90 2.199
405.00 2.197
405.10 2.194
405.20 2.191
405.30 2.188
405.40 2.186
405.50 2.183
405.60 2.18
405.70 2.177
405.80 2.174
405.90 2.171
406.00 2.168
406.10 2.165
406.20 2.162
406.30 2.159
406.40 2.156
406.50 2.152
406.60 2.149
406.70 2.146
406.80 2.142
406.90 2.139
407.00 2.136
407.10 2.132
407.20 2.129
407.30 2.125
407.40 2.121
407.50 2.118
407.60 2.114
407.70 2.11
407.80 2.107
407.90 2.103
408.00 2.099
408.10 2.095
408.20 2.091
408.30 2.087
408.40 2.083
408.50 2.079
408.60 2.075
408.70 2.071
408.80 2.067
408.90 2.063
409.00 2.059
409.10 2.055
409.20 2.051
409.30 2.047
409.40 2.044
409.50 2.04
409.60 2.037
409.70 2.034
409.80 2.032
409.90 2.03
410.00 2.029
410.10 2.028
410.20 2.027
410.30 2.024
410.40 2.021
410.50 2.019
410.60 2.018
410.70 2.017
410.80 2.016
410.90 2.016
411.00 2.016
411.10 2.016
411.20 2.017
411.30 2.017
411.40 2.017
411.50 2.018
411.60 2.018
411.70 2.018
411.80 2.019
411.90 2.019
412.00 2.019
412.10 2.02
412.20 2.02
412.30 2.02
412.40 2.02
412.50 2.02
412.60 2.02
412.70 2.02
412.80 2.02
412.90 2.02
413.00 2.02
413.10 2.02
413.20 2.02
413.30 2.02
413.40 2.02
413.50 2.019
413.60 2.019
413.70 2.018
413.80 2.018
413.90 2.018
414.00 2.017
414.10 2.016
414.20 2.016
414.30 2.015
414.40 2.015
414.50 2.014
414.60 2.013
414.70 2.012
414.80 2.012
414.90 2.011
415.00 2.01
415.10 2.009
415.20 2.008
415.30 2.007
415.40 2.006
415.50 2.005
415.60 2.004
415.70 2.003
415.80 2.002
415.90 2.001
416.00 2
416.10 1.999
416.20 1.998
416.30 1.996
416.40 1.995
416.50 1.994
416.60 1.993
416.70 1.991
416.80 1.99
416.90 1.989
417.00 1.988
417.10 1.986
417.20 1.985
417.30 1.984
417.40 1.982
417.50 1.981
417.60 1.979
417.70 1.978
417.80 1.977
417.90 1.975
418.00 1.974
418.10 1.972
418.20 1.971
418.30 1.969
418.40 1.968
418.50 1.966
418.60 1.965
418.70 1.963
418.80 1.962
418.90 1.96
419.00 1.959
419.10 1.957
419.20 1.956
419.30 1.954
419.40 1.952
419.50 1.951
419.60 1.949
419.70 1.948
419.80 1.946
419.90 1.944
420.00 1.943
420.10 1.941
420.20 1.94
420.30 1.938
420.40 1.936
420.50 1.935
420.60 1.933
420.70 1.931
420.80 1.93
420.90 1.928
421.00 1.926
421.10 1.925
421.20 1.923
421.30 1.921
421.40 1.92
421.50 1.918
421.60 1.916
421.70 1.914
421.80 1.913
421.90 1.911
422.00 1.909
422.10 1.907
422.20 1.906
422.30 1.904
422.40 1.902
422.50 1.9
422.60 1.899
422.70 1.897
422.80 1.895
422.90 1.893
423.00 1.892
423.10 1.89
423.20 1.888
423.30 1.886
423.40 1.884
423.50 1.883
423.60 1.881
423.70 1.879
423.80 1.877
423.90 1.875
424.00 1.873
424.10 1.871
424.20 1.87
424.30 1.868
424.40 1.866
424.50 1.864
424.60 1.862
424.70 1.86
424.80 1.858
424.90 1.856
425.00 1.854
425.10 1.852
425.20 1.851
425.30 1.849
425.40 1.847
425.50 1.845
425.60 1.843
425.70 1.841
425.80 1.839
425.90 1.837
426.00 1.835
426.10 1.832
426.20 1.83
426.30 1.828
426.40 1.826
426.50 1.824
426.60 1.822
426.70 1.82
426.80 1.818
426.90 1.815
427.00 1.813
427.10 1.811
427.20 1.809
427.30 1.807
427.40 1.804
427.50 1.802
427.60 1.8
427.70 1.797
427.80 1.795
427.90 1.793
428.00 1.79
428.10 1.788
428.20 1.785
428.30 1.783
428.40 1.78
428.50 1.778
428.60 1.775
428.70 1.772
428.80 1.77
428.90 1.767
429.00 1.764
429.10 1.762
429.20 1.759
429.30 1.756
429.40 1.753
429.50 1.75
429.60 1.747
429.70 1.744
429.80 1.741
429.90 1.738
430.00 1.735
430.10 1.731
430.20 1.728
430.30 1.725
430.40 1.721
430.50 1.718
430.60 1.714
430.70 1.711
430.80 1.707
430.90 1.703
431.00 1.7
431.10 1.696
431.20 1.692
431.30 1.688
431.40 1.684
431.50 1.68
431.60 1.676
431.70 1.671
431.80 1.667
431.90 1.663
432.00 1.658
432.10 1.654
432.20 1.649
432.30 1.645
432.40 1.64
432.50 1.636
432.60 1.631
432.70 1.626
432.80 1.622
432.90 1.617
433.00 1.612
433.10 1.608
433.20 1.603
433.30 1.598
433.40 1.594
433.50 1.589
433.60 1.585
433.70 1.58
433.80 1.575
433.90 1.569
434.00 1.565
434.10 1.564
434.20 1.566
434.30 1.568
434.40 1.571
434.50 1.573
434.60 1.575
434.70 1.577
434.80 1.579
434.90 1.58
435.00 1.582
435.10 1.584
435.20 1.586
435.30 1.588
435.40 1.59
435.50 1.592
435.60 1.594
435.70 1.596
435.80 1.597
435.90 1.599
436.00 1.601
436.10 1.602
436.20 1.604
436.30 1.605
436.40 1.607
436.50 1.608
436.60 1.609
436.70 1.61
436.80 1.611
436.90 1.612
437.00 1.613
437.10 1.614
437.20 1.615
437.30 1.616
437.40 1.616
437.50 1.617
437.60 1.617
437.70 1.618
437.80 1.618
437.90 1.618
438.00 1.619
438.10 1.619
438.20 1.619
438.30 1.619
438.40 1.619
438.50 1.619
438.60 1.619
438.70 1.619
438.80 1.619
438.90 1.619
439.00 1.618
439.10 1.618
439.20 1.618
439.30 1.618
439.40 1.617
439.50 1.617
439.60 1.616
439.70 1.616
439.80 1.615
439.90 1.615
440.00 1.614
440.10 1.613
440.20 1.613
440.30 1.612
440.40 1.611
440.50 1.611
440.60 1.61
440.70 1.609
440.80 1.608
440.90 1.608
441.00 1.607
441.10 1.606
441.20 1.605
441.30 1.604
441.40 1.603
441.50 1.602
441.60 1.601
441.70 1.6
441.80 1.599
441.90 1.599
442.00 1.598
442.10 1.597
442.20 1.596
442.30 1.595
442.40 1.593
442.50 1.592
442.60 1.591
442.70 1.59
442.80 1.589
442.90 1.588
443.00 1.587
443.10 1.586
443.20 1.585
443.30 1.584
443.40 1.583
443.50 1.582
443.60 1.58
443.70 1.579
443.80 1.578
443.90 1.577
444.00 1.576
444.10 1.575
444.20 1.573
444.30 1.572
444.40 1.571
444.50 1.57
444.60 1.569
444.70 1.568
444.80 1.566
444.90 1.565
445.00 1.564
445.10 1.563
445.20 1.562
445.30 1.56
445.40 1.559
445.50 1.558
445.60 1.557
445.70 1.556
445.80 1.554
445.90 1.553
446.00 1.552
446.10 1.551
446.20 1.549
446.30 1.548
446.40 1.547
446.50 1.546
446.60 1.544
446.70 1.543
446.80 1.542
446.90 1.541
447.00 1.54
447.10 1.538
447.20 1.537
447.30 1.536
447.40 1.535
447.50 1.533
447.60 1.532
447.70 1.531
447.80 1.53
447.90 1.528
448.00 1.527
448.10 1.526
448.20 1.525
448.30 1.523
448.40 1.522
448.50 1.521
448.60 1.52
448.70 1.518
448.80 1.517
448.90 1.516
449.00 1.515
449.10 1.513
449.20 1.512
449.30 1.511
449.40 1.51
449.50 1.508
449.60 1.507
449.70 1.506
449.80 1.505
449.90 1.503
450.00 1.502
450.10 1.501
450.20 1.5
450.30 1.498
450.40 1.497
450.50 1.496
450.60 1.495
450.70 1.493
450.80 1.492
450.90 1.491
451.00 1.49
451.10 1.488
451.20 1.487
451.30 1.486
451.40 1.485
451.50 1.483
451.60 1.482
451.70 1.481
451.80 1.48
451.90 1.479
452.00 1.477
452.10 1.476
452.20 1.475
452.30 1.474
452.40 1.472
452.50 1.471
452.60 1.47
452.70 1.469
452.80 1.467
452.90 1.466
453.00 1.465
453.10 1.464
453.20 1.463
453.30 1.461
453.40 1.46
453.50 1.459
453.60 1.458
453.70 1.456
453.80 1.455
453.90 1.454
454.00 1.453
454.10 1.452
454.20 1.45
454.30 1.449
454.40 1.448
454.50 1.447
454.60 1.445
454.70 1.444
454.80 1.443
454.90 1.442
455.00 1.441
455.10 1.439
455.20 1.438
455.30 1.437
455.40 1.436
455.50 1.435
455.60 1.433
455.70 1.432
455.80 1.431
455.90 1.43
456.00 1.429
456.10 1.427
456.20 1.426
456.30 1.425
456.40 1.424
456.50 1.423
456.60 1.421
456.70 1.42
456.80 1.419
456.90 1.418
457.00 1.417
457.10 1.415
457.20 1.414
457.30 1.413
457.40 1.412
457.50 1.411
457.60 1.409
457.70 1.408
457.80 1.407
457.90 1.406
458.00 1.405
458.10 1.404
458.20 1.402
458.30 1.401
458.40 1.4
458.50 1.399
458.60 1.398
458.70 1.397
458.80 1.395
458.90 1.394
459.00 1.393
459.10 1.392
459.20 1.391
459.30 1.39
459.40 1.388
459.50 1.387
459.60 1.386
459.70 1.385
459.80 1.384
459.90 1.383
460.00 1.381
460.10 1.38
460.20 1.379
460.30 1.378
460.40 1.377
460.50 1.376
460.60 1.374
460.70 1.373
460.80 1.372
460.90 1.371
461.00 1.37
461.10 1.369
461.20 1.368
461.30 1.366
461.40 1.365
461.50 1.364
461.60 1.363
461.70 1.362
461.80 1.361
461.90 1.359
462.00 1.358
462.10 1.357
462.20 1.356
462.30 1.355
462.40 1.354
462.50 1.353
462.60 1.352
462.70 1.35
462.80 1.349
462.90 1.348
463.00 1.347
463.10 1.346
463.20 1.345
463.30 1.344
463.40 1.342
463.50 1.341
463.60 1.34
463.70 1.339
463.80 1.338
463.90 1.337
464.00 1.336
464.10 1.335
464.20 1.333
464.30 1.332
464.40 1.331
464.50 1.33
464.60 1.329
464.70 1.328
464.80 1.327
464.90 1.326
465.00 1.325
465.10 1.323
465.20 1.322
465.30 1.321
465.40 1.32
465.50 1.319
465.60 1.318
465.70 1.317
465.80 1.316
465.90 1.315
466.00 1.313
466.10 1.312
466.20 1.311
466.30 1.31
466.40 1.309
466.50 1.308
466.60 1.307
466.70 1.306
466.80 1.305
466.90 1.304
467.00 1.302
467.10 1.301
467.20 1.3
467.30 1.299
467.40 1.298
467.50 1.297
467.60 1.296
467.70 1.295
467.80 1.294
467.90 1.293
468.00 1.291
468.10 1.29
468.20 1.289
468.30 1.288
468.40 1.287
468.50 1.286
468.60 1.285
468.70 1.284
468.80 1.283
468.90 1.282
469.00 1.281
469.10 1.28
469.20 1.278
469.30 1.277
469.40 1.276
469.50 1.275
469.60 1.274
469.70 1.273
469.80 1.272
469.90 1.271
470.00 1.27
470.10 1.269
470.20 1.268
470.30 1.267
470.40 1.265
470.50 1.264
470.60 1.263
470.70 1.262
470.80 1.261
470.90 1.26
471.00 1.259
471.10 1.258
471.20 1.257
471.30 1.256
471.40 1.255
471.50 1.254
471.60 1.252
471.70 1.251
471.80 1.25
471.90 1.249
472.00 1.248
472.10 1.247
472.20 1.246
472.30 1.245
472.40 1.244
472.50 1.243
472.60 1.242
472.70 1.241
472.80 1.239
472.90 1.238
473.00 1.237
473.10 1.236
473.20 1.235
473.30 1.234
473.40 1.233
473.50 1.232
473.60 1.231
473.70 1.23
473.80 1.229
473.90 1.227
474.00 1.226
474.10 1.225
474.20 1.224
474.30 1.223
474.40 1.222
474.50 1.221
474.60 1.22
474.70 1.219
474.80 1.217
474.90 1.216
475.00 1.215
475.10 1.214
475.20 1.213
475.30 1.212
475.40 1.211
475.50 1.21
475.60 1.209
475.70 1.207
475.80 1.206
475.90 1.205
476.00 1.204
476.10 1.203
476.20 1.202
476.30 1.201
476.40 1.199
476.50 1.198
476.60 1.197
476.70 1.196
476.80 1.195
476.90 1.194
477.00 1.192
477.10 1.191
477.20 1.19
477.30 1.189
477.40 1.188
477.50 1.186
477.60 1.185
477.70 1.184
477.80 1.183
477.90 1.181
478.00 1.18
478.10 1.179
478.20 1.178
478.30 1.176
478.40 1.175
478.50 1.174
478.60 1.172
478.70 1.171
478.80 1.17
478.90 1.168
479.00 1.167
479.10 1.166
479.20 1.164
479.30 1.163
479.40 1.162
479.50 1.16
479.60 1.159
479.70 1.157
479.80 1.156
479.90 1.154
480.00 1.153
480.10 1.151
480.20 1.15
480.30 1.148
480.40 1.147
480.50 1.145
480.60 1.143
480.70 1.142
480.80 1.14
480.90 1.138
481.00 1.137
481.10 1.135
481.20 1.133
481.30 1.131
481.40 1.129
481.50 1.127
481.60 1.125
481.70 1.124
481.80 1.122
481.90 1.12
482.00 1.118
482.10 1.116
482.20 1.114
482.30 1.111
482.40 1.109
482.50 1.106
482.60 1.104
482.70 1.102
482.80 1.099
482.90 1.097
483.00 1.095
483.10 1.092
483.20 1.09
483.30 1.087
483.40 1.084
483.50 1.081
483.60 1.078
483.70 1.075
483.80 1.072
483.90 1.069
484.00 1.067
484.10 1.064
484.20 1.061
484.30 1.057
484.40 1.054
484.50 1.051
484.60 1.047
484.70 1.044
484.80 1.041
484.90 1.037
485.00 1.034
485.10 1.03
485.20 1.027
485.30 1.023
485.40 1.02
485.50 1.017
485.60 1.014
485.70 1.012
485.80 1.011
485.90 1.011
486.00 1.015
486.10 1.024
486.20 1.021
486.30 1.01
486.40 1.007
486.50 1.006
486.60 1.006
486.70 1.007
486.80 1.008
486.90 1.009
487.00 1.011
487.10 1.013
487.20 1.015
487.30 1.017
487.40 1.018
487.50 1.02
487.60 1.022
487.70 1.024
487.80 1.025
487.90 1.027
488.00 1.029
488.10 1.03
488.20 1.032
488.30 1.033
488.40 1.034
488.50 1.035
488.60 1.036
488.70 1.038
488.80 1.039
488.90 1.04
489.00 1.041
489.10 1.042
489.20 1.043
489.30 1.044
489.40 1.044
489.50 1.045
489.60 1.045
489.70 1.046
489.80 1.046
489.90 1.047
490.00 1.048
490.10 1.048
490.20 1.049
490.30 1.049
490.40 1.049
490.50 1.049
490.60 1.049
490.70 1.049
490.80 1.049
490.90 1.05
491.00 1.05
491.10 1.05
491.20 1.05
491.30 1.05
491.40 1.049
491.50 1.049
491.60 1.049
491.70 1.049
491.80 1.049
491.90 1.049
492.00 1.048
492.10 1.048
492.20 1.048
492.30 1.048
492.40 1.047
492.50 1.047
492.60 1.046
492.70 1.046
492.80 1.046
492.90 1.045
493.00 1.045
493.10 1.045
493.20 1.044
493.30 1.044
493.40 1.043
493.50 1.043
493.60 1.042
493.70 1.042
493.80 1.041
493.90 1.041
494.00 1.04
494.10 1.04
494.20 1.039
494.30 1.039
494.40 1.038
494.50 1.037
494.60 1.037
494.70 1.036
494.80 1.036
494.90 1.035
495.00 1.034
495.10 1.034
495.20 1.033
495.30 1.033
495.40 1.032
495.50 1.031
495.60 1.031
495.70 1.03
495.80 1.029
495.90 1.029
496.00 1.028
496.10 1.027
496.20 1.027
496.30 1.026
496.40 1.025
496.50 1.025
496.60 1.024
496.70 1.023
496.80 1.023
496.90 1.022
497.00 1.021
497.10 1.021
497.20 1.02
497.30 1.019
497.40 1.019
497.50 1.018
497.60 1.017
497.70 1.016
497.80 1.016
497.90 1.015
498.00 1.014
498.10 1.014
498.20 1.013
498.30 1.012
498.40 1.012
498.50 1.011
498.60 1.01
498.70 1.009
498.80 1.009
498.90 1.008
499.00 1.007
499.10 1.007
499.20 1.006
499.30 1.005
499.40 1.004
499.50 1.004
499.60 1.003
499.70 1.002
499.80 1.001
499.90 1.001
500.00 1
500.10 0.9993
500.20 0.9986
500.30 0.9978
500.40 0.9971
500.50 0.9964
500.60 0.9956
500.70 0.9949
500.80 0.9942
500.90 0.9935
501.00 0.9927
501.10 0.992
501.20 0.9913
501.30 0.9905
501.40 0.9898
501.50 0.9891
501.60 0.9884
501.70 0.9876
501.80 0.9869
501.90 0.9862
502.00 0.9854
502.10 0.9847
502.20 0.984
502.30 0.9833
502.40 0.9825
502.50 0.9818
502.60 0.9811
502.70 0.9803
502.80 0.9796
502.90 0.9789
503.00 0.9782
503.10 0.9774
503.20 0.9767
503.30 0.976
503.40 0.9753
503.50 0.9745
503.60 0.9738
503.70 0.9731
503.80 0.9724
503.90 0.9716
504.00 0.9709
504.10 0.9702
504.20 0.9695
504.30 0.9687
504.40 0.968
504.50 0.9673
504.60 0.9666
504.70 0.9658
504.80 0.9651
504.90 0.9644
505.00 0.9637
505.10 0.963
505.20 0.9622
505.30 0.9615
505.40 0.9608
505.50 0.9601
505.60 0.9594
505.70 0.9586
505.80 0.9579
505.90 0.9572
506.00 0.9565
506.10 0.9558
506.20 0.9551
506.30 0.9543
506.40 0.9536
506.50 0.9529
506.60 0.9522
506.70 0.9515
506.80 0.9508
506.90 0.95
507.00 0.9493
507.10 0.9486
507.20 0.9479
507.30 0.9472
507.40 0.9465
507.50 0.9458
507.60 0.9451
507.70 0.9444
507.80 0.9437
507.90 0.943
508.00 0.9422
508.10 0.9415
508.20 0.9408
508.30 0.9401
508.40 0.9394
508.50 0.9387
508.60 0.938
508.70 0.9373
508.80 0.9366
508.90 0.9359
509.00 0.9352
509.10 0.9345
509.20 0.9338
509.30 0.9331
509.40 0.9324
509.50 0.9317
509.60 0.931
509.70 0.9303
509.80 0.9296
509.90 0.9289
510.00 0.9282
510.10 0.9275
510.20 0.9268
510.30 0.9261
510.40 0.9254
510.50 0.9247
510.60 0.924
510.70 0.9233
510.80 0.9226
510.90 0.922
511.00 0.9213
511.10 0.9206
511.20 0.9199
511.30 0.9192
511.40 0.9185
511.50 0.9178
511.60 0.9171
511.70 0.9164
511.80 0.9158
511.90 0.9151
512.00 0.9144
512.10 0.9137
512.20 0.913
512.30 0.9123
512.40 0.9117
512.50 0.911
512.60 0.9103
512.70 0.9096
512.80 0.9089
512.90 0.9082
513.00 0.9076
513.10 0.9069
513.20 0.9062
513.30 0.9055
513.40 0.9048
513.50 0.9042
513.60 0.9035
513.70 0.9028
513.80 0.9021
513.90 0.9015
514.00 0.9008
514.10 0.9001
514.20 0.8994
514.30 0.8988
514.40 0.8981
514.50 0.8974
514.60 0.8968
514.70 0.8961
514.80 0.8954
514.90 0.8948
515.00 0.8941
515.10 0.8934
515.20 0.8928
515.30 0.8921
515.40 0.8914
515.50 0.8908
515.60 0.8901
515.70 0.8894
515.80 0.8888
515.90 0.8881
516.00 0.8874
516.10 0.8868
516.20 0.8861
516.30 0.8855
516.40 0.8848
516.50 0.8841
516.60 0.8835
516.70 0.8828
516.80 0.8822
516.90 0.8815
517.00 0.8808
517.10 0.8802
517.20 0.8795
517.30 0.8789
517.40 0.8782
517.50 0.8776
517.60 0.8769
517.70 0.8763
517.80 0.8756
517.90 0.875
518.00 0.8743
518.10 0.8737
518.20 0.873
518.30 0.8724
518.40 0.8717
518.50 0.8711
518.60 0.8704
518.70 0.8698
518.80 0.8691
518.90 0.8685
519.00 0.8678
519.10 0.8672
519.20 0.8666
519.30 0.8659
519.40 0.8653
519.50 0.8646
519.60 0.864
519.70 0.8633
519.80 0.8627
519.90 0.8621
520.00 0.8614
520.10 0.8608
520.20 0.8602
520.30 0.8595
520.40 0.8589
520.50 0.8582
520.60 0.8576
520.70 0.857
520.80 0.8563
520.90 0.8557
521.00 0.8551
521.10 0.8544
521.20 0.8538
521.30 0.8532
521.40 0.8525
521.50 0.8519
521.60 0.8513
521.70 0.8507
521.80 0.85
521.90 0.8494
522.00 0.8488
522.10 0.8481
522.20 0.8475
522.30 0.8469
522.40 0.8463
522.50 0.8456
522.60 0.845
522.70 0.8444
522.80 0.8438
522.90 0.8431
523.00 0.8425
523.10 0.8419
523.20 0.8413
523.30 0.8407
523.40 0.84
523.50 0.8394
523.60 0.8388
523.70 0.8382
523.80 0.8376
523.90 0.837
524.00 0.8363
524.10 0.8357
524.20 0.8351
524.30 0.8345
524.40 0.8339
524.50 0.8333
524.60 0.8326
524.70 0.832
524.80 0.8314
524.90 0.8308
525.00 0.8302
525.10 0.8296
525.20 0.829
525.30 0.8284
525.40 0.8278
525.50 0.8272
525.60 0.8265
525.70 0.8259
525.80 0.8253
525.90 0.8247
526.00 0.8241
526.10 0.8235
526.20 0.8229
526.30 0.8223
526.40 0.8217
526.50 0.8211
526.60 0.8205
526.70 0.8199
526.80 0.8193
526.90 0.8187
527.00 0.8181
527.10 0.8175
527.20 0.8169
527.30 0.8163
527.40 0.8157
527.50 0.8151
527.60 0.8145
527.70 0.8139
527.80 0.8133
527.90 0.8127
528.00 0.8121
528.10 0.8115
528.20 0.8109
528.30 0.8104
528.40 0.8098
528.50 0.8092
528.60 0.8086
528.70 0.808
528.80 0.8074
528.90 0.8068
529.00 0.8062
529.10 0.8056
529.20 0.805
529.30 0.8045
529.40 0.8039
529.50 0.8033
529.60 0.8027
529.70 0.8021
529.80 0.8015
529.90 0.8009
530.00 0.8004
530.10 0.7998
530.20 0.7992
530.30 0.7986
530.40 0.798
530.50 0.7975
530.60 0.7969
530.70 0.7963
530.80 0.7957
530.90 0.7951
531.00 0.7946
531.10 0.794
531.20 0.7934
531.30 0.7928
531.40 0.7922
531.50 0.7917
531.60 0.7911
531.70 0.7905
531.80 0.7899
531.90 0.7894
532.00 0.7888
532.10 0.7882
532.20 0.7877
532.30 0.7871
532.40 0.7865
532.50 0.7859
532.60 0.7854
532.70 0.7848
532.80 0.7842
532.90 0.7837
533.00 0.7831
533.10 0.7825
533.20 0.782
533.30 0.7814
533.40 0.7808
533.50 0.7803
533.60 0.7797
533.70 0.7791
533.80 0.7786
533.90 0.778
534.00 0.7774
534.10 0.7769
534.20 0.7763
534.30 0.7758
534.40 0.7752
534.50 0.7746
534.60 0.7741
534.70 0.7735
534.80 0.773
534.90 0.7724
535.00 0.7718
535.10 0.7713
535.20 0.7707
535.30 0.7702
535.40 0.7696
535.50 0.7691
535.60 0.7685
535.70 0.7679
535.80 0.7674
535.90 0.7668
536.00 0.7663
536.10 0.7657
536.20 0.7652
536.30 0.7646
536.40 0.7641
536.50 0.7635
536.60 0.763
536.70 0.7624
536.80 0.7619
536.90 0.7613
537.00 0.7608
537.10 0.7602
537.20 0.7597
537.30 0.7591
537.40 0.7586
537.50 0.7581
537.60 0.7575
537.70 0.757
537.80 0.7564
537.90 0.7559
538.00 0.7553
538.10 0.7548
538.20 0.7542
538.30 0.7537
538.40 0.7532
538.50 0.7526
538.60 0.7521
538.70 0.7515
538.80 0.751
538.90 0.7505
539.00 0.7499
539.10 0.7494
539.20 0.7488
539.30 0.7483
539.40 0.7478
539.50 0.7472
539.60 0.7467
539.70 0.7462
539.80 0.7456
539.90 0.7451
540.00 0.7446
540.10 0.744
540.20 0.7435
540.30 0.743
540.40 0.7424
540.50 0.7419
540.60 0.7414
540.70 0.7408
540.80 0.7403
540.90 0.7398
541.00 0.7393
541.10 0.7387
541.20 0.7382
541.30 0.7377
541.40 0.7372
541.50 0.7366
541.60 0.7361
541.70 0.7356
541.80 0.735
541.90 0.7345
542.00 0.734
542.10 0.7335
542.20 0.733
542.30 0.7324
542.40 0.7319
542.50 0.7314
542.60 0.7309
542.70 0.7303
542.80 0.7298
542.90 0.7293
543.00 0.7288
543.10 0.7283
543.20 0.7277
543.30 0.7272
543.40 0.7267
543.50 0.7262
543.60 0.7257
543.70 0.7252
543.80 0.7246
543.90 0.7241
544.00 0.7236
544.10 0.7231
544.20 0.7226
544.30 0.7221
544.40 0.7216
544.50 0.721
544.60 0.7205
544.70 0.72
544.80 0.7195
544.90 0.719
545.00 0.7185
545.10 0.718
545.20 0.7175
545.30 0.717
545.40 0.7165
545.50 0.7159
545.60 0.7154
545.70 0.7149
545.80 0.7144
545.90 0.7139
546.00 0.7134
546.10 0.7129
546.20 0.7124
546.30 0.7119
546.40 0.7114
546.50 0.7109
546.60 0.7104
546.70 0.7099
546.80 0.7094
546.90 0.7089
547.00 0.7084
547.10 0.7079
547.20 0.7074
547.30 0.7069
547.40 0.7064
547.50 0.7059
547.60 0.7054
547.70 0.7049
547.80 0.7044
547.90 0.7039
548.00 0.7034
548.10 0.7029
548.20 0.7024
548.30 0.7019
548.40 0.7014
548.50 0.7009
548.60 0.7004
548.70 0.6999
548.80 0.6994
548.90 0.6989
549.00 0.6984
549.10 0.6979
549.20 0.6975
549.30 0.697
549.40 0.6965
549.50 0.696
549.60 0.6955
549.70 0.695
549.80 0.6945
549.90 0.694
550.00 0.6935
550.10 0.6931
550.20 0.6926
550.30 0.6921
550.40 0.6916
550.50 0.6911
550.60 0.6906
550.70 0.6901
550.80 0.6897
550.90 0.6892
551.00 0.6887
551.10 0.6882
551.20 0.6877
551.30 0.6872
551.40 0.6868
551.50 0.6863
551.60 0.6858
551.70 0.6853
551.80 0.6848
551.90 0.6844
552.00 0.6839
552.10 0.6834
552.20 0.6829
552.30 0.6824
552.40 0.682
552.50 0.6815
552.60 0.681
552.70 0.6805
552.80 0.68
552.90 0.6796
553.00 0.6791
553.10 0.6786
553.20 0.6781
553.30 0.6777
553.40 0.6772
553.50 0.6767
553.60 0.6762
553.70 0.6758
553.80 0.6753
553.90 0.6748
554.00 0.6744
554.10 0.6739
554.20 0.6734
554.30 0.673
554.40 0.6725
554.50 0.672
554.60 0.6715
554.70 0.6711
554.80 0.6706
554.90 0.6701
555.00 0.6697
555.10 0.6692
555.20 0.6687
555.30 0.6683
555.40 0.6678
555.50 0.6673
555.60 0.6669
555.70 0.6664
555.80 0.6659
555.90 0.6655
556.00 0.665
556.10 0.6646
556.20 0.6641
556.30 0.6636
556.40 0.6632
556.50 0.6627
556.60 0.6622
556.70 0.6618
556.80 0.6613
556.90 0.6609
557.00 0.6604
557.10 0.66
557.20 0.6595
557.30 0.659
557.40 0.6586
557.50 0.6581
557.60 0.6577
557.70 0.6572
557.80 0.6568
557.90 0.6563
558.00 0.6558
558.10 0.6554
558.20 0.6549
558.30 0.6545
558.40 0.654
558.50 0.6536
558.60 0.6531
558.70 0.6527
558.80 0.6522
558.90 0.6518
559.00 0.6513
559.10 0.6509
559.20 0.6504
559.30 0.65
559.40 0.6495
559.50 0.6491
559.60 0.6486
559.70 0.6482
559.80 0.6477
559.90 0.6473
560.00 0.6468
560.10 0.6464
560.20 0.6459
560.30 0.6455
560.40 0.645
560.50 0.6446
560.60 0.6441
560.70 0.6437
560.80 0.6433
560.90 0.6428
561.00 0.6424
561.10 0.6419
561.20 0.6415
561.30 0.641
561.40 0.6406
561.50 0.6402
561.60 0.6397
561.70 0.6393
561.80 0.6388
561.90 0.6384
562.00 0.6379
562.10 0.6375
562.20 0.6371
562.30 0.6366
562.40 0.6362
562.50 0.6358
562.60 0.6353
562.70 0.6349
562.80 0.6344
562.90 0.634
563.00 0.6336
563.10 0.6331
563.20 0.6327
563.30 0.6323
563.40 0.6318
563.50 0.6314
563.60 0.631
563.70 0.6305
563.80 0.6301
563.90 0.6297
564.00 0.6292
564.10 0.6288
564.20 0.6284
564.30 0.6279
564.40 0.6275
564.50 0.6271
564.60 0.6266
564.70 0.6262
564.80 0.6258
564.90 0.6254
565.00 0.6249
565.10 0.6245
565.20 0.6241
565.30 0.6236
565.40 0.6232
565.50 0.6228
565.60 0.6224
565.70 0.6219
565.80 0.6215
565.90 0.6211
566.00 0.6207
566.10 0.6202
566.20 0.6198
566.30 0.6194
566.40 0.619
566.50 0.6185
566.60 0.6181
566.70 0.6177
566.80 0.6173
566.90 0.6169
567.00 0.6164
567.10 0.616
567.20 0.6156
567.30 0.6152
567.40 0.6148
567.50 0.6143
567.60 0.6139
567.70 0.6135
567.80 0.6131
567.90 0.6127
568.00 0.6122
568.10 0.6118
568.20 0.6114
568.30 0.611
568.40 0.6106
568.50 0.6102
568.60 0.6097
568.70 0.6093
568.80 0.6089
568.90 0.6085
569.00 0.6081
569.10 0.6077
569.20 0.6073
569.30 0.6068
569.40 0.6064
569.50 0.606
569.60 0.6056
569.70 0.6052
569.80 0.6048
569.90 0.6044
570.00 0.604
570.10 0.6036
570.20 0.6031
570.30 0.6027
570.40 0.6023
570.50 0.6019
570.60 0.6015
570.70 0.6011
570.80 0.6007
570.90 0.6003
571.00 0.5999
571.10 0.5995
571.20 0.5991
571.30 0.5987
571.40 0.5983
571.50 0.5978
571.60 0.5974
571.70 0.597
571.80 0.5966
571.90 0.5962
572.00 0.5958
572.10 0.5954
572.20 0.595
572.30 0.5946
572.40 0.5942
572.50 0.5938
572.60 0.5934
572.70 0.593
572.80 0.5926
572.90 0.5922
573.00 0.5918
573.10 0.5914
573.20 0.591
573.30 0.5906
573.40 0.5902
573.50 0.5898
573.60 0.5894
573.70 0.589
573.80 0.5886
573.90 0.5882
574.00 0.5878
574.10 0.5874
574.20 0.587
574.30 0.5866
574.40 0.5862
574.50 0.5858
574.60 0.5854
574.70 0.5851
574.80 0.5847
574.90 0.5843
575.00 0.5839
575.10 0.5835
575.20 0.5831
575.30 0.5827
575.40 0.5823
575.50 0.5819
575.60 0.5815
575.70 0.5811
575.80 0.5807
575.90 0.5803
576.00 0.58
576.10 0.5796
576.20 0.5792
576.30 0.5788
576.40 0.5784
576.50 0.578
576.60 0.5776
576.70 0.5772
576.80 0.5768
576.90 0.5765
577.00 0.5761
577.10 0.5757
577.20 0.5753
577.30 0.5749
577.40 0.5745
577.50 0.5741
577.60 0.5737
577.70 0.5734
577.80 0.573
577.90 0.5726
578.00 0.5722
578.10 0.5718
578.20 0.5714
578.30 0.5711
578.40 0.5707
578.50 0.5703
578.60 0.5699
578.70 0.5695
578.80 0.5692
578.90 0.5688
579.00 0.5684
579.10 0.568
579.20 0.5676
579.30 0.5673
579.40 0.5669
579.50 0.5665
579.60 0.5661
579.70 0.5657
579.80 0.5654
579.90 0.565
580.00 0.5646
580.10 0.5642
580.20 0.5638
580.30 0.5635
580.40 0.5631
580.50 0.5627
580.60 0.5623
580.70 0.562
580.80 0.5616
580.90 0.5612
581.00 0.5608
581.10 0.5605
581.20 0.5601
581.30 0.5597
581.40 0.5594
581.50 0.559
581.60 0.5586
581.70 0.5582
581.80 0.5579
581.90 0.5575
582.00 0.5571
582.10 0.5567
582.20 0.5564
582.30 0.556
582.40 0.5556
582.50 0.5553
582.60 0.5549
582.70 0.5545
582.80 0.5542
582.90 0.5538
583.00 0.5534
583.10 0.5531
583.20 0.5527
583.30 0.5523
583.40 0.552
583.50 0.5516
583.60 0.5512
583.70 0.5509
583.80 0.5505
583.90 0.5501
584.00 0.5498
584.10 0.5494
584.20 0.549
584.30 0.5487
584.40 0.5483
584.50 0.5479
584.60 0.5476
584.70 0.5472
584.80 0.5468
584.90 0.5465
585.00 0.5461
585.10 0.5458
585.20 0.5454
585.30 0.545
585.40 0.5447
585.50 0.5443
585.60 0.544
585.70 0.5436
585.80 0.5432
585.90 0.5429
586.00 0.5425
586.10 0.5422
586.20 0.5418
586.30 0.5414
586.40 0.5411
586.50 0.5407
586.60 0.5404
586.70 0.54
586.80 0.5397
586.90 0.5393
587.00 0.5389
587.10 0.5386
587.20 0.5382
587.30 0.5379
587.40 0.5375
587.50 0.5372
587.60 0.5368
587.70 0.5365
587.80 0.5361
587.90 0.5358
588.00 0.5354
588.10 0.535
588.20 0.5347
588.30 0.5343
588.40 0.534
588.50 0.5336
588.60 0.5333
588.70 0.5329
588.80 0.5326
588.90 0.5322
589.00 0.5319
589.10 0.5315
589.20 0.5312
589.30 0.5308
589.40 0.5305
589.50 0.5301
589.60 0.5298
589.70 0.5294
589.80 0.5291
589.90 0.5287
590.00 0.5284
590.10 0.5281
590.20 0.5277
590.30 0.5274
590.40 0.527
590.50 0.5267
590.60 0.5263
590.70 0.526
590.80 0.5256
590.90 0.5253
591.00 0.5249
591.10 0.5246
591.20 0.5243
591.30 0.5239
591.40 0.5236
591.50 0.5232
591.60 0.5229
591.70 0.5225
591.80 0.5222
591.90 0.5219
592.00 0.5215
592.10 0.5212
592.20 0.5208
592.30 0.5205
592.40 0.5201
592.50 0.5198
592.60 0.5195
592.70 0.5191
592.80 0.5188
592.90 0.5184
593.00 0.5181
593.10 0.5178
593.20 0.5174
593.30 0.5171
593.40 0.5168
593.50 0.5164
593.60 0.5161
593.70 0.5157
593.80 0.5154
593.90 0.5151
594.00 0.5147
594.10 0.5144
594.20 0.5141
594.30 0.5137
594.40 0.5134
594.50 0.5131
594.60 0.5127
594.70 0.5124
594.80 0.5121
594.90 0.5117
595.00 0.5114
595.10 0.5111
595.20 0.5107
595.30 0.5104
595.40 0.5101
595.50 0.5097
595.60 0.5094
595.70 0.5091
595.80 0.5087
595.90 0.5084
596.00 0.5081
596.10 0.5077
596.20 0.5074
596.30 0.5071
596.40 0.5067
596.50 0.5064
596.60 0.5061
596.70 0.5058
596.80 0.5054
596.90 0.5051
597.00 0.5048
597.10 0.5044
597.20 0.5041
597.30 0.5038
597.40 0.5035
597.50 0.5031
597.60 0.5028
597.70 0.5025
597.80 0.5022
597.90 0.5018
598.00 0.5015
598.10 0.5012
598.20 0.5009
598.30 0.5005
598.40 0.5002
598.50 0.4999
598.60 0.4996
598.70 0.4992
598.80 0.4989
598.90 0.4986
599.00 0.4983
599.10 0.4979
599.20 0.4976
599.30 0.4973
599.40 0.497
599.50 0.4967
599.60 0.4963
599.70 0.496
599.80 0.4957
599.90 0.4954
600.00 0.495
600.10 0.4947
600.20 0.4944
600.30 0.4941
600.40 0.4938
600.50 0.4935
600.60 0.4931
600.70 0.4928
600.80 0.4925
600.90 0.4922
601.00 0.4919
601.10 0.4915
601.20 0.4912
601.30 0.4909
601.40 0.4906
601.50 0.4903
601.60 0.49
601.70 0.4896
601.80 0.4893
601.90 0.489
602.00 0.4887
602.10 0.4884
602.20 0.4881
602.30 0.4878
602.40 0.4874
602.50 0.4871
602.60 0.4868
602.70 0.4865
602.80 0.4862
602.90 0.4859
603.00 0.4856
603.10 0.4852
603.20 0.4849
603.30 0.4846
603.40 0.4843
603.50 0.484
603.60 0.4837
603.70 0.4834
603.80 0.4831
603.90 0.4828
604.00 0.4824
604.10 0.4821
604.20 0.4818
604.30 0.4815
604.40 0.4812
604.50 0.4809
604.60 0.4806
604.70 0.4803
604.80 0.48
604.90 0.4797
605.00 0.4794
605.10 0.4791
605.20 0.4787
605.30 0.4784
605.40 0.4781
605.50 0.4778
605.60 0.4775
605.70 0.4772
605.80 0.4769
605.90 0.4766
606.00 0.4763
606.10 0.476
606.20 0.4757
606.30 0.4754
606.40 0.4751
606.50 0.4748
606.60 0.4745
606.70 0.4742
606.80 0.4739
606.90 0.4736
607.00 0.4733
607.10 0.473
607.20 0.4727
607.30 0.4723
607.40 0.472
607.50 0.4717
607.60 0.4714
607.70 0.4711
607.80 0.4708
607.90 0.4705
608.00 0.4702
608.10 0.4699
608.20 0.4696
608.30 0.4693
608.40 0.469
608.50 0.4687
608.60 0.4684
608.70 0.4681
608.80 0.4678
608.90 0.4675
609.00 0.4673
609.10 0.467
609.20 0.4667
609.30 0.4664
609.40 0.4661
609.50 0.4658
609.60 0.4655
609.70 0.4652
609.80 0.4649
609.90 0.4646
610.00 0.4643
610.10 0.464
610.20 0.4637
610.30 0.4634
610.40 0.4631
610.50 0.4628
610.60 0.4625
610.70 0.4622
610.80 0.4619
610.90 0.4616
611.00 0.4613
611.10 0.461
611.20 0.4608
611.30 0.4605
611.40 0.4602
611.50 0.4599
611.60 0.4596
611.70 0.4593
611.80 0.459
611.90 0.4587
612.00 0.4584
612.10 0.4581
612.20 0.4578
612.30 0.4575
612.40 0.4573
612.50 0.457
612.60 0.4567
612.70 0.4564
612.80 0.4561
612.90 0.4558
613.00 0.4555
613.10 0.4552
613.20 0.4549
613.30 0.4547
613.40 0.4544
613.50 0.4541
613.60 0.4538
613.70 0.4535
613.80 0.4532
613.90 0.4529
614.00 0.4526
614.10 0.4524
614.20 0.4521
614.30 0.4518
614.40 0.4515
614.50 0.4512
614.60 0.4509
614.70 0.4506
614.80 0.4504
614.90 0.4501
615.00 0.4498
615.10 0.4495
615.20 0.4492
615.30 0.4489
615.40 0.4487
615.50 0.4484
615.60 0.4481
615.70 0.4478
615.80 0.4475
615.90 0.4472
616.00 0.447
616.10 0.4467
616.20 0.4464
616.30 0.4461
616.40 0.4458
616.50 0.4456
616.60 0.4453
616.70 0.445
616.80 0.4447
616.90 0.4444
617.00 0.4441
617.10 0.4439
617.20 0.4436
617.30 0.4433
617.40 0.443
617.50 0.4428
617.60 0.4425
617.70 0.4422
617.80 0.4419
617.90 0.4416
618.00 0.4414
618.10 0.4411
618.20 0.4408
618.30 0.4405
618.40 0.4403
618.50 0.44
618.60 0.4397
618.70 0.4394
618.80 0.4391
618.90 0.4389
619.00 0.4386
619.10 0.4383
619.20 0.438
619.30 0.4378
619.40 0.4375
619.50 0.4372
619.60 0.4369
619.70 0.4367
619.80 0.4364
619.90 0.4361
620.00 0.4358
620.10 0.4356
620.20 0.4353
620.30 0.435
620.40 0.4348
620.50 0.4345
620.60 0.4342
620.70 0.4339
620.80 0.4337
620.90 0.4334
621.00 0.4331
621.10 0.4329
621.20 0.4326
621.30 0.4323
621.40 0.432
621.50 0.4318
621.60 0.4315
621.70 0.4312
621.80 0.431
621.90 0.4307
622.00 0.4304
622.10 0.4302
622.20 0.4299
622.30 0.4296
622.40 0.4293
622.50 0.4291
622.60 0.4288
622.70 0.4285
622.80 0.4283
622.90 0.428
623.00 0.4277
623.10 0.4275
623.20 0.4272
623.30 0.4269
623.40 0.4267
623.50 0.4264
623.60 0.4261
623.70 0.4259
623.80 0.4256
623.90 0.4253
624.00 0.4251
624.10 0.4248
624.20 0.4245
624.30 0.4243
624.40 0.424
624.50 0.4237
624.60 0.4235
624.70 0.4232
624.80 0.423
624.90 0.4227
625.00 0.4224
625.10 0.4222
625.20 0.4219
625.30 0.4216
625.40 0.4214
625.50 0.4211
625.60 0.4209
625.70 0.4206
625.80 0.4203
625.90 0.4201
626.00 0.4198
626.10 0.4195
626.20 0.4193
626.30 0.419
626.40 0.4188
626.50 0.4185
626.60 0.4182
626.70 0.418
626.80 0.4177
626.90 0.4175
627.00 0.4172
627.10 0.4169
627.20 0.4167
627.30 0.4164
627.40 0.4162
627.50 0.4159
627.60 0.4156
627.70 0.4154
627.80 0.4151
627.90 0.4149
628.00 0.4146
628.10 0.4144
628.20 0.4141
628.30 0.4138
628.40 0.4136
628.50 0.4133
628.60 0.4131
628.70 0.4128
628.80 0.4126
628.90 0.4123
629.00 0.412
629.10 0.4118
629.20 0.4115
629.30 0.4113
629.40 0.411
629.50 0.4108
629.60 0.4105
629.70 0.4103
629.80 0.41
629.90 0.4097
630.00 0.4095
630.10 0.4092
630.20 0.409
630.30 0.4087
630.40 0.4085
630.50 0.4082
630.60 0.408
630.70 0.4077
630.80 0.4075
630.90 0.4072
631.00 0.407
631.10 0.4067
631.20 0.4065
631.30 0.4062
631.40 0.4059
631.50 0.4057
631.60 0.4054
631.70 0.4052
631.80 0.4049
631.90 0.4047
632.00 0.4044
632.10 0.4042
632.20 0.4039
632.30 0.4037
632.40 0.4034
632.50 0.4032
632.60 0.4029
632.70 0.4027
632.80 0.4024
632.90 0.4022
633.00 0.4019
633.10 0.4017
633.20 0.4014
633.30 0.4012
633.40 0.4009
633.50 0.4007
633.60 0.4004
633.70 0.4002
633.80 0.3999
633.90 0.3997
634.00 0.3995
634.10 0.3992
634.20 0.399
634.30 0.3987
634.40 0.3985
634.50 0.3982
634.60 0.398
634.70 0.3977
634.80 0.3975
634.90 0.3972
635.00 0.397
635.10 0.3967
635.20 0.3965
635.30 0.3962
635.40 0.396
635.50 0.3958
635.60 0.3955
635.70 0.3953
635.80 0.395
635.90 0.3948
636.00 0.3945
636.10 0.3943
636.20 0.394
636.30 0.3938
636.40 0.3935
636.50 0.3933
636.60 0.3931
636.70 0.3928
636.80 0.3926
636.90 0.3923
637.00 0.3921
637.10 0.3918
637.20 0.3916
637.30 0.3913
637.40 0.3911
637.50 0.3909
637.60 0.3906
637.70 0.3904
637.80 0.3901
637.90 0.3899
638.00 0.3896
638.10 0.3894
638.20 0.3892
638.30 0.3889
638.40 0.3887
638.50 0.3884
638.60 0.3882
638.70 0.3879
638.80 0.3877
638.90 0.3875
639.00 0.3872
639.10 0.387
639.20 0.3867
639.30 0.3865
639.40 0.3862
639.50 0.386
639.60 0.3858
639.70 0.3855
639.80 0.3853
639.90 0.385
640.00 0.3848
640.10 0.3846
640.20 0.3843
640.30 0.3841
640.40 0.3838
640.50 0.3836
640.60 0.3833
640.70 0.3831
640.80 0.3829
640.90 0.3826
641.00 0.3824
641.10 0.3821
641.20 0.3819
641.30 0.3817
641.40 0.3814
641.50 0.3812
641.60 0.3809
641.70 0.3807
641.80 0.3804
641.90 0.3802
642.00 0.38
642.10 0.3797
642.20 0.3795
642.30 0.3792
642.40 0.379
642.50 0.3787
642.60 0.3785
642.70 0.3783
642.80 0.378
642.90 0.3778
643.00 0.3775
643.10 0.3773
643.20 0.377
643.30 0.3768
643.40 0.3766
643.50 0.3763
643.60 0.3761
643.70 0.3758
643.80 0.3756
643.90 0.3753
644.00 0.3751
644.10 0.3748
644.20 0.3746
644.30 0.3743
644.40 0.3741
644.50 0.3738
644.60 0.3736
644.70 0.3733
644.80 0.3731
644.90 0.3729
645.00 0.3726
645.10 0.3724
645.20 0.3721
645.30 0.3719
645.40 0.3716
645.50 0.3713
645.60 0.3711
645.70 0.3708
645.80 0.3706
645.90 0.3703
646.00 0.3701
646.10 0.3698
646.20 0.3696
646.30 0.3693
646.40 0.3691
646.50 0.3688
646.60 0.3685
646.70 0.3683
646.80 0.368
646.90 0.3677
647.00 0.3675
647.10 0.3672
647.20 0.367
647.30 0.3667
647.40 0.3664
647.50 0.3661
647.60 0.3659
647.70 0.3656
647.80 0.3653
647.90 0.365
648.00 0.3648
648.10 0.3645
648.20 0.3642
648.30 0.364
648.40 0.3637
648.50 0.3634
648.60 0.3631
648.70 0.3628
648.80 0.3625
648.90 0.3622
649.00 0.3619
649.10 0.3616
649.20 0.3613
649.30 0.361
649.40 0.3607
649.50 0.3604
649.60 0.36
649.70 0.3597
649.80 0.3594
649.90 0.3591
650.00 0.3588
650.10 0.3584
650.20 0.3581
650.30 0.3578
650.40 0.3574
650.50 0.357
650.60 0.3567
650.70 0.3563
650.80 0.3559
650.90 0.3556
651.00 0.3552
651.10 0.3548
651.20 0.3545
651.30 0.3541
651.40 0.3537
651.50 0.3532
651.60 0.3528
651.70 0.3524
651.80 0.3519
651.90 0.3515
652.00 0.3511
652.10 0.3506
652.20 0.3502
652.30 0.3497
652.40 0.3492
652.50 0.3487
652.60 0.3481
652.70 0.3476
652.80 0.3471
652.90 0.3465
653.00 0.346
653.10 0.3455
653.20 0.3449
653.30 0.3444
653.40 0.3437
653.50 0.343
653.60 0.3424
653.70 0.3417
653.80 0.341
653.90 0.3404
654.00 0.3397
654.10 0.339
654.20 0.3384
654.30 0.3377
654.40 0.3369
654.50 0.3362
654.60 0.3354
654.70 0.3346
654.80 0.3338
654.90 0.333
655.00 0.3322
655.10 0.3314
655.20 0.3307
655.30 0.3299
655.40 0.3291
655.50 0.3283
655.60 0.3276
655.70 0.327
655.80 0.3265
655.90 0.3263
656.00 0.3272
656.10 0.3285
656.20 0.3393
656.30 0.3514
656.40 0.333
656.50 0.3269
656.60 0.3257
656.70 0.3246
656.80 0.3247
656.90 0.3249
657.00 0.3252
657.10 0.3255
657.20 0.3259
657.30 0.3263
657.40 0.3267
657.50 0.3271
657.60 0.3275
657.70 0.3279
657.80 0.3283
657.90 0.3287
658.00 0.3291
658.10 0.3295
658.20 0.3298
658.30 0.3302
658.40 0.3304
658.50 0.3307
658.60 0.331
658.70 0.3312
658.80 0.3315
658.90 0.3318
659.00 0.332
659.10 0.3323
659.20 0.3325
659.30 0.3328
659.40 0.3329
659.50 0.333
659.60 0.3331
659.70 0.3333
659.80 0.3334
659.90 0.3335
660.00 0.3336
660.10 0.3337
660.20 0.3339
660.30 0.334
660.40 0.334
660.50 0.334
660.60 0.334
660.70 0.334
660.80 0.334
660.90 0.3341
661.00 0.3341
661.10 0.3341
661.20 0.3341
661.30 0.3341
661.40 0.3341
661.50 0.334
661.60 0.334
661.70 0.3339
661.80 0.3339
661.90 0.3338
662.00 0.3338
662.10 0.3337
662.20 0.3336
662.30 0.3336
662.40 0.3335
662.50 0.3334
662.60 0.3333
662.70 0.3332
662.80 0.3331
662.90 0.333
663.00 0.3329
663.10 0.3328
663.20 0.3327
663.30 0.3326
663.40 0.3325
663.50 0.3323
663.60 0.3322
663.70 0.3321
663.80 0.332
663.90 0.3318
664.00 0.3317
664.10 0.3316
664.20 0.3315
664.30 0.3313
664.40 0.3312
664.50 0.331
664.60 0.3309
664.70 0.3307
664.80 0.3306
664.90 0.3305
665.00 0.3303
665.10 0.3302
665.20 0.33
665.30 0.3299
665.40 0.3297
665.50 0.3296
665.60 0.3294
665.70 0.3292
665.80 0.3291
665.90 0.3289
666.00 0.3288
666.10 0.3286
666.20 0.3285
666.30 0.3283
666.40 0.3281
666.50 0.328
666.60 0.3278
666.70 0.3276
666.80 0.3275
666.90 0.3273
667.00 0.3271
667.10 0.327
667.20 0.3268
667.30 0.3266
667.40 0.3265
667.50 0.3263
667.60 0.3261
667.70 0.326
667.80 0.3258
667.90 0.3256
668.00 0.3254
668.10 0.3253
668.20 0.3251
668.30 0.3249
668.40 0.3248
668.50 0.3246
668.60 0.3244
668.70 0.3242
668.80 0.3241
668.90 0.3239
669.00 0.3237
669.10 0.3235
669.20 0.3234
669.30 0.3232
669.40 0.323
669.50 0.3228
669.60 0.3227
669.70 0.3225
669.80 0.3223
669.90 0.3221
670.00 0.322
670.10 0.3218
670.20 0.3216
670.30 0.3214
670.40 0.3213
670.50 0.3211
670.60 0.3209
670.70 0.3207
670.80 0.3206
670.90 0.3204
671.00 0.3202
671.10 0.32
671.20 0.3199
671.30 0.3197
671.40 0.3195
671.50 0.3193
671.60 0.3191
671.70 0.319
671.80 0.3188
671.90 0.3186
672.00 0.3184
672.10 0.3183
672.20 0.3181
672.30 0.3179
672.40 0.3177
672.50 0.3175
672.60 0.3174
672.70 0.3172
672.80 0.317
672.90 0.3168
673.00 0.3167
673.10 0.3165
673.20 0.3163
673.30 0.3161
673.40 0.316
673.50 0.3158
673.60 0.3156
673.70 0.3154
673.80 0.3152
673.90 0.3151
674.00 0.3149
674.10 0.3147
674.20 0.3145
674.30 0.3144
674.40 0.3142
674.50 0.314
674.60 0.3138
674.70 0.3137
674.80 0.3135
674.90 0.3133
675.00 0.3131
675.10 0.3129
675.20 0.3128
675.30 0.3126
675.40 0.3124
675.50 0.3122
675.60 0.3121
675.70 0.3119
675.80 0.3117
675.90 0.3115
676.00 0.3114
676.10 0.3112
676.20 0.311
676.30 0.3108
676.40 0.3107
676.50 0.3105
676.60 0.3103
676.70 0.3101
676.80 0.31
676.90 0.3098
677.00 0.3096
677.10 0.3094
677.20 0.3093
677.30 0.3091
677.40 0.3089
677.50 0.3087
677.60 0.3086
677.70 0.3084
677.80 0.3082
677.90 0.308
678.00 0.3079
678.10 0.3077
678.20 0.3075
678.30 0.3073
678.40 0.3072
678.50 0.307
678.60 0.3068
678.70 0.3066
678.80 0.3065
678.90 0.3063
679.00 0.3061
679.10 0.3059
679.20 0.3058
679.30 0.3056
679.40 0.3054
679.50 0.3053
679.60 0.3051
679.70 0.3049
679.80 0.3047
679.90 0.3046
680.00 0.3044
680.10 0.3042
680.20 0.304
680.30 0.3039
680.40 0.3037
680.50 0.3035
680.60 0.3034
680.70 0.3032
680.80 0.303
680.90 0.3028
681.00 0.3027
681.10 0.3025
681.20 0.3023
681.30 0.3022
681.40 0.302
681.50 0.3018
681.60 0.3016
681.70 0.3015
681.80 0.3013
681.90 0.3011
682.00 0.301
682.10 0.3008
682.20 0.3006
682.30 0.3005
682.40 0.3003
682.50 0.3001
682.60 0.2999
682.70 0.2998
682.80 0.2996
682.90 0.2994
683.00 0.2993
683.10 0.2991
683.20 0.2989
683.30 0.2988
683.40 0.2986
683.50 0.2984
683.60 0.2983
683.70 0.2981
683.80 0.2979
683.90 0.2978
684.00 0.2976
684.10 0.2974
684.20 0.2972
684.30 0.2971
684.40 0.2969
684.50 0.2967
684.60 0.2966
684.70 0.2964
684.80 0.2962
684.90 0.2961
685.00 0.2959
685.10 0.2957
685.20 0.2956
685.30 0.2954
685.40 0.2952
685.50 0.2951
685.60 0.2949
685.70 0.2947
685.80 0.2946
685.90 0.2944
686.00 0.2942
686.10 0.2941
686.20 0.2939
686.30 0.2937
686.40 0.2936
686.50 0.2934
686.60 0.2932
686.70 0.2931
686.80 0.2929
686.90 0.2927
687.00 0.2926
687.10 0.2924
687.20 0.2923
687.30 0.2921
687.40 0.2919
687.50 0.2918
687.60 0.2916
687.70 0.2914
687.80 0.2913
687.90 0.2911
688.00 0.2909
688.10 0.2908
688.20 0.2906
688.30 0.2904
688.40 0.2903
688.50 0.2901
688.60 0.29
688.70 0.2898
688.80 0.2896
688.90 0.2895
689.00 0.2893
689.10 0.2891
689.20 0.289
689.30 0.2888
689.40 0.2887
689.50 0.2885
689.60 0.2883
689.70 0.2882
689.80 0.288
689.90 0.2879
690.00 0.2877
690.10 0.2875
690.20 0.2874
690.30 0.2872
690.40 0.287
690.50 0.2869
690.60 0.2867
690.70 0.2866
690.80 0.2864
690.90 0.2862
691.00 0.2861
691.10 0.2859
691.20 0.2858
691.30 0.2856
691.40 0.2854
691.50 0.2853
691.60 0.2851
691.70 0.285
691.80 0.2848
691.90 0.2846
692.00 0.2845
692.10 0.2843
692.20 0.2842
692.30 0.284
692.40 0.2838
692.50 0.2837
692.60 0.2835
692.70 0.2834
692.80 0.2832
692.90 0.2831
693.00 0.2829
693.10 0.2827
693.20 0.2826
693.30 0.2824
693.40 0.2823
693.50 0.2821
693.60 0.2819
693.70 0.2818
693.80 0.2816
693.90 0.2815
694.00 0.2813
694.10 0.2812
694.20 0.281
694.30 0.2808
694.40 0.2807
694.50 0.2805
694.60 0.2804
694.70 0.2802
694.80 0.2801
694.90 0.2799
695.00 0.2797
695.10 0.2796
695.20 0.2794
695.30 0.2793
695.40 0.2791
695.50 0.279
695.60 0.2788
695.70 0.2787
695.80 0.2785
695.90 0.2783
696.00 0.2782
696.10 0.278
696.20 0.2779
696.30 0.2777
696.40 0.2776
696.50 0.2774
696.60 0.2773
696.70 0.2771
696.80 0.277
696.90 0.2768
697.00 0.2766
697.10 0.2765
697.20 0.2763
697.30 0.2762
697.40 0.276
697.50 0.2759
697.60 0.2757
697.70 0.2756
697.80 0.2754
697.90 0.2753
698.00 0.2751
698.10 0.275
698.20 0.2748
698.30 0.2746
698.40 0.2745
698.50 0.2743
698.60 0.2742
698.70 0.274
698.80 0.2739
698.90 0.2737
699.00 0.2736
699.10 0.2734
699.20 0.2733
699.30 0.2731
699.40 0.273
699.50 0.2728
699.60 0.2727
699.70 0.2725
699.80 0.2724
699.90 0.2722
700.00 0.2721
700.10 0.2719
700.20 0.2718
700.30 0.2716
700.40 0.2715
700.50 0.2713
700.60 0.2712
700.70 0.271
700.80 0.2709
700.90 0.2707
701.00 0.2706
701.10 0.2704
701.20 0.2703
701.30 0.2701
701.40 0.27
701.50 0.2698
701.60 0.2697
701.70 0.2695
701.80 0.2694
701.90 0.2692
702.00 0.2691
702.10 0.2689
702.20 0.2688
702.30 0.2686
702.40 0.2685
702.50 0.2683
702.60 0.2682
702.70 0.268
702.80 0.2679
702.90 0.2677
703.00 0.2676
703.10 0.2674
703.20 0.2673
703.30 0.2671
703.40 0.267
703.50 0.2668
703.60 0.2667
703.70 0.2665
703.80 0.2664
703.90 0.2663
704.00 0.2661
704.10 0.266
704.20 0.2658
704.30 0.2657
704.40 0.2655
704.50 0.2654
704.60 0.2652
704.70 0.2651
704.80 0.2649
704.90 0.2648
705.00 0.2646
705.10 0.2645
705.20 0.2643
705.30 0.2642
705.40 0.2641
705.50 0.2639
705.60 0.2638
705.70 0.2636
705.80 0.2635
705.90 0.2633
706.00 0.2632
706.10 0.263
706.20 0.2629
706.30 0.2628
706.40 0.2626
706.50 0.2625
706.60 0.2623
706.70 0.2622
706.80 0.262
706.90 0.2619
707.00 0.2617
707.10 0.2616
707.20 0.2615
707.30 0.2613
707.40 0.2612
707.50 0.261
707.60 0.2609
707.70 0.2607
707.80 0.2606
707.90 0.2605
708.00 0.2603
708.10 0.2602
708.20 0.26
708.30 0.2599
708.40 0.2597
708.50 0.2596
708.60 0.2595
708.70 0.2593
708.80 0.2592
708.90 0.259
709.00 0.2589
709.10 0.2587
709.20 0.2586
709.30 0.2585
709.40 0.2583
709.50 0.2582
709.60 0.258
709.70 0.2579
709.80 0.2577
709.90 0.2576
710.00 0.2575
710.10 0.2573
710.20 0.2572
710.30 0.257
710.40 0.2569
710.50 0.2568
710.60 0.2566
710.70 0.2565
710.80 0.2563
710.90 0.2562
711.00 0.2561
711.10 0.2559
711.20 0.2558
711.30 0.2556
711.40 0.2555
711.50 0.2554
711.60 0.2552
711.70 0.2551
711.80 0.255
711.90 0.2548
712.00 0.2547
712.10 0.2545
712.20 0.2544
712.30 0.2543
712.40 0.2541
712.50 0.254
712.60 0.2538
712.70 0.2537
712.80 0.2536
712.90 0.2534
713.00 0.2533
713.10 0.2531
713.20 0.253
713.30 0.2529
713.40 0.2527
713.50 0.2526
713.60 0.2525
713.70 0.2523
713.80 0.2522
713.90 0.252
714.00 0.2519
714.10 0.2518
714.20 0.2516
714.30 0.2515
714.40 0.2514
714.50 0.2512
714.60 0.2511
714.70 0.2509
714.80 0.2508
714.90 0.2507
715.00 0.2505
715.10 0.2504
715.20 0.2503
715.30 0.2501
715.40 0.25
715.50 0.2499
715.60 0.2497
715.70 0.2496
715.80 0.2495
715.90 0.2493
716.00 0.2492
716.10 0.249
716.20 0.2489
716.30 0.2488
716.40 0.2486
716.50 0.2485
716.60 0.2484
716.70 0.2482
716.80 0.2481
716.90 0.248
717.00 0.2478
717.10 0.2477
717.20 0.2476
717.30 0.2474
717.40 0.2473
717.50 0.2472
717.60 0.247
717.70 0.2469
717.80 0.2468
717.90 0.2466
718.00 0.2465
718.10 0.2464
718.20 0.2462
718.30 0.2461
718.40 0.246
718.50 0.2458
718.60 0.2457
718.70 0.2456
718.80 0.2454
718.90 0.2453
719.00 0.2452
719.10 0.245
719.20 0.2449
719.30 0.2448
719.40 0.2446
719.50 0.2445
719.60 0.2444
719.70 0.2442
719.80 0.2441
719.90 0.244
720.00 0.2438
720.10 0.2437
720.20 0.2436
720.30 0.2434
720.40 0.2433
720.50 0.2432
720.60 0.243
720.70 0.2429
720.80 0.2428
720.90 0.2427
721.00 0.2425
721.10 0.2424
721.20 0.2423
721.30 0.2421
721.40 0.242
721.50 0.2419
721.60 0.2417
721.70 0.2416
721.80 0.2415
721.90 0.2414
722.00 0.2412
722.10 0.2411
722.20 0.241
722.30 0.2408
722.40 0.2407
722.50 0.2406
722.60 0.2404
722.70 0.2403
722.80 0.2402
722.90 0.2401
723.00 0.2399
723.10 0.2398
723.20 0.2397
723.30 0.2395
723.40 0.2394
723.50 0.2393
723.60 0.2392
723.70 0.239
723.80 0.2389
723.90 0.2388
724.00 0.2386
724.10 0.2385
724.20 0.2384
724.30 0.2383
724.40 0.2381
724.50 0.238
724.60 0.2379
724.70 0.2377
724.80 0.2376
724.90 0.2375
725.00 0.2374
725.10 0.2372
725.20 0.2371
725.30 0.237
725.40 0.2369
725.50 0.2367
725.60 0.2366
725.70 0.2365
725.80 0.2363
725.90 0.2362
726.00 0.2361
726.10 0.236
726.20 0.2358
726.30 0.2357
726.40 0.2356
726.50 0.2355
726.60 0.2353
726.70 0.2352
726.80 0.2351
726.90 0.235
727.00 0.2348
727.10 0.2347
727.20 0.2346
727.30 0.2345
727.40 0.2343
727.50 0.2342
727.60 0.2341
727.70 0.234
727.80 0.2338
727.90 0.2337
728.00 0.2336
728.10 0.2335
728.20 0.2333
728.30 0.2332
728.40 0.2331
728.50 0.233
728.60 0.2328
728.70 0.2327
728.80 0.2326
728.90 0.2325
729.00 0.2323
729.10 0.2322
729.20 0.2321
729.30 0.232
729.40 0.2318
729.50 0.2317
729.60 0.2316
729.70 0.2315
729.80 0.2313
729.90 0.2312
730.00 0.2311
730.10 0.231
730.20 0.2309
730.30 0.2307
730.40 0.2306
730.50 0.2305
730.60 0.2304
730.70 0.2302
730.80 0.2301
730.90 0.23
731.00 0.2299
731.10 0.2298
731.20 0.2296
731.30 0.2295
731.40 0.2294
731.50 0.2293
731.60 0.2291
731.70 0.229
731.80 0.2289
731.90 0.2288
732.00 0.2287
732.10 0.2285
732.20 0.2284
732.30 0.2283
732.40 0.2282
732.50 0.2281
732.60 0.2279
732.70 0.2278
732.80 0.2277
732.90 0.2276
733.00 0.2275
733.10 0.2273
733.20 0.2272
733.30 0.2271
733.40 0.227
733.50 0.2269
733.60 0.2267
733.70 0.2266
733.80 0.2265
733.90 0.2264
734.00 0.2263
734.10 0.2261
734.20 0.226
734.30 0.2259
734.40 0.2258
734.50 0.2257
734.60 0.2255
734.70 0.2254
734.80 0.2253
734.90 0.2252
735.00 0.2251
735.10 0.2249
735.20 0.2248
735.30 0.2247
735.40 0.2246
735.50 0.2245
735.60 0.2243
735.70 0.2242
735.80 0.2241
735.90 0.224
736.00 0.2239
736.10 0.2238
736.20 0.2236
736.30 0.2235
736.40 0.2234
736.50 0.2233
736.60 0.2232
736.70 0.223
736.80 0.2229
736.90 0.2228
737.00 0.2227
737.10 0.2226
737.20 0.2225
737.30 0.2223
737.40 0.2222
737.50 0.2221
737.60 0.222
737.70 0.2219
737.80 0.2217
737.90 0.2216
738.00 0.2215
738.10 0.2214
738.20 0.2213
738.30 0.2212
738.40 0.221
738.50 0.2209
738.60 0.2208
738.70 0.2207
738.80 0.2206
738.90 0.2205
739.00 0.2203
739.10 0.2202
739.20 0.2201
739.30 0.22
739.40 0.2199
739.50 0.2198
739.60 0.2196
739.70 0.2195
739.80 0.2194
739.90 0.2193
740.00 0.2192
740.10 0.2191
740.20 0.2189
740.30 0.2188
740.40 0.2187
740.50 0.2186
740.60 0.2185
740.70 0.2184
740.80 0.2183
740.90 0.2181
741.00 0.218
741.10 0.2179
741.20 0.2178
741.30 0.2177
741.40 0.2176
741.50 0.2175
741.60 0.2174
741.70 0.2172
741.80 0.2171
741.90 0.217
742.00 0.2169
742.10 0.2168
742.20 0.2167
742.30 0.2166
742.40 0.2164
742.50 0.2163
742.60 0.2162
742.70 0.2161
742.80 0.216
742.90 0.2159
743.00 0.2158
743.10 0.2157
743.20 0.2155
743.30 0.2154
743.40 0.2153
743.50 0.2152
743.60 0.2151
743.70 0.215
743.80 0.2149
743.90 0.2148
744.00 0.2146
744.10 0.2145
744.20 0.2144
744.30 0.2143
744.40 0.2142
744.50 0.2141
744.60 0.214
744.70 0.2139
744.80 0.2138
744.90 0.2136
745.00 0.2135
745.10 0.2134
745.20 0.2133
745.30 0.2132
745.40 0.2131
745.50 0.213
745.60 0.2129
745.70 0.2128
745.80 0.2126
745.90 0.2125
746.00 0.2124
746.10 0.2123
746.20 0.2122
746.30 0.2121
746.40 0.212
746.50 0.2119
746.60 0.2118
746.70 0.2116
746.80 0.2115
746.90 0.2114
747.00 0.2113
747.10 0.2112
747.20 0.2111
747.30 0.211
747.40 0.2109
747.50 0.2108
747.60 0.2106
747.70 0.2105
747.80 0.2104
747.90 0.2103
748.00 0.2102
748.10 0.2101
748.20 0.21
748.30 0.2099
748.40 0.2098
748.50 0.2097
748.60 0.2095
748.70 0.2094
748.80 0.2093
748.90 0.2092
749.00 0.2091
749.10 0.209
749.20 0.2089
749.30 0.2088
749.40 0.2087
749.50 0.2086
749.60 0.2085
749.70 0.2083
749.80 0.2082
749.90 0.2081
750.00 0.208
750.10 0.2079
750.20 0.2078
750.30 0.2077
750.40 0.2076
750.50 0.2075
750.60 0.2074
750.70 0.2073
750.80 0.2072
750.90 0.2071
751.00 0.2069
751.10 0.2068
751.20 0.2067
751.30 0.2066
751.40 0.2065
751.50 0.2064
751.60 0.2063
751.70 0.2062
751.80 0.2061
751.90 0.206
752.00 0.2059
752.10 0.2058
752.20 0.2057
752.30 0.2056
752.40 0.2055
752.50 0.2054
752.60 0.2053
752.70 0.2051
752.80 0.205
752.90 0.2049
753.00 0.2048
753.10 0.2047
753.20 0.2046
753.30 0.2045
753.40 0.2044
753.50 0.2043
753.60 0.2042
753.70 0.2041
753.80 0.204
753.90 0.2039
754.00 0.2038
754.10 0.2037
754.20 0.2036
754.30 0.2035
754.40 0.2034
754.50 0.2033
754.60 0.2031
754.70 0.203
754.80 0.2029
754.90 0.2028
755.00 0.2027
755.10 0.2026
755.20 0.2025
755.30 0.2024
755.40 0.2023
755.50 0.2022
755.60 0.2021
755.70 0.202
755.80 0.2019
755.90 0.2018
756.00 0.2017
756.10 0.2016
756.20 0.2015
756.30 0.2014
756.40 0.2013
756.50 0.2012
756.60 0.2011
756.70 0.201
756.80 0.2009
756.90 0.2007
757.00 0.2006
757.10 0.2005
757.20 0.2004
757.30 0.2003
757.40 0.2002
757.50 0.2001
757.60 0.2
757.70 0.1999
757.80 0.1998
757.90 0.1997
758.00 0.1996
758.10 0.1995
758.20 0.1994
758.30 0.1993
758.40 0.1992
758.50 0.1991
758.60 0.199
758.70 0.1989
758.80 0.1988
758.90 0.1987
759.00 0.1986
759.10 0.1985
759.20 0.1984
759.30 0.1983
759.40 0.1982
759.50 0.1981
759.60 0.198
759.70 0.1979
759.80 0.1978
759.90 0.1977
760.00 0.1976
760.10 0.1975
760.20 0.1974
760.30 0.1973
760.40 0.1972
760.50 0.1971
760.60 0.197
760.70 0.1969
760.80 0.1968
760.90 0.1967
761.00 0.1966
761.10 0.1965
761.20 0.1964
761.30 0.1963
761.40 0.1962
761.50 0.1961
761.60 0.196
761.70 0.1959
761.80 0.1958
761.90 0.1957
762.00 0.1956
762.10 0.1955
762.20 0.1954
762.30 0.1953
762.40 0.1952
762.50 0.1951
762.60 0.195
762.70 0.1949
762.80 0.1948
762.90 0.1947
763.00 0.1946
763.10 0.1945
763.20 0.1944
763.30 0.1943
763.40 0.1942
763.50 0.1941
763.60 0.194
763.70 0.1939
763.80 0.1938
763.90 0.1937
764.00 0.1936
764.10 0.1935
764.20 0.1934
764.30 0.1933
764.40 0.1932
764.50 0.1931
764.60 0.193
764.70 0.1929
764.80 0.1928
764.90 0.1927
765.00 0.1926
765.10 0.1925
765.20 0.1924
765.30 0.1923
765.40 0.1922
765.50 0.1921
765.60 0.192
765.70 0.1919
765.80 0.1918
765.90 0.1917
766.00 0.1916
766.10 0.1915
766.20 0.1914
766.30 0.1913
766.40 0.1912
766.50 0.1911
766.60 0.191
766.70 0.1909
766.80 0.1908
766.90 0.1907
767.00 0.1906
767.10 0.1905
767.20 0.1905
767.30 0.1904
767.40 0.1903
767.50 0.1902
767.60 0.1901
767.70 0.19
767.80 0.1899
767.90 0.1898
768.00 0.1897
768.10 0.1896
768.20 0.1895
768.30 0.1894
768.40 0.1893
768.50 0.1892
768.60 0.1891
768.70 0.189
768.80 0.1889
768.90 0.1888
769.00 0.1887
769.10 0.1886
769.20 0.1885
769.30 0.1884
769.40 0.1883
769.50 0.1882
769.60 0.1881
769.70 0.188
769.80 0.1879
769.90 0.1878
770.00 0.1878
770.10 0.1877
770.20 0.1876
770.30 0.1875
770.40 0.1874
770.50 0.1873
770.60 0.1872
770.70 0.1871
770.80 0.187
770.90 0.1869
771.00 0.1868
771.10 0.1867
771.20 0.1866
771.30 0.1865
771.40 0.1864
771.50 0.1863
771.60 0.1863
771.70 0.1862
771.80 0.1861
771.90 0.186
772.00 0.1859
772.10 0.1858
772.20 0.1857
772.30 0.1856
772.40 0.1855
772.50 0.1854
772.60 0.1853
772.70 0.1852
772.80 0.1851
772.90 0.185
773.00 0.1849
773.10 0.1849
773.20 0.1848
773.30 0.1847
773.40 0.1846
773.50 0.1845
773.60 0.1844
773.70 0.1843
773.80 0.1842
773.90 0.1841
774.00 0.184
774.10 0.1839
774.20 0.1838
774.30 0.1837
774.40 0.1837
774.50 0.1836
774.60 0.1835
774.70 0.1834
774.80 0.1833
774.90 0.1832
775.00 0.1831
775.10 0.183
775.20 0.1829
775.30 0.1828
775.40 0.1827
775.50 0.1826
775.60 0.1825
775.70 0.1825
775.80 0.1824
775.90 0.1823
776.00 0.1822
776.10 0.1821
776.20 0.182
776.30 0.1819
776.40 0.1818
776.50 0.1817
776.60 0.1816
776.70 0.1815
776.80 0.1814
776.90 0.1814
777.00 0.1813
777.10 0.1812
777.20 0.1811
777.30 0.181
777.40 0.1809
777.50 0.1808
777.60 0.1807
777.70 0.1806
777.80 0.1805
777.90 0.1804
778.00 0.1804
778.10 0.1803
778.20 0.1802
778.30 0.1801
778.40 0.18
778.50 0.1799
778.60 0.1798
778.70 0.1797
778.80 0.1796
778.90 0.1795
779.00 0.1794
779.10 0.1794
779.20 0.1793
779.30 0.1792
779.40 0.1791
779.50 0.179
779.60 0.1789
779.70 0.1788
779.80 0.1787
779.90 0.1786
780.00 0.1785
780.10 0.1785
780.20 0.1784
780.30 0.1783
780.40 0.1782
780.50 0.1781
780.60 0.178
780.70 0.1779
780.80 0.1778
780.90 0.1778
781.00 0.1777
781.10 0.1776
781.20 0.1775
781.30 0.1774
781.40 0.1773
781.50 0.1772
781.60 0.1771
781.70 0.177
781.80 0.177
781.90 0.1769
782.00 0.1768
782.10 0.1767
782.20 0.1766
782.30 0.1765
782.40 0.1764
782.50 0.1763
782.60 0.1763
782.70 0.1762
782.80 0.1761
782.90 0.176
783.00 0.1759
783.10 0.1758
783.20 0.1757
783.30 0.1757
783.40 0.1756
783.50 0.1755
783.60 0.1754
783.70 0.1753
783.80 0.1752
783.90 0.1751
784.00 0.175
784.10 0.175
784.20 0.1749
784.30 0.1748
784.40 0.1747
784.50 0.1746
784.60 0.1745
784.70 0.1744
784.80 0.1743
784.90 0.1743
785.00 0.1742
785.10 0.1741
785.20 0.174
785.30 0.1739
785.40 0.1738
785.50 0.1737
785.60 0.1737
785.70 0.1736
785.80 0.1735
785.90 0.1734
786.00 0.1733
786.10 0.1732
786.20 0.1731
786.30 0.1731
786.40 0.173
786.50 0.1729
786.60 0.1728
786.70 0.1727
786.80 0.1726
786.90 0.1725
787.00 0.1725
787.10 0.1724
787.20 0.1723
787.30 0.1722
787.40 0.1721
787.50 0.172
787.60 0.1719
787.70 0.1719
787.80 0.1718
787.90 0.1717
788.00 0.1716
788.10 0.1715
788.20 0.1714
788.30 0.1713
788.40 0.1713
788.50 0.1712
788.60 0.1711
788.70 0.171
788.80 0.1709
788.90 0.1708
789.00 0.1707
789.10 0.1707
789.20 0.1706
789.30 0.1705
789.40 0.1704
789.50 0.1703
789.60 0.1702
789.70 0.1702
789.80 0.1701
789.90 0.17
790.00 0.1699
790.10 0.1698
790.20 0.1697
790.30 0.1697
790.40 0.1696
790.50 0.1695
790.60 0.1694
790.70 0.1693
790.80 0.1692
790.90 0.1692
791.00 0.1691
791.10 0.169
791.20 0.1689
791.30 0.1688
791.40 0.1687
791.50 0.1687
791.60 0.1686
791.70 0.1685
791.80 0.1684
791.90 0.1683
792.00 0.1682
792.10 0.1682
792.20 0.1681
792.30 0.168
792.40 0.1679
792.50 0.1678
792.60 0.1678
792.70 0.1677
792.80 0.1676
792.90 0.1675
793.00 0.1674
793.10 0.1673
793.20 0.1673
793.30 0.1672
793.40 0.1671
793.50 0.167
793.60 0.1669
793.70 0.1669
793.80 0.1668
793.90 0.1667
794.00 0.1666
794.10 0.1665
794.20 0.1664
794.30 0.1664
794.40 0.1663
794.50 0.1662
794.60 0.1661
794.70 0.166
794.80 0.166
794.90 0.1659
795.00 0.1658
795.10 0.1657
795.20 0.1656
795.30 0.1655
795.40 0.1655
795.50 0.1654
795.60 0.1653
795.70 0.1652
795.80 0.1651
795.90 0.1651
796.00 0.165
796.10 0.1649
796.20 0.1648
796.30 0.1647
796.40 0.1647
796.50 0.1646
796.60 0.1645
796.70 0.1644
796.80 0.1643
796.90 0.1643
797.00 0.1642
797.10 0.1641
797.20 0.164
797.30 0.1639
797.40 0.1639
797.50 0.1638
797.60 0.1637
797.70 0.1636
797.80 0.1635
797.90 0.1634
798.00 0.1634
798.10 0.1633
798.20 0.1632
798.30 0.1631
798.40 0.163
798.50 0.163
798.60 0.1629
798.70 0.1628
798.80 0.1627
798.90 0.1626
799.00 0.1626
799.10 0.1625
799.20 0.1624
799.30 0.1623
799.40 0.1622
799.50 0.1622
799.60 0.1621
799.70 0.162
799.80 0.1619
799.90 0.1619
800.00 0.1618
800.10 0.1617
800.20 0.1616
800.30 0.1615
800.40 0.1615
800.50 0.1614
800.60 0.1613
800.70 0.1612
800.80 0.1611
800.90 0.1611
801.00 0.161
801.10 0.1609
801.20 0.1608
801.30 0.1608
801.40 0.1607
801.50 0.1606
801.60 0.1605
801.70 0.1604
801.80 0.1604
801.90 0.1603
802.00 0.1602
802.10 0.1601
802.20 0.1601
802.30 0.16
802.40 0.1599
802.50 0.1598
802.60 0.1598
802.70 0.1597
802.80 0.1596
802.90 0.1595
803.00 0.1594
803.10 0.1594
803.20 0.1593
803.30 0.1592
803.40 0.1591
803.50 0.1591
803.60 0.159
803.70 0.1589
803.80 0.1588
803.90 0.1587
804.00 0.1587
804.10 0.1586
804.20 0.1585
804.30 0.1584
804.40 0.1584
804.50 0.1583
804.60 0.1582
804.70 0.1581
804.80 0.1581
804.90 0.158
805.00 0.1579
805.10 0.1578
805.20 0.1578
805.30 0.1577
805.40 0.1576
805.50 0.1575
805.60 0.1574
805.70 0.1574
805.80 0.1573
805.90 0.1572
806.00 0.1571
806.10 0.1571
806.20 0.157
806.30 0.1569
806.40 0.1568
806.50 0.1568
806.60 0.1567
806.70 0.1566
806.80 0.1565
806.90 0.1565
807.00 0.1564
807.10 0.1563
807.20 0.1562
807.30 0.1562
807.40 0.1561
807.50 0.156
807.60 0.1559
807.70 0.1559
807.80 0.1558
807.90 0.1557
808.00 0.1556
808.10 0.1556
808.20 0.1555
808.30 0.1554
808.40 0.1553
808.50 0.1552
808.60 0.1552
808.70 0.1551
808.80 0.155
808.90 0.1549
809.00 0.1549
809.10 0.1548
809.20 0.1547
809.30 0.1546
809.40 0.1546
809.50 0.1545
809.60 0.1544
809.70 0.1543
809.80 0.1543
809.90 0.1542
810.00 0.1541
810.10 0.154
810.20 0.154
810.30 0.1539
810.40 0.1538
810.50 0.1538
810.60 0.1537
810.70 0.1536
810.80 0.1535
810.90 0.1535
811.00 0.1534
811.10 0.1533
811.20 0.1532
811.30 0.1532
811.40 0.1531
811.50 0.153
811.60 0.153
811.70 0.1529
811.80 0.1528
811.90 0.1527
812.00 0.1527
812.10 0.1526
812.20 0.1525
812.30 0.1524
812.40 0.1524
812.50 0.1523
812.60 0.1522
812.70 0.1521
812.80 0.1521
812.90 0.152
813.00 0.1519
813.10 0.1519
813.20 0.1518
813.30 0.1517
813.40 0.1516
813.50 0.1516
813.60 0.1515
813.70 0.1514
813.80 0.1514
813.90 0.1513
814.00 0.1512
814.10 0.1511
814.20 0.1511
814.30 0.151
814.40 0.1509
814.50 0.1508
814.60 0.1508
814.70 0.1507
814.80 0.1506
814.90 0.1506
815.00 0.1505
815.10 0.1504
815.20 0.1503
815.30 0.1503
815.40 0.1502
815.50 0.1501
815.60 0.1501
815.70 0.15
815.80 0.1499
815.90 0.1498
816.00 0.1498
816.10 0.1497
816.20 0.1496
816.30 0.1496
816.40 0.1495
816.50 0.1494
816.60 0.1493
816.70 0.1493
816.80 0.1492
816.90 0.1491
817.00 0.1491
817.10 0.149
817.20 0.1489
817.30 0.1488
817.40 0.1488
817.50 0.1487
817.60 0.1486
817.70 0.1486
817.80 0.1485
817.90 0.1484
818.00 0.1483
818.10 0.1483
818.20 0.1482
818.30 0.1481
818.40 0.1481
818.50 0.148
818.60 0.1479
818.70 0.1478
818.80 0.1478
818.90 0.1477
819.00 0.1476
819.10 0.1476
819.20 0.1475
819.30 0.1474
819.40 0.1473
819.50 0.1473
819.60 0.1472
819.70 0.1471
819.80 0.1471
819.90 0.147
820.00 0.1469
820.10 0.1469
820.20 0.1468
820.30 0.1467
820.40 0.1466
820.50 0.1466
820.60 0.1465
820.70 0.1464
820.80 0.1464
820.90 0.1463
821.00 0.1462
821.10 0.1462
821.20 0.1461
821.30 0.146
821.40 0.1459
821.50 0.1459
821.60 0.1458
821.70 0.1457
821.80 0.1457
821.90 0.1456
822.00 0.1455
822.10 0.1455
822.20 0.1454
822.30 0.1453
822.40 0.1453
822.50 0.1452
822.60 0.1451
822.70 0.1451
822.80 0.145
822.90 0.1449
823.00 0.1448
823.10 0.1448
823.20 0.1447
823.30 0.1446
823.40 0.1446
823.50 0.1445
823.60 0.1444
823.70 0.1444
823.80 0.1443
823.90 0.1442
824.00 0.1442
824.10 0.1441
824.20 0.144
824.30 0.144
824.40 0.1439
824.50 0.1438
824.60 0.1438
824.70 0.1437
824.80 0.1436
824.90 0.1436
825.00 0.1435
825.10 0.1434
825.20 0.1433
825.30 0.1433
825.40 0.1432
825.50 0.1431
825.60 0.1431
825.70 0.143
825.80 0.1429
825.90 0.1429
826.00 0.1428
826.10 0.1427
826.20 0.1427
826.30 0.1426
826.40 0.1425
826.50 0.1425
826.60 0.1424
826.70 0.1423
826.80 0.1423
826.90 0.1422
827.00 0.1421
827.10 0.1421
827.20 0.142
827.30 0.1419
827.40 0.1419
827.50 0.1418
827.60 0.1417
827.70 0.1417
827.80 0.1416
827.90 0.1415
828.00 0.1415
828.10 0.1414
828.20 0.1413
828.30 0.1413
828.40 0.1412
828.50 0.1411
828.60 0.1411
828.70 0.141
828.80 0.1409
828.90 0.1409
829.00 0.1408
829.10 0.1407
829.20 0.1407
829.30 0.1406
829.40 0.1405
829.50 0.1405
829.60 0.1404
829.70 0.1403
829.80 0.1403
829.90 0.1402
830.00 0.1401
830.10 0.1401
830.20 0.14
830.30 0.1399
830.40 0.1399
830.50 0.1398
830.60 0.1397
830.70 0.1397
830.80 0.1396
830.90 0.1396
831.00 0.1395
831.10 0.1394
831.20 0.1394
831.30 0.1393
831.40 0.1392
831.50 0.1392
831.60 0.1391
831.70 0.139
831.80 0.139
831.90 0.1389
832.00 0.1388
832.10 0.1388
832.20 0.1387
832.30 0.1386
832.40 0.1386
832.50 0.1385
832.60 0.1384
832.70 0.1384
832.80 0.1383
832.90 0.1382
833.00 0.1382
833.10 0.1381
833.20 0.1381
833.30 0.138
833.40 0.1379
833.50 0.1379
833.60 0.1378
833.70 0.1377
833.80 0.1377
833.90 0.1376
834.00 0.1375
834.10 0.1375
834.20 0.1374
834.30 0.1373
834.40 0.1373
834.50 0.1372
834.60 0.1372
834.70 0.1371
834.80 0.137
834.90 0.137
835.00 0.1369
835.10 0.1368
835.20 0.1368
835.30 0.1367
835.40 0.1366
835.50 0.1366
835.60 0.1365
835.70 0.1364
835.80 0.1364
835.90 0.1363
836.00 0.1363
836.10 0.1362
836.20 0.1361
836.30 0.1361
836.40 0.136
836.50 0.1359
836.60 0.1359
836.70 0.1358
836.80 0.1357
836.90 0.1357
837.00 0.1356
837.10 0.1356
837.20 0.1355
837.30 0.1354
837.40 0.1354
837.50 0.1353
837.60 0.1352
837.70 0.1352
837.80 0.1351
837.90 0.1351
838.00 0.135
838.10 0.1349
838.20 0.1349
838.30 0.1348
838.40 0.1347
838.50 0.1347
838.60 0.1346
838.70 0.1346
838.80 0.1345
838.90 0.1344
839.00 0.1344
839.10 0.1343
839.20 0.1342
839.30 0.1342
839.40 0.1341
839.50 0.1341
839.60 0.134
839.70 0.1339
839.80 0.1339
839.90 0.1338
840.00 0.1337
840.10 0.1337
840.20 0.1336
840.30 0.1336
840.40 0.1335
840.50 0.1334
840.60 0.1334
840.70 0.1333
840.80 0.1332
840.90 0.1332
841.00 0.1331
841.10 0.1331
841.20 0.133
841.30 0.1329
841.40 0.1329
841.50 0.1328
841.60 0.1327
841.70 0.1327
841.80 0.1326
841.90 0.1326
842.00 0.1325
842.10 0.1324
842.20 0.1324
842.30 0.1323
842.40 0.1323
842.50 0.1322
842.60 0.1321
842.70 0.1321
842.80 0.132
842.90 0.132
843.00 0.1319
843.10 0.1318
843.20 0.1318
843.30 0.1317
843.40 0.1316
843.50 0.1316
843.60 0.1315
843.70 0.1315
843.80 0.1314
843.90 0.1313
844.00 0.1313
844.10 0.1312
844.20 0.1312
844.30 0.1311
844.40 0.131
844.50 0.131
844.60 0.1309
844.70 0.1309
844.80 0.1308
844.90 0.1307
845.00 0.1307
845.10 0.1306
845.20 0.1306
845.30 0.1305
845.40 0.1304
845.50 0.1304
845.60 0.1303
845.70 0.1303
845.80 0.1302
845.90 0.1301
846.00 0.1301
846.10 0.13
846.20 0.13
846.30 0.1299
846.40 0.1298
846.50 0.1298
846.60 0.1297
846.70 0.1296
846.80 0.1296
846.90 0.1295
847.00 0.1295
847.10 0.1294
847.20 0.1294
847.30 0.1293
847.40 0.1292
847.50 0.1292
847.60 0.1291
847.70 0.1291
847.80 0.129
847.90 0.1289
848.00 0.1289
848.10 0.1288
848.20 0.1288
848.30 0.1287
848.40 0.1286
848.50 0.1286
848.60 0.1285
848.70 0.1285
848.80 0.1284
848.90 0.1283
849.00 0.1283
849.10 0.1282
849.20 0.1282
849.30 0.1281
849.40 0.128
849.50 0.128
849.60 0.1279
849.70 0.1279
849.80 0.1278
849.90 0.1278
850.00 0.1277
850.10 0.1276
850.20 0.1276
850.30 0.1275
850.40 0.1275
850.50 0.1274
850.60 0.1273
850.70 0.1273
850.80 0.1272
850.90 0.1272
851.00 0.1271
851.10 0.127
851.20 0.127
851.30 0.1269
851.40 0.1269
851.50 0.1268
851.60 0.1268
851.70 0.1267
851.80 0.1266
851.90 0.1266
852.00 0.1265
852.10 0.1265
852.20 0.1264
852.30 0.1264
852.40 0.1263
852.50 0.1262
852.60 0.1262
852.70 0.1261
852.80 0.1261
852.90 0.126
853.00 0.1259
853.10 0.1259
853.20 0.1258
853.30 0.1258
853.40 0.1257
853.50 0.1257
853.60 0.1256
853.70 0.1255
853.80 0.1255
853.90 0.1254
854.00 0.1254
854.10 0.1253
854.20 0.1253
854.30 0.1252
854.40 0.1251
854.50 0.1251
854.60 0.125
854.70 0.125
854.80 0.1249
854.90 0.1249
855.00 0.1248
855.10 0.1247
855.20 0.1247
855.30 0.1246
855.40 0.1246
855.50 0.1245
855.60 0.1245
855.70 0.1244
855.80 0.1243
855.90 0.1243
856.00 0.1242
856.10 0.1242
856.20 0.1241
856.30 0.1241
856.40 0.124
856.50 0.1239
856.60 0.1239
856.70 0.1238
856.80 0.1238
856.90 0.1237
857.00 0.1237
857.10 0.1236
857.20 0.1236
857.30 0.1235
857.40 0.1234
857.50 0.1234
857.60 0.1233
857.70 0.1233
857.80 0.1232
857.90 0.1232
858.00 0.1231
858.10 0.123
858.20 0.123
858.30 0.1229
858.40 0.1229
858.50 0.1228
858.60 0.1228
858.70 0.1227
858.80 0.1227
858.90 0.1226
859.00 0.1225
859.10 0.1225
859.20 0.1224
859.30 0.1224
859.40 0.1223
859.50 0.1223
859.60 0.1222
859.70 0.1222
859.80 0.1221
859.90 0.122
860.00 0.122
860.10 0.1219
860.20 0.1219
860.30 0.1218
860.40 0.1218
860.50 0.1217
860.60 0.1217
860.70 0.1216
860.80 0.1216
860.90 0.1215
861.00 0.1214
861.10 0.1214
861.20 0.1213
861.30 0.1213
861.40 0.1212
861.50 0.1212
861.60 0.1211
861.70 0.1211
861.80 0.121
861.90 0.1209
862.00 0.1209
862.10 0.1208
862.20 0.1208
862.30 0.1207
862.40 0.1207
862.50 0.1206
862.60 0.1206
862.70 0.1205
862.80 0.1205
862.90 0.1204
863.00 0.1203
863.10 0.1203
863.20 0.1202
863.30 0.1202
863.40 0.1201
863.50 0.1201
863.60 0.12
863.70 0.12
863.80 0.1199
863.90 0.1199
864.00 0.1198
864.10 0.1197
864.20 0.1197
864.30 0.1196
864.40 0.1196
864.50 0.1195
864.60 0.1195
864.70 0.1194
864.80 0.1194
864.90 0.1193
865.00 0.1193
865.10 0.1192
865.20 0.1192
865.30 0.1191
865.40 0.119
865.50 0.119
865.60 0.1189
865.70 0.1189
865.80 0.1188
865.90 0.1188
866.00 0.1187
866.10 0.1187
866.20 0.1186
866.30 0.1186
866.40 0.1185
866.50 0.1185
866.60 0.1184
866.70 0.1183
866.80 0.1183
866.90 0.1182
867.00 0.1182
867.10 0.1181
867.20 0.1181
867.30 0.118
867.40 0.118
867.50 0.1179
867.60 0.1179
867.70 0.1178
867.80 0.1178
867.90 0.1177
868.00 0.1177
868.10 0.1176
868.20 0.1176
868.30 0.1175
868.40 0.1174
868.50 0.1174
868.60 0.1173
868.70 0.1173
868.80 0.1172
868.90 0.1172
869.00 0.1171
869.10 0.1171
869.20 0.117
869.30 0.117
869.40 0.1169
869.50 0.1169
869.60 0.1168
869.70 0.1168
869.80 0.1167
869.90 0.1167
870.00 0.1166
870.10 0.1166
870.20 0.1165
870.30 0.1164
870.40 0.1164
870.50 0.1163
870.60 0.1163
870.70 0.1162
870.80 0.1162
870.90 0.1161
871.00 0.1161
871.10 0.116
871.20 0.116
871.30 0.1159
871.40 0.1159
871.50 0.1158
871.60 0.1158
871.70 0.1157
871.80 0.1157
871.90 0.1156
872.00 0.1156
872.10 0.1155
872.20 0.1155
872.30 0.1154
872.40 0.1154
872.50 0.1153
872.60 0.1153
872.70 0.1152
872.80 0.1151
872.90 0.1151
873.00 0.115
873.10 0.115
873.20 0.1149
873.30 0.1149
873.40 0.1148
873.50 0.1148
873.60 0.1147
873.70 0.1147
873.80 0.1146
873.90 0.1146
874.00 0.1145
874.10 0.1145
874.20 0.1144
874.30 0.1144
874.40 0.1143
874.50 0.1143
874.60 0.1142
874.70 0.1142
874.80 0.1141
874.90 0.1141
875.00 0.114
875.10 0.114
875.20 0.1139
875.30 0.1139
875.40 0.1138
875.50 0.1138
875.60 0.1137
875.70 0.1137
875.80 0.1136
875.90 0.1136
876.00 0.1135
876.10 0.1135
876.20 0.1134
876.30 0.1134
876.40 0.1133
876.50 0.1133
876.60 0.1132
876.70 0.1132
876.80 0.1131
876.90 0.1131
877.00 0.113
877.10 0.113
877.20 0.1129
877.30 0.1129
877.40 0.1128
877.50 0.1128
877.60 0.1127
877.70 0.1127
877.80 0.1126
877.90 0.1126
878.00 0.1125
878.10 0.1125
878.20 0.1124
878.30 0.1124
878.40 0.1123
878.50 0.1123
878.60 0.1122
878.70 0.1122
878.80 0.1121
878.90 0.1121
879.00 0.112
879.10 0.112
879.20 0.1119
879.30 0.1119
879.40 0.1118
879.50 0.1118
879.60 0.1117
879.70 0.1117
879.80 0.1116
879.90 0.1116
880.00 0.1115
880.10 0.1115
880.20 0.1114
880.30 0.1114
880.40 0.1113
880.50 0.1113
880.60 0.1112
880.70 0.1112
880.80 0.1111
880.90 0.1111
881.00 0.111
881.10 0.111
881.20 0.1109
881.30 0.1109
881.40 0.1108
881.50 0.1108
881.60 0.1107
881.70 0.1107
881.80 0.1106
881.90 0.1106
882.00 0.1105
882.10 0.1105
882.20 0.1104
882.30 0.1104
882.40 0.1103
882.50 0.1103
882.60 0.1102
882.70 0.1102
882.80 0.1101
882.90 0.1101
883.00 0.11
883.10 0.11
883.20 0.1099
883.30 0.1099
883.40 0.1098
883.50 0.1098
883.60 0.1097
883.70 0.1097
883.80 0.1097
883.90 0.1096
884.00 0.1096
884.10 0.1095
884.20 0.1095
884.30 0.1094
884.40 0.1094
884.50 0.1093
884.60 0.1093
884.70 0.1092
884.80 0.1092
884.90 0.1091
885.00 0.1091
885.10 0.109
885.20 0.109
885.30 0.1089
885.40 0.1089
885.50 0.1088
885.60 0.1088
885.70 0.1087
885.80 0.1087
885.90 0.1086
886.00 0.1086
886.10 0.1085
886.20 0.1085
886.30 0.1084
886.40 0.1084
886.50 0.1084
886.60 0.1083
886.70 0.1083
886.80 0.1082
886.90 0.1082
887.00 0.1081
887.10 0.1081
887.20 0.108
887.30 0.108
887.40 0.1079
887.50 0.1079
887.60 0.1078
887.70 0.1078
887.80 0.1077
887.90 0.1077
888.00 0.1076
888.10 0.1076
888.20 0.1075
888.30 0.1075
888.40 0.1074
888.50 0.1074
888.60 0.1074
888.70 0.1073
888.80 0.1073
888.90 0.1072
889.00 0.1072
889.10 0.1071
889.20 0.1071
889.30 0.107
889.40 0.107
889.50 0.1069
889.60 0.1069
889.70 0.1068
889.80 0.1068
889.90 0.1067
890.00 0.1067
890.10 0.1066
890.20 0.1066
890.30 0.1066
890.40 0.1065
890.50 0.1065
890.60 0.1064
890.70 0.1064
890.80 0.1063
890.90 0.1063
891.00 0.1062
891.10 0.1062
891.20 0.1061
891.30 0.1061
891.40 0.106
891.50 0.106
891.60 0.1059
891.70 0.1059
891.80 0.1059
891.90 0.1058
892.00 0.1058
892.10 0.1057
892.20 0.1057
892.30 0.1056
892.40 0.1056
892.50 0.1055
892.60 0.1055
892.70 0.1054
892.80 0.1054
892.90 0.1053
893.00 0.1053
893.10 0.1053
893.20 0.1052
893.30 0.1052
893.40 0.1051
893.50 0.1051
893.60 0.105
893.70 0.105
893.80 0.1049
893.90 0.1049
894.00 0.1048
894.10 0.1048
894.20 0.1048
894.30 0.1047
894.40 0.1047
894.50 0.1046
894.60 0.1046
894.70 0.1045
894.80 0.1045
894.90 0.1044
895.00 0.1044
895.10 0.1043
895.20 0.1043
895.30 0.1043
895.40 0.1042
895.50 0.1042
895.60 0.1041
895.70 0.1041
895.80 0.104
895.90 0.104
896.00 0.1039
896.10 0.1039
896.20 0.1038
896.30 0.1038
896.40 0.1038
896.50 0.1037
896.60 0.1037
896.70 0.1036
896.80 0.1036
896.90 0.1035
897.00 0.1035
897.10 0.1034
897.20 0.1034
897.30 0.1033
897.40 0.1033
897.50 0.1033
897.60 0.1032
897.70 0.1032
897.80 0.1031
897.90 0.1031
898.00 0.103
898.10 0.103
898.20 0.1029
898.30 0.1029
898.40 0.1029
898.50 0.1028
898.60 0.1028
898.70 0.1027
898.80 0.1027
898.90 0.1026
899.00 0.1026
899.10 0.1025
899.20 0.1025
899.30 0.1025
899.40 0.1024
899.50 0.1024
899.60 0.1023
899.70 0.1023
899.80 0.1022
899.90 0.1022
900.00 0.1021
900.10 0.1021
900.20 0.1021
900.30 0.102
900.40 0.102
900.50 0.1019
900.60 0.1019
900.70 0.1018
900.80 0.1018
900.90 0.1018
901.00 0.1017
901.10 0.1017
901.20 0.1016
901.30 0.1016
901.40 0.1015
901.50 0.1015
901.60 0.1014
901.70 0.1014
901.80 0.1014
901.90 0.1013
902.00 0.1013
902.10 0.1012
902.20 0.1012
902.30 0.1011
902.40 0.1011
902.50 0.101
902.60 0.101
902.70 0.101
902.80 0.1009
902.90 0.1009
903.00 0.1008
903.10 0.1008
903.20 0.1007
903.30 0.1007
903.40 0.1007
903.50 0.1006
903.60 0.1006
903.70 0.1005
903.80 0.1005
903.90 0.1004
904.00 0.1004
904.10 0.1004
904.20 0.1003
904.30 0.1003
904.40 0.1002
904.50 0.1002
904.60 0.1001
904.70 0.1001
904.80 0.1
904.90 0.1
905.00 0.09996
905.10 0.09992
905.20 0.09988
905.30 0.09983
905.40 0.09979
905.50 0.09975
905.60 0.0997
905.70 0.09966
905.80 0.09962
905.90 0.09957
906.00 0.09953
906.10 0.09949
906.20 0.09945
906.30 0.0994
906.40 0.09936
906.50 0.09932
906.60 0.09927
906.70 0.09923
906.80 0.09919
906.90 0.09914
907.00 0.0991
907.10 0.09906
907.20 0.09902
907.30 0.09897
907.40 0.09893
907.50 0.09889
907.60 0.09885
907.70 0.0988
907.80 0.09876
907.90 0.09872
908.00 0.09868
908.10 0.09863
908.20 0.09859
908.30 0.09855
908.40 0.09851
908.50 0.09847
908.60 0.09842
908.70 0.09838
908.80 0.09834
908.90 0.0983
909.00 0.09825
909.10 0.09821
909.20 0.09817
909.30 0.09813
909.40 0.09809
909.50 0.09804
909.60 0.098
909.70 0.09796
909.80 0.09792
909.90 0.09788
910.00 0.09783
910.10 0.09779
910.20 0.09775
910.30 0.09771
910.40 0.09767
910.50 0.09762
910.60 0.09758
910.70 0.09754
910.80 0.0975
910.90 0.09746
911.00 0.09742
911.10 0.09737
911.20 0.09733
911.30 0.09729
911.40 0.09725
911.50 0.09721
911.60 0.09716
911.70 0.09712
911.80 0.09708
911.90 0.09704
912.00 0.097
912.10 0.09696
912.20 0.09692
912.30 0.09687
912.40 0.09683
912.50 0.09679
912.60 0.09675
912.70 0.09671
912.80 0.09667
912.90 0.09663
913.00 0.09659
913.10 0.09654
913.20 0.0965
913.30 0.09646
913.40 0.09642
913.50 0.09638
913.60 0.09634
913.70 0.0963
913.80 0.09626
913.90 0.09622
914.00 0.09618
914.10 0.09613
914.20 0.09609
914.30 0.09605
914.40 0.09601
914.50 0.09597
914.60 0.09593
914.70 0.09589
914.80 0.09585
914.90 0.09581
915.00 0.09577
915.10 0.09573
915.20 0.09569
915.30 0.09564
915.40 0.0956
915.50 0.09556
915.60 0.09552
915.70 0.09548
915.80 0.09544
915.90 0.0954
916.00 0.09536
916.10 0.09532
916.20 0.09528
916.30 0.09524
916.40 0.0952
916.50 0.09516
916.60 0.09512
916.70 0.09508
916.80 0.09504
916.90 0.09499
917.00 0.09495
917.10 0.09491
917.20 0.09487
917.30 0.09483
917.40 0.09479
917.50 0.09475
917.60 0.09471
917.70 0.09468
917.80 0.09464
917.90 0.0946
918.00 0.09456
918.10 0.09452
918.20 0.09448
918.30 0.09444
918.40 0.0944
918.50 0.09436
918.60 0.09432
918.70 0.09428
918.80 0.09424
918.90 0.0942
919.00 0.09416
919.10 0.09412
919.20 0.09408
919.30 0.09404
919.40 0.094
919.50 0.09396
919.60 0.09392
919.70 0.09388
919.80 0.09384
919.90 0.0938
920.00 0.09376
920.10 0.09372
920.20 0.09368
920.30 0.09364
920.40 0.0936
920.50 0.09357
920.60 0.09353
920.70 0.09349
920.80 0.09345
920.90 0.09341
921.00 0.09337
921.10 0.09333
921.20 0.09329
921.30 0.09325
921.40 0.09321
921.50 0.09317
921.60 0.09313
921.70 0.09309
921.80 0.09305
921.90 0.09301
922.00 0.09298
922.10 0.09294
922.20 0.0929
922.30 0.09286
922.40 0.09282
922.50 0.09278
922.60 0.09274
922.70 0.0927
922.80 0.09266
922.90 0.09262
923.00 0.09258
923.10 0.09254
923.20 0.0925
923.30 0.09247
923.40 0.09243
923.50 0.09239
923.60 0.09235
923.70 0.09231
923.80 0.09227
923.90 0.09223
924.00 0.09219
924.10 0.09215
924.20 0.09211
924.30 0.09208
924.40 0.09204
924.50 0.092
924.60 0.09196
924.70 0.09192
924.80 0.09188
924.90 0.09184
925.00 0.0918
925.10 0.09176
925.20 0.09173
925.30 0.09169
925.40 0.09165
925.50 0.09161
925.60 0.09157
925.70 0.09153
925.80 0.09149
925.90 0.09145
926.00 0.09142
926.10 0.09138
926.20 0.09134
926.30 0.0913
926.40 0.09126
926.50 0.09122
926.60 0.09118
926.70 0.09114
926.80 0.09111
926.90 0.09107
927.00 0.09103
927.10 0.09099
927.20 0.09095
927.30 0.09091
927.40 0.09088
927.50 0.09084
927.60 0.0908
927.70 0.09076
927.80 0.09072
927.90 0.09069
928.00 0.09065
928.10 0.09061
928.20 0.09057
928.30 0.09053
928.40 0.0905
928.50 0.09046
928.60 0.09042
928.70 0.09038
928.80 0.09034
928.90 0.09031
929.00 0.09027
929.10 0.09023
929.20 0.09019
929.30 0.09015
929.40 0.09012
929.50 0.09008
929.60 0.09004
929.70 0.09
929.80 0.08997
929.90 0.08993
930.00 0.08989
930.10 0.08985
930.20 0.08981
930.30 0.08978
930.40 0.08974
930.50 0.0897
930.60 0.08966
930.70 0.08963
930.80 0.08959
930.90 0.08955
931.00 0.08951
931.10 0.08948
931.20 0.08944
931.30 0.0894
931.40 0.08936
931.50 0.08933
931.60 0.08929
931.70 0.08925
931.80 0.08921
931.90 0.08918
932.00 0.08914
932.10 0.0891
932.20 0.08906
932.30 0.08903
932.40 0.08899
932.50 0.08895
932.60 0.08891
932.70 0.08888
932.80 0.08884
932.90 0.0888
933.00 0.08877
933.10 0.08873
933.20 0.08869
933.30 0.08865
933.40 0.08862
933.50 0.08858
933.60 0.08854
933.70 0.08851
933.80 0.08847
933.90 0.08843
934.00 0.0884
934.10 0.08836
934.20 0.08832
934.30 0.08828
934.40 0.08825
934.50 0.08821
934.60 0.08817
934.70 0.08814
934.80 0.0881
934.90 0.08806
935.00 0.08803
935.10 0.08799
935.20 0.08795
935.30 0.08792
935.40 0.08788
935.50 0.08784
935.60 0.08781
935.70 0.08777
935.80 0.08773
935.90 0.0877
936.00 0.08766
936.10 0.08762
936.20 0.08759
936.30 0.08755
936.40 0.08751
936.50 0.08748
936.60 0.08744
936.70 0.0874
936.80 0.08737
936.90 0.08733
937.00 0.0873
937.10 0.08726
937.20 0.08722
937.30 0.08719
937.40 0.08715
937.50 0.08711
937.60 0.08708
937.70 0.08704
937.80 0.087
937.90 0.08697
938.00 0.08693
938.10 0.0869
938.20 0.08686
938.30 0.08682
938.40 0.08679
938.50 0.08675
938.60 0.08671
938.70 0.08668
938.80 0.08664
938.90 0.08661
939.00 0.08657
939.10 0.08653
939.20 0.0865
939.30 0.08646
939.40 0.08643
939.50 0.08639
939.60 0.08635
939.70 0.08632
939.80 0.08628
939.90 0.08625
940.00 0.08621
940.10 0.08617
940.20 0.08614
940.30 0.0861
940.40 0.08607
940.50 0.08603
940.60 0.086
940.70 0.08596
940.80 0.08592
940.90 0.08589
941.00 0.08585
941.10 0.08582
941.20 0.08578
941.30 0.08575
941.40 0.08571
941.50 0.08567
941.60 0.08564
941.70 0.0856
941.80 0.08557
941.90 0.08553
942.00 0.0855
942.10 0.08546
942.20 0.08542
942.30 0.08539
942.40 0.08535
942.50 0.08532
942.60 0.08528
942.70 0.08525
942.80 0.08521
942.90 0.08518
943.00 0.08514
943.10 0.08511
943.20 0.08507
943.30 0.08503
943.40 0.085
943.50 0.08496
943.60 0.08493
943.70 0.08489
943.80 0.08486
943.90 0.08482
944.00 0.08479
944.10 0.08475
944.20 0.08472
944.30 0.08468
944.40 0.08465
944.50 0.08461
944.60 0.08458
944.70 0.08454
944.80 0.08451
944.90 0.08447
945.00 0.08444
945.10 0.0844
945.20 0.08437
945.30 0.08433
945.40 0.0843
945.50 0.08426
945.60 0.08423
945.70 0.08419
945.80 0.08416
945.90 0.08412
946.00 0.08409
946.10 0.08405
946.20 0.08402
946.30 0.08398
946.40 0.08395
946.50 0.08391
946.60 0.08388
946.70 0.08384
946.80 0.08381
946.90 0.08377
947.00 0.08374
947.10 0.0837
947.20 0.08367
947.30 0.08364
947.40 0.0836
947.50 0.08357
947.60 0.08353
947.70 0.0835
947.80 0.08346
947.90 0.08343
948.00 0.08339
948.10 0.08336
948.20 0.08333
948.30 0.08329
948.40 0.08326
948.50 0.08322
948.60 0.08319
948.70 0.08315
948.80 0.08312
948.90 0.08309
949.00 0.08305
949.10 0.08302
949.20 0.08298
949.30 0.08295
949.40 0.08291
949.50 0.08288
949.60 0.08285
949.70 0.08281
949.80 0.08278
949.90 0.08275
950.00 0.08271
950.10 0.08268
950.20 0.08264
950.30 0.08261
950.40 0.08258
950.50 0.08254
950.60 0.08251
950.70 0.08248
950.80 0.08244
950.90 0.08241
951.00 0.08237
951.10 0.08234
951.20 0.08231
951.30 0.08227
951.40 0.08224
951.50 0.08221
951.60 0.08217
951.70 0.08214
951.80 0.08211
951.90 0.08207
952.00 0.08204
952.10 0.08201
952.20 0.08197
952.30 0.08194
952.40 0.08191
952.50 0.08187
952.60 0.08184
952.70 0.08181
952.80 0.08178
952.90 0.08174
953.00 0.08171
953.10 0.08168
953.20 0.08165
953.30 0.08161
953.40 0.08158
953.50 0.08155
953.60 0.08151
953.70 0.08148
953.80 0.08145
953.90 0.08142
954.00 0.08139
954.10 0.08135
954.20 0.08132
954.30 0.08129
954.40 0.08126
954.50 0.08123
954.60 0.08119
954.70 0.08116
954.80 0.08113
954.90 0.08109
955.00 0.08106
955.10 0.08102
955.20 0.08099
955.30 0.08096
955.40 0.08092
955.50 0.08089
955.60 0.08085
955.70 0.08082
955.80 0.08079
955.90 0.08075
956.00 0.08072
956.10 0.08069
956.20 0.08065
956.30 0.08062
956.40 0.08059
956.50 0.08055
956.60 0.08052
956.70 0.08049
956.80 0.08045
956.90 0.08042
957.00 0.08039
957.10 0.08035
957.20 0.08032
957.30 0.08029
957.40 0.08026
957.50 0.08022
957.60 0.08019
957.70 0.08016
957.80 0.08013
957.90 0.08009
958.00 0.08006
958.10 0.08003
958.20 0.08
958.30 0.07996
958.40 0.07993
958.50 0.0799
958.60 0.07987
958.70 0.07983
958.80 0.0798
958.90 0.07977
959.00 0.07974
959.10 0.0797
959.20 0.07967
959.30 0.07964
959.40 0.07961
959.50 0.07957
959.60 0.07954
959.70 0.07951
959.80 0.07948
959.90 0.07945
960.00 0.07941
960.10 0.07938
960.20 0.07935
960.30 0.07932
960.40 0.07929
960.50 0.07925
960.60 0.07922
960.70 0.07919
960.80 0.07916
960.90 0.07913
961.00 0.07909
961.10 0.07906
961.20 0.07903
961.30 0.079
961.40 0.07897
961.50 0.07893
961.60 0.0789
961.70 0.07887
961.80 0.07884
961.90 0.07881
962.00 0.07878
962.10 0.07874
962.20 0.07871
962.30 0.07868
962.40 0.07865
962.50 0.07862
962.60 0.07859
962.70 0.07856
962.80 0.07852
962.90 0.07849
963.00 0.07846
963.10 0.07843
963.20 0.0784
963.30 0.07837
963.40 0.07834
963.50 0.0783
963.60 0.07827
963.70 0.07824
963.80 0.07821
963.90 0.07818
964.00 0.07815
964.10 0.07812
964.20 0.07809
964.30 0.07805
964.40 0.07802
964.50 0.07799
964.60 0.07796
964.70 0.07793
964.80 0.0779
964.90 0.07787
965.00 0.07784
965.10 0.0778
965.20 0.07777
965.30 0.07774
965.40 0.07771
965.50 0.07768
965.60 0.07765
965.70 0.07762
965.80 0.07759
965.90 0.07756
966.00 0.07753
966.10 0.07749
966.20 0.07746
966.30 0.07743
966.40 0.0774
966.50 0.07737
966.60 0.07734
966.70 0.07731
966.80 0.07728
966.90 0.07725
967.00 0.07722
967.10 0.07719
967.20 0.07715
967.30 0.07712
967.40 0.07709
967.50 0.07706
967.60 0.07703
967.70 0.077
967.80 0.07697
967.90 0.07694
968.00 0.07691
968.10 0.07688
968.20 0.07685
968.30 0.07682
968.40 0.07679
968.50 0.07675
968.60 0.07672
968.70 0.07669
968.80 0.07666
968.90 0.07663
969.00 0.0766
969.10 0.07657
969.20 0.07654
969.30 0.07651
969.40 0.07648
969.50 0.07645
969.60 0.07642
969.70 0.07639
969.80 0.07636
969.90 0.07633
970.00 0.0763
970.10 0.07627
970.20 0.07623
970.30 0.0762
970.40 0.07617
970.50 0.07614
970.60 0.07611
970.70 0.07608
970.80 0.07605
970.90 0.07602
971.00 0.07599
971.10 0.07596
971.20 0.07593
971.30 0.0759
971.40 0.07587
971.50 0.07584
971.60 0.07581
971.70 0.07578
971.80 0.07575
971.90 0.07572
972.00 0.07569
972.10 0.07566
972.20 0.07563
972.30 0.0756
972.40 0.07557
972.50 0.07554
972.60 0.07551
972.70 0.07548
972.80 0.07545
972.90 0.07542
973.00 0.07539
973.10 0.07536
973.20 0.07533
973.30 0.0753
973.40 0.07527
973.50 0.07524
973.60 0.07521
973.70 0.07517
973.80 0.07514
973.90 0.07511
974.00 0.07508
974.10 0.07505
974.20 0.07502
974.30 0.07499
974.40 0.07496
974.50 0.07493
974.60 0.0749
974.70 0.07487
974.80 0.07484
974.90 0.07481
975.00 0.07478
975.10 0.07475
975.20 0.07472
975.30 0.07469
975.40 0.07466
975.50 0.07463
975.60 0.0746
975.70 0.07458
975.80 0.07455
975.90 0.07452
976.00 0.07449
976.10 0.07446
976.20 0.07443
976.30 0.0744
976.40 0.07437
976.50 0.07434
976.60 0.07431
976.70 0.07428
976.80 0.07425
976.90 0.07422
977.00 0.07419
977.10 0.07416
977.20 0.07413
977.30 0.0741
977.40 0.07407
977.50 0.07404
977.60 0.07401
977.70 0.07398
977.80 0.07395
977.90 0.07392
978.00 0.07389
978.10 0.07386
978.20 0.07383
978.30 0.0738
978.40 0.07377
978.50 0.07374
978.60 0.07371
978.70 0.07368
978.80 0.07365
978.90 0.07362
979.00 0.07359
979.10 0.07356
979.20 0.07353
979.30 0.0735
979.40 0.07348
979.50 0.07345
979.60 0.07342
979.70 0.07339
979.80 0.07336
979.90 0.07333
980.00 0.0733
980.10 0.07327
980.20 0.07324
980.30 0.07321
980.40 0.07318
980.50 0.07315
980.60 0.07312
980.70 0.07309
980.80 0.07306
980.90 0.07303
981.00 0.073
981.10 0.07297
981.20 0.07295
981.30 0.07292
981.40 0.07289
981.50 0.07286
981.60 0.07283
981.70 0.0728
981.80 0.07277
981.90 0.07274
982.00 0.07271
982.10 0.07268
982.20 0.07265
982.30 0.07262
982.40 0.07259
982.50 0.07256
982.60 0.07253
982.70 0.07251
982.80 0.07248
982.90 0.07245
983.00 0.07242
983.10 0.07239
983.20 0.07236
983.30 0.07233
983.40 0.0723
983.50 0.07227
983.60 0.07224
983.70 0.07221
983.80 0.07218
983.90 0.07216
984.00 0.07213
984.10 0.0721
984.20 0.07207
984.30 0.07204
984.40 0.07201
984.50 0.07198
984.60 0.07195
984.70 0.07192
984.80 0.07189
984.90 0.07186
985.00 0.07184
985.10 0.07181
985.20 0.07178
985.30 0.07175
985.40 0.07172
985.50 0.07169
985.60 0.07166
985.70 0.07163
985.80 0.0716
985.90 0.07157
986.00 0.07155
986.10 0.07152
986.20 0.07149
986.30 0.07146
986.40 0.07143
986.50 0.0714
986.60 0.07137
986.70 0.07134
986.80 0.07131
986.90 0.07128
987.00 0.07126
987.10 0.07123
987.20 0.0712
987.30 0.07117
987.40 0.07114
987.50 0.07111
987.60 0.07108
987.70 0.07105
987.80 0.07102
987.90 0.071
988.00 0.07097
988.10 0.07094
988.20 0.07091
988.30 0.07088
988.40 0.07085
988.50 0.07082
988.60 0.07079
988.70 0.07077
988.80 0.07074
988.90 0.07071
989.00 0.07068
989.10 0.07065
989.20 0.07062
989.30 0.07059
989.40 0.07056
989.50 0.07054
989.60 0.07051
989.70 0.07048
989.80 0.07045
989.90 0.07042
990.00 0.07039
990.10 0.07036
990.20 0.07034
990.30 0.07031
990.40 0.07028
990.50 0.07025
990.60 0.07022
990.70 0.07019
990.80 0.07016
990.90 0.07013
991.00 0.07011
991.10 0.07008
991.20 0.07005
991.30 0.07002
991.40 0.06999
991.50 0.06996
991.60 0.06993
991.70 0.06991
991.80 0.06988
991.90 0.06985
992.00 0.06982
992.10 0.06979
992.20 0.06976
992.30 0.06973
992.40 0.06971
992.50 0.06968
992.60 0.06965
992.70 0.06962
992.80 0.06959
992.90 0.06956
993.00 0.06954
993.10 0.06951
993.20 0.06948
993.30 0.06945
993.40 0.06942
993.50 0.06939
993.60 0.06937
993.70 0.06934
993.80 0.06931
993.90 0.06928
994.00 0.06925
994.10 0.06922
994.20 0.06919
994.30 0.06917
994.40 0.06914
994.50 0.06911
994.60 0.06908
994.70 0.06905
994.80 0.06903
994.90 0.069
995.00 0.06897
995.10 0.06894
995.20 0.06891
995.30 0.06888
995.40 0.06886
995.50 0.06883
995.60 0.0688
995.70 0.06877
995.80 0.06874
995.90 0.06871
996.00 0.06869
996.10 0.06866
996.20 0.06863
996.30 0.0686
996.40 0.06857
996.50 0.06855
996.60 0.06852
996.70 0.06849
996.80 0.06846
996.90 0.06843
997.00 0.06841
997.10 0.06838
997.20 0.06835
997.30 0.06832
997.40 0.0683
997.50 0.06827
997.60 0.06824
997.70 0.06821
997.80 0.06818
997.90 0.06816
998.00 0.06813
998.10 0.0681
998.20 0.06807
998.30 0.06805
998.40 0.06802
998.50 0.06799
998.60 0.06796
998.70 0.06794
998.80 0.06791
998.90 0.06788
999.00 0.06785
999.10 0.06783
999.20 0.0678
999.30 0.06777
999.40 0.06774
999.50 0.06772
999.60 0.06769
999.70 0.06766
999.80 0.06763
999.90 0.0676
1000.00 0.06757
1000.10 0.06755
1000.20 0.06752
1000.30 0.06749
1000.40 0.06746
1000.50 0.06743
1000.60 0.0674
1000.70 0.06737
1000.80 0.06735
1000.90 0.06732
1001.00 0.06729
1001.10 0.06726
1001.20 0.06723
1001.30 0.0672
1001.40 0.06718
1001.50 0.06715
1001.60 0.06712
1001.70 0.06709
1001.80 0.06707
1001.90 0.06704
1002.00 0.06702
1002.10 0.06699
1002.20 0.06697
1002.30 0.06694
1002.40 0.06692
1002.50 0.06689
1002.60 0.06687
1002.70 0.06684
1002.80 0.06682
1002.90 0.06679
1003.00 0.06677
1003.10 0.06674
1003.20 0.06672
1003.30 0.0667
1003.40 0.06667
1003.50 0.06665
1003.60 0.06663
1003.70 0.0666
1003.80 0.06658
1003.90 0.06656
1004.00 0.06653
1004.10 0.06651
1004.20 0.06649
1004.30 0.06647
1004.40 0.06644
1004.50 0.06642
1004.60 0.0664
1004.70 0.06637
1004.80 0.06634
1004.90 0.06632
1005.00 0.06629
1005.10 0.06627
1005.20 0.06624
1005.30 0.06621
1005.40 0.06619
1005.50 0.06616
1005.60 0.06613
1005.70 0.0661
1005.80 0.06607
1005.90 0.06605
1006.00 0.06602
1006.10 0.06599
1006.20 0.06596
1006.30 0.06593
1006.40 0.06591
1006.50 0.06588
1006.60 0.06585
1006.70 0.06582
1006.80 0.06579
1006.90 0.06577
1007.00 0.06574
1007.10 0.06571
1007.20 0.06569
1007.30 0.06566
1007.40 0.06563
1007.50 0.06561
1007.60 0.06558
1007.70 0.06556
1007.80 0.06553
1007.90 0.06551
1008.00 0.06548
1008.10 0.06545
1008.20 0.06543
1008.30 0.0654
1008.40 0.06538
1008.50 0.06535
1008.60 0.06533
1008.70 0.0653
1008.80 0.06528
1008.90 0.06525
1009.00 0.06523
1009.10 0.0652
1009.20 0.06518
1009.30 0.06515
1009.40 0.06513
1009.50 0.0651
1009.60 0.06508
1009.70 0.06505
1009.80 0.06503
1009.90 0.06501
1010.00 0.06498
1010.10 0.06496
1010.20 0.06493
1010.30 0.06491
1010.40 0.06489
1010.50 0.06486
1010.60 0.06484
1010.70 0.06481
1010.80 0.06479
1010.90 0.06476
1011.00 0.06474
1011.10 0.06472
1011.20 0.06469
1011.30 0.06467
1011.40 0.06464
1011.50 0.06462
1011.60 0.0646
1011.70 0.06457
1011.80 0.06455
1011.90 0.06453
1012.00 0.0645
1012.10 0.06448
1012.20 0.06445
1012.30 0.06443
1012.40 0.06441
1012.50 0.06438
1012.60 0.06436
1012.70 0.06434
1012.80 0.06431
1012.90 0.06429
1013.00 0.06427
1013.10 0.06424
1013.20 0.06422
1013.30 0.06419
1013.40 0.06417
1013.50 0.06415
1013.60 0.06412
1013.70 0.0641
1013.80 0.06408
1013.90 0.06405
1014.00 0.06403
1014.10 0.06401
1014.20 0.06398
1014.30 0.06396
1014.40 0.06394
1014.50 0.06391
1014.60 0.06389
1014.70 0.06387
1014.80 0.06384
1014.90 0.06382
1015.00 0.0638
1015.10 0.06377
1015.20 0.06375
1015.30 0.06373
1015.40 0.0637
1015.50 0.06368
1015.60 0.06366
1015.70 0.06363
1015.80 0.06361
1015.90 0.06359
1016.00 0.06356
1016.10 0.06354
1016.20 0.06352
1016.30 0.06349
1016.40 0.06347
1016.50 0.06345
1016.60 0.06342
1016.70 0.0634
1016.80 0.06338
1016.90 0.06335
1017.00 0.06333
1017.10 0.06331
1017.20 0.06328
1017.30 0.06326
1017.40 0.06324
1017.50 0.06321
1017.60 0.06319
1017.70 0.06317
1017.80 0.06314
1017.90 0.06312
1018.00 0.0631
1018.10 0.06307
1018.20 0.06305
1018.30 0.06303
1018.40 0.06301
1018.50 0.06298
1018.60 0.06296
1018.70 0.06294
1018.80 0.06291
1018.90 0.06289
1019.00 0.06287
1019.10 0.06284
1019.20 0.06282
1019.30 0.0628
1019.40 0.06277
1019.50 0.06275
1019.60 0.06273
1019.70 0.0627
1019.80 0.06268
1019.90 0.06266
1020.00 0.06263
1020.10 0.06261
1020.20 0.06259
1020.30 0.06257
1020.40 0.06254
1020.50 0.06252
1020.60 0.0625
1020.70 0.06247
1020.80 0.06245
1020.90 0.06243
1021.00 0.0624
1021.10 0.06238
1021.20 0.06236
1021.30 0.06233
1021.40 0.06231
1021.50 0.06229
1021.60 0.06227
1021.70 0.06224
1021.80 0.06222
1021.90 0.0622
1022.00 0.06217
1022.10 0.06215
1022.20 0.06213
1022.30 0.0621
1022.40 0.06208
1022.50 0.06206
1022.60 0.06204
1022.70 0.06201
1022.80 0.06199
1022.90 0.06197
1023.00 0.06194
1023.10 0.06192
1023.20 0.0619
1023.30 0.06187
1023.40 0.06185
1023.50 0.06183
1023.60 0.06181
1023.70 0.06178
1023.80 0.06176
1023.90 0.06174
1024.00 0.06171
1024.10 0.06169
1024.20 0.06167
1024.30 0.06165
1024.40 0.06162
1024.50 0.0616
1024.60 0.06158
1024.70 0.06155
1024.80 0.06153
1024.90 0.06151
1025.00 0.06149
1025.10 0.06146
1025.20 0.06144
1025.30 0.06142
1025.40 0.06139
1025.50 0.06137
1025.60 0.06135
1025.70 0.06133
1025.80 0.0613
1025.90 0.06128
1026.00 0.06126
1026.10 0.06124
1026.20 0.06121
1026.30 0.06119
1026.40 0.06117
1026.50 0.06114
1026.60 0.06112
1026.70 0.0611
1026.80 0.06108
1026.90 0.06105
1027.00 0.06103
1027.10 0.06101
1027.20 0.06098
1027.30 0.06096
1027.40 0.06094
1027.50 0.06092
1027.60 0.06089
1027.70 0.06087
1027.80 0.06085
1027.90 0.06083
1028.00 0.0608
1028.10 0.06078
1028.20 0.06076
1028.30 0.06074
1028.40 0.06071
1028.50 0.06069
1028.60 0.06067
1028.70 0.06064
1028.80 0.06062
1028.90 0.0606
1029.00 0.06058
1029.10 0.06055
1029.20 0.06053
1029.30 0.06051
1029.40 0.06049
1029.50 0.06046
1029.60 0.06044
1029.70 0.06042
1029.80 0.0604
1029.90 0.06037
1030.00 0.06035
1030.10 0.06033
1030.20 0.06031
1030.30 0.06028
1030.40 0.06026
1030.50 0.06024
1030.60 0.06022
1030.70 0.06019
1030.80 0.06017
1030.90 0.06015
1031.00 0.06013
1031.10 0.0601
1031.20 0.06008
1031.30 0.06006
1031.40 0.06004
1031.50 0.06001
1031.60 0.05999
1031.70 0.05997
1031.80 0.05995
1031.90 0.05993
1032.00 0.0599
1032.10 0.05988
1032.20 0.05986
1032.30 0.05984
1032.40 0.05981
1032.50 0.05979
1032.60 0.05977
1032.70 0.05975
1032.80 0.05972
1032.90 0.0597
1033.00 0.05968
1033.10 0.05966
1033.20 0.05963
1033.30 0.05961
1033.40 0.05959
1033.50 0.05957
1033.60 0.05955
1033.70 0.05952
1033.80 0.0595
1033.90 0.05948
1034.00 0.05946
1034.10 0.05943
1034.20 0.05941
1034.30 0.05939
1034.40 0.05937
1034.50 0.05935
1034.60 0.05932
1034.70 0.0593
1034.80 0.05928
1034.90 0.05926
1035.00 0.05923
1035.10 0.05921
1035.20 0.05919
1035.30 0.05917
1035.40 0.05915
1035.50 0.05912
1035.60 0.0591
1035.70 0.05908
1035.80 0.05906
1035.90 0.05904
1036.00 0.05901
1036.10 0.05899
1036.20 0.05897
1036.30 0.05895
1036.40 0.05893
1036.50 0.0589
1036.60 0.05888
1036.70 0.05886
1036.80 0.05884
1036.90 0.05882
1037.00 0.05879
1037.10 0.05877
1037.20 0.05875
1037.30 0.05873
1037.40 0.05871
1037.50 0.05868
1037.60 0.05866
1037.70 0.05864
1037.80 0.05862
1037.90 0.0586
1038.00 0.05857
1038.10 0.05855
1038.20 0.05853
1038.30 0.05851
1038.40 0.05849
1038.50 0.05846
1038.60 0.05844
1038.70 0.05842
1038.80 0.0584
1038.90 0.05838
1039.00 0.05836
1039.10 0.05833
1039.20 0.05831
1039.30 0.05829
1039.40 0.05827
1039.50 0.05825
1039.60 0.05822
1039.70 0.0582
1039.80 0.05818
1039.90 0.05816
1040.00 0.05814
1040.10 0.05812
1040.20 0.05809
1040.30 0.05807
1040.40 0.05805
1040.50 0.05803
1040.60 0.05801
1040.70 0.05799
1040.80 0.05796
1040.90 0.05794
1041.00 0.05792
1041.10 0.0579
1041.20 0.05788
1041.30 0.05786
1041.40 0.05783
1041.50 0.05781
1041.60 0.05779
1041.70 0.05777
1041.80 0.05775
1041.90 0.05773
1042.00 0.0577
1042.10 0.05768
1042.20 0.05766
1042.30 0.05764
1042.40 0.05762
1042.50 0.0576
1042.60 0.05757
1042.70 0.05755
1042.80 0.05753
1042.90 0.05751
1043.00 0.05749
1043.10 0.05747
1043.20 0.05745
1043.30 0.05742
1043.40 0.0574
1043.50 0.05738
1043.60 0.05736
1043.70 0.05734
1043.80 0.05732
1043.90 0.0573
1044.00 0.05727
1044.10 0.05725
1044.20 0.05723
1044.30 0.05721
1044.40 0.05719
1044.50 0.05717
1044.60 0.05715
1044.70 0.05712
1044.80 0.0571
1044.90 0.05708
1045.00 0.05706
1045.10 0.05704
1045.20 0.05702
1045.30 0.057
1045.40 0.05698
1045.50 0.05695
1045.60 0.05693
1045.70 0.05691
1045.80 0.05689
1045.90 0.05687
1046.00 0.05685
1046.10 0.05683
1046.20 0.0568
1046.30 0.05678
1046.40 0.05676
1046.50 0.05674
1046.60 0.05672
1046.70 0.0567
1046.80 0.05668
1046.90 0.05666
1047.00 0.05663
1047.10 0.05661
1047.20 0.05659
1047.30 0.05657
1047.40 0.05655
1047.50 0.05653
1047.60 0.05651
1047.70 0.05649
1047.80 0.05647
1047.90 0.05644
1048.00 0.05642
1048.10 0.0564
1048.20 0.05638
1048.30 0.05636
1048.40 0.05634
1048.50 0.05632
1048.60 0.0563
1048.70 0.05628
1048.80 0.05626
1048.90 0.05623
1049.00 0.05621
1049.10 0.05619
1049.20 0.05617
1049.30 0.05615
1049.40 0.05613
1049.50 0.05611
1049.60 0.05609
1049.70 0.05607
1049.80 0.05605
1049.90 0.05602
1050.00 0.056
1050.10 0.05598
1050.20 0.05596
1050.30 0.05594
1050.40 0.05592
1050.50 0.0559
1050.60 0.05588
1050.70 0.05586
1050.80 0.05584
1050.90 0.05582
1051.00 0.0558
1051.10 0.05577
1051.20 0.05575
1051.30 0.05573
1051.40 0.05571
1051.50 0.05569
1051.60 0.05567
1051.70 0.05565
1051.80 0.05563
1051.90 0.05561
1052.00 0.05559
1052.10 0.05557
1052.20 0.05555
1052.30 0.05552
1052.40 0.0555
1052.50 0.05548
1052.60 0.05546
1052.70 0.05544
1052.80 0.05542
1052.90 0.0554
1053.00 0.05538
1053.10 0.05536
1053.20 0.05534
1053.30 0.05532
1053.40 0.0553
1053.50 0.05528
1053.60 0.05526
1053.70 0.05524
1053.80 0.05521
1053.90 0.05519
1054.00 0.05517
1054.10 0.05515
1054.20 0.05513
1054.30 0.05511
1054.40 0.05509
1054.50 0.05507
1054.60 0.05505
1054.70 0.05503
1054.80 0.05501
1054.90 0.05499
1055.00 0.05497
1055.10 0.05495
1055.20 0.05493
1055.30 0.05491
1055.40 0.05489
1055.50 0.05486
1055.60 0.05484
1055.70 0.05482
1055.80 0.0548
1055.90 0.05478
1056.00 0.05476
1056.10 0.05474
1056.20 0.05472
1056.30 0.0547
1056.40 0.05468
1056.50 0.05466
1056.60 0.05464
1056.70 0.05462
1056.80 0.0546
1056.90 0.05458
1057.00 0.05456
1057.10 0.05454
1057.20 0.05452
1057.30 0.0545
1057.40 0.05448
1057.50 0.05446
1057.60 0.05444
1057.70 0.05442
1057.80 0.0544
1057.90 0.05437
1058.00 0.05435
1058.10 0.05433
1058.20 0.05431
1058.30 0.05429
1058.40 0.05427
1058.50 0.05425
1058.60 0.05423
1058.70 0.05421
1058.80 0.05419
1058.90 0.05417
1059.00 0.05415
1059.10 0.05413
1059.20 0.05411
1059.30 0.05409
1059.40 0.05407
1059.50 0.05405
1059.60 0.05403
1059.70 0.05401
1059.80 0.05399
1059.90 0.05397
1060.00 0.05395
1060.10 0.05393
1060.20 0.05391
1060.30 0.05389
1060.40 0.05387
1060.50 0.05385
1060.60 0.05383
1060.70 0.05381
1060.80 0.05379
1060.90 0.05377
1061.00 0.05375
1061.10 0.05373
1061.20 0.05371
1061.30 0.05369
1061.40 0.05367
1061.50 0.05365
1061.60 0.05363
1061.70 0.05361
1061.80 0.05359
1061.90 0.05357
1062.00 0.05355
1062.10 0.05353
1062.20 0.05351
1062.30 0.05349
1062.40 0.05347
1062.50 0.05345
1062.60 0.05343
1062.70 0.05341
1062.80 0.05339
1062.90 0.05337
1063.00 0.05335
1063.10 0.05333
1063.20 0.05331
1063.30 0.05329
1063.40 0.05327
1063.50 0.05325
1063.60 0.05323
1063.70 0.05321
1063.80 0.05319
1063.90 0.05317
1064.00 0.05315
1064.10 0.05313
1064.20 0.05311
1064.30 0.05309
1064.40 0.05307
1064.50 0.05305
1064.60 0.05303
1064.70 0.05301
1064.80 0.05299
1064.90 0.05297
1065.00 0.05295
1065.10 0.05293
1065.20 0.05291
1065.30 0.05289
1065.40 0.05287
1065.50 0.05285
1065.60 0.05283
1065.70 0.05281
1065.80 0.05279
1065.90 0.05277
1066.00 0.05275
1066.10 0.05273
1066.20 0.05271
1066.30 0.05269
1066.40 0.05267
1066.50 0.05265
1066.60 0.05263
1066.70 0.05261
1066.80 0.05259
1066.90 0.05257
1067.00 0.05255
1067.10 0.05253
1067.20 0.05251
1067.30 0.05249
1067.40 0.05247
1067.50 0.05245
1067.60 0.05243
1067.70 0.05241
1067.80 0.05239
1067.90 0.05237
1068.00 0.05235
1068.10 0.05233
1068.20 0.05231
1068.30 0.05229
1068.40 0.05227
1068.50 0.05225
1068.60 0.05223
1068.70 0.05222
1068.80 0.0522
1068.90 0.05218
1069.00 0.05216
1069.10 0.05214
1069.20 0.05212
1069.30 0.0521
1069.40 0.05208
1069.50 0.05206
1069.60 0.05204
1069.70 0.05202
1069.80 0.052
1069.90 0.05198
1070.00 0.05196
1070.10 0.05194
1070.20 0.05192
1070.30 0.0519
1070.40 0.05188
1070.50 0.05186
1070.60 0.05184
1070.70 0.05182
1070.80 0.0518
1070.90 0.05178
1071.00 0.05176
1071.10 0.05174
1071.20 0.05172
1071.30 0.0517
1071.40 0.05168
1071.50 0.05166
1071.60 0.05164
1071.70 0.05163
1071.80 0.05161
1071.90 0.05159
1072.00 0.05157
1072.10 0.05155
1072.20 0.05153
1072.30 0.05151
1072.40 0.05149
1072.50 0.05147
1072.60 0.05145
1072.70 0.05143
1072.80 0.05141
1072.90 0.05139
1073.00 0.05137
1073.10 0.05135
1073.20 0.05133
1073.30 0.05131
1073.40 0.05129
1073.50 0.05127
1073.60 0.05125
1073.70 0.05123
1073.80 0.05121
1073.90 0.05119
1074.00 0.05117
1074.10 0.05115
1074.20 0.05113
1074.30 0.05111
1074.40 0.05109
1074.50 0.05108
1074.60 0.05106
1074.70 0.05104
1074.80 0.05102
1074.90 0.051
1075.00 0.05098
1075.10 0.05096
1075.20 0.05094
1075.30 0.05092
1075.40 0.0509
1075.50 0.05088
1075.60 0.05086
1075.70 0.05084
1075.80 0.05082
1075.90 0.0508
1076.00 0.05078
1076.10 0.05076
1076.20 0.05074
1076.30 0.05072
1076.40 0.0507
1076.50 0.05068
1076.60 0.05066
1076.70 0.05064
1076.80 0.05062
1076.90 0.05061
1077.00 0.05059
1077.10 0.05057
1077.20 0.05055
1077.30 0.05053
1077.40 0.05051
1077.50 0.05049
1077.60 0.05047
1077.70 0.05045
1077.80 0.05043
1077.90 0.05041
1078.00 0.05039
1078.10 0.05037
1078.20 0.05035
1078.30 0.05033
1078.40 0.05031
1078.50 0.05029
1078.60 0.05027
1078.70 0.05025
1078.80 0.05023
1078.90 0.05021
1079.00 0.05019
1079.10 0.05017
1079.20 0.05015
1079.30 0.05013
1079.40 0.05011
1079.50 0.05009
1079.60 0.05007
1079.70 0.05005
1079.80 0.05003
1079.90 0.05002
1080.00 0.05
1080.10 0.04998
1080.20 0.04996
1080.30 0.04994
1080.40 0.04992
1080.50 0.0499
1080.60 0.04988
1080.70 0.04986
1080.80 0.04984
1080.90 0.04982
1081.00 0.0498
1081.10 0.04978
1081.20 0.04976
1081.30 0.04974
1081.40 0.04972
1081.50 0.0497
1081.60 0.04968
1081.70 0.04966
1081.80 0.04964
1081.90 0.04962
1082.00 0.0496
1082.10 0.04958
1082.20 0.04956
1082.30 0.04954
1082.40 0.04952
1082.50 0.0495
1082.60 0.04948
1082.70 0.04946
1082.80 0.04944
1082.90 0.04942
1083.00 0.0494
1083.10 0.04938
1083.20 0.04936
1083.30 0.04934
1083.40 0.04932
1083.50 0.0493
1083.60 0.04929
1083.70 0.04927
1083.80 0.04925
1083.90 0.04923
1084.00 0.04921
1084.10 0.04919
1084.20 0.04917
1084.30 0.04915
1084.40 0.04913
1084.50 0.04911
1084.60 0.04909
1084.70 0.04907
1084.80 0.04905
1084.90 0.04903
1085.00 0.04901
1085.10 0.04899
1085.20 0.04897
1085.30 0.04895
1085.40 0.04893
1085.50 0.04891
1085.60 0.04889
1085.70 0.04887
1085.80 0.04885
1085.90 0.04883
1086.00 0.04881
1086.10 0.04879
1086.20 0.04877
1086.30 0.04875
1086.40 0.04873
1086.50 0.04871
1086.60 0.04869
1086.70 0.04868
1086.80 0.04866
1086.90 0.04864
1087.00 0.04862
1087.10 0.0486
1087.20 0.04858
1087.30 0.04856
1087.40 0.04854
1087.50 0.04852
1087.60 0.0485
1087.70 0.04848
1087.80 0.04846
1087.90 0.04844
1088.00 0.04842
1088.10 0.0484
1088.20 0.04839
1088.30 0.04837
1088.40 0.04835
1088.50 0.04833
1088.60 0.04831
1088.70 0.04829
1088.80 0.04827
1088.90 0.04825
1089.00 0.04824
1089.10 0.04822
1089.20 0.0482
1089.30 0.04818
1089.40 0.04816
1089.50 0.04814
1089.60 0.04812
1089.70 0.04811
1089.80 0.04809
1089.90 0.04807
1090.00 0.04805
1090.10 0.04803
1090.20 0.04801
1090.30 0.04799
1090.40 0.04798
1090.50 0.04796
1090.60 0.04794
1090.70 0.04792
1090.80 0.04791
1090.90 0.04789
1091.00 0.04787
1091.10 0.04785
1091.20 0.04784
1091.30 0.04782
1091.40 0.0478
1091.50 0.04778
1091.60 0.04777
1091.70 0.04775
1091.80 0.04773
1091.90 0.04771
1092.00 0.0477
1092.10 0.04768
1092.20 0.04766
1092.30 0.04765
1092.40 0.04763
1092.50 0.04762
1092.60 0.0476
1092.70 0.04758
1092.80 0.04757
1092.90 0.04755
1093.00 0.04754
1093.10 0.04752
1093.20 0.04751
1093.30 0.0475
1093.40 0.04749
1093.50 0.04748
1093.60 0.04749
1093.70 0.04748
1093.80 0.04747
1093.90 0.04746
1094.00 0.04742
1094.10 0.04739
1094.20 0.04736
1094.30 0.04733
1094.40 0.04731
1094.50 0.0473
1094.60 0.04728
1094.70 0.04726
1094.80 0.04724
1094.90 0.04722
1095.00 0.0472
1095.10 0.04718
1095.20 0.04716
1095.30 0.04715
1095.40 0.04713
1095.50 0.04711
1095.60 0.0471
1095.70 0.04708
1095.80 0.04706
1095.90 0.04705
1096.00 0.04703
1096.10 0.04701
1096.20 0.047
1096.30 0.04698
1096.40 0.04696
1096.50 0.04695
1096.60 0.04693
1096.70 0.04691
1096.80 0.0469
1096.90 0.04688
1097.00 0.04686
1097.10 0.04685
1097.20 0.04683
1097.30 0.04682
1097.40 0.0468
1097.50 0.04679
1097.60 0.04677
1097.70 0.04676
1097.80 0.04674
1097.90 0.04673
1098.00 0.04671
1098.10 0.04669
1098.20 0.04668
1098.30 0.04666
1098.40 0.04665
1098.50 0.04663
1098.60 0.04662
1098.70 0.0466
1098.80 0.04659
1098.90 0.04657
1099.00 0.04656
1099.10 0.04654
1099.20 0.04653
1099.30 0.04651
1099.40 0.0465
1099.50 0.04649
1099.60 0.04647
1099.70 0.04646
1099.80 0.04644
1099.90 0.04643
1100.00 0.04641
1100.10 0.0464
1100.20 0.04638
1100.30 0.04637
1100.40 0.04635
1100.50 0.04634
1100.60 0.04632
1100.70 0.04631
1100.80 0.04629
1100.90 0.04628
1101.00 0.04627
1101.10 0.04625
1101.20 0.04624
1101.30 0.04622
1101.40 0.04621
1101.50 0.04619
1101.60 0.04618
1101.70 0.04617
1101.80 0.04615
1101.90 0.04614
1102.00 0.04612
1102.10 0.04611
1102.20 0.04609
1102.30 0.04608
1102.40 0.04606
1102.50 0.04605
1102.60 0.04604
1102.70 0.04602
1102.80 0.04601
1102.90 0.04599
1103.00 0.04598
1103.10 0.04596
1103.20 0.04595
1103.30 0.04594
1103.40 0.04592
1103.50 0.04591
1103.60 0.04589
1103.70 0.04588
1103.80 0.04586
1103.90 0.04585
1104.00 0.04583
1104.10 0.04582
1104.20 0.04581
1104.30 0.04579
1104.40 0.04578
1104.50 0.04576
1104.60 0.04575
1104.70 0.04573
1104.80 0.04572
1104.90 0.04571
1105.00 0.04569
1105.10 0.04568
1105.20 0.04566
1105.30 0.04565
1105.40 0.04563
1105.50 0.04562
1105.60 0.0456
1105.70 0.04559
1105.80 0.04558
1105.90 0.04556
1106.00 0.04555
1106.10 0.04553
1106.20 0.04552
1106.30 0.0455
1106.40 0.04549
1106.50 0.04547
1106.60 0.04546
1106.70 0.04545
1106.80 0.04543
1106.90 0.04542
1107.00 0.0454
1107.10 0.04539
1107.20 0.04537
1107.30 0.04536
1107.40 0.04534
1107.50 0.04533
1107.60 0.04531
1107.70 0.0453
1107.80 0.04529
1107.90 0.04527
1108.00 0.04526
1108.10 0.04524
1108.20 0.04523
1108.30 0.04521
1108.40 0.0452
1108.50 0.04518
1108.60 0.04517
1108.70 0.04515
1108.80 0.04514
1108.90 0.04512
1109.00 0.04511
1109.10 0.0451
1109.20 0.04508
1109.30 0.04507
1109.40 0.04505
1109.50 0.04504
1109.60 0.04502
1109.70 0.04501
1109.80 0.04499
1109.90 0.04498
1110.00 0.04496
1110.10 0.04495
1110.20 0.04493
1110.30 0.04492
1110.40 0.0449
1110.50 0.04489
1110.60 0.04487
1110.70 0.04486
1110.80 0.04485
1110.90 0.04483
1111.00 0.04482
1111.10 0.0448
1111.20 0.04479
1111.30 0.04477
1111.40 0.04476
1111.50 0.04474
1111.60 0.04473
1111.70 0.04471
1111.80 0.0447
1111.90 0.04468
1112.00 0.04467
1112.10 0.04465
1112.20 0.04464
1112.30 0.04462
1112.40 0.04461
1112.50 0.04459
1112.60 0.04458
1112.70 0.04457
1112.80 0.04455
1112.90 0.04454
1113.00 0.04452
1113.10 0.04451
1113.20 0.04449
1113.30 0.04448
1113.40 0.04446
1113.50 0.04445
1113.60 0.04443
1113.70 0.04442
1113.80 0.0444
1113.90 0.04439
1114.00 0.04437
1114.10 0.04436
1114.20 0.04434
1114.30 0.04433
1114.40 0.04431
1114.50 0.0443
1114.60 0.04428
1114.70 0.04427
1114.80 0.04425
1114.90 0.04424
1115.00 0.04422
1115.10 0.04421
1115.20 0.04419
1115.30 0.04418
1115.40 0.04417
1115.50 0.04415
1115.60 0.04414
1115.70 0.04412
1115.80 0.04411
1115.90 0.04409
1116.00 0.04408
1116.10 0.04406
1116.20 0.04405
1116.30 0.04403
1116.40 0.04402
1116.50 0.044
1116.60 0.04399
1116.70 0.04397
1116.80 0.04396
1116.90 0.04394
1117.00 0.04393
1117.10 0.04391
1117.20 0.0439
1117.30 0.04388
1117.40 0.04387
1117.50 0.04385
1117.60 0.04384
1117.70 0.04382
1117.80 0.04381
1117.90 0.04379
1118.00 0.04378
1118.10 0.04377
1118.20 0.04375
1118.30 0.04374
1118.40 0.04372
1118.50 0.04371
1118.60 0.04369
1118.70 0.04368
1118.80 0.04366
1118.90 0.04365
1119.00 0.04363
1119.10 0.04362
1119.20 0.0436
1119.30 0.04359
1119.40 0.04357
1119.50 0.04356
1119.60 0.04354
1119.70 0.04353
1119.80 0.04351
1119.90 0.0435
1120.00 0.04348
1120.10 0.04347
1120.20 0.04345
1120.30 0.04344
1120.40 0.04342
1120.50 0.04341
1120.60 0.0434
1120.70 0.04338
1120.80 0.04337
1120.90 0.04335
1121.00 0.04334
1121.10 0.04332
1121.20 0.04331
1121.30 0.04329
1121.40 0.04328
1121.50 0.04326
1121.60 0.04325
1121.70 0.04323
1121.80 0.04322
1121.90 0.0432
1122.00 0.04319
1122.10 0.04317
1122.20 0.04316
1122.30 0.04315
1122.40 0.04313
1122.50 0.04312
1122.60 0.0431
1122.70 0.04309
1122.80 0.04307
1122.90 0.04306
1123.00 0.04304
1123.10 0.04303
1123.20 0.04301
1123.30 0.043
1123.40 0.04298
1123.50 0.04297
1123.60 0.04295
1123.70 0.04294
1123.80 0.04292
1123.90 0.04291
1124.00 0.0429
1124.10 0.04288
1124.20 0.04287
1124.30 0.04285
1124.40 0.04284
1124.50 0.04282
1124.60 0.04281
1124.70 0.04279
1124.80 0.04278
1124.90 0.04276
1125.00 0.04275
1125.10 0.04273
1125.20 0.04272
1125.30 0.04271
1125.40 0.04269
1125.50 0.04268
1125.60 0.04266
1125.70 0.04265
1125.80 0.04263
1125.90 0.04262
1126.00 0.0426
1126.10 0.04259
1126.20 0.04257
1126.30 0.04256
1126.40 0.04254
1126.50 0.04253
1126.60 0.04252
1126.70 0.0425
1126.80 0.04249
1126.90 0.04247
1127.00 0.04246
1127.10 0.04244
1127.20 0.04243
1127.30 0.04241
1127.40 0.0424
1127.50 0.04239
1127.60 0.04237
1127.70 0.04236
1127.80 0.04234
1127.90 0.04233
1128.00 0.04231
1128.10 0.0423
1128.20 0.04228
1128.30 0.04227
1128.40 0.04225
1128.50 0.04224
1128.60 0.04223
1128.70 0.04221
1128.80 0.0422
1128.90 0.04218
1129.00 0.04217
1129.10 0.04215
1129.20 0.04214
1129.30 0.04212
1129.40 0.04211
1129.50 0.0421
1129.60 0.04208
1129.70 0.04207
1129.80 0.04205
1129.90 0.04204
1130.00 0.04202
1130.10 0.04201
1130.20 0.04199
1130.30 0.04198
1130.40 0.04197
1130.50 0.04195
1130.60 0.04194
1130.70 0.04192
1130.80 0.04191
1130.90 0.04189
1131.00 0.04188
1131.10 0.04187
1131.20 0.04185
1131.30 0.04184
1131.40 0.04182
1131.50 0.04181
1131.60 0.04179
1131.70 0.04178
1131.80 0.04177
1131.90 0.04175
1132.00 0.04174
1132.10 0.04172
1132.20 0.04171
1132.30 0.04169
1132.40 0.04168
1132.50 0.04167
1132.60 0.04165
1132.70 0.04164
1132.80 0.04162
1132.90 0.04161
1133.00 0.04159
1133.10 0.04158
1133.20 0.04157
1133.30 0.04155
1133.40 0.04154
1133.50 0.04152
1133.60 0.04151
1133.70 0.04149
1133.80 0.04148
1133.90 0.04147
1134.00 0.04145
1134.10 0.04144
1134.20 0.04142
1134.30 0.04141
1134.40 0.0414
1134.50 0.04138
1134.60 0.04137
1134.70 0.04135
1134.80 0.04134
1134.90 0.04132
1135.00 0.04131
1135.10 0.0413
1135.20 0.04128
1135.30 0.04127
1135.40 0.04125
1135.50 0.04124
1135.60 0.04123
1135.70 0.04121
1135.80 0.0412
1135.90 0.04118
1136.00 0.04117
1136.10 0.04115
1136.20 0.04114
1136.30 0.04113
1136.40 0.04111
1136.50 0.0411
1136.60 0.04108
1136.70 0.04107
1136.80 0.04106
1136.90 0.04104
1137.00 0.04103
1137.10 0.04101
1137.20 0.041
1137.30 0.04099
1137.40 0.04097
1137.50 0.04096
1137.60 0.04094
1137.70 0.04093
1137.80 0.04092
1137.90 0.0409
1138.00 0.04089
1138.10 0.04087
1138.20 0.04086
1138.30 0.04085
1138.40 0.04083
1138.50 0.04082
1138.60 0.0408
1138.70 0.04079
1138.80 0.04078
1138.90 0.04076
1139.00 0.04075
1139.10 0.04073
1139.20 0.04072
1139.30 0.04071
1139.40 0.04069
1139.50 0.04068
1139.60 0.04066
1139.70 0.04065
1139.80 0.04064
1139.90 0.04062
1140.00 0.04061
1140.10 0.0406
1140.20 0.04058
1140.30 0.04057
1140.40 0.04055
1140.50 0.04054
1140.60 0.04053
1140.70 0.04051
1140.80 0.0405
1140.90 0.04048
1141.00 0.04047
1141.10 0.04046
1141.20 0.04044
1141.30 0.04043
1141.40 0.04042
1141.50 0.0404
1141.60 0.04039
1141.70 0.04037
1141.80 0.04036
1141.90 0.04035
1142.00 0.04033
1142.10 0.04032
1142.20 0.0403
1142.30 0.04029
1142.40 0.04028
1142.50 0.04026
1142.60 0.04025
1142.70 0.04024
1142.80 0.04022
1142.90 0.04021
1143.00 0.04019
1143.10 0.04018
1143.20 0.04017
1143.30 0.04015
1143.40 0.04014
1143.50 0.04013
1143.60 0.04011
1143.70 0.0401
1143.80 0.04009
1143.90 0.04007
1144.00 0.04006
1144.10 0.04004
1144.20 0.04003
1144.30 0.04002
1144.40 0.04
1144.50 0.03999
1144.60 0.03998
1144.70 0.03996
1144.80 0.03995
1144.90 0.03994
1145.00 0.03992
1145.10 0.03991
1145.20 0.03989
1145.30 0.03988
1145.40 0.03987
1145.50 0.03985
1145.60 0.03984
1145.70 0.03983
1145.80 0.03981
1145.90 0.0398
1146.00 0.03979
1146.10 0.03977
1146.20 0.03976
1146.30 0.03974
1146.40 0.03973
1146.50 0.03972
1146.60 0.0397
1146.70 0.03969
1146.80 0.03968
1146.90 0.03966
1147.00 0.03965
1147.10 0.03964
1147.20 0.03962
1147.30 0.03961
1147.40 0.0396
1147.50 0.03958
1147.60 0.03957
1147.70 0.03956
1147.80 0.03954
1147.90 0.03953
1148.00 0.03952
1148.10 0.0395
1148.20 0.03949
1148.30 0.03948
1148.40 0.03946
1148.50 0.03945
1148.60 0.03944
1148.70 0.03942
1148.80 0.03941
1148.90 0.03939
1149.00 0.03938
1149.10 0.03937
1149.20 0.03935
1149.30 0.03934
1149.40 0.03933
1149.50 0.03931
1149.60 0.0393
1149.70 0.03929
1149.80 0.03927
1149.90 0.03926
1150.00 0.03925
1150.10 0.03923
1150.20 0.03922
1150.30 0.03921
1150.40 0.03919
1150.50 0.03918
1150.60 0.03917
1150.70 0.03915
1150.80 0.03914
1150.90 0.03913
1151.00 0.03911
1151.10 0.0391
1151.20 0.03909
1151.30 0.03907
1151.40 0.03906
1151.50 0.03905
1151.60 0.03903
1151.70 0.03902
1151.80 0.03901
1151.90 0.03899
1152.00 0.03898
1152.10 0.03897
1152.20 0.03896
1152.30 0.03894
1152.40 0.03893
1152.50 0.03892
1152.60 0.0389
1152.70 0.03889
1152.80 0.03888
1152.90 0.03886
1153.00 0.03885
1153.10 0.03884
1153.20 0.03882
1153.30 0.03881
1153.40 0.0388
1153.50 0.03878
1153.60 0.03877
1153.70 0.03876
1153.80 0.03874
1153.90 0.03873
1154.00 0.03872
1154.10 0.03871
1154.20 0.03869
1154.30 0.03868
1154.40 0.03867
1154.50 0.03865
1154.60 0.03864
1154.70 0.03863
1154.80 0.03861
1154.90 0.0386
1155.00 0.03859
1155.10 0.03857
1155.20 0.03856
1155.30 0.03855
1155.40 0.03854
1155.50 0.03852
1155.60 0.03851
1155.70 0.0385
1155.80 0.03848
1155.90 0.03847
1156.00 0.03846
1156.10 0.03844
1156.20 0.03843
1156.30 0.03842
1156.40 0.0384
1156.50 0.03839
1156.60 0.03838
1156.70 0.03837
1156.80 0.03835
1156.90 0.03834
1157.00 0.03833
1157.10 0.03831
1157.20 0.0383
1157.30 0.03829
1157.40 0.03827
1157.50 0.03826
1157.60 0.03825
1157.70 0.03824
1157.80 0.03822
1157.90 0.03821
1158.00 0.0382
1158.10 0.03818
1158.20 0.03817
1158.30 0.03816
1158.40 0.03815
1158.50 0.03813
1158.60 0.03812
1158.70 0.03811
1158.80 0.03809
1158.90 0.03808
1159.00 0.03807
1159.10 0.03806
1159.20 0.03804
1159.30 0.03803
1159.40 0.03802
1159.50 0.038
1159.60 0.03799
1159.70 0.03798
1159.80 0.03797
1159.90 0.03795
1160.00 0.03794
1160.10 0.03793
1160.20 0.03791
1160.30 0.0379
1160.40 0.03789
1160.50 0.03788
1160.60 0.03786
1160.70 0.03785
1160.80 0.03784
1160.90 0.03783
1161.00 0.03781
1161.10 0.0378
1161.20 0.03779
1161.30 0.03777
1161.40 0.03776
1161.50 0.03775
1161.60 0.03774
1161.70 0.03772
1161.80 0.03771
1161.90 0.0377
1162.00 0.03769
1162.10 0.03767
1162.20 0.03766
1162.30 0.03765
1162.40 0.03763
1162.50 0.03762
1162.60 0.03761
1162.70 0.0376
1162.80 0.03758
1162.90 0.03757
1163.00 0.03756
1163.10 0.03755
1163.20 0.03753
1163.30 0.03752
1163.40 0.03751
1163.50 0.0375
1163.60 0.03748
1163.70 0.03747
1163.80 0.03746
1163.90 0.03745
1164.00 0.03743
1164.10 0.03742
1164.20 0.03741
1164.30 0.03739
1164.40 0.03738
1164.50 0.03737
1164.60 0.03736
1164.70 0.03734
1164.80 0.03733
1164.90 0.03732
1165.00 0.03731
1165.10 0.03729
1165.20 0.03728
1165.30 0.03727
1165.40 0.03726
1165.50 0.03724
1165.60 0.03723
1165.70 0.03722
1165.80 0.03721
1165.90 0.03719
1166.00 0.03718
1166.10 0.03717
1166.20 0.03716
1166.30 0.03714
1166.40 0.03713
1166.50 0.03712
1166.60 0.03711
1166.70 0.03709
1166.80 0.03708
1166.90 0.03707
1167.00 0.03706
1167.10 0.03704
1167.20 0.03703
1167.30 0.03702
1167.40 0.03701
1167.50 0.03699
1167.60 0.03698
1167.70 0.03697
1167.80 0.03696
1167.90 0.03695
1168.00 0.03693
1168.10 0.03692
1168.20 0.03691
1168.30 0.0369
1168.40 0.03688
1168.50 0.03687
1168.60 0.03686
1168.70 0.03685
1168.80 0.03683
1168.90 0.03682
1169.00 0.03681
1169.10 0.0368
1169.20 0.03678
1169.30 0.03677
1169.40 0.03676
1169.50 0.03675
1169.60 0.03674
1169.70 0.03672
1169.80 0.03671
1169.90 0.0367
1170.00 0.03669
1170.10 0.03667
1170.20 0.03666
1170.30 0.03665
1170.40 0.03664
1170.50 0.03662
1170.60 0.03661
1170.70 0.0366
1170.80 0.03659
1170.90 0.03658
1171.00 0.03656
1171.10 0.03655
1171.20 0.03654
1171.30 0.03653
1171.40 0.03651
1171.50 0.0365
1171.60 0.03649
1171.70 0.03648
1171.80 0.03647
1171.90 0.03645
1172.00 0.03644
1172.10 0.03643
1172.20 0.03642
1172.30 0.0364
1172.40 0.03639
1172.50 0.03638
1172.60 0.03637
1172.70 0.03636
1172.80 0.03634
1172.90 0.03633
1173.00 0.03632
1173.10 0.03631
1173.20 0.0363
1173.30 0.03628
1173.40 0.03627
1173.50 0.03626
1173.60 0.03625
1173.70 0.03624
1173.80 0.03622
1173.90 0.03621
1174.00 0.0362
1174.10 0.03619
1174.20 0.03617
1174.30 0.03616
1174.40 0.03615
1174.50 0.03614
1174.60 0.03613
1174.70 0.03611
1174.80 0.0361
1174.90 0.03609
1175.00 0.03608
1175.10 0.03607
1175.20 0.03605
1175.30 0.03604
1175.40 0.03603
1175.50 0.03602
1175.60 0.03601
1175.70 0.03599
1175.80 0.03598
1175.90 0.03597
1176.00 0.03596
1176.10 0.03595
1176.20 0.03593
1176.30 0.03592
1176.40 0.03591
1176.50 0.0359
1176.60 0.03589
1176.70 0.03587
1176.80 0.03586
1176.90 0.03585
1177.00 0.03584
1177.10 0.03583
1177.20 0.03581
1177.30 0.0358
1177.40 0.03579
1177.50 0.03578
1177.60 0.03577
1177.70 0.03575
1177.80 0.03574
1177.90 0.03573
1178.00 0.03572
1178.10 0.03571
1178.20 0.0357
1178.30 0.03568
1178.40 0.03567
1178.50 0.03566
1178.60 0.03565
1178.70 0.03564
1178.80 0.03562
1178.90 0.03561
1179.00 0.0356
1179.10 0.03559
1179.20 0.03558
1179.30 0.03557
1179.40 0.03555
1179.50 0.03554
1179.60 0.03553
1179.70 0.03552
1179.80 0.03551
1179.90 0.03549
1180.00 0.03548
1180.10 0.03547
1180.20 0.03546
1180.30 0.03545
1180.40 0.03544
1180.50 0.03542
1180.60 0.03541
1180.70 0.0354
1180.80 0.03539
1180.90 0.03538
1181.00 0.03536
1181.10 0.03535
1181.20 0.03534
1181.30 0.03533
1181.40 0.03532
1181.50 0.03531
1181.60 0.03529
1181.70 0.03528
1181.80 0.03527
1181.90 0.03526
1182.00 0.03525
1182.10 0.03524
1182.20 0.03522
1182.30 0.03521
1182.40 0.0352
1182.50 0.03519
1182.60 0.03518
1182.70 0.03517
1182.80 0.03515
1182.90 0.03514
1183.00 0.03513
1183.10 0.03512
1183.20 0.03511
1183.30 0.0351
1183.40 0.03508
1183.50 0.03507
1183.60 0.03506
1183.70 0.03505
1183.80 0.03504
1183.90 0.03503
1184.00 0.03501
1184.10 0.035
1184.20 0.03499
1184.30 0.03498
1184.40 0.03497
1184.50 0.03496
1184.60 0.03495
1184.70 0.03493
1184.80 0.03492
1184.90 0.03491
1185.00 0.0349
1185.10 0.03489
1185.20 0.03488
1185.30 0.03486
1185.40 0.03485
1185.50 0.03484
1185.60 0.03483
1185.70 0.03482
1185.80 0.03481
1185.90 0.0348
1186.00 0.03478
1186.10 0.03477
1186.20 0.03476
1186.30 0.03475
1186.40 0.03474
1186.50 0.03473
1186.60 0.03471
1186.70 0.0347
1186.80 0.03469
1186.90 0.03468
1187.00 0.03467
1187.10 0.03466
1187.20 0.03465
1187.30 0.03463
1187.40 0.03462
1187.50 0.03461
1187.60 0.0346
1187.70 0.03459
1187.80 0.03458
1187.90 0.03457
1188.00 0.03455
1188.10 0.03454
1188.20 0.03453
1188.30 0.03452
1188.40 0.03451
1188.50 0.0345
1188.60 0.03449
1188.70 0.03448
1188.80 0.03446
1188.90 0.03445
1189.00 0.03444
1189.10 0.03443
1189.20 0.03442
1189.30 0.03441
1189.40 0.0344
1189.50 0.03438
1189.60 0.03437
1189.70 0.03436
1189.80 0.03435
1189.90 0.03434
1190.00 0.03433
1190.10 0.03432
1190.20 0.03431
1190.30 0.03429
1190.40 0.03428
1190.50 0.03427
1190.60 0.03426
1190.70 0.03425
1190.80 0.03424
1190.90 0.03423
1191.00 0.03421
1191.10 0.0342
1191.20 0.03419
1191.30 0.03418
1191.40 0.03417
1191.50 0.03416
1191.60 0.03415
1191.70 0.03414
1191.80 0.03412
1191.90 0.03411
1192.00 0.0341
1192.10 0.03409
1192.20 0.03408
1192.30 0.03407
1192.40 0.03406
1192.50 0.03405
1192.60 0.03403
1192.70 0.03402
1192.80 0.03401
1192.90 0.034
1193.00 0.03399
1193.10 0.03398
1193.20 0.03397
1193.30 0.03396
1193.40 0.03395
1193.50 0.03393
1193.60 0.03392
1193.70 0.03391
1193.80 0.0339
1193.90 0.03389
1194.00 0.03388
1194.10 0.03387
1194.20 0.03386
1194.30 0.03385
1194.40 0.03383
1194.50 0.03382
1194.60 0.03381
1194.70 0.0338
1194.80 0.03379
1194.90 0.03378
1195.00 0.03377
1195.10 0.03376
1195.20 0.03375
1195.30 0.03373
1195.40 0.03372
1195.50 0.03371
1195.60 0.0337
1195.70 0.03369
1195.80 0.03368
1195.90 0.03367
1196.00 0.03366
1196.10 0.03365
1196.20 0.03363
1196.30 0.03362
1196.40 0.03361
1196.50 0.0336
1196.60 0.03359
1196.70 0.03358
1196.80 0.03357
1196.90 0.03356
1197.00 0.03355
1197.10 0.03354
1197.20 0.03352
1197.30 0.03351
1197.40 0.0335
1197.50 0.03349
1197.60 0.03348
1197.70 0.03347
1197.80 0.03346
1197.90 0.03345
1198.00 0.03344
1198.10 0.03343
1198.20 0.03342
1198.30 0.0334
1198.40 0.03339
1198.50 0.03338
1198.60 0.03337
1198.70 0.03336
1198.80 0.03335
1198.90 0.03334
1199.00 0.03333
1199.10 0.03332
1199.20 0.03331
1199.30 0.0333
1199.40 0.03328
1199.50 0.03327
1199.60 0.03326
1199.70 0.03325
1199.80 0.03324
1199.90 0.03323
1200.00 0
