# Version 2.1 - nm, norm@500 to 1, cut digits, bergeron_100000_85.dat_100000
# Wavelength(nm)  Flambda(ergs/cm^s/s/nm)
300.00 6.844
300.10 6.836
300.20 6.827
300.30 6.818
300.40 6.81
300.50 6.801
300.60 6.793
300.70 6.784
300.80 6.776
300.90 6.767
301.00 6.759
301.10 6.75
301.20 6.742
301.30 6.733
301.40 6.725
301.50 6.717
301.60 6.708
301.70 6.7
301.80 6.692
301.90 6.683
302.00 6.675
302.10 6.666
302.20 6.658
302.30 6.65
302.40 6.642
302.50 6.633
302.60 6.625
302.70 6.617
302.80 6.609
302.90 6.6
303.00 6.592
303.10 6.584
303.20 6.576
303.30 6.568
303.40 6.559
303.50 6.551
303.60 6.543
303.70 6.535
303.80 6.527
303.90 6.519
304.00 6.511
304.10 6.503
304.20 6.495
304.30 6.487
304.40 6.478
304.50 6.47
304.60 6.462
304.70 6.454
304.80 6.446
304.90 6.438
305.00 6.431
305.10 6.423
305.20 6.415
305.30 6.407
305.40 6.399
305.50 6.391
305.60 6.383
305.70 6.375
305.80 6.367
305.90 6.359
306.00 6.352
306.10 6.344
306.20 6.336
306.30 6.328
306.40 6.32
306.50 6.313
306.60 6.305
306.70 6.297
306.80 6.289
306.90 6.282
307.00 6.274
307.10 6.266
307.20 6.258
307.30 6.251
307.40 6.243
307.50 6.235
307.60 6.228
307.70 6.22
307.80 6.213
307.90 6.205
308.00 6.197
308.10 6.19
308.20 6.182
308.30 6.175
308.40 6.167
308.50 6.159
308.60 6.152
308.70 6.144
308.80 6.137
308.90 6.129
309.00 6.122
309.10 6.114
309.20 6.107
309.30 6.1
309.40 6.092
309.50 6.085
309.60 6.077
309.70 6.07
309.80 6.062
309.90 6.055
310.00 6.048
310.10 6.04
310.20 6.033
310.30 6.026
310.40 6.018
310.50 6.011
310.60 6.004
310.70 5.996
310.80 5.989
310.90 5.982
311.00 5.975
311.10 5.967
311.20 5.96
311.30 5.953
311.40 5.946
311.50 5.938
311.60 5.931
311.70 5.924
311.80 5.917
311.90 5.91
312.00 5.903
312.10 5.895
312.20 5.888
312.30 5.881
312.40 5.874
312.50 5.867
312.60 5.86
312.70 5.853
312.80 5.846
312.90 5.839
313.00 5.832
313.10 5.825
313.20 5.818
313.30 5.811
313.40 5.804
313.50 5.797
313.60 5.79
313.70 5.783
313.80 5.776
313.90 5.769
314.00 5.762
314.10 5.755
314.20 5.748
314.30 5.741
314.40 5.734
314.50 5.727
314.60 5.72
314.70 5.714
314.80 5.707
314.90 5.7
315.00 5.693
315.10 5.686
315.20 5.679
315.30 5.673
315.40 5.666
315.50 5.659
315.60 5.652
315.70 5.646
315.80 5.639
315.90 5.632
316.00 5.625
316.10 5.619
316.20 5.612
316.30 5.605
316.40 5.598
316.50 5.592
316.60 5.585
316.70 5.578
316.80 5.572
316.90 5.565
317.00 5.559
317.10 5.552
317.20 5.545
317.30 5.539
317.40 5.532
317.50 5.526
317.60 5.519
317.70 5.512
317.80 5.506
317.90 5.499
318.00 5.493
318.10 5.486
318.20 5.48
318.30 5.473
318.40 5.467
318.50 5.46
318.60 5.454
318.70 5.447
318.80 5.441
318.90 5.434
319.00 5.428
319.10 5.422
319.20 5.415
319.30 5.409
319.40 5.402
319.50 5.396
319.60 5.39
319.70 5.383
319.80 5.377
319.90 5.37
320.00 5.364
320.10 5.358
320.20 5.351
320.30 5.345
320.40 5.339
320.50 5.333
320.60 5.326
320.70 5.32
320.80 5.314
320.90 5.307
321.00 5.301
321.10 5.295
321.20 5.289
321.30 5.282
321.40 5.276
321.50 5.27
321.60 5.264
321.70 5.258
321.80 5.252
321.90 5.245
322.00 5.239
322.10 5.233
322.20 5.227
322.30 5.221
322.40 5.215
322.50 5.209
322.60 5.202
322.70 5.196
322.80 5.19
322.90 5.184
323.00 5.178
323.10 5.172
323.20 5.166
323.30 5.16
323.40 5.154
323.50 5.148
323.60 5.142
323.70 5.136
323.80 5.13
323.90 5.124
324.00 5.118
324.10 5.112
324.20 5.106
324.30 5.1
324.40 5.094
324.50 5.088
324.60 5.082
324.70 5.076
324.80 5.07
324.90 5.065
325.00 5.059
325.10 5.053
325.20 5.047
325.30 5.041
325.40 5.035
325.50 5.029
325.60 5.023
325.70 5.018
325.80 5.012
325.90 5.006
326.00 5
326.10 4.994
326.20 4.989
326.30 4.983
326.40 4.977
326.50 4.971
326.60 4.966
326.70 4.96
326.80 4.954
326.90 4.948
327.00 4.943
327.10 4.937
327.20 4.931
327.30 4.925
327.40 4.92
327.50 4.914
327.60 4.908
327.70 4.903
327.80 4.897
327.90 4.891
328.00 4.886
328.10 4.88
328.20 4.875
328.30 4.869
328.40 4.863
328.50 4.858
328.60 4.852
328.70 4.847
328.80 4.841
328.90 4.835
329.00 4.83
329.10 4.824
329.20 4.819
329.30 4.813
329.40 4.808
329.50 4.802
329.60 4.797
329.70 4.791
329.80 4.786
329.90 4.78
330.00 4.775
330.10 4.769
330.20 4.764
330.30 4.758
330.40 4.753
330.50 4.747
330.60 4.742
330.70 4.737
330.80 4.731
330.90 4.726
331.00 4.72
331.10 4.715
331.20 4.71
331.30 4.704
331.40 4.699
331.50 4.693
331.60 4.688
331.70 4.683
331.80 4.677
331.90 4.672
332.00 4.667
332.10 4.661
332.20 4.656
332.30 4.651
332.40 4.646
332.50 4.64
332.60 4.635
332.70 4.63
332.80 4.624
332.90 4.619
333.00 4.614
333.10 4.609
333.20 4.603
333.30 4.598
333.40 4.593
333.50 4.588
333.60 4.583
333.70 4.577
333.80 4.572
333.90 4.567
334.00 4.562
334.10 4.557
334.20 4.551
334.30 4.546
334.40 4.541
334.50 4.536
334.60 4.531
334.70 4.526
334.80 4.521
334.90 4.516
335.00 4.51
335.10 4.505
335.20 4.5
335.30 4.495
335.40 4.49
335.50 4.485
335.60 4.48
335.70 4.475
335.80 4.47
335.90 4.465
336.00 4.46
336.10 4.455
336.20 4.45
336.30 4.445
336.40 4.44
336.50 4.435
336.60 4.43
336.70 4.425
336.80 4.42
336.90 4.415
337.00 4.41
337.10 4.405
337.20 4.4
337.30 4.395
337.40 4.39
337.50 4.385
337.60 4.38
337.70 4.375
337.80 4.37
337.90 4.366
338.00 4.361
338.10 4.356
338.20 4.351
338.30 4.346
338.40 4.341
338.50 4.336
338.60 4.331
338.70 4.327
338.80 4.322
338.90 4.317
339.00 4.312
339.10 4.307
339.20 4.303
339.30 4.298
339.40 4.293
339.50 4.288
339.60 4.283
339.70 4.279
339.80 4.274
339.90 4.269
340.00 4.264
340.10 4.259
340.20 4.255
340.30 4.25
340.40 4.245
340.50 4.241
340.60 4.236
340.70 4.231
340.80 4.226
340.90 4.222
341.00 4.217
341.10 4.212
341.20 4.208
341.30 4.203
341.40 4.198
341.50 4.194
341.60 4.189
341.70 4.184
341.80 4.18
341.90 4.175
342.00 4.17
342.10 4.166
342.20 4.161
342.30 4.157
342.40 4.152
342.50 4.147
342.60 4.143
342.70 4.138
342.80 4.134
342.90 4.129
343.00 4.125
343.10 4.12
343.20 4.116
343.30 4.111
343.40 4.106
343.50 4.102
343.60 4.097
343.70 4.093
343.80 4.088
343.90 4.084
344.00 4.079
344.10 4.075
344.20 4.07
344.30 4.066
344.40 4.061
344.50 4.057
344.60 4.052
344.70 4.048
344.80 4.044
344.90 4.039
345.00 4.035
345.10 4.03
345.20 4.026
345.30 4.021
345.40 4.017
345.50 4.013
345.60 4.008
345.70 4.004
345.80 3.999
345.90 3.995
346.00 3.991
346.10 3.986
346.20 3.982
346.30 3.978
346.40 3.973
346.50 3.969
346.60 3.965
346.70 3.96
346.80 3.956
346.90 3.952
347.00 3.947
347.10 3.943
347.20 3.939
347.30 3.934
347.40 3.93
347.50 3.926
347.60 3.921
347.70 3.917
347.80 3.913
347.90 3.909
348.00 3.904
348.10 3.9
348.20 3.896
348.30 3.892
348.40 3.887
348.50 3.883
348.60 3.879
348.70 3.875
348.80 3.871
348.90 3.866
349.00 3.862
349.10 3.858
349.20 3.854
349.30 3.85
349.40 3.845
349.50 3.841
349.60 3.837
349.70 3.833
349.80 3.829
349.90 3.825
350.00 3.82
350.10 3.816
350.20 3.812
350.30 3.808
350.40 3.804
350.50 3.8
350.60 3.796
350.70 3.792
350.80 3.787
350.90 3.783
351.00 3.779
351.10 3.775
351.20 3.771
351.30 3.767
351.40 3.763
351.50 3.759
351.60 3.755
351.70 3.751
351.80 3.747
351.90 3.743
352.00 3.739
352.10 3.735
352.20 3.731
352.30 3.727
352.40 3.723
352.50 3.719
352.60 3.715
352.70 3.711
352.80 3.707
352.90 3.703
353.00 3.699
353.10 3.695
353.20 3.691
353.30 3.687
353.40 3.683
353.50 3.679
353.60 3.675
353.70 3.671
353.80 3.667
353.90 3.663
354.00 3.659
354.10 3.655
354.20 3.651
354.30 3.647
354.40 3.644
354.50 3.64
354.60 3.636
354.70 3.632
354.80 3.628
354.90 3.624
355.00 3.62
355.10 3.616
355.20 3.612
355.30 3.609
355.40 3.605
355.50 3.601
355.60 3.597
355.70 3.593
355.80 3.589
355.90 3.586
356.00 3.582
356.10 3.578
356.20 3.574
356.30 3.57
356.40 3.567
356.50 3.563
356.60 3.559
356.70 3.555
356.80 3.551
356.90 3.548
357.00 3.544
357.10 3.54
357.20 3.536
357.30 3.533
357.40 3.529
357.50 3.525
357.60 3.521
357.70 3.518
357.80 3.514
357.90 3.51
358.00 3.506
358.10 3.503
358.20 3.499
358.30 3.495
358.40 3.492
358.50 3.488
358.60 3.484
358.70 3.48
358.80 3.477
358.90 3.473
359.00 3.469
359.10 3.466
359.20 3.462
359.30 3.458
359.40 3.455
359.50 3.451
359.60 3.448
359.70 3.444
359.80 3.44
359.90 3.437
360.00 3.433
360.10 3.429
360.20 3.426
360.30 3.422
360.40 3.419
360.50 3.415
360.60 3.411
360.70 3.408
360.80 3.404
360.90 3.401
361.00 3.397
361.10 3.393
361.20 3.39
361.30 3.386
361.40 3.383
361.50 3.379
361.60 3.376
361.70 3.372
361.80 3.369
361.90 3.365
362.00 3.361
362.10 3.358
362.20 3.354
362.30 3.351
362.40 3.347
362.50 3.344
362.60 3.34
362.70 3.337
362.80 3.333
362.90 3.33
363.00 3.326
363.10 3.323
363.20 3.319
363.30 3.316
363.40 3.313
363.50 3.309
363.60 3.306
363.70 3.302
363.80 3.299
363.90 3.295
364.00 3.292
364.10 3.288
364.20 3.285
364.30 3.282
364.40 3.278
364.50 3.275
364.60 3.271
364.70 3.268
364.80 3.265
364.90 3.261
365.00 3.258
365.10 3.254
365.20 3.251
365.30 3.248
365.40 3.244
365.50 3.241
365.60 3.237
365.70 3.234
365.80 3.231
365.90 3.227
366.00 3.224
366.10 3.221
366.20 3.217
366.30 3.214
366.40 3.211
366.50 3.207
366.60 3.204
366.70 3.201
366.80 3.197
366.90 3.194
367.00 3.191
367.10 3.187
367.20 3.184
367.30 3.181
367.40 3.177
367.50 3.174
367.60 3.171
367.70 3.167
367.80 3.164
367.90 3.161
368.00 3.157
368.10 3.154
368.20 3.151
368.30 3.147
368.40 3.144
368.50 3.141
368.60 3.138
368.70 3.134
368.80 3.131
368.90 3.128
369.00 3.124
369.10 3.121
369.20 3.118
369.30 3.115
369.40 3.111
369.50 3.108
369.60 3.105
369.70 3.101
369.80 3.098
369.90 3.095
370.00 3.092
370.10 3.088
370.20 3.085
370.30 3.082
370.40 3.079
370.50 3.076
370.60 3.072
370.70 3.069
370.80 3.066
370.90 3.063
371.00 3.06
371.10 3.056
371.20 3.053
371.30 3.05
371.40 3.047
371.50 3.044
371.60 3.041
371.70 3.037
371.80 3.034
371.90 3.031
372.00 3.028
372.10 3.025
372.20 3.022
372.30 3.019
372.40 3.016
372.50 3.013
372.60 3.009
372.70 3.006
372.80 3.003
372.90 3
373.00 2.997
373.10 2.994
373.20 2.991
373.30 2.988
373.40 2.985
373.50 2.982
373.60 2.979
373.70 2.976
373.80 2.973
373.90 2.97
374.00 2.967
374.10 2.964
374.20 2.961
374.30 2.958
374.40 2.955
374.50 2.951
374.60 2.948
374.70 2.945
374.80 2.942
374.90 2.939
375.00 2.936
375.10 2.933
375.20 2.93
375.30 2.927
375.40 2.924
375.50 2.921
375.60 2.918
375.70 2.915
375.80 2.912
375.90 2.909
376.00 2.906
376.10 2.903
376.20 2.9
376.30 2.897
376.40 2.894
376.50 2.891
376.60 2.888
376.70 2.885
376.80 2.882
376.90 2.879
377.00 2.876
377.10 2.874
377.20 2.871
377.30 2.868
377.40 2.865
377.50 2.862
377.60 2.859
377.70 2.856
377.80 2.853
377.90 2.85
378.00 2.847
378.10 2.845
378.20 2.842
378.30 2.839
378.40 2.836
378.50 2.833
378.60 2.83
378.70 2.827
378.80 2.825
378.90 2.822
379.00 2.819
379.10 2.816
379.20 2.813
379.30 2.81
379.40 2.808
379.50 2.805
379.60 2.802
379.70 2.799
379.80 2.796
379.90 2.794
380.00 2.791
380.10 2.788
380.20 2.785
380.30 2.782
380.40 2.78
380.50 2.777
380.60 2.774
380.70 2.771
380.80 2.769
380.90 2.766
381.00 2.763
381.10 2.76
381.20 2.758
381.30 2.755
381.40 2.752
381.50 2.75
381.60 2.747
381.70 2.744
381.80 2.741
381.90 2.739
382.00 2.736
382.10 2.733
382.20 2.731
382.30 2.728
382.40 2.725
382.50 2.723
382.60 2.72
382.70 2.717
382.80 2.715
382.90 2.712
383.00 2.709
383.10 2.707
383.20 2.704
383.30 2.701
383.40 2.699
383.50 2.696
383.60 2.694
383.70 2.691
383.80 2.688
383.90 2.686
384.00 2.683
384.10 2.681
384.20 2.678
384.30 2.675
384.40 2.673
384.50 2.67
384.60 2.668
384.70 2.665
384.80 2.663
384.90 2.66
385.00 2.658
385.10 2.655
385.20 2.653
385.30 2.65
385.40 2.647
385.50 2.645
385.60 2.642
385.70 2.64
385.80 2.637
385.90 2.635
386.00 2.632
386.10 2.63
386.20 2.627
386.30 2.625
386.40 2.622
386.50 2.619
386.60 2.617
386.70 2.614
386.80 2.612
386.90 2.609
387.00 2.607
387.10 2.604
387.20 2.601
387.30 2.599
387.40 2.596
387.50 2.594
387.60 2.591
387.70 2.589
387.80 2.586
387.90 2.584
388.00 2.581
388.10 2.579
388.20 2.576
388.30 2.574
388.40 2.571
388.50 2.569
388.60 2.566
388.70 2.564
388.80 2.562
388.90 2.559
389.00 2.557
389.10 2.555
389.20 2.552
389.30 2.55
389.40 2.548
389.50 2.545
389.60 2.543
389.70 2.541
389.80 2.538
389.90 2.536
390.00 2.534
390.10 2.532
390.20 2.53
390.30 2.527
390.40 2.525
390.50 2.523
390.60 2.521
390.70 2.518
390.80 2.516
390.90 2.514
391.00 2.512
391.10 2.509
391.20 2.507
391.30 2.505
391.40 2.503
391.50 2.5
391.60 2.498
391.70 2.496
391.80 2.493
391.90 2.491
392.00 2.489
392.10 2.486
392.20 2.484
392.30 2.482
392.40 2.479
392.50 2.477
392.60 2.474
392.70 2.472
392.80 2.469
392.90 2.467
393.00 2.464
393.10 2.462
393.20 2.459
393.30 2.457
393.40 2.454
393.50 2.452
393.60 2.449
393.70 2.447
393.80 2.444
393.90 2.441
394.00 2.439
394.10 2.436
394.20 2.433
394.30 2.431
394.40 2.428
394.50 2.425
394.60 2.423
394.70 2.42
394.80 2.417
394.90 2.414
395.00 2.412
395.10 2.409
395.20 2.406
395.30 2.403
395.40 2.4
395.50 2.398
395.60 2.395
395.70 2.392
395.80 2.389
395.90 2.386
396.00 2.383
396.10 2.381
396.20 2.378
396.30 2.375
396.40 2.372
396.50 2.37
396.60 2.367
396.70 2.364
396.80 2.362
396.90 2.36
397.00 2.357
397.10 2.355
397.20 2.354
397.30 2.352
397.40 2.35
397.50 2.349
397.60 2.347
397.70 2.346
397.80 2.344
397.90 2.343
398.00 2.341
398.10 2.34
398.20 2.339
398.30 2.337
398.40 2.336
398.50 2.334
398.60 2.333
398.70 2.331
398.80 2.33
398.90 2.329
399.00 2.327
399.10 2.326
399.20 2.324
399.30 2.323
399.40 2.321
399.50 2.32
399.60 2.318
399.70 2.317
399.80 2.315
399.90 2.313
400.00 2.312
400.10 2.31
400.20 2.309
400.30 2.307
400.40 2.305
400.50 2.304
400.60 2.302
400.70 2.3
400.80 2.298
400.90 2.297
401.00 2.295
401.10 2.293
401.20 2.291
401.30 2.289
401.40 2.287
401.50 2.286
401.60 2.284
401.70 2.282
401.80 2.28
401.90 2.278
402.00 2.276
402.10 2.274
402.20 2.272
402.30 2.27
402.40 2.268
402.50 2.266
402.60 2.264
402.70 2.262
402.80 2.26
402.90 2.257
403.00 2.255
403.10 2.253
403.20 2.251
403.30 2.249
403.40 2.246
403.50 2.244
403.60 2.242
403.70 2.24
403.80 2.237
403.90 2.235
404.00 2.232
404.10 2.23
404.20 2.228
404.30 2.225
404.40 2.223
404.50 2.22
404.60 2.218
404.70 2.215
404.80 2.213
404.90 2.21
405.00 2.207
405.10 2.205
405.20 2.202
405.30 2.199
405.40 2.197
405.50 2.194
405.60 2.191
405.70 2.188
405.80 2.185
405.90 2.183
406.00 2.18
406.10 2.177
406.20 2.174
406.30 2.171
406.40 2.168
406.50 2.165
406.60 2.162
406.70 2.158
406.80 2.155
406.90 2.152
407.00 2.149
407.10 2.146
407.20 2.142
407.30 2.139
407.40 2.136
407.50 2.132
407.60 2.129
407.70 2.125
407.80 2.122
407.90 2.118
408.00 2.115
408.10 2.111
408.20 2.107
408.30 2.104
408.40 2.1
408.50 2.096
408.60 2.093
408.70 2.089
408.80 2.085
408.90 2.081
409.00 2.078
409.10 2.074
409.20 2.071
409.30 2.067
409.40 2.064
409.50 2.061
409.60 2.058
409.70 2.055
409.80 2.053
409.90 2.051
410.00 2.05
410.10 2.049
410.20 2.048
410.30 2.045
410.40 2.042
410.50 2.04
410.60 2.038
410.70 2.037
410.80 2.036
410.90 2.036
411.00 2.035
411.10 2.035
411.20 2.035
411.30 2.035
411.40 2.035
411.50 2.035
411.60 2.035
411.70 2.035
411.80 2.035
411.90 2.035
412.00 2.035
412.10 2.035
412.20 2.035
412.30 2.035
412.40 2.034
412.50 2.034
412.60 2.034
412.70 2.034
412.80 2.033
412.90 2.033
413.00 2.033
413.10 2.032
413.20 2.032
413.30 2.031
413.40 2.031
413.50 2.03
413.60 2.03
413.70 2.029
413.80 2.028
413.90 2.028
414.00 2.027
414.10 2.026
414.20 2.025
414.30 2.025
414.40 2.024
414.50 2.023
414.60 2.022
414.70 2.021
414.80 2.02
414.90 2.019
415.00 2.018
415.10 2.017
415.20 2.016
415.30 2.015
415.40 2.014
415.50 2.013
415.60 2.012
415.70 2.01
415.80 2.009
415.90 2.008
416.00 2.007
416.10 2.006
416.20 2.004
416.30 2.003
416.40 2.002
416.50 2
416.60 1.999
416.70 1.998
416.80 1.996
416.90 1.995
417.00 1.994
417.10 1.992
417.20 1.991
417.30 1.989
417.40 1.988
417.50 1.987
417.60 1.985
417.70 1.984
417.80 1.982
417.90 1.981
418.00 1.979
418.10 1.978
418.20 1.976
418.30 1.975
418.40 1.973
418.50 1.972
418.60 1.97
418.70 1.968
418.80 1.967
418.90 1.965
419.00 1.964
419.10 1.962
419.20 1.96
419.30 1.959
419.40 1.957
419.50 1.956
419.60 1.954
419.70 1.952
419.80 1.951
419.90 1.949
420.00 1.947
420.10 1.946
420.20 1.944
420.30 1.942
420.40 1.941
420.50 1.939
420.60 1.937
420.70 1.936
420.80 1.934
420.90 1.932
421.00 1.931
421.10 1.929
421.20 1.927
421.30 1.926
421.40 1.924
421.50 1.922
421.60 1.92
421.70 1.919
421.80 1.917
421.90 1.915
422.00 1.913
422.10 1.912
422.20 1.91
422.30 1.908
422.40 1.906
422.50 1.905
422.60 1.903
422.70 1.901
422.80 1.899
422.90 1.898
423.00 1.896
423.10 1.894
423.20 1.892
423.30 1.89
423.40 1.889
423.50 1.887
423.60 1.885
423.70 1.883
423.80 1.881
423.90 1.879
424.00 1.878
424.10 1.876
424.20 1.874
424.30 1.872
424.40 1.87
424.50 1.868
424.60 1.866
424.70 1.864
424.80 1.863
424.90 1.861
425.00 1.859
425.10 1.857
425.20 1.855
425.30 1.853
425.40 1.851
425.50 1.849
425.60 1.847
425.70 1.845
425.80 1.843
425.90 1.841
426.00 1.839
426.10 1.837
426.20 1.835
426.30 1.833
426.40 1.831
426.50 1.829
426.60 1.827
426.70 1.825
426.80 1.823
426.90 1.821
427.00 1.818
427.10 1.816
427.20 1.814
427.30 1.812
427.40 1.81
427.50 1.808
427.60 1.805
427.70 1.803
427.80 1.801
427.90 1.798
428.00 1.796
428.10 1.794
428.20 1.791
428.30 1.789
428.40 1.786
428.50 1.784
428.60 1.782
428.70 1.779
428.80 1.776
428.90 1.774
429.00 1.771
429.10 1.769
429.20 1.766
429.30 1.763
429.40 1.76
429.50 1.758
429.60 1.755
429.70 1.752
429.80 1.749
429.90 1.746
430.00 1.743
430.10 1.74
430.20 1.737
430.30 1.734
430.40 1.731
430.50 1.727
430.60 1.724
430.70 1.721
430.80 1.717
430.90 1.714
431.00 1.71
431.10 1.707
431.20 1.703
431.30 1.699
431.40 1.696
431.50 1.692
431.60 1.688
431.70 1.684
431.80 1.68
431.90 1.676
432.00 1.672
432.10 1.668
432.20 1.664
432.30 1.66
432.40 1.655
432.50 1.651
432.60 1.647
432.70 1.642
432.80 1.638
432.90 1.634
433.00 1.63
433.10 1.625
433.20 1.621
433.30 1.617
433.40 1.613
433.50 1.609
433.60 1.605
433.70 1.6
433.80 1.595
433.90 1.59
434.00 1.587
434.10 1.586
434.20 1.587
434.30 1.589
434.40 1.591
434.50 1.593
434.60 1.594
434.70 1.596
434.80 1.597
434.90 1.598
435.00 1.6
435.10 1.601
435.20 1.603
435.30 1.604
435.40 1.606
435.50 1.607
435.60 1.608
435.70 1.61
435.80 1.611
435.90 1.612
436.00 1.614
436.10 1.615
436.20 1.616
436.30 1.617
436.40 1.618
436.50 1.619
436.60 1.62
436.70 1.621
436.80 1.622
436.90 1.622
437.00 1.623
437.10 1.624
437.20 1.624
437.30 1.625
437.40 1.625
437.50 1.625
437.60 1.626
437.70 1.626
437.80 1.626
437.90 1.626
438.00 1.626
438.10 1.626
438.20 1.626
438.30 1.626
438.40 1.626
438.50 1.626
438.60 1.625
438.70 1.625
438.80 1.625
438.90 1.625
439.00 1.624
439.10 1.624
439.20 1.623
439.30 1.623
439.40 1.622
439.50 1.622
439.60 1.621
439.70 1.62
439.80 1.62
439.90 1.619
440.00 1.618
440.10 1.618
440.20 1.617
440.30 1.616
440.40 1.615
440.50 1.615
440.60 1.614
440.70 1.613
440.80 1.612
440.90 1.611
441.00 1.61
441.10 1.609
441.20 1.608
441.30 1.607
441.40 1.607
441.50 1.606
441.60 1.605
441.70 1.604
441.80 1.603
441.90 1.601
442.00 1.6
442.10 1.599
442.20 1.598
442.30 1.597
442.40 1.596
442.50 1.595
442.60 1.594
442.70 1.593
442.80 1.592
442.90 1.591
443.00 1.59
443.10 1.588
443.20 1.587
443.30 1.586
443.40 1.585
443.50 1.584
443.60 1.583
443.70 1.581
443.80 1.58
443.90 1.579
444.00 1.578
444.10 1.577
444.20 1.576
444.30 1.574
444.40 1.573
444.50 1.572
444.60 1.571
444.70 1.569
444.80 1.568
444.90 1.567
445.00 1.566
445.10 1.565
445.20 1.563
445.30 1.562
445.40 1.561
445.50 1.56
445.60 1.558
445.70 1.557
445.80 1.556
445.90 1.555
446.00 1.553
446.10 1.552
446.20 1.551
446.30 1.55
446.40 1.548
446.50 1.547
446.60 1.546
446.70 1.545
446.80 1.543
446.90 1.542
447.00 1.541
447.10 1.54
447.20 1.538
447.30 1.537
447.40 1.536
447.50 1.535
447.60 1.533
447.70 1.532
447.80 1.531
447.90 1.53
448.00 1.528
448.10 1.527
448.20 1.526
448.30 1.525
448.40 1.523
448.50 1.522
448.60 1.521
448.70 1.52
448.80 1.518
448.90 1.517
449.00 1.516
449.10 1.515
449.20 1.513
449.30 1.512
449.40 1.511
449.50 1.51
449.60 1.508
449.70 1.507
449.80 1.506
449.90 1.505
450.00 1.503
450.10 1.502
450.20 1.501
450.30 1.499
450.40 1.498
450.50 1.497
450.60 1.496
450.70 1.494
450.80 1.493
450.90 1.492
451.00 1.491
451.10 1.489
451.20 1.488
451.30 1.487
451.40 1.486
451.50 1.485
451.60 1.483
451.70 1.482
451.80 1.481
451.90 1.48
452.00 1.478
452.10 1.477
452.20 1.476
452.30 1.475
452.40 1.473
452.50 1.472
452.60 1.471
452.70 1.47
452.80 1.468
452.90 1.467
453.00 1.466
453.10 1.465
453.20 1.463
453.30 1.462
453.40 1.461
453.50 1.46
453.60 1.459
453.70 1.457
453.80 1.456
453.90 1.455
454.00 1.454
454.10 1.452
454.20 1.451
454.30 1.45
454.40 1.449
454.50 1.448
454.60 1.446
454.70 1.445
454.80 1.444
454.90 1.443
455.00 1.441
455.10 1.44
455.20 1.439
455.30 1.438
455.40 1.437
455.50 1.435
455.60 1.434
455.70 1.433
455.80 1.432
455.90 1.431
456.00 1.429
456.10 1.428
456.20 1.427
456.30 1.426
456.40 1.425
456.50 1.423
456.60 1.422
456.70 1.421
456.80 1.42
456.90 1.419
457.00 1.417
457.10 1.416
457.20 1.415
457.30 1.414
457.40 1.413
457.50 1.411
457.60 1.41
457.70 1.409
457.80 1.408
457.90 1.407
458.00 1.405
458.10 1.404
458.20 1.403
458.30 1.402
458.40 1.401
458.50 1.4
458.60 1.398
458.70 1.397
458.80 1.396
458.90 1.395
459.00 1.394
459.10 1.392
459.20 1.391
459.30 1.39
459.40 1.389
459.50 1.388
459.60 1.387
459.70 1.385
459.80 1.384
459.90 1.383
460.00 1.382
460.10 1.381
460.20 1.38
460.30 1.379
460.40 1.377
460.50 1.376
460.60 1.375
460.70 1.374
460.80 1.373
460.90 1.372
461.00 1.37
461.10 1.369
461.20 1.368
461.30 1.367
461.40 1.366
461.50 1.365
461.60 1.364
461.70 1.362
461.80 1.361
461.90 1.36
462.00 1.359
462.10 1.358
462.20 1.357
462.30 1.356
462.40 1.354
462.50 1.353
462.60 1.352
462.70 1.351
462.80 1.35
462.90 1.349
463.00 1.348
463.10 1.346
463.20 1.345
463.30 1.344
463.40 1.343
463.50 1.342
463.60 1.341
463.70 1.34
463.80 1.339
463.90 1.337
464.00 1.336
464.10 1.335
464.20 1.334
464.30 1.333
464.40 1.332
464.50 1.331
464.60 1.33
464.70 1.328
464.80 1.327
464.90 1.326
465.00 1.325
465.10 1.324
465.20 1.323
465.30 1.322
465.40 1.321
465.50 1.32
465.60 1.318
465.70 1.317
465.80 1.316
465.90 1.315
466.00 1.314
466.10 1.313
466.20 1.312
466.30 1.311
466.40 1.31
466.50 1.308
466.60 1.307
466.70 1.306
466.80 1.305
466.90 1.304
467.00 1.303
467.10 1.302
467.20 1.301
467.30 1.3
467.40 1.299
467.50 1.298
467.60 1.296
467.70 1.295
467.80 1.294
467.90 1.293
468.00 1.292
468.10 1.291
468.20 1.29
468.30 1.289
468.40 1.288
468.50 1.287
468.60 1.286
468.70 1.284
468.80 1.283
468.90 1.282
469.00 1.281
469.10 1.28
469.20 1.279
469.30 1.278
469.40 1.277
469.50 1.276
469.60 1.275
469.70 1.274
469.80 1.272
469.90 1.271
470.00 1.27
470.10 1.269
470.20 1.268
470.30 1.267
470.40 1.266
470.50 1.265
470.60 1.264
470.70 1.263
470.80 1.262
470.90 1.261
471.00 1.26
471.10 1.258
471.20 1.257
471.30 1.256
471.40 1.255
471.50 1.254
471.60 1.253
471.70 1.252
471.80 1.251
471.90 1.25
472.00 1.249
472.10 1.248
472.20 1.247
472.30 1.246
472.40 1.244
472.50 1.243
472.60 1.242
472.70 1.241
472.80 1.24
472.90 1.239
473.00 1.238
473.10 1.237
473.20 1.236
473.30 1.235
473.40 1.234
473.50 1.233
473.60 1.231
473.70 1.23
473.80 1.229
473.90 1.228
474.00 1.227
474.10 1.226
474.20 1.225
474.30 1.224
474.40 1.223
474.50 1.222
474.60 1.221
474.70 1.219
474.80 1.218
474.90 1.217
475.00 1.216
475.10 1.215
475.20 1.214
475.30 1.213
475.40 1.212
475.50 1.211
475.60 1.21
475.70 1.208
475.80 1.207
475.90 1.206
476.00 1.205
476.10 1.204
476.20 1.203
476.30 1.202
476.40 1.201
476.50 1.199
476.60 1.198
476.70 1.197
476.80 1.196
476.90 1.195
477.00 1.194
477.10 1.193
477.20 1.191
477.30 1.19
477.40 1.189
477.50 1.188
477.60 1.187
477.70 1.185
477.80 1.184
477.90 1.183
478.00 1.182
478.10 1.181
478.20 1.179
478.30 1.178
478.40 1.177
478.50 1.175
478.60 1.174
478.70 1.173
478.80 1.172
478.90 1.17
479.00 1.169
479.10 1.168
479.20 1.166
479.30 1.165
479.40 1.164
479.50 1.162
479.60 1.161
479.70 1.16
479.80 1.158
479.90 1.157
480.00 1.155
480.10 1.154
480.20 1.152
480.30 1.151
480.40 1.149
480.50 1.148
480.60 1.146
480.70 1.145
480.80 1.143
480.90 1.141
481.00 1.14
481.10 1.138
481.20 1.137
481.30 1.135
481.40 1.133
481.50 1.131
481.60 1.129
481.70 1.127
481.80 1.126
481.90 1.124
482.00 1.122
482.10 1.12
482.20 1.118
482.30 1.116
482.40 1.113
482.50 1.111
482.60 1.109
482.70 1.107
482.80 1.105
482.90 1.102
483.00 1.1
483.10 1.098
483.20 1.095
483.30 1.093
483.40 1.09
483.50 1.087
483.60 1.085
483.70 1.082
483.80 1.079
483.90 1.077
484.00 1.074
484.10 1.071
484.20 1.068
484.30 1.065
484.40 1.062
484.50 1.059
484.60 1.056
484.70 1.053
484.80 1.05
484.90 1.046
485.00 1.043
485.10 1.04
485.20 1.037
485.30 1.034
485.40 1.031
485.50 1.028
485.60 1.026
485.70 1.024
485.80 1.024
485.90 1.024
486.00 1.028
486.10 1.036
486.20 1.033
486.30 1.023
486.40 1.02
486.50 1.018
486.60 1.017
486.70 1.018
486.80 1.019
486.90 1.02
487.00 1.021
487.10 1.023
487.20 1.024
487.30 1.026
487.40 1.027
487.50 1.029
487.60 1.031
487.70 1.032
487.80 1.033
487.90 1.035
488.00 1.036
488.10 1.037
488.20 1.039
488.30 1.04
488.40 1.041
488.50 1.042
488.60 1.043
488.70 1.043
488.80 1.044
488.90 1.045
489.00 1.046
489.10 1.047
489.20 1.048
489.30 1.048
489.40 1.049
489.50 1.049
489.60 1.05
489.70 1.05
489.80 1.051
489.90 1.051
490.00 1.052
490.10 1.052
490.20 1.052
490.30 1.052
490.40 1.052
490.50 1.052
490.60 1.052
490.70 1.052
490.80 1.052
490.90 1.052
491.00 1.052
491.10 1.052
491.20 1.052
491.30 1.052
491.40 1.052
491.50 1.052
491.60 1.051
491.70 1.051
491.80 1.051
491.90 1.051
492.00 1.05
492.10 1.05
492.20 1.05
492.30 1.049
492.40 1.049
492.50 1.049
492.60 1.048
492.70 1.048
492.80 1.047
492.90 1.047
493.00 1.046
493.10 1.046
493.20 1.046
493.30 1.045
493.40 1.044
493.50 1.044
493.60 1.043
493.70 1.043
493.80 1.042
493.90 1.042
494.00 1.041
494.10 1.041
494.20 1.04
494.30 1.039
494.40 1.039
494.50 1.038
494.60 1.038
494.70 1.037
494.80 1.036
494.90 1.036
495.00 1.035
495.10 1.035
495.20 1.034
495.30 1.033
495.40 1.033
495.50 1.032
495.60 1.031
495.70 1.031
495.80 1.03
495.90 1.029
496.00 1.029
496.10 1.028
496.20 1.027
496.30 1.027
496.40 1.026
496.50 1.025
496.60 1.024
496.70 1.024
496.80 1.023
496.90 1.022
497.00 1.022
497.10 1.021
497.20 1.02
497.30 1.02
497.40 1.019
497.50 1.018
497.60 1.017
497.70 1.017
497.80 1.016
497.90 1.015
498.00 1.015
498.10 1.014
498.20 1.013
498.30 1.012
498.40 1.012
498.50 1.011
498.60 1.01
498.70 1.009
498.80 1.009
498.90 1.008
499.00 1.007
499.10 1.007
499.20 1.006
499.30 1.005
499.40 1.004
499.50 1.004
499.60 1.003
499.70 1.002
499.80 1.001
499.90 1.001
500.00 1
500.10 0.9993
500.20 0.9985
500.30 0.9978
500.40 0.9971
500.50 0.9963
500.60 0.9956
500.70 0.9949
500.80 0.9941
500.90 0.9934
501.00 0.9927
501.10 0.9919
501.20 0.9912
501.30 0.9905
501.40 0.9897
501.50 0.989
501.60 0.9883
501.70 0.9875
501.80 0.9868
501.90 0.9861
502.00 0.9853
502.10 0.9846
502.20 0.9839
502.30 0.9831
502.40 0.9824
502.50 0.9817
502.60 0.9809
502.70 0.9802
502.80 0.9795
502.90 0.9787
503.00 0.978
503.10 0.9773
503.20 0.9765
503.30 0.9758
503.40 0.9751
503.50 0.9743
503.60 0.9736
503.70 0.9729
503.80 0.9721
503.90 0.9714
504.00 0.9707
504.10 0.97
504.20 0.9692
504.30 0.9685
504.40 0.9678
504.50 0.9671
504.60 0.9663
504.70 0.9656
504.80 0.9649
504.90 0.9642
505.00 0.9634
505.10 0.9627
505.20 0.962
505.30 0.9613
505.40 0.9605
505.50 0.9598
505.60 0.9591
505.70 0.9584
505.80 0.9576
505.90 0.9569
506.00 0.9562
506.10 0.9555
506.20 0.9548
506.30 0.954
506.40 0.9533
506.50 0.9526
506.60 0.9519
506.70 0.9512
506.80 0.9505
506.90 0.9497
507.00 0.949
507.10 0.9483
507.20 0.9476
507.30 0.9469
507.40 0.9462
507.50 0.9455
507.60 0.9448
507.70 0.944
507.80 0.9433
507.90 0.9426
508.00 0.9419
508.10 0.9412
508.20 0.9405
508.30 0.9398
508.40 0.9391
508.50 0.9384
508.60 0.9377
508.70 0.937
508.80 0.9362
508.90 0.9355
509.00 0.9348
509.10 0.9341
509.20 0.9334
509.30 0.9327
509.40 0.932
509.50 0.9313
509.60 0.9306
509.70 0.9299
509.80 0.9292
509.90 0.9285
510.00 0.9278
510.10 0.9271
510.20 0.9264
510.30 0.9257
510.40 0.925
510.50 0.9243
510.60 0.9236
510.70 0.923
510.80 0.9223
510.90 0.9216
511.00 0.9209
511.10 0.9202
511.20 0.9195
511.30 0.9188
511.40 0.9181
511.50 0.9174
511.60 0.9167
511.70 0.916
511.80 0.9154
511.90 0.9147
512.00 0.914
512.10 0.9133
512.20 0.9126
512.30 0.9119
512.40 0.9112
512.50 0.9105
512.60 0.9099
512.70 0.9092
512.80 0.9085
512.90 0.9078
513.00 0.9071
513.10 0.9065
513.20 0.9058
513.30 0.9051
513.40 0.9044
513.50 0.9037
513.60 0.9031
513.70 0.9024
513.80 0.9017
513.90 0.901
514.00 0.9004
514.10 0.8997
514.20 0.899
514.30 0.8983
514.40 0.8977
514.50 0.897
514.60 0.8963
514.70 0.8956
514.80 0.895
514.90 0.8943
515.00 0.8936
515.10 0.893
515.20 0.8923
515.30 0.8916
515.40 0.891
515.50 0.8903
515.60 0.8896
515.70 0.889
515.80 0.8883
515.90 0.8876
516.00 0.887
516.10 0.8863
516.20 0.8857
516.30 0.885
516.40 0.8843
516.50 0.8837
516.60 0.883
516.70 0.8823
516.80 0.8817
516.90 0.881
517.00 0.8804
517.10 0.8797
517.20 0.8791
517.30 0.8784
517.40 0.8777
517.50 0.8771
517.60 0.8764
517.70 0.8758
517.80 0.8751
517.90 0.8745
518.00 0.8738
518.10 0.8732
518.20 0.8725
518.30 0.8719
518.40 0.8712
518.50 0.8706
518.60 0.8699
518.70 0.8693
518.80 0.8686
518.90 0.868
519.00 0.8673
519.10 0.8667
519.20 0.8661
519.30 0.8654
519.40 0.8648
519.50 0.8641
519.60 0.8635
519.70 0.8628
519.80 0.8622
519.90 0.8616
520.00 0.8609
520.10 0.8603
520.20 0.8596
520.30 0.859
520.40 0.8584
520.50 0.8577
520.60 0.8571
520.70 0.8565
520.80 0.8558
520.90 0.8552
521.00 0.8546
521.10 0.8539
521.20 0.8533
521.30 0.8527
521.40 0.852
521.50 0.8514
521.60 0.8508
521.70 0.8501
521.80 0.8495
521.90 0.8489
522.00 0.8482
522.10 0.8476
522.20 0.847
522.30 0.8464
522.40 0.8457
522.50 0.8451
522.60 0.8445
522.70 0.8439
522.80 0.8432
522.90 0.8426
523.00 0.842
523.10 0.8414
523.20 0.8407
523.30 0.8401
523.40 0.8395
523.50 0.8389
523.60 0.8383
523.70 0.8376
523.80 0.837
523.90 0.8364
524.00 0.8358
524.10 0.8352
524.20 0.8346
524.30 0.8339
524.40 0.8333
524.50 0.8327
524.60 0.8321
524.70 0.8315
524.80 0.8309
524.90 0.8303
525.00 0.8297
525.10 0.829
525.20 0.8284
525.30 0.8278
525.40 0.8272
525.50 0.8266
525.60 0.826
525.70 0.8254
525.80 0.8248
525.90 0.8242
526.00 0.8236
526.10 0.823
526.20 0.8224
526.30 0.8218
526.40 0.8212
526.50 0.8205
526.60 0.8199
526.70 0.8193
526.80 0.8187
526.90 0.8181
527.00 0.8175
527.10 0.8169
527.20 0.8163
527.30 0.8157
527.40 0.8151
527.50 0.8145
527.60 0.8139
527.70 0.8133
527.80 0.8128
527.90 0.8122
528.00 0.8116
528.10 0.811
528.20 0.8104
528.30 0.8098
528.40 0.8092
528.50 0.8086
528.60 0.808
528.70 0.8074
528.80 0.8068
528.90 0.8062
529.00 0.8056
529.10 0.8051
529.20 0.8045
529.30 0.8039
529.40 0.8033
529.50 0.8027
529.60 0.8021
529.70 0.8015
529.80 0.8009
529.90 0.8004
530.00 0.7998
530.10 0.7992
530.20 0.7986
530.30 0.798
530.40 0.7974
530.50 0.7969
530.60 0.7963
530.70 0.7957
530.80 0.7951
530.90 0.7945
531.00 0.794
531.10 0.7934
531.20 0.7928
531.30 0.7922
531.40 0.7917
531.50 0.7911
531.60 0.7905
531.70 0.7899
531.80 0.7893
531.90 0.7888
532.00 0.7882
532.10 0.7876
532.20 0.7871
532.30 0.7865
532.40 0.7859
532.50 0.7853
532.60 0.7848
532.70 0.7842
532.80 0.7836
532.90 0.7831
533.00 0.7825
533.10 0.7819
533.20 0.7813
533.30 0.7808
533.40 0.7802
533.50 0.7796
533.60 0.7791
533.70 0.7785
533.80 0.778
533.90 0.7774
534.00 0.7768
534.10 0.7763
534.20 0.7757
534.30 0.7751
534.40 0.7746
534.50 0.774
534.60 0.7735
534.70 0.7729
534.80 0.7723
534.90 0.7718
535.00 0.7712
535.10 0.7707
535.20 0.7701
535.30 0.7695
535.40 0.769
535.50 0.7684
535.60 0.7679
535.70 0.7673
535.80 0.7668
535.90 0.7662
536.00 0.7657
536.10 0.7651
536.20 0.7646
536.30 0.764
536.40 0.7635
536.50 0.7629
536.60 0.7624
536.70 0.7618
536.80 0.7613
536.90 0.7607
537.00 0.7602
537.10 0.7596
537.20 0.7591
537.30 0.7585
537.40 0.758
537.50 0.7574
537.60 0.7569
537.70 0.7563
537.80 0.7558
537.90 0.7552
538.00 0.7547
538.10 0.7541
538.20 0.7536
538.30 0.7531
538.40 0.7525
538.50 0.752
538.60 0.7514
538.70 0.7509
538.80 0.7504
538.90 0.7498
539.00 0.7493
539.10 0.7487
539.20 0.7482
539.30 0.7477
539.40 0.7471
539.50 0.7466
539.60 0.7461
539.70 0.7455
539.80 0.745
539.90 0.7445
540.00 0.7439
540.10 0.7434
540.20 0.7429
540.30 0.7423
540.40 0.7418
540.50 0.7413
540.60 0.7407
540.70 0.7402
540.80 0.7397
540.90 0.7391
541.00 0.7386
541.10 0.7381
541.20 0.7376
541.30 0.737
541.40 0.7365
541.50 0.736
541.60 0.7354
541.70 0.7349
541.80 0.7344
541.90 0.7339
542.00 0.7333
542.10 0.7328
542.20 0.7323
542.30 0.7318
542.40 0.7313
542.50 0.7307
542.60 0.7302
542.70 0.7297
542.80 0.7292
542.90 0.7286
543.00 0.7281
543.10 0.7276
543.20 0.7271
543.30 0.7266
543.40 0.726
543.50 0.7255
543.60 0.725
543.70 0.7245
543.80 0.724
543.90 0.7235
544.00 0.7229
544.10 0.7224
544.20 0.7219
544.30 0.7214
544.40 0.7209
544.50 0.7204
544.60 0.7199
544.70 0.7194
544.80 0.7188
544.90 0.7183
545.00 0.7178
545.10 0.7173
545.20 0.7168
545.30 0.7163
545.40 0.7158
545.50 0.7153
545.60 0.7148
545.70 0.7143
545.80 0.7138
545.90 0.7132
546.00 0.7127
546.10 0.7122
546.20 0.7117
546.30 0.7112
546.40 0.7107
546.50 0.7102
546.60 0.7097
546.70 0.7092
546.80 0.7087
546.90 0.7082
547.00 0.7077
547.10 0.7072
547.20 0.7067
547.30 0.7062
547.40 0.7057
547.50 0.7052
547.60 0.7047
547.70 0.7042
547.80 0.7037
547.90 0.7032
548.00 0.7027
548.10 0.7022
548.20 0.7017
548.30 0.7012
548.40 0.7007
548.50 0.7002
548.60 0.6997
548.70 0.6992
548.80 0.6988
548.90 0.6983
549.00 0.6978
549.10 0.6973
549.20 0.6968
549.30 0.6963
549.40 0.6958
549.50 0.6953
549.60 0.6948
549.70 0.6943
549.80 0.6938
549.90 0.6933
550.00 0.6929
550.10 0.6924
550.20 0.6919
550.30 0.6914
550.40 0.6909
550.50 0.6904
550.60 0.6899
550.70 0.6895
550.80 0.689
550.90 0.6885
551.00 0.688
551.10 0.6875
551.20 0.687
551.30 0.6866
551.40 0.6861
551.50 0.6856
551.60 0.6851
551.70 0.6846
551.80 0.6841
551.90 0.6837
552.00 0.6832
552.10 0.6827
552.20 0.6822
552.30 0.6817
552.40 0.6813
552.50 0.6808
552.60 0.6803
552.70 0.6798
552.80 0.6794
552.90 0.6789
553.00 0.6784
553.10 0.6779
553.20 0.6775
553.30 0.677
553.40 0.6765
553.50 0.676
553.60 0.6756
553.70 0.6751
553.80 0.6746
553.90 0.6741
554.00 0.6737
554.10 0.6732
554.20 0.6727
554.30 0.6723
554.40 0.6718
554.50 0.6713
554.60 0.6708
554.70 0.6704
554.80 0.6699
554.90 0.6694
555.00 0.669
555.10 0.6685
555.20 0.668
555.30 0.6676
555.40 0.6671
555.50 0.6666
555.60 0.6662
555.70 0.6657
555.80 0.6652
555.90 0.6648
556.00 0.6643
556.10 0.6639
556.20 0.6634
556.30 0.6629
556.40 0.6625
556.50 0.662
556.60 0.6615
556.70 0.6611
556.80 0.6606
556.90 0.6602
557.00 0.6597
557.10 0.6592
557.20 0.6588
557.30 0.6583
557.40 0.6579
557.50 0.6574
557.60 0.657
557.70 0.6565
557.80 0.656
557.90 0.6556
558.00 0.6551
558.10 0.6547
558.20 0.6542
558.30 0.6538
558.40 0.6533
558.50 0.6529
558.60 0.6524
558.70 0.652
558.80 0.6515
558.90 0.651
559.00 0.6506
559.10 0.6501
559.20 0.6497
559.30 0.6492
559.40 0.6488
559.50 0.6483
559.60 0.6479
559.70 0.6474
559.80 0.647
559.90 0.6466
560.00 0.6461
560.10 0.6457
560.20 0.6452
560.30 0.6448
560.40 0.6443
560.50 0.6439
560.60 0.6434
560.70 0.643
560.80 0.6425
560.90 0.6421
561.00 0.6417
561.10 0.6412
561.20 0.6408
561.30 0.6403
561.40 0.6399
561.50 0.6394
561.60 0.639
561.70 0.6386
561.80 0.6381
561.90 0.6377
562.00 0.6372
562.10 0.6368
562.20 0.6364
562.30 0.6359
562.40 0.6355
562.50 0.635
562.60 0.6346
562.70 0.6342
562.80 0.6337
562.90 0.6333
563.00 0.6329
563.10 0.6324
563.20 0.632
563.30 0.6315
563.40 0.6311
563.50 0.6307
563.60 0.6302
563.70 0.6298
563.80 0.6294
563.90 0.6289
564.00 0.6285
564.10 0.6281
564.20 0.6276
564.30 0.6272
564.40 0.6268
564.50 0.6264
564.60 0.6259
564.70 0.6255
564.80 0.6251
564.90 0.6246
565.00 0.6242
565.10 0.6238
565.20 0.6233
565.30 0.6229
565.40 0.6225
565.50 0.6221
565.60 0.6216
565.70 0.6212
565.80 0.6208
565.90 0.6204
566.00 0.6199
566.10 0.6195
566.20 0.6191
566.30 0.6187
566.40 0.6182
566.50 0.6178
566.60 0.6174
566.70 0.617
566.80 0.6166
566.90 0.6161
567.00 0.6157
567.10 0.6153
567.20 0.6149
567.30 0.6144
567.40 0.614
567.50 0.6136
567.60 0.6132
567.70 0.6128
567.80 0.6124
567.90 0.6119
568.00 0.6115
568.10 0.6111
568.20 0.6107
568.30 0.6103
568.40 0.6098
568.50 0.6094
568.60 0.609
568.70 0.6086
568.80 0.6082
568.90 0.6078
569.00 0.6074
569.10 0.6069
569.20 0.6065
569.30 0.6061
569.40 0.6057
569.50 0.6053
569.60 0.6049
569.70 0.6045
569.80 0.6041
569.90 0.6036
570.00 0.6032
570.10 0.6028
570.20 0.6024
570.30 0.602
570.40 0.6016
570.50 0.6012
570.60 0.6008
570.70 0.6004
570.80 0.6
570.90 0.5995
571.00 0.5991
571.10 0.5987
571.20 0.5983
571.30 0.5979
571.40 0.5975
571.50 0.5971
571.60 0.5967
571.70 0.5963
571.80 0.5959
571.90 0.5955
572.00 0.5951
572.10 0.5947
572.20 0.5943
572.30 0.5939
572.40 0.5935
572.50 0.5931
572.60 0.5927
572.70 0.5923
572.80 0.5919
572.90 0.5915
573.00 0.5911
573.10 0.5907
573.20 0.5903
573.30 0.5899
573.40 0.5895
573.50 0.5891
573.60 0.5887
573.70 0.5883
573.80 0.5879
573.90 0.5875
574.00 0.5871
574.10 0.5867
574.20 0.5863
574.30 0.5859
574.40 0.5855
574.50 0.5851
574.60 0.5847
574.70 0.5843
574.80 0.5839
574.90 0.5835
575.00 0.5831
575.10 0.5827
575.20 0.5823
575.30 0.582
575.40 0.5816
575.50 0.5812
575.60 0.5808
575.70 0.5804
575.80 0.58
575.90 0.5796
576.00 0.5792
576.10 0.5788
576.20 0.5784
576.30 0.578
576.40 0.5777
576.50 0.5773
576.60 0.5769
576.70 0.5765
576.80 0.5761
576.90 0.5757
577.00 0.5753
577.10 0.5749
577.20 0.5746
577.30 0.5742
577.40 0.5738
577.50 0.5734
577.60 0.573
577.70 0.5726
577.80 0.5722
577.90 0.5719
578.00 0.5715
578.10 0.5711
578.20 0.5707
578.30 0.5703
578.40 0.5699
578.50 0.5696
578.60 0.5692
578.70 0.5688
578.80 0.5684
578.90 0.568
579.00 0.5676
579.10 0.5673
579.20 0.5669
579.30 0.5665
579.40 0.5661
579.50 0.5658
579.60 0.5654
579.70 0.565
579.80 0.5646
579.90 0.5642
580.00 0.5639
580.10 0.5635
580.20 0.5631
580.30 0.5627
580.40 0.5624
580.50 0.562
580.60 0.5616
580.70 0.5612
580.80 0.5609
580.90 0.5605
581.00 0.5601
581.10 0.5597
581.20 0.5594
581.30 0.559
581.40 0.5586
581.50 0.5582
581.60 0.5579
581.70 0.5575
581.80 0.5571
581.90 0.5567
582.00 0.5564
582.10 0.556
582.20 0.5556
582.30 0.5553
582.40 0.5549
582.50 0.5545
582.60 0.5542
582.70 0.5538
582.80 0.5534
582.90 0.553
583.00 0.5527
583.10 0.5523
583.20 0.5519
583.30 0.5516
583.40 0.5512
583.50 0.5508
583.60 0.5505
583.70 0.5501
583.80 0.5497
583.90 0.5494
584.00 0.549
584.10 0.5486
584.20 0.5483
584.30 0.5479
584.40 0.5476
584.50 0.5472
584.60 0.5468
584.70 0.5465
584.80 0.5461
584.90 0.5457
585.00 0.5454
585.10 0.545
585.20 0.5447
585.30 0.5443
585.40 0.5439
585.50 0.5436
585.60 0.5432
585.70 0.5429
585.80 0.5425
585.90 0.5421
586.00 0.5418
586.10 0.5414
586.20 0.5411
586.30 0.5407
586.40 0.5403
586.50 0.54
586.60 0.5396
586.70 0.5393
586.80 0.5389
586.90 0.5386
587.00 0.5382
587.10 0.5378
587.20 0.5375
587.30 0.5371
587.40 0.5368
587.50 0.5364
587.60 0.5361
587.70 0.5357
587.80 0.5354
587.90 0.535
588.00 0.5347
588.10 0.5343
588.20 0.534
588.30 0.5336
588.40 0.5332
588.50 0.5329
588.60 0.5325
588.70 0.5322
588.80 0.5318
588.90 0.5315
589.00 0.5311
589.10 0.5308
589.20 0.5304
589.30 0.5301
589.40 0.5297
589.50 0.5294
589.60 0.529
589.70 0.5287
589.80 0.5283
589.90 0.528
590.00 0.5277
590.10 0.5273
590.20 0.527
590.30 0.5266
590.40 0.5263
590.50 0.5259
590.60 0.5256
590.70 0.5252
590.80 0.5249
590.90 0.5245
591.00 0.5242
591.10 0.5238
591.20 0.5235
591.30 0.5232
591.40 0.5228
591.50 0.5225
591.60 0.5221
591.70 0.5218
591.80 0.5214
591.90 0.5211
592.00 0.5208
592.10 0.5204
592.20 0.5201
592.30 0.5197
592.40 0.5194
592.50 0.5191
592.60 0.5187
592.70 0.5184
592.80 0.518
592.90 0.5177
593.00 0.5174
593.10 0.517
593.20 0.5167
593.30 0.5163
593.40 0.516
593.50 0.5157
593.60 0.5153
593.70 0.515
593.80 0.5147
593.90 0.5143
594.00 0.514
594.10 0.5136
594.20 0.5133
594.30 0.513
594.40 0.5126
594.50 0.5123
594.60 0.512
594.70 0.5116
594.80 0.5113
594.90 0.511
595.00 0.5106
595.10 0.5103
595.20 0.51
595.30 0.5096
595.40 0.5093
595.50 0.509
595.60 0.5086
595.70 0.5083
595.80 0.508
595.90 0.5076
596.00 0.5073
596.10 0.507
596.20 0.5067
596.30 0.5063
596.40 0.506
596.50 0.5057
596.60 0.5053
596.70 0.505
596.80 0.5047
596.90 0.5044
597.00 0.504
597.10 0.5037
597.20 0.5034
597.30 0.503
597.40 0.5027
597.50 0.5024
597.60 0.5021
597.70 0.5017
597.80 0.5014
597.90 0.5011
598.00 0.5008
598.10 0.5004
598.20 0.5001
598.30 0.4998
598.40 0.4995
598.50 0.4991
598.60 0.4988
598.70 0.4985
598.80 0.4982
598.90 0.4978
599.00 0.4975
599.10 0.4972
599.20 0.4969
599.30 0.4966
599.40 0.4962
599.50 0.4959
599.60 0.4956
599.70 0.4953
599.80 0.4949
599.90 0.4946
600.00 0.4943
600.10 0.494
600.20 0.4937
600.30 0.4933
600.40 0.493
600.50 0.4927
600.60 0.4924
600.70 0.4921
600.80 0.4918
600.90 0.4914
601.00 0.4911
601.10 0.4908
601.20 0.4905
601.30 0.4902
601.40 0.4898
601.50 0.4895
601.60 0.4892
601.70 0.4889
601.80 0.4886
601.90 0.4883
602.00 0.488
602.10 0.4876
602.20 0.4873
602.30 0.487
602.40 0.4867
602.50 0.4864
602.60 0.4861
602.70 0.4858
602.80 0.4854
602.90 0.4851
603.00 0.4848
603.10 0.4845
603.20 0.4842
603.30 0.4839
603.40 0.4836
603.50 0.4833
603.60 0.4829
603.70 0.4826
603.80 0.4823
603.90 0.482
604.00 0.4817
604.10 0.4814
604.20 0.4811
604.30 0.4808
604.40 0.4805
604.50 0.4802
604.60 0.4798
604.70 0.4795
604.80 0.4792
604.90 0.4789
605.00 0.4786
605.10 0.4783
605.20 0.478
605.30 0.4777
605.40 0.4774
605.50 0.4771
605.60 0.4768
605.70 0.4765
605.80 0.4762
605.90 0.4759
606.00 0.4756
606.10 0.4752
606.20 0.4749
606.30 0.4746
606.40 0.4743
606.50 0.474
606.60 0.4737
606.70 0.4734
606.80 0.4731
606.90 0.4728
607.00 0.4725
607.10 0.4722
607.20 0.4719
607.30 0.4716
607.40 0.4713
607.50 0.471
607.60 0.4707
607.70 0.4704
607.80 0.4701
607.90 0.4698
608.00 0.4695
608.10 0.4692
608.20 0.4689
608.30 0.4686
608.40 0.4683
608.50 0.468
608.60 0.4677
608.70 0.4674
608.80 0.4671
608.90 0.4668
609.00 0.4665
609.10 0.4662
609.20 0.4659
609.30 0.4656
609.40 0.4653
609.50 0.465
609.60 0.4647
609.70 0.4644
609.80 0.4641
609.90 0.4638
610.00 0.4635
610.10 0.4632
610.20 0.463
610.30 0.4627
610.40 0.4624
610.50 0.4621
610.60 0.4618
610.70 0.4615
610.80 0.4612
610.90 0.4609
611.00 0.4606
611.10 0.4603
611.20 0.46
611.30 0.4597
611.40 0.4594
611.50 0.4591
611.60 0.4588
611.70 0.4586
611.80 0.4583
611.90 0.458
612.00 0.4577
612.10 0.4574
612.20 0.4571
612.30 0.4568
612.40 0.4565
612.50 0.4562
612.60 0.4559
612.70 0.4557
612.80 0.4554
612.90 0.4551
613.00 0.4548
613.10 0.4545
613.20 0.4542
613.30 0.4539
613.40 0.4536
613.50 0.4533
613.60 0.4531
613.70 0.4528
613.80 0.4525
613.90 0.4522
614.00 0.4519
614.10 0.4516
614.20 0.4513
614.30 0.4511
614.40 0.4508
614.50 0.4505
614.60 0.4502
614.70 0.4499
614.80 0.4496
614.90 0.4493
615.00 0.4491
615.10 0.4488
615.20 0.4485
615.30 0.4482
615.40 0.4479
615.50 0.4476
615.60 0.4474
615.70 0.4471
615.80 0.4468
615.90 0.4465
616.00 0.4462
616.10 0.4459
616.20 0.4457
616.30 0.4454
616.40 0.4451
616.50 0.4448
616.60 0.4445
616.70 0.4443
616.80 0.444
616.90 0.4437
617.00 0.4434
617.10 0.4431
617.20 0.4429
617.30 0.4426
617.40 0.4423
617.50 0.442
617.60 0.4417
617.70 0.4415
617.80 0.4412
617.90 0.4409
618.00 0.4406
618.10 0.4404
618.20 0.4401
618.30 0.4398
618.40 0.4395
618.50 0.4392
618.60 0.439
618.70 0.4387
618.80 0.4384
618.90 0.4381
619.00 0.4379
619.10 0.4376
619.20 0.4373
619.30 0.437
619.40 0.4368
619.50 0.4365
619.60 0.4362
619.70 0.4359
619.80 0.4357
619.90 0.4354
620.00 0.4351
620.10 0.4348
620.20 0.4346
620.30 0.4343
620.40 0.434
620.50 0.4338
620.60 0.4335
620.70 0.4332
620.80 0.4329
620.90 0.4327
621.00 0.4324
621.10 0.4321
621.20 0.4319
621.30 0.4316
621.40 0.4313
621.50 0.431
621.60 0.4308
621.70 0.4305
621.80 0.4302
621.90 0.43
622.00 0.4297
622.10 0.4294
622.20 0.4292
622.30 0.4289
622.40 0.4286
622.50 0.4284
622.60 0.4281
622.70 0.4278
622.80 0.4276
622.90 0.4273
623.00 0.427
623.10 0.4267
623.20 0.4265
623.30 0.4262
623.40 0.4259
623.50 0.4257
623.60 0.4254
623.70 0.4252
623.80 0.4249
623.90 0.4246
624.00 0.4244
624.10 0.4241
624.20 0.4238
624.30 0.4236
624.40 0.4233
624.50 0.423
624.60 0.4228
624.70 0.4225
624.80 0.4222
624.90 0.422
625.00 0.4217
625.10 0.4214
625.20 0.4212
625.30 0.4209
625.40 0.4207
625.50 0.4204
625.60 0.4201
625.70 0.4199
625.80 0.4196
625.90 0.4194
626.00 0.4191
626.10 0.4188
626.20 0.4186
626.30 0.4183
626.40 0.418
626.50 0.4178
626.60 0.4175
626.70 0.4173
626.80 0.417
626.90 0.4167
627.00 0.4165
627.10 0.4162
627.20 0.416
627.30 0.4157
627.40 0.4155
627.50 0.4152
627.60 0.4149
627.70 0.4147
627.80 0.4144
627.90 0.4142
628.00 0.4139
628.10 0.4136
628.20 0.4134
628.30 0.4131
628.40 0.4129
628.50 0.4126
628.60 0.4124
628.70 0.4121
628.80 0.4118
628.90 0.4116
629.00 0.4113
629.10 0.4111
629.20 0.4108
629.30 0.4106
629.40 0.4103
629.50 0.4101
629.60 0.4098
629.70 0.4096
629.80 0.4093
629.90 0.409
630.00 0.4088
630.10 0.4085
630.20 0.4083
630.30 0.408
630.40 0.4078
630.50 0.4075
630.60 0.4073
630.70 0.407
630.80 0.4068
630.90 0.4065
631.00 0.4063
631.10 0.406
631.20 0.4058
631.30 0.4055
631.40 0.4053
631.50 0.405
631.60 0.4047
631.70 0.4045
631.80 0.4042
631.90 0.404
632.00 0.4037
632.10 0.4035
632.20 0.4032
632.30 0.403
632.40 0.4027
632.50 0.4025
632.60 0.4022
632.70 0.402
632.80 0.4017
632.90 0.4015
633.00 0.4012
633.10 0.401
633.20 0.4008
633.30 0.4005
633.40 0.4003
633.50 0.4
633.60 0.3998
633.70 0.3995
633.80 0.3993
633.90 0.399
634.00 0.3988
634.10 0.3985
634.20 0.3983
634.30 0.398
634.40 0.3978
634.50 0.3975
634.60 0.3973
634.70 0.397
634.80 0.3968
634.90 0.3965
635.00 0.3963
635.10 0.3961
635.20 0.3958
635.30 0.3956
635.40 0.3953
635.50 0.3951
635.60 0.3948
635.70 0.3946
635.80 0.3943
635.90 0.3941
636.00 0.3939
636.10 0.3936
636.20 0.3934
636.30 0.3931
636.40 0.3929
636.50 0.3926
636.60 0.3924
636.70 0.3921
636.80 0.3919
636.90 0.3917
637.00 0.3914
637.10 0.3912
637.20 0.3909
637.30 0.3907
637.40 0.3904
637.50 0.3902
637.60 0.39
637.70 0.3897
637.80 0.3895
637.90 0.3892
638.00 0.389
638.10 0.3887
638.20 0.3885
638.30 0.3883
638.40 0.388
638.50 0.3878
638.60 0.3875
638.70 0.3873
638.80 0.3871
638.90 0.3868
639.00 0.3866
639.10 0.3863
639.20 0.3861
639.30 0.3858
639.40 0.3856
639.50 0.3854
639.60 0.3851
639.70 0.3849
639.80 0.3846
639.90 0.3844
640.00 0.3842
640.10 0.3839
640.20 0.3837
640.30 0.3834
640.40 0.3832
640.50 0.383
640.60 0.3827
640.70 0.3825
640.80 0.3822
640.90 0.382
641.00 0.3818
641.10 0.3815
641.20 0.3813
641.30 0.381
641.40 0.3808
641.50 0.3806
641.60 0.3803
641.70 0.3801
641.80 0.3798
641.90 0.3796
642.00 0.3794
642.10 0.3791
642.20 0.3789
642.30 0.3786
642.40 0.3784
642.50 0.3781
642.60 0.3779
642.70 0.3777
642.80 0.3774
642.90 0.3772
643.00 0.3769
643.10 0.3767
643.20 0.3765
643.30 0.3762
643.40 0.376
643.50 0.3757
643.60 0.3755
643.70 0.3752
643.80 0.375
643.90 0.3748
644.00 0.3745
644.10 0.3743
644.20 0.374
644.30 0.3738
644.40 0.3735
644.50 0.3733
644.60 0.3731
644.70 0.3728
644.80 0.3726
644.90 0.3723
645.00 0.3721
645.10 0.3718
645.20 0.3716
645.30 0.3713
645.40 0.3711
645.50 0.3708
645.60 0.3706
645.70 0.3703
645.80 0.3701
645.90 0.3698
646.00 0.3696
646.10 0.3693
646.20 0.3691
646.30 0.3688
646.40 0.3686
646.50 0.3683
646.60 0.3681
646.70 0.3678
646.80 0.3676
646.90 0.3673
647.00 0.367
647.10 0.3668
647.20 0.3665
647.30 0.3663
647.40 0.366
647.50 0.3657
647.60 0.3655
647.70 0.3652
647.80 0.3649
647.90 0.3647
648.00 0.3644
648.10 0.3641
648.20 0.3639
648.30 0.3636
648.40 0.3633
648.50 0.363
648.60 0.3627
648.70 0.3625
648.80 0.3622
648.90 0.3619
649.00 0.3616
649.10 0.3613
649.20 0.361
649.30 0.3608
649.40 0.3604
649.50 0.3601
649.60 0.3598
649.70 0.3595
649.80 0.3592
649.90 0.3589
650.00 0.3586
650.10 0.3583
650.20 0.358
650.30 0.3576
650.40 0.3573
650.50 0.3569
650.60 0.3566
650.70 0.3562
650.80 0.3559
650.90 0.3555
651.00 0.3552
651.10 0.3548
651.20 0.3545
651.30 0.3541
651.40 0.3537
651.50 0.3533
651.60 0.3529
651.70 0.3525
651.80 0.3521
651.90 0.3517
652.00 0.3513
652.10 0.3508
652.20 0.3504
652.30 0.35
652.40 0.3495
652.50 0.349
652.60 0.3485
652.70 0.348
652.80 0.3475
652.90 0.347
653.00 0.3465
653.10 0.346
653.20 0.3455
653.30 0.345
653.40 0.3443
653.50 0.3437
653.60 0.3431
653.70 0.3425
653.80 0.3418
653.90 0.3412
654.00 0.3406
654.10 0.34
654.20 0.3393
654.30 0.3387
654.40 0.338
654.50 0.3373
654.60 0.3366
654.70 0.3359
654.80 0.3351
654.90 0.3344
655.00 0.3337
655.10 0.3329
655.20 0.3322
655.30 0.3315
655.40 0.3308
655.50 0.3301
655.60 0.3295
655.70 0.3289
655.80 0.3285
655.90 0.3285
656.00 0.3296
656.10 0.3312
656.20 0.342
656.30 0.3531
656.40 0.3358
656.50 0.3295
656.60 0.328
656.70 0.3267
656.80 0.3267
656.90 0.3267
657.00 0.327
657.10 0.3272
657.20 0.3275
657.30 0.3278
657.40 0.3282
657.50 0.3285
657.60 0.3289
657.70 0.3292
657.80 0.3296
657.90 0.3299
658.00 0.3302
658.10 0.3305
658.20 0.3308
658.30 0.3311
658.40 0.3313
658.50 0.3316
658.60 0.3318
658.70 0.332
658.80 0.3322
658.90 0.3324
659.00 0.3327
659.10 0.3329
659.20 0.3331
659.30 0.3333
659.40 0.3334
659.50 0.3335
659.60 0.3336
659.70 0.3336
659.80 0.3337
659.90 0.3338
660.00 0.3339
660.10 0.334
660.20 0.3341
660.30 0.3342
660.40 0.3342
660.50 0.3341
660.60 0.3341
660.70 0.3341
660.80 0.3341
660.90 0.3341
661.00 0.3341
661.10 0.3341
661.20 0.3341
661.30 0.3341
661.40 0.334
661.50 0.334
661.60 0.3339
661.70 0.3338
661.80 0.3337
661.90 0.3337
662.00 0.3336
662.10 0.3335
662.20 0.3335
662.30 0.3334
662.40 0.3333
662.50 0.3332
662.60 0.3331
662.70 0.333
662.80 0.3328
662.90 0.3327
663.00 0.3326
663.10 0.3325
663.20 0.3324
663.30 0.3323
663.40 0.3322
663.50 0.332
663.60 0.3319
663.70 0.3317
663.80 0.3316
663.90 0.3315
664.00 0.3313
664.10 0.3312
664.20 0.3311
664.30 0.3309
664.40 0.3308
664.50 0.3306
664.60 0.3305
664.70 0.3303
664.80 0.3302
664.90 0.33
665.00 0.3299
665.10 0.3297
665.20 0.3296
665.30 0.3294
665.40 0.3293
665.50 0.3291
665.60 0.3289
665.70 0.3288
665.80 0.3286
665.90 0.3284
666.00 0.3283
666.10 0.3281
666.20 0.328
666.30 0.3278
666.40 0.3276
666.50 0.3275
666.60 0.3273
666.70 0.3271
666.80 0.3269
666.90 0.3268
667.00 0.3266
667.10 0.3264
667.20 0.3263
667.30 0.3261
667.40 0.3259
667.50 0.3258
667.60 0.3256
667.70 0.3254
667.80 0.3252
667.90 0.3251
668.00 0.3249
668.10 0.3247
668.20 0.3245
668.30 0.3244
668.40 0.3242
668.50 0.324
668.60 0.3238
668.70 0.3237
668.80 0.3235
668.90 0.3233
669.00 0.3231
669.10 0.323
669.20 0.3228
669.30 0.3226
669.40 0.3224
669.50 0.3223
669.60 0.3221
669.70 0.3219
669.80 0.3217
669.90 0.3216
670.00 0.3214
670.10 0.3212
670.20 0.321
670.30 0.3208
670.40 0.3207
670.50 0.3205
670.60 0.3203
670.70 0.3201
670.80 0.32
670.90 0.3198
671.00 0.3196
671.10 0.3194
671.20 0.3192
671.30 0.3191
671.40 0.3189
671.50 0.3187
671.60 0.3185
671.70 0.3184
671.80 0.3182
671.90 0.318
672.00 0.3178
672.10 0.3176
672.20 0.3175
672.30 0.3173
672.40 0.3171
672.50 0.3169
672.60 0.3168
672.70 0.3166
672.80 0.3164
672.90 0.3162
673.00 0.316
673.10 0.3159
673.20 0.3157
673.30 0.3155
673.40 0.3153
673.50 0.3152
673.60 0.315
673.70 0.3148
673.80 0.3146
673.90 0.3144
674.00 0.3143
674.10 0.3141
674.20 0.3139
674.30 0.3137
674.40 0.3136
674.50 0.3134
674.60 0.3132
674.70 0.313
674.80 0.3128
674.90 0.3127
675.00 0.3125
675.10 0.3123
675.20 0.3121
675.30 0.312
675.40 0.3118
675.50 0.3116
675.60 0.3114
675.70 0.3113
675.80 0.3111
675.90 0.3109
676.00 0.3107
676.10 0.3105
676.20 0.3104
676.30 0.3102
676.40 0.31
676.50 0.3098
676.60 0.3097
676.70 0.3095
676.80 0.3093
676.90 0.3091
677.00 0.309
677.10 0.3088
677.20 0.3086
677.30 0.3084
677.40 0.3083
677.50 0.3081
677.60 0.3079
677.70 0.3077
677.80 0.3076
677.90 0.3074
678.00 0.3072
678.10 0.307
678.20 0.3069
678.30 0.3067
678.40 0.3065
678.50 0.3063
678.60 0.3062
678.70 0.306
678.80 0.3058
678.90 0.3057
679.00 0.3055
679.10 0.3053
679.20 0.3051
679.30 0.305
679.40 0.3048
679.50 0.3046
679.60 0.3044
679.70 0.3043
679.80 0.3041
679.90 0.3039
680.00 0.3038
680.10 0.3036
680.20 0.3034
680.30 0.3032
680.40 0.3031
680.50 0.3029
680.60 0.3027
680.70 0.3025
680.80 0.3024
680.90 0.3022
681.00 0.302
681.10 0.3019
681.20 0.3017
681.30 0.3015
681.40 0.3013
681.50 0.3012
681.60 0.301
681.70 0.3008
681.80 0.3007
681.90 0.3005
682.00 0.3003
682.10 0.3002
682.20 0.3
682.30 0.2998
682.40 0.2996
682.50 0.2995
682.60 0.2993
682.70 0.2991
682.80 0.299
682.90 0.2988
683.00 0.2986
683.10 0.2985
683.20 0.2983
683.30 0.2981
683.40 0.2979
683.50 0.2978
683.60 0.2976
683.70 0.2974
683.80 0.2973
683.90 0.2971
684.00 0.2969
684.10 0.2968
684.20 0.2966
684.30 0.2964
684.40 0.2963
684.50 0.2961
684.60 0.2959
684.70 0.2958
684.80 0.2956
684.90 0.2954
685.00 0.2953
685.10 0.2951
685.20 0.2949
685.30 0.2948
685.40 0.2946
685.50 0.2944
685.60 0.2943
685.70 0.2941
685.80 0.2939
685.90 0.2938
686.00 0.2936
686.10 0.2934
686.20 0.2933
686.30 0.2931
686.40 0.2929
686.50 0.2928
686.60 0.2926
686.70 0.2924
686.80 0.2923
686.90 0.2921
687.00 0.2919
687.10 0.2918
687.20 0.2916
687.30 0.2914
687.40 0.2913
687.50 0.2911
687.60 0.291
687.70 0.2908
687.80 0.2906
687.90 0.2905
688.00 0.2903
688.10 0.2901
688.20 0.29
688.30 0.2898
688.40 0.2896
688.50 0.2895
688.60 0.2893
688.70 0.2892
688.80 0.289
688.90 0.2888
689.00 0.2887
689.10 0.2885
689.20 0.2883
689.30 0.2882
689.40 0.288
689.50 0.2879
689.60 0.2877
689.70 0.2875
689.80 0.2874
689.90 0.2872
690.00 0.2871
690.10 0.2869
690.20 0.2867
690.30 0.2866
690.40 0.2864
690.50 0.2862
690.60 0.2861
690.70 0.2859
690.80 0.2858
690.90 0.2856
691.00 0.2854
691.10 0.2853
691.20 0.2851
691.30 0.285
691.40 0.2848
691.50 0.2846
691.60 0.2845
691.70 0.2843
691.80 0.2842
691.90 0.284
692.00 0.2838
692.10 0.2837
692.20 0.2835
692.30 0.2834
692.40 0.2832
692.50 0.2831
692.60 0.2829
692.70 0.2827
692.80 0.2826
692.90 0.2824
693.00 0.2823
693.10 0.2821
693.20 0.2819
693.30 0.2818
693.40 0.2816
693.50 0.2815
693.60 0.2813
693.70 0.2812
693.80 0.281
693.90 0.2808
694.00 0.2807
694.10 0.2805
694.20 0.2804
694.30 0.2802
694.40 0.28
694.50 0.2799
694.60 0.2797
694.70 0.2796
694.80 0.2794
694.90 0.2793
695.00 0.2791
695.10 0.2789
695.20 0.2788
695.30 0.2786
695.40 0.2785
695.50 0.2783
695.60 0.2782
695.70 0.278
695.80 0.2779
695.90 0.2777
696.00 0.2776
696.10 0.2774
696.20 0.2772
696.30 0.2771
696.40 0.2769
696.50 0.2768
696.60 0.2766
696.70 0.2765
696.80 0.2763
696.90 0.2762
697.00 0.276
697.10 0.2759
697.20 0.2757
697.30 0.2756
697.40 0.2754
697.50 0.2752
697.60 0.2751
697.70 0.2749
697.80 0.2748
697.90 0.2746
698.00 0.2745
698.10 0.2743
698.20 0.2742
698.30 0.274
698.40 0.2739
698.50 0.2737
698.60 0.2736
698.70 0.2734
698.80 0.2733
698.90 0.2731
699.00 0.273
699.10 0.2728
699.20 0.2726
699.30 0.2725
699.40 0.2723
699.50 0.2722
699.60 0.272
699.70 0.2719
699.80 0.2717
699.90 0.2716
700.00 0.2714
700.10 0.2713
700.20 0.2711
700.30 0.271
700.40 0.2708
700.50 0.2707
700.60 0.2705
700.70 0.2704
700.80 0.2702
700.90 0.2701
701.00 0.2699
701.10 0.2698
701.20 0.2696
701.30 0.2695
701.40 0.2693
701.50 0.2692
701.60 0.269
701.70 0.2689
701.80 0.2687
701.90 0.2686
702.00 0.2684
702.10 0.2683
702.20 0.2681
702.30 0.268
702.40 0.2678
702.50 0.2677
702.60 0.2676
702.70 0.2674
702.80 0.2673
702.90 0.2671
703.00 0.267
703.10 0.2668
703.20 0.2667
703.30 0.2665
703.40 0.2664
703.50 0.2662
703.60 0.2661
703.70 0.2659
703.80 0.2658
703.90 0.2656
704.00 0.2655
704.10 0.2653
704.20 0.2652
704.30 0.265
704.40 0.2649
704.50 0.2648
704.60 0.2646
704.70 0.2645
704.80 0.2643
704.90 0.2642
705.00 0.264
705.10 0.2639
705.20 0.2637
705.30 0.2636
705.40 0.2634
705.50 0.2633
705.60 0.2631
705.70 0.263
705.80 0.2629
705.90 0.2627
706.00 0.2626
706.10 0.2624
706.20 0.2623
706.30 0.2621
706.40 0.262
706.50 0.2619
706.60 0.2617
706.70 0.2616
706.80 0.2614
706.90 0.2613
707.00 0.2611
707.10 0.261
707.20 0.2608
707.30 0.2607
707.40 0.2606
707.50 0.2604
707.60 0.2603
707.70 0.2601
707.80 0.26
707.90 0.2598
708.00 0.2597
708.10 0.2596
708.20 0.2594
708.30 0.2593
708.40 0.2591
708.50 0.259
708.60 0.2588
708.70 0.2587
708.80 0.2586
708.90 0.2584
709.00 0.2583
709.10 0.2581
709.20 0.258
709.30 0.2578
709.40 0.2577
709.50 0.2576
709.60 0.2574
709.70 0.2573
709.80 0.2571
709.90 0.257
710.00 0.2569
710.10 0.2567
710.20 0.2566
710.30 0.2564
710.40 0.2563
710.50 0.2562
710.60 0.256
710.70 0.2559
710.80 0.2557
710.90 0.2556
711.00 0.2555
711.10 0.2553
711.20 0.2552
711.30 0.255
711.40 0.2549
711.50 0.2548
711.60 0.2546
711.70 0.2545
711.80 0.2543
711.90 0.2542
712.00 0.2541
712.10 0.2539
712.20 0.2538
712.30 0.2536
712.40 0.2535
712.50 0.2534
712.60 0.2532
712.70 0.2531
712.80 0.253
712.90 0.2528
713.00 0.2527
713.10 0.2525
713.20 0.2524
713.30 0.2523
713.40 0.2521
713.50 0.252
713.60 0.2519
713.70 0.2517
713.80 0.2516
713.90 0.2514
714.00 0.2513
714.10 0.2512
714.20 0.251
714.30 0.2509
714.40 0.2508
714.50 0.2506
714.60 0.2505
714.70 0.2503
714.80 0.2502
714.90 0.2501
715.00 0.2499
715.10 0.2498
715.20 0.2497
715.30 0.2495
715.40 0.2494
715.50 0.2493
715.60 0.2491
715.70 0.249
715.80 0.2488
715.90 0.2487
716.00 0.2486
716.10 0.2484
716.20 0.2483
716.30 0.2482
716.40 0.248
716.50 0.2479
716.60 0.2478
716.70 0.2476
716.80 0.2475
716.90 0.2474
717.00 0.2472
717.10 0.2471
717.20 0.247
717.30 0.2468
717.40 0.2467
717.50 0.2466
717.60 0.2464
717.70 0.2463
717.80 0.2462
717.90 0.246
718.00 0.2459
718.10 0.2458
718.20 0.2456
718.30 0.2455
718.40 0.2454
718.50 0.2452
718.60 0.2451
718.70 0.245
718.80 0.2448
718.90 0.2447
719.00 0.2446
719.10 0.2444
719.20 0.2443
719.30 0.2442
719.40 0.244
719.50 0.2439
719.60 0.2438
719.70 0.2436
719.80 0.2435
719.90 0.2434
720.00 0.2432
720.10 0.2431
720.20 0.243
720.30 0.2428
720.40 0.2427
720.50 0.2426
720.60 0.2425
720.70 0.2423
720.80 0.2422
720.90 0.2421
721.00 0.2419
721.10 0.2418
721.20 0.2417
721.30 0.2415
721.40 0.2414
721.50 0.2413
721.60 0.2412
721.70 0.241
721.80 0.2409
721.90 0.2408
722.00 0.2406
722.10 0.2405
722.20 0.2404
722.30 0.2402
722.40 0.2401
722.50 0.24
722.60 0.2399
722.70 0.2397
722.80 0.2396
722.90 0.2395
723.00 0.2393
723.10 0.2392
723.20 0.2391
723.30 0.239
723.40 0.2388
723.50 0.2387
723.60 0.2386
723.70 0.2384
723.80 0.2383
723.90 0.2382
724.00 0.2381
724.10 0.2379
724.20 0.2378
724.30 0.2377
724.40 0.2375
724.50 0.2374
724.60 0.2373
724.70 0.2372
724.80 0.237
724.90 0.2369
725.00 0.2368
725.10 0.2366
725.20 0.2365
725.30 0.2364
725.40 0.2363
725.50 0.2361
725.60 0.236
725.70 0.2359
725.80 0.2358
725.90 0.2356
726.00 0.2355
726.10 0.2354
726.20 0.2353
726.30 0.2351
726.40 0.235
726.50 0.2349
726.60 0.2348
726.70 0.2346
726.80 0.2345
726.90 0.2344
727.00 0.2343
727.10 0.2341
727.20 0.234
727.30 0.2339
727.40 0.2337
727.50 0.2336
727.60 0.2335
727.70 0.2334
727.80 0.2332
727.90 0.2331
728.00 0.233
728.10 0.2329
728.20 0.2327
728.30 0.2326
728.40 0.2325
728.50 0.2324
728.60 0.2323
728.70 0.2321
728.80 0.232
728.90 0.2319
729.00 0.2318
729.10 0.2316
729.20 0.2315
729.30 0.2314
729.40 0.2313
729.50 0.2311
729.60 0.231
729.70 0.2309
729.80 0.2308
729.90 0.2306
730.00 0.2305
730.10 0.2304
730.20 0.2303
730.30 0.2301
730.40 0.23
730.50 0.2299
730.60 0.2298
730.70 0.2297
730.80 0.2295
730.90 0.2294
731.00 0.2293
731.10 0.2292
731.20 0.2291
731.30 0.2289
731.40 0.2288
731.50 0.2287
731.60 0.2286
731.70 0.2285
731.80 0.2283
731.90 0.2282
732.00 0.2281
732.10 0.228
732.20 0.2278
732.30 0.2277
732.40 0.2276
732.50 0.2275
732.60 0.2274
732.70 0.2272
732.80 0.2271
732.90 0.227
733.00 0.2269
733.10 0.2268
733.20 0.2266
733.30 0.2265
733.40 0.2264
733.50 0.2263
733.60 0.2262
733.70 0.226
733.80 0.2259
733.90 0.2258
734.00 0.2257
734.10 0.2256
734.20 0.2254
734.30 0.2253
734.40 0.2252
734.50 0.2251
734.60 0.225
734.70 0.2249
734.80 0.2247
734.90 0.2246
735.00 0.2245
735.10 0.2244
735.20 0.2243
735.30 0.2241
735.40 0.224
735.50 0.2239
735.60 0.2238
735.70 0.2237
735.80 0.2235
735.90 0.2234
736.00 0.2233
736.10 0.2232
736.20 0.2231
736.30 0.223
736.40 0.2228
736.50 0.2227
736.60 0.2226
736.70 0.2225
736.80 0.2224
736.90 0.2222
737.00 0.2221
737.10 0.222
737.20 0.2219
737.30 0.2218
737.40 0.2217
737.50 0.2215
737.60 0.2214
737.70 0.2213
737.80 0.2212
737.90 0.2211
738.00 0.2209
738.10 0.2208
738.20 0.2207
738.30 0.2206
738.40 0.2205
738.50 0.2204
738.60 0.2202
738.70 0.2201
738.80 0.22
738.90 0.2199
739.00 0.2198
739.10 0.2197
739.20 0.2195
739.30 0.2194
739.40 0.2193
739.50 0.2192
739.60 0.2191
739.70 0.219
739.80 0.2188
739.90 0.2187
740.00 0.2186
740.10 0.2185
740.20 0.2184
740.30 0.2183
740.40 0.2182
740.50 0.218
740.60 0.2179
740.70 0.2178
740.80 0.2177
740.90 0.2176
741.00 0.2175
741.10 0.2174
741.20 0.2172
741.30 0.2171
741.40 0.217
741.50 0.2169
741.60 0.2168
741.70 0.2167
741.80 0.2166
741.90 0.2165
742.00 0.2163
742.10 0.2162
742.20 0.2161
742.30 0.216
742.40 0.2159
742.50 0.2158
742.60 0.2157
742.70 0.2156
742.80 0.2154
742.90 0.2153
743.00 0.2152
743.10 0.2151
743.20 0.215
743.30 0.2149
743.40 0.2148
743.50 0.2147
743.60 0.2145
743.70 0.2144
743.80 0.2143
743.90 0.2142
744.00 0.2141
744.10 0.214
744.20 0.2139
744.30 0.2138
744.40 0.2136
744.50 0.2135
744.60 0.2134
744.70 0.2133
744.80 0.2132
744.90 0.2131
745.00 0.213
745.10 0.2129
745.20 0.2128
745.30 0.2126
745.40 0.2125
745.50 0.2124
745.60 0.2123
745.70 0.2122
745.80 0.2121
745.90 0.212
746.00 0.2119
746.10 0.2118
746.20 0.2116
746.30 0.2115
746.40 0.2114
746.50 0.2113
746.60 0.2112
746.70 0.2111
746.80 0.211
746.90 0.2109
747.00 0.2108
747.10 0.2106
747.20 0.2105
747.30 0.2104
747.40 0.2103
747.50 0.2102
747.60 0.2101
747.70 0.21
747.80 0.2099
747.90 0.2098
748.00 0.2097
748.10 0.2095
748.20 0.2094
748.30 0.2093
748.40 0.2092
748.50 0.2091
748.60 0.209
748.70 0.2089
748.80 0.2088
748.90 0.2087
749.00 0.2086
749.10 0.2085
749.20 0.2083
749.30 0.2082
749.40 0.2081
749.50 0.208
749.60 0.2079
749.70 0.2078
749.80 0.2077
749.90 0.2076
750.00 0.2075
750.10 0.2074
750.20 0.2073
750.30 0.2072
750.40 0.207
750.50 0.2069
750.60 0.2068
750.70 0.2067
750.80 0.2066
750.90 0.2065
751.00 0.2064
751.10 0.2063
751.20 0.2062
751.30 0.2061
751.40 0.206
751.50 0.2059
751.60 0.2058
751.70 0.2057
751.80 0.2056
751.90 0.2054
752.00 0.2053
752.10 0.2052
752.20 0.2051
752.30 0.205
752.40 0.2049
752.50 0.2048
752.60 0.2047
752.70 0.2046
752.80 0.2045
752.90 0.2044
753.00 0.2043
753.10 0.2042
753.20 0.2041
753.30 0.204
753.40 0.2039
753.50 0.2038
753.60 0.2037
753.70 0.2036
753.80 0.2034
753.90 0.2033
754.00 0.2032
754.10 0.2031
754.20 0.203
754.30 0.2029
754.40 0.2028
754.50 0.2027
754.60 0.2026
754.70 0.2025
754.80 0.2024
754.90 0.2023
755.00 0.2022
755.10 0.2021
755.20 0.202
755.30 0.2019
755.40 0.2018
755.50 0.2017
755.60 0.2016
755.70 0.2015
755.80 0.2014
755.90 0.2013
756.00 0.2011
756.10 0.201
756.20 0.2009
756.30 0.2008
756.40 0.2007
756.50 0.2006
756.60 0.2005
756.70 0.2004
756.80 0.2003
756.90 0.2002
757.00 0.2001
757.10 0.2
757.20 0.1999
757.30 0.1998
757.40 0.1997
757.50 0.1996
757.60 0.1995
757.70 0.1994
757.80 0.1993
757.90 0.1992
758.00 0.1991
758.10 0.199
758.20 0.1989
758.30 0.1988
758.40 0.1987
758.50 0.1986
758.60 0.1985
758.70 0.1984
758.80 0.1983
758.90 0.1982
759.00 0.1981
759.10 0.198
759.20 0.1978
759.30 0.1977
759.40 0.1976
759.50 0.1975
759.60 0.1974
759.70 0.1973
759.80 0.1972
759.90 0.1971
760.00 0.197
760.10 0.1969
760.20 0.1968
760.30 0.1967
760.40 0.1966
760.50 0.1965
760.60 0.1964
760.70 0.1963
760.80 0.1962
760.90 0.1961
761.00 0.196
761.10 0.1959
761.20 0.1958
761.30 0.1957
761.40 0.1956
761.50 0.1955
761.60 0.1954
761.70 0.1953
761.80 0.1952
761.90 0.1951
762.00 0.195
762.10 0.1949
762.20 0.1948
762.30 0.1947
762.40 0.1946
762.50 0.1945
762.60 0.1944
762.70 0.1943
762.80 0.1942
762.90 0.1941
763.00 0.194
763.10 0.1939
763.20 0.1938
763.30 0.1937
763.40 0.1937
763.50 0.1936
763.60 0.1935
763.70 0.1934
763.80 0.1933
763.90 0.1932
764.00 0.1931
764.10 0.193
764.20 0.1929
764.30 0.1928
764.40 0.1927
764.50 0.1926
764.60 0.1925
764.70 0.1924
764.80 0.1923
764.90 0.1922
765.00 0.1921
765.10 0.192
765.20 0.1919
765.30 0.1918
765.40 0.1917
765.50 0.1916
765.60 0.1915
765.70 0.1914
765.80 0.1913
765.90 0.1912
766.00 0.1911
766.10 0.191
766.20 0.1909
766.30 0.1908
766.40 0.1907
766.50 0.1906
766.60 0.1905
766.70 0.1904
766.80 0.1903
766.90 0.1902
767.00 0.1901
767.10 0.19
767.20 0.1899
767.30 0.1898
767.40 0.1897
767.50 0.1896
767.60 0.1895
767.70 0.1895
767.80 0.1894
767.90 0.1893
768.00 0.1892
768.10 0.1891
768.20 0.189
768.30 0.1889
768.40 0.1888
768.50 0.1887
768.60 0.1886
768.70 0.1885
768.80 0.1884
768.90 0.1883
769.00 0.1882
769.10 0.1881
769.20 0.188
769.30 0.1879
769.40 0.1878
769.50 0.1877
769.60 0.1876
769.70 0.1875
769.80 0.1874
769.90 0.1873
770.00 0.1872
770.10 0.1871
770.20 0.1871
770.30 0.187
770.40 0.1869
770.50 0.1868
770.60 0.1867
770.70 0.1866
770.80 0.1865
770.90 0.1864
771.00 0.1863
771.10 0.1862
771.20 0.1861
771.30 0.186
771.40 0.1859
771.50 0.1858
771.60 0.1857
771.70 0.1856
771.80 0.1856
771.90 0.1855
772.00 0.1854
772.10 0.1853
772.20 0.1852
772.30 0.1851
772.40 0.185
772.50 0.1849
772.60 0.1848
772.70 0.1847
772.80 0.1846
772.90 0.1845
773.00 0.1844
773.10 0.1843
773.20 0.1843
773.30 0.1842
773.40 0.1841
773.50 0.184
773.60 0.1839
773.70 0.1838
773.80 0.1837
773.90 0.1836
774.00 0.1835
774.10 0.1834
774.20 0.1833
774.30 0.1832
774.40 0.1831
774.50 0.1831
774.60 0.183
774.70 0.1829
774.80 0.1828
774.90 0.1827
775.00 0.1826
775.10 0.1825
775.20 0.1824
775.30 0.1823
775.40 0.1822
775.50 0.1821
775.60 0.182
775.70 0.182
775.80 0.1819
775.90 0.1818
776.00 0.1817
776.10 0.1816
776.20 0.1815
776.30 0.1814
776.40 0.1813
776.50 0.1812
776.60 0.1811
776.70 0.181
776.80 0.1809
776.90 0.1809
777.00 0.1808
777.10 0.1807
777.20 0.1806
777.30 0.1805
777.40 0.1804
777.50 0.1803
777.60 0.1802
777.70 0.1801
777.80 0.18
777.90 0.1799
778.00 0.1799
778.10 0.1798
778.20 0.1797
778.30 0.1796
778.40 0.1795
778.50 0.1794
778.60 0.1793
778.70 0.1792
778.80 0.1791
778.90 0.179
779.00 0.179
779.10 0.1789
779.20 0.1788
779.30 0.1787
779.40 0.1786
779.50 0.1785
779.60 0.1784
779.70 0.1783
779.80 0.1782
779.90 0.1781
780.00 0.178
780.10 0.178
780.20 0.1779
780.30 0.1778
780.40 0.1777
780.50 0.1776
780.60 0.1775
780.70 0.1774
780.80 0.1773
780.90 0.1773
781.00 0.1772
781.10 0.1771
781.20 0.177
781.30 0.1769
781.40 0.1768
781.50 0.1767
781.60 0.1766
781.70 0.1766
781.80 0.1765
781.90 0.1764
782.00 0.1763
782.10 0.1762
782.20 0.1761
782.30 0.176
782.40 0.1759
782.50 0.1759
782.60 0.1758
782.70 0.1757
782.80 0.1756
782.90 0.1755
783.00 0.1754
783.10 0.1753
783.20 0.1752
783.30 0.1752
783.40 0.1751
783.50 0.175
783.60 0.1749
783.70 0.1748
783.80 0.1747
783.90 0.1746
784.00 0.1746
784.10 0.1745
784.20 0.1744
784.30 0.1743
784.40 0.1742
784.50 0.1741
784.60 0.174
784.70 0.1739
784.80 0.1739
784.90 0.1738
785.00 0.1737
785.10 0.1736
785.20 0.1735
785.30 0.1734
785.40 0.1733
785.50 0.1733
785.60 0.1732
785.70 0.1731
785.80 0.173
785.90 0.1729
786.00 0.1728
786.10 0.1727
786.20 0.1727
786.30 0.1726
786.40 0.1725
786.50 0.1724
786.60 0.1723
786.70 0.1722
786.80 0.1721
786.90 0.1721
787.00 0.172
787.10 0.1719
787.20 0.1718
787.30 0.1717
787.40 0.1716
787.50 0.1715
787.60 0.1715
787.70 0.1714
787.80 0.1713
787.90 0.1712
788.00 0.1711
788.10 0.171
788.20 0.1709
788.30 0.1709
788.40 0.1708
788.50 0.1707
788.60 0.1706
788.70 0.1705
788.80 0.1704
788.90 0.1703
789.00 0.1703
789.10 0.1702
789.20 0.1701
789.30 0.17
789.40 0.1699
789.50 0.1698
789.60 0.1698
789.70 0.1697
789.80 0.1696
789.90 0.1695
790.00 0.1694
790.10 0.1693
790.20 0.1693
790.30 0.1692
790.40 0.1691
790.50 0.169
790.60 0.1689
790.70 0.1688
790.80 0.1688
790.90 0.1687
791.00 0.1686
791.10 0.1685
791.20 0.1684
791.30 0.1683
791.40 0.1683
791.50 0.1682
791.60 0.1681
791.70 0.168
791.80 0.1679
791.90 0.1678
792.00 0.1678
792.10 0.1677
792.20 0.1676
792.30 0.1675
792.40 0.1674
792.50 0.1674
792.60 0.1673
792.70 0.1672
792.80 0.1671
792.90 0.167
793.00 0.1669
793.10 0.1669
793.20 0.1668
793.30 0.1667
793.40 0.1666
793.50 0.1665
793.60 0.1665
793.70 0.1664
793.80 0.1663
793.90 0.1662
794.00 0.1661
794.10 0.166
794.20 0.166
794.30 0.1659
794.40 0.1658
794.50 0.1657
794.60 0.1656
794.70 0.1656
794.80 0.1655
794.90 0.1654
795.00 0.1653
795.10 0.1652
795.20 0.1652
795.30 0.1651
795.40 0.165
795.50 0.1649
795.60 0.1648
795.70 0.1648
795.80 0.1647
795.90 0.1646
796.00 0.1645
796.10 0.1644
796.20 0.1643
796.30 0.1643
796.40 0.1642
796.50 0.1641
796.60 0.164
796.70 0.1639
796.80 0.1639
796.90 0.1638
797.00 0.1637
797.10 0.1636
797.20 0.1635
797.30 0.1635
797.40 0.1634
797.50 0.1633
797.60 0.1632
797.70 0.1631
797.80 0.1631
797.90 0.163
798.00 0.1629
798.10 0.1628
798.20 0.1627
798.30 0.1627
798.40 0.1626
798.50 0.1625
798.60 0.1624
798.70 0.1623
798.80 0.1623
798.90 0.1622
799.00 0.1621
799.10 0.162
799.20 0.1619
799.30 0.1619
799.40 0.1618
799.50 0.1617
799.60 0.1616
799.70 0.1615
799.80 0.1615
799.90 0.1614
800.00 0.1613
800.10 0.1612
800.20 0.1611
800.30 0.1611
800.40 0.161
800.50 0.1609
800.60 0.1608
800.70 0.1608
800.80 0.1607
800.90 0.1606
801.00 0.1605
801.10 0.1604
801.20 0.1604
801.30 0.1603
801.40 0.1602
801.50 0.1601
801.60 0.1601
801.70 0.16
801.80 0.1599
801.90 0.1598
802.00 0.1598
802.10 0.1597
802.20 0.1596
802.30 0.1595
802.40 0.1594
802.50 0.1594
802.60 0.1593
802.70 0.1592
802.80 0.1591
802.90 0.1591
803.00 0.159
803.10 0.1589
803.20 0.1588
803.30 0.1587
803.40 0.1587
803.50 0.1586
803.60 0.1585
803.70 0.1584
803.80 0.1584
803.90 0.1583
804.00 0.1582
804.10 0.1581
804.20 0.1581
804.30 0.158
804.40 0.1579
804.50 0.1578
804.60 0.1578
804.70 0.1577
804.80 0.1576
804.90 0.1575
805.00 0.1574
805.10 0.1574
805.20 0.1573
805.30 0.1572
805.40 0.1571
805.50 0.1571
805.60 0.157
805.70 0.1569
805.80 0.1568
805.90 0.1568
806.00 0.1567
806.10 0.1566
806.20 0.1565
806.30 0.1565
806.40 0.1564
806.50 0.1563
806.60 0.1562
806.70 0.1562
806.80 0.1561
806.90 0.156
807.00 0.1559
807.10 0.1559
807.20 0.1558
807.30 0.1557
807.40 0.1556
807.50 0.1555
807.60 0.1555
807.70 0.1554
807.80 0.1553
807.90 0.1552
808.00 0.1552
808.10 0.1551
808.20 0.155
808.30 0.1549
808.40 0.1549
808.50 0.1548
808.60 0.1547
808.70 0.1546
808.80 0.1546
808.90 0.1545
809.00 0.1544
809.10 0.1543
809.20 0.1543
809.30 0.1542
809.40 0.1541
809.50 0.154
809.60 0.154
809.70 0.1539
809.80 0.1538
809.90 0.1537
810.00 0.1537
810.10 0.1536
810.20 0.1535
810.30 0.1535
810.40 0.1534
810.50 0.1533
810.60 0.1532
810.70 0.1532
810.80 0.1531
810.90 0.153
811.00 0.1529
811.10 0.1529
811.20 0.1528
811.30 0.1527
811.40 0.1526
811.50 0.1526
811.60 0.1525
811.70 0.1524
811.80 0.1524
811.90 0.1523
812.00 0.1522
812.10 0.1521
812.20 0.1521
812.30 0.152
812.40 0.1519
812.50 0.1518
812.60 0.1518
812.70 0.1517
812.80 0.1516
812.90 0.1516
813.00 0.1515
813.10 0.1514
813.20 0.1513
813.30 0.1513
813.40 0.1512
813.50 0.1511
813.60 0.1511
813.70 0.151
813.80 0.1509
813.90 0.1508
814.00 0.1508
814.10 0.1507
814.20 0.1506
814.30 0.1505
814.40 0.1505
814.50 0.1504
814.60 0.1503
814.70 0.1503
814.80 0.1502
814.90 0.1501
815.00 0.15
815.10 0.15
815.20 0.1499
815.30 0.1498
815.40 0.1498
815.50 0.1497
815.60 0.1496
815.70 0.1495
815.80 0.1495
815.90 0.1494
816.00 0.1493
816.10 0.1493
816.20 0.1492
816.30 0.1491
816.40 0.149
816.50 0.149
816.60 0.1489
816.70 0.1488
816.80 0.1488
816.90 0.1487
817.00 0.1486
817.10 0.1485
817.20 0.1485
817.30 0.1484
817.40 0.1483
817.50 0.1483
817.60 0.1482
817.70 0.1481
817.80 0.148
817.90 0.148
818.00 0.1479
818.10 0.1478
818.20 0.1478
818.30 0.1477
818.40 0.1476
818.50 0.1475
818.60 0.1475
818.70 0.1474
818.80 0.1473
818.90 0.1473
819.00 0.1472
819.10 0.1471
819.20 0.1471
819.30 0.147
819.40 0.1469
819.50 0.1468
819.60 0.1468
819.70 0.1467
819.80 0.1466
819.90 0.1466
820.00 0.1465
820.10 0.1464
820.20 0.1463
820.30 0.1463
820.40 0.1462
820.50 0.1461
820.60 0.1461
820.70 0.146
820.80 0.1459
820.90 0.1459
821.00 0.1458
821.10 0.1457
821.20 0.1457
821.30 0.1456
821.40 0.1455
821.50 0.1454
821.60 0.1454
821.70 0.1453
821.80 0.1452
821.90 0.1452
822.00 0.1451
822.10 0.145
822.20 0.145
822.30 0.1449
822.40 0.1448
822.50 0.1448
822.60 0.1447
822.70 0.1446
822.80 0.1446
822.90 0.1445
823.00 0.1444
823.10 0.1443
823.20 0.1443
823.30 0.1442
823.40 0.1441
823.50 0.1441
823.60 0.144
823.70 0.1439
823.80 0.1439
823.90 0.1438
824.00 0.1437
824.10 0.1437
824.20 0.1436
824.30 0.1435
824.40 0.1435
824.50 0.1434
824.60 0.1433
824.70 0.1433
824.80 0.1432
824.90 0.1431
825.00 0.1431
825.10 0.143
825.20 0.1429
825.30 0.1429
825.40 0.1428
825.50 0.1427
825.60 0.1426
825.70 0.1426
825.80 0.1425
825.90 0.1424
826.00 0.1424
826.10 0.1423
826.20 0.1422
826.30 0.1422
826.40 0.1421
826.50 0.142
826.60 0.142
826.70 0.1419
826.80 0.1418
826.90 0.1418
827.00 0.1417
827.10 0.1416
827.20 0.1416
827.30 0.1415
827.40 0.1414
827.50 0.1414
827.60 0.1413
827.70 0.1412
827.80 0.1412
827.90 0.1411
828.00 0.141
828.10 0.141
828.20 0.1409
828.30 0.1408
828.40 0.1408
828.50 0.1407
828.60 0.1406
828.70 0.1406
828.80 0.1405
828.90 0.1404
829.00 0.1404
829.10 0.1403
829.20 0.1402
829.30 0.1402
829.40 0.1401
829.50 0.14
829.60 0.14
829.70 0.1399
829.80 0.1399
829.90 0.1398
830.00 0.1397
830.10 0.1397
830.20 0.1396
830.30 0.1395
830.40 0.1395
830.50 0.1394
830.60 0.1393
830.70 0.1393
830.80 0.1392
830.90 0.1391
831.00 0.1391
831.10 0.139
831.20 0.1389
831.30 0.1389
831.40 0.1388
831.50 0.1387
831.60 0.1387
831.70 0.1386
831.80 0.1385
831.90 0.1385
832.00 0.1384
832.10 0.1383
832.20 0.1383
832.30 0.1382
832.40 0.1382
832.50 0.1381
832.60 0.138
832.70 0.138
832.80 0.1379
832.90 0.1378
833.00 0.1378
833.10 0.1377
833.20 0.1376
833.30 0.1376
833.40 0.1375
833.50 0.1374
833.60 0.1374
833.70 0.1373
833.80 0.1372
833.90 0.1372
834.00 0.1371
834.10 0.1371
834.20 0.137
834.30 0.1369
834.40 0.1369
834.50 0.1368
834.60 0.1367
834.70 0.1367
834.80 0.1366
834.90 0.1365
835.00 0.1365
835.10 0.1364
835.20 0.1364
835.30 0.1363
835.40 0.1362
835.50 0.1362
835.60 0.1361
835.70 0.136
835.80 0.136
835.90 0.1359
836.00 0.1358
836.10 0.1358
836.20 0.1357
836.30 0.1357
836.40 0.1356
836.50 0.1355
836.60 0.1355
836.70 0.1354
836.80 0.1353
836.90 0.1353
837.00 0.1352
837.10 0.1351
837.20 0.1351
837.30 0.135
837.40 0.135
837.50 0.1349
837.60 0.1348
837.70 0.1348
837.80 0.1347
837.90 0.1346
838.00 0.1346
838.10 0.1345
838.20 0.1345
838.30 0.1344
838.40 0.1343
838.50 0.1343
838.60 0.1342
838.70 0.1341
838.80 0.1341
838.90 0.134
839.00 0.134
839.10 0.1339
839.20 0.1338
839.30 0.1338
839.40 0.1337
839.50 0.1336
839.60 0.1336
839.70 0.1335
839.80 0.1335
839.90 0.1334
840.00 0.1333
840.10 0.1333
840.20 0.1332
840.30 0.1331
840.40 0.1331
840.50 0.133
840.60 0.133
840.70 0.1329
840.80 0.1328
840.90 0.1328
841.00 0.1327
841.10 0.1327
841.20 0.1326
841.30 0.1325
841.40 0.1325
841.50 0.1324
841.60 0.1323
841.70 0.1323
841.80 0.1322
841.90 0.1322
842.00 0.1321
842.10 0.132
842.20 0.132
842.30 0.1319
842.40 0.1319
842.50 0.1318
842.60 0.1317
842.70 0.1317
842.80 0.1316
842.90 0.1315
843.00 0.1315
843.10 0.1314
843.20 0.1314
843.30 0.1313
843.40 0.1312
843.50 0.1312
843.60 0.1311
843.70 0.1311
843.80 0.131
843.90 0.1309
844.00 0.1309
844.10 0.1308
844.20 0.1308
844.30 0.1307
844.40 0.1306
844.50 0.1306
844.60 0.1305
844.70 0.1305
844.80 0.1304
844.90 0.1303
845.00 0.1303
845.10 0.1302
845.20 0.1302
845.30 0.1301
845.40 0.13
845.50 0.13
845.60 0.1299
845.70 0.1299
845.80 0.1298
845.90 0.1297
846.00 0.1297
846.10 0.1296
846.20 0.1296
846.30 0.1295
846.40 0.1294
846.50 0.1294
846.60 0.1293
846.70 0.1293
846.80 0.1292
846.90 0.1291
847.00 0.1291
847.10 0.129
847.20 0.129
847.30 0.1289
847.40 0.1288
847.50 0.1288
847.60 0.1287
847.70 0.1287
847.80 0.1286
847.90 0.1285
848.00 0.1285
848.10 0.1284
848.20 0.1284
848.30 0.1283
848.40 0.1282
848.50 0.1282
848.60 0.1281
848.70 0.1281
848.80 0.128
848.90 0.1279
849.00 0.1279
849.10 0.1278
849.20 0.1278
849.30 0.1277
849.40 0.1277
849.50 0.1276
849.60 0.1275
849.70 0.1275
849.80 0.1274
849.90 0.1274
850.00 0.1273
850.10 0.1272
850.20 0.1272
850.30 0.1271
850.40 0.1271
850.50 0.127
850.60 0.127
850.70 0.1269
850.80 0.1268
850.90 0.1268
851.00 0.1267
851.10 0.1267
851.20 0.1266
851.30 0.1265
851.40 0.1265
851.50 0.1264
851.60 0.1264
851.70 0.1263
851.80 0.1263
851.90 0.1262
852.00 0.1261
852.10 0.1261
852.20 0.126
852.30 0.126
852.40 0.1259
852.50 0.1258
852.60 0.1258
852.70 0.1257
852.80 0.1257
852.90 0.1256
853.00 0.1256
853.10 0.1255
853.20 0.1254
853.30 0.1254
853.40 0.1253
853.50 0.1253
853.60 0.1252
853.70 0.1252
853.80 0.1251
853.90 0.125
854.00 0.125
854.10 0.1249
854.20 0.1249
854.30 0.1248
854.40 0.1248
854.50 0.1247
854.60 0.1246
854.70 0.1246
854.80 0.1245
854.90 0.1245
855.00 0.1244
855.10 0.1244
855.20 0.1243
855.30 0.1242
855.40 0.1242
855.50 0.1241
855.60 0.1241
855.70 0.124
855.80 0.124
855.90 0.1239
856.00 0.1238
856.10 0.1238
856.20 0.1237
856.30 0.1237
856.40 0.1236
856.50 0.1236
856.60 0.1235
856.70 0.1235
856.80 0.1234
856.90 0.1233
857.00 0.1233
857.10 0.1232
857.20 0.1232
857.30 0.1231
857.40 0.1231
857.50 0.123
857.60 0.1229
857.70 0.1229
857.80 0.1228
857.90 0.1228
858.00 0.1227
858.10 0.1227
858.20 0.1226
858.30 0.1226
858.40 0.1225
858.50 0.1224
858.60 0.1224
858.70 0.1223
858.80 0.1223
858.90 0.1222
859.00 0.1222
859.10 0.1221
859.20 0.1221
859.30 0.122
859.40 0.1219
859.50 0.1219
859.60 0.1218
859.70 0.1218
859.80 0.1217
859.90 0.1217
860.00 0.1216
860.10 0.1216
860.20 0.1215
860.30 0.1214
860.40 0.1214
860.50 0.1213
860.60 0.1213
860.70 0.1212
860.80 0.1212
860.90 0.1211
861.00 0.1211
861.10 0.121
861.20 0.121
861.30 0.1209
861.40 0.1208
861.50 0.1208
861.60 0.1207
861.70 0.1207
861.80 0.1206
861.90 0.1206
862.00 0.1205
862.10 0.1205
862.20 0.1204
862.30 0.1204
862.40 0.1203
862.50 0.1202
862.60 0.1202
862.70 0.1201
862.80 0.1201
862.90 0.12
863.00 0.12
863.10 0.1199
863.20 0.1199
863.30 0.1198
863.40 0.1198
863.50 0.1197
863.60 0.1196
863.70 0.1196
863.80 0.1195
863.90 0.1195
864.00 0.1194
864.10 0.1194
864.20 0.1193
864.30 0.1193
864.40 0.1192
864.50 0.1192
864.60 0.1191
864.70 0.1191
864.80 0.119
864.90 0.1189
865.00 0.1189
865.10 0.1188
865.20 0.1188
865.30 0.1187
865.40 0.1187
865.50 0.1186
865.60 0.1186
865.70 0.1185
865.80 0.1185
865.90 0.1184
866.00 0.1184
866.10 0.1183
866.20 0.1182
866.30 0.1182
866.40 0.1181
866.50 0.1181
866.60 0.118
866.70 0.118
866.80 0.1179
866.90 0.1179
867.00 0.1178
867.10 0.1178
867.20 0.1177
867.30 0.1177
867.40 0.1176
867.50 0.1176
867.60 0.1175
867.70 0.1174
867.80 0.1174
867.90 0.1173
868.00 0.1173
868.10 0.1172
868.20 0.1172
868.30 0.1171
868.40 0.1171
868.50 0.117
868.60 0.117
868.70 0.1169
868.80 0.1169
868.90 0.1168
869.00 0.1168
869.10 0.1167
869.20 0.1167
869.30 0.1166
869.40 0.1166
869.50 0.1165
869.60 0.1164
869.70 0.1164
869.80 0.1163
869.90 0.1163
870.00 0.1162
870.10 0.1162
870.20 0.1161
870.30 0.1161
870.40 0.116
870.50 0.116
870.60 0.1159
870.70 0.1159
870.80 0.1158
870.90 0.1158
871.00 0.1157
871.10 0.1157
871.20 0.1156
871.30 0.1156
871.40 0.1155
871.50 0.1155
871.60 0.1154
871.70 0.1154
871.80 0.1153
871.90 0.1153
872.00 0.1152
872.10 0.1151
872.20 0.1151
872.30 0.115
872.40 0.115
872.50 0.1149
872.60 0.1149
872.70 0.1148
872.80 0.1148
872.90 0.1147
873.00 0.1147
873.10 0.1146
873.20 0.1146
873.30 0.1145
873.40 0.1145
873.50 0.1144
873.60 0.1144
873.70 0.1143
873.80 0.1143
873.90 0.1142
874.00 0.1142
874.10 0.1141
874.20 0.1141
874.30 0.114
874.40 0.114
874.50 0.1139
874.60 0.1139
874.70 0.1138
874.80 0.1138
874.90 0.1137
875.00 0.1137
875.10 0.1136
875.20 0.1136
875.30 0.1135
875.40 0.1135
875.50 0.1134
875.60 0.1134
875.70 0.1133
875.80 0.1133
875.90 0.1132
876.00 0.1132
876.10 0.1131
876.20 0.1131
876.30 0.113
876.40 0.113
876.50 0.1129
876.60 0.1129
876.70 0.1128
876.80 0.1128
876.90 0.1127
877.00 0.1127
877.10 0.1126
877.20 0.1126
877.30 0.1125
877.40 0.1125
877.50 0.1124
877.60 0.1124
877.70 0.1123
877.80 0.1123
877.90 0.1122
878.00 0.1122
878.10 0.1121
878.20 0.1121
878.30 0.112
878.40 0.112
878.50 0.1119
878.60 0.1119
878.70 0.1118
878.80 0.1118
878.90 0.1117
879.00 0.1117
879.10 0.1116
879.20 0.1116
879.30 0.1115
879.40 0.1115
879.50 0.1114
879.60 0.1114
879.70 0.1113
879.80 0.1113
879.90 0.1112
880.00 0.1112
880.10 0.1111
880.20 0.1111
880.30 0.111
880.40 0.111
880.50 0.1109
880.60 0.1109
880.70 0.1108
880.80 0.1108
880.90 0.1107
881.00 0.1107
881.10 0.1106
881.20 0.1106
881.30 0.1105
881.40 0.1105
881.50 0.1104
881.60 0.1104
881.70 0.1103
881.80 0.1103
881.90 0.1102
882.00 0.1102
882.10 0.1101
882.20 0.1101
882.30 0.11
882.40 0.11
882.50 0.1099
882.60 0.1099
882.70 0.1098
882.80 0.1098
882.90 0.1097
883.00 0.1097
883.10 0.1096
883.20 0.1096
883.30 0.1095
883.40 0.1095
883.50 0.1094
883.60 0.1094
883.70 0.1094
883.80 0.1093
883.90 0.1093
884.00 0.1092
884.10 0.1092
884.20 0.1091
884.30 0.1091
884.40 0.109
884.50 0.109
884.60 0.1089
884.70 0.1089
884.80 0.1088
884.90 0.1088
885.00 0.1087
885.10 0.1087
885.20 0.1086
885.30 0.1086
885.40 0.1085
885.50 0.1085
885.60 0.1084
885.70 0.1084
885.80 0.1083
885.90 0.1083
886.00 0.1082
886.10 0.1082
886.20 0.1081
886.30 0.1081
886.40 0.1081
886.50 0.108
886.60 0.108
886.70 0.1079
886.80 0.1079
886.90 0.1078
887.00 0.1078
887.10 0.1077
887.20 0.1077
887.30 0.1076
887.40 0.1076
887.50 0.1075
887.60 0.1075
887.70 0.1074
887.80 0.1074
887.90 0.1073
888.00 0.1073
888.10 0.1072
888.20 0.1072
888.30 0.1072
888.40 0.1071
888.50 0.1071
888.60 0.107
888.70 0.107
888.80 0.1069
888.90 0.1069
889.00 0.1068
889.10 0.1068
889.20 0.1067
889.30 0.1067
889.40 0.1066
889.50 0.1066
889.60 0.1065
889.70 0.1065
889.80 0.1064
889.90 0.1064
890.00 0.1064
890.10 0.1063
890.20 0.1063
890.30 0.1062
890.40 0.1062
890.50 0.1061
890.60 0.1061
890.70 0.106
890.80 0.106
890.90 0.1059
891.00 0.1059
891.10 0.1058
891.20 0.1058
891.30 0.1057
891.40 0.1057
891.50 0.1057
891.60 0.1056
891.70 0.1056
891.80 0.1055
891.90 0.1055
892.00 0.1054
892.10 0.1054
892.20 0.1053
892.30 0.1053
892.40 0.1052
892.50 0.1052
892.60 0.1051
892.70 0.1051
892.80 0.1051
892.90 0.105
893.00 0.105
893.10 0.1049
893.20 0.1049
893.30 0.1048
893.40 0.1048
893.50 0.1047
893.60 0.1047
893.70 0.1046
893.80 0.1046
893.90 0.1046
894.00 0.1045
894.10 0.1045
894.20 0.1044
894.30 0.1044
894.40 0.1043
894.50 0.1043
894.60 0.1042
894.70 0.1042
894.80 0.1041
894.90 0.1041
895.00 0.1041
895.10 0.104
895.20 0.104
895.30 0.1039
895.40 0.1039
895.50 0.1038
895.60 0.1038
895.70 0.1037
895.80 0.1037
895.90 0.1036
896.00 0.1036
896.10 0.1036
896.20 0.1035
896.30 0.1035
896.40 0.1034
896.50 0.1034
896.60 0.1033
896.70 0.1033
896.80 0.1032
896.90 0.1032
897.00 0.1031
897.10 0.1031
897.20 0.1031
897.30 0.103
897.40 0.103
897.50 0.1029
897.60 0.1029
897.70 0.1028
897.80 0.1028
897.90 0.1027
898.00 0.1027
898.10 0.1027
898.20 0.1026
898.30 0.1026
898.40 0.1025
898.50 0.1025
898.60 0.1024
898.70 0.1024
898.80 0.1023
898.90 0.1023
899.00 0.1023
899.10 0.1022
899.20 0.1022
899.30 0.1021
899.40 0.1021
899.50 0.102
899.60 0.102
899.70 0.1019
899.80 0.1019
899.90 0.1019
900.00 0.1018
900.10 0.1018
900.20 0.1017
900.30 0.1017
900.40 0.1016
900.50 0.1016
900.60 0.1016
900.70 0.1015
900.80 0.1015
900.90 0.1014
901.00 0.1014
901.10 0.1013
901.20 0.1013
901.30 0.1012
901.40 0.1012
901.50 0.1012
901.60 0.1011
901.70 0.1011
901.80 0.101
901.90 0.101
902.00 0.1009
902.10 0.1009
902.20 0.1009
902.30 0.1008
902.40 0.1008
902.50 0.1007
902.60 0.1007
902.70 0.1006
902.80 0.1006
902.90 0.1005
903.00 0.1005
903.10 0.1005
903.20 0.1004
903.30 0.1004
903.40 0.1003
903.50 0.1003
903.60 0.1002
903.70 0.1002
903.80 0.1002
903.90 0.1001
904.00 0.1001
904.10 0.1
904.20 0.09998
904.30 0.09994
904.40 0.09989
904.50 0.09985
904.60 0.09981
904.70 0.09977
904.80 0.09972
904.90 0.09968
905.00 0.09964
905.10 0.09959
905.20 0.09955
905.30 0.09951
905.40 0.09946
905.50 0.09942
905.60 0.09938
905.70 0.09933
905.80 0.09929
905.90 0.09925
906.00 0.0992
906.10 0.09916
906.20 0.09912
906.30 0.09908
906.40 0.09903
906.50 0.09899
906.60 0.09895
906.70 0.0989
906.80 0.09886
906.90 0.09882
907.00 0.09878
907.10 0.09873
907.20 0.09869
907.30 0.09865
907.40 0.09861
907.50 0.09856
907.60 0.09852
907.70 0.09848
907.80 0.09844
907.90 0.0984
908.00 0.09835
908.10 0.09831
908.20 0.09827
908.30 0.09823
908.40 0.09818
908.50 0.09814
908.60 0.0981
908.70 0.09806
908.80 0.09802
908.90 0.09797
909.00 0.09793
909.10 0.09789
909.20 0.09785
909.30 0.09781
909.40 0.09776
909.50 0.09772
909.60 0.09768
909.70 0.09764
909.80 0.0976
909.90 0.09755
910.00 0.09751
910.10 0.09747
910.20 0.09743
910.30 0.09739
910.40 0.09734
910.50 0.0973
910.60 0.09726
910.70 0.09722
910.80 0.09718
910.90 0.09714
911.00 0.09709
911.10 0.09705
911.20 0.09701
911.30 0.09697
911.40 0.09693
911.50 0.09689
911.60 0.09684
911.70 0.0968
911.80 0.09676
911.90 0.09672
912.00 0.09668
912.10 0.09664
912.20 0.09659
912.30 0.09655
912.40 0.09651
912.50 0.09647
912.60 0.09643
912.70 0.09639
912.80 0.09635
912.90 0.09631
913.00 0.09627
913.10 0.09623
913.20 0.09618
913.30 0.09614
913.40 0.0961
913.50 0.09606
913.60 0.09602
913.70 0.09598
913.80 0.09594
913.90 0.0959
914.00 0.09586
914.10 0.09582
914.20 0.09578
914.30 0.09573
914.40 0.09569
914.50 0.09565
914.60 0.09561
914.70 0.09557
914.80 0.09553
914.90 0.09549
915.00 0.09545
915.10 0.09541
915.20 0.09537
915.30 0.09533
915.40 0.09529
915.50 0.09525
915.60 0.09521
915.70 0.09516
915.80 0.09512
915.90 0.09508
916.00 0.09504
916.10 0.095
916.20 0.09496
916.30 0.09492
916.40 0.09488
916.50 0.09484
916.60 0.0948
916.70 0.09476
916.80 0.09472
916.90 0.09468
917.00 0.09464
917.10 0.0946
917.20 0.09456
917.30 0.09452
917.40 0.09448
917.50 0.09444
917.60 0.0944
917.70 0.09436
917.80 0.09432
917.90 0.09428
918.00 0.09424
918.10 0.0942
918.20 0.09416
918.30 0.09412
918.40 0.09408
918.50 0.09404
918.60 0.094
918.70 0.09396
918.80 0.09392
918.90 0.09388
919.00 0.09384
919.10 0.0938
919.20 0.09377
919.30 0.09373
919.40 0.09369
919.50 0.09365
919.60 0.09361
919.70 0.09357
919.80 0.09353
919.90 0.09349
920.00 0.09345
920.10 0.09341
920.20 0.09337
920.30 0.09333
920.40 0.09329
920.50 0.09325
920.60 0.09321
920.70 0.09317
920.80 0.09313
920.90 0.0931
921.00 0.09306
921.10 0.09302
921.20 0.09298
921.30 0.09294
921.40 0.0929
921.50 0.09286
921.60 0.09282
921.70 0.09278
921.80 0.09274
921.90 0.0927
922.00 0.09266
922.10 0.09262
922.20 0.09259
922.30 0.09255
922.40 0.09251
922.50 0.09247
922.60 0.09243
922.70 0.09239
922.80 0.09235
922.90 0.09231
923.00 0.09227
923.10 0.09223
923.20 0.09219
923.30 0.09216
923.40 0.09212
923.50 0.09208
923.60 0.09204
923.70 0.092
923.80 0.09196
923.90 0.09192
924.00 0.09188
924.10 0.09184
924.20 0.0918
924.30 0.09177
924.40 0.09173
924.50 0.09169
924.60 0.09165
924.70 0.09161
924.80 0.09157
924.90 0.09153
925.00 0.09149
925.10 0.09146
925.20 0.09142
925.30 0.09138
925.40 0.09134
925.50 0.0913
925.60 0.09126
925.70 0.09122
925.80 0.09118
925.90 0.09115
926.00 0.09111
926.10 0.09107
926.20 0.09103
926.30 0.09099
926.40 0.09095
926.50 0.09091
926.60 0.09088
926.70 0.09084
926.80 0.0908
926.90 0.09076
927.00 0.09072
927.10 0.09068
927.20 0.09064
927.30 0.09061
927.40 0.09057
927.50 0.09053
927.60 0.09049
927.70 0.09045
927.80 0.09042
927.90 0.09038
928.00 0.09034
928.10 0.0903
928.20 0.09026
928.30 0.09023
928.40 0.09019
928.50 0.09015
928.60 0.09011
928.70 0.09007
928.80 0.09004
928.90 0.09
929.00 0.08996
929.10 0.08992
929.20 0.08989
929.30 0.08985
929.40 0.08981
929.50 0.08977
929.60 0.08973
929.70 0.0897
929.80 0.08966
929.90 0.08962
930.00 0.08958
930.10 0.08955
930.20 0.08951
930.30 0.08947
930.40 0.08943
930.50 0.0894
930.60 0.08936
930.70 0.08932
930.80 0.08928
930.90 0.08924
931.00 0.08921
931.10 0.08917
931.20 0.08913
931.30 0.08909
931.40 0.08906
931.50 0.08902
931.60 0.08898
931.70 0.08894
931.80 0.08891
931.90 0.08887
932.00 0.08883
932.10 0.08879
932.20 0.08876
932.30 0.08872
932.40 0.08868
932.50 0.08865
932.60 0.08861
932.70 0.08857
932.80 0.08854
932.90 0.0885
933.00 0.08846
933.10 0.08842
933.20 0.08839
933.30 0.08835
933.40 0.08831
933.50 0.08828
933.60 0.08824
933.70 0.0882
933.80 0.08817
933.90 0.08813
934.00 0.08809
934.10 0.08805
934.20 0.08802
934.30 0.08798
934.40 0.08794
934.50 0.08791
934.60 0.08787
934.70 0.08783
934.80 0.0878
934.90 0.08776
935.00 0.08772
935.10 0.08769
935.20 0.08765
935.30 0.08761
935.40 0.08758
935.50 0.08754
935.60 0.0875
935.70 0.08747
935.80 0.08743
935.90 0.08739
936.00 0.08736
936.10 0.08732
936.20 0.08729
936.30 0.08725
936.40 0.08721
936.50 0.08718
936.60 0.08714
936.70 0.0871
936.80 0.08707
936.90 0.08703
937.00 0.08699
937.10 0.08696
937.20 0.08692
937.30 0.08688
937.40 0.08685
937.50 0.08681
937.60 0.08678
937.70 0.08674
937.80 0.0867
937.90 0.08667
938.00 0.08663
938.10 0.0866
938.20 0.08656
938.30 0.08652
938.40 0.08649
938.50 0.08645
938.60 0.08642
938.70 0.08638
938.80 0.08634
938.90 0.08631
939.00 0.08627
939.10 0.08624
939.20 0.0862
939.30 0.08616
939.40 0.08613
939.50 0.08609
939.60 0.08606
939.70 0.08602
939.80 0.08598
939.90 0.08595
940.00 0.08591
940.10 0.08588
940.20 0.08584
940.30 0.08581
940.40 0.08577
940.50 0.08573
940.60 0.0857
940.70 0.08566
940.80 0.08563
940.90 0.08559
941.00 0.08556
941.10 0.08552
941.20 0.08548
941.30 0.08545
941.40 0.08541
941.50 0.08538
941.60 0.08534
941.70 0.08531
941.80 0.08527
941.90 0.08524
942.00 0.0852
942.10 0.08517
942.20 0.08513
942.30 0.08509
942.40 0.08506
942.50 0.08502
942.60 0.08499
942.70 0.08495
942.80 0.08492
942.90 0.08488
943.00 0.08485
943.10 0.08481
943.20 0.08478
943.30 0.08474
943.40 0.08471
943.50 0.08467
943.60 0.08464
943.70 0.0846
943.80 0.08457
943.90 0.08453
944.00 0.0845
944.10 0.08446
944.20 0.08443
944.30 0.08439
944.40 0.08436
944.50 0.08432
944.60 0.08429
944.70 0.08425
944.80 0.08422
944.90 0.08418
945.00 0.08415
945.10 0.08411
945.20 0.08408
945.30 0.08404
945.40 0.08401
945.50 0.08397
945.60 0.08394
945.70 0.0839
945.80 0.08387
945.90 0.08383
946.00 0.0838
946.10 0.08376
946.20 0.08373
946.30 0.0837
946.40 0.08366
946.50 0.08363
946.60 0.08359
946.70 0.08356
946.80 0.08352
946.90 0.08349
947.00 0.08345
947.10 0.08342
947.20 0.08338
947.30 0.08335
947.40 0.08332
947.50 0.08328
947.60 0.08325
947.70 0.08321
947.80 0.08318
947.90 0.08314
948.00 0.08311
948.10 0.08308
948.20 0.08304
948.30 0.08301
948.40 0.08297
948.50 0.08294
948.60 0.08291
948.70 0.08287
948.80 0.08284
948.90 0.0828
949.00 0.08277
949.10 0.08274
949.20 0.0827
949.30 0.08267
949.40 0.08263
949.50 0.0826
949.60 0.08257
949.70 0.08253
949.80 0.0825
949.90 0.08246
950.00 0.08243
950.10 0.0824
950.20 0.08236
950.30 0.08233
950.40 0.0823
950.50 0.08226
950.60 0.08223
950.70 0.0822
950.80 0.08216
950.90 0.08213
951.00 0.0821
951.10 0.08206
951.20 0.08203
951.30 0.08199
951.40 0.08196
951.50 0.08193
951.60 0.0819
951.70 0.08186
951.80 0.08183
951.90 0.0818
952.00 0.08176
952.10 0.08173
952.20 0.0817
952.30 0.08166
952.40 0.08163
952.50 0.0816
952.60 0.08157
952.70 0.08153
952.80 0.0815
952.90 0.08147
953.00 0.08143
953.10 0.0814
953.20 0.08137
953.30 0.08134
953.40 0.0813
953.50 0.08127
953.60 0.08124
953.70 0.08121
953.80 0.08117
953.90 0.08114
954.00 0.08111
954.10 0.08108
954.20 0.08105
954.30 0.08101
954.40 0.08098
954.50 0.08095
954.60 0.08092
954.70 0.08088
954.80 0.08085
954.90 0.08082
955.00 0.08078
955.10 0.08075
955.20 0.08071
955.30 0.08068
955.40 0.08065
955.50 0.08061
955.60 0.08058
955.70 0.08055
955.80 0.08051
955.90 0.08048
956.00 0.08045
956.10 0.08041
956.20 0.08038
956.30 0.08035
956.40 0.08031
956.50 0.08028
956.60 0.08025
956.70 0.08021
956.80 0.08018
956.90 0.08015
957.00 0.08011
957.10 0.08008
957.20 0.08005
957.30 0.08001
957.40 0.07998
957.50 0.07995
957.60 0.07992
957.70 0.07988
957.80 0.07985
957.90 0.07982
958.00 0.07978
958.10 0.07975
958.20 0.07972
958.30 0.07969
958.40 0.07965
958.50 0.07962
958.60 0.07959
958.70 0.07956
958.80 0.07952
958.90 0.07949
959.00 0.07946
959.10 0.07943
959.20 0.07939
959.30 0.07936
959.40 0.07933
959.50 0.0793
959.60 0.07927
959.70 0.07923
959.80 0.0792
959.90 0.07917
960.00 0.07914
960.10 0.0791
960.20 0.07907
960.30 0.07904
960.40 0.07901
960.50 0.07898
960.60 0.07894
960.70 0.07891
960.80 0.07888
960.90 0.07885
961.00 0.07882
961.10 0.07878
961.20 0.07875
961.30 0.07872
961.40 0.07869
961.50 0.07866
961.60 0.07863
961.70 0.07859
961.80 0.07856
961.90 0.07853
962.00 0.0785
962.10 0.07847
962.20 0.07844
962.30 0.0784
962.40 0.07837
962.50 0.07834
962.60 0.07831
962.70 0.07828
962.80 0.07825
962.90 0.07821
963.00 0.07818
963.10 0.07815
963.20 0.07812
963.30 0.07809
963.40 0.07806
963.50 0.07802
963.60 0.07799
963.70 0.07796
963.80 0.07793
963.90 0.0779
964.00 0.07787
964.10 0.07784
964.20 0.07781
964.30 0.07777
964.40 0.07774
964.50 0.07771
964.60 0.07768
964.70 0.07765
964.80 0.07762
964.90 0.07759
965.00 0.07756
965.10 0.07752
965.20 0.07749
965.30 0.07746
965.40 0.07743
965.50 0.0774
965.60 0.07737
965.70 0.07734
965.80 0.07731
965.90 0.07728
966.00 0.07724
966.10 0.07721
966.20 0.07718
966.30 0.07715
966.40 0.07712
966.50 0.07709
966.60 0.07706
966.70 0.07703
966.80 0.077
966.90 0.07697
967.00 0.07694
967.10 0.0769
967.20 0.07687
967.30 0.07684
967.40 0.07681
967.50 0.07678
967.60 0.07675
967.70 0.07672
967.80 0.07669
967.90 0.07666
968.00 0.07663
968.10 0.0766
968.20 0.07657
968.30 0.07653
968.40 0.0765
968.50 0.07647
968.60 0.07644
968.70 0.07641
968.80 0.07638
968.90 0.07635
969.00 0.07632
969.10 0.07629
969.20 0.07626
969.30 0.07623
969.40 0.0762
969.50 0.07617
969.60 0.07614
969.70 0.07611
969.80 0.07608
969.90 0.07605
970.00 0.07601
970.10 0.07598
970.20 0.07595
970.30 0.07592
970.40 0.07589
970.50 0.07586
970.60 0.07583
970.70 0.0758
970.80 0.07577
970.90 0.07574
971.00 0.07571
971.10 0.07568
971.20 0.07565
971.30 0.07562
971.40 0.07559
971.50 0.07556
971.60 0.07553
971.70 0.0755
971.80 0.07547
971.90 0.07544
972.00 0.07541
972.10 0.07538
972.20 0.07535
972.30 0.07532
972.40 0.07529
972.50 0.07526
972.60 0.07523
972.70 0.0752
972.80 0.07517
972.90 0.07514
973.00 0.07511
973.10 0.07508
973.20 0.07505
973.30 0.07502
973.40 0.07499
973.50 0.07496
973.60 0.07493
973.70 0.0749
973.80 0.07487
973.90 0.07484
974.00 0.07481
974.10 0.07478
974.20 0.07475
974.30 0.07472
974.40 0.07469
974.50 0.07466
974.60 0.07463
974.70 0.0746
974.80 0.07457
974.90 0.07454
975.00 0.07451
975.10 0.07448
975.20 0.07445
975.30 0.07442
975.40 0.07439
975.50 0.07436
975.60 0.07433
975.70 0.0743
975.80 0.07427
975.90 0.07424
976.00 0.07421
976.10 0.07418
976.20 0.07415
976.30 0.07412
976.40 0.07409
976.50 0.07406
976.60 0.07403
976.70 0.074
976.80 0.07397
976.90 0.07394
977.00 0.07391
977.10 0.07388
977.20 0.07385
977.30 0.07382
977.40 0.07379
977.50 0.07376
977.60 0.07373
977.70 0.0737
977.80 0.07367
977.90 0.07364
978.00 0.07361
978.10 0.07358
978.20 0.07356
978.30 0.07353
978.40 0.0735
978.50 0.07347
978.60 0.07344
978.70 0.07341
978.80 0.07338
978.90 0.07335
979.00 0.07332
979.10 0.07329
979.20 0.07326
979.30 0.07323
979.40 0.0732
979.50 0.07317
979.60 0.07314
979.70 0.07311
979.80 0.07308
979.90 0.07305
980.00 0.07303
980.10 0.073
980.20 0.07297
980.30 0.07294
980.40 0.07291
980.50 0.07288
980.60 0.07285
980.70 0.07282
980.80 0.07279
980.90 0.07276
981.00 0.07273
981.10 0.0727
981.20 0.07267
981.30 0.07264
981.40 0.07262
981.50 0.07259
981.60 0.07256
981.70 0.07253
981.80 0.0725
981.90 0.07247
982.00 0.07244
982.10 0.07241
982.20 0.07238
982.30 0.07235
982.40 0.07232
982.50 0.07229
982.60 0.07227
982.70 0.07224
982.80 0.07221
982.90 0.07218
983.00 0.07215
983.10 0.07212
983.20 0.07209
983.30 0.07206
983.40 0.07203
983.50 0.072
983.60 0.07198
983.70 0.07195
983.80 0.07192
983.90 0.07189
984.00 0.07186
984.10 0.07183
984.20 0.0718
984.30 0.07177
984.40 0.07174
984.50 0.07171
984.60 0.07169
984.70 0.07166
984.80 0.07163
984.90 0.0716
985.00 0.07157
985.10 0.07154
985.20 0.07151
985.30 0.07148
985.40 0.07146
985.50 0.07143
985.60 0.0714
985.70 0.07137
985.80 0.07134
985.90 0.07131
986.00 0.07128
986.10 0.07125
986.20 0.07122
986.30 0.0712
986.40 0.07117
986.50 0.07114
986.60 0.07111
986.70 0.07108
986.80 0.07105
986.90 0.07102
987.00 0.071
987.10 0.07097
987.20 0.07094
987.30 0.07091
987.40 0.07088
987.50 0.07085
987.60 0.07082
987.70 0.07079
987.80 0.07077
987.90 0.07074
988.00 0.07071
988.10 0.07068
988.20 0.07065
988.30 0.07062
988.40 0.07059
988.50 0.07057
988.60 0.07054
988.70 0.07051
988.80 0.07048
988.90 0.07045
989.00 0.07042
989.10 0.0704
989.20 0.07037
989.30 0.07034
989.40 0.07031
989.50 0.07028
989.60 0.07025
989.70 0.07022
989.80 0.0702
989.90 0.07017
990.00 0.07014
990.10 0.07011
990.20 0.07008
990.30 0.07005
990.40 0.07003
990.50 0.07
990.60 0.06997
990.70 0.06994
990.80 0.06991
990.90 0.06988
991.00 0.06986
991.10 0.06983
991.20 0.0698
991.30 0.06977
991.40 0.06974
991.50 0.06972
991.60 0.06969
991.70 0.06966
991.80 0.06963
991.90 0.0696
992.00 0.06957
992.10 0.06955
992.20 0.06952
992.30 0.06949
992.40 0.06946
992.50 0.06943
992.60 0.06941
992.70 0.06938
992.80 0.06935
992.90 0.06932
993.00 0.06929
993.10 0.06926
993.20 0.06924
993.30 0.06921
993.40 0.06918
993.50 0.06915
993.60 0.06912
993.70 0.0691
993.80 0.06907
993.90 0.06904
994.00 0.06901
994.10 0.06898
994.20 0.06896
994.30 0.06893
994.40 0.0689
994.50 0.06887
994.60 0.06885
994.70 0.06882
994.80 0.06879
994.90 0.06876
995.00 0.06873
995.10 0.06871
995.20 0.06868
995.30 0.06865
995.40 0.06862
995.50 0.06859
995.60 0.06857
995.70 0.06854
995.80 0.06851
995.90 0.06848
996.00 0.06846
996.10 0.06843
996.20 0.0684
996.30 0.06837
996.40 0.06835
996.50 0.06832
996.60 0.06829
996.70 0.06826
996.80 0.06824
996.90 0.06821
997.00 0.06818
997.10 0.06815
997.20 0.06813
997.30 0.0681
997.40 0.06807
997.50 0.06804
997.60 0.06802
997.70 0.06799
997.80 0.06796
997.90 0.06793
998.00 0.06791
998.10 0.06788
998.20 0.06785
998.30 0.06783
998.40 0.0678
998.50 0.06777
998.60 0.06774
998.70 0.06772
998.80 0.06769
998.90 0.06766
999.00 0.06764
999.10 0.06761
999.20 0.06758
999.30 0.06755
999.40 0.06753
999.50 0.0675
999.60 0.06747
999.70 0.06745
999.80 0.06742
999.90 0.06739
1000.00 0.06736
1000.10 0.06733
1000.20 0.06731
1000.30 0.06728
1000.40 0.06725
1000.50 0.06722
1000.60 0.06719
1000.70 0.06716
1000.80 0.06714
1000.90 0.06711
1001.00 0.06708
1001.10 0.06705
1001.20 0.06702
1001.30 0.067
1001.40 0.06697
1001.50 0.06694
1001.60 0.06691
1001.70 0.06689
1001.80 0.06686
1001.90 0.06684
1002.00 0.06681
1002.10 0.06679
1002.20 0.06676
1002.30 0.06674
1002.40 0.06671
1002.50 0.06669
1002.60 0.06666
1002.70 0.06664
1002.80 0.06661
1002.90 0.06659
1003.00 0.06656
1003.10 0.06654
1003.20 0.06652
1003.30 0.06649
1003.40 0.06647
1003.50 0.06645
1003.60 0.06642
1003.70 0.0664
1003.80 0.06638
1003.90 0.06635
1004.00 0.06633
1004.10 0.06631
1004.20 0.06628
1004.30 0.06626
1004.40 0.06624
1004.50 0.06621
1004.60 0.06619
1004.70 0.06616
1004.80 0.06614
1004.90 0.06611
1005.00 0.06609
1005.10 0.06606
1005.20 0.06603
1005.30 0.06601
1005.40 0.06598
1005.50 0.06596
1005.60 0.06593
1005.70 0.0659
1005.80 0.06587
1005.90 0.06584
1006.00 0.06581
1006.10 0.06579
1006.20 0.06576
1006.30 0.06573
1006.40 0.0657
1006.50 0.06568
1006.60 0.06565
1006.70 0.06562
1006.80 0.06559
1006.90 0.06557
1007.00 0.06554
1007.10 0.06551
1007.20 0.06549
1007.30 0.06546
1007.40 0.06543
1007.50 0.06541
1007.60 0.06538
1007.70 0.06535
1007.80 0.06533
1007.90 0.0653
1008.00 0.06528
1008.10 0.06525
1008.20 0.06523
1008.30 0.0652
1008.40 0.06517
1008.50 0.06515
1008.60 0.06512
1008.70 0.0651
1008.80 0.06507
1008.90 0.06505
1009.00 0.06502
1009.10 0.065
1009.20 0.06497
1009.30 0.06495
1009.40 0.06492
1009.50 0.0649
1009.60 0.06487
1009.70 0.06485
1009.80 0.06482
1009.90 0.0648
1010.00 0.06477
1010.10 0.06475
1010.20 0.06472
1010.30 0.0647
1010.40 0.06467
1010.50 0.06465
1010.60 0.06463
1010.70 0.0646
1010.80 0.06458
1010.90 0.06455
1011.00 0.06453
1011.10 0.0645
1011.20 0.06448
1011.30 0.06445
1011.40 0.06443
1011.50 0.06441
1011.60 0.06438
1011.70 0.06436
1011.80 0.06433
1011.90 0.06431
1012.00 0.06428
1012.10 0.06426
1012.20 0.06424
1012.30 0.06421
1012.40 0.06419
1012.50 0.06416
1012.60 0.06414
1012.70 0.06412
1012.80 0.06409
1012.90 0.06407
1013.00 0.06404
1013.10 0.06402
1013.20 0.064
1013.30 0.06397
1013.40 0.06395
1013.50 0.06393
1013.60 0.0639
1013.70 0.06388
1013.80 0.06385
1013.90 0.06383
1014.00 0.06381
1014.10 0.06378
1014.20 0.06376
1014.30 0.06374
1014.40 0.06371
1014.50 0.06369
1014.60 0.06366
1014.70 0.06364
1014.80 0.06362
1014.90 0.06359
1015.00 0.06357
1015.10 0.06355
1015.20 0.06352
1015.30 0.0635
1015.40 0.06348
1015.50 0.06345
1015.60 0.06343
1015.70 0.0634
1015.80 0.06338
1015.90 0.06336
1016.00 0.06333
1016.10 0.06331
1016.20 0.06329
1016.30 0.06326
1016.40 0.06324
1016.50 0.06322
1016.60 0.06319
1016.70 0.06317
1016.80 0.06315
1016.90 0.06312
1017.00 0.0631
1017.10 0.06308
1017.20 0.06305
1017.30 0.06303
1017.40 0.06301
1017.50 0.06298
1017.60 0.06296
1017.70 0.06293
1017.80 0.06291
1017.90 0.06289
1018.00 0.06286
1018.10 0.06284
1018.20 0.06282
1018.30 0.06279
1018.40 0.06277
1018.50 0.06275
1018.60 0.06272
1018.70 0.0627
1018.80 0.06268
1018.90 0.06265
1019.00 0.06263
1019.10 0.06261
1019.20 0.06258
1019.30 0.06256
1019.40 0.06254
1019.50 0.06251
1019.60 0.06249
1019.70 0.06247
1019.80 0.06244
1019.90 0.06242
1020.00 0.0624
1020.10 0.06238
1020.20 0.06235
1020.30 0.06233
1020.40 0.06231
1020.50 0.06228
1020.60 0.06226
1020.70 0.06224
1020.80 0.06221
1020.90 0.06219
1021.00 0.06217
1021.10 0.06214
1021.20 0.06212
1021.30 0.0621
1021.40 0.06207
1021.50 0.06205
1021.60 0.06203
1021.70 0.062
1021.80 0.06198
1021.90 0.06196
1022.00 0.06193
1022.10 0.06191
1022.20 0.06189
1022.30 0.06187
1022.40 0.06184
1022.50 0.06182
1022.60 0.0618
1022.70 0.06177
1022.80 0.06175
1022.90 0.06173
1023.00 0.0617
1023.10 0.06168
1023.20 0.06166
1023.30 0.06164
1023.40 0.06161
1023.50 0.06159
1023.60 0.06157
1023.70 0.06154
1023.80 0.06152
1023.90 0.0615
1024.00 0.06147
1024.10 0.06145
1024.20 0.06143
1024.30 0.06141
1024.40 0.06138
1024.50 0.06136
1024.60 0.06134
1024.70 0.06131
1024.80 0.06129
1024.90 0.06127
1025.00 0.06124
1025.10 0.06122
1025.20 0.0612
1025.30 0.06118
1025.40 0.06115
1025.50 0.06113
1025.60 0.06111
1025.70 0.06108
1025.80 0.06106
1025.90 0.06104
1026.00 0.06102
1026.10 0.06099
1026.20 0.06097
1026.30 0.06095
1026.40 0.06092
1026.50 0.0609
1026.60 0.06088
1026.70 0.06086
1026.80 0.06083
1026.90 0.06081
1027.00 0.06079
1027.10 0.06077
1027.20 0.06074
1027.30 0.06072
1027.40 0.0607
1027.50 0.06067
1027.60 0.06065
1027.70 0.06063
1027.80 0.06061
1027.90 0.06058
1028.00 0.06056
1028.10 0.06054
1028.20 0.06052
1028.30 0.06049
1028.40 0.06047
1028.50 0.06045
1028.60 0.06043
1028.70 0.0604
1028.80 0.06038
1028.90 0.06036
1029.00 0.06033
1029.10 0.06031
1029.20 0.06029
1029.30 0.06027
1029.40 0.06024
1029.50 0.06022
1029.60 0.0602
1029.70 0.06018
1029.80 0.06015
1029.90 0.06013
1030.00 0.06011
1030.10 0.06009
1030.20 0.06006
1030.30 0.06004
1030.40 0.06002
1030.50 0.06
1030.60 0.05997
1030.70 0.05995
1030.80 0.05993
1030.90 0.05991
1031.00 0.05988
1031.10 0.05986
1031.20 0.05984
1031.30 0.05982
1031.40 0.05979
1031.50 0.05977
1031.60 0.05975
1031.70 0.05973
1031.80 0.0597
1031.90 0.05968
1032.00 0.05966
1032.10 0.05964
1032.20 0.05962
1032.30 0.05959
1032.40 0.05957
1032.50 0.05955
1032.60 0.05953
1032.70 0.0595
1032.80 0.05948
1032.90 0.05946
1033.00 0.05944
1033.10 0.05941
1033.20 0.05939
1033.30 0.05937
1033.40 0.05935
1033.50 0.05933
1033.60 0.0593
1033.70 0.05928
1033.80 0.05926
1033.90 0.05924
1034.00 0.05921
1034.10 0.05919
1034.20 0.05917
1034.30 0.05915
1034.40 0.05913
1034.50 0.0591
1034.60 0.05908
1034.70 0.05906
1034.80 0.05904
1034.90 0.05901
1035.00 0.05899
1035.10 0.05897
1035.20 0.05895
1035.30 0.05893
1035.40 0.0589
1035.50 0.05888
1035.60 0.05886
1035.70 0.05884
1035.80 0.05882
1035.90 0.05879
1036.00 0.05877
1036.10 0.05875
1036.20 0.05873
1036.30 0.05871
1036.40 0.05868
1036.50 0.05866
1036.60 0.05864
1036.70 0.05862
1036.80 0.0586
1036.90 0.05857
1037.00 0.05855
1037.10 0.05853
1037.20 0.05851
1037.30 0.05849
1037.40 0.05846
1037.50 0.05844
1037.60 0.05842
1037.70 0.0584
1037.80 0.05838
1037.90 0.05835
1038.00 0.05833
1038.10 0.05831
1038.20 0.05829
1038.30 0.05827
1038.40 0.05825
1038.50 0.05822
1038.60 0.0582
1038.70 0.05818
1038.80 0.05816
1038.90 0.05814
1039.00 0.05811
1039.10 0.05809
1039.20 0.05807
1039.30 0.05805
1039.40 0.05803
1039.50 0.05801
1039.60 0.05798
1039.70 0.05796
1039.80 0.05794
1039.90 0.05792
1040.00 0.0579
1040.10 0.05788
1040.20 0.05785
1040.30 0.05783
1040.40 0.05781
1040.50 0.05779
1040.60 0.05777
1040.70 0.05775
1040.80 0.05772
1040.90 0.0577
1041.00 0.05768
1041.10 0.05766
1041.20 0.05764
1041.30 0.05762
1041.40 0.05759
1041.50 0.05757
1041.60 0.05755
1041.70 0.05753
1041.80 0.05751
1041.90 0.05749
1042.00 0.05746
1042.10 0.05744
1042.20 0.05742
1042.30 0.0574
1042.40 0.05738
1042.50 0.05736
1042.60 0.05734
1042.70 0.05731
1042.80 0.05729
1042.90 0.05727
1043.00 0.05725
1043.10 0.05723
1043.20 0.05721
1043.30 0.05719
1043.40 0.05716
1043.50 0.05714
1043.60 0.05712
1043.70 0.0571
1043.80 0.05708
1043.90 0.05706
1044.00 0.05704
1044.10 0.05702
1044.20 0.05699
1044.30 0.05697
1044.40 0.05695
1044.50 0.05693
1044.60 0.05691
1044.70 0.05689
1044.80 0.05687
1044.90 0.05684
1045.00 0.05682
1045.10 0.0568
1045.20 0.05678
1045.30 0.05676
1045.40 0.05674
1045.50 0.05672
1045.60 0.0567
1045.70 0.05667
1045.80 0.05665
1045.90 0.05663
1046.00 0.05661
1046.10 0.05659
1046.20 0.05657
1046.30 0.05655
1046.40 0.05653
1046.50 0.05651
1046.60 0.05648
1046.70 0.05646
1046.80 0.05644
1046.90 0.05642
1047.00 0.0564
1047.10 0.05638
1047.20 0.05636
1047.30 0.05634
1047.40 0.05632
1047.50 0.05629
1047.60 0.05627
1047.70 0.05625
1047.80 0.05623
1047.90 0.05621
1048.00 0.05619
1048.10 0.05617
1048.20 0.05615
1048.30 0.05613
1048.40 0.05611
1048.50 0.05608
1048.60 0.05606
1048.70 0.05604
1048.80 0.05602
1048.90 0.056
1049.00 0.05598
1049.10 0.05596
1049.20 0.05594
1049.30 0.05592
1049.40 0.0559
1049.50 0.05588
1049.60 0.05585
1049.70 0.05583
1049.80 0.05581
1049.90 0.05579
1050.00 0.05577
1050.10 0.05575
1050.20 0.05573
1050.30 0.05571
1050.40 0.05569
1050.50 0.05567
1050.60 0.05565
1050.70 0.05563
1050.80 0.0556
1050.90 0.05558
1051.00 0.05556
1051.10 0.05554
1051.20 0.05552
1051.30 0.0555
1051.40 0.05548
1051.50 0.05546
1051.60 0.05544
1051.70 0.05542
1051.80 0.0554
1051.90 0.05538
1052.00 0.05536
1052.10 0.05533
1052.20 0.05531
1052.30 0.05529
1052.40 0.05527
1052.50 0.05525
1052.60 0.05523
1052.70 0.05521
1052.80 0.05519
1052.90 0.05517
1053.00 0.05515
1053.10 0.05513
1053.20 0.05511
1053.30 0.05509
1053.40 0.05507
1053.50 0.05505
1053.60 0.05503
1053.70 0.05501
1053.80 0.05498
1053.90 0.05496
1054.00 0.05494
1054.10 0.05492
1054.20 0.0549
1054.30 0.05488
1054.40 0.05486
1054.50 0.05484
1054.60 0.05482
1054.70 0.0548
1054.80 0.05478
1054.90 0.05476
1055.00 0.05474
1055.10 0.05472
1055.20 0.0547
1055.30 0.05468
1055.40 0.05466
1055.50 0.05464
1055.60 0.05462
1055.70 0.0546
1055.80 0.05458
1055.90 0.05456
1056.00 0.05454
1056.10 0.05451
1056.20 0.05449
1056.30 0.05447
1056.40 0.05445
1056.50 0.05443
1056.60 0.05441
1056.70 0.05439
1056.80 0.05437
1056.90 0.05435
1057.00 0.05433
1057.10 0.05431
1057.20 0.05429
1057.30 0.05427
1057.40 0.05425
1057.50 0.05423
1057.60 0.05421
1057.70 0.05419
1057.80 0.05417
1057.90 0.05415
1058.00 0.05413
1058.10 0.05411
1058.20 0.05409
1058.30 0.05407
1058.40 0.05405
1058.50 0.05403
1058.60 0.05401
1058.70 0.05399
1058.80 0.05397
1058.90 0.05395
1059.00 0.05393
1059.10 0.05391
1059.20 0.05389
1059.30 0.05387
1059.40 0.05385
1059.50 0.05383
1059.60 0.05381
1059.70 0.05379
1059.80 0.05377
1059.90 0.05375
1060.00 0.05373
1060.10 0.05371
1060.20 0.05369
1060.30 0.05367
1060.40 0.05365
1060.50 0.05363
1060.60 0.05361
1060.70 0.05359
1060.80 0.05357
1060.90 0.05355
1061.00 0.05353
1061.10 0.05351
1061.20 0.05349
1061.30 0.05347
1061.40 0.05345
1061.50 0.05343
1061.60 0.05341
1061.70 0.05339
1061.80 0.05337
1061.90 0.05335
1062.00 0.05333
1062.10 0.05331
1062.20 0.05329
1062.30 0.05327
1062.40 0.05325
1062.50 0.05323
1062.60 0.05321
1062.70 0.05319
1062.80 0.05317
1062.90 0.05315
1063.00 0.05313
1063.10 0.05311
1063.20 0.05309
1063.30 0.05307
1063.40 0.05305
1063.50 0.05303
1063.60 0.05301
1063.70 0.05299
1063.80 0.05297
1063.90 0.05295
1064.00 0.05293
1064.10 0.05291
1064.20 0.05289
1064.30 0.05287
1064.40 0.05285
1064.50 0.05283
1064.60 0.05281
1064.70 0.05279
1064.80 0.05277
1064.90 0.05275
1065.00 0.05273
1065.10 0.05271
1065.20 0.05269
1065.30 0.05267
1065.40 0.05265
1065.50 0.05263
1065.60 0.05261
1065.70 0.05259
1065.80 0.05257
1065.90 0.05256
1066.00 0.05254
1066.10 0.05252
1066.20 0.0525
1066.30 0.05248
1066.40 0.05246
1066.50 0.05244
1066.60 0.05242
1066.70 0.0524
1066.80 0.05238
1066.90 0.05236
1067.00 0.05234
1067.10 0.05232
1067.20 0.0523
1067.30 0.05228
1067.40 0.05226
1067.50 0.05224
1067.60 0.05222
1067.70 0.0522
1067.80 0.05218
1067.90 0.05216
1068.00 0.05214
1068.10 0.05212
1068.20 0.0521
1068.30 0.05208
1068.40 0.05206
1068.50 0.05204
1068.60 0.05203
1068.70 0.05201
1068.80 0.05199
1068.90 0.05197
1069.00 0.05195
1069.10 0.05193
1069.20 0.05191
1069.30 0.05189
1069.40 0.05187
1069.50 0.05185
1069.60 0.05183
1069.70 0.05181
1069.80 0.05179
1069.90 0.05177
1070.00 0.05175
1070.10 0.05173
1070.20 0.05171
1070.30 0.05169
1070.40 0.05167
1070.50 0.05165
1070.60 0.05164
1070.70 0.05162
1070.80 0.0516
1070.90 0.05158
1071.00 0.05156
1071.10 0.05154
1071.20 0.05152
1071.30 0.0515
1071.40 0.05148
1071.50 0.05146
1071.60 0.05144
1071.70 0.05142
1071.80 0.0514
1071.90 0.05138
1072.00 0.05136
1072.10 0.05134
1072.20 0.05133
1072.30 0.05131
1072.40 0.05129
1072.50 0.05127
1072.60 0.05125
1072.70 0.05123
1072.80 0.05121
1072.90 0.05119
1073.00 0.05117
1073.10 0.05115
1073.20 0.05113
1073.30 0.05111
1073.40 0.05109
1073.50 0.05107
1073.60 0.05105
1073.70 0.05103
1073.80 0.05102
1073.90 0.051
1074.00 0.05098
1074.10 0.05096
1074.20 0.05094
1074.30 0.05092
1074.40 0.0509
1074.50 0.05088
1074.60 0.05086
1074.70 0.05084
1074.80 0.05082
1074.90 0.0508
1075.00 0.05078
1075.10 0.05076
1075.20 0.05074
1075.30 0.05072
1075.40 0.05071
1075.50 0.05069
1075.60 0.05067
1075.70 0.05065
1075.80 0.05063
1075.90 0.05061
1076.00 0.05059
1076.10 0.05057
1076.20 0.05055
1076.30 0.05053
1076.40 0.05051
1076.50 0.05049
1076.60 0.05047
1076.70 0.05045
1076.80 0.05044
1076.90 0.05042
1077.00 0.0504
1077.10 0.05038
1077.20 0.05036
1077.30 0.05034
1077.40 0.05032
1077.50 0.0503
1077.60 0.05028
1077.70 0.05026
1077.80 0.05024
1077.90 0.05022
1078.00 0.0502
1078.10 0.05018
1078.20 0.05017
1078.30 0.05015
1078.40 0.05013
1078.50 0.05011
1078.60 0.05009
1078.70 0.05007
1078.80 0.05005
1078.90 0.05003
1079.00 0.05001
1079.10 0.04999
1079.20 0.04997
1079.30 0.04995
1079.40 0.04993
1079.50 0.04991
1079.60 0.0499
1079.70 0.04988
1079.80 0.04986
1079.90 0.04984
1080.00 0.04982
1080.10 0.0498
1080.20 0.04978
1080.30 0.04976
1080.40 0.04974
1080.50 0.04972
1080.60 0.0497
1080.70 0.04968
1080.80 0.04966
1080.90 0.04964
1081.00 0.04963
1081.10 0.04961
1081.20 0.04959
1081.30 0.04957
1081.40 0.04955
1081.50 0.04953
1081.60 0.04951
1081.70 0.04949
1081.80 0.04947
1081.90 0.04945
1082.00 0.04943
1082.10 0.04941
1082.20 0.04939
1082.30 0.04938
1082.40 0.04936
1082.50 0.04934
1082.60 0.04932
1082.70 0.0493
1082.80 0.04928
1082.90 0.04926
1083.00 0.04924
1083.10 0.04922
1083.20 0.0492
1083.30 0.04918
1083.40 0.04916
1083.50 0.04914
1083.60 0.04913
1083.70 0.04911
1083.80 0.04909
1083.90 0.04907
1084.00 0.04905
1084.10 0.04903
1084.20 0.04901
1084.30 0.04899
1084.40 0.04897
1084.50 0.04895
1084.60 0.04893
1084.70 0.04891
1084.80 0.0489
1084.90 0.04888
1085.00 0.04886
1085.10 0.04884
1085.20 0.04882
1085.30 0.0488
1085.40 0.04878
1085.50 0.04876
1085.60 0.04874
1085.70 0.04872
1085.80 0.0487
1085.90 0.04869
1086.00 0.04867
1086.10 0.04865
1086.20 0.04863
1086.30 0.04861
1086.40 0.04859
1086.50 0.04857
1086.60 0.04855
1086.70 0.04853
1086.80 0.04852
1086.90 0.0485
1087.00 0.04848
1087.10 0.04846
1087.20 0.04844
1087.30 0.04842
1087.40 0.0484
1087.50 0.04839
1087.60 0.04837
1087.70 0.04835
1087.80 0.04833
1087.90 0.04831
1088.00 0.04829
1088.10 0.04827
1088.20 0.04826
1088.30 0.04824
1088.40 0.04822
1088.50 0.0482
1088.60 0.04818
1088.70 0.04816
1088.80 0.04815
1088.90 0.04813
1089.00 0.04811
1089.10 0.04809
1089.20 0.04808
1089.30 0.04806
1089.40 0.04804
1089.50 0.04802
1089.60 0.048
1089.70 0.04799
1089.80 0.04797
1089.90 0.04795
1090.00 0.04793
1090.10 0.04792
1090.20 0.0479
1090.30 0.04788
1090.40 0.04786
1090.50 0.04785
1090.60 0.04783
1090.70 0.04781
1090.80 0.0478
1090.90 0.04778
1091.00 0.04776
1091.10 0.04775
1091.20 0.04773
1091.30 0.04771
1091.40 0.0477
1091.50 0.04768
1091.60 0.04766
1091.70 0.04765
1091.80 0.04763
1091.90 0.04761
1092.00 0.0476
1092.10 0.04758
1092.20 0.04757
1092.30 0.04755
1092.40 0.04753
1092.50 0.04752
1092.60 0.0475
1092.70 0.04749
1092.80 0.04747
1092.90 0.04746
1093.00 0.04745
1093.10 0.04743
1093.20 0.04742
1093.30 0.04741
1093.40 0.0474
1093.50 0.0474
1093.60 0.0474
1093.70 0.0474
1093.80 0.04739
1093.90 0.04737
1094.00 0.04734
1094.10 0.04731
1094.20 0.04727
1094.30 0.04725
1094.40 0.04723
1094.50 0.0472
1094.60 0.04718
1094.70 0.04716
1094.80 0.04714
1094.90 0.04712
1095.00 0.0471
1095.10 0.04708
1095.20 0.04707
1095.30 0.04705
1095.40 0.04703
1095.50 0.04701
1095.60 0.047
1095.70 0.04698
1095.80 0.04696
1095.90 0.04694
1096.00 0.04692
1096.10 0.04691
1096.20 0.04689
1096.30 0.04687
1096.40 0.04685
1096.50 0.04684
1096.60 0.04682
1096.70 0.0468
1096.80 0.04679
1096.90 0.04677
1097.00 0.04675
1097.10 0.04674
1097.20 0.04672
1097.30 0.0467
1097.40 0.04669
1097.50 0.04667
1097.60 0.04666
1097.70 0.04664
1097.80 0.04662
1097.90 0.04661
1098.00 0.04659
1098.10 0.04657
1098.20 0.04656
1098.30 0.04654
1098.40 0.04653
1098.50 0.04651
1098.60 0.0465
1098.70 0.04648
1098.80 0.04646
1098.90 0.04645
1099.00 0.04643
1099.10 0.04642
1099.20 0.0464
1099.30 0.04639
1099.40 0.04637
1099.50 0.04636
1099.60 0.04634
1099.70 0.04633
1099.80 0.04631
1099.90 0.04629
1100.00 0.04628
1100.10 0.04626
1100.20 0.04625
1100.30 0.04623
1100.40 0.04622
1100.50 0.0462
1100.60 0.04619
1100.70 0.04617
1100.80 0.04616
1100.90 0.04614
1101.00 0.04613
1101.10 0.04611
1101.20 0.0461
1101.30 0.04608
1101.40 0.04607
1101.50 0.04605
1101.60 0.04604
1101.70 0.04602
1101.80 0.04601
1101.90 0.04599
1102.00 0.04598
1102.10 0.04596
1102.20 0.04595
1102.30 0.04593
1102.40 0.04592
1102.50 0.0459
1102.60 0.04589
1102.70 0.04587
1102.80 0.04586
1102.90 0.04584
1103.00 0.04583
1103.10 0.04581
1103.20 0.0458
1103.30 0.04578
1103.40 0.04577
1103.50 0.04576
1103.60 0.04574
1103.70 0.04573
1103.80 0.04571
1103.90 0.0457
1104.00 0.04568
1104.10 0.04567
1104.20 0.04565
1104.30 0.04564
1104.40 0.04562
1104.50 0.04561
1104.60 0.04559
1104.70 0.04558
1104.80 0.04556
1104.90 0.04555
1105.00 0.04553
1105.10 0.04552
1105.20 0.0455
1105.30 0.04549
1105.40 0.04547
1105.50 0.04546
1105.60 0.04544
1105.70 0.04543
1105.80 0.04541
1105.90 0.0454
1106.00 0.04538
1106.10 0.04537
1106.20 0.04536
1106.30 0.04534
1106.40 0.04533
1106.50 0.04531
1106.60 0.0453
1106.70 0.04528
1106.80 0.04527
1106.90 0.04525
1107.00 0.04524
1107.10 0.04522
1107.20 0.04521
1107.30 0.04519
1107.40 0.04518
1107.50 0.04516
1107.60 0.04515
1107.70 0.04513
1107.80 0.04512
1107.90 0.0451
1108.00 0.04509
1108.10 0.04507
1108.20 0.04506
1108.30 0.04504
1108.40 0.04503
1108.50 0.04501
1108.60 0.045
1108.70 0.04498
1108.80 0.04497
1108.90 0.04495
1109.00 0.04494
1109.10 0.04492
1109.20 0.04491
1109.30 0.0449
1109.40 0.04488
1109.50 0.04487
1109.60 0.04485
1109.70 0.04484
1109.80 0.04482
1109.90 0.04481
1110.00 0.04479
1110.10 0.04478
1110.20 0.04476
1110.30 0.04475
1110.40 0.04473
1110.50 0.04472
1110.60 0.0447
1110.70 0.04469
1110.80 0.04467
1110.90 0.04466
1111.00 0.04464
1111.10 0.04463
1111.20 0.04461
1111.30 0.0446
1111.40 0.04458
1111.50 0.04457
1111.60 0.04455
1111.70 0.04454
1111.80 0.04452
1111.90 0.04451
1112.00 0.04449
1112.10 0.04448
1112.20 0.04446
1112.30 0.04445
1112.40 0.04443
1112.50 0.04442
1112.60 0.0444
1112.70 0.04439
1112.80 0.04437
1112.90 0.04436
1113.00 0.04434
1113.10 0.04433
1113.20 0.04431
1113.30 0.0443
1113.40 0.04428
1113.50 0.04427
1113.60 0.04425
1113.70 0.04424
1113.80 0.04422
1113.90 0.04421
1114.00 0.04419
1114.10 0.04418
1114.20 0.04416
1114.30 0.04415
1114.40 0.04413
1114.50 0.04412
1114.60 0.0441
1114.70 0.04409
1114.80 0.04407
1114.90 0.04406
1115.00 0.04404
1115.10 0.04403
1115.20 0.04401
1115.30 0.044
1115.40 0.04399
1115.50 0.04397
1115.60 0.04396
1115.70 0.04394
1115.80 0.04393
1115.90 0.04391
1116.00 0.0439
1116.10 0.04388
1116.20 0.04387
1116.30 0.04385
1116.40 0.04384
1116.50 0.04382
1116.60 0.04381
1116.70 0.04379
1116.80 0.04378
1116.90 0.04376
1117.00 0.04375
1117.10 0.04373
1117.20 0.04372
1117.30 0.0437
1117.40 0.04369
1117.50 0.04367
1117.60 0.04366
1117.70 0.04364
1117.80 0.04363
1117.90 0.04361
1118.00 0.0436
1118.10 0.04358
1118.20 0.04357
1118.30 0.04355
1118.40 0.04354
1118.50 0.04352
1118.60 0.04351
1118.70 0.04349
1118.80 0.04348
1118.90 0.04346
1119.00 0.04345
1119.10 0.04343
1119.20 0.04342
1119.30 0.04341
1119.40 0.04339
1119.50 0.04338
1119.60 0.04336
1119.70 0.04335
1119.80 0.04333
1119.90 0.04332
1120.00 0.0433
1120.10 0.04329
1120.20 0.04327
1120.30 0.04326
1120.40 0.04324
1120.50 0.04323
1120.60 0.04321
1120.70 0.0432
1120.80 0.04318
1120.90 0.04317
1121.00 0.04315
1121.10 0.04314
1121.20 0.04312
1121.30 0.04311
1121.40 0.04309
1121.50 0.04308
1121.60 0.04307
1121.70 0.04305
1121.80 0.04304
1121.90 0.04302
1122.00 0.04301
1122.10 0.04299
1122.20 0.04298
1122.30 0.04296
1122.40 0.04295
1122.50 0.04293
1122.60 0.04292
1122.70 0.0429
1122.80 0.04289
1122.90 0.04287
1123.00 0.04286
1123.10 0.04284
1123.20 0.04283
1123.30 0.04282
1123.40 0.0428
1123.50 0.04279
1123.60 0.04277
1123.70 0.04276
1123.80 0.04274
1123.90 0.04273
1124.00 0.04271
1124.10 0.0427
1124.20 0.04268
1124.30 0.04267
1124.40 0.04265
1124.50 0.04264
1124.60 0.04262
1124.70 0.04261
1124.80 0.0426
1124.90 0.04258
1125.00 0.04257
1125.10 0.04255
1125.20 0.04254
1125.30 0.04252
1125.40 0.04251
1125.50 0.04249
1125.60 0.04248
1125.70 0.04246
1125.80 0.04245
1125.90 0.04243
1126.00 0.04242
1126.10 0.04241
1126.20 0.04239
1126.30 0.04238
1126.40 0.04236
1126.50 0.04235
1126.60 0.04233
1126.70 0.04232
1126.80 0.0423
1126.90 0.04229
1127.00 0.04227
1127.10 0.04226
1127.20 0.04225
1127.30 0.04223
1127.40 0.04222
1127.50 0.0422
1127.60 0.04219
1127.70 0.04217
1127.80 0.04216
1127.90 0.04214
1128.00 0.04213
1128.10 0.04212
1128.20 0.0421
1128.30 0.04209
1128.40 0.04207
1128.50 0.04206
1128.60 0.04204
1128.70 0.04203
1128.80 0.04201
1128.90 0.042
1129.00 0.04199
1129.10 0.04197
1129.20 0.04196
1129.30 0.04194
1129.40 0.04193
1129.50 0.04191
1129.60 0.0419
1129.70 0.04188
1129.80 0.04187
1129.90 0.04186
1130.00 0.04184
1130.10 0.04183
1130.20 0.04181
1130.30 0.0418
1130.40 0.04178
1130.50 0.04177
1130.60 0.04176
1130.70 0.04174
1130.80 0.04173
1130.90 0.04171
1131.00 0.0417
1131.10 0.04168
1131.20 0.04167
1131.30 0.04166
1131.40 0.04164
1131.50 0.04163
1131.60 0.04161
1131.70 0.0416
1131.80 0.04158
1131.90 0.04157
1132.00 0.04156
1132.10 0.04154
1132.20 0.04153
1132.30 0.04151
1132.40 0.0415
1132.50 0.04148
1132.60 0.04147
1132.70 0.04146
1132.80 0.04144
1132.90 0.04143
1133.00 0.04141
1133.10 0.0414
1133.20 0.04138
1133.30 0.04137
1133.40 0.04136
1133.50 0.04134
1133.60 0.04133
1133.70 0.04131
1133.80 0.0413
1133.90 0.04129
1134.00 0.04127
1134.10 0.04126
1134.20 0.04124
1134.30 0.04123
1134.40 0.04121
1134.50 0.0412
1134.60 0.04119
1134.70 0.04117
1134.80 0.04116
1134.90 0.04114
1135.00 0.04113
1135.10 0.04112
1135.20 0.0411
1135.30 0.04109
1135.40 0.04107
1135.50 0.04106
1135.60 0.04104
1135.70 0.04103
1135.80 0.04102
1135.90 0.041
1136.00 0.04099
1136.10 0.04097
1136.20 0.04096
1136.30 0.04095
1136.40 0.04093
1136.50 0.04092
1136.60 0.0409
1136.70 0.04089
1136.80 0.04088
1136.90 0.04086
1137.00 0.04085
1137.10 0.04083
1137.20 0.04082
1137.30 0.04081
1137.40 0.04079
1137.50 0.04078
1137.60 0.04076
1137.70 0.04075
1137.80 0.04074
1137.90 0.04072
1138.00 0.04071
1138.10 0.04069
1138.20 0.04068
1138.30 0.04067
1138.40 0.04065
1138.50 0.04064
1138.60 0.04062
1138.70 0.04061
1138.80 0.0406
1138.90 0.04058
1139.00 0.04057
1139.10 0.04056
1139.20 0.04054
1139.30 0.04053
1139.40 0.04051
1139.50 0.0405
1139.60 0.04049
1139.70 0.04047
1139.80 0.04046
1139.90 0.04044
1140.00 0.04043
1140.10 0.04042
1140.20 0.0404
1140.30 0.04039
1140.40 0.04038
1140.50 0.04036
1140.60 0.04035
1140.70 0.04033
1140.80 0.04032
1140.90 0.04031
1141.00 0.04029
1141.10 0.04028
1141.20 0.04026
1141.30 0.04025
1141.40 0.04024
1141.50 0.04022
1141.60 0.04021
1141.70 0.0402
1141.80 0.04018
1141.90 0.04017
1142.00 0.04015
1142.10 0.04014
1142.20 0.04013
1142.30 0.04011
1142.40 0.0401
1142.50 0.04009
1142.60 0.04007
1142.70 0.04006
1142.80 0.04004
1142.90 0.04003
1143.00 0.04002
1143.10 0.04
1143.20 0.03999
1143.30 0.03998
1143.40 0.03996
1143.50 0.03995
1143.60 0.03994
1143.70 0.03992
1143.80 0.03991
1143.90 0.03989
1144.00 0.03988
1144.10 0.03987
1144.20 0.03985
1144.30 0.03984
1144.40 0.03983
1144.50 0.03981
1144.60 0.0398
1144.70 0.03979
1144.80 0.03977
1144.90 0.03976
1145.00 0.03975
1145.10 0.03973
1145.20 0.03972
1145.30 0.0397
1145.40 0.03969
1145.50 0.03968
1145.60 0.03966
1145.70 0.03965
1145.80 0.03964
1145.90 0.03962
1146.00 0.03961
1146.10 0.0396
1146.20 0.03958
1146.30 0.03957
1146.40 0.03956
1146.50 0.03954
1146.60 0.03953
1146.70 0.03952
1146.80 0.0395
1146.90 0.03949
1147.00 0.03947
1147.10 0.03946
1147.20 0.03945
1147.30 0.03943
1147.40 0.03942
1147.50 0.03941
1147.60 0.03939
1147.70 0.03938
1147.80 0.03937
1147.90 0.03935
1148.00 0.03934
1148.10 0.03933
1148.20 0.03931
1148.30 0.0393
1148.40 0.03929
1148.50 0.03927
1148.60 0.03926
1148.70 0.03925
1148.80 0.03923
1148.90 0.03922
1149.00 0.03921
1149.10 0.03919
1149.20 0.03918
1149.30 0.03917
1149.40 0.03915
1149.50 0.03914
1149.60 0.03913
1149.70 0.03911
1149.80 0.0391
1149.90 0.03909
1150.00 0.03907
1150.10 0.03906
1150.20 0.03905
1150.30 0.03903
1150.40 0.03902
1150.50 0.03901
1150.60 0.03899
1150.70 0.03898
1150.80 0.03897
1150.90 0.03895
1151.00 0.03894
1151.10 0.03893
1151.20 0.03891
1151.30 0.0389
1151.40 0.03889
1151.50 0.03887
1151.60 0.03886
1151.70 0.03885
1151.80 0.03883
1151.90 0.03882
1152.00 0.03881
1152.10 0.0388
1152.20 0.03878
1152.30 0.03877
1152.40 0.03876
1152.50 0.03874
1152.60 0.03873
1152.70 0.03872
1152.80 0.0387
1152.90 0.03869
1153.00 0.03868
1153.10 0.03866
1153.20 0.03865
1153.30 0.03864
1153.40 0.03862
1153.50 0.03861
1153.60 0.0386
1153.70 0.03859
1153.80 0.03857
1153.90 0.03856
1154.00 0.03855
1154.10 0.03853
1154.20 0.03852
1154.30 0.03851
1154.40 0.03849
1154.50 0.03848
1154.60 0.03847
1154.70 0.03845
1154.80 0.03844
1154.90 0.03843
1155.00 0.03842
1155.10 0.0384
1155.20 0.03839
1155.30 0.03838
1155.40 0.03836
1155.50 0.03835
1155.60 0.03834
1155.70 0.03832
1155.80 0.03831
1155.90 0.0383
1156.00 0.03829
1156.10 0.03827
1156.20 0.03826
1156.30 0.03825
1156.40 0.03823
1156.50 0.03822
1156.60 0.03821
1156.70 0.03819
1156.80 0.03818
1156.90 0.03817
1157.00 0.03816
1157.10 0.03814
1157.20 0.03813
1157.30 0.03812
1157.40 0.0381
1157.50 0.03809
1157.60 0.03808
1157.70 0.03807
1157.80 0.03805
1157.90 0.03804
1158.00 0.03803
1158.10 0.03801
1158.20 0.038
1158.30 0.03799
1158.40 0.03798
1158.50 0.03796
1158.60 0.03795
1158.70 0.03794
1158.80 0.03792
1158.90 0.03791
1159.00 0.0379
1159.10 0.03789
1159.20 0.03787
1159.30 0.03786
1159.40 0.03785
1159.50 0.03784
1159.60 0.03782
1159.70 0.03781
1159.80 0.0378
1159.90 0.03778
1160.00 0.03777
1160.10 0.03776
1160.20 0.03775
1160.30 0.03773
1160.40 0.03772
1160.50 0.03771
1160.60 0.03769
1160.70 0.03768
1160.80 0.03767
1160.90 0.03766
1161.00 0.03764
1161.10 0.03763
1161.20 0.03762
1161.30 0.03761
1161.40 0.03759
1161.50 0.03758
1161.60 0.03757
1161.70 0.03756
1161.80 0.03754
1161.90 0.03753
1162.00 0.03752
1162.10 0.0375
1162.20 0.03749
1162.30 0.03748
1162.40 0.03747
1162.50 0.03745
1162.60 0.03744
1162.70 0.03743
1162.80 0.03742
1162.90 0.0374
1163.00 0.03739
1163.10 0.03738
1163.20 0.03737
1163.30 0.03735
1163.40 0.03734
1163.50 0.03733
1163.60 0.03732
1163.70 0.0373
1163.80 0.03729
1163.90 0.03728
1164.00 0.03727
1164.10 0.03725
1164.20 0.03724
1164.30 0.03723
1164.40 0.03722
1164.50 0.0372
1164.60 0.03719
1164.70 0.03718
1164.80 0.03717
1164.90 0.03715
1165.00 0.03714
1165.10 0.03713
1165.20 0.03712
1165.30 0.0371
1165.40 0.03709
1165.50 0.03708
1165.60 0.03707
1165.70 0.03705
1165.80 0.03704
1165.90 0.03703
1166.00 0.03702
1166.10 0.037
1166.20 0.03699
1166.30 0.03698
1166.40 0.03697
1166.50 0.03695
1166.60 0.03694
1166.70 0.03693
1166.80 0.03692
1166.90 0.0369
1167.00 0.03689
1167.10 0.03688
1167.20 0.03687
1167.30 0.03685
1167.40 0.03684
1167.50 0.03683
1167.60 0.03682
1167.70 0.0368
1167.80 0.03679
1167.90 0.03678
1168.00 0.03677
1168.10 0.03676
1168.20 0.03674
1168.30 0.03673
1168.40 0.03672
1168.50 0.03671
1168.60 0.03669
1168.70 0.03668
1168.80 0.03667
1168.90 0.03666
1169.00 0.03664
1169.10 0.03663
1169.20 0.03662
1169.30 0.03661
1169.40 0.0366
1169.50 0.03658
1169.60 0.03657
1169.70 0.03656
1169.80 0.03655
1169.90 0.03653
1170.00 0.03652
1170.10 0.03651
1170.20 0.0365
1170.30 0.03649
1170.40 0.03647
1170.50 0.03646
1170.60 0.03645
1170.70 0.03644
1170.80 0.03642
1170.90 0.03641
1171.00 0.0364
1171.10 0.03639
1171.20 0.03638
1171.30 0.03636
1171.40 0.03635
1171.50 0.03634
1171.60 0.03633
1171.70 0.03631
1171.80 0.0363
1171.90 0.03629
1172.00 0.03628
1172.10 0.03627
1172.20 0.03625
1172.30 0.03624
1172.40 0.03623
1172.50 0.03622
1172.60 0.03621
1172.70 0.03619
1172.80 0.03618
1172.90 0.03617
1173.00 0.03616
1173.10 0.03615
1173.20 0.03613
1173.30 0.03612
1173.40 0.03611
1173.50 0.0361
1173.60 0.03609
1173.70 0.03607
1173.80 0.03606
1173.90 0.03605
1174.00 0.03604
1174.10 0.03602
1174.20 0.03601
1174.30 0.036
1174.40 0.03599
1174.50 0.03598
1174.60 0.03596
1174.70 0.03595
1174.80 0.03594
1174.90 0.03593
1175.00 0.03592
1175.10 0.0359
1175.20 0.03589
1175.30 0.03588
1175.40 0.03587
1175.50 0.03586
1175.60 0.03584
1175.70 0.03583
1175.80 0.03582
1175.90 0.03581
1176.00 0.0358
1176.10 0.03579
1176.20 0.03577
1176.30 0.03576
1176.40 0.03575
1176.50 0.03574
1176.60 0.03573
1176.70 0.03571
1176.80 0.0357
1176.90 0.03569
1177.00 0.03568
1177.10 0.03567
1177.20 0.03565
1177.30 0.03564
1177.40 0.03563
1177.50 0.03562
1177.60 0.03561
1177.70 0.03559
1177.80 0.03558
1177.90 0.03557
1178.00 0.03556
1178.10 0.03555
1178.20 0.03554
1178.30 0.03552
1178.40 0.03551
1178.50 0.0355
1178.60 0.03549
1178.70 0.03548
1178.80 0.03546
1178.90 0.03545
1179.00 0.03544
1179.10 0.03543
1179.20 0.03542
1179.30 0.03541
1179.40 0.03539
1179.50 0.03538
1179.60 0.03537
1179.70 0.03536
1179.80 0.03535
1179.90 0.03534
1180.00 0.03532
1180.10 0.03531
1180.20 0.0353
1180.30 0.03529
1180.40 0.03528
1180.50 0.03527
1180.60 0.03525
1180.70 0.03524
1180.80 0.03523
1180.90 0.03522
1181.00 0.03521
1181.10 0.03519
1181.20 0.03518
1181.30 0.03517
1181.40 0.03516
1181.50 0.03515
1181.60 0.03514
1181.70 0.03512
1181.80 0.03511
1181.90 0.0351
1182.00 0.03509
1182.10 0.03508
1182.20 0.03507
1182.30 0.03505
1182.40 0.03504
1182.50 0.03503
1182.60 0.03502
1182.70 0.03501
1182.80 0.035
1182.90 0.03499
1183.00 0.03497
1183.10 0.03496
1183.20 0.03495
1183.30 0.03494
1183.40 0.03493
1183.50 0.03492
1183.60 0.0349
1183.70 0.03489
1183.80 0.03488
1183.90 0.03487
1184.00 0.03486
1184.10 0.03485
1184.20 0.03483
1184.30 0.03482
1184.40 0.03481
1184.50 0.0348
1184.60 0.03479
1184.70 0.03478
1184.80 0.03477
1184.90 0.03475
1185.00 0.03474
1185.10 0.03473
1185.20 0.03472
1185.30 0.03471
1185.40 0.0347
1185.50 0.03469
1185.60 0.03467
1185.70 0.03466
1185.80 0.03465
1185.90 0.03464
1186.00 0.03463
1186.10 0.03462
1186.20 0.0346
1186.30 0.03459
1186.40 0.03458
1186.50 0.03457
1186.60 0.03456
1186.70 0.03455
1186.80 0.03454
1186.90 0.03452
1187.00 0.03451
1187.10 0.0345
1187.20 0.03449
1187.30 0.03448
1187.40 0.03447
1187.50 0.03446
1187.60 0.03445
1187.70 0.03443
1187.80 0.03442
1187.90 0.03441
1188.00 0.0344
1188.10 0.03439
1188.20 0.03438
1188.30 0.03437
1188.40 0.03435
1188.50 0.03434
1188.60 0.03433
1188.70 0.03432
1188.80 0.03431
1188.90 0.0343
1189.00 0.03429
1189.10 0.03428
1189.20 0.03426
1189.30 0.03425
1189.40 0.03424
1189.50 0.03423
1189.60 0.03422
1189.70 0.03421
1189.80 0.0342
1189.90 0.03418
1190.00 0.03417
1190.10 0.03416
1190.20 0.03415
1190.30 0.03414
1190.40 0.03413
1190.50 0.03412
1190.60 0.03411
1190.70 0.03409
1190.80 0.03408
1190.90 0.03407
1191.00 0.03406
1191.10 0.03405
1191.20 0.03404
1191.30 0.03403
1191.40 0.03402
1191.50 0.034
1191.60 0.03399
1191.70 0.03398
1191.80 0.03397
1191.90 0.03396
1192.00 0.03395
1192.10 0.03394
1192.20 0.03393
1192.30 0.03392
1192.40 0.0339
1192.50 0.03389
1192.60 0.03388
1192.70 0.03387
1192.80 0.03386
1192.90 0.03385
1193.00 0.03384
1193.10 0.03383
1193.20 0.03382
1193.30 0.0338
1193.40 0.03379
1193.50 0.03378
1193.60 0.03377
1193.70 0.03376
1193.80 0.03375
1193.90 0.03374
1194.00 0.03373
1194.10 0.03372
1194.20 0.0337
1194.30 0.03369
1194.40 0.03368
1194.50 0.03367
1194.60 0.03366
1194.70 0.03365
1194.80 0.03364
1194.90 0.03363
1195.00 0.03362
1195.10 0.03361
1195.20 0.03359
1195.30 0.03358
1195.40 0.03357
1195.50 0.03356
1195.60 0.03355
1195.70 0.03354
1195.80 0.03353
1195.90 0.03352
1196.00 0.03351
1196.10 0.03349
1196.20 0.03348
1196.30 0.03347
1196.40 0.03346
1196.50 0.03345
1196.60 0.03344
1196.70 0.03343
1196.80 0.03342
1196.90 0.03341
1197.00 0.0334
1197.10 0.03338
1197.20 0.03337
1197.30 0.03336
1197.40 0.03335
1197.50 0.03334
1197.60 0.03333
1197.70 0.03332
1197.80 0.03331
1197.90 0.0333
1198.00 0.03329
1198.10 0.03328
1198.20 0.03327
1198.30 0.03325
1198.40 0.03324
1198.50 0.03323
1198.60 0.03322
1198.70 0.03321
1198.80 0.0332
1198.90 0.03319
1199.00 0.03318
1199.10 0.03317
1199.20 0.03316
1199.30 0.03315
1199.40 0.03313
1199.50 0.03312
1199.60 0.03311
1199.70 0.0331
1199.80 0.03309
1199.90 0.03308
1200.00 0
