# Version 2.1 - nm, norm@500 to 1, cut digits, bergeron_90000_65.dat_90000
# Wavelength(nm)  Flambda(ergs/cm^s/s/nm)
300.00 6.747
300.10 6.739
300.20 6.73
300.30 6.722
300.40 6.714
300.50 6.705
300.60 6.697
300.70 6.689
300.80 6.68
300.90 6.672
301.00 6.664
301.10 6.655
301.20 6.647
301.30 6.639
301.40 6.631
301.50 6.622
301.60 6.614
301.70 6.606
301.80 6.598
301.90 6.589
302.00 6.581
302.10 6.573
302.20 6.565
302.30 6.557
302.40 6.549
302.50 6.541
302.60 6.533
302.70 6.524
302.80 6.516
302.90 6.508
303.00 6.5
303.10 6.492
303.20 6.484
303.30 6.476
303.40 6.468
303.50 6.46
303.60 6.452
303.70 6.444
303.80 6.436
303.90 6.428
304.00 6.42
304.10 6.413
304.20 6.405
304.30 6.397
304.40 6.389
304.50 6.381
304.60 6.373
304.70 6.365
304.80 6.358
304.90 6.35
305.00 6.342
305.10 6.334
305.20 6.326
305.30 6.319
305.40 6.311
305.50 6.303
305.60 6.295
305.70 6.288
305.80 6.28
305.90 6.272
306.00 6.265
306.10 6.257
306.20 6.249
306.30 6.242
306.40 6.234
306.50 6.226
306.60 6.219
306.70 6.211
306.80 6.204
306.90 6.196
307.00 6.188
307.10 6.181
307.20 6.173
307.30 6.166
307.40 6.158
307.50 6.151
307.60 6.143
307.70 6.136
307.80 6.128
307.90 6.121
308.00 6.113
308.10 6.106
308.20 6.098
308.30 6.091
308.40 6.084
308.50 6.076
308.60 6.069
308.70 6.061
308.80 6.054
308.90 6.047
309.00 6.039
309.10 6.032
309.20 6.025
309.30 6.017
309.40 6.01
309.50 6.003
309.60 5.996
309.70 5.988
309.80 5.981
309.90 5.974
310.00 5.967
310.10 5.959
310.20 5.952
310.30 5.945
310.40 5.938
310.50 5.931
310.60 5.924
310.70 5.916
310.80 5.909
310.90 5.902
311.00 5.895
311.10 5.888
311.20 5.881
311.30 5.874
311.40 5.867
311.50 5.859
311.60 5.852
311.70 5.845
311.80 5.838
311.90 5.831
312.00 5.824
312.10 5.817
312.20 5.81
312.30 5.803
312.40 5.796
312.50 5.789
312.60 5.782
312.70 5.776
312.80 5.769
312.90 5.762
313.00 5.755
313.10 5.748
313.20 5.741
313.30 5.734
313.40 5.727
313.50 5.72
313.60 5.714
313.70 5.707
313.80 5.7
313.90 5.693
314.00 5.686
314.10 5.679
314.20 5.673
314.30 5.666
314.40 5.659
314.50 5.652
314.60 5.646
314.70 5.639
314.80 5.632
314.90 5.625
315.00 5.619
315.10 5.612
315.20 5.605
315.30 5.599
315.40 5.592
315.50 5.585
315.60 5.579
315.70 5.572
315.80 5.565
315.90 5.559
316.00 5.552
316.10 5.546
316.20 5.539
316.30 5.533
316.40 5.526
316.50 5.519
316.60 5.513
316.70 5.506
316.80 5.5
316.90 5.493
317.00 5.487
317.10 5.48
317.20 5.474
317.30 5.467
317.40 5.461
317.50 5.454
317.60 5.448
317.70 5.441
317.80 5.435
317.90 5.429
318.00 5.422
318.10 5.416
318.20 5.409
318.30 5.403
318.40 5.397
318.50 5.39
318.60 5.384
318.70 5.378
318.80 5.371
318.90 5.365
319.00 5.359
319.10 5.352
319.20 5.346
319.30 5.34
319.40 5.333
319.50 5.327
319.60 5.321
319.70 5.315
319.80 5.308
319.90 5.302
320.00 5.296
320.10 5.29
320.20 5.284
320.30 5.277
320.40 5.271
320.50 5.265
320.60 5.259
320.70 5.253
320.80 5.246
320.90 5.24
321.00 5.234
321.10 5.228
321.20 5.222
321.30 5.216
321.40 5.21
321.50 5.204
321.60 5.198
321.70 5.191
321.80 5.185
321.90 5.179
322.00 5.173
322.10 5.167
322.20 5.161
322.30 5.155
322.40 5.149
322.50 5.143
322.60 5.137
322.70 5.131
322.80 5.125
322.90 5.119
323.00 5.113
323.10 5.107
323.20 5.101
323.30 5.096
323.40 5.09
323.50 5.084
323.60 5.078
323.70 5.072
323.80 5.066
323.90 5.06
324.00 5.054
324.10 5.048
324.20 5.043
324.30 5.037
324.40 5.031
324.50 5.025
324.60 5.019
324.70 5.013
324.80 5.008
324.90 5.002
325.00 4.996
325.10 4.99
325.20 4.984
325.30 4.979
325.40 4.973
325.50 4.967
325.60 4.961
325.70 4.956
325.80 4.95
325.90 4.944
326.00 4.939
326.10 4.933
326.20 4.927
326.30 4.922
326.40 4.916
326.50 4.91
326.60 4.905
326.70 4.899
326.80 4.893
326.90 4.888
327.00 4.882
327.10 4.876
327.20 4.871
327.30 4.865
327.40 4.86
327.50 4.854
327.60 4.848
327.70 4.843
327.80 4.837
327.90 4.832
328.00 4.826
328.10 4.821
328.20 4.815
328.30 4.81
328.40 4.804
328.50 4.799
328.60 4.793
328.70 4.788
328.80 4.782
328.90 4.777
329.00 4.771
329.10 4.766
329.20 4.76
329.30 4.755
329.40 4.749
329.50 4.744
329.60 4.739
329.70 4.733
329.80 4.728
329.90 4.722
330.00 4.717
330.10 4.712
330.20 4.706
330.30 4.701
330.40 4.696
330.50 4.69
330.60 4.685
330.70 4.68
330.80 4.674
330.90 4.669
331.00 4.664
331.10 4.658
331.20 4.653
331.30 4.648
331.40 4.643
331.50 4.637
331.60 4.632
331.70 4.627
331.80 4.621
331.90 4.616
332.00 4.611
332.10 4.606
332.20 4.601
332.30 4.595
332.40 4.59
332.50 4.585
332.60 4.58
332.70 4.575
332.80 4.569
332.90 4.564
333.00 4.559
333.10 4.554
333.20 4.549
333.30 4.544
333.40 4.538
333.50 4.533
333.60 4.528
333.70 4.523
333.80 4.518
333.90 4.513
334.00 4.508
334.10 4.503
334.20 4.498
334.30 4.493
334.40 4.488
334.50 4.483
334.60 4.477
334.70 4.472
334.80 4.467
334.90 4.462
335.00 4.457
335.10 4.452
335.20 4.447
335.30 4.442
335.40 4.437
335.50 4.432
335.60 4.427
335.70 4.422
335.80 4.417
335.90 4.412
336.00 4.407
336.10 4.403
336.20 4.398
336.30 4.393
336.40 4.388
336.50 4.383
336.60 4.378
336.70 4.373
336.80 4.368
336.90 4.363
337.00 4.359
337.10 4.354
337.20 4.349
337.30 4.344
337.40 4.339
337.50 4.334
337.60 4.329
337.70 4.325
337.80 4.32
337.90 4.315
338.00 4.31
338.10 4.305
338.20 4.3
338.30 4.296
338.40 4.291
338.50 4.286
338.60 4.281
338.70 4.277
338.80 4.272
338.90 4.267
339.00 4.262
339.10 4.258
339.20 4.253
339.30 4.248
339.40 4.243
339.50 4.239
339.60 4.234
339.70 4.229
339.80 4.225
339.90 4.22
340.00 4.215
340.10 4.211
340.20 4.206
340.30 4.201
340.40 4.197
340.50 4.192
340.60 4.187
340.70 4.183
340.80 4.178
340.90 4.173
341.00 4.169
341.10 4.164
341.20 4.16
341.30 4.155
341.40 4.15
341.50 4.146
341.60 4.141
341.70 4.137
341.80 4.132
341.90 4.128
342.00 4.123
342.10 4.118
342.20 4.114
342.30 4.109
342.40 4.105
342.50 4.1
342.60 4.096
342.70 4.091
342.80 4.087
342.90 4.082
343.00 4.078
343.10 4.073
343.20 4.069
343.30 4.064
343.40 4.06
343.50 4.056
343.60 4.051
343.70 4.047
343.80 4.042
343.90 4.038
344.00 4.033
344.10 4.029
344.20 4.025
344.30 4.02
344.40 4.016
344.50 4.011
344.60 4.007
344.70 4.003
344.80 3.998
344.90 3.994
345.00 3.989
345.10 3.985
345.20 3.981
345.30 3.976
345.40 3.972
345.50 3.968
345.60 3.963
345.70 3.959
345.80 3.955
345.90 3.95
346.00 3.946
346.10 3.942
346.20 3.937
346.30 3.933
346.40 3.929
346.50 3.925
346.60 3.92
346.70 3.916
346.80 3.912
346.90 3.908
347.00 3.903
347.10 3.899
347.20 3.895
347.30 3.891
347.40 3.886
347.50 3.882
347.60 3.878
347.70 3.874
347.80 3.87
347.90 3.865
348.00 3.861
348.10 3.857
348.20 3.853
348.30 3.849
348.40 3.844
348.50 3.84
348.60 3.836
348.70 3.832
348.80 3.828
348.90 3.824
349.00 3.82
349.10 3.815
349.20 3.811
349.30 3.807
349.40 3.803
349.50 3.799
349.60 3.795
349.70 3.791
349.80 3.787
349.90 3.783
350.00 3.778
350.10 3.774
350.20 3.77
350.30 3.766
350.40 3.762
350.50 3.758
350.60 3.754
350.70 3.75
350.80 3.746
350.90 3.742
351.00 3.738
351.10 3.734
351.20 3.73
351.30 3.726
351.40 3.722
351.50 3.718
351.60 3.714
351.70 3.71
351.80 3.706
351.90 3.702
352.00 3.698
352.10 3.694
352.20 3.69
352.30 3.686
352.40 3.682
352.50 3.678
352.60 3.674
352.70 3.67
352.80 3.667
352.90 3.663
353.00 3.659
353.10 3.655
353.20 3.651
353.30 3.647
353.40 3.643
353.50 3.639
353.60 3.635
353.70 3.631
353.80 3.627
353.90 3.624
354.00 3.62
354.10 3.616
354.20 3.612
354.30 3.608
354.40 3.604
354.50 3.601
354.60 3.597
354.70 3.593
354.80 3.589
354.90 3.585
355.00 3.581
355.10 3.578
355.20 3.574
355.30 3.57
355.40 3.566
355.50 3.562
355.60 3.559
355.70 3.555
355.80 3.551
355.90 3.547
356.00 3.544
356.10 3.54
356.20 3.536
356.30 3.532
356.40 3.529
356.50 3.525
356.60 3.521
356.70 3.517
356.80 3.514
356.90 3.51
357.00 3.506
357.10 3.502
357.20 3.499
357.30 3.495
357.40 3.491
357.50 3.488
357.60 3.484
357.70 3.48
357.80 3.477
357.90 3.473
358.00 3.469
358.10 3.466
358.20 3.462
358.30 3.458
358.40 3.455
358.50 3.451
358.60 3.447
358.70 3.444
358.80 3.44
358.90 3.437
359.00 3.433
359.10 3.429
359.20 3.426
359.30 3.422
359.40 3.418
359.50 3.415
359.60 3.411
359.70 3.408
359.80 3.404
359.90 3.401
360.00 3.397
360.10 3.393
360.20 3.39
360.30 3.386
360.40 3.383
360.50 3.379
360.60 3.376
360.70 3.372
360.80 3.369
360.90 3.365
361.00 3.362
361.10 3.358
361.20 3.355
361.30 3.351
361.40 3.347
361.50 3.344
361.60 3.34
361.70 3.337
361.80 3.333
361.90 3.33
362.00 3.327
362.10 3.323
362.20 3.32
362.30 3.316
362.40 3.313
362.50 3.309
362.60 3.306
362.70 3.302
362.80 3.299
362.90 3.295
363.00 3.292
363.10 3.289
363.20 3.285
363.30 3.282
363.40 3.278
363.50 3.275
363.60 3.272
363.70 3.268
363.80 3.265
363.90 3.261
364.00 3.258
364.10 3.255
364.20 3.251
364.30 3.248
364.40 3.244
364.50 3.241
364.60 3.238
364.70 3.234
364.80 3.231
364.90 3.228
365.00 3.224
365.10 3.221
365.20 3.218
365.30 3.214
365.40 3.211
365.50 3.208
365.60 3.204
365.70 3.201
365.80 3.198
365.90 3.194
366.00 3.191
366.10 3.188
366.20 3.184
366.30 3.181
366.40 3.178
366.50 3.174
366.60 3.171
366.70 3.168
366.80 3.164
366.90 3.161
367.00 3.158
367.10 3.154
367.20 3.151
367.30 3.148
367.40 3.144
367.50 3.141
367.60 3.138
367.70 3.134
367.80 3.131
367.90 3.128
368.00 3.124
368.10 3.121
368.20 3.118
368.30 3.115
368.40 3.111
368.50 3.108
368.60 3.105
368.70 3.102
368.80 3.098
368.90 3.095
369.00 3.092
369.10 3.089
369.20 3.085
369.30 3.082
369.40 3.079
369.50 3.076
369.60 3.073
369.70 3.069
369.80 3.066
369.90 3.063
370.00 3.06
370.10 3.057
370.20 3.053
370.30 3.05
370.40 3.047
370.50 3.044
370.60 3.041
370.70 3.038
370.80 3.034
370.90 3.031
371.00 3.028
371.10 3.025
371.20 3.022
371.30 3.019
371.40 3.016
371.50 3.012
371.60 3.009
371.70 3.006
371.80 3.003
371.90 3
372.00 2.997
372.10 2.994
372.20 2.991
372.30 2.988
372.40 2.985
372.50 2.982
372.60 2.979
372.70 2.976
372.80 2.973
372.90 2.97
373.00 2.967
373.10 2.964
373.20 2.961
373.30 2.958
373.40 2.955
373.50 2.952
373.60 2.949
373.70 2.946
373.80 2.943
373.90 2.94
374.00 2.937
374.10 2.934
374.20 2.931
374.30 2.929
374.40 2.926
374.50 2.923
374.60 2.92
374.70 2.917
374.80 2.914
374.90 2.912
375.00 2.909
375.10 2.906
375.20 2.903
375.30 2.9
375.40 2.898
375.50 2.895
375.60 2.892
375.70 2.889
375.80 2.886
375.90 2.884
376.00 2.881
376.10 2.878
376.20 2.874
376.30 2.871
376.40 2.868
376.50 2.865
376.60 2.862
376.70 2.859
376.80 2.856
376.90 2.853
377.00 2.849
377.10 2.847
377.20 2.845
377.30 2.843
377.40 2.841
377.50 2.838
377.60 2.836
377.70 2.834
377.80 2.832
377.90 2.83
378.00 2.827
378.10 2.824
378.20 2.821
378.30 2.818
378.40 2.815
378.50 2.812
378.60 2.809
378.70 2.806
378.80 2.803
378.90 2.8
379.00 2.797
379.10 2.793
379.20 2.79
379.30 2.787
379.40 2.783
379.50 2.78
379.60 2.777
379.70 2.773
379.80 2.77
379.90 2.767
380.00 2.763
380.10 2.762
380.20 2.761
380.30 2.76
380.40 2.759
380.50 2.758
380.60 2.756
380.70 2.755
380.80 2.754
380.90 2.753
381.00 2.752
381.10 2.749
381.20 2.747
381.30 2.745
381.40 2.742
381.50 2.74
381.60 2.737
381.70 2.734
381.80 2.731
381.90 2.727
382.00 2.724
382.10 2.72
382.20 2.715
382.30 2.71
382.40 2.705
382.50 2.699
382.60 2.694
382.70 2.688
382.80 2.683
382.90 2.677
383.00 2.672
383.10 2.666
383.20 2.661
383.30 2.654
383.40 2.648
383.50 2.643
383.60 2.641
383.70 2.642
383.80 2.644
383.90 2.646
384.00 2.648
384.10 2.65
384.20 2.651
384.30 2.652
384.40 2.653
384.50 2.654
384.60 2.654
384.70 2.655
384.80 2.655
384.90 2.654
385.00 2.654
385.10 2.653
385.20 2.652
385.30 2.651
385.40 2.65
385.50 2.649
385.60 2.647
385.70 2.645
385.80 2.643
385.90 2.641
386.00 2.639
386.10 2.636
386.20 2.633
386.30 2.63
386.40 2.627
386.50 2.624
386.60 2.62
386.70 2.616
386.80 2.612
386.90 2.608
387.00 2.603
387.10 2.599
387.20 2.593
387.30 2.588
387.40 2.582
387.50 2.576
387.60 2.57
387.70 2.563
387.80 2.556
387.90 2.548
388.00 2.54
388.10 2.531
388.20 2.522
388.30 2.513
388.40 2.503
388.50 2.492
388.60 2.481
388.70 2.471
388.80 2.463
388.90 2.457
389.00 2.458
389.10 2.461
389.20 2.467
389.30 2.473
389.40 2.479
389.50 2.485
389.60 2.49
389.70 2.494
389.80 2.499
389.90 2.502
390.00 2.505
390.10 2.508
390.20 2.51
390.30 2.512
390.40 2.514
390.50 2.515
390.60 2.516
390.70 2.517
390.80 2.518
390.90 2.518
391.00 2.518
391.10 2.518
391.20 2.517
391.30 2.517
391.40 2.516
391.50 2.515
391.60 2.514
391.70 2.513
391.80 2.512
391.90 2.511
392.00 2.509
392.10 2.507
392.20 2.506
392.30 2.504
392.40 2.502
392.50 2.5
392.60 2.498
392.70 2.496
392.80 2.493
392.90 2.491
393.00 2.489
393.10 2.486
393.20 2.484
393.30 2.481
393.40 2.478
393.50 2.475
393.60 2.472
393.70 2.469
393.80 2.466
393.90 2.462
394.00 2.459
394.10 2.455
394.20 2.451
394.30 2.448
394.40 2.443
394.50 2.439
394.60 2.435
394.70 2.43
394.80 2.425
394.90 2.42
395.00 2.414
395.10 2.408
395.20 2.402
395.30 2.395
395.40 2.388
395.50 2.381
395.60 2.373
395.70 2.364
395.80 2.356
395.90 2.346
396.00 2.335
396.10 2.324
396.20 2.312
396.30 2.3
396.40 2.286
396.50 2.271
396.60 2.255
396.70 2.239
396.80 2.22
396.90 2.201
397.00 2.182
397.10 2.195
397.20 2.209
397.30 2.224
397.40 2.237
397.50 2.249
397.60 2.26
397.70 2.269
397.80 2.277
397.90 2.285
398.00 2.292
398.10 2.298
398.20 2.303
398.30 2.308
398.40 2.312
398.50 2.315
398.60 2.318
398.70 2.321
398.80 2.323
398.90 2.325
399.00 2.326
399.10 2.327
399.20 2.328
399.30 2.329
399.40 2.329
399.50 2.329
399.60 2.329
399.70 2.329
399.80 2.328
399.90 2.328
400.00 2.327
400.10 2.326
400.20 2.325
400.30 2.324
400.40 2.323
400.50 2.322
400.60 2.321
400.70 2.319
400.80 2.318
400.90 2.316
401.00 2.315
401.10 2.313
401.20 2.312
401.30 2.31
401.40 2.308
401.50 2.306
401.60 2.305
401.70 2.303
401.80 2.301
401.90 2.299
402.00 2.297
402.10 2.295
402.20 2.293
402.30 2.291
402.40 2.289
402.50 2.287
402.60 2.285
402.70 2.283
402.80 2.281
402.90 2.279
403.00 2.277
403.10 2.275
403.20 2.273
403.30 2.271
403.40 2.269
403.50 2.267
403.60 2.265
403.70 2.262
403.80 2.26
403.90 2.258
404.00 2.256
404.10 2.254
404.20 2.252
404.30 2.249
404.40 2.247
404.50 2.245
404.60 2.243
404.70 2.24
404.80 2.238
404.90 2.236
405.00 2.233
405.10 2.231
405.20 2.229
405.30 2.226
405.40 2.224
405.50 2.221
405.60 2.219
405.70 2.217
405.80 2.214
405.90 2.211
406.00 2.209
406.10 2.206
406.20 2.204
406.30 2.201
406.40 2.198
406.50 2.195
406.60 2.192
406.70 2.189
406.80 2.186
406.90 2.183
407.00 2.18
407.10 2.176
407.20 2.173
407.30 2.169
407.40 2.165
407.50 2.162
407.60 2.157
407.70 2.153
407.80 2.149
407.90 2.144
408.00 2.139
408.10 2.133
408.20 2.128
408.30 2.121
408.40 2.115
408.50 2.108
408.60 2.1
408.70 2.092
408.80 2.083
408.90 2.074
409.00 2.064
409.10 2.053
409.20 2.041
409.30 2.028
409.40 2.014
409.50 1.998
409.60 1.982
409.70 1.962
409.80 1.941
409.90 1.917
410.00 1.888
410.10 1.869
410.20 1.859
410.30 1.875
410.40 1.895
410.50 1.919
410.60 1.938
410.70 1.954
410.80 1.969
410.90 1.981
411.00 1.992
411.10 2.002
411.20 2.01
411.30 2.017
411.40 2.024
411.50 2.03
411.60 2.035
411.70 2.04
411.80 2.043
411.90 2.047
412.00 2.049
412.10 2.052
412.20 2.053
412.30 2.055
412.40 2.056
412.50 2.057
412.60 2.058
412.70 2.058
412.80 2.058
412.90 2.058
413.00 2.058
413.10 2.058
413.20 2.057
413.30 2.057
413.40 2.056
413.50 2.055
413.60 2.054
413.70 2.053
413.80 2.052
413.90 2.051
414.00 2.05
414.10 2.049
414.20 2.048
414.30 2.046
414.40 2.045
414.50 2.044
414.60 2.042
414.70 2.041
414.80 2.039
414.90 2.038
415.00 2.036
415.10 2.035
415.20 2.033
415.30 2.031
415.40 2.03
415.50 2.028
415.60 2.027
415.70 2.025
415.80 2.023
415.90 2.022
416.00 2.02
416.10 2.018
416.20 2.017
416.30 2.015
416.40 2.013
416.50 2.011
416.60 2.01
416.70 2.008
416.80 2.006
416.90 2.005
417.00 2.003
417.10 2.001
417.20 1.999
417.30 1.998
417.40 1.996
417.50 1.994
417.60 1.992
417.70 1.991
417.80 1.989
417.90 1.987
418.00 1.985
418.10 1.984
418.20 1.982
418.30 1.98
418.40 1.978
418.50 1.977
418.60 1.975
418.70 1.973
418.80 1.971
418.90 1.969
419.00 1.968
419.10 1.966
419.20 1.964
419.30 1.962
419.40 1.961
419.50 1.959
419.60 1.957
419.70 1.955
419.80 1.954
419.90 1.952
420.00 1.95
420.10 1.948
420.20 1.947
420.30 1.945
420.40 1.943
420.50 1.941
420.60 1.94
420.70 1.938
420.80 1.936
420.90 1.934
421.00 1.933
421.10 1.931
421.20 1.929
421.30 1.927
421.40 1.926
421.50 1.924
421.60 1.922
421.70 1.92
421.80 1.919
421.90 1.917
422.00 1.915
422.10 1.914
422.20 1.912
422.30 1.91
422.40 1.908
422.50 1.907
422.60 1.905
422.70 1.903
422.80 1.901
422.90 1.9
423.00 1.898
423.10 1.896
423.20 1.895
423.30 1.893
423.40 1.891
423.50 1.889
423.60 1.888
423.70 1.886
423.80 1.884
423.90 1.882
424.00 1.881
424.10 1.879
424.20 1.877
424.30 1.876
424.40 1.874
424.50 1.872
424.60 1.87
424.70 1.869
424.80 1.867
424.90 1.865
425.00 1.864
425.10 1.862
425.20 1.86
425.30 1.859
425.40 1.857
425.50 1.855
425.60 1.853
425.70 1.852
425.80 1.85
425.90 1.848
426.00 1.847
426.10 1.845
426.20 1.843
426.30 1.841
426.40 1.84
426.50 1.838
426.60 1.836
426.70 1.835
426.80 1.833
426.90 1.831
427.00 1.829
427.10 1.828
427.20 1.826
427.30 1.824
427.40 1.823
427.50 1.821
427.60 1.819
427.70 1.817
427.80 1.816
427.90 1.814
428.00 1.812
428.10 1.81
428.20 1.809
428.30 1.807
428.40 1.805
428.50 1.803
428.60 1.801
428.70 1.8
428.80 1.798
428.90 1.796
429.00 1.794
429.10 1.792
429.20 1.79
429.30 1.789
429.40 1.787
429.50 1.785
429.60 1.783
429.70 1.781
429.80 1.779
429.90 1.777
430.00 1.775
430.10 1.773
430.20 1.77
430.30 1.768
430.40 1.766
430.50 1.764
430.60 1.762
430.70 1.759
430.80 1.757
430.90 1.754
431.00 1.751
431.10 1.749
431.20 1.746
431.30 1.743
431.40 1.74
431.50 1.737
431.60 1.733
431.70 1.729
431.80 1.726
431.90 1.721
432.00 1.717
432.10 1.712
432.20 1.707
432.30 1.702
432.40 1.696
432.50 1.689
432.60 1.682
432.70 1.675
432.80 1.666
432.90 1.657
433.00 1.648
433.10 1.636
433.20 1.624
433.30 1.611
433.40 1.596
433.50 1.579
433.60 1.56
433.70 1.537
433.80 1.508
433.90 1.473
434.00 1.44
434.10 1.44
434.20 1.473
434.30 1.503
434.40 1.529
434.50 1.55
434.60 1.565
434.70 1.579
434.80 1.592
434.90 1.602
435.00 1.611
435.10 1.619
435.20 1.626
435.30 1.632
435.40 1.637
435.50 1.641
435.60 1.645
435.70 1.649
435.80 1.652
435.90 1.654
436.00 1.656
436.10 1.657
436.20 1.659
436.30 1.66
436.40 1.66
436.50 1.661
436.60 1.661
436.70 1.662
436.80 1.662
436.90 1.661
437.00 1.661
437.10 1.661
437.20 1.66
437.30 1.66
437.40 1.659
437.50 1.658
437.60 1.658
437.70 1.657
437.80 1.656
437.90 1.655
438.00 1.654
438.10 1.653
438.20 1.652
438.30 1.651
438.40 1.65
438.50 1.649
438.60 1.648
438.70 1.647
438.80 1.646
438.90 1.644
439.00 1.643
439.10 1.642
439.20 1.641
439.30 1.639
439.40 1.638
439.50 1.637
439.60 1.636
439.70 1.634
439.80 1.633
439.90 1.632
440.00 1.631
440.10 1.629
440.20 1.628
440.30 1.627
440.40 1.625
440.50 1.624
440.60 1.623
440.70 1.621
440.80 1.62
440.90 1.619
441.00 1.617
441.10 1.616
441.20 1.615
441.30 1.613
441.40 1.612
441.50 1.611
441.60 1.609
441.70 1.608
441.80 1.607
441.90 1.605
442.00 1.604
442.10 1.603
442.20 1.601
442.30 1.6
442.40 1.599
442.50 1.597
442.60 1.596
442.70 1.595
442.80 1.593
442.90 1.592
443.00 1.591
443.10 1.589
443.20 1.588
443.30 1.587
443.40 1.585
443.50 1.584
443.60 1.583
443.70 1.581
443.80 1.58
443.90 1.579
444.00 1.577
444.10 1.576
444.20 1.574
444.30 1.573
444.40 1.572
444.50 1.57
444.60 1.569
444.70 1.568
444.80 1.566
444.90 1.565
445.00 1.564
445.10 1.562
445.20 1.561
445.30 1.56
445.40 1.558
445.50 1.557
445.60 1.556
445.70 1.554
445.80 1.553
445.90 1.552
446.00 1.551
446.10 1.549
446.20 1.548
446.30 1.547
446.40 1.545
446.50 1.544
446.60 1.543
446.70 1.541
446.80 1.54
446.90 1.539
447.00 1.537
447.10 1.536
447.20 1.535
447.30 1.533
447.40 1.532
447.50 1.531
447.60 1.53
447.70 1.528
447.80 1.527
447.90 1.526
448.00 1.524
448.10 1.523
448.20 1.522
448.30 1.52
448.40 1.519
448.50 1.518
448.60 1.517
448.70 1.515
448.80 1.514
448.90 1.513
449.00 1.511
449.10 1.51
449.20 1.509
449.30 1.508
449.40 1.506
449.50 1.505
449.60 1.504
449.70 1.502
449.80 1.501
449.90 1.5
450.00 1.499
450.10 1.497
450.20 1.496
450.30 1.495
450.40 1.494
450.50 1.492
450.60 1.491
450.70 1.49
450.80 1.488
450.90 1.487
451.00 1.486
451.10 1.485
451.20 1.483
451.30 1.482
451.40 1.481
451.50 1.48
451.60 1.478
451.70 1.477
451.80 1.476
451.90 1.475
452.00 1.473
452.10 1.472
452.20 1.471
452.30 1.47
452.40 1.468
452.50 1.467
452.60 1.466
452.70 1.465
452.80 1.463
452.90 1.462
453.00 1.461
453.10 1.46
453.20 1.459
453.30 1.457
453.40 1.456
453.50 1.455
453.60 1.454
453.70 1.452
453.80 1.451
453.90 1.45
454.00 1.449
454.10 1.447
454.20 1.446
454.30 1.445
454.40 1.444
454.50 1.443
454.60 1.441
454.70 1.44
454.80 1.439
454.90 1.438
455.00 1.437
455.10 1.435
455.20 1.434
455.30 1.433
455.40 1.432
455.50 1.43
455.60 1.429
455.70 1.428
455.80 1.427
455.90 1.426
456.00 1.424
456.10 1.423
456.20 1.422
456.30 1.421
456.40 1.42
456.50 1.419
456.60 1.417
456.70 1.416
456.80 1.415
456.90 1.414
457.00 1.413
457.10 1.411
457.20 1.41
457.30 1.409
457.40 1.408
457.50 1.407
457.60 1.406
457.70 1.404
457.80 1.403
457.90 1.402
458.00 1.401
458.10 1.4
458.20 1.398
458.30 1.397
458.40 1.396
458.50 1.395
458.60 1.394
458.70 1.393
458.80 1.391
458.90 1.39
459.00 1.389
459.10 1.388
459.20 1.387
459.30 1.386
459.40 1.384
459.50 1.383
459.60 1.382
459.70 1.381
459.80 1.38
459.90 1.379
460.00 1.378
460.10 1.376
460.20 1.375
460.30 1.374
460.40 1.373
460.50 1.372
460.60 1.371
460.70 1.37
460.80 1.368
460.90 1.367
461.00 1.366
461.10 1.365
461.20 1.364
461.30 1.363
461.40 1.362
461.50 1.36
461.60 1.359
461.70 1.358
461.80 1.357
461.90 1.356
462.00 1.355
462.10 1.354
462.20 1.353
462.30 1.351
462.40 1.35
462.50 1.349
462.60 1.348
462.70 1.347
462.80 1.346
462.90 1.345
463.00 1.344
463.10 1.343
463.20 1.341
463.30 1.34
463.40 1.339
463.50 1.338
463.60 1.337
463.70 1.336
463.80 1.335
463.90 1.334
464.00 1.333
464.10 1.331
464.20 1.33
464.30 1.329
464.40 1.328
464.50 1.327
464.60 1.326
464.70 1.325
464.80 1.324
464.90 1.323
465.00 1.322
465.10 1.32
465.20 1.319
465.30 1.318
465.40 1.317
465.50 1.316
465.60 1.315
465.70 1.314
465.80 1.313
465.90 1.312
466.00 1.311
466.10 1.31
466.20 1.309
466.30 1.307
466.40 1.306
466.50 1.305
466.60 1.304
466.70 1.303
466.80 1.302
466.90 1.301
467.00 1.3
467.10 1.299
467.20 1.298
467.30 1.297
467.40 1.296
467.50 1.295
467.60 1.294
467.70 1.292
467.80 1.291
467.90 1.29
468.00 1.289
468.10 1.288
468.20 1.287
468.30 1.286
468.40 1.285
468.50 1.284
468.60 1.283
468.70 1.282
468.80 1.281
468.90 1.28
469.00 1.279
469.10 1.278
469.20 1.277
469.30 1.276
469.40 1.275
469.50 1.274
469.60 1.272
469.70 1.271
469.80 1.27
469.90 1.269
470.00 1.268
470.10 1.267
470.20 1.266
470.30 1.265
470.40 1.264
470.50 1.263
470.60 1.262
470.70 1.261
470.80 1.26
470.90 1.259
471.00 1.258
471.10 1.257
471.20 1.256
471.30 1.255
471.40 1.254
471.50 1.253
471.60 1.252
471.70 1.251
471.80 1.25
471.90 1.249
472.00 1.248
472.10 1.247
472.20 1.246
472.30 1.245
472.40 1.244
472.50 1.243
472.60 1.242
472.70 1.241
472.80 1.24
472.90 1.239
473.00 1.238
473.10 1.237
473.20 1.236
473.30 1.235
473.40 1.234
473.50 1.233
473.60 1.232
473.70 1.23
473.80 1.229
473.90 1.228
474.00 1.227
474.10 1.226
474.20 1.225
474.30 1.224
474.40 1.223
474.50 1.222
474.60 1.221
474.70 1.22
474.80 1.219
474.90 1.218
475.00 1.217
475.10 1.216
475.20 1.215
475.30 1.214
475.40 1.213
475.50 1.212
475.60 1.212
475.70 1.211
475.80 1.21
475.90 1.209
476.00 1.208
476.10 1.207
476.20 1.206
476.30 1.205
476.40 1.204
476.50 1.203
476.60 1.202
476.70 1.201
476.80 1.2
476.90 1.199
477.00 1.198
477.10 1.197
477.20 1.196
477.30 1.195
477.40 1.194
477.50 1.193
477.60 1.192
477.70 1.191
477.80 1.19
477.90 1.189
478.00 1.188
478.10 1.187
478.20 1.186
478.30 1.185
478.40 1.184
478.50 1.183
478.60 1.182
478.70 1.181
478.80 1.18
478.90 1.179
479.00 1.178
479.10 1.177
479.20 1.176
479.30 1.175
479.40 1.174
479.50 1.173
479.60 1.172
479.70 1.171
479.80 1.17
479.90 1.169
480.00 1.168
480.10 1.167
480.20 1.166
480.30 1.165
480.40 1.163
480.50 1.162
480.60 1.161
480.70 1.16
480.80 1.159
480.90 1.158
481.00 1.157
481.10 1.156
481.20 1.155
481.30 1.154
481.40 1.153
481.50 1.152
481.60 1.15
481.70 1.149
481.80 1.148
481.90 1.147
482.00 1.146
482.10 1.145
482.20 1.143
482.30 1.142
482.40 1.14
482.50 1.139
482.60 1.138
482.70 1.136
482.80 1.135
482.90 1.133
483.00 1.132
483.10 1.131
483.20 1.129
483.30 1.127
483.40 1.124
483.50 1.122
483.60 1.12
483.70 1.118
483.80 1.116
483.90 1.114
484.00 1.112
484.10 1.109
484.20 1.106
484.30 1.103
484.40 1.099
484.50 1.096
484.60 1.092
484.70 1.088
484.80 1.082
484.90 1.077
485.00 1.071
485.10 1.066
485.20 1.059
485.30 1.051
485.40 1.042
485.50 1.033
485.60 1.02
485.70 1.007
485.80 0.9873
485.90 0.9642
486.00 0.9293
486.10 0.9032
486.20 0.9034
486.30 0.9416
486.40 0.9677
486.50 0.9895
486.60 1.004
486.70 1.016
486.80 1.025
486.90 1.033
487.00 1.04
487.10 1.046
487.20 1.05
487.30 1.054
487.40 1.058
487.50 1.062
487.60 1.065
487.70 1.068
487.80 1.069
487.90 1.071
488.00 1.073
488.10 1.074
488.20 1.075
488.30 1.075
488.40 1.076
488.50 1.076
488.60 1.076
488.70 1.077
488.80 1.077
488.90 1.077
489.00 1.078
489.10 1.078
489.20 1.078
489.30 1.078
489.40 1.077
489.50 1.077
489.60 1.076
489.70 1.076
489.80 1.076
489.90 1.075
490.00 1.075
490.10 1.075
490.20 1.074
490.30 1.073
490.40 1.073
490.50 1.072
490.60 1.072
490.70 1.071
490.80 1.07
490.90 1.07
491.00 1.069
491.10 1.068
491.20 1.068
491.30 1.067
491.40 1.066
491.50 1.066
491.60 1.065
491.70 1.064
491.80 1.063
491.90 1.063
492.00 1.062
492.10 1.061
492.20 1.061
492.30 1.06
492.40 1.059
492.50 1.058
492.60 1.057
492.70 1.057
492.80 1.056
492.90 1.055
493.00 1.054
493.10 1.054
493.20 1.053
493.30 1.052
493.40 1.051
493.50 1.051
493.60 1.05
493.70 1.049
493.80 1.048
493.90 1.047
494.00 1.047
494.10 1.046
494.20 1.045
494.30 1.044
494.40 1.044
494.50 1.043
494.60 1.042
494.70 1.041
494.80 1.04
494.90 1.04
495.00 1.039
495.10 1.038
495.20 1.037
495.30 1.037
495.40 1.036
495.50 1.035
495.60 1.034
495.70 1.033
495.80 1.033
495.90 1.032
496.00 1.031
496.10 1.03
496.20 1.029
496.30 1.029
496.40 1.028
496.50 1.027
496.60 1.026
496.70 1.026
496.80 1.025
496.90 1.024
497.00 1.023
497.10 1.022
497.20 1.022
497.30 1.021
497.40 1.02
497.50 1.019
497.60 1.019
497.70 1.018
497.80 1.017
497.90 1.016
498.00 1.015
498.10 1.015
498.20 1.014
498.30 1.013
498.40 1.012
498.50 1.012
498.60 1.011
498.70 1.01
498.80 1.009
498.90 1.008
499.00 1.008
499.10 1.007
499.20 1.006
499.30 1.005
499.40 1.005
499.50 1.004
499.60 1.003
499.70 1.002
499.80 1.002
499.90 1.001
500.00 1
500.10 0.9992
500.20 0.9985
500.30 0.9977
500.40 0.9969
500.50 0.9962
500.60 0.9954
500.70 0.9947
500.80 0.9939
500.90 0.9931
501.00 0.9924
501.10 0.9916
501.20 0.9909
501.30 0.9901
501.40 0.9894
501.50 0.9886
501.60 0.9879
501.70 0.9871
501.80 0.9863
501.90 0.9856
502.00 0.9848
502.10 0.9841
502.20 0.9833
502.30 0.9826
502.40 0.9818
502.50 0.9811
502.60 0.9803
502.70 0.9796
502.80 0.9789
502.90 0.9781
503.00 0.9774
503.10 0.9766
503.20 0.9759
503.30 0.9751
503.40 0.9744
503.50 0.9736
503.60 0.9729
503.70 0.9722
503.80 0.9714
503.90 0.9707
504.00 0.9699
504.10 0.9692
504.20 0.9685
504.30 0.9677
504.40 0.967
504.50 0.9663
504.60 0.9655
504.70 0.9648
504.80 0.9641
504.90 0.9633
505.00 0.9626
505.10 0.9619
505.20 0.9611
505.30 0.9604
505.40 0.9597
505.50 0.9589
505.60 0.9582
505.70 0.9575
505.80 0.9568
505.90 0.956
506.00 0.9553
506.10 0.9546
506.20 0.9539
506.30 0.9531
506.40 0.9524
506.50 0.9517
506.60 0.951
506.70 0.9503
506.80 0.9495
506.90 0.9488
507.00 0.9481
507.10 0.9474
507.20 0.9467
507.30 0.9459
507.40 0.9452
507.50 0.9445
507.60 0.9438
507.70 0.9431
507.80 0.9424
507.90 0.9417
508.00 0.9409
508.10 0.9402
508.20 0.9395
508.30 0.9388
508.40 0.9381
508.50 0.9374
508.60 0.9367
508.70 0.936
508.80 0.9353
508.90 0.9346
509.00 0.9339
509.10 0.9332
509.20 0.9325
509.30 0.9318
509.40 0.9311
509.50 0.9304
509.60 0.9297
509.70 0.9289
509.80 0.9282
509.90 0.9275
510.00 0.9268
510.10 0.9261
510.20 0.9255
510.30 0.9248
510.40 0.9241
510.50 0.9234
510.60 0.9227
510.70 0.922
510.80 0.9213
510.90 0.9206
511.00 0.9199
511.10 0.9192
511.20 0.9185
511.30 0.9178
511.40 0.9171
511.50 0.9164
511.60 0.9158
511.70 0.9151
511.80 0.9144
511.90 0.9137
512.00 0.913
512.10 0.9123
512.20 0.9116
512.30 0.911
512.40 0.9103
512.50 0.9096
512.60 0.9089
512.70 0.9082
512.80 0.9075
512.90 0.9069
513.00 0.9062
513.10 0.9055
513.20 0.9048
513.30 0.9042
513.40 0.9035
513.50 0.9028
513.60 0.9021
513.70 0.9014
513.80 0.9008
513.90 0.9001
514.00 0.8994
514.10 0.8988
514.20 0.8981
514.30 0.8974
514.40 0.8967
514.50 0.8961
514.60 0.8954
514.70 0.8947
514.80 0.8941
514.90 0.8934
515.00 0.8927
515.10 0.8921
515.20 0.8914
515.30 0.8907
515.40 0.8901
515.50 0.8894
515.60 0.8887
515.70 0.8881
515.80 0.8874
515.90 0.8868
516.00 0.8861
516.10 0.8854
516.20 0.8848
516.30 0.8841
516.40 0.8835
516.50 0.8828
516.60 0.8821
516.70 0.8815
516.80 0.8808
516.90 0.8802
517.00 0.8795
517.10 0.8789
517.20 0.8782
517.30 0.8776
517.40 0.8769
517.50 0.8763
517.60 0.8756
517.70 0.875
517.80 0.8743
517.90 0.8737
518.00 0.873
518.10 0.8724
518.20 0.8717
518.30 0.8711
518.40 0.8704
518.50 0.8698
518.60 0.8691
518.70 0.8685
518.80 0.8678
518.90 0.8672
519.00 0.8666
519.10 0.8659
519.20 0.8653
519.30 0.8646
519.40 0.864
519.50 0.8634
519.60 0.8627
519.70 0.8621
519.80 0.8614
519.90 0.8608
520.00 0.8602
520.10 0.8595
520.20 0.8589
520.30 0.8583
520.40 0.8576
520.50 0.857
520.60 0.8564
520.70 0.8557
520.80 0.8551
520.90 0.8545
521.00 0.8538
521.10 0.8532
521.20 0.8526
521.30 0.8519
521.40 0.8513
521.50 0.8507
521.60 0.85
521.70 0.8494
521.80 0.8488
521.90 0.8482
522.00 0.8475
522.10 0.8469
522.20 0.8463
522.30 0.8457
522.40 0.845
522.50 0.8444
522.60 0.8438
522.70 0.8432
522.80 0.8426
522.90 0.8419
523.00 0.8413
523.10 0.8407
523.20 0.8401
523.30 0.8395
523.40 0.8389
523.50 0.8382
523.60 0.8376
523.70 0.837
523.80 0.8364
523.90 0.8358
524.00 0.8352
524.10 0.8346
524.20 0.8339
524.30 0.8333
524.40 0.8327
524.50 0.8321
524.60 0.8315
524.70 0.8309
524.80 0.8303
524.90 0.8297
525.00 0.8291
525.10 0.8285
525.20 0.8278
525.30 0.8272
525.40 0.8266
525.50 0.826
525.60 0.8254
525.70 0.8248
525.80 0.8242
525.90 0.8236
526.00 0.823
526.10 0.8224
526.20 0.8218
526.30 0.8212
526.40 0.8206
526.50 0.82
526.60 0.8194
526.70 0.8188
526.80 0.8182
526.90 0.8176
527.00 0.817
527.10 0.8164
527.20 0.8158
527.30 0.8152
527.40 0.8146
527.50 0.814
527.60 0.8134
527.70 0.8129
527.80 0.8123
527.90 0.8117
528.00 0.8111
528.10 0.8105
528.20 0.8099
528.30 0.8093
528.40 0.8087
528.50 0.8081
528.60 0.8075
528.70 0.807
528.80 0.8064
528.90 0.8058
529.00 0.8052
529.10 0.8046
529.20 0.804
529.30 0.8034
529.40 0.8028
529.50 0.8023
529.60 0.8017
529.70 0.8011
529.80 0.8005
529.90 0.7999
530.00 0.7994
530.10 0.7988
530.20 0.7982
530.30 0.7976
530.40 0.797
530.50 0.7965
530.60 0.7959
530.70 0.7953
530.80 0.7947
530.90 0.7941
531.00 0.7936
531.10 0.793
531.20 0.7924
531.30 0.7919
531.40 0.7913
531.50 0.7907
531.60 0.7901
531.70 0.7896
531.80 0.789
531.90 0.7884
532.00 0.7878
532.10 0.7873
532.20 0.7867
532.30 0.7861
532.40 0.7856
532.50 0.785
532.60 0.7844
532.70 0.7839
532.80 0.7833
532.90 0.7827
533.00 0.7822
533.10 0.7816
533.20 0.781
533.30 0.7805
533.40 0.7799
533.50 0.7794
533.60 0.7788
533.70 0.7782
533.80 0.7777
533.90 0.7771
534.00 0.7765
534.10 0.776
534.20 0.7754
534.30 0.7749
534.40 0.7743
534.50 0.7738
534.60 0.7732
534.70 0.7726
534.80 0.7721
534.90 0.7715
535.00 0.771
535.10 0.7704
535.20 0.7699
535.30 0.7693
535.40 0.7688
535.50 0.7682
535.60 0.7677
535.70 0.7671
535.80 0.7666
535.90 0.766
536.00 0.7654
536.10 0.7649
536.20 0.7643
536.30 0.7638
536.40 0.7633
536.50 0.7627
536.60 0.7622
536.70 0.7616
536.80 0.7611
536.90 0.7605
537.00 0.76
537.10 0.7594
537.20 0.7589
537.30 0.7583
537.40 0.7578
537.50 0.7573
537.60 0.7567
537.70 0.7562
537.80 0.7556
537.90 0.7551
538.00 0.7545
538.10 0.754
538.20 0.7535
538.30 0.7529
538.40 0.7524
538.50 0.7519
538.60 0.7513
538.70 0.7508
538.80 0.7502
538.90 0.7497
539.00 0.7492
539.10 0.7486
539.20 0.7481
539.30 0.7476
539.40 0.747
539.50 0.7465
539.60 0.746
539.70 0.7454
539.80 0.7449
539.90 0.7444
540.00 0.7438
540.10 0.7433
540.20 0.7428
540.30 0.7423
540.40 0.7417
540.50 0.7412
540.60 0.7407
540.70 0.7401
540.80 0.7396
540.90 0.7391
541.00 0.7386
541.10 0.738
541.20 0.7375
541.30 0.737
541.40 0.7365
541.50 0.7359
541.60 0.7354
541.70 0.7349
541.80 0.7344
541.90 0.7338
542.00 0.7333
542.10 0.7328
542.20 0.7323
542.30 0.7318
542.40 0.7312
542.50 0.7307
542.60 0.7302
542.70 0.7297
542.80 0.7292
542.90 0.7286
543.00 0.7281
543.10 0.7276
543.20 0.7271
543.30 0.7266
543.40 0.7261
543.50 0.7256
543.60 0.725
543.70 0.7245
543.80 0.724
543.90 0.7235
544.00 0.723
544.10 0.7225
544.20 0.722
544.30 0.7215
544.40 0.7209
544.50 0.7204
544.60 0.7199
544.70 0.7194
544.80 0.7189
544.90 0.7184
545.00 0.7179
545.10 0.7174
545.20 0.7169
545.30 0.7164
545.40 0.7159
545.50 0.7154
545.60 0.7149
545.70 0.7143
545.80 0.7138
545.90 0.7133
546.00 0.7128
546.10 0.7123
546.20 0.7118
546.30 0.7113
546.40 0.7108
546.50 0.7103
546.60 0.7098
546.70 0.7093
546.80 0.7088
546.90 0.7083
547.00 0.7078
547.10 0.7073
547.20 0.7068
547.30 0.7063
547.40 0.7058
547.50 0.7053
547.60 0.7049
547.70 0.7044
547.80 0.7039
547.90 0.7034
548.00 0.7029
548.10 0.7024
548.20 0.7019
548.30 0.7014
548.40 0.7009
548.50 0.7004
548.60 0.6999
548.70 0.6994
548.80 0.6989
548.90 0.6984
549.00 0.698
549.10 0.6975
549.20 0.697
549.30 0.6965
549.40 0.696
549.50 0.6955
549.60 0.695
549.70 0.6945
549.80 0.694
549.90 0.6936
550.00 0.6931
550.10 0.6926
550.20 0.6921
550.30 0.6916
550.40 0.6911
550.50 0.6906
550.60 0.6902
550.70 0.6897
550.80 0.6892
550.90 0.6887
551.00 0.6882
551.10 0.6878
551.20 0.6873
551.30 0.6868
551.40 0.6863
551.50 0.6858
551.60 0.6854
551.70 0.6849
551.80 0.6844
551.90 0.6839
552.00 0.6834
552.10 0.683
552.20 0.6825
552.30 0.682
552.40 0.6815
552.50 0.6811
552.60 0.6806
552.70 0.6801
552.80 0.6796
552.90 0.6792
553.00 0.6787
553.10 0.6782
553.20 0.6777
553.30 0.6773
553.40 0.6768
553.50 0.6763
553.60 0.6759
553.70 0.6754
553.80 0.6749
553.90 0.6745
554.00 0.674
554.10 0.6735
554.20 0.673
554.30 0.6726
554.40 0.6721
554.50 0.6716
554.60 0.6712
554.70 0.6707
554.80 0.6702
554.90 0.6698
555.00 0.6693
555.10 0.6689
555.20 0.6684
555.30 0.6679
555.40 0.6675
555.50 0.667
555.60 0.6665
555.70 0.6661
555.80 0.6656
555.90 0.6651
556.00 0.6647
556.10 0.6642
556.20 0.6638
556.30 0.6633
556.40 0.6628
556.50 0.6624
556.60 0.6619
556.70 0.6615
556.80 0.661
556.90 0.6606
557.00 0.6601
557.10 0.6596
557.20 0.6592
557.30 0.6587
557.40 0.6583
557.50 0.6578
557.60 0.6574
557.70 0.6569
557.80 0.6565
557.90 0.656
558.00 0.6555
558.10 0.6551
558.20 0.6546
558.30 0.6542
558.40 0.6537
558.50 0.6533
558.60 0.6528
558.70 0.6524
558.80 0.6519
558.90 0.6515
559.00 0.651
559.10 0.6506
559.20 0.6501
559.30 0.6497
559.40 0.6492
559.50 0.6488
559.60 0.6484
559.70 0.6479
559.80 0.6475
559.90 0.647
560.00 0.6466
560.10 0.6461
560.20 0.6457
560.30 0.6452
560.40 0.6448
560.50 0.6443
560.60 0.6439
560.70 0.6435
560.80 0.643
560.90 0.6426
561.00 0.6421
561.10 0.6417
561.20 0.6413
561.30 0.6408
561.40 0.6404
561.50 0.6399
561.60 0.6395
561.70 0.6391
561.80 0.6386
561.90 0.6382
562.00 0.6377
562.10 0.6373
562.20 0.6369
562.30 0.6364
562.40 0.636
562.50 0.6356
562.60 0.6351
562.70 0.6347
562.80 0.6343
562.90 0.6338
563.00 0.6334
563.10 0.633
563.20 0.6325
563.30 0.6321
563.40 0.6317
563.50 0.6312
563.60 0.6308
563.70 0.6304
563.80 0.6299
563.90 0.6295
564.00 0.6291
564.10 0.6286
564.20 0.6282
564.30 0.6278
564.40 0.6273
564.50 0.6269
564.60 0.6265
564.70 0.6261
564.80 0.6256
564.90 0.6252
565.00 0.6248
565.10 0.6244
565.20 0.6239
565.30 0.6235
565.40 0.6231
565.50 0.6227
565.60 0.6222
565.70 0.6218
565.80 0.6214
565.90 0.621
566.00 0.6205
566.10 0.6201
566.20 0.6197
566.30 0.6193
566.40 0.6188
566.50 0.6184
566.60 0.618
566.70 0.6176
566.80 0.6172
566.90 0.6167
567.00 0.6163
567.10 0.6159
567.20 0.6155
567.30 0.6151
567.40 0.6146
567.50 0.6142
567.60 0.6138
567.70 0.6134
567.80 0.613
567.90 0.6126
568.00 0.6121
568.10 0.6117
568.20 0.6113
568.30 0.6109
568.40 0.6105
568.50 0.6101
568.60 0.6097
568.70 0.6092
568.80 0.6088
568.90 0.6084
569.00 0.608
569.10 0.6076
569.20 0.6072
569.30 0.6068
569.40 0.6064
569.50 0.606
569.60 0.6055
569.70 0.6051
569.80 0.6047
569.90 0.6043
570.00 0.6039
570.10 0.6035
570.20 0.6031
570.30 0.6027
570.40 0.6023
570.50 0.6019
570.60 0.6015
570.70 0.6011
570.80 0.6007
570.90 0.6002
571.00 0.5998
571.10 0.5994
571.20 0.599
571.30 0.5986
571.40 0.5982
571.50 0.5978
571.60 0.5974
571.70 0.597
571.80 0.5966
571.90 0.5962
572.00 0.5958
572.10 0.5954
572.20 0.595
572.30 0.5946
572.40 0.5942
572.50 0.5938
572.60 0.5934
572.70 0.593
572.80 0.5926
572.90 0.5922
573.00 0.5918
573.10 0.5914
573.20 0.591
573.30 0.5906
573.40 0.5902
573.50 0.5898
573.60 0.5894
573.70 0.589
573.80 0.5886
573.90 0.5882
574.00 0.5878
574.10 0.5874
574.20 0.587
574.30 0.5867
574.40 0.5863
574.50 0.5859
574.60 0.5855
574.70 0.5851
574.80 0.5847
574.90 0.5843
575.00 0.5839
575.10 0.5835
575.20 0.5831
575.30 0.5827
575.40 0.5823
575.50 0.5819
575.60 0.5816
575.70 0.5812
575.80 0.5808
575.90 0.5804
576.00 0.58
576.10 0.5796
576.20 0.5792
576.30 0.5788
576.40 0.5785
576.50 0.5781
576.60 0.5777
576.70 0.5773
576.80 0.5769
576.90 0.5765
577.00 0.5761
577.10 0.5757
577.20 0.5754
577.30 0.575
577.40 0.5746
577.50 0.5742
577.60 0.5738
577.70 0.5734
577.80 0.5731
577.90 0.5727
578.00 0.5723
578.10 0.5719
578.20 0.5715
578.30 0.5711
578.40 0.5708
578.50 0.5704
578.60 0.57
578.70 0.5696
578.80 0.5692
578.90 0.5689
579.00 0.5685
579.10 0.5681
579.20 0.5677
579.30 0.5674
579.40 0.567
579.50 0.5666
579.60 0.5662
579.70 0.5658
579.80 0.5655
579.90 0.5651
580.00 0.5647
580.10 0.5643
580.20 0.564
580.30 0.5636
580.40 0.5632
580.50 0.5628
580.60 0.5625
580.70 0.5621
580.80 0.5617
580.90 0.5613
581.00 0.561
581.10 0.5606
581.20 0.5602
581.30 0.5599
581.40 0.5595
581.50 0.5591
581.60 0.5587
581.70 0.5584
581.80 0.558
581.90 0.5576
582.00 0.5573
582.10 0.5569
582.20 0.5565
582.30 0.5562
582.40 0.5558
582.50 0.5554
582.60 0.5551
582.70 0.5547
582.80 0.5543
582.90 0.554
583.00 0.5536
583.10 0.5532
583.20 0.5529
583.30 0.5525
583.40 0.5521
583.50 0.5518
583.60 0.5514
583.70 0.551
583.80 0.5507
583.90 0.5503
584.00 0.5499
584.10 0.5496
584.20 0.5492
584.30 0.5488
584.40 0.5485
584.50 0.5481
584.60 0.5478
584.70 0.5474
584.80 0.547
584.90 0.5467
585.00 0.5463
585.10 0.546
585.20 0.5456
585.30 0.5452
585.40 0.5449
585.50 0.5445
585.60 0.5442
585.70 0.5438
585.80 0.5434
585.90 0.5431
586.00 0.5427
586.10 0.5424
586.20 0.542
586.30 0.5417
586.40 0.5413
586.50 0.5409
586.60 0.5406
586.70 0.5402
586.80 0.5399
586.90 0.5395
587.00 0.5392
587.10 0.5388
587.20 0.5385
587.30 0.5381
587.40 0.5378
587.50 0.5374
587.60 0.537
587.70 0.5367
587.80 0.5363
587.90 0.536
588.00 0.5356
588.10 0.5353
588.20 0.5349
588.30 0.5346
588.40 0.5342
588.50 0.5339
588.60 0.5335
588.70 0.5332
588.80 0.5328
588.90 0.5325
589.00 0.5321
589.10 0.5318
589.20 0.5314
589.30 0.5311
589.40 0.5307
589.50 0.5304
589.60 0.53
589.70 0.5297
589.80 0.5294
589.90 0.529
590.00 0.5287
590.10 0.5283
590.20 0.528
590.30 0.5276
590.40 0.5273
590.50 0.5269
590.60 0.5266
590.70 0.5262
590.80 0.5259
590.90 0.5256
591.00 0.5252
591.10 0.5249
591.20 0.5245
591.30 0.5242
591.40 0.5238
591.50 0.5235
591.60 0.5232
591.70 0.5228
591.80 0.5225
591.90 0.5221
592.00 0.5218
592.10 0.5215
592.20 0.5211
592.30 0.5208
592.40 0.5204
592.50 0.5201
592.60 0.5198
592.70 0.5194
592.80 0.5191
592.90 0.5187
593.00 0.5184
593.10 0.5181
593.20 0.5177
593.30 0.5174
593.40 0.5171
593.50 0.5167
593.60 0.5164
593.70 0.5161
593.80 0.5157
593.90 0.5154
594.00 0.515
594.10 0.5147
594.20 0.5144
594.30 0.514
594.40 0.5137
594.50 0.5134
594.60 0.513
594.70 0.5127
594.80 0.5124
594.90 0.512
595.00 0.5117
595.10 0.5114
595.20 0.5111
595.30 0.5107
595.40 0.5104
595.50 0.5101
595.60 0.5097
595.70 0.5094
595.80 0.5091
595.90 0.5087
596.00 0.5084
596.10 0.5081
596.20 0.5077
596.30 0.5074
596.40 0.5071
596.50 0.5068
596.60 0.5064
596.70 0.5061
596.80 0.5058
596.90 0.5055
597.00 0.5051
597.10 0.5048
597.20 0.5045
597.30 0.5041
597.40 0.5038
597.50 0.5035
597.60 0.5032
597.70 0.5028
597.80 0.5025
597.90 0.5022
598.00 0.5019
598.10 0.5015
598.20 0.5012
598.30 0.5009
598.40 0.5006
598.50 0.5003
598.60 0.4999
598.70 0.4996
598.80 0.4993
598.90 0.499
599.00 0.4986
599.10 0.4983
599.20 0.498
599.30 0.4977
599.40 0.4974
599.50 0.497
599.60 0.4967
599.70 0.4964
599.80 0.4961
599.90 0.4958
600.00 0.4954
600.10 0.4951
600.20 0.4948
600.30 0.4945
600.40 0.4942
600.50 0.4939
600.60 0.4935
600.70 0.4932
600.80 0.4929
600.90 0.4926
601.00 0.4923
601.10 0.492
601.20 0.4916
601.30 0.4913
601.40 0.491
601.50 0.4907
601.60 0.4904
601.70 0.4901
601.80 0.4897
601.90 0.4894
602.00 0.4891
602.10 0.4888
602.20 0.4885
602.30 0.4882
602.40 0.4879
602.50 0.4876
602.60 0.4872
602.70 0.4869
602.80 0.4866
602.90 0.4863
603.00 0.486
603.10 0.4857
603.20 0.4854
603.30 0.4851
603.40 0.4847
603.50 0.4844
603.60 0.4841
603.70 0.4838
603.80 0.4835
603.90 0.4832
604.00 0.4829
604.10 0.4826
604.20 0.4823
604.30 0.482
604.40 0.4817
604.50 0.4813
604.60 0.481
604.70 0.4807
604.80 0.4804
604.90 0.4801
605.00 0.4798
605.10 0.4795
605.20 0.4792
605.30 0.4789
605.40 0.4786
605.50 0.4783
605.60 0.478
605.70 0.4777
605.80 0.4774
605.90 0.4771
606.00 0.4768
606.10 0.4765
606.20 0.4762
606.30 0.4759
606.40 0.4755
606.50 0.4752
606.60 0.4749
606.70 0.4746
606.80 0.4743
606.90 0.474
607.00 0.4737
607.10 0.4734
607.20 0.4731
607.30 0.4728
607.40 0.4725
607.50 0.4722
607.60 0.4719
607.70 0.4716
607.80 0.4713
607.90 0.471
608.00 0.4707
608.10 0.4704
608.20 0.4701
608.30 0.4698
608.40 0.4695
608.50 0.4692
608.60 0.4689
608.70 0.4686
608.80 0.4683
608.90 0.4681
609.00 0.4678
609.10 0.4675
609.20 0.4672
609.30 0.4669
609.40 0.4666
609.50 0.4663
609.60 0.466
609.70 0.4657
609.80 0.4654
609.90 0.4651
610.00 0.4648
610.10 0.4645
610.20 0.4642
610.30 0.4639
610.40 0.4636
610.50 0.4633
610.60 0.463
610.70 0.4627
610.80 0.4625
610.90 0.4622
611.00 0.4619
611.10 0.4616
611.20 0.4613
611.30 0.461
611.40 0.4607
611.50 0.4604
611.60 0.4601
611.70 0.4598
611.80 0.4595
611.90 0.4592
612.00 0.459
612.10 0.4587
612.20 0.4584
612.30 0.4581
612.40 0.4578
612.50 0.4575
612.60 0.4572
612.70 0.4569
612.80 0.4566
612.90 0.4564
613.00 0.4561
613.10 0.4558
613.20 0.4555
613.30 0.4552
613.40 0.4549
613.50 0.4546
613.60 0.4543
613.70 0.4541
613.80 0.4538
613.90 0.4535
614.00 0.4532
614.10 0.4529
614.20 0.4526
614.30 0.4524
614.40 0.4521
614.50 0.4518
614.60 0.4515
614.70 0.4512
614.80 0.4509
614.90 0.4506
615.00 0.4504
615.10 0.4501
615.20 0.4498
615.30 0.4495
615.40 0.4492
615.50 0.449
615.60 0.4487
615.70 0.4484
615.80 0.4481
615.90 0.4478
616.00 0.4475
616.10 0.4473
616.20 0.447
616.30 0.4467
616.40 0.4464
616.50 0.4461
616.60 0.4459
616.70 0.4456
616.80 0.4453
616.90 0.445
617.00 0.4447
617.10 0.4445
617.20 0.4442
617.30 0.4439
617.40 0.4436
617.50 0.4434
617.60 0.4431
617.70 0.4428
617.80 0.4425
617.90 0.4423
618.00 0.442
618.10 0.4417
618.20 0.4414
618.30 0.4411
618.40 0.4409
618.50 0.4406
618.60 0.4403
618.70 0.44
618.80 0.4398
618.90 0.4395
619.00 0.4392
619.10 0.4389
619.20 0.4387
619.30 0.4384
619.40 0.4381
619.50 0.4379
619.60 0.4376
619.70 0.4373
619.80 0.437
619.90 0.4368
620.00 0.4365
620.10 0.4362
620.20 0.4359
620.30 0.4357
620.40 0.4354
620.50 0.4351
620.60 0.4349
620.70 0.4346
620.80 0.4343
620.90 0.434
621.00 0.4338
621.10 0.4335
621.20 0.4332
621.30 0.433
621.40 0.4327
621.50 0.4324
621.60 0.4322
621.70 0.4319
621.80 0.4316
621.90 0.4314
622.00 0.4311
622.10 0.4308
622.20 0.4306
622.30 0.4303
622.40 0.43
622.50 0.4298
622.60 0.4295
622.70 0.4292
622.80 0.429
622.90 0.4287
623.00 0.4284
623.10 0.4282
623.20 0.4279
623.30 0.4276
623.40 0.4274
623.50 0.4271
623.60 0.4268
623.70 0.4266
623.80 0.4263
623.90 0.426
624.00 0.4258
624.10 0.4255
624.20 0.4252
624.30 0.425
624.40 0.4247
624.50 0.4245
624.60 0.4242
624.70 0.4239
624.80 0.4237
624.90 0.4234
625.00 0.4231
625.10 0.4229
625.20 0.4226
625.30 0.4224
625.40 0.4221
625.50 0.4218
625.60 0.4216
625.70 0.4213
625.80 0.4211
625.90 0.4208
626.00 0.4205
626.10 0.4203
626.20 0.42
626.30 0.4198
626.40 0.4195
626.50 0.4192
626.60 0.419
626.70 0.4187
626.80 0.4185
626.90 0.4182
627.00 0.4179
627.10 0.4177
627.20 0.4174
627.30 0.4172
627.40 0.4169
627.50 0.4167
627.60 0.4164
627.70 0.4161
627.80 0.4159
627.90 0.4156
628.00 0.4154
628.10 0.4151
628.20 0.4149
628.30 0.4146
628.40 0.4144
628.50 0.4141
628.60 0.4138
628.70 0.4136
628.80 0.4133
628.90 0.4131
629.00 0.4128
629.10 0.4126
629.20 0.4123
629.30 0.4121
629.40 0.4118
629.50 0.4116
629.60 0.4113
629.70 0.4111
629.80 0.4108
629.90 0.4105
630.00 0.4103
630.10 0.41
630.20 0.4098
630.30 0.4095
630.40 0.4093
630.50 0.409
630.60 0.4088
630.70 0.4085
630.80 0.4083
630.90 0.408
631.00 0.4078
631.10 0.4075
631.20 0.4073
631.30 0.407
631.40 0.4068
631.50 0.4065
631.60 0.4063
631.70 0.406
631.80 0.4058
631.90 0.4055
632.00 0.4053
632.10 0.405
632.20 0.4048
632.30 0.4046
632.40 0.4043
632.50 0.4041
632.60 0.4038
632.70 0.4036
632.80 0.4033
632.90 0.4031
633.00 0.4028
633.10 0.4026
633.20 0.4023
633.30 0.4021
633.40 0.4018
633.50 0.4016
633.60 0.4013
633.70 0.4011
633.80 0.4009
633.90 0.4006
634.00 0.4004
634.10 0.4001
634.20 0.3999
634.30 0.3996
634.40 0.3994
634.50 0.3991
634.60 0.3989
634.70 0.3987
634.80 0.3984
634.90 0.3982
635.00 0.3979
635.10 0.3977
635.20 0.3974
635.30 0.3972
635.40 0.397
635.50 0.3967
635.60 0.3965
635.70 0.3962
635.80 0.396
635.90 0.3958
636.00 0.3955
636.10 0.3953
636.20 0.395
636.30 0.3948
636.40 0.3945
636.50 0.3943
636.60 0.3941
636.70 0.3938
636.80 0.3936
636.90 0.3934
637.00 0.3931
637.10 0.3929
637.20 0.3926
637.30 0.3924
637.40 0.3922
637.50 0.3919
637.60 0.3917
637.70 0.3914
637.80 0.3912
637.90 0.391
638.00 0.3907
638.10 0.3905
638.20 0.3903
638.30 0.39
638.40 0.3898
638.50 0.3895
638.60 0.3893
638.70 0.3891
638.80 0.3888
638.90 0.3886
639.00 0.3884
639.10 0.3881
639.20 0.3879
639.30 0.3877
639.40 0.3874
639.50 0.3872
639.60 0.3869
639.70 0.3867
639.80 0.3865
639.90 0.3862
640.00 0.386
640.10 0.3858
640.20 0.3855
640.30 0.3853
640.40 0.3851
640.50 0.3848
640.60 0.3846
640.70 0.3844
640.80 0.3841
640.90 0.3839
641.00 0.3837
641.10 0.3834
641.20 0.3832
641.30 0.383
641.40 0.3827
641.50 0.3825
641.60 0.3823
641.70 0.382
641.80 0.3818
641.90 0.3816
642.00 0.3814
642.10 0.3811
642.20 0.3809
642.30 0.3807
642.40 0.3804
642.50 0.3802
642.60 0.38
642.70 0.3797
642.80 0.3795
642.90 0.3793
643.00 0.379
643.10 0.3788
643.20 0.3786
643.30 0.3784
643.40 0.3781
643.50 0.3779
643.60 0.3777
643.70 0.3774
643.80 0.3772
643.90 0.377
644.00 0.3768
644.10 0.3765
644.20 0.3763
644.30 0.3761
644.40 0.3758
644.50 0.3756
644.60 0.3754
644.70 0.3752
644.80 0.3749
644.90 0.3747
645.00 0.3745
645.10 0.3742
645.20 0.374
645.30 0.3738
645.40 0.3736
645.50 0.3733
645.60 0.3731
645.70 0.3729
645.80 0.3726
645.90 0.3724
646.00 0.3722
646.10 0.372
646.20 0.3717
646.30 0.3715
646.40 0.3713
646.50 0.3711
646.60 0.3708
646.70 0.3706
646.80 0.3704
646.90 0.3701
647.00 0.3699
647.10 0.3697
647.20 0.3695
647.30 0.3692
647.40 0.369
647.50 0.3688
647.60 0.3685
647.70 0.3683
647.80 0.3681
647.90 0.3679
648.00 0.3676
648.10 0.3674
648.20 0.3672
648.30 0.367
648.40 0.3667
648.50 0.3665
648.60 0.3663
648.70 0.366
648.80 0.3658
648.90 0.3656
649.00 0.3653
649.10 0.3651
649.20 0.3649
649.30 0.3646
649.40 0.3644
649.50 0.3642
649.60 0.3639
649.70 0.3637
649.80 0.3635
649.90 0.3632
650.00 0.363
650.10 0.3628
650.20 0.3625
650.30 0.3623
650.40 0.362
650.50 0.3618
650.60 0.3615
650.70 0.3613
650.80 0.361
650.90 0.3608
651.00 0.3605
651.10 0.3603
651.20 0.36
651.30 0.3598
651.40 0.3595
651.50 0.3592
651.60 0.359
651.70 0.3587
651.80 0.3584
651.90 0.3581
652.00 0.3578
652.10 0.3576
652.20 0.3573
652.30 0.357
652.40 0.3567
652.50 0.3563
652.60 0.356
652.70 0.3556
652.80 0.3553
652.90 0.3549
653.00 0.3546
653.10 0.3542
653.20 0.3539
653.30 0.3535
653.40 0.353
653.50 0.3524
653.60 0.3519
653.70 0.3513
653.80 0.3508
653.90 0.3502
654.00 0.3497
654.10 0.3491
654.20 0.3486
654.30 0.3479
654.40 0.347
654.50 0.346
654.60 0.3451
654.70 0.3441
654.80 0.343
654.90 0.3414
655.00 0.3398
655.10 0.3382
655.20 0.3366
655.30 0.3348
655.40 0.3323
655.50 0.3296
655.60 0.3262
655.70 0.3225
655.80 0.3172
655.90 0.3108
656.00 0.2995
656.10 0.2868
656.20 0.2772
656.30 0.2926
656.40 0.2757
656.50 0.2915
656.60 0.3026
656.70 0.3124
656.80 0.3173
656.90 0.3218
657.00 0.3248
657.10 0.3276
657.20 0.3297
657.30 0.3316
657.40 0.3328
657.50 0.334
657.60 0.3352
657.70 0.3364
657.80 0.3375
657.90 0.338
658.00 0.3386
658.10 0.3391
658.20 0.3397
658.30 0.3401
658.40 0.3402
658.50 0.3404
658.60 0.3405
658.70 0.3406
658.80 0.3408
658.90 0.3409
659.00 0.341
659.10 0.3412
659.20 0.3413
659.30 0.3414
659.40 0.3413
659.50 0.3412
659.60 0.3412
659.70 0.3411
659.80 0.341
659.90 0.341
660.00 0.3409
660.10 0.3408
660.20 0.3407
660.30 0.3407
660.40 0.3405
660.50 0.3404
660.60 0.3402
660.70 0.3401
660.80 0.34
660.90 0.3398
661.00 0.3397
661.10 0.3395
661.20 0.3394
661.30 0.3393
661.40 0.3391
661.50 0.3389
661.60 0.3388
661.70 0.3386
661.80 0.3384
661.90 0.3382
662.00 0.3381
662.10 0.3379
662.20 0.3377
662.30 0.3376
662.40 0.3374
662.50 0.3372
662.60 0.337
662.70 0.3369
662.80 0.3367
662.90 0.3365
663.00 0.3363
663.10 0.3361
663.20 0.336
663.30 0.3358
663.40 0.3356
663.50 0.3354
663.60 0.3352
663.70 0.3351
663.80 0.3349
663.90 0.3347
664.00 0.3345
664.10 0.3343
664.20 0.3341
664.30 0.3339
664.40 0.3338
664.50 0.3336
664.60 0.3334
664.70 0.3332
664.80 0.333
664.90 0.3328
665.00 0.3326
665.10 0.3325
665.20 0.3323
665.30 0.3321
665.40 0.3319
665.50 0.3317
665.60 0.3315
665.70 0.3313
665.80 0.3311
665.90 0.331
666.00 0.3308
666.10 0.3306
666.20 0.3304
666.30 0.3302
666.40 0.33
666.50 0.3298
666.60 0.3296
666.70 0.3295
666.80 0.3293
666.90 0.3291
667.00 0.3289
667.10 0.3287
667.20 0.3285
667.30 0.3283
667.40 0.3281
667.50 0.328
667.60 0.3278
667.70 0.3276
667.80 0.3274
667.90 0.3272
668.00 0.327
668.10 0.3268
668.20 0.3266
668.30 0.3265
668.40 0.3263
668.50 0.3261
668.60 0.3259
668.70 0.3257
668.80 0.3255
668.90 0.3253
669.00 0.3252
669.10 0.325
669.20 0.3248
669.30 0.3246
669.40 0.3244
669.50 0.3242
669.60 0.324
669.70 0.3238
669.80 0.3237
669.90 0.3235
670.00 0.3233
670.10 0.3231
670.20 0.3229
670.30 0.3227
670.40 0.3226
670.50 0.3224
670.60 0.3222
670.70 0.322
670.80 0.3218
670.90 0.3216
671.00 0.3214
671.10 0.3213
671.20 0.3211
671.30 0.3209
671.40 0.3207
671.50 0.3205
671.60 0.3203
671.70 0.3202
671.80 0.32
671.90 0.3198
672.00 0.3196
672.10 0.3194
672.20 0.3192
672.30 0.3191
672.40 0.3189
672.50 0.3187
672.60 0.3185
672.70 0.3183
672.80 0.3181
672.90 0.318
673.00 0.3178
673.10 0.3176
673.20 0.3174
673.30 0.3172
673.40 0.3171
673.50 0.3169
673.60 0.3167
673.70 0.3165
673.80 0.3163
673.90 0.3161
674.00 0.316
674.10 0.3158
674.20 0.3156
674.30 0.3154
674.40 0.3152
674.50 0.3151
674.60 0.3149
674.70 0.3147
674.80 0.3145
674.90 0.3143
675.00 0.3142
675.10 0.314
675.20 0.3138
675.30 0.3136
675.40 0.3134
675.50 0.3133
675.60 0.3131
675.70 0.3129
675.80 0.3127
675.90 0.3125
676.00 0.3124
676.10 0.3122
676.20 0.312
676.30 0.3118
676.40 0.3117
676.50 0.3115
676.60 0.3113
676.70 0.3111
676.80 0.3109
676.90 0.3108
677.00 0.3106
677.10 0.3104
677.20 0.3102
677.30 0.3101
677.40 0.3099
677.50 0.3097
677.60 0.3095
677.70 0.3094
677.80 0.3092
677.90 0.309
678.00 0.3088
678.10 0.3086
678.20 0.3085
678.30 0.3083
678.40 0.3081
678.50 0.3079
678.60 0.3078
678.70 0.3076
678.80 0.3074
678.90 0.3072
679.00 0.3071
679.10 0.3069
679.20 0.3067
679.30 0.3065
679.40 0.3064
679.50 0.3062
679.60 0.306
679.70 0.3058
679.80 0.3057
679.90 0.3055
680.00 0.3053
680.10 0.3052
680.20 0.305
680.30 0.3048
680.40 0.3046
680.50 0.3045
680.60 0.3043
680.70 0.3041
680.80 0.3039
680.90 0.3038
681.00 0.3036
681.10 0.3034
681.20 0.3033
681.30 0.3031
681.40 0.3029
681.50 0.3027
681.60 0.3026
681.70 0.3024
681.80 0.3022
681.90 0.302
682.00 0.3019
682.10 0.3017
682.20 0.3015
682.30 0.3014
682.40 0.3012
682.50 0.301
682.60 0.3009
682.70 0.3007
682.80 0.3005
682.90 0.3003
683.00 0.3002
683.10 0.3
683.20 0.2998
683.30 0.2997
683.40 0.2995
683.50 0.2993
683.60 0.2992
683.70 0.299
683.80 0.2988
683.90 0.2986
684.00 0.2985
684.10 0.2983
684.20 0.2981
684.30 0.298
684.40 0.2978
684.50 0.2976
684.60 0.2975
684.70 0.2973
684.80 0.2971
684.90 0.297
685.00 0.2968
685.10 0.2966
685.20 0.2965
685.30 0.2963
685.40 0.2961
685.50 0.296
685.60 0.2958
685.70 0.2956
685.80 0.2955
685.90 0.2953
686.00 0.2951
686.10 0.295
686.20 0.2948
686.30 0.2946
686.40 0.2945
686.50 0.2943
686.60 0.2941
686.70 0.294
686.80 0.2938
686.90 0.2936
687.00 0.2935
687.10 0.2933
687.20 0.2931
687.30 0.293
687.40 0.2928
687.50 0.2926
687.60 0.2925
687.70 0.2923
687.80 0.2921
687.90 0.292
688.00 0.2918
688.10 0.2916
688.20 0.2915
688.30 0.2913
688.40 0.2912
688.50 0.291
688.60 0.2908
688.70 0.2907
688.80 0.2905
688.90 0.2903
689.00 0.2902
689.10 0.29
689.20 0.2899
689.30 0.2897
689.40 0.2895
689.50 0.2894
689.60 0.2892
689.70 0.289
689.80 0.2889
689.90 0.2887
690.00 0.2886
690.10 0.2884
690.20 0.2882
690.30 0.2881
690.40 0.2879
690.50 0.2878
690.60 0.2876
690.70 0.2874
690.80 0.2873
690.90 0.2871
691.00 0.2869
691.10 0.2868
691.20 0.2866
691.30 0.2865
691.40 0.2863
691.50 0.2861
691.60 0.286
691.70 0.2858
691.80 0.2857
691.90 0.2855
692.00 0.2853
692.10 0.2852
692.20 0.285
692.30 0.2849
692.40 0.2847
692.50 0.2846
692.60 0.2844
692.70 0.2842
692.80 0.2841
692.90 0.2839
693.00 0.2838
693.10 0.2836
693.20 0.2834
693.30 0.2833
693.40 0.2831
693.50 0.283
693.60 0.2828
693.70 0.2826
693.80 0.2825
693.90 0.2823
694.00 0.2822
694.10 0.282
694.20 0.2819
694.30 0.2817
694.40 0.2815
694.50 0.2814
694.60 0.2812
694.70 0.2811
694.80 0.2809
694.90 0.2808
695.00 0.2806
695.10 0.2804
695.20 0.2803
695.30 0.2801
695.40 0.28
695.50 0.2798
695.60 0.2797
695.70 0.2795
695.80 0.2794
695.90 0.2792
696.00 0.279
696.10 0.2789
696.20 0.2787
696.30 0.2786
696.40 0.2784
696.50 0.2783
696.60 0.2781
696.70 0.278
696.80 0.2778
696.90 0.2777
697.00 0.2775
697.10 0.2773
697.20 0.2772
697.30 0.277
697.40 0.2769
697.50 0.2767
697.60 0.2766
697.70 0.2764
697.80 0.2763
697.90 0.2761
698.00 0.276
698.10 0.2758
698.20 0.2757
698.30 0.2755
698.40 0.2753
698.50 0.2752
698.60 0.275
698.70 0.2749
698.80 0.2747
698.90 0.2746
699.00 0.2744
699.10 0.2743
699.20 0.2741
699.30 0.274
699.40 0.2738
699.50 0.2737
699.60 0.2735
699.70 0.2734
699.80 0.2732
699.90 0.2731
700.00 0.2729
700.10 0.2728
700.20 0.2726
700.30 0.2725
700.40 0.2723
700.50 0.2722
700.60 0.272
700.70 0.2719
700.80 0.2717
700.90 0.2716
701.00 0.2714
701.10 0.2713
701.20 0.2711
701.30 0.271
701.40 0.2708
701.50 0.2707
701.60 0.2705
701.70 0.2704
701.80 0.2702
701.90 0.2701
702.00 0.2699
702.10 0.2698
702.20 0.2696
702.30 0.2695
702.40 0.2693
702.50 0.2692
702.60 0.269
702.70 0.2689
702.80 0.2687
702.90 0.2686
703.00 0.2684
703.10 0.2683
703.20 0.2681
703.30 0.268
703.40 0.2678
703.50 0.2677
703.60 0.2675
703.70 0.2674
703.80 0.2673
703.90 0.2671
704.00 0.267
704.10 0.2668
704.20 0.2667
704.30 0.2665
704.40 0.2664
704.50 0.2662
704.60 0.2661
704.70 0.2659
704.80 0.2658
704.90 0.2656
705.00 0.2655
705.10 0.2653
705.20 0.2652
705.30 0.2651
705.40 0.2649
705.50 0.2648
705.60 0.2646
705.70 0.2645
705.80 0.2643
705.90 0.2642
706.00 0.264
706.10 0.2639
706.20 0.2637
706.30 0.2636
706.40 0.2635
706.50 0.2633
706.60 0.2632
706.70 0.263
706.80 0.2629
706.90 0.2627
707.00 0.2626
707.10 0.2625
707.20 0.2623
707.30 0.2622
707.40 0.262
707.50 0.2619
707.60 0.2617
707.70 0.2616
707.80 0.2614
707.90 0.2613
708.00 0.2612
708.10 0.261
708.20 0.2609
708.30 0.2607
708.40 0.2606
708.50 0.2604
708.60 0.2603
708.70 0.2602
708.80 0.26
708.90 0.2599
709.00 0.2597
709.10 0.2596
709.20 0.2595
709.30 0.2593
709.40 0.2592
709.50 0.259
709.60 0.2589
709.70 0.2587
709.80 0.2586
709.90 0.2585
710.00 0.2583
710.10 0.2582
710.20 0.258
710.30 0.2579
710.40 0.2578
710.50 0.2576
710.60 0.2575
710.70 0.2573
710.80 0.2572
710.90 0.2571
711.00 0.2569
711.10 0.2568
711.20 0.2566
711.30 0.2565
711.40 0.2564
711.50 0.2562
711.60 0.2561
711.70 0.2559
711.80 0.2558
711.90 0.2557
712.00 0.2555
712.10 0.2554
712.20 0.2552
712.30 0.2551
712.40 0.255
712.50 0.2548
712.60 0.2547
712.70 0.2546
712.80 0.2544
712.90 0.2543
713.00 0.2541
713.10 0.254
713.20 0.2539
713.30 0.2537
713.40 0.2536
713.50 0.2534
713.60 0.2533
713.70 0.2532
713.80 0.253
713.90 0.2529
714.00 0.2528
714.10 0.2526
714.20 0.2525
714.30 0.2523
714.40 0.2522
714.50 0.2521
714.60 0.2519
714.70 0.2518
714.80 0.2517
714.90 0.2515
715.00 0.2514
715.10 0.2512
715.20 0.2511
715.30 0.251
715.40 0.2508
715.50 0.2507
715.60 0.2506
715.70 0.2504
715.80 0.2503
715.90 0.2502
716.00 0.25
716.10 0.2499
716.20 0.2498
716.30 0.2496
716.40 0.2495
716.50 0.2494
716.60 0.2492
716.70 0.2491
716.80 0.249
716.90 0.2488
717.00 0.2487
717.10 0.2485
717.20 0.2484
717.30 0.2483
717.40 0.2481
717.50 0.248
717.60 0.2479
717.70 0.2477
717.80 0.2476
717.90 0.2475
718.00 0.2473
718.10 0.2472
718.20 0.2471
718.30 0.2469
718.40 0.2468
718.50 0.2467
718.60 0.2465
718.70 0.2464
718.80 0.2463
718.90 0.2461
719.00 0.246
719.10 0.2459
719.20 0.2457
719.30 0.2456
719.40 0.2455
719.50 0.2453
719.60 0.2452
719.70 0.2451
719.80 0.2449
719.90 0.2448
720.00 0.2447
720.10 0.2446
720.20 0.2444
720.30 0.2443
720.40 0.2442
720.50 0.244
720.60 0.2439
720.70 0.2438
720.80 0.2436
720.90 0.2435
721.00 0.2434
721.10 0.2432
721.20 0.2431
721.30 0.243
721.40 0.2429
721.50 0.2427
721.60 0.2426
721.70 0.2425
721.80 0.2423
721.90 0.2422
722.00 0.2421
722.10 0.2419
722.20 0.2418
722.30 0.2417
722.40 0.2416
722.50 0.2414
722.60 0.2413
722.70 0.2412
722.80 0.241
722.90 0.2409
723.00 0.2408
723.10 0.2406
723.20 0.2405
723.30 0.2404
723.40 0.2403
723.50 0.2401
723.60 0.24
723.70 0.2399
723.80 0.2397
723.90 0.2396
724.00 0.2395
724.10 0.2394
724.20 0.2392
724.30 0.2391
724.40 0.239
724.50 0.2388
724.60 0.2387
724.70 0.2386
724.80 0.2385
724.90 0.2383
725.00 0.2382
725.10 0.2381
725.20 0.238
725.30 0.2378
725.40 0.2377
725.50 0.2376
725.60 0.2374
725.70 0.2373
725.80 0.2372
725.90 0.2371
726.00 0.2369
726.10 0.2368
726.20 0.2367
726.30 0.2366
726.40 0.2364
726.50 0.2363
726.60 0.2362
726.70 0.2361
726.80 0.2359
726.90 0.2358
727.00 0.2357
727.10 0.2356
727.20 0.2354
727.30 0.2353
727.40 0.2352
727.50 0.2351
727.60 0.2349
727.70 0.2348
727.80 0.2347
727.90 0.2346
728.00 0.2344
728.10 0.2343
728.20 0.2342
728.30 0.2341
728.40 0.2339
728.50 0.2338
728.60 0.2337
728.70 0.2336
728.80 0.2334
728.90 0.2333
729.00 0.2332
729.10 0.2331
729.20 0.2329
729.30 0.2328
729.40 0.2327
729.50 0.2326
729.60 0.2324
729.70 0.2323
729.80 0.2322
729.90 0.2321
730.00 0.2319
730.10 0.2318
730.20 0.2317
730.30 0.2316
730.40 0.2315
730.50 0.2313
730.60 0.2312
730.70 0.2311
730.80 0.231
730.90 0.2308
731.00 0.2307
731.10 0.2306
731.20 0.2305
731.30 0.2304
731.40 0.2302
731.50 0.2301
731.60 0.23
731.70 0.2299
731.80 0.2298
731.90 0.2296
732.00 0.2295
732.10 0.2294
732.20 0.2293
732.30 0.2291
732.40 0.229
732.50 0.2289
732.60 0.2288
732.70 0.2287
732.80 0.2285
732.90 0.2284
733.00 0.2283
733.10 0.2282
733.20 0.2281
733.30 0.2279
733.40 0.2278
733.50 0.2277
733.60 0.2276
733.70 0.2275
733.80 0.2273
733.90 0.2272
734.00 0.2271
734.10 0.227
734.20 0.2269
734.30 0.2267
734.40 0.2266
734.50 0.2265
734.60 0.2264
734.70 0.2263
734.80 0.2261
734.90 0.226
735.00 0.2259
735.10 0.2258
735.20 0.2257
735.30 0.2256
735.40 0.2254
735.50 0.2253
735.60 0.2252
735.70 0.2251
735.80 0.225
735.90 0.2248
736.00 0.2247
736.10 0.2246
736.20 0.2245
736.30 0.2244
736.40 0.2242
736.50 0.2241
736.60 0.224
736.70 0.2239
736.80 0.2238
736.90 0.2237
737.00 0.2235
737.10 0.2234
737.20 0.2233
737.30 0.2232
737.40 0.2231
737.50 0.2229
737.60 0.2228
737.70 0.2227
737.80 0.2226
737.90 0.2225
738.00 0.2224
738.10 0.2222
738.20 0.2221
738.30 0.222
738.40 0.2219
738.50 0.2218
738.60 0.2217
738.70 0.2215
738.80 0.2214
738.90 0.2213
739.00 0.2212
739.10 0.2211
739.20 0.221
739.30 0.2208
739.40 0.2207
739.50 0.2206
739.60 0.2205
739.70 0.2204
739.80 0.2203
739.90 0.2201
740.00 0.22
740.10 0.2199
740.20 0.2198
740.30 0.2197
740.40 0.2196
740.50 0.2194
740.60 0.2193
740.70 0.2192
740.80 0.2191
740.90 0.219
741.00 0.2189
741.10 0.2188
741.20 0.2187
741.30 0.2185
741.40 0.2184
741.50 0.2183
741.60 0.2182
741.70 0.2181
741.80 0.218
741.90 0.2179
742.00 0.2177
742.10 0.2176
742.20 0.2175
742.30 0.2174
742.40 0.2173
742.50 0.2172
742.60 0.2171
742.70 0.217
742.80 0.2168
742.90 0.2167
743.00 0.2166
743.10 0.2165
743.20 0.2164
743.30 0.2163
743.40 0.2162
743.50 0.2161
743.60 0.2159
743.70 0.2158
743.80 0.2157
743.90 0.2156
744.00 0.2155
744.10 0.2154
744.20 0.2153
744.30 0.2152
744.40 0.215
744.50 0.2149
744.60 0.2148
744.70 0.2147
744.80 0.2146
744.90 0.2145
745.00 0.2144
745.10 0.2143
745.20 0.2141
745.30 0.214
745.40 0.2139
745.50 0.2138
745.60 0.2137
745.70 0.2136
745.80 0.2135
745.90 0.2134
746.00 0.2133
746.10 0.2131
746.20 0.213
746.30 0.2129
746.40 0.2128
746.50 0.2127
746.60 0.2126
746.70 0.2125
746.80 0.2124
746.90 0.2123
747.00 0.2121
747.10 0.212
747.20 0.2119
747.30 0.2118
747.40 0.2117
747.50 0.2116
747.60 0.2115
747.70 0.2114
747.80 0.2113
747.90 0.2112
748.00 0.211
748.10 0.2109
748.20 0.2108
748.30 0.2107
748.40 0.2106
748.50 0.2105
748.60 0.2104
748.70 0.2103
748.80 0.2102
748.90 0.2101
749.00 0.2099
749.10 0.2098
749.20 0.2097
749.30 0.2096
749.40 0.2095
749.50 0.2094
749.60 0.2093
749.70 0.2092
749.80 0.2091
749.90 0.209
750.00 0.2089
750.10 0.2087
750.20 0.2086
750.30 0.2085
750.40 0.2084
750.50 0.2083
750.60 0.2082
750.70 0.2081
750.80 0.208
750.90 0.2079
751.00 0.2078
751.10 0.2077
751.20 0.2076
751.30 0.2075
751.40 0.2074
751.50 0.2073
751.60 0.2071
751.70 0.207
751.80 0.2069
751.90 0.2068
752.00 0.2067
752.10 0.2066
752.20 0.2065
752.30 0.2064
752.40 0.2063
752.50 0.2062
752.60 0.2061
752.70 0.206
752.80 0.2059
752.90 0.2058
753.00 0.2057
753.10 0.2056
753.20 0.2055
753.30 0.2053
753.40 0.2052
753.50 0.2051
753.60 0.205
753.70 0.2049
753.80 0.2048
753.90 0.2047
754.00 0.2046
754.10 0.2045
754.20 0.2044
754.30 0.2043
754.40 0.2042
754.50 0.2041
754.60 0.204
754.70 0.2039
754.80 0.2038
754.90 0.2037
755.00 0.2036
755.10 0.2035
755.20 0.2034
755.30 0.2032
755.40 0.2031
755.50 0.203
755.60 0.2029
755.70 0.2028
755.80 0.2027
755.90 0.2026
756.00 0.2025
756.10 0.2024
756.20 0.2023
756.30 0.2022
756.40 0.2021
756.50 0.202
756.60 0.2019
756.70 0.2018
756.80 0.2017
756.90 0.2016
757.00 0.2015
757.10 0.2014
757.20 0.2013
757.30 0.2012
757.40 0.2011
757.50 0.201
757.60 0.2009
757.70 0.2008
757.80 0.2007
757.90 0.2005
758.00 0.2004
758.10 0.2003
758.20 0.2002
758.30 0.2001
758.40 0.2
758.50 0.1999
758.60 0.1998
758.70 0.1997
758.80 0.1996
758.90 0.1995
759.00 0.1994
759.10 0.1993
759.20 0.1992
759.30 0.1991
759.40 0.199
759.50 0.1989
759.60 0.1988
759.70 0.1987
759.80 0.1986
759.90 0.1985
760.00 0.1984
760.10 0.1983
760.20 0.1982
760.30 0.1981
760.40 0.198
760.50 0.1979
760.60 0.1978
760.70 0.1977
760.80 0.1976
760.90 0.1975
761.00 0.1974
761.10 0.1973
761.20 0.1972
761.30 0.1971
761.40 0.197
761.50 0.1969
761.60 0.1968
761.70 0.1967
761.80 0.1966
761.90 0.1965
762.00 0.1964
762.10 0.1963
762.20 0.1962
762.30 0.1961
762.40 0.196
762.50 0.1959
762.60 0.1958
762.70 0.1957
762.80 0.1956
762.90 0.1955
763.00 0.1954
763.10 0.1953
763.20 0.1952
763.30 0.1951
763.40 0.195
763.50 0.1949
763.60 0.1948
763.70 0.1947
763.80 0.1946
763.90 0.1945
764.00 0.1944
764.10 0.1943
764.20 0.1942
764.30 0.1941
764.40 0.194
764.50 0.1939
764.60 0.1938
764.70 0.1937
764.80 0.1936
764.90 0.1935
765.00 0.1934
765.10 0.1933
765.20 0.1932
765.30 0.1931
765.40 0.193
765.50 0.1929
765.60 0.1928
765.70 0.1927
765.80 0.1926
765.90 0.1925
766.00 0.1924
766.10 0.1923
766.20 0.1923
766.30 0.1922
766.40 0.1921
766.50 0.192
766.60 0.1919
766.70 0.1918
766.80 0.1917
766.90 0.1916
767.00 0.1915
767.10 0.1914
767.20 0.1913
767.30 0.1912
767.40 0.1911
767.50 0.191
767.60 0.1909
767.70 0.1908
767.80 0.1907
767.90 0.1906
768.00 0.1905
768.10 0.1904
768.20 0.1903
768.30 0.1902
768.40 0.1901
768.50 0.19
768.60 0.1899
768.70 0.1898
768.80 0.1897
768.90 0.1896
769.00 0.1895
769.10 0.1894
769.20 0.1893
769.30 0.1892
769.40 0.1892
769.50 0.1891
769.60 0.189
769.70 0.1889
769.80 0.1888
769.90 0.1887
770.00 0.1886
770.10 0.1885
770.20 0.1884
770.30 0.1883
770.40 0.1882
770.50 0.1881
770.60 0.188
770.70 0.1879
770.80 0.1878
770.90 0.1877
771.00 0.1876
771.10 0.1875
771.20 0.1874
771.30 0.1874
771.40 0.1873
771.50 0.1872
771.60 0.1871
771.70 0.187
771.80 0.1869
771.90 0.1868
772.00 0.1867
772.10 0.1866
772.20 0.1865
772.30 0.1864
772.40 0.1863
772.50 0.1862
772.60 0.1861
772.70 0.186
772.80 0.186
772.90 0.1859
773.00 0.1858
773.10 0.1857
773.20 0.1856
773.30 0.1855
773.40 0.1854
773.50 0.1853
773.60 0.1852
773.70 0.1851
773.80 0.185
773.90 0.1849
774.00 0.1848
774.10 0.1847
774.20 0.1847
774.30 0.1846
774.40 0.1845
774.50 0.1844
774.60 0.1843
774.70 0.1842
774.80 0.1841
774.90 0.184
775.00 0.1839
775.10 0.1838
775.20 0.1837
775.30 0.1836
775.40 0.1835
775.50 0.1835
775.60 0.1834
775.70 0.1833
775.80 0.1832
775.90 0.1831
776.00 0.183
776.10 0.1829
776.20 0.1828
776.30 0.1827
776.40 0.1826
776.50 0.1825
776.60 0.1824
776.70 0.1824
776.80 0.1823
776.90 0.1822
777.00 0.1821
777.10 0.182
777.20 0.1819
777.30 0.1818
777.40 0.1817
777.50 0.1816
777.60 0.1815
777.70 0.1814
777.80 0.1814
777.90 0.1813
778.00 0.1812
778.10 0.1811
778.20 0.181
778.30 0.1809
778.40 0.1808
778.50 0.1807
778.60 0.1806
778.70 0.1805
778.80 0.1804
778.90 0.1804
779.00 0.1803
779.10 0.1802
779.20 0.1801
779.30 0.18
779.40 0.1799
779.50 0.1798
779.60 0.1797
779.70 0.1796
779.80 0.1795
779.90 0.1794
780.00 0.1794
780.10 0.1793
780.20 0.1792
780.30 0.1791
780.40 0.179
780.50 0.1789
780.60 0.1788
780.70 0.1787
780.80 0.1787
780.90 0.1786
781.00 0.1785
781.10 0.1784
781.20 0.1783
781.30 0.1782
781.40 0.1781
781.50 0.178
781.60 0.1779
781.70 0.1779
781.80 0.1778
781.90 0.1777
782.00 0.1776
782.10 0.1775
782.20 0.1774
782.30 0.1773
782.40 0.1772
782.50 0.1772
782.60 0.1771
782.70 0.177
782.80 0.1769
782.90 0.1768
783.00 0.1767
783.10 0.1766
783.20 0.1765
783.30 0.1765
783.40 0.1764
783.50 0.1763
783.60 0.1762
783.70 0.1761
783.80 0.176
783.90 0.1759
784.00 0.1759
784.10 0.1758
784.20 0.1757
784.30 0.1756
784.40 0.1755
784.50 0.1754
784.60 0.1753
784.70 0.1752
784.80 0.1752
784.90 0.1751
785.00 0.175
785.10 0.1749
785.20 0.1748
785.30 0.1747
785.40 0.1746
785.50 0.1746
785.60 0.1745
785.70 0.1744
785.80 0.1743
785.90 0.1742
786.00 0.1741
786.10 0.174
786.20 0.1739
786.30 0.1739
786.40 0.1738
786.50 0.1737
786.60 0.1736
786.70 0.1735
786.80 0.1734
786.90 0.1733
787.00 0.1733
787.10 0.1732
787.20 0.1731
787.30 0.173
787.40 0.1729
787.50 0.1728
787.60 0.1727
787.70 0.1727
787.80 0.1726
787.90 0.1725
788.00 0.1724
788.10 0.1723
788.20 0.1722
788.30 0.1721
788.40 0.1721
788.50 0.172
788.60 0.1719
788.70 0.1718
788.80 0.1717
788.90 0.1716
789.00 0.1716
789.10 0.1715
789.20 0.1714
789.30 0.1713
789.40 0.1712
789.50 0.1711
789.60 0.171
789.70 0.171
789.80 0.1709
789.90 0.1708
790.00 0.1707
790.10 0.1706
790.20 0.1705
790.30 0.1705
790.40 0.1704
790.50 0.1703
790.60 0.1702
790.70 0.1701
790.80 0.17
790.90 0.17
791.00 0.1699
791.10 0.1698
791.20 0.1697
791.30 0.1696
791.40 0.1695
791.50 0.1695
791.60 0.1694
791.70 0.1693
791.80 0.1692
791.90 0.1691
792.00 0.169
792.10 0.169
792.20 0.1689
792.30 0.1688
792.40 0.1687
792.50 0.1686
792.60 0.1686
792.70 0.1685
792.80 0.1684
792.90 0.1683
793.00 0.1682
793.10 0.1681
793.20 0.1681
793.30 0.168
793.40 0.1679
793.50 0.1678
793.60 0.1677
793.70 0.1676
793.80 0.1676
793.90 0.1675
794.00 0.1674
794.10 0.1673
794.20 0.1672
794.30 0.1672
794.40 0.1671
794.50 0.167
794.60 0.1669
794.70 0.1668
794.80 0.1668
794.90 0.1667
795.00 0.1666
795.10 0.1665
795.20 0.1664
795.30 0.1663
795.40 0.1663
795.50 0.1662
795.60 0.1661
795.70 0.166
795.80 0.1659
795.90 0.1659
796.00 0.1658
796.10 0.1657
796.20 0.1656
796.30 0.1655
796.40 0.1655
796.50 0.1654
796.60 0.1653
796.70 0.1652
796.80 0.1651
796.90 0.165
797.00 0.165
797.10 0.1649
797.20 0.1648
797.30 0.1647
797.40 0.1646
797.50 0.1646
797.60 0.1645
797.70 0.1644
797.80 0.1643
797.90 0.1642
798.00 0.1642
798.10 0.1641
798.20 0.164
798.30 0.1639
798.40 0.1638
798.50 0.1638
798.60 0.1637
798.70 0.1636
798.80 0.1635
798.90 0.1634
799.00 0.1634
799.10 0.1633
799.20 0.1632
799.30 0.1631
799.40 0.163
799.50 0.163
799.60 0.1629
799.70 0.1628
799.80 0.1627
799.90 0.1626
800.00 0.1626
800.10 0.1625
800.20 0.1624
800.30 0.1623
800.40 0.1622
800.50 0.1622
800.60 0.1621
800.70 0.162
800.80 0.1619
800.90 0.1619
801.00 0.1618
801.10 0.1617
801.20 0.1616
801.30 0.1615
801.40 0.1615
801.50 0.1614
801.60 0.1613
801.70 0.1612
801.80 0.1612
801.90 0.1611
802.00 0.161
802.10 0.1609
802.20 0.1608
802.30 0.1608
802.40 0.1607
802.50 0.1606
802.60 0.1605
802.70 0.1605
802.80 0.1604
802.90 0.1603
803.00 0.1602
803.10 0.1602
803.20 0.1601
803.30 0.16
803.40 0.1599
803.50 0.1598
803.60 0.1598
803.70 0.1597
803.80 0.1596
803.90 0.1595
804.00 0.1595
804.10 0.1594
804.20 0.1593
804.30 0.1592
804.40 0.1592
804.50 0.1591
804.60 0.159
804.70 0.1589
804.80 0.1588
804.90 0.1588
805.00 0.1587
805.10 0.1586
805.20 0.1585
805.30 0.1585
805.40 0.1584
805.50 0.1583
805.60 0.1582
805.70 0.1582
805.80 0.1581
805.90 0.158
806.00 0.1579
806.10 0.1578
806.20 0.1578
806.30 0.1577
806.40 0.1576
806.50 0.1575
806.60 0.1575
806.70 0.1574
806.80 0.1573
806.90 0.1572
807.00 0.1572
807.10 0.1571
807.20 0.157
807.30 0.1569
807.40 0.1569
807.50 0.1568
807.60 0.1567
807.70 0.1566
807.80 0.1566
807.90 0.1565
808.00 0.1564
808.10 0.1563
808.20 0.1563
808.30 0.1562
808.40 0.1561
808.50 0.156
808.60 0.156
808.70 0.1559
808.80 0.1558
808.90 0.1557
809.00 0.1557
809.10 0.1556
809.20 0.1555
809.30 0.1554
809.40 0.1554
809.50 0.1553
809.60 0.1552
809.70 0.1551
809.80 0.1551
809.90 0.155
810.00 0.1549
810.10 0.1548
810.20 0.1548
810.30 0.1547
810.40 0.1546
810.50 0.1545
810.60 0.1545
810.70 0.1544
810.80 0.1543
810.90 0.1542
811.00 0.1542
811.10 0.1541
811.20 0.154
811.30 0.1539
811.40 0.1539
811.50 0.1538
811.60 0.1537
811.70 0.1537
811.80 0.1536
811.90 0.1535
812.00 0.1534
812.10 0.1534
812.20 0.1533
812.30 0.1532
812.40 0.1531
812.50 0.1531
812.60 0.153
812.70 0.1529
812.80 0.1529
812.90 0.1528
813.00 0.1527
813.10 0.1526
813.20 0.1526
813.30 0.1525
813.40 0.1524
813.50 0.1523
813.60 0.1523
813.70 0.1522
813.80 0.1521
813.90 0.1521
814.00 0.152
814.10 0.1519
814.20 0.1518
814.30 0.1518
814.40 0.1517
814.50 0.1516
814.60 0.1515
814.70 0.1515
814.80 0.1514
814.90 0.1513
815.00 0.1513
815.10 0.1512
815.20 0.1511
815.30 0.151
815.40 0.151
815.50 0.1509
815.60 0.1508
815.70 0.1508
815.80 0.1507
815.90 0.1506
816.00 0.1505
816.10 0.1505
816.20 0.1504
816.30 0.1503
816.40 0.1502
816.50 0.1502
816.60 0.1501
816.70 0.15
816.80 0.15
816.90 0.1499
817.00 0.1498
817.10 0.1497
817.20 0.1497
817.30 0.1496
817.40 0.1495
817.50 0.1495
817.60 0.1494
817.70 0.1493
817.80 0.1492
817.90 0.1492
818.00 0.1491
818.10 0.149
818.20 0.149
818.30 0.1489
818.40 0.1488
818.50 0.1488
818.60 0.1487
818.70 0.1486
818.80 0.1485
818.90 0.1485
819.00 0.1484
819.10 0.1483
819.20 0.1483
819.30 0.1482
819.40 0.1481
819.50 0.148
819.60 0.148
819.70 0.1479
819.80 0.1478
819.90 0.1478
820.00 0.1477
820.10 0.1476
820.20 0.1475
820.30 0.1475
820.40 0.1474
820.50 0.1473
820.60 0.1473
820.70 0.1472
820.80 0.1471
820.90 0.1471
821.00 0.147
821.10 0.1469
821.20 0.1469
821.30 0.1468
821.40 0.1467
821.50 0.1466
821.60 0.1466
821.70 0.1465
821.80 0.1464
821.90 0.1464
822.00 0.1463
822.10 0.1462
822.20 0.1462
822.30 0.1461
822.40 0.146
822.50 0.146
822.60 0.1459
822.70 0.1458
822.80 0.1457
822.90 0.1457
823.00 0.1456
823.10 0.1455
823.20 0.1455
823.30 0.1454
823.40 0.1453
823.50 0.1453
823.60 0.1452
823.70 0.1451
823.80 0.1451
823.90 0.145
824.00 0.1449
824.10 0.1449
824.20 0.1448
824.30 0.1447
824.40 0.1447
824.50 0.1446
824.60 0.1445
824.70 0.1444
824.80 0.1444
824.90 0.1443
825.00 0.1442
825.10 0.1442
825.20 0.1441
825.30 0.144
825.40 0.144
825.50 0.1439
825.60 0.1438
825.70 0.1438
825.80 0.1437
825.90 0.1436
826.00 0.1436
826.10 0.1435
826.20 0.1434
826.30 0.1434
826.40 0.1433
826.50 0.1432
826.60 0.1432
826.70 0.1431
826.80 0.143
826.90 0.143
827.00 0.1429
827.10 0.1428
827.20 0.1428
827.30 0.1427
827.40 0.1426
827.50 0.1426
827.60 0.1425
827.70 0.1424
827.80 0.1424
827.90 0.1423
828.00 0.1422
828.10 0.1422
828.20 0.1421
828.30 0.142
828.40 0.142
828.50 0.1419
828.60 0.1418
828.70 0.1418
828.80 0.1417
828.90 0.1416
829.00 0.1416
829.10 0.1415
829.20 0.1414
829.30 0.1414
829.40 0.1413
829.50 0.1412
829.60 0.1412
829.70 0.1411
829.80 0.141
829.90 0.141
830.00 0.1409
830.10 0.1408
830.20 0.1408
830.30 0.1407
830.40 0.1406
830.50 0.1406
830.60 0.1405
830.70 0.1404
830.80 0.1404
830.90 0.1403
831.00 0.1402
831.10 0.1402
831.20 0.1401
831.30 0.14
831.40 0.14
831.50 0.1399
831.60 0.1398
831.70 0.1398
831.80 0.1397
831.90 0.1396
832.00 0.1396
832.10 0.1395
832.20 0.1394
832.30 0.1394
832.40 0.1393
832.50 0.1393
832.60 0.1392
832.70 0.1391
832.80 0.1391
832.90 0.139
833.00 0.1389
833.10 0.1389
833.20 0.1388
833.30 0.1387
833.40 0.1387
833.50 0.1386
833.60 0.1385
833.70 0.1385
833.80 0.1384
833.90 0.1383
834.00 0.1383
834.10 0.1382
834.20 0.1382
834.30 0.1381
834.40 0.138
834.50 0.138
834.60 0.1379
834.70 0.1378
834.80 0.1378
834.90 0.1377
835.00 0.1376
835.10 0.1376
835.20 0.1375
835.30 0.1374
835.40 0.1374
835.50 0.1373
835.60 0.1373
835.70 0.1372
835.80 0.1371
835.90 0.1371
836.00 0.137
836.10 0.1369
836.20 0.1369
836.30 0.1368
836.40 0.1367
836.50 0.1367
836.60 0.1366
836.70 0.1365
836.80 0.1365
836.90 0.1364
837.00 0.1364
837.10 0.1363
837.20 0.1362
837.30 0.1362
837.40 0.1361
837.50 0.136
837.60 0.136
837.70 0.1359
837.80 0.1359
837.90 0.1358
838.00 0.1357
838.10 0.1357
838.20 0.1356
838.30 0.1355
838.40 0.1355
838.50 0.1354
838.60 0.1353
838.70 0.1353
838.80 0.1352
838.90 0.1352
839.00 0.1351
839.10 0.135
839.20 0.135
839.30 0.1349
839.40 0.1348
839.50 0.1348
839.60 0.1347
839.70 0.1347
839.80 0.1346
839.90 0.1345
840.00 0.1345
840.10 0.1344
840.20 0.1343
840.30 0.1343
840.40 0.1342
840.50 0.1342
840.60 0.1341
840.70 0.134
840.80 0.134
840.90 0.1339
841.00 0.1338
841.10 0.1338
841.20 0.1337
841.30 0.1337
841.40 0.1336
841.50 0.1335
841.60 0.1335
841.70 0.1334
841.80 0.1334
841.90 0.1333
842.00 0.1332
842.10 0.1332
842.20 0.1331
842.30 0.133
842.40 0.133
842.50 0.1329
842.60 0.1329
842.70 0.1328
842.80 0.1327
842.90 0.1327
843.00 0.1326
843.10 0.1326
843.20 0.1325
843.30 0.1324
843.40 0.1324
843.50 0.1323
843.60 0.1323
843.70 0.1322
843.80 0.1321
843.90 0.1321
844.00 0.132
844.10 0.1319
844.20 0.1319
844.30 0.1318
844.40 0.1318
844.50 0.1317
844.60 0.1316
844.70 0.1316
844.80 0.1315
844.90 0.1315
845.00 0.1314
845.10 0.1313
845.20 0.1313
845.30 0.1312
845.40 0.1312
845.50 0.1311
845.60 0.131
845.70 0.131
845.80 0.1309
845.90 0.1309
846.00 0.1308
846.10 0.1307
846.20 0.1307
846.30 0.1306
846.40 0.1306
846.50 0.1305
846.60 0.1304
846.70 0.1304
846.80 0.1303
846.90 0.1303
847.00 0.1302
847.10 0.1301
847.20 0.1301
847.30 0.13
847.40 0.13
847.50 0.1299
847.60 0.1298
847.70 0.1298
847.80 0.1297
847.90 0.1297
848.00 0.1296
848.10 0.1295
848.20 0.1295
848.30 0.1294
848.40 0.1294
848.50 0.1293
848.60 0.1292
848.70 0.1292
848.80 0.1291
848.90 0.1291
849.00 0.129
849.10 0.1289
849.20 0.1289
849.30 0.1288
849.40 0.1288
849.50 0.1287
849.60 0.1286
849.70 0.1286
849.80 0.1285
849.90 0.1285
850.00 0.1284
850.10 0.1284
850.20 0.1283
850.30 0.1282
850.40 0.1282
850.50 0.1281
850.60 0.1281
850.70 0.128
850.80 0.1279
850.90 0.1279
851.00 0.1278
851.10 0.1278
851.20 0.1277
851.30 0.1277
851.40 0.1276
851.50 0.1275
851.60 0.1275
851.70 0.1274
851.80 0.1274
851.90 0.1273
852.00 0.1272
852.10 0.1272
852.20 0.1271
852.30 0.1271
852.40 0.127
852.50 0.127
852.60 0.1269
852.70 0.1268
852.80 0.1268
852.90 0.1267
853.00 0.1267
853.10 0.1266
853.20 0.1265
853.30 0.1265
853.40 0.1264
853.50 0.1264
853.60 0.1263
853.70 0.1263
853.80 0.1262
853.90 0.1261
854.00 0.1261
854.10 0.126
854.20 0.126
854.30 0.1259
854.40 0.1259
854.50 0.1258
854.60 0.1257
854.70 0.1257
854.80 0.1256
854.90 0.1256
855.00 0.1255
855.10 0.1255
855.20 0.1254
855.30 0.1253
855.40 0.1253
855.50 0.1252
855.60 0.1252
855.70 0.1251
855.80 0.1251
855.90 0.125
856.00 0.1249
856.10 0.1249
856.20 0.1248
856.30 0.1248
856.40 0.1247
856.50 0.1247
856.60 0.1246
856.70 0.1245
856.80 0.1245
856.90 0.1244
857.00 0.1244
857.10 0.1243
857.20 0.1243
857.30 0.1242
857.40 0.1241
857.50 0.1241
857.60 0.124
857.70 0.124
857.80 0.1239
857.90 0.1239
858.00 0.1238
858.10 0.1238
858.20 0.1237
858.30 0.1236
858.40 0.1236
858.50 0.1235
858.60 0.1235
858.70 0.1234
858.80 0.1234
858.90 0.1233
859.00 0.1233
859.10 0.1232
859.20 0.1231
859.30 0.1231
859.40 0.123
859.50 0.123
859.60 0.1229
859.70 0.1229
859.80 0.1228
859.90 0.1228
860.00 0.1227
860.10 0.1226
860.20 0.1226
860.30 0.1225
860.40 0.1225
860.50 0.1224
860.60 0.1224
860.70 0.1223
860.80 0.1223
860.90 0.1222
861.00 0.1221
861.10 0.1221
861.20 0.122
861.30 0.122
861.40 0.1219
861.50 0.1219
861.60 0.1218
861.70 0.1218
861.80 0.1217
861.90 0.1216
862.00 0.1216
862.10 0.1215
862.20 0.1215
862.30 0.1214
862.40 0.1214
862.50 0.1213
862.60 0.1213
862.70 0.1212
862.80 0.1212
862.90 0.1211
863.00 0.121
863.10 0.121
863.20 0.1209
863.30 0.1209
863.40 0.1208
863.50 0.1208
863.60 0.1207
863.70 0.1207
863.80 0.1206
863.90 0.1206
864.00 0.1205
864.10 0.1205
864.20 0.1204
864.30 0.1203
864.40 0.1203
864.50 0.1202
864.60 0.1202
864.70 0.1201
864.80 0.1201
864.90 0.12
865.00 0.12
865.10 0.1199
865.20 0.1199
865.30 0.1198
865.40 0.1198
865.50 0.1197
865.60 0.1196
865.70 0.1196
865.80 0.1195
865.90 0.1195
866.00 0.1194
866.10 0.1194
866.20 0.1193
866.30 0.1193
866.40 0.1192
866.50 0.1192
866.60 0.1191
866.70 0.1191
866.80 0.119
866.90 0.119
867.00 0.1189
867.10 0.1188
867.20 0.1188
867.30 0.1187
867.40 0.1187
867.50 0.1186
867.60 0.1186
867.70 0.1185
867.80 0.1185
867.90 0.1184
868.00 0.1184
868.10 0.1183
868.20 0.1183
868.30 0.1182
868.40 0.1182
868.50 0.1181
868.60 0.1181
868.70 0.118
868.80 0.1179
868.90 0.1179
869.00 0.1178
869.10 0.1178
869.20 0.1177
869.30 0.1177
869.40 0.1176
869.50 0.1176
869.60 0.1175
869.70 0.1175
869.80 0.1174
869.90 0.1174
870.00 0.1173
870.10 0.1173
870.20 0.1172
870.30 0.1172
870.40 0.1171
870.50 0.117
870.60 0.117
870.70 0.1169
870.80 0.1169
870.90 0.1168
871.00 0.1168
871.10 0.1167
871.20 0.1167
871.30 0.1166
871.40 0.1166
871.50 0.1165
871.60 0.1165
871.70 0.1164
871.80 0.1164
871.90 0.1163
872.00 0.1163
872.10 0.1162
872.20 0.1162
872.30 0.1161
872.40 0.1161
872.50 0.116
872.60 0.116
872.70 0.1159
872.80 0.1159
872.90 0.1158
873.00 0.1158
873.10 0.1157
873.20 0.1156
873.30 0.1156
873.40 0.1155
873.50 0.1155
873.60 0.1154
873.70 0.1154
873.80 0.1153
873.90 0.1153
874.00 0.1152
874.10 0.1152
874.20 0.1151
874.30 0.1151
874.40 0.115
874.50 0.115
874.60 0.1149
874.70 0.1149
874.80 0.1148
874.90 0.1148
875.00 0.1147
875.10 0.1147
875.20 0.1146
875.30 0.1146
875.40 0.1145
875.50 0.1145
875.60 0.1144
875.70 0.1144
875.80 0.1143
875.90 0.1143
876.00 0.1142
876.10 0.1142
876.20 0.1141
876.30 0.1141
876.40 0.114
876.50 0.114
876.60 0.1139
876.70 0.1139
876.80 0.1138
876.90 0.1138
877.00 0.1137
877.10 0.1137
877.20 0.1136
877.30 0.1136
877.40 0.1135
877.50 0.1135
877.60 0.1134
877.70 0.1134
877.80 0.1133
877.90 0.1133
878.00 0.1132
878.10 0.1132
878.20 0.1131
878.30 0.1131
878.40 0.113
878.50 0.113
878.60 0.1129
878.70 0.1129
878.80 0.1128
878.90 0.1128
879.00 0.1127
879.10 0.1127
879.20 0.1126
879.30 0.1126
879.40 0.1125
879.50 0.1125
879.60 0.1124
879.70 0.1124
879.80 0.1123
879.90 0.1123
880.00 0.1122
880.10 0.1122
880.20 0.1121
880.30 0.1121
880.40 0.112
880.50 0.112
880.60 0.1119
880.70 0.1119
880.80 0.1118
880.90 0.1118
881.00 0.1117
881.10 0.1117
881.20 0.1116
881.30 0.1116
881.40 0.1115
881.50 0.1115
881.60 0.1114
881.70 0.1114
881.80 0.1113
881.90 0.1113
882.00 0.1112
882.10 0.1112
882.20 0.1111
882.30 0.1111
882.40 0.111
882.50 0.111
882.60 0.1109
882.70 0.1109
882.80 0.1108
882.90 0.1108
883.00 0.1107
883.10 0.1107
883.20 0.1106
883.30 0.1106
883.40 0.1106
883.50 0.1105
883.60 0.1105
883.70 0.1104
883.80 0.1104
883.90 0.1103
884.00 0.1103
884.10 0.1102
884.20 0.1102
884.30 0.1101
884.40 0.1101
884.50 0.11
884.60 0.11
884.70 0.1099
884.80 0.1099
884.90 0.1098
885.00 0.1098
885.10 0.1097
885.20 0.1097
885.30 0.1096
885.40 0.1096
885.50 0.1095
885.60 0.1095
885.70 0.1094
885.80 0.1094
885.90 0.1093
886.00 0.1093
886.10 0.1093
886.20 0.1092
886.30 0.1092
886.40 0.1091
886.50 0.1091
886.60 0.109
886.70 0.109
886.80 0.1089
886.90 0.1089
887.00 0.1088
887.10 0.1088
887.20 0.1087
887.30 0.1087
887.40 0.1086
887.50 0.1086
887.60 0.1085
887.70 0.1085
887.80 0.1084
887.90 0.1084
888.00 0.1084
888.10 0.1083
888.20 0.1083
888.30 0.1082
888.40 0.1082
888.50 0.1081
888.60 0.1081
888.70 0.108
888.80 0.108
888.90 0.1079
889.00 0.1079
889.10 0.1078
889.20 0.1078
889.30 0.1077
889.40 0.1077
889.50 0.1076
889.60 0.1076
889.70 0.1076
889.80 0.1075
889.90 0.1075
890.00 0.1074
890.10 0.1074
890.20 0.1073
890.30 0.1073
890.40 0.1072
890.50 0.1072
890.60 0.1071
890.70 0.1071
890.80 0.107
890.90 0.107
891.00 0.107
891.10 0.1069
891.20 0.1069
891.30 0.1068
891.40 0.1068
891.50 0.1067
891.60 0.1067
891.70 0.1066
891.80 0.1066
891.90 0.1065
892.00 0.1065
892.10 0.1064
892.20 0.1064
892.30 0.1063
892.40 0.1063
892.50 0.1063
892.60 0.1062
892.70 0.1062
892.80 0.1061
892.90 0.1061
893.00 0.106
893.10 0.106
893.20 0.1059
893.30 0.1059
893.40 0.1058
893.50 0.1058
893.60 0.1057
893.70 0.1057
893.80 0.1056
893.90 0.1056
894.00 0.1056
894.10 0.1055
894.20 0.1055
894.30 0.1054
894.40 0.1054
894.50 0.1053
894.60 0.1053
894.70 0.1052
894.80 0.1052
894.90 0.1051
895.00 0.1051
895.10 0.105
895.20 0.105
895.30 0.1049
895.40 0.1049
895.50 0.1049
895.60 0.1048
895.70 0.1048
895.80 0.1047
895.90 0.1047
896.00 0.1046
896.10 0.1046
896.20 0.1045
896.30 0.1045
896.40 0.1044
896.50 0.1044
896.60 0.1043
896.70 0.1043
896.80 0.1043
896.90 0.1042
897.00 0.1042
897.10 0.1041
897.20 0.1041
897.30 0.104
897.40 0.104
897.50 0.1039
897.60 0.1039
897.70 0.1038
897.80 0.1038
897.90 0.1037
898.00 0.1037
898.10 0.1037
898.20 0.1036
898.30 0.1036
898.40 0.1035
898.50 0.1035
898.60 0.1034
898.70 0.1034
898.80 0.1033
898.90 0.1033
899.00 0.1032
899.10 0.1032
899.20 0.1032
899.30 0.1031
899.40 0.1031
899.50 0.103
899.60 0.103
899.70 0.1029
899.80 0.1029
899.90 0.1028
900.00 0.1028
900.10 0.1027
900.20 0.1027
900.30 0.1027
900.40 0.1026
900.50 0.1026
900.60 0.1025
900.70 0.1025
900.80 0.1024
900.90 0.1024
901.00 0.1023
901.10 0.1023
901.20 0.1022
901.30 0.1022
901.40 0.1022
901.50 0.1021
901.60 0.1021
901.70 0.102
901.80 0.102
901.90 0.1019
902.00 0.1019
902.10 0.1018
902.20 0.1018
902.30 0.1018
902.40 0.1017
902.50 0.1017
902.60 0.1016
902.70 0.1016
902.80 0.1015
902.90 0.1015
903.00 0.1015
903.10 0.1014
903.20 0.1014
903.30 0.1013
903.40 0.1013
903.50 0.1013
903.60 0.1012
903.70 0.1012
903.80 0.1011
903.90 0.1011
904.00 0.1011
904.10 0.101
904.20 0.101
904.30 0.1009
904.40 0.1009
904.50 0.1008
904.60 0.1008
904.70 0.1008
904.80 0.1007
904.90 0.1007
905.00 0.1006
905.10 0.1006
905.20 0.1006
905.30 0.1005
905.40 0.1005
905.50 0.1004
905.60 0.1004
905.70 0.1004
905.80 0.1003
905.90 0.1003
906.00 0.1002
906.10 0.1002
906.20 0.1001
906.30 0.1001
906.40 0.1001
906.50 0.1
906.60 0.09998
906.70 0.09994
906.80 0.0999
906.90 0.09986
907.00 0.09982
907.10 0.09978
907.20 0.09974
907.30 0.09969
907.40 0.09965
907.50 0.09961
907.60 0.09957
907.70 0.09953
907.80 0.09949
907.90 0.09944
908.00 0.0994
908.10 0.09936
908.20 0.09932
908.30 0.09928
908.40 0.09924
908.50 0.0992
908.60 0.09915
908.70 0.09911
908.80 0.09907
908.90 0.09903
909.00 0.09899
909.10 0.09895
909.20 0.09891
909.30 0.09886
909.40 0.09882
909.50 0.09878
909.60 0.09874
909.70 0.0987
909.80 0.09866
909.90 0.09862
910.00 0.09857
910.10 0.09853
910.20 0.09849
910.30 0.09845
910.40 0.09841
910.50 0.09837
910.60 0.09833
910.70 0.09829
910.80 0.09824
910.90 0.0982
911.00 0.09816
911.10 0.09812
911.20 0.09808
911.30 0.09804
911.40 0.098
911.50 0.09796
911.60 0.09792
911.70 0.09788
911.80 0.09783
911.90 0.09779
912.00 0.09775
912.10 0.09771
912.20 0.09767
912.30 0.09762
912.40 0.09758
912.50 0.09754
912.60 0.09749
912.70 0.09745
912.80 0.09741
912.90 0.09736
913.00 0.09732
913.10 0.09728
913.20 0.09723
913.30 0.09719
913.40 0.09715
913.50 0.0971
913.60 0.09706
913.70 0.09702
913.80 0.09697
913.90 0.09693
914.00 0.09689
914.10 0.09684
914.20 0.0968
914.30 0.09676
914.40 0.09671
914.50 0.09667
914.60 0.09663
914.70 0.09659
914.80 0.09654
914.90 0.0965
915.00 0.09646
915.10 0.09641
915.20 0.09637
915.30 0.09633
915.40 0.09629
915.50 0.09624
915.60 0.0962
915.70 0.09616
915.80 0.09611
915.90 0.09607
916.00 0.09603
916.10 0.09599
916.20 0.09594
916.30 0.0959
916.40 0.09586
916.50 0.09581
916.60 0.09577
916.70 0.09573
916.80 0.09569
916.90 0.09564
917.00 0.0956
917.10 0.09556
917.20 0.09551
917.30 0.09547
917.40 0.09542
917.50 0.09538
917.60 0.09533
917.70 0.09529
917.80 0.09524
917.90 0.09519
918.00 0.09515
918.10 0.0951
918.20 0.09506
918.30 0.09501
918.40 0.09497
918.50 0.09492
918.60 0.09488
918.70 0.09483
918.80 0.09479
918.90 0.09474
919.00 0.0947
919.10 0.09465
919.20 0.09461
919.30 0.09456
919.40 0.09452
919.50 0.09447
919.60 0.09443
919.70 0.09438
919.80 0.09434
919.90 0.0943
920.00 0.09425
920.10 0.09421
920.20 0.09416
920.30 0.09412
920.40 0.09407
920.50 0.09403
920.60 0.09398
920.70 0.09394
920.80 0.09389
920.90 0.09385
921.00 0.0938
921.10 0.09376
921.20 0.09371
921.30 0.09367
921.40 0.09363
921.50 0.09358
921.60 0.09354
921.70 0.09349
921.80 0.09345
921.90 0.0934
922.00 0.09336
922.10 0.09332
922.20 0.09329
922.30 0.09325
922.40 0.09322
922.50 0.09318
922.60 0.09314
922.70 0.09311
922.80 0.09307
922.90 0.09304
923.00 0.093
923.10 0.09297
923.20 0.09293
923.30 0.0929
923.40 0.09286
923.50 0.09283
923.60 0.09279
923.70 0.09275
923.80 0.09272
923.90 0.09268
924.00 0.09265
924.10 0.09261
924.20 0.09258
924.30 0.09254
924.40 0.09251
924.50 0.09247
924.60 0.09244
924.70 0.0924
924.80 0.09237
924.90 0.09233
925.00 0.0923
925.10 0.09226
925.20 0.09223
925.30 0.09219
925.40 0.09215
925.50 0.09212
925.60 0.09208
925.70 0.09205
925.80 0.09201
925.90 0.09198
926.00 0.09194
926.10 0.09191
926.20 0.09187
926.30 0.09184
926.40 0.0918
926.50 0.09177
926.60 0.09173
926.70 0.0917
926.80 0.09166
926.90 0.09163
927.00 0.09159
927.10 0.09156
927.20 0.09152
927.30 0.09149
927.40 0.09145
927.50 0.09142
927.60 0.09139
927.70 0.09135
927.80 0.09132
927.90 0.09128
928.00 0.09125
928.10 0.09121
928.20 0.09118
928.30 0.09114
928.40 0.09111
928.50 0.09107
928.60 0.09104
928.70 0.09101
928.80 0.09097
928.90 0.09094
929.00 0.0909
929.10 0.09087
929.20 0.09083
929.30 0.0908
929.40 0.09076
929.50 0.09073
929.60 0.09069
929.70 0.09066
929.80 0.09063
929.90 0.09059
930.00 0.09056
930.10 0.09052
930.20 0.09049
930.30 0.09045
930.40 0.09042
930.50 0.09039
930.60 0.09035
930.70 0.09032
930.80 0.09028
930.90 0.09025
931.00 0.09021
931.10 0.09018
931.20 0.09015
931.30 0.09011
931.40 0.09008
931.50 0.09004
931.60 0.09001
931.70 0.08998
931.80 0.08994
931.90 0.08991
932.00 0.08987
932.10 0.08984
932.20 0.0898
932.30 0.08976
932.40 0.08973
932.50 0.08969
932.60 0.08966
932.70 0.08962
932.80 0.08959
932.90 0.08955
933.00 0.08951
933.10 0.08948
933.20 0.08944
933.30 0.08941
933.40 0.08937
933.50 0.08933
933.60 0.0893
933.70 0.08926
933.80 0.08923
933.90 0.08919
934.00 0.08915
934.10 0.08912
934.20 0.08908
934.30 0.08905
934.40 0.08901
934.50 0.08897
934.60 0.08894
934.70 0.0889
934.80 0.08887
934.90 0.08883
935.00 0.08879
935.10 0.08876
935.20 0.08872
935.30 0.08868
935.40 0.08865
935.50 0.08861
935.60 0.08858
935.70 0.08854
935.80 0.0885
935.90 0.08847
936.00 0.08843
936.10 0.08839
936.20 0.08836
936.30 0.08832
936.40 0.08829
936.50 0.08825
936.60 0.08821
936.70 0.08818
936.80 0.08814
936.90 0.08811
937.00 0.08807
937.10 0.08803
937.20 0.088
937.30 0.08796
937.40 0.08792
937.50 0.08789
937.60 0.08785
937.70 0.08782
937.80 0.08778
937.90 0.08774
938.00 0.08771
938.10 0.08767
938.20 0.08763
938.30 0.0876
938.40 0.08756
938.50 0.08752
938.60 0.08749
938.70 0.08745
938.80 0.08742
938.90 0.08738
939.00 0.08734
939.10 0.08731
939.20 0.08727
939.30 0.08723
939.40 0.0872
939.50 0.08716
939.60 0.08712
939.70 0.08709
939.80 0.08705
939.90 0.08701
940.00 0.08698
940.10 0.08694
940.20 0.08691
940.30 0.08687
940.40 0.08683
940.50 0.0868
940.60 0.08676
940.70 0.08672
940.80 0.08669
940.90 0.08665
941.00 0.08661
941.10 0.08658
941.20 0.08654
941.30 0.0865
941.40 0.08647
941.50 0.08643
941.60 0.08639
941.70 0.08636
941.80 0.08632
941.90 0.08628
942.00 0.08625
942.10 0.08621
942.20 0.08617
942.30 0.08614
942.40 0.0861
942.50 0.08606
942.60 0.08603
942.70 0.08599
942.80 0.08595
942.90 0.08591
943.00 0.08588
943.10 0.08584
943.20 0.0858
943.30 0.08577
943.40 0.08573
943.50 0.08569
943.60 0.08566
943.70 0.08562
943.80 0.08558
943.90 0.08555
944.00 0.08551
944.10 0.08547
944.20 0.08544
944.30 0.0854
944.40 0.08536
944.50 0.08532
944.60 0.08529
944.70 0.08525
944.80 0.08521
944.90 0.08517
945.00 0.08514
945.10 0.0851
945.20 0.08506
945.30 0.08502
945.40 0.08499
945.50 0.08495
945.60 0.08491
945.70 0.08487
945.80 0.08483
945.90 0.08479
946.00 0.08476
946.10 0.08472
946.20 0.08468
946.30 0.08464
946.40 0.0846
946.50 0.08457
946.60 0.08453
946.70 0.08449
946.80 0.08445
946.90 0.08441
947.00 0.08437
947.10 0.08434
947.20 0.0843
947.30 0.08426
947.40 0.08422
947.50 0.08418
947.60 0.08414
947.70 0.0841
947.80 0.08406
947.90 0.08402
948.00 0.08398
948.10 0.08394
948.20 0.0839
948.30 0.08386
948.40 0.08382
948.50 0.08378
948.60 0.08374
948.70 0.0837
948.80 0.08366
948.90 0.08362
949.00 0.08358
949.10 0.08354
949.20 0.0835
949.30 0.08346
949.40 0.08341
949.50 0.08337
949.60 0.08333
949.70 0.08328
949.80 0.08324
949.90 0.0832
950.00 0.08315
950.10 0.08311
950.20 0.08307
950.30 0.08302
950.40 0.08298
950.50 0.08294
950.60 0.08289
950.70 0.08285
950.80 0.08281
950.90 0.08276
951.00 0.08272
951.10 0.08268
951.20 0.08264
951.30 0.08259
951.40 0.08255
951.50 0.0825
951.60 0.08246
951.70 0.08241
951.80 0.08237
951.90 0.08232
952.00 0.08227
952.10 0.08223
952.20 0.08218
952.30 0.08214
952.40 0.08209
952.50 0.08204
952.60 0.082
952.70 0.08195
952.80 0.08191
952.90 0.08186
953.00 0.08182
953.10 0.08178
953.20 0.08173
953.30 0.08169
953.40 0.08164
953.50 0.0816
953.60 0.08156
953.70 0.08153
953.80 0.08149
953.90 0.08145
954.00 0.08142
954.10 0.08139
954.20 0.08136
954.30 0.08134
954.40 0.08132
954.50 0.0813
954.60 0.08127
954.70 0.08124
954.80 0.08119
954.90 0.08115
955.00 0.0811
955.10 0.08106
955.20 0.08103
955.30 0.081
955.40 0.08097
955.50 0.08094
955.60 0.08091
955.70 0.08088
955.80 0.08085
955.90 0.08083
956.00 0.08081
956.10 0.08079
956.20 0.08077
956.30 0.08075
956.40 0.08073
956.50 0.0807
956.60 0.08068
956.70 0.08066
956.80 0.08064
956.90 0.08062
957.00 0.0806
957.10 0.08058
957.20 0.08056
957.30 0.08054
957.40 0.08051
957.50 0.08049
957.60 0.08047
957.70 0.08045
957.80 0.08042
957.90 0.0804
958.00 0.08038
958.10 0.08036
958.20 0.08033
958.30 0.08031
958.40 0.08029
958.50 0.08027
958.60 0.08024
958.70 0.08022
958.80 0.0802
958.90 0.08018
959.00 0.08015
959.10 0.08013
959.20 0.08011
959.30 0.08009
959.40 0.08006
959.50 0.08004
959.60 0.08001
959.70 0.07998
959.80 0.07996
959.90 0.07993
960.00 0.0799
960.10 0.07988
960.20 0.07985
960.30 0.07983
960.40 0.0798
960.50 0.07978
960.60 0.07975
960.70 0.07972
960.80 0.0797
960.90 0.07967
961.00 0.07965
961.10 0.07962
961.20 0.07959
961.30 0.07957
961.40 0.07954
961.50 0.07951
961.60 0.07948
961.70 0.07946
961.80 0.07943
961.90 0.0794
962.00 0.07937
962.10 0.07935
962.20 0.07932
962.30 0.07929
962.40 0.07926
962.50 0.07923
962.60 0.0792
962.70 0.07917
962.80 0.07914
962.90 0.07912
963.00 0.07909
963.10 0.07906
963.20 0.07903
963.30 0.079
963.40 0.07897
963.50 0.07894
963.60 0.07891
963.70 0.07888
963.80 0.07886
963.90 0.07883
964.00 0.0788
964.10 0.07877
964.20 0.07874
964.30 0.07871
964.40 0.07868
964.50 0.07865
964.60 0.07862
964.70 0.07859
964.80 0.07856
964.90 0.07853
965.00 0.0785
965.10 0.07847
965.20 0.07844
965.30 0.07841
965.40 0.07838
965.50 0.07835
965.60 0.07832
965.70 0.07829
965.80 0.07826
965.90 0.07823
966.00 0.0782
966.10 0.07817
966.20 0.07814
966.30 0.07811
966.40 0.07808
966.50 0.07805
966.60 0.07802
966.70 0.07799
966.80 0.07796
966.90 0.07793
967.00 0.0779
967.10 0.07787
967.20 0.07784
967.30 0.07781
967.40 0.07778
967.50 0.07775
967.60 0.07772
967.70 0.07769
967.80 0.07766
967.90 0.07763
968.00 0.0776
968.10 0.07757
968.20 0.07754
968.30 0.07751
968.40 0.07748
968.50 0.07745
968.60 0.07742
968.70 0.07739
968.80 0.07736
968.90 0.07733
969.00 0.0773
969.10 0.07727
969.20 0.07723
969.30 0.0772
969.40 0.07717
969.50 0.07714
969.60 0.07711
969.70 0.07708
969.80 0.07705
969.90 0.07702
970.00 0.07699
970.10 0.07696
970.20 0.07693
970.30 0.0769
970.40 0.07687
970.50 0.07684
970.60 0.07681
970.70 0.07678
970.80 0.07675
970.90 0.07672
971.00 0.07669
971.10 0.07666
971.20 0.07663
971.30 0.0766
971.40 0.07657
971.50 0.07654
971.60 0.07651
971.70 0.07648
971.80 0.07645
971.90 0.07642
972.00 0.07639
972.10 0.07636
972.20 0.07633
972.30 0.0763
972.40 0.07627
972.50 0.07623
972.60 0.0762
972.70 0.07617
972.80 0.07614
972.90 0.07611
973.00 0.07608
973.10 0.07605
973.20 0.07602
973.30 0.07599
973.40 0.07596
973.50 0.07593
973.60 0.0759
973.70 0.07587
973.80 0.07584
973.90 0.07581
974.00 0.07578
974.10 0.07575
974.20 0.07572
974.30 0.07569
974.40 0.07566
974.50 0.07563
974.60 0.0756
974.70 0.07557
974.80 0.07554
974.90 0.07551
975.00 0.07548
975.10 0.07545
975.20 0.07542
975.30 0.07539
975.40 0.07536
975.50 0.07533
975.60 0.0753
975.70 0.07527
975.80 0.07524
975.90 0.07521
976.00 0.07518
976.10 0.07515
976.20 0.07512
976.30 0.07509
976.40 0.07506
976.50 0.07503
976.60 0.075
976.70 0.07497
976.80 0.07494
976.90 0.07491
977.00 0.07488
977.10 0.07485
977.20 0.07482
977.30 0.07479
977.40 0.07477
977.50 0.07474
977.60 0.07471
977.70 0.07468
977.80 0.07465
977.90 0.07462
978.00 0.07459
978.10 0.07456
978.20 0.07453
978.30 0.0745
978.40 0.07447
978.50 0.07444
978.60 0.07441
978.70 0.07438
978.80 0.07435
978.90 0.07432
979.00 0.07429
979.10 0.07426
979.20 0.07423
979.30 0.0742
979.40 0.07417
979.50 0.07414
979.60 0.07411
979.70 0.07408
979.80 0.07405
979.90 0.07403
980.00 0.074
980.10 0.07397
980.20 0.07394
980.30 0.07391
980.40 0.07388
980.50 0.07385
980.60 0.07382
980.70 0.07379
980.80 0.07376
980.90 0.07373
981.00 0.0737
981.10 0.07367
981.20 0.07364
981.30 0.07361
981.40 0.07358
981.50 0.07356
981.60 0.07353
981.70 0.0735
981.80 0.07347
981.90 0.07344
982.00 0.07341
982.10 0.07338
982.20 0.07335
982.30 0.07332
982.40 0.07329
982.50 0.07326
982.60 0.07323
982.70 0.0732
982.80 0.07318
982.90 0.07315
983.00 0.07312
983.10 0.07309
983.20 0.07306
983.30 0.07303
983.40 0.073
983.50 0.07297
983.60 0.07294
983.70 0.07291
983.80 0.07288
983.90 0.07286
984.00 0.07283
984.10 0.0728
984.20 0.07277
984.30 0.07274
984.40 0.07271
984.50 0.07268
984.60 0.07265
984.70 0.07262
984.80 0.07259
984.90 0.07257
985.00 0.07254
985.10 0.07251
985.20 0.07248
985.30 0.07245
985.40 0.07242
985.50 0.07239
985.60 0.07236
985.70 0.07233
985.80 0.0723
985.90 0.07228
986.00 0.07225
986.10 0.07222
986.20 0.07219
986.30 0.07216
986.40 0.07213
986.50 0.0721
986.60 0.07207
986.70 0.07205
986.80 0.07202
986.90 0.07199
987.00 0.07196
987.10 0.07193
987.20 0.0719
987.30 0.07187
987.40 0.07184
987.50 0.07182
987.60 0.07179
987.70 0.07176
987.80 0.07173
987.90 0.0717
988.00 0.07167
988.10 0.07164
988.20 0.07161
988.30 0.07159
988.40 0.07156
988.50 0.07153
988.60 0.0715
988.70 0.07147
988.80 0.07144
988.90 0.07141
989.00 0.07138
989.10 0.07136
989.20 0.07133
989.30 0.0713
989.40 0.07127
989.50 0.07124
989.60 0.07121
989.70 0.07118
989.80 0.07115
989.90 0.07113
990.00 0.0711
990.10 0.07107
990.20 0.07104
990.30 0.07101
990.40 0.07098
990.50 0.07095
990.60 0.07093
990.70 0.0709
990.80 0.07087
990.90 0.07084
991.00 0.07081
991.10 0.07078
991.20 0.07075
991.30 0.07072
991.40 0.0707
991.50 0.07067
991.60 0.07064
991.70 0.07061
991.80 0.07058
991.90 0.07055
992.00 0.07052
992.10 0.07049
992.20 0.07046
992.30 0.07044
992.40 0.07041
992.50 0.07038
992.60 0.07035
992.70 0.07032
992.80 0.07029
992.90 0.07026
993.00 0.07023
993.10 0.0702
993.20 0.07017
993.30 0.07014
993.40 0.07012
993.50 0.07009
993.60 0.07006
993.70 0.07003
993.80 0.07
993.90 0.06997
994.00 0.06994
994.10 0.06991
994.20 0.06988
994.30 0.06985
994.40 0.06982
994.50 0.0698
994.60 0.06977
994.70 0.06974
994.80 0.06971
994.90 0.06968
995.00 0.06965
995.10 0.06962
995.20 0.06959
995.30 0.06956
995.40 0.06953
995.50 0.0695
995.60 0.06947
995.70 0.06944
995.80 0.06941
995.90 0.06938
996.00 0.06935
996.10 0.06932
996.20 0.06929
996.30 0.06926
996.40 0.06922
996.50 0.06919
996.60 0.06916
996.70 0.06913
996.80 0.0691
996.90 0.06907
997.00 0.06904
997.10 0.06901
997.20 0.06898
997.30 0.06895
997.40 0.06892
997.50 0.06888
997.60 0.06885
997.70 0.06882
997.80 0.06878
997.90 0.06875
998.00 0.06872
998.10 0.06868
998.20 0.06865
998.30 0.06862
998.40 0.06858
998.50 0.06855
998.60 0.06851
998.70 0.06848
998.80 0.06845
998.90 0.06841
999.00 0.06838
999.10 0.06835
999.20 0.06831
999.30 0.06828
999.40 0.06824
999.50 0.06821
999.60 0.06818
999.70 0.06814
999.80 0.0681
999.90 0.06806
1000.00 0.06802
1000.10 0.06798
1000.20 0.06794
1000.30 0.0679
1000.40 0.06786
1000.50 0.06782
1000.60 0.06778
1000.70 0.06774
1000.80 0.0677
1000.90 0.06766
1001.00 0.06762
1001.10 0.06758
1001.20 0.06754
1001.30 0.0675
1001.40 0.06746
1001.50 0.06742
1001.60 0.06738
1001.70 0.06734
1001.80 0.06729
1001.90 0.06725
1002.00 0.0672
1002.10 0.06716
1002.20 0.06711
1002.30 0.06706
1002.40 0.06701
1002.50 0.06696
1002.60 0.06691
1002.70 0.06687
1002.80 0.06682
1002.90 0.06677
1003.00 0.06672
1003.10 0.06667
1003.20 0.06663
1003.30 0.06658
1003.40 0.06653
1003.50 0.06648
1003.60 0.06643
1003.70 0.06638
1003.80 0.06633
1003.90 0.06629
1004.00 0.06625
1004.10 0.06622
1004.20 0.06618
1004.30 0.06616
1004.40 0.06615
1004.50 0.06614
1004.60 0.06617
1004.70 0.06622
1004.80 0.06627
1004.90 0.06626
1005.00 0.06625
1005.10 0.06618
1005.20 0.06609
1005.30 0.066
1005.40 0.06591
1005.50 0.06587
1005.60 0.06585
1005.70 0.06583
1005.80 0.06582
1005.90 0.0658
1006.00 0.06578
1006.10 0.06576
1006.20 0.06575
1006.30 0.06575
1006.40 0.06575
1006.50 0.06574
1006.60 0.06574
1006.70 0.06574
1006.80 0.06574
1006.90 0.06574
1007.00 0.06574
1007.10 0.06573
1007.20 0.06573
1007.30 0.06573
1007.40 0.06572
1007.50 0.06572
1007.60 0.06572
1007.70 0.06571
1007.80 0.0657
1007.90 0.06569
1008.00 0.06568
1008.10 0.06567
1008.20 0.06566
1008.30 0.06565
1008.40 0.06564
1008.50 0.06563
1008.60 0.06562
1008.70 0.06561
1008.80 0.0656
1008.90 0.06559
1009.00 0.06557
1009.10 0.06556
1009.20 0.06555
1009.30 0.06554
1009.40 0.06553
1009.50 0.06552
1009.60 0.06551
1009.70 0.0655
1009.80 0.06548
1009.90 0.06546
1010.00 0.06545
1010.10 0.06543
1010.20 0.06541
1010.30 0.06539
1010.40 0.06538
1010.50 0.06536
1010.60 0.06534
1010.70 0.06532
1010.80 0.06531
1010.90 0.06529
1011.00 0.06527
1011.10 0.06526
1011.20 0.06524
1011.30 0.06522
1011.40 0.0652
1011.50 0.06519
1011.60 0.06517
1011.70 0.06515
1011.80 0.06513
1011.90 0.06511
1012.00 0.06509
1012.10 0.06507
1012.20 0.06505
1012.30 0.06503
1012.40 0.06501
1012.50 0.06498
1012.60 0.06496
1012.70 0.06494
1012.80 0.06492
1012.90 0.0649
1013.00 0.06488
1013.10 0.06486
1013.20 0.06484
1013.30 0.06482
1013.40 0.06479
1013.50 0.06477
1013.60 0.06475
1013.70 0.06473
1013.80 0.06471
1013.90 0.06468
1014.00 0.06466
1014.10 0.06464
1014.20 0.06462
1014.30 0.0646
1014.40 0.06457
1014.50 0.06455
1014.60 0.06453
1014.70 0.06451
1014.80 0.06448
1014.90 0.06446
1015.00 0.06444
1015.10 0.06441
1015.20 0.06439
1015.30 0.06437
1015.40 0.06434
1015.50 0.06432
1015.60 0.0643
1015.70 0.06428
1015.80 0.06425
1015.90 0.06423
1016.00 0.06421
1016.10 0.06418
1016.20 0.06416
1016.30 0.06414
1016.40 0.06411
1016.50 0.06409
1016.60 0.06407
1016.70 0.06405
1016.80 0.06402
1016.90 0.064
1017.00 0.06398
1017.10 0.06395
1017.20 0.06393
1017.30 0.0639
1017.40 0.06388
1017.50 0.06386
1017.60 0.06383
1017.70 0.06381
1017.80 0.06379
1017.90 0.06376
1018.00 0.06374
1018.10 0.06372
1018.20 0.06369
1018.30 0.06367
1018.40 0.06365
1018.50 0.06362
1018.60 0.0636
1018.70 0.06358
1018.80 0.06355
1018.90 0.06353
1019.00 0.0635
1019.10 0.06348
1019.20 0.06346
1019.30 0.06343
1019.40 0.06341
1019.50 0.06339
1019.60 0.06336
1019.70 0.06334
1019.80 0.06332
1019.90 0.06329
1020.00 0.06327
1020.10 0.06324
1020.20 0.06322
1020.30 0.0632
1020.40 0.06317
1020.50 0.06315
1020.60 0.06313
1020.70 0.0631
1020.80 0.06308
1020.90 0.06306
1021.00 0.06303
1021.10 0.06301
1021.20 0.06298
1021.30 0.06296
1021.40 0.06294
1021.50 0.06291
1021.60 0.06289
1021.70 0.06287
1021.80 0.06284
1021.90 0.06282
1022.00 0.0628
1022.10 0.06277
1022.20 0.06275
1022.30 0.06272
1022.40 0.0627
1022.50 0.06268
1022.60 0.06265
1022.70 0.06263
1022.80 0.06261
1022.90 0.06258
1023.00 0.06256
1023.10 0.06254
1023.20 0.06251
1023.30 0.06249
1023.40 0.06247
1023.50 0.06244
1023.60 0.06242
1023.70 0.06239
1023.80 0.06237
1023.90 0.06235
1024.00 0.06232
1024.10 0.0623
1024.20 0.06228
1024.30 0.06225
1024.40 0.06223
1024.50 0.06221
1024.60 0.06218
1024.70 0.06216
1024.80 0.06214
1024.90 0.06211
1025.00 0.06209
1025.10 0.06207
1025.20 0.06204
1025.30 0.06202
1025.40 0.062
1025.50 0.06197
1025.60 0.06195
1025.70 0.06193
1025.80 0.0619
1025.90 0.06188
1026.00 0.06186
1026.10 0.06183
1026.20 0.06181
1026.30 0.06179
1026.40 0.06176
1026.50 0.06174
1026.60 0.06172
1026.70 0.06169
1026.80 0.06167
1026.90 0.06165
1027.00 0.06162
1027.10 0.0616
1027.20 0.06158
1027.30 0.06155
1027.40 0.06153
1027.50 0.06151
1027.60 0.06148
1027.70 0.06146
1027.80 0.06144
1027.90 0.06141
1028.00 0.06139
1028.10 0.06137
1028.20 0.06134
1028.30 0.06132
1028.40 0.0613
1028.50 0.06128
1028.60 0.06125
1028.70 0.06123
1028.80 0.06121
1028.90 0.06118
1029.00 0.06116
1029.10 0.06114
1029.20 0.06111
1029.30 0.06109
1029.40 0.06107
1029.50 0.06104
1029.60 0.06102
1029.70 0.061
1029.80 0.06098
1029.90 0.06095
1030.00 0.06093
1030.10 0.06091
1030.20 0.06088
1030.30 0.06086
1030.40 0.06084
1030.50 0.06081
1030.60 0.06079
1030.70 0.06077
1030.80 0.06075
1030.90 0.06072
1031.00 0.0607
1031.10 0.06068
1031.20 0.06065
1031.30 0.06063
1031.40 0.06061
1031.50 0.06059
1031.60 0.06056
1031.70 0.06054
1031.80 0.06052
1031.90 0.06049
1032.00 0.06047
1032.10 0.06045
1032.20 0.06043
1032.30 0.0604
1032.40 0.06038
1032.50 0.06036
1032.60 0.06034
1032.70 0.06031
1032.80 0.06029
1032.90 0.06027
1033.00 0.06024
1033.10 0.06022
1033.20 0.0602
1033.30 0.06018
1033.40 0.06015
1033.50 0.06013
1033.60 0.06011
1033.70 0.06009
1033.80 0.06006
1033.90 0.06004
1034.00 0.06002
1034.10 0.06
1034.20 0.05997
1034.30 0.05995
1034.40 0.05993
1034.50 0.05991
1034.60 0.05988
1034.70 0.05986
1034.80 0.05984
1034.90 0.05982
1035.00 0.05979
1035.10 0.05977
1035.20 0.05975
1035.30 0.05973
1035.40 0.0597
1035.50 0.05968
1035.60 0.05966
1035.70 0.05964
1035.80 0.05961
1035.90 0.05959
1036.00 0.05957
1036.10 0.05955
1036.20 0.05952
1036.30 0.0595
1036.40 0.05948
1036.50 0.05946
1036.60 0.05943
1036.70 0.05941
1036.80 0.05939
1036.90 0.05937
1037.00 0.05934
1037.10 0.05932
1037.20 0.0593
1037.30 0.05928
1037.40 0.05926
1037.50 0.05923
1037.60 0.05921
1037.70 0.05919
1037.80 0.05917
1037.90 0.05914
1038.00 0.05912
1038.10 0.0591
1038.20 0.05908
1038.30 0.05906
1038.40 0.05903
1038.50 0.05901
1038.60 0.05899
1038.70 0.05897
1038.80 0.05895
1038.90 0.05892
1039.00 0.0589
1039.10 0.05888
1039.20 0.05886
1039.30 0.05884
1039.40 0.05881
1039.50 0.05879
1039.60 0.05877
1039.70 0.05875
1039.80 0.05873
1039.90 0.0587
1040.00 0.05868
1040.10 0.05866
1040.20 0.05864
1040.30 0.05862
1040.40 0.05859
1040.50 0.05857
1040.60 0.05855
1040.70 0.05853
1040.80 0.05851
1040.90 0.05848
1041.00 0.05846
1041.10 0.05844
1041.20 0.05842
1041.30 0.0584
1041.40 0.05837
1041.50 0.05835
1041.60 0.05833
1041.70 0.05831
1041.80 0.05829
1041.90 0.05826
1042.00 0.05824
1042.10 0.05822
1042.20 0.0582
1042.30 0.05818
1042.40 0.05816
1042.50 0.05813
1042.60 0.05811
1042.70 0.05809
1042.80 0.05807
1042.90 0.05805
1043.00 0.05803
1043.10 0.058
1043.20 0.05798
1043.30 0.05796
1043.40 0.05794
1043.50 0.05792
1043.60 0.0579
1043.70 0.05787
1043.80 0.05785
1043.90 0.05783
1044.00 0.05781
1044.10 0.05779
1044.20 0.05777
1044.30 0.05774
1044.40 0.05772
1044.50 0.0577
1044.60 0.05768
1044.70 0.05766
1044.80 0.05764
1044.90 0.05762
1045.00 0.05759
1045.10 0.05757
1045.20 0.05755
1045.30 0.05753
1045.40 0.05751
1045.50 0.05749
1045.60 0.05747
1045.70 0.05744
1045.80 0.05742
1045.90 0.0574
1046.00 0.05738
1046.10 0.05736
1046.20 0.05734
1046.30 0.05731
1046.40 0.05729
1046.50 0.05727
1046.60 0.05725
1046.70 0.05723
1046.80 0.05721
1046.90 0.05719
1047.00 0.05717
1047.10 0.05714
1047.20 0.05712
1047.30 0.0571
1047.40 0.05708
1047.50 0.05706
1047.60 0.05704
1047.70 0.05702
1047.80 0.057
1047.90 0.05697
1048.00 0.05695
1048.10 0.05693
1048.20 0.05691
1048.30 0.05689
1048.40 0.05687
1048.50 0.05685
1048.60 0.05683
1048.70 0.05681
1048.80 0.05678
1048.90 0.05676
1049.00 0.05674
1049.10 0.05672
1049.20 0.0567
1049.30 0.05668
1049.40 0.05666
1049.50 0.05664
1049.60 0.05662
1049.70 0.05659
1049.80 0.05657
1049.90 0.05655
1050.00 0.05653
1050.10 0.05651
1050.20 0.05649
1050.30 0.05647
1050.40 0.05645
1050.50 0.05643
1050.60 0.05641
1050.70 0.05638
1050.80 0.05636
1050.90 0.05634
1051.00 0.05632
1051.10 0.0563
1051.20 0.05628
1051.30 0.05626
1051.40 0.05624
1051.50 0.05622
1051.60 0.0562
1051.70 0.05618
1051.80 0.05615
1051.90 0.05613
1052.00 0.05611
1052.10 0.05609
1052.20 0.05607
1052.30 0.05605
1052.40 0.05603
1052.50 0.05601
1052.60 0.05599
1052.70 0.05597
1052.80 0.05595
1052.90 0.05593
1053.00 0.05591
1053.10 0.05588
1053.20 0.05586
1053.30 0.05584
1053.40 0.05582
1053.50 0.0558
1053.60 0.05578
1053.70 0.05576
1053.80 0.05574
1053.90 0.05572
1054.00 0.0557
1054.10 0.05568
1054.20 0.05566
1054.30 0.05564
1054.40 0.05562
1054.50 0.0556
1054.60 0.05558
1054.70 0.05555
1054.80 0.05553
1054.90 0.05551
1055.00 0.05549
1055.10 0.05547
1055.20 0.05545
1055.30 0.05543
1055.40 0.05541
1055.50 0.05539
1055.60 0.05537
1055.70 0.05535
1055.80 0.05533
1055.90 0.05531
1056.00 0.05529
1056.10 0.05527
1056.20 0.05525
1056.30 0.05523
1056.40 0.05521
1056.50 0.05519
1056.60 0.05517
1056.70 0.05514
1056.80 0.05512
1056.90 0.0551
1057.00 0.05508
1057.10 0.05506
1057.20 0.05504
1057.30 0.05502
1057.40 0.055
1057.50 0.05498
1057.60 0.05496
1057.70 0.05494
1057.80 0.05492
1057.90 0.0549
1058.00 0.05488
1058.10 0.05486
1058.20 0.05484
1058.30 0.05482
1058.40 0.0548
1058.50 0.05478
1058.60 0.05476
1058.70 0.05474
1058.80 0.05472
1058.90 0.0547
1059.00 0.05468
1059.10 0.05466
1059.20 0.05464
1059.30 0.05462
1059.40 0.0546
1059.50 0.05458
1059.60 0.05456
1059.70 0.05454
1059.80 0.05452
1059.90 0.0545
1060.00 0.05448
1060.10 0.05446
1060.20 0.05444
1060.30 0.05442
1060.40 0.0544
1060.50 0.05438
1060.60 0.05436
1060.70 0.05434
1060.80 0.05432
1060.90 0.0543
1061.00 0.05428
1061.10 0.05426
1061.20 0.05424
1061.30 0.05422
1061.40 0.0542
1061.50 0.05418
1061.60 0.05416
1061.70 0.05414
1061.80 0.05412
1061.90 0.0541
1062.00 0.05408
1062.10 0.05406
1062.20 0.05404
1062.30 0.05402
1062.40 0.054
1062.50 0.05398
1062.60 0.05396
1062.70 0.05394
1062.80 0.05392
1062.90 0.0539
1063.00 0.05388
1063.10 0.05386
1063.20 0.05384
1063.30 0.05382
1063.40 0.0538
1063.50 0.05378
1063.60 0.05376
1063.70 0.05374
1063.80 0.05372
1063.90 0.0537
1064.00 0.05368
1064.10 0.05366
1064.20 0.05364
1064.30 0.05362
1064.40 0.0536
1064.50 0.05358
1064.60 0.05356
1064.70 0.05354
1064.80 0.05352
1064.90 0.0535
1065.00 0.05348
1065.10 0.05346
1065.20 0.05344
1065.30 0.05343
1065.40 0.05341
1065.50 0.05339
1065.60 0.05337
1065.70 0.05335
1065.80 0.05333
1065.90 0.05331
1066.00 0.05329
1066.10 0.05327
1066.20 0.05325
1066.30 0.05323
1066.40 0.05321
1066.50 0.05319
1066.60 0.05317
1066.70 0.05315
1066.80 0.05313
1066.90 0.05311
1067.00 0.05309
1067.10 0.05307
1067.20 0.05305
1067.30 0.05303
1067.40 0.05301
1067.50 0.053
1067.60 0.05298
1067.70 0.05296
1067.80 0.05294
1067.90 0.05292
1068.00 0.0529
1068.10 0.05288
1068.20 0.05286
1068.30 0.05284
1068.40 0.05282
1068.50 0.0528
1068.60 0.05278
1068.70 0.05276
1068.80 0.05274
1068.90 0.05272
1069.00 0.0527
1069.10 0.05269
1069.20 0.05267
1069.30 0.05265
1069.40 0.05263
1069.50 0.05261
1069.60 0.05259
1069.70 0.05257
1069.80 0.05255
1069.90 0.05253
1070.00 0.05251
1070.10 0.05249
1070.20 0.05247
1070.30 0.05245
1070.40 0.05243
1070.50 0.05242
1070.60 0.0524
1070.70 0.05238
1070.80 0.05236
1070.90 0.05234
1071.00 0.05232
1071.10 0.0523
1071.20 0.05228
1071.30 0.05226
1071.40 0.05224
1071.50 0.05222
1071.60 0.0522
1071.70 0.05218
1071.80 0.05217
1071.90 0.05215
1072.00 0.05213
1072.10 0.05211
1072.20 0.05209
1072.30 0.05207
1072.40 0.05205
1072.50 0.05203
1072.60 0.05201
1072.70 0.05199
1072.80 0.05197
1072.90 0.05196
1073.00 0.05194
1073.10 0.05192
1073.20 0.0519
1073.30 0.05188
1073.40 0.05186
1073.50 0.05184
1073.60 0.05182
1073.70 0.0518
1073.80 0.05178
1073.90 0.05177
1074.00 0.05175
1074.10 0.05173
1074.20 0.05171
1074.30 0.05169
1074.40 0.05167
1074.50 0.05165
1074.60 0.05163
1074.70 0.05161
1074.80 0.05159
1074.90 0.05158
1075.00 0.05156
1075.10 0.05154
1075.20 0.05152
1075.30 0.0515
1075.40 0.05148
1075.50 0.05146
1075.60 0.05144
1075.70 0.05142
1075.80 0.0514
1075.90 0.05139
1076.00 0.05137
1076.10 0.05135
1076.20 0.05133
1076.30 0.05131
1076.40 0.05129
1076.50 0.05127
1076.60 0.05125
1076.70 0.05123
1076.80 0.05122
1076.90 0.0512
1077.00 0.05118
1077.10 0.05116
1077.20 0.05114
1077.30 0.05112
1077.40 0.0511
1077.50 0.05108
1077.60 0.05106
1077.70 0.05105
1077.80 0.05103
1077.90 0.05101
1078.00 0.05099
1078.10 0.05097
1078.20 0.05095
1078.30 0.05093
1078.40 0.05091
1078.50 0.05089
1078.60 0.05088
1078.70 0.05086
1078.80 0.05084
1078.90 0.05082
1079.00 0.0508
1079.10 0.05078
1079.20 0.05076
1079.30 0.05074
1079.40 0.05072
1079.50 0.05071
1079.60 0.05069
1079.70 0.05067
1079.80 0.05065
1079.90 0.05063
1080.00 0.05061
1080.10 0.05059
1080.20 0.05057
1080.30 0.05055
1080.40 0.05053
1080.50 0.05052
1080.60 0.0505
1080.70 0.05048
1080.80 0.05046
1080.90 0.05044
1081.00 0.05042
1081.10 0.0504
1081.20 0.05038
1081.30 0.05036
1081.40 0.05035
1081.50 0.05033
1081.60 0.05031
1081.70 0.05029
1081.80 0.05027
1081.90 0.05025
1082.00 0.05023
1082.10 0.05021
1082.20 0.05019
1082.30 0.05017
1082.40 0.05015
1082.50 0.05013
1082.60 0.05011
1082.70 0.05009
1082.80 0.05008
1082.90 0.05006
1083.00 0.05004
1083.10 0.05002
1083.20 0.05
1083.30 0.04998
1083.40 0.04996
1083.50 0.04994
1083.60 0.04992
1083.70 0.0499
1083.80 0.04988
1083.90 0.04986
1084.00 0.04984
1084.10 0.04982
1084.20 0.0498
1084.30 0.04978
1084.40 0.04976
1084.50 0.04974
1084.60 0.04972
1084.70 0.0497
1084.80 0.04968
1084.90 0.04966
1085.00 0.04964
1085.10 0.04962
1085.20 0.04959
1085.30 0.04957
1085.40 0.04955
1085.50 0.04953
1085.60 0.04951
1085.70 0.04949
1085.80 0.04947
1085.90 0.04945
1086.00 0.04943
1086.10 0.04941
1086.20 0.04939
1086.30 0.04936
1086.40 0.04934
1086.50 0.04932
1086.60 0.0493
1086.70 0.04928
1086.80 0.04926
1086.90 0.04923
1087.00 0.04921
1087.10 0.04919
1087.20 0.04916
1087.30 0.04914
1087.40 0.04911
1087.50 0.04909
1087.60 0.04906
1087.70 0.04904
1087.80 0.04902
1087.90 0.04899
1088.00 0.04897
1088.10 0.04894
1088.20 0.04892
1088.30 0.04889
1088.40 0.04887
1088.50 0.04884
1088.60 0.04881
1088.70 0.04878
1088.80 0.04875
1088.90 0.04872
1089.00 0.04869
1089.10 0.04866
1089.20 0.04863
1089.30 0.0486
1089.40 0.04857
1089.50 0.04854
1089.60 0.0485
1089.70 0.04847
1089.80 0.04844
1089.90 0.04841
1090.00 0.04838
1090.10 0.04835
1090.20 0.04832
1090.30 0.04829
1090.40 0.04826
1090.50 0.04823
1090.60 0.04818
1090.70 0.04814
1090.80 0.0481
1090.90 0.04806
1091.00 0.04802
1091.10 0.04797
1091.20 0.04793
1091.30 0.04789
1091.40 0.04785
1091.50 0.04781
1091.60 0.04776
1091.70 0.04772
1091.80 0.04768
1091.90 0.04764
1092.00 0.0476
1092.10 0.04755
1092.20 0.0475
1092.30 0.04746
1092.40 0.04741
1092.50 0.04737
1092.60 0.04732
1092.70 0.04728
1092.80 0.04725
1092.90 0.04722
1093.00 0.04719
1093.10 0.04717
1093.20 0.04717
1093.30 0.04717
1093.40 0.04719
1093.50 0.04722
1093.60 0.04729
1093.70 0.04734
1093.80 0.04738
1093.90 0.04737
1094.00 0.04727
1094.10 0.04718
1094.20 0.04708
1094.30 0.04701
1094.40 0.047
1094.50 0.04698
1094.60 0.04697
1094.70 0.04696
1094.80 0.04694
1094.90 0.04693
1095.00 0.04692
1095.10 0.04693
1095.20 0.04694
1095.30 0.04695
1095.40 0.04696
1095.50 0.04697
1095.60 0.04698
1095.70 0.047
1095.80 0.04701
1095.90 0.04702
1096.00 0.04703
1096.10 0.04704
1096.20 0.04705
1096.30 0.04706
1096.40 0.04707
1096.50 0.04708
1096.60 0.04709
1096.70 0.04709
1096.80 0.0471
1096.90 0.0471
1097.00 0.04711
1097.10 0.04711
1097.20 0.0471
1097.30 0.0471
1097.40 0.0471
1097.50 0.0471
1097.60 0.0471
1097.70 0.0471
1097.80 0.04709
1097.90 0.04709
1098.00 0.04709
1098.10 0.04709
1098.20 0.04709
1098.30 0.04709
1098.40 0.04708
1098.50 0.04708
1098.60 0.04707
1098.70 0.04706
1098.80 0.04705
1098.90 0.04704
1099.00 0.04703
1099.10 0.04703
1099.20 0.04702
1099.30 0.04701
1099.40 0.047
1099.50 0.04699
1099.60 0.04698
1099.70 0.04697
1099.80 0.04696
1099.90 0.04695
1100.00 0.04694
1100.10 0.04694
1100.20 0.04693
1100.30 0.04692
1100.40 0.04691
1100.50 0.0469
1100.60 0.04689
1100.70 0.04687
1100.80 0.04686
1100.90 0.04685
1101.00 0.04683
1101.10 0.04682
1101.20 0.04681
1101.30 0.0468
1101.40 0.04678
1101.50 0.04677
1101.60 0.04676
1101.70 0.04675
1101.80 0.04673
1101.90 0.04672
1102.00 0.04671
1102.10 0.04669
1102.20 0.04668
1102.30 0.04667
1102.40 0.04665
1102.50 0.04664
1102.60 0.04662
1102.70 0.04661
1102.80 0.04659
1102.90 0.04658
1103.00 0.04657
1103.10 0.04655
1103.20 0.04654
1103.30 0.04652
1103.40 0.04651
1103.50 0.04649
1103.60 0.04648
1103.70 0.04646
1103.80 0.04645
1103.90 0.04643
1104.00 0.04642
1104.10 0.0464
1104.20 0.04639
1104.30 0.04637
1104.40 0.04636
1104.50 0.04634
1104.60 0.04633
1104.70 0.04631
1104.80 0.0463
1104.90 0.04628
1105.00 0.04627
1105.10 0.04625
1105.20 0.04624
1105.30 0.04622
1105.40 0.04621
1105.50 0.04619
1105.60 0.04618
1105.70 0.04616
1105.80 0.04615
1105.90 0.04613
1106.00 0.04612
1106.10 0.0461
1106.20 0.04608
1106.30 0.04607
1106.40 0.04605
1106.50 0.04604
1106.60 0.04602
1106.70 0.04601
1106.80 0.04599
1106.90 0.04598
1107.00 0.04596
1107.10 0.04595
1107.20 0.04593
1107.30 0.04591
1107.40 0.0459
1107.50 0.04588
1107.60 0.04587
1107.70 0.04585
1107.80 0.04584
1107.90 0.04582
1108.00 0.0458
1108.10 0.04579
1108.20 0.04577
1108.30 0.04576
1108.40 0.04574
1108.50 0.04573
1108.60 0.04571
1108.70 0.0457
1108.80 0.04568
1108.90 0.04566
1109.00 0.04565
1109.10 0.04563
1109.20 0.04562
1109.30 0.0456
1109.40 0.04559
1109.50 0.04557
1109.60 0.04555
1109.70 0.04554
1109.80 0.04552
1109.90 0.04551
1110.00 0.04549
1110.10 0.04548
1110.20 0.04546
1110.30 0.04544
1110.40 0.04543
1110.50 0.04541
1110.60 0.0454
1110.70 0.04538
1110.80 0.04537
1110.90 0.04535
1111.00 0.04533
1111.10 0.04532
1111.20 0.0453
1111.30 0.04529
1111.40 0.04527
1111.50 0.04526
1111.60 0.04524
1111.70 0.04523
1111.80 0.04521
1111.90 0.04519
1112.00 0.04518
1112.10 0.04516
1112.20 0.04515
1112.30 0.04513
1112.40 0.04512
1112.50 0.0451
1112.60 0.04508
1112.70 0.04507
1112.80 0.04505
1112.90 0.04504
1113.00 0.04502
1113.10 0.04501
1113.20 0.04499
1113.30 0.04498
1113.40 0.04496
1113.50 0.04494
1113.60 0.04493
1113.70 0.04491
1113.80 0.0449
1113.90 0.04488
1114.00 0.04487
1114.10 0.04485
1114.20 0.04484
1114.30 0.04482
1114.40 0.0448
1114.50 0.04479
1114.60 0.04477
1114.70 0.04476
1114.80 0.04474
1114.90 0.04473
1115.00 0.04471
1115.10 0.0447
1115.20 0.04468
1115.30 0.04466
1115.40 0.04465
1115.50 0.04463
1115.60 0.04462
1115.70 0.0446
1115.80 0.04459
1115.90 0.04457
1116.00 0.04456
1116.10 0.04454
1116.20 0.04452
1116.30 0.04451
1116.40 0.04449
1116.50 0.04448
1116.60 0.04446
1116.70 0.04445
1116.80 0.04443
1116.90 0.04442
1117.00 0.0444
1117.10 0.04439
1117.20 0.04437
1117.30 0.04436
1117.40 0.04434
1117.50 0.04432
1117.60 0.04431
1117.70 0.04429
1117.80 0.04428
1117.90 0.04426
1118.00 0.04425
1118.10 0.04423
1118.20 0.04422
1118.30 0.0442
1118.40 0.04419
1118.50 0.04417
1118.60 0.04416
1118.70 0.04414
1118.80 0.04412
1118.90 0.04411
1119.00 0.04409
1119.10 0.04408
1119.20 0.04406
1119.30 0.04405
1119.40 0.04403
1119.50 0.04402
1119.60 0.044
1119.70 0.04399
1119.80 0.04397
1119.90 0.04396
1120.00 0.04394
1120.10 0.04393
1120.20 0.04391
1120.30 0.0439
1120.40 0.04388
1120.50 0.04386
1120.60 0.04385
1120.70 0.04383
1120.80 0.04382
1120.90 0.0438
1121.00 0.04379
1121.10 0.04377
1121.20 0.04376
1121.30 0.04374
1121.40 0.04373
1121.50 0.04371
1121.60 0.0437
1121.70 0.04368
1121.80 0.04367
1121.90 0.04365
1122.00 0.04364
1122.10 0.04362
1122.20 0.04361
1122.30 0.04359
1122.40 0.04358
1122.50 0.04356
1122.60 0.04355
1122.70 0.04353
1122.80 0.04352
1122.90 0.0435
1123.00 0.04349
1123.10 0.04347
1123.20 0.04346
1123.30 0.04344
1123.40 0.04343
1123.50 0.04341
1123.60 0.0434
1123.70 0.04338
1123.80 0.04337
1123.90 0.04335
1124.00 0.04334
1124.10 0.04332
1124.20 0.04331
1124.30 0.04329
1124.40 0.04328
1124.50 0.04326
1124.60 0.04325
1124.70 0.04323
1124.80 0.04322
1124.90 0.0432
1125.00 0.04319
1125.10 0.04317
1125.20 0.04316
1125.30 0.04314
1125.40 0.04313
1125.50 0.04311
1125.60 0.0431
1125.70 0.04308
1125.80 0.04307
1125.90 0.04305
1126.00 0.04304
1126.10 0.04302
1126.20 0.04301
1126.30 0.04299
1126.40 0.04298
1126.50 0.04296
1126.60 0.04295
1126.70 0.04293
1126.80 0.04292
1126.90 0.0429
1127.00 0.04289
1127.10 0.04287
1127.20 0.04286
1127.30 0.04284
1127.40 0.04283
1127.50 0.04281
1127.60 0.0428
1127.70 0.04278
1127.80 0.04277
1127.90 0.04275
1128.00 0.04274
1128.10 0.04272
1128.20 0.04271
1128.30 0.0427
1128.40 0.04268
1128.50 0.04267
1128.60 0.04265
1128.70 0.04264
1128.80 0.04262
1128.90 0.04261
1129.00 0.04259
1129.10 0.04258
1129.20 0.04256
1129.30 0.04255
1129.40 0.04253
1129.50 0.04252
1129.60 0.0425
1129.70 0.04249
1129.80 0.04247
1129.90 0.04246
1130.00 0.04245
1130.10 0.04243
1130.20 0.04242
1130.30 0.0424
1130.40 0.04239
1130.50 0.04237
1130.60 0.04236
1130.70 0.04234
1130.80 0.04233
1130.90 0.04231
1131.00 0.0423
1131.10 0.04228
1131.20 0.04227
1131.30 0.04226
1131.40 0.04224
1131.50 0.04223
1131.60 0.04221
1131.70 0.0422
1131.80 0.04218
1131.90 0.04217
1132.00 0.04215
1132.10 0.04214
1132.20 0.04212
1132.30 0.04211
1132.40 0.0421
1132.50 0.04208
1132.60 0.04207
1132.70 0.04205
1132.80 0.04204
1132.90 0.04202
1133.00 0.04201
1133.10 0.04199
1133.20 0.04198
1133.30 0.04197
1133.40 0.04195
1133.50 0.04194
1133.60 0.04192
1133.70 0.04191
1133.80 0.04189
1133.90 0.04188
1134.00 0.04186
1134.10 0.04185
1134.20 0.04184
1134.30 0.04182
1134.40 0.04181
1134.50 0.04179
1134.60 0.04178
1134.70 0.04176
1134.80 0.04175
1134.90 0.04173
1135.00 0.04172
1135.10 0.04171
1135.20 0.04169
1135.30 0.04168
1135.40 0.04166
1135.50 0.04165
1135.60 0.04163
1135.70 0.04162
1135.80 0.04161
1135.90 0.04159
1136.00 0.04158
1136.10 0.04156
1136.20 0.04155
1136.30 0.04153
1136.40 0.04152
1136.50 0.04151
1136.60 0.04149
1136.70 0.04148
1136.80 0.04146
1136.90 0.04145
1137.00 0.04143
1137.10 0.04142
1137.20 0.04141
1137.30 0.04139
1137.40 0.04138
1137.50 0.04136
1137.60 0.04135
1137.70 0.04134
1137.80 0.04132
1137.90 0.04131
1138.00 0.04129
1138.10 0.04128
1138.20 0.04126
1138.30 0.04125
1138.40 0.04124
1138.50 0.04122
1138.60 0.04121
1138.70 0.04119
1138.80 0.04118
1138.90 0.04117
1139.00 0.04115
1139.10 0.04114
1139.20 0.04112
1139.30 0.04111
1139.40 0.0411
1139.50 0.04108
1139.60 0.04107
1139.70 0.04105
1139.80 0.04104
1139.90 0.04102
1140.00 0.04101
1140.10 0.041
1140.20 0.04098
1140.30 0.04097
1140.40 0.04095
1140.50 0.04094
1140.60 0.04093
1140.70 0.04091
1140.80 0.0409
1140.90 0.04088
1141.00 0.04087
1141.10 0.04086
1141.20 0.04084
1141.30 0.04083
1141.40 0.04081
1141.50 0.0408
1141.60 0.04079
1141.70 0.04077
1141.80 0.04076
1141.90 0.04074
1142.00 0.04073
1142.10 0.04072
1142.20 0.0407
1142.30 0.04069
1142.40 0.04068
1142.50 0.04066
1142.60 0.04065
1142.70 0.04063
1142.80 0.04062
1142.90 0.04061
1143.00 0.04059
1143.10 0.04058
1143.20 0.04056
1143.30 0.04055
1143.40 0.04054
1143.50 0.04052
1143.60 0.04051
1143.70 0.0405
1143.80 0.04048
1143.90 0.04047
1144.00 0.04045
1144.10 0.04044
1144.20 0.04043
1144.30 0.04041
1144.40 0.0404
1144.50 0.04039
1144.60 0.04037
1144.70 0.04036
1144.80 0.04034
1144.90 0.04033
1145.00 0.04032
1145.10 0.0403
1145.20 0.04029
1145.30 0.04028
1145.40 0.04026
1145.50 0.04025
1145.60 0.04023
1145.70 0.04022
1145.80 0.04021
1145.90 0.04019
1146.00 0.04018
1146.10 0.04017
1146.20 0.04015
1146.30 0.04014
1146.40 0.04012
1146.50 0.04011
1146.60 0.0401
1146.70 0.04008
1146.80 0.04007
1146.90 0.04006
1147.00 0.04004
1147.10 0.04003
1147.20 0.04001
1147.30 0.04
1147.40 0.03999
1147.50 0.03997
1147.60 0.03996
1147.70 0.03995
1147.80 0.03993
1147.90 0.03992
1148.00 0.03991
1148.10 0.03989
1148.20 0.03988
1148.30 0.03987
1148.40 0.03985
1148.50 0.03984
1148.60 0.03983
1148.70 0.03981
1148.80 0.0398
1148.90 0.03978
1149.00 0.03977
1149.10 0.03976
1149.20 0.03974
1149.30 0.03973
1149.40 0.03972
1149.50 0.0397
1149.60 0.03969
1149.70 0.03968
1149.80 0.03966
1149.90 0.03965
1150.00 0.03964
1150.10 0.03962
1150.20 0.03961
1150.30 0.0396
1150.40 0.03958
1150.50 0.03957
1150.60 0.03956
1150.70 0.03954
1150.80 0.03953
1150.90 0.03952
1151.00 0.0395
1151.10 0.03949
1151.20 0.03947
1151.30 0.03946
1151.40 0.03945
1151.50 0.03943
1151.60 0.03942
1151.70 0.03941
1151.80 0.03939
1151.90 0.03938
1152.00 0.03937
1152.10 0.03935
1152.20 0.03934
1152.30 0.03933
1152.40 0.03931
1152.50 0.0393
1152.60 0.03929
1152.70 0.03927
1152.80 0.03926
1152.90 0.03925
1153.00 0.03923
1153.10 0.03922
1153.20 0.03921
1153.30 0.03919
1153.40 0.03918
1153.50 0.03917
1153.60 0.03916
1153.70 0.03914
1153.80 0.03913
1153.90 0.03912
1154.00 0.0391
1154.10 0.03909
1154.20 0.03908
1154.30 0.03906
1154.40 0.03905
1154.50 0.03904
1154.60 0.03902
1154.70 0.03901
1154.80 0.039
1154.90 0.03898
1155.00 0.03897
1155.10 0.03896
1155.20 0.03894
1155.30 0.03893
1155.40 0.03892
1155.50 0.0389
1155.60 0.03889
1155.70 0.03888
1155.80 0.03886
1155.90 0.03885
1156.00 0.03884
1156.10 0.03883
1156.20 0.03881
1156.30 0.0388
1156.40 0.03879
1156.50 0.03877
1156.60 0.03876
1156.70 0.03875
1156.80 0.03873
1156.90 0.03872
1157.00 0.03871
1157.10 0.03869
1157.20 0.03868
1157.30 0.03867
1157.40 0.03866
1157.50 0.03864
1157.60 0.03863
1157.70 0.03862
1157.80 0.0386
1157.90 0.03859
1158.00 0.03858
1158.10 0.03856
1158.20 0.03855
1158.30 0.03854
1158.40 0.03853
1158.50 0.03851
1158.60 0.0385
1158.70 0.03849
1158.80 0.03847
1158.90 0.03846
1159.00 0.03845
1159.10 0.03843
1159.20 0.03842
1159.30 0.03841
1159.40 0.0384
1159.50 0.03838
1159.60 0.03837
1159.70 0.03836
1159.80 0.03834
1159.90 0.03833
1160.00 0.03832
1160.10 0.03831
1160.20 0.03829
1160.30 0.03828
1160.40 0.03827
1160.50 0.03825
1160.60 0.03824
1160.70 0.03823
1160.80 0.03822
1160.90 0.0382
1161.00 0.03819
1161.10 0.03818
1161.20 0.03816
1161.30 0.03815
1161.40 0.03814
1161.50 0.03812
1161.60 0.03811
1161.70 0.0381
1161.80 0.03809
1161.90 0.03807
1162.00 0.03806
1162.10 0.03805
1162.20 0.03804
1162.30 0.03802
1162.40 0.03801
1162.50 0.038
1162.60 0.03798
1162.70 0.03797
1162.80 0.03796
1162.90 0.03795
1163.00 0.03793
1163.10 0.03792
1163.20 0.03791
1163.30 0.0379
1163.40 0.03788
1163.50 0.03787
1163.60 0.03786
1163.70 0.03784
1163.80 0.03783
1163.90 0.03782
1164.00 0.03781
1164.10 0.03779
1164.20 0.03778
1164.30 0.03777
1164.40 0.03776
1164.50 0.03774
1164.60 0.03773
1164.70 0.03772
1164.80 0.03771
1164.90 0.03769
1165.00 0.03768
1165.10 0.03767
1165.20 0.03765
1165.30 0.03764
1165.40 0.03763
1165.50 0.03762
1165.60 0.0376
1165.70 0.03759
1165.80 0.03758
1165.90 0.03757
1166.00 0.03755
1166.10 0.03754
1166.20 0.03753
1166.30 0.03752
1166.40 0.0375
1166.50 0.03749
1166.60 0.03748
1166.70 0.03747
1166.80 0.03745
1166.90 0.03744
1167.00 0.03743
1167.10 0.03742
1167.20 0.0374
1167.30 0.03739
1167.40 0.03738
1167.50 0.03737
1167.60 0.03735
1167.70 0.03734
1167.80 0.03733
1167.90 0.03732
1168.00 0.0373
1168.10 0.03729
1168.20 0.03728
1168.30 0.03727
1168.40 0.03725
1168.50 0.03724
1168.60 0.03723
1168.70 0.03722
1168.80 0.0372
1168.90 0.03719
1169.00 0.03718
1169.10 0.03717
1169.20 0.03715
1169.30 0.03714
1169.40 0.03713
1169.50 0.03712
1169.60 0.0371
1169.70 0.03709
1169.80 0.03708
1169.90 0.03707
1170.00 0.03705
1170.10 0.03704
1170.20 0.03703
1170.30 0.03702
1170.40 0.03701
1170.50 0.03699
1170.60 0.03698
1170.70 0.03697
1170.80 0.03696
1170.90 0.03694
1171.00 0.03693
1171.10 0.03692
1171.20 0.03691
1171.30 0.03689
1171.40 0.03688
1171.50 0.03687
1171.60 0.03686
1171.70 0.03684
1171.80 0.03683
1171.90 0.03682
1172.00 0.03681
1172.10 0.0368
1172.20 0.03678
1172.30 0.03677
1172.40 0.03676
1172.50 0.03675
1172.60 0.03673
1172.70 0.03672
1172.80 0.03671
1172.90 0.0367
1173.00 0.03669
1173.10 0.03667
1173.20 0.03666
1173.30 0.03665
1173.40 0.03664
1173.50 0.03662
1173.60 0.03661
1173.70 0.0366
1173.80 0.03659
1173.90 0.03658
1174.00 0.03656
1174.10 0.03655
1174.20 0.03654
1174.30 0.03653
1174.40 0.03652
1174.50 0.0365
1174.60 0.03649
1174.70 0.03648
1174.80 0.03647
1174.90 0.03645
1175.00 0.03644
1175.10 0.03643
1175.20 0.03642
1175.30 0.03641
1175.40 0.03639
1175.50 0.03638
1175.60 0.03637
1175.70 0.03636
1175.80 0.03635
1175.90 0.03633
1176.00 0.03632
1176.10 0.03631
1176.20 0.0363
1176.30 0.03629
1176.40 0.03627
1176.50 0.03626
1176.60 0.03625
1176.70 0.03624
1176.80 0.03622
1176.90 0.03621
1177.00 0.0362
1177.10 0.03619
1177.20 0.03618
1177.30 0.03616
1177.40 0.03615
1177.50 0.03614
1177.60 0.03613
1177.70 0.03612
1177.80 0.0361
1177.90 0.03609
1178.00 0.03608
1178.10 0.03607
1178.20 0.03606
1178.30 0.03605
1178.40 0.03603
1178.50 0.03602
1178.60 0.03601
1178.70 0.036
1178.80 0.03599
1178.90 0.03597
1179.00 0.03596
1179.10 0.03595
1179.20 0.03594
1179.30 0.03593
1179.40 0.03591
1179.50 0.0359
1179.60 0.03589
1179.70 0.03588
1179.80 0.03587
1179.90 0.03585
1180.00 0.03584
1180.10 0.03583
1180.20 0.03582
1180.30 0.03581
1180.40 0.0358
1180.50 0.03578
1180.60 0.03577
1180.70 0.03576
1180.80 0.03575
1180.90 0.03574
1181.00 0.03572
1181.10 0.03571
1181.20 0.0357
1181.30 0.03569
1181.40 0.03568
1181.50 0.03567
1181.60 0.03565
1181.70 0.03564
1181.80 0.03563
1181.90 0.03562
1182.00 0.03561
1182.10 0.03559
1182.20 0.03558
1182.30 0.03557
1182.40 0.03556
1182.50 0.03555
1182.60 0.03554
1182.70 0.03552
1182.80 0.03551
1182.90 0.0355
1183.00 0.03549
1183.10 0.03548
1183.20 0.03547
1183.30 0.03545
1183.40 0.03544
1183.50 0.03543
1183.60 0.03542
1183.70 0.03541
1183.80 0.0354
1183.90 0.03538
1184.00 0.03537
1184.10 0.03536
1184.20 0.03535
1184.30 0.03534
1184.40 0.03533
1184.50 0.03531
1184.60 0.0353
1184.70 0.03529
1184.80 0.03528
1184.90 0.03527
1185.00 0.03526
1185.10 0.03524
1185.20 0.03523
1185.30 0.03522
1185.40 0.03521
1185.50 0.0352
1185.60 0.03519
1185.70 0.03517
1185.80 0.03516
1185.90 0.03515
1186.00 0.03514
1186.10 0.03513
1186.20 0.03512
1186.30 0.0351
1186.40 0.03509
1186.50 0.03508
1186.60 0.03507
1186.70 0.03506
1186.80 0.03505
1186.90 0.03504
1187.00 0.03502
1187.10 0.03501
1187.20 0.035
1187.30 0.03499
1187.40 0.03498
1187.50 0.03497
1187.60 0.03495
1187.70 0.03494
1187.80 0.03493
1187.90 0.03492
1188.00 0.03491
1188.10 0.0349
1188.20 0.03489
1188.30 0.03487
1188.40 0.03486
1188.50 0.03485
1188.60 0.03484
1188.70 0.03483
1188.80 0.03482
1188.90 0.03481
1189.00 0.03479
1189.10 0.03478
1189.20 0.03477
1189.30 0.03476
1189.40 0.03475
1189.50 0.03474
1189.60 0.03473
1189.70 0.03471
1189.80 0.0347
1189.90 0.03469
1190.00 0.03468
1190.10 0.03467
1190.20 0.03466
1190.30 0.03465
1190.40 0.03463
1190.50 0.03462
1190.60 0.03461
1190.70 0.0346
1190.80 0.03459
1190.90 0.03458
1191.00 0.03457
1191.10 0.03456
1191.20 0.03454
1191.30 0.03453
1191.40 0.03452
1191.50 0.03451
1191.60 0.0345
1191.70 0.03449
1191.80 0.03448
1191.90 0.03446
1192.00 0.03445
1192.10 0.03444
1192.20 0.03443
1192.30 0.03442
1192.40 0.03441
1192.50 0.0344
1192.60 0.03439
1192.70 0.03437
1192.80 0.03436
1192.90 0.03435
1193.00 0.03434
1193.10 0.03433
1193.20 0.03432
1193.30 0.03431
1193.40 0.0343
1193.50 0.03428
1193.60 0.03427
1193.70 0.03426
1193.80 0.03425
1193.90 0.03424
1194.00 0.03423
1194.10 0.03422
1194.20 0.03421
1194.30 0.03419
1194.40 0.03418
1194.50 0.03417
1194.60 0.03416
1194.70 0.03415
1194.80 0.03414
1194.90 0.03413
1195.00 0.03412
1195.10 0.03411
1195.20 0.03409
1195.30 0.03408
1195.40 0.03407
1195.50 0.03406
1195.60 0.03405
1195.70 0.03404
1195.80 0.03403
1195.90 0.03402
1196.00 0.03401
1196.10 0.03399
1196.20 0.03398
1196.30 0.03397
1196.40 0.03396
1196.50 0.03395
1196.60 0.03394
1196.70 0.03393
1196.80 0.03392
1196.90 0.03391
1197.00 0.03389
1197.10 0.03388
1197.20 0.03387
1197.30 0.03386
1197.40 0.03385
1197.50 0.03384
1197.60 0.03383
1197.70 0.03382
1197.80 0.03381
1197.90 0.03379
1198.00 0.03378
1198.10 0.03377
1198.20 0.03376
1198.30 0.03375
1198.40 0.03374
1198.50 0.03373
1198.60 0.03372
1198.70 0.03371
1198.80 0.0337
1198.90 0.03368
1199.00 0.03367
1199.10 0.03366
1199.20 0.03365
1199.30 0.03364
1199.40 0.03363
1199.50 0.03362
1199.60 0.03361
1199.70 0.0336
1199.80 0.03359
1199.90 0.03358
1200.00 0
