# Version 2.1 - nm, norm@500 to 1, cut digits, bergeron_80000_65.dat_80000
# Wavelength(nm)  Flambda(ergs/cm^s/s/nm)
300.00 6.653
300.10 6.645
300.20 6.637
300.30 6.629
300.40 6.62
300.50 6.612
300.60 6.604
300.70 6.596
300.80 6.588
300.90 6.58
301.00 6.571
301.10 6.563
301.20 6.555
301.30 6.547
301.40 6.539
301.50 6.531
301.60 6.523
301.70 6.515
301.80 6.507
301.90 6.499
302.00 6.491
302.10 6.483
302.20 6.475
302.30 6.467
302.40 6.459
302.50 6.451
302.60 6.443
302.70 6.435
302.80 6.427
302.90 6.419
303.00 6.411
303.10 6.403
303.20 6.396
303.30 6.388
303.40 6.38
303.50 6.372
303.60 6.364
303.70 6.356
303.80 6.349
303.90 6.341
304.00 6.333
304.10 6.325
304.20 6.318
304.30 6.31
304.40 6.302
304.50 6.294
304.60 6.287
304.70 6.279
304.80 6.271
304.90 6.264
305.00 6.256
305.10 6.248
305.20 6.241
305.30 6.233
305.40 6.226
305.50 6.218
305.60 6.21
305.70 6.203
305.80 6.195
305.90 6.188
306.00 6.18
306.10 6.173
306.20 6.165
306.30 6.158
306.40 6.15
306.50 6.143
306.60 6.135
306.70 6.128
306.80 6.12
306.90 6.113
307.00 6.105
307.10 6.098
307.20 6.091
307.30 6.083
307.40 6.076
307.50 6.069
307.60 6.061
307.70 6.054
307.80 6.047
307.90 6.039
308.00 6.032
308.10 6.025
308.20 6.017
308.30 6.01
308.40 6.003
308.50 5.996
308.60 5.988
308.70 5.981
308.80 5.974
308.90 5.967
309.00 5.959
309.10 5.952
309.20 5.945
309.30 5.938
309.40 5.931
309.50 5.924
309.60 5.916
309.70 5.909
309.80 5.902
309.90 5.895
310.00 5.888
310.10 5.881
310.20 5.874
310.30 5.867
310.40 5.86
310.50 5.853
310.60 5.846
310.70 5.839
310.80 5.832
310.90 5.825
311.00 5.818
311.10 5.811
311.20 5.804
311.30 5.797
311.40 5.79
311.50 5.783
311.60 5.776
311.70 5.769
311.80 5.762
311.90 5.755
312.00 5.748
312.10 5.742
312.20 5.735
312.30 5.728
312.40 5.721
312.50 5.714
312.60 5.707
312.70 5.701
312.80 5.694
312.90 5.687
313.00 5.68
313.10 5.673
313.20 5.667
313.30 5.66
313.40 5.653
313.50 5.647
313.60 5.64
313.70 5.633
313.80 5.626
313.90 5.62
314.00 5.613
314.10 5.606
314.20 5.6
314.30 5.593
314.40 5.586
314.50 5.58
314.60 5.573
314.70 5.567
314.80 5.56
314.90 5.553
315.00 5.547
315.10 5.54
315.20 5.534
315.30 5.527
315.40 5.521
315.50 5.514
315.60 5.508
315.70 5.501
315.80 5.494
315.90 5.488
316.00 5.482
316.10 5.475
316.20 5.469
316.30 5.462
316.40 5.456
316.50 5.449
316.60 5.443
316.70 5.436
316.80 5.43
316.90 5.424
317.00 5.417
317.10 5.411
317.20 5.404
317.30 5.398
317.40 5.392
317.50 5.385
317.60 5.379
317.70 5.373
317.80 5.366
317.90 5.36
318.00 5.354
318.10 5.348
318.20 5.341
318.30 5.335
318.40 5.329
318.50 5.323
318.60 5.316
318.70 5.31
318.80 5.304
318.90 5.298
319.00 5.291
319.10 5.285
319.20 5.279
319.30 5.273
319.40 5.267
319.50 5.261
319.60 5.254
319.70 5.248
319.80 5.242
319.90 5.236
320.00 5.23
320.10 5.224
320.20 5.218
320.30 5.212
320.40 5.206
320.50 5.199
320.60 5.193
320.70 5.187
320.80 5.181
320.90 5.175
321.00 5.169
321.10 5.163
321.20 5.157
321.30 5.151
321.40 5.145
321.50 5.139
321.60 5.133
321.70 5.127
321.80 5.121
321.90 5.115
322.00 5.11
322.10 5.104
322.20 5.098
322.30 5.092
322.40 5.086
322.50 5.08
322.60 5.074
322.70 5.068
322.80 5.062
322.90 5.056
323.00 5.051
323.10 5.045
323.20 5.039
323.30 5.033
323.40 5.027
323.50 5.022
323.60 5.016
323.70 5.01
323.80 5.004
323.90 4.998
324.00 4.993
324.10 4.987
324.20 4.981
324.30 4.975
324.40 4.97
324.50 4.964
324.60 4.958
324.70 4.952
324.80 4.947
324.90 4.941
325.00 4.935
325.10 4.93
325.20 4.924
325.30 4.918
325.40 4.913
325.50 4.907
325.60 4.901
325.70 4.896
325.80 4.89
325.90 4.885
326.00 4.879
326.10 4.873
326.20 4.868
326.30 4.862
326.40 4.857
326.50 4.851
326.60 4.846
326.70 4.84
326.80 4.834
326.90 4.829
327.00 4.823
327.10 4.818
327.20 4.812
327.30 4.807
327.40 4.801
327.50 4.796
327.60 4.79
327.70 4.785
327.80 4.78
327.90 4.774
328.00 4.769
328.10 4.763
328.20 4.758
328.30 4.752
328.40 4.747
328.50 4.742
328.60 4.736
328.70 4.731
328.80 4.725
328.90 4.72
329.00 4.715
329.10 4.709
329.20 4.704
329.30 4.699
329.40 4.693
329.50 4.688
329.60 4.683
329.70 4.677
329.80 4.672
329.90 4.667
330.00 4.661
330.10 4.656
330.20 4.651
330.30 4.646
330.40 4.64
330.50 4.635
330.60 4.63
330.70 4.625
330.80 4.619
330.90 4.614
331.00 4.609
331.10 4.604
331.20 4.599
331.30 4.593
331.40 4.588
331.50 4.583
331.60 4.578
331.70 4.573
331.80 4.567
331.90 4.562
332.00 4.557
332.10 4.552
332.20 4.547
332.30 4.542
332.40 4.537
332.50 4.532
332.60 4.526
332.70 4.521
332.80 4.516
332.90 4.511
333.00 4.506
333.10 4.501
333.20 4.496
333.30 4.491
333.40 4.486
333.50 4.481
333.60 4.476
333.70 4.471
333.80 4.466
333.90 4.461
334.00 4.456
334.10 4.451
334.20 4.446
334.30 4.441
334.40 4.436
334.50 4.431
334.60 4.426
334.70 4.421
334.80 4.416
334.90 4.411
335.00 4.406
335.10 4.401
335.20 4.396
335.30 4.391
335.40 4.387
335.50 4.382
335.60 4.377
335.70 4.372
335.80 4.367
335.90 4.362
336.00 4.357
336.10 4.352
336.20 4.348
336.30 4.343
336.40 4.338
336.50 4.333
336.60 4.328
336.70 4.323
336.80 4.319
336.90 4.314
337.00 4.309
337.10 4.304
337.20 4.299
337.30 4.295
337.40 4.29
337.50 4.285
337.60 4.28
337.70 4.276
337.80 4.271
337.90 4.266
338.00 4.261
338.10 4.257
338.20 4.252
338.30 4.247
338.40 4.243
338.50 4.238
338.60 4.233
338.70 4.229
338.80 4.224
338.90 4.219
339.00 4.215
339.10 4.21
339.20 4.205
339.30 4.201
339.40 4.196
339.50 4.191
339.60 4.187
339.70 4.182
339.80 4.177
339.90 4.173
340.00 4.168
340.10 4.164
340.20 4.159
340.30 4.154
340.40 4.15
340.50 4.145
340.60 4.141
340.70 4.136
340.80 4.132
340.90 4.127
341.00 4.123
341.10 4.118
341.20 4.114
341.30 4.109
341.40 4.104
341.50 4.1
341.60 4.095
341.70 4.091
341.80 4.086
341.90 4.082
342.00 4.077
342.10 4.073
342.20 4.069
342.30 4.064
342.40 4.06
342.50 4.055
342.60 4.051
342.70 4.046
342.80 4.042
342.90 4.038
343.00 4.033
343.10 4.029
343.20 4.024
343.30 4.02
343.40 4.016
343.50 4.011
343.60 4.007
343.70 4.002
343.80 3.998
343.90 3.994
344.00 3.989
344.10 3.985
344.20 3.981
344.30 3.976
344.40 3.972
344.50 3.968
344.60 3.963
344.70 3.959
344.80 3.955
344.90 3.95
345.00 3.946
345.10 3.942
345.20 3.938
345.30 3.933
345.40 3.929
345.50 3.925
345.60 3.92
345.70 3.916
345.80 3.912
345.90 3.908
346.00 3.903
346.10 3.899
346.20 3.895
346.30 3.891
346.40 3.887
346.50 3.882
346.60 3.878
346.70 3.874
346.80 3.87
346.90 3.866
347.00 3.861
347.10 3.857
347.20 3.853
347.30 3.849
347.40 3.845
347.50 3.841
347.60 3.836
347.70 3.832
347.80 3.828
347.90 3.824
348.00 3.82
348.10 3.816
348.20 3.812
348.30 3.808
348.40 3.804
348.50 3.799
348.60 3.795
348.70 3.791
348.80 3.787
348.90 3.783
349.00 3.779
349.10 3.775
349.20 3.771
349.30 3.767
349.40 3.763
349.50 3.759
349.60 3.755
349.70 3.751
349.80 3.747
349.90 3.743
350.00 3.739
350.10 3.735
350.20 3.731
350.30 3.727
350.40 3.723
350.50 3.719
350.60 3.715
350.70 3.711
350.80 3.707
350.90 3.703
351.00 3.699
351.10 3.695
351.20 3.691
351.30 3.687
351.40 3.683
351.50 3.679
351.60 3.675
351.70 3.671
351.80 3.667
351.90 3.663
352.00 3.659
352.10 3.656
352.20 3.652
352.30 3.648
352.40 3.644
352.50 3.64
352.60 3.636
352.70 3.632
352.80 3.628
352.90 3.625
353.00 3.621
353.10 3.617
353.20 3.613
353.30 3.609
353.40 3.605
353.50 3.601
353.60 3.598
353.70 3.594
353.80 3.59
353.90 3.586
354.00 3.582
354.10 3.579
354.20 3.575
354.30 3.571
354.40 3.567
354.50 3.563
354.60 3.56
354.70 3.556
354.80 3.552
354.90 3.548
355.00 3.545
355.10 3.541
355.20 3.537
355.30 3.533
355.40 3.53
355.50 3.526
355.60 3.522
355.70 3.518
355.80 3.515
355.90 3.511
356.00 3.507
356.10 3.504
356.20 3.5
356.30 3.496
356.40 3.493
356.50 3.489
356.60 3.485
356.70 3.482
356.80 3.478
356.90 3.474
357.00 3.471
357.10 3.467
357.20 3.463
357.30 3.46
357.40 3.456
357.50 3.452
357.60 3.449
357.70 3.445
357.80 3.441
357.90 3.438
358.00 3.434
358.10 3.431
358.20 3.427
358.30 3.423
358.40 3.42
358.50 3.416
358.60 3.413
358.70 3.409
358.80 3.406
358.90 3.402
359.00 3.398
359.10 3.395
359.20 3.391
359.30 3.388
359.40 3.384
359.50 3.381
359.60 3.377
359.70 3.374
359.80 3.37
359.90 3.367
360.00 3.363
360.10 3.36
360.20 3.356
360.30 3.353
360.40 3.349
360.50 3.346
360.60 3.342
360.70 3.339
360.80 3.335
360.90 3.332
361.00 3.328
361.10 3.325
361.20 3.321
361.30 3.318
361.40 3.314
361.50 3.311
361.60 3.307
361.70 3.304
361.80 3.301
361.90 3.297
362.00 3.294
362.10 3.29
362.20 3.287
362.30 3.283
362.40 3.28
362.50 3.277
362.60 3.273
362.70 3.27
362.80 3.266
362.90 3.263
363.00 3.26
363.10 3.256
363.20 3.253
363.30 3.25
363.40 3.246
363.50 3.243
363.60 3.24
363.70 3.236
363.80 3.233
363.90 3.229
364.00 3.226
364.10 3.223
364.20 3.219
364.30 3.216
364.40 3.213
364.50 3.209
364.60 3.206
364.70 3.203
364.80 3.2
364.90 3.196
365.00 3.193
365.10 3.19
365.20 3.186
365.30 3.183
365.40 3.18
365.50 3.177
365.60 3.173
365.70 3.17
365.80 3.167
365.90 3.164
366.00 3.16
366.10 3.157
366.20 3.154
366.30 3.15
366.40 3.147
366.50 3.144
366.60 3.14
366.70 3.137
366.80 3.134
366.90 3.13
367.00 3.127
367.10 3.124
367.20 3.121
367.30 3.117
367.40 3.114
367.50 3.111
367.60 3.107
367.70 3.104
367.80 3.101
367.90 3.098
368.00 3.094
368.10 3.091
368.20 3.088
368.30 3.085
368.40 3.082
368.50 3.078
368.60 3.075
368.70 3.072
368.80 3.069
368.90 3.065
369.00 3.062
369.10 3.059
369.20 3.056
369.30 3.053
369.40 3.049
369.50 3.046
369.60 3.043
369.70 3.04
369.80 3.037
369.90 3.034
370.00 3.03
370.10 3.027
370.20 3.024
370.30 3.021
370.40 3.018
370.50 3.015
370.60 3.012
370.70 3.009
370.80 3.005
370.90 3.002
371.00 2.999
371.10 2.996
371.20 2.993
371.30 2.99
371.40 2.987
371.50 2.984
371.60 2.981
371.70 2.978
371.80 2.975
371.90 2.971
372.00 2.968
372.10 2.965
372.20 2.962
372.30 2.96
372.40 2.957
372.50 2.954
372.60 2.951
372.70 2.948
372.80 2.945
372.90 2.942
373.00 2.939
373.10 2.936
373.20 2.933
373.30 2.93
373.40 2.927
373.50 2.924
373.60 2.921
373.70 2.919
373.80 2.916
373.90 2.913
374.00 2.91
374.10 2.907
374.20 2.904
374.30 2.902
374.40 2.899
374.50 2.896
374.60 2.893
374.70 2.89
374.80 2.888
374.90 2.885
375.00 2.882
375.10 2.879
375.20 2.877
375.30 2.874
375.40 2.871
375.50 2.868
375.60 2.866
375.70 2.863
375.80 2.86
375.90 2.857
376.00 2.855
376.10 2.852
376.20 2.849
376.30 2.845
376.40 2.842
376.50 2.839
376.60 2.836
376.70 2.833
376.80 2.83
376.90 2.827
377.00 2.824
377.10 2.822
377.20 2.819
377.30 2.817
377.40 2.815
377.50 2.813
377.60 2.811
377.70 2.809
377.80 2.807
377.90 2.805
378.00 2.803
378.10 2.8
378.20 2.797
378.30 2.794
378.40 2.791
378.50 2.788
378.60 2.785
378.70 2.781
378.80 2.778
378.90 2.775
379.00 2.772
379.10 2.769
379.20 2.765
379.30 2.762
379.40 2.759
379.50 2.755
379.60 2.752
379.70 2.749
379.80 2.745
379.90 2.742
380.00 2.738
380.10 2.738
380.20 2.737
380.30 2.736
380.40 2.735
380.50 2.734
380.60 2.733
380.70 2.732
380.80 2.732
380.90 2.731
381.00 2.73
381.10 2.728
381.20 2.725
381.30 2.723
381.40 2.721
381.50 2.719
381.60 2.716
381.70 2.712
381.80 2.709
381.90 2.706
382.00 2.702
382.10 2.698
382.20 2.693
382.30 2.687
382.40 2.681
382.50 2.675
382.60 2.67
382.70 2.664
382.80 2.658
382.90 2.652
383.00 2.646
383.10 2.64
383.20 2.634
383.30 2.627
383.40 2.62
383.50 2.615
383.60 2.613
383.70 2.615
383.80 2.617
383.90 2.62
384.00 2.623
384.10 2.625
384.20 2.627
384.30 2.629
384.40 2.631
384.50 2.632
384.60 2.633
384.70 2.634
384.80 2.634
384.90 2.635
385.00 2.635
385.10 2.634
385.20 2.634
385.30 2.633
385.40 2.632
385.50 2.631
385.60 2.63
385.70 2.628
385.80 2.626
385.90 2.624
386.00 2.622
386.10 2.619
386.20 2.617
386.30 2.614
386.40 2.61
386.50 2.607
386.60 2.603
386.70 2.599
386.80 2.595
386.90 2.59
387.00 2.585
387.10 2.58
387.20 2.575
387.30 2.569
387.40 2.563
387.50 2.556
387.60 2.549
387.70 2.541
387.80 2.533
387.90 2.525
388.00 2.516
388.10 2.507
388.20 2.497
388.30 2.486
388.40 2.475
388.50 2.463
388.60 2.452
388.70 2.44
388.80 2.431
388.90 2.425
389.00 2.426
389.10 2.43
389.20 2.437
389.30 2.445
389.40 2.452
389.50 2.459
389.60 2.465
389.70 2.47
389.80 2.476
389.90 2.48
390.00 2.484
390.10 2.488
390.20 2.491
390.30 2.493
390.40 2.496
390.50 2.498
390.60 2.499
390.70 2.501
390.80 2.502
390.90 2.503
391.00 2.503
391.10 2.503
391.20 2.503
391.30 2.503
391.40 2.503
391.50 2.502
391.60 2.502
391.70 2.501
391.80 2.5
391.90 2.498
392.00 2.497
392.10 2.496
392.20 2.494
392.30 2.492
392.40 2.491
392.50 2.489
392.60 2.487
392.70 2.485
392.80 2.482
392.90 2.48
393.00 2.478
393.10 2.475
393.20 2.472
393.30 2.47
393.40 2.467
393.50 2.464
393.60 2.461
393.70 2.458
393.80 2.454
393.90 2.451
394.00 2.447
394.10 2.443
394.20 2.439
394.30 2.435
394.40 2.431
394.50 2.426
394.60 2.421
394.70 2.416
394.80 2.411
394.90 2.405
395.00 2.399
395.10 2.393
395.20 2.386
395.30 2.379
395.40 2.371
395.50 2.363
395.60 2.354
395.70 2.345
395.80 2.335
395.90 2.324
396.00 2.313
396.10 2.301
396.20 2.288
396.30 2.274
396.40 2.26
396.50 2.243
396.60 2.226
396.70 2.208
396.80 2.188
396.90 2.168
397.00 2.149
397.10 2.163
397.20 2.178
397.30 2.194
397.40 2.208
397.50 2.221
397.60 2.233
397.70 2.244
397.80 2.253
397.90 2.262
398.00 2.27
398.10 2.277
398.20 2.284
398.30 2.289
398.40 2.294
398.50 2.299
398.60 2.302
398.70 2.306
398.80 2.308
398.90 2.311
399.00 2.313
399.10 2.315
399.20 2.316
399.30 2.317
399.40 2.318
399.50 2.318
399.60 2.318
399.70 2.318
399.80 2.318
399.90 2.318
400.00 2.317
400.10 2.317
400.20 2.316
400.30 2.315
400.40 2.314
400.50 2.313
400.60 2.312
400.70 2.311
400.80 2.31
400.90 2.308
401.00 2.307
401.10 2.305
401.20 2.304
401.30 2.302
401.40 2.301
401.50 2.299
401.60 2.297
401.70 2.295
401.80 2.294
401.90 2.292
402.00 2.29
402.10 2.288
402.20 2.286
402.30 2.284
402.40 2.282
402.50 2.281
402.60 2.279
402.70 2.277
402.80 2.275
402.90 2.273
403.00 2.271
403.10 2.268
403.20 2.266
403.30 2.264
403.40 2.262
403.50 2.26
403.60 2.258
403.70 2.256
403.80 2.254
403.90 2.252
404.00 2.249
404.10 2.247
404.20 2.245
404.30 2.243
404.40 2.241
404.50 2.238
404.60 2.236
404.70 2.234
404.80 2.231
404.90 2.229
405.00 2.227
405.10 2.224
405.20 2.222
405.30 2.22
405.40 2.217
405.50 2.215
405.60 2.212
405.70 2.21
405.80 2.207
405.90 2.204
406.00 2.202
406.10 2.199
406.20 2.196
406.30 2.193
406.40 2.191
406.50 2.188
406.60 2.185
406.70 2.181
406.80 2.178
406.90 2.175
407.00 2.171
407.10 2.168
407.20 2.164
407.30 2.16
407.40 2.156
407.50 2.152
407.60 2.148
407.70 2.143
407.80 2.138
407.90 2.133
408.00 2.128
408.10 2.122
408.20 2.115
408.30 2.109
408.40 2.102
408.50 2.094
408.60 2.086
408.70 2.077
408.80 2.068
408.90 2.057
409.00 2.047
409.10 2.035
409.20 2.022
409.30 2.008
409.40 1.992
409.50 1.976
409.60 1.958
409.70 1.938
409.80 1.916
409.90 1.892
410.00 1.862
410.10 1.842
410.20 1.831
410.30 1.849
410.40 1.87
410.50 1.895
410.60 1.914
410.70 1.931
410.80 1.946
410.90 1.959
411.00 1.971
411.10 1.983
411.20 1.992
411.30 2
411.40 2.008
411.50 2.015
411.60 2.02
411.70 2.026
411.80 2.03
411.90 2.034
412.00 2.037
412.10 2.04
412.20 2.043
412.30 2.045
412.40 2.046
412.50 2.048
412.60 2.049
412.70 2.049
412.80 2.05
412.90 2.05
413.00 2.05
413.10 2.05
413.20 2.05
413.30 2.05
413.40 2.049
413.50 2.049
413.60 2.048
413.70 2.047
413.80 2.046
413.90 2.045
414.00 2.044
414.10 2.043
414.20 2.042
414.30 2.041
414.40 2.039
414.50 2.038
414.60 2.037
414.70 2.035
414.80 2.034
414.90 2.032
415.00 2.031
415.10 2.029
415.20 2.028
415.30 2.026
415.40 2.025
415.50 2.023
415.60 2.022
415.70 2.02
415.80 2.019
415.90 2.017
416.00 2.015
416.10 2.014
416.20 2.012
416.30 2.01
416.40 2.009
416.50 2.007
416.60 2.005
416.70 2.004
416.80 2.002
416.90 2
417.00 1.998
417.10 1.997
417.20 1.995
417.30 1.993
417.40 1.992
417.50 1.99
417.60 1.988
417.70 1.986
417.80 1.985
417.90 1.983
418.00 1.981
418.10 1.979
418.20 1.978
418.30 1.976
418.40 1.974
418.50 1.972
418.60 1.971
418.70 1.969
418.80 1.967
418.90 1.965
419.00 1.964
419.10 1.962
419.20 1.96
419.30 1.959
419.40 1.957
419.50 1.955
419.60 1.953
419.70 1.952
419.80 1.95
419.90 1.948
420.00 1.946
420.10 1.945
420.20 1.943
420.30 1.941
420.40 1.939
420.50 1.938
420.60 1.936
420.70 1.934
420.80 1.932
420.90 1.931
421.00 1.929
421.10 1.927
421.20 1.925
421.30 1.924
421.40 1.922
421.50 1.92
421.60 1.919
421.70 1.917
421.80 1.915
421.90 1.913
422.00 1.912
422.10 1.91
422.20 1.908
422.30 1.906
422.40 1.905
422.50 1.903
422.60 1.901
422.70 1.9
422.80 1.898
422.90 1.896
423.00 1.894
423.10 1.893
423.20 1.891
423.30 1.889
423.40 1.888
423.50 1.886
423.60 1.884
423.70 1.882
423.80 1.881
423.90 1.879
424.00 1.877
424.10 1.876
424.20 1.874
424.30 1.872
424.40 1.87
424.50 1.869
424.60 1.867
424.70 1.865
424.80 1.864
424.90 1.862
425.00 1.86
425.10 1.858
425.20 1.857
425.30 1.855
425.40 1.853
425.50 1.852
425.60 1.85
425.70 1.848
425.80 1.847
425.90 1.845
426.00 1.843
426.10 1.841
426.20 1.84
426.30 1.838
426.40 1.836
426.50 1.835
426.60 1.833
426.70 1.831
426.80 1.829
426.90 1.828
427.00 1.826
427.10 1.824
427.20 1.823
427.30 1.821
427.40 1.819
427.50 1.817
427.60 1.816
427.70 1.814
427.80 1.812
427.90 1.81
428.00 1.809
428.10 1.807
428.20 1.805
428.30 1.803
428.40 1.801
428.50 1.8
428.60 1.798
428.70 1.796
428.80 1.794
428.90 1.792
429.00 1.79
429.10 1.788
429.20 1.787
429.30 1.785
429.40 1.783
429.50 1.781
429.60 1.779
429.70 1.777
429.80 1.775
429.90 1.773
430.00 1.77
430.10 1.768
430.20 1.766
430.30 1.764
430.40 1.761
430.50 1.759
430.60 1.757
430.70 1.754
430.80 1.752
430.90 1.749
431.00 1.746
431.10 1.743
431.20 1.74
431.30 1.737
431.40 1.734
431.50 1.73
431.60 1.726
431.70 1.723
431.80 1.718
431.90 1.714
432.00 1.709
432.10 1.704
432.20 1.699
432.30 1.693
432.40 1.687
432.50 1.679
432.60 1.672
432.70 1.664
432.80 1.655
432.90 1.645
433.00 1.635
433.10 1.623
433.20 1.61
433.30 1.596
433.40 1.581
433.50 1.563
433.60 1.545
433.70 1.521
433.80 1.493
433.90 1.459
434.00 1.425
434.10 1.425
434.20 1.458
434.30 1.488
434.40 1.514
434.50 1.534
434.60 1.55
434.70 1.564
434.80 1.577
434.90 1.588
435.00 1.598
435.10 1.607
435.20 1.614
435.30 1.621
435.40 1.627
435.50 1.632
435.60 1.636
435.70 1.64
435.80 1.643
435.90 1.646
436.00 1.648
436.10 1.65
436.20 1.652
436.30 1.653
436.40 1.654
436.50 1.655
436.60 1.656
436.70 1.656
436.80 1.656
436.90 1.656
437.00 1.656
437.10 1.656
437.20 1.656
437.30 1.655
437.40 1.655
437.50 1.654
437.60 1.654
437.70 1.653
437.80 1.652
437.90 1.651
438.00 1.651
438.10 1.65
438.20 1.649
438.30 1.648
438.40 1.647
438.50 1.646
438.60 1.645
438.70 1.644
438.80 1.642
438.90 1.641
439.00 1.64
439.10 1.639
439.20 1.638
439.30 1.637
439.40 1.635
439.50 1.634
439.60 1.633
439.70 1.632
439.80 1.631
439.90 1.629
440.00 1.628
440.10 1.627
440.20 1.625
440.30 1.624
440.40 1.623
440.50 1.622
440.60 1.62
440.70 1.619
440.80 1.618
440.90 1.616
441.00 1.615
441.10 1.614
441.20 1.612
441.30 1.611
441.40 1.61
441.50 1.608
441.60 1.607
441.70 1.606
441.80 1.604
441.90 1.603
442.00 1.602
442.10 1.6
442.20 1.599
442.30 1.598
442.40 1.597
442.50 1.595
442.60 1.594
442.70 1.593
442.80 1.591
442.90 1.59
443.00 1.588
443.10 1.587
443.20 1.586
443.30 1.584
443.40 1.583
443.50 1.582
443.60 1.58
443.70 1.579
443.80 1.578
443.90 1.577
444.00 1.575
444.10 1.574
444.20 1.572
444.30 1.571
444.40 1.57
444.50 1.569
444.60 1.567
444.70 1.566
444.80 1.565
444.90 1.563
445.00 1.562
445.10 1.561
445.20 1.559
445.30 1.558
445.40 1.557
445.50 1.555
445.60 1.554
445.70 1.553
445.80 1.551
445.90 1.55
446.00 1.549
446.10 1.547
446.20 1.546
446.30 1.545
446.40 1.543
446.50 1.542
446.60 1.541
446.70 1.54
446.80 1.538
446.90 1.537
447.00 1.536
447.10 1.534
447.20 1.533
447.30 1.532
447.40 1.53
447.50 1.529
447.60 1.528
447.70 1.526
447.80 1.525
447.90 1.524
448.00 1.523
448.10 1.521
448.20 1.52
448.30 1.519
448.40 1.517
448.50 1.516
448.60 1.515
448.70 1.514
448.80 1.512
448.90 1.511
449.00 1.51
449.10 1.508
449.20 1.507
449.30 1.506
449.40 1.505
449.50 1.503
449.60 1.502
449.70 1.501
449.80 1.5
449.90 1.498
450.00 1.497
450.10 1.496
450.20 1.494
450.30 1.493
450.40 1.492
450.50 1.491
450.60 1.489
450.70 1.488
450.80 1.487
450.90 1.486
451.00 1.484
451.10 1.483
451.20 1.482
451.30 1.481
451.40 1.479
451.50 1.478
451.60 1.477
451.70 1.476
451.80 1.474
451.90 1.473
452.00 1.472
452.10 1.471
452.20 1.469
452.30 1.468
452.40 1.467
452.50 1.466
452.60 1.464
452.70 1.463
452.80 1.462
452.90 1.461
453.00 1.46
453.10 1.458
453.20 1.457
453.30 1.456
453.40 1.455
453.50 1.453
453.60 1.452
453.70 1.451
453.80 1.45
453.90 1.449
454.00 1.447
454.10 1.446
454.20 1.445
454.30 1.444
454.40 1.442
454.50 1.441
454.60 1.44
454.70 1.439
454.80 1.438
454.90 1.436
455.00 1.435
455.10 1.434
455.20 1.433
455.30 1.432
455.40 1.43
455.50 1.429
455.60 1.428
455.70 1.427
455.80 1.426
455.90 1.424
456.00 1.423
456.10 1.422
456.20 1.421
456.30 1.42
456.40 1.418
456.50 1.417
456.60 1.416
456.70 1.415
456.80 1.414
456.90 1.413
457.00 1.411
457.10 1.41
457.20 1.409
457.30 1.408
457.40 1.407
457.50 1.405
457.60 1.404
457.70 1.403
457.80 1.402
457.90 1.401
458.00 1.4
458.10 1.398
458.20 1.397
458.30 1.396
458.40 1.395
458.50 1.394
458.60 1.393
458.70 1.391
458.80 1.39
458.90 1.389
459.00 1.388
459.10 1.387
459.20 1.386
459.30 1.384
459.40 1.383
459.50 1.382
459.60 1.381
459.70 1.38
459.80 1.379
459.90 1.378
460.00 1.376
460.10 1.375
460.20 1.374
460.30 1.373
460.40 1.372
460.50 1.371
460.60 1.37
460.70 1.368
460.80 1.367
460.90 1.366
461.00 1.365
461.10 1.364
461.20 1.363
461.30 1.362
461.40 1.361
461.50 1.359
461.60 1.358
461.70 1.357
461.80 1.356
461.90 1.355
462.00 1.354
462.10 1.353
462.20 1.352
462.30 1.35
462.40 1.349
462.50 1.348
462.60 1.347
462.70 1.346
462.80 1.345
462.90 1.344
463.00 1.343
463.10 1.342
463.20 1.34
463.30 1.339
463.40 1.338
463.50 1.337
463.60 1.336
463.70 1.335
463.80 1.334
463.90 1.333
464.00 1.332
464.10 1.33
464.20 1.329
464.30 1.328
464.40 1.327
464.50 1.326
464.60 1.325
464.70 1.324
464.80 1.323
464.90 1.322
465.00 1.321
465.10 1.32
465.20 1.318
465.30 1.317
465.40 1.316
465.50 1.315
465.60 1.314
465.70 1.313
465.80 1.312
465.90 1.311
466.00 1.31
466.10 1.309
466.20 1.308
466.30 1.307
466.40 1.306
466.50 1.304
466.60 1.303
466.70 1.302
466.80 1.301
466.90 1.3
467.00 1.299
467.10 1.298
467.20 1.297
467.30 1.296
467.40 1.295
467.50 1.294
467.60 1.293
467.70 1.292
467.80 1.291
467.90 1.29
468.00 1.288
468.10 1.287
468.20 1.286
468.30 1.285
468.40 1.284
468.50 1.283
468.60 1.282
468.70 1.281
468.80 1.28
468.90 1.279
469.00 1.278
469.10 1.277
469.20 1.276
469.30 1.275
469.40 1.274
469.50 1.273
469.60 1.272
469.70 1.271
469.80 1.27
469.90 1.269
470.00 1.268
470.10 1.266
470.20 1.265
470.30 1.264
470.40 1.263
470.50 1.262
470.60 1.261
470.70 1.26
470.80 1.259
470.90 1.258
471.00 1.257
471.10 1.256
471.20 1.255
471.30 1.254
471.40 1.253
471.50 1.252
471.60 1.251
471.70 1.25
471.80 1.249
471.90 1.248
472.00 1.247
472.10 1.246
472.20 1.245
472.30 1.244
472.40 1.243
472.50 1.242
472.60 1.241
472.70 1.24
472.80 1.239
472.90 1.238
473.00 1.237
473.10 1.236
473.20 1.235
473.30 1.234
473.40 1.233
473.50 1.232
473.60 1.231
473.70 1.23
473.80 1.229
473.90 1.228
474.00 1.227
474.10 1.226
474.20 1.225
474.30 1.224
474.40 1.223
474.50 1.222
474.60 1.221
474.70 1.22
474.80 1.219
474.90 1.218
475.00 1.217
475.10 1.216
475.20 1.215
475.30 1.214
475.40 1.213
475.50 1.212
475.60 1.211
475.70 1.21
475.80 1.209
475.90 1.208
476.00 1.207
476.10 1.206
476.20 1.205
476.30 1.204
476.40 1.203
476.50 1.202
476.60 1.201
476.70 1.2
476.80 1.199
476.90 1.198
477.00 1.197
477.10 1.196
477.20 1.195
477.30 1.194
477.40 1.193
477.50 1.192
477.60 1.191
477.70 1.19
477.80 1.189
477.90 1.188
478.00 1.187
478.10 1.186
478.20 1.185
478.30 1.184
478.40 1.183
478.50 1.182
478.60 1.181
478.70 1.18
478.80 1.179
478.90 1.178
479.00 1.177
479.10 1.176
479.20 1.175
479.30 1.174
479.40 1.173
479.50 1.172
479.60 1.171
479.70 1.17
479.80 1.169
479.90 1.168
480.00 1.167
480.10 1.166
480.20 1.165
480.30 1.164
480.40 1.163
480.50 1.162
480.60 1.16
480.70 1.159
480.80 1.158
480.90 1.157
481.00 1.156
481.10 1.155
481.20 1.154
481.30 1.153
481.40 1.152
481.50 1.15
481.60 1.149
481.70 1.148
481.80 1.147
481.90 1.146
482.00 1.144
482.10 1.143
482.20 1.142
482.30 1.14
482.40 1.139
482.50 1.137
482.60 1.136
482.70 1.134
482.80 1.133
482.90 1.131
483.00 1.13
483.10 1.129
483.20 1.127
483.30 1.124
483.40 1.122
483.50 1.12
483.60 1.117
483.70 1.115
483.80 1.113
483.90 1.111
484.00 1.108
484.10 1.106
484.20 1.103
484.30 1.099
484.40 1.095
484.50 1.092
484.60 1.088
484.70 1.083
484.80 1.077
484.90 1.071
485.00 1.066
485.10 1.06
485.20 1.053
485.30 1.045
485.40 1.036
485.50 1.026
485.60 1.014
485.70 1.001
485.80 0.9821
485.90 0.9604
486.00 0.9269
486.10 0.8977
486.20 0.8992
486.30 0.9389
486.40 0.9635
486.50 0.984
486.60 0.9983
486.70 1.01
486.80 1.019
486.90 1.027
487.00 1.034
487.10 1.04
487.20 1.045
487.30 1.049
487.40 1.053
487.50 1.057
487.60 1.061
487.70 1.063
487.80 1.065
487.90 1.067
488.00 1.069
488.10 1.071
488.20 1.072
488.30 1.072
488.40 1.073
488.50 1.073
488.60 1.074
488.70 1.074
488.80 1.075
488.90 1.075
489.00 1.076
489.10 1.076
489.20 1.076
489.30 1.076
489.40 1.076
489.50 1.075
489.60 1.075
489.70 1.075
489.80 1.074
489.90 1.074
490.00 1.074
490.10 1.074
490.20 1.073
490.30 1.072
490.40 1.072
490.50 1.071
490.60 1.071
490.70 1.07
490.80 1.07
490.90 1.069
491.00 1.068
491.10 1.068
491.20 1.067
491.30 1.066
491.40 1.066
491.50 1.065
491.60 1.064
491.70 1.064
491.80 1.063
491.90 1.062
492.00 1.062
492.10 1.061
492.20 1.06
492.30 1.059
492.40 1.059
492.50 1.058
492.60 1.057
492.70 1.056
492.80 1.056
492.90 1.055
493.00 1.054
493.10 1.053
493.20 1.053
493.30 1.052
493.40 1.051
493.50 1.05
493.60 1.05
493.70 1.049
493.80 1.048
493.90 1.047
494.00 1.046
494.10 1.046
494.20 1.045
494.30 1.044
494.40 1.043
494.50 1.043
494.60 1.042
494.70 1.041
494.80 1.04
494.90 1.039
495.00 1.039
495.10 1.038
495.20 1.037
495.30 1.036
495.40 1.036
495.50 1.035
495.60 1.034
495.70 1.033
495.80 1.032
495.90 1.032
496.00 1.031
496.10 1.03
496.20 1.029
496.30 1.029
496.40 1.028
496.50 1.027
496.60 1.026
496.70 1.025
496.80 1.025
496.90 1.024
497.00 1.023
497.10 1.022
497.20 1.022
497.30 1.021
497.40 1.02
497.50 1.019
497.60 1.018
497.70 1.018
497.80 1.017
497.90 1.016
498.00 1.015
498.10 1.015
498.20 1.014
498.30 1.013
498.40 1.012
498.50 1.011
498.60 1.011
498.70 1.01
498.80 1.009
498.90 1.008
499.00 1.008
499.10 1.007
499.20 1.006
499.30 1.005
499.40 1.005
499.50 1.004
499.60 1.003
499.70 1.002
499.80 1.002
499.90 1.001
500.00 1
500.10 0.9992
500.20 0.9985
500.30 0.9977
500.40 0.997
500.50 0.9962
500.60 0.9954
500.70 0.9947
500.80 0.9939
500.90 0.9932
501.00 0.9924
501.10 0.9917
501.20 0.9909
501.30 0.9902
501.40 0.9894
501.50 0.9886
501.60 0.9879
501.70 0.9871
501.80 0.9864
501.90 0.9856
502.00 0.9849
502.10 0.9841
502.20 0.9834
502.30 0.9826
502.40 0.9819
502.50 0.9812
502.60 0.9804
502.70 0.9797
502.80 0.9789
502.90 0.9782
503.00 0.9774
503.10 0.9767
503.20 0.976
503.30 0.9752
503.40 0.9745
503.50 0.9737
503.60 0.973
503.70 0.9723
503.80 0.9715
503.90 0.9708
504.00 0.97
504.10 0.9693
504.20 0.9686
504.30 0.9678
504.40 0.9671
504.50 0.9664
504.60 0.9656
504.70 0.9649
504.80 0.9642
504.90 0.9634
505.00 0.9627
505.10 0.962
505.20 0.9613
505.30 0.9605
505.40 0.9598
505.50 0.9591
505.60 0.9583
505.70 0.9576
505.80 0.9569
505.90 0.9562
506.00 0.9554
506.10 0.9547
506.20 0.954
506.30 0.9533
506.40 0.9526
506.50 0.9518
506.60 0.9511
506.70 0.9504
506.80 0.9497
506.90 0.949
507.00 0.9483
507.10 0.9475
507.20 0.9468
507.30 0.9461
507.40 0.9454
507.50 0.9447
507.60 0.944
507.70 0.9433
507.80 0.9425
507.90 0.9418
508.00 0.9411
508.10 0.9404
508.20 0.9397
508.30 0.939
508.40 0.9383
508.50 0.9376
508.60 0.9369
508.70 0.9362
508.80 0.9355
508.90 0.9348
509.00 0.9341
509.10 0.9334
509.20 0.9327
509.30 0.932
509.40 0.9313
509.50 0.9306
509.60 0.9299
509.70 0.9292
509.80 0.9285
509.90 0.9278
510.00 0.9271
510.10 0.9264
510.20 0.9257
510.30 0.925
510.40 0.9243
510.50 0.9236
510.60 0.9229
510.70 0.9222
510.80 0.9215
510.90 0.9208
511.00 0.9201
511.10 0.9194
511.20 0.9187
511.30 0.9181
511.40 0.9174
511.50 0.9167
511.60 0.916
511.70 0.9153
511.80 0.9146
511.90 0.9139
512.00 0.9133
512.10 0.9126
512.20 0.9119
512.30 0.9112
512.40 0.9105
512.50 0.9098
512.60 0.9092
512.70 0.9085
512.80 0.9078
512.90 0.9071
513.00 0.9064
513.10 0.9058
513.20 0.9051
513.30 0.9044
513.40 0.9037
513.50 0.9031
513.60 0.9024
513.70 0.9017
513.80 0.901
513.90 0.9004
514.00 0.8997
514.10 0.899
514.20 0.8984
514.30 0.8977
514.40 0.897
514.50 0.8964
514.60 0.8957
514.70 0.895
514.80 0.8944
514.90 0.8937
515.00 0.893
515.10 0.8924
515.20 0.8917
515.30 0.891
515.40 0.8904
515.50 0.8897
515.60 0.889
515.70 0.8884
515.80 0.8877
515.90 0.8871
516.00 0.8864
516.10 0.8857
516.20 0.8851
516.30 0.8844
516.40 0.8838
516.50 0.8831
516.60 0.8825
516.70 0.8818
516.80 0.8811
516.90 0.8805
517.00 0.8798
517.10 0.8792
517.20 0.8785
517.30 0.8779
517.40 0.8772
517.50 0.8766
517.60 0.8759
517.70 0.8753
517.80 0.8746
517.90 0.874
518.00 0.8733
518.10 0.8727
518.20 0.872
518.30 0.8714
518.40 0.8708
518.50 0.8701
518.60 0.8695
518.70 0.8688
518.80 0.8682
518.90 0.8675
519.00 0.8669
519.10 0.8663
519.20 0.8656
519.30 0.865
519.40 0.8643
519.50 0.8637
519.60 0.8631
519.70 0.8624
519.80 0.8618
519.90 0.8612
520.00 0.8605
520.10 0.8599
520.20 0.8592
520.30 0.8586
520.40 0.858
520.50 0.8574
520.60 0.8567
520.70 0.8561
520.80 0.8555
520.90 0.8548
521.00 0.8542
521.10 0.8536
521.20 0.8529
521.30 0.8523
521.40 0.8517
521.50 0.8511
521.60 0.8504
521.70 0.8498
521.80 0.8492
521.90 0.8486
522.00 0.8479
522.10 0.8473
522.20 0.8467
522.30 0.8461
522.40 0.8454
522.50 0.8448
522.60 0.8442
522.70 0.8436
522.80 0.843
522.90 0.8423
523.00 0.8417
523.10 0.8411
523.20 0.8405
523.30 0.8399
523.40 0.8393
523.50 0.8386
523.60 0.838
523.70 0.8374
523.80 0.8368
523.90 0.8362
524.00 0.8356
524.10 0.835
524.20 0.8343
524.30 0.8337
524.40 0.8331
524.50 0.8325
524.60 0.8319
524.70 0.8313
524.80 0.8307
524.90 0.8301
525.00 0.8295
525.10 0.8289
525.20 0.8283
525.30 0.8277
525.40 0.8271
525.50 0.8265
525.60 0.8259
525.70 0.8253
525.80 0.8246
525.90 0.824
526.00 0.8234
526.10 0.8228
526.20 0.8222
526.30 0.8216
526.40 0.821
526.50 0.8204
526.60 0.8198
526.70 0.8193
526.80 0.8187
526.90 0.8181
527.00 0.8175
527.10 0.8169
527.20 0.8163
527.30 0.8157
527.40 0.8151
527.50 0.8145
527.60 0.8139
527.70 0.8133
527.80 0.8127
527.90 0.8121
528.00 0.8115
528.10 0.8109
528.20 0.8104
528.30 0.8098
528.40 0.8092
528.50 0.8086
528.60 0.808
528.70 0.8074
528.80 0.8068
528.90 0.8062
529.00 0.8057
529.10 0.8051
529.20 0.8045
529.30 0.8039
529.40 0.8033
529.50 0.8027
529.60 0.8022
529.70 0.8016
529.80 0.801
529.90 0.8004
530.00 0.7998
530.10 0.7993
530.20 0.7987
530.30 0.7981
530.40 0.7975
530.50 0.7969
530.60 0.7964
530.70 0.7958
530.80 0.7952
530.90 0.7946
531.00 0.7941
531.10 0.7935
531.20 0.7929
531.30 0.7923
531.40 0.7918
531.50 0.7912
531.60 0.7906
531.70 0.7901
531.80 0.7895
531.90 0.7889
532.00 0.7883
532.10 0.7878
532.20 0.7872
532.30 0.7866
532.40 0.7861
532.50 0.7855
532.60 0.7849
532.70 0.7844
532.80 0.7838
532.90 0.7832
533.00 0.7827
533.10 0.7821
533.20 0.7816
533.30 0.781
533.40 0.7804
533.50 0.7799
533.60 0.7793
533.70 0.7787
533.80 0.7782
533.90 0.7776
534.00 0.7771
534.10 0.7765
534.20 0.7759
534.30 0.7754
534.40 0.7748
534.50 0.7743
534.60 0.7737
534.70 0.7732
534.80 0.7726
534.90 0.7721
535.00 0.7715
535.10 0.7709
535.20 0.7704
535.30 0.7698
535.40 0.7693
535.50 0.7687
535.60 0.7682
535.70 0.7676
535.80 0.7671
535.90 0.7665
536.00 0.766
536.10 0.7654
536.20 0.7649
536.30 0.7643
536.40 0.7638
536.50 0.7632
536.60 0.7627
536.70 0.7622
536.80 0.7616
536.90 0.7611
537.00 0.7605
537.10 0.76
537.20 0.7594
537.30 0.7589
537.40 0.7583
537.50 0.7578
537.60 0.7573
537.70 0.7567
537.80 0.7562
537.90 0.7556
538.00 0.7551
538.10 0.7546
538.20 0.754
538.30 0.7535
538.40 0.7529
538.50 0.7524
538.60 0.7519
538.70 0.7513
538.80 0.7508
538.90 0.7503
539.00 0.7497
539.10 0.7492
539.20 0.7487
539.30 0.7481
539.40 0.7476
539.50 0.7471
539.60 0.7465
539.70 0.746
539.80 0.7455
539.90 0.7449
540.00 0.7444
540.10 0.7439
540.20 0.7434
540.30 0.7428
540.40 0.7423
540.50 0.7418
540.60 0.7412
540.70 0.7407
540.80 0.7402
540.90 0.7397
541.00 0.7391
541.10 0.7386
541.20 0.7381
541.30 0.7376
541.40 0.737
541.50 0.7365
541.60 0.736
541.70 0.7355
541.80 0.735
541.90 0.7344
542.00 0.7339
542.10 0.7334
542.20 0.7329
542.30 0.7323
542.40 0.7318
542.50 0.7313
542.60 0.7308
542.70 0.7303
542.80 0.7298
542.90 0.7292
543.00 0.7287
543.10 0.7282
543.20 0.7277
543.30 0.7272
543.40 0.7267
543.50 0.7262
543.60 0.7256
543.70 0.7251
543.80 0.7246
543.90 0.7241
544.00 0.7236
544.10 0.7231
544.20 0.7226
544.30 0.7221
544.40 0.7216
544.50 0.721
544.60 0.7205
544.70 0.72
544.80 0.7195
544.90 0.719
545.00 0.7185
545.10 0.718
545.20 0.7175
545.30 0.717
545.40 0.7165
545.50 0.716
545.60 0.7155
545.70 0.715
545.80 0.7145
545.90 0.714
546.00 0.7135
546.10 0.713
546.20 0.7125
546.30 0.712
546.40 0.7115
546.50 0.711
546.60 0.7105
546.70 0.71
546.80 0.7095
546.90 0.709
547.00 0.7085
547.10 0.708
547.20 0.7075
547.30 0.707
547.40 0.7065
547.50 0.706
547.60 0.7055
547.70 0.705
547.80 0.7045
547.90 0.704
548.00 0.7035
548.10 0.703
548.20 0.7025
548.30 0.702
548.40 0.7015
548.50 0.701
548.60 0.7006
548.70 0.7001
548.80 0.6996
548.90 0.6991
549.00 0.6986
549.10 0.6981
549.20 0.6976
549.30 0.6971
549.40 0.6966
549.50 0.6961
549.60 0.6957
549.70 0.6952
549.80 0.6947
549.90 0.6942
550.00 0.6937
550.10 0.6932
550.20 0.6927
550.30 0.6923
550.40 0.6918
550.50 0.6913
550.60 0.6908
550.70 0.6903
550.80 0.6899
550.90 0.6894
551.00 0.6889
551.10 0.6884
551.20 0.6879
551.30 0.6875
551.40 0.687
551.50 0.6865
551.60 0.686
551.70 0.6855
551.80 0.6851
551.90 0.6846
552.00 0.6841
552.10 0.6836
552.20 0.6832
552.30 0.6827
552.40 0.6822
552.50 0.6817
552.60 0.6813
552.70 0.6808
552.80 0.6803
552.90 0.6798
553.00 0.6794
553.10 0.6789
553.20 0.6784
553.30 0.6779
553.40 0.6775
553.50 0.677
553.60 0.6765
553.70 0.6761
553.80 0.6756
553.90 0.6751
554.00 0.6747
554.10 0.6742
554.20 0.6737
554.30 0.6733
554.40 0.6728
554.50 0.6723
554.60 0.6719
554.70 0.6714
554.80 0.6709
554.90 0.6705
555.00 0.67
555.10 0.6695
555.20 0.6691
555.30 0.6686
555.40 0.6681
555.50 0.6677
555.60 0.6672
555.70 0.6668
555.80 0.6663
555.90 0.6658
556.00 0.6654
556.10 0.6649
556.20 0.6645
556.30 0.664
556.40 0.6635
556.50 0.6631
556.60 0.6626
556.70 0.6622
556.80 0.6617
556.90 0.6612
557.00 0.6608
557.10 0.6603
557.20 0.6599
557.30 0.6594
557.40 0.659
557.50 0.6585
557.60 0.6581
557.70 0.6576
557.80 0.6572
557.90 0.6567
558.00 0.6562
558.10 0.6558
558.20 0.6553
558.30 0.6549
558.40 0.6544
558.50 0.654
558.60 0.6535
558.70 0.6531
558.80 0.6526
558.90 0.6522
559.00 0.6517
559.10 0.6513
559.20 0.6508
559.30 0.6504
559.40 0.65
559.50 0.6495
559.60 0.6491
559.70 0.6486
559.80 0.6482
559.90 0.6477
560.00 0.6473
560.10 0.6468
560.20 0.6464
560.30 0.6459
560.40 0.6455
560.50 0.6451
560.60 0.6446
560.70 0.6442
560.80 0.6437
560.90 0.6433
561.00 0.6429
561.10 0.6424
561.20 0.642
561.30 0.6415
561.40 0.6411
561.50 0.6407
561.60 0.6402
561.70 0.6398
561.80 0.6393
561.90 0.6389
562.00 0.6385
562.10 0.638
562.20 0.6376
562.30 0.6372
562.40 0.6367
562.50 0.6363
562.60 0.6358
562.70 0.6354
562.80 0.635
562.90 0.6345
563.00 0.6341
563.10 0.6337
563.20 0.6332
563.30 0.6328
563.40 0.6324
563.50 0.6319
563.60 0.6315
563.70 0.6311
563.80 0.6307
563.90 0.6302
564.00 0.6298
564.10 0.6294
564.20 0.6289
564.30 0.6285
564.40 0.6281
564.50 0.6277
564.60 0.6272
564.70 0.6268
564.80 0.6264
564.90 0.6259
565.00 0.6255
565.10 0.6251
565.20 0.6247
565.30 0.6242
565.40 0.6238
565.50 0.6234
565.60 0.623
565.70 0.6225
565.80 0.6221
565.90 0.6217
566.00 0.6213
566.10 0.6209
566.20 0.6204
566.30 0.62
566.40 0.6196
566.50 0.6192
566.60 0.6187
566.70 0.6183
566.80 0.6179
566.90 0.6175
567.00 0.6171
567.10 0.6167
567.20 0.6162
567.30 0.6158
567.40 0.6154
567.50 0.615
567.60 0.6146
567.70 0.6141
567.80 0.6137
567.90 0.6133
568.00 0.6129
568.10 0.6125
568.20 0.6121
568.30 0.6117
568.40 0.6112
568.50 0.6108
568.60 0.6104
568.70 0.61
568.80 0.6096
568.90 0.6092
569.00 0.6088
569.10 0.6084
569.20 0.6079
569.30 0.6075
569.40 0.6071
569.50 0.6067
569.60 0.6063
569.70 0.6059
569.80 0.6055
569.90 0.6051
570.00 0.6047
570.10 0.6043
570.20 0.6039
570.30 0.6034
570.40 0.603
570.50 0.6026
570.60 0.6022
570.70 0.6018
570.80 0.6014
570.90 0.601
571.00 0.6006
571.10 0.6002
571.20 0.5998
571.30 0.5994
571.40 0.599
571.50 0.5986
571.60 0.5982
571.70 0.5978
571.80 0.5974
571.90 0.597
572.00 0.5966
572.10 0.5962
572.20 0.5958
572.30 0.5954
572.40 0.595
572.50 0.5946
572.60 0.5942
572.70 0.5938
572.80 0.5934
572.90 0.593
573.00 0.5926
573.10 0.5922
573.20 0.5918
573.30 0.5914
573.40 0.591
573.50 0.5906
573.60 0.5902
573.70 0.5898
573.80 0.5894
573.90 0.589
574.00 0.5886
574.10 0.5882
574.20 0.5878
574.30 0.5874
574.40 0.587
574.50 0.5866
574.60 0.5862
574.70 0.5859
574.80 0.5855
574.90 0.5851
575.00 0.5847
575.10 0.5843
575.20 0.5839
575.30 0.5835
575.40 0.5831
575.50 0.5827
575.60 0.5823
575.70 0.5819
575.80 0.5816
575.90 0.5812
576.00 0.5808
576.10 0.5804
576.20 0.58
576.30 0.5796
576.40 0.5792
576.50 0.5788
576.60 0.5785
576.70 0.5781
576.80 0.5777
576.90 0.5773
577.00 0.5769
577.10 0.5765
577.20 0.5761
577.30 0.5758
577.40 0.5754
577.50 0.575
577.60 0.5746
577.70 0.5742
577.80 0.5738
577.90 0.5735
578.00 0.5731
578.10 0.5727
578.20 0.5723
578.30 0.5719
578.40 0.5716
578.50 0.5712
578.60 0.5708
578.70 0.5704
578.80 0.57
578.90 0.5697
579.00 0.5693
579.10 0.5689
579.20 0.5685
579.30 0.5681
579.40 0.5678
579.50 0.5674
579.60 0.567
579.70 0.5666
579.80 0.5663
579.90 0.5659
580.00 0.5655
580.10 0.5651
580.20 0.5648
580.30 0.5644
580.40 0.564
580.50 0.5636
580.60 0.5633
580.70 0.5629
580.80 0.5625
580.90 0.5621
581.00 0.5618
581.10 0.5614
581.20 0.561
581.30 0.5607
581.40 0.5603
581.50 0.5599
581.60 0.5595
581.70 0.5592
581.80 0.5588
581.90 0.5584
582.00 0.5581
582.10 0.5577
582.20 0.5573
582.30 0.557
582.40 0.5566
582.50 0.5562
582.60 0.5559
582.70 0.5555
582.80 0.5551
582.90 0.5548
583.00 0.5544
583.10 0.554
583.20 0.5537
583.30 0.5533
583.40 0.5529
583.50 0.5526
583.60 0.5522
583.70 0.5518
583.80 0.5515
583.90 0.5511
584.00 0.5507
584.10 0.5504
584.20 0.55
584.30 0.5497
584.40 0.5493
584.50 0.5489
584.60 0.5486
584.70 0.5482
584.80 0.5478
584.90 0.5475
585.00 0.5471
585.10 0.5468
585.20 0.5464
585.30 0.546
585.40 0.5457
585.50 0.5453
585.60 0.545
585.70 0.5446
585.80 0.5443
585.90 0.5439
586.00 0.5435
586.10 0.5432
586.20 0.5428
586.30 0.5425
586.40 0.5421
586.50 0.5418
586.60 0.5414
586.70 0.541
586.80 0.5407
586.90 0.5403
587.00 0.54
587.10 0.5396
587.20 0.5393
587.30 0.5389
587.40 0.5386
587.50 0.5382
587.60 0.5379
587.70 0.5375
587.80 0.5372
587.90 0.5368
588.00 0.5365
588.10 0.5361
588.20 0.5358
588.30 0.5354
588.40 0.5351
588.50 0.5347
588.60 0.5344
588.70 0.534
588.80 0.5337
588.90 0.5333
589.00 0.533
589.10 0.5326
589.20 0.5323
589.30 0.5319
589.40 0.5316
589.50 0.5312
589.60 0.5309
589.70 0.5305
589.80 0.5302
589.90 0.5298
590.00 0.5295
590.10 0.5291
590.20 0.5288
590.30 0.5284
590.40 0.5281
590.50 0.5278
590.60 0.5274
590.70 0.5271
590.80 0.5267
590.90 0.5264
591.00 0.526
591.10 0.5257
591.20 0.5254
591.30 0.525
591.40 0.5247
591.50 0.5243
591.60 0.524
591.70 0.5236
591.80 0.5233
591.90 0.523
592.00 0.5226
592.10 0.5223
592.20 0.5219
592.30 0.5216
592.40 0.5213
592.50 0.5209
592.60 0.5206
592.70 0.5203
592.80 0.5199
592.90 0.5196
593.00 0.5192
593.10 0.5189
593.20 0.5186
593.30 0.5182
593.40 0.5179
593.50 0.5176
593.60 0.5172
593.70 0.5169
593.80 0.5166
593.90 0.5162
594.00 0.5159
594.10 0.5155
594.20 0.5152
594.30 0.5149
594.40 0.5145
594.50 0.5142
594.60 0.5139
594.70 0.5135
594.80 0.5132
594.90 0.5129
595.00 0.5125
595.10 0.5122
595.20 0.5119
595.30 0.5116
595.40 0.5112
595.50 0.5109
595.60 0.5106
595.70 0.5102
595.80 0.5099
595.90 0.5096
596.00 0.5092
596.10 0.5089
596.20 0.5086
596.30 0.5083
596.40 0.5079
596.50 0.5076
596.60 0.5073
596.70 0.5069
596.80 0.5066
596.90 0.5063
597.00 0.506
597.10 0.5056
597.20 0.5053
597.30 0.505
597.40 0.5047
597.50 0.5043
597.60 0.504
597.70 0.5037
597.80 0.5034
597.90 0.503
598.00 0.5027
598.10 0.5024
598.20 0.5021
598.30 0.5017
598.40 0.5014
598.50 0.5011
598.60 0.5008
598.70 0.5005
598.80 0.5001
598.90 0.4998
599.00 0.4995
599.10 0.4992
599.20 0.4988
599.30 0.4985
599.40 0.4982
599.50 0.4979
599.60 0.4976
599.70 0.4972
599.80 0.4969
599.90 0.4966
600.00 0.4963
600.10 0.496
600.20 0.4956
600.30 0.4953
600.40 0.495
600.50 0.4947
600.60 0.4944
600.70 0.4941
600.80 0.4937
600.90 0.4934
601.00 0.4931
601.10 0.4928
601.20 0.4925
601.30 0.4922
601.40 0.4918
601.50 0.4915
601.60 0.4912
601.70 0.4909
601.80 0.4906
601.90 0.4903
602.00 0.49
602.10 0.4896
602.20 0.4893
602.30 0.489
602.40 0.4887
602.50 0.4884
602.60 0.4881
602.70 0.4878
602.80 0.4875
602.90 0.4871
603.00 0.4868
603.10 0.4865
603.20 0.4862
603.30 0.4859
603.40 0.4856
603.50 0.4853
603.60 0.485
603.70 0.4847
603.80 0.4844
603.90 0.484
604.00 0.4837
604.10 0.4834
604.20 0.4831
604.30 0.4828
604.40 0.4825
604.50 0.4822
604.60 0.4819
604.70 0.4816
604.80 0.4813
604.90 0.481
605.00 0.4807
605.10 0.4804
605.20 0.4801
605.30 0.4797
605.40 0.4794
605.50 0.4791
605.60 0.4788
605.70 0.4785
605.80 0.4782
605.90 0.4779
606.00 0.4776
606.10 0.4773
606.20 0.477
606.30 0.4767
606.40 0.4764
606.50 0.4761
606.60 0.4758
606.70 0.4755
606.80 0.4752
606.90 0.4749
607.00 0.4746
607.10 0.4743
607.20 0.474
607.30 0.4737
607.40 0.4734
607.50 0.4731
607.60 0.4728
607.70 0.4725
607.80 0.4722
607.90 0.4719
608.00 0.4716
608.10 0.4713
608.20 0.471
608.30 0.4707
608.40 0.4704
608.50 0.4701
608.60 0.4698
608.70 0.4695
608.80 0.4692
608.90 0.4689
609.00 0.4686
609.10 0.4683
609.20 0.468
609.30 0.4677
609.40 0.4674
609.50 0.4671
609.60 0.4668
609.70 0.4665
609.80 0.4662
609.90 0.4659
610.00 0.4657
610.10 0.4654
610.20 0.4651
610.30 0.4648
610.40 0.4645
610.50 0.4642
610.60 0.4639
610.70 0.4636
610.80 0.4633
610.90 0.463
611.00 0.4627
611.10 0.4624
611.20 0.4621
611.30 0.4618
611.40 0.4616
611.50 0.4613
611.60 0.461
611.70 0.4607
611.80 0.4604
611.90 0.4601
612.00 0.4598
612.10 0.4595
612.20 0.4592
612.30 0.4589
612.40 0.4587
612.50 0.4584
612.60 0.4581
612.70 0.4578
612.80 0.4575
612.90 0.4572
613.00 0.4569
613.10 0.4566
613.20 0.4564
613.30 0.4561
613.40 0.4558
613.50 0.4555
613.60 0.4552
613.70 0.4549
613.80 0.4546
613.90 0.4543
614.00 0.4541
614.10 0.4538
614.20 0.4535
614.30 0.4532
614.40 0.4529
614.50 0.4526
614.60 0.4524
614.70 0.4521
614.80 0.4518
614.90 0.4515
615.00 0.4512
615.10 0.4509
615.20 0.4507
615.30 0.4504
615.40 0.4501
615.50 0.4498
615.60 0.4495
615.70 0.4492
615.80 0.449
615.90 0.4487
616.00 0.4484
616.10 0.4481
616.20 0.4478
616.30 0.4476
616.40 0.4473
616.50 0.447
616.60 0.4467
616.70 0.4464
616.80 0.4462
616.90 0.4459
617.00 0.4456
617.10 0.4453
617.20 0.4451
617.30 0.4448
617.40 0.4445
617.50 0.4442
617.60 0.4439
617.70 0.4437
617.80 0.4434
617.90 0.4431
618.00 0.4428
618.10 0.4426
618.20 0.4423
618.30 0.442
618.40 0.4417
618.50 0.4415
618.60 0.4412
618.70 0.4409
618.80 0.4406
618.90 0.4404
619.00 0.4401
619.10 0.4398
619.20 0.4395
619.30 0.4393
619.40 0.439
619.50 0.4387
619.60 0.4384
619.70 0.4382
619.80 0.4379
619.90 0.4376
620.00 0.4373
620.10 0.4371
620.20 0.4368
620.30 0.4365
620.40 0.4363
620.50 0.436
620.60 0.4357
620.70 0.4354
620.80 0.4352
620.90 0.4349
621.00 0.4346
621.10 0.4344
621.20 0.4341
621.30 0.4338
621.40 0.4336
621.50 0.4333
621.60 0.433
621.70 0.4328
621.80 0.4325
621.90 0.4322
622.00 0.4319
622.10 0.4317
622.20 0.4314
622.30 0.4311
622.40 0.4309
622.50 0.4306
622.60 0.4303
622.70 0.4301
622.80 0.4298
622.90 0.4295
623.00 0.4293
623.10 0.429
623.20 0.4287
623.30 0.4285
623.40 0.4282
623.50 0.428
623.60 0.4277
623.70 0.4274
623.80 0.4272
623.90 0.4269
624.00 0.4266
624.10 0.4264
624.20 0.4261
624.30 0.4258
624.40 0.4256
624.50 0.4253
624.60 0.4251
624.70 0.4248
624.80 0.4245
624.90 0.4243
625.00 0.424
625.10 0.4237
625.20 0.4235
625.30 0.4232
625.40 0.423
625.50 0.4227
625.60 0.4224
625.70 0.4222
625.80 0.4219
625.90 0.4217
626.00 0.4214
626.10 0.4211
626.20 0.4209
626.30 0.4206
626.40 0.4204
626.50 0.4201
626.60 0.4198
626.70 0.4196
626.80 0.4193
626.90 0.4191
627.00 0.4188
627.10 0.4185
627.20 0.4183
627.30 0.418
627.40 0.4178
627.50 0.4175
627.60 0.4173
627.70 0.417
627.80 0.4167
627.90 0.4165
628.00 0.4162
628.10 0.416
628.20 0.4157
628.30 0.4155
628.40 0.4152
628.50 0.415
628.60 0.4147
628.70 0.4145
628.80 0.4142
628.90 0.4139
629.00 0.4137
629.10 0.4134
629.20 0.4132
629.30 0.4129
629.40 0.4127
629.50 0.4124
629.60 0.4122
629.70 0.4119
629.80 0.4117
629.90 0.4114
630.00 0.4112
630.10 0.4109
630.20 0.4107
630.30 0.4104
630.40 0.4102
630.50 0.4099
630.60 0.4096
630.70 0.4094
630.80 0.4091
630.90 0.4089
631.00 0.4086
631.10 0.4084
631.20 0.4081
631.30 0.4079
631.40 0.4076
631.50 0.4074
631.60 0.4071
631.70 0.4069
631.80 0.4067
631.90 0.4064
632.00 0.4062
632.10 0.4059
632.20 0.4057
632.30 0.4054
632.40 0.4052
632.50 0.4049
632.60 0.4047
632.70 0.4044
632.80 0.4042
632.90 0.4039
633.00 0.4037
633.10 0.4034
633.20 0.4032
633.30 0.4029
633.40 0.4027
633.50 0.4025
633.60 0.4022
633.70 0.402
633.80 0.4017
633.90 0.4015
634.00 0.4012
634.10 0.401
634.20 0.4007
634.30 0.4005
634.40 0.4002
634.50 0.4
634.60 0.3998
634.70 0.3995
634.80 0.3993
634.90 0.399
635.00 0.3988
635.10 0.3985
635.20 0.3983
635.30 0.3981
635.40 0.3978
635.50 0.3976
635.60 0.3973
635.70 0.3971
635.80 0.3969
635.90 0.3966
636.00 0.3964
636.10 0.3961
636.20 0.3959
636.30 0.3956
636.40 0.3954
636.50 0.3952
636.60 0.3949
636.70 0.3947
636.80 0.3944
636.90 0.3942
637.00 0.394
637.10 0.3937
637.20 0.3935
637.30 0.3933
637.40 0.393
637.50 0.3928
637.60 0.3925
637.70 0.3923
637.80 0.3921
637.90 0.3918
638.00 0.3916
638.10 0.3913
638.20 0.3911
638.30 0.3909
638.40 0.3906
638.50 0.3904
638.60 0.3902
638.70 0.3899
638.80 0.3897
638.90 0.3895
639.00 0.3892
639.10 0.389
639.20 0.3887
639.30 0.3885
639.40 0.3883
639.50 0.388
639.60 0.3878
639.70 0.3876
639.80 0.3873
639.90 0.3871
640.00 0.3869
640.10 0.3866
640.20 0.3864
640.30 0.3862
640.40 0.3859
640.50 0.3857
640.60 0.3855
640.70 0.3852
640.80 0.385
640.90 0.3848
641.00 0.3845
641.10 0.3843
641.20 0.3841
641.30 0.3838
641.40 0.3836
641.50 0.3834
641.60 0.3831
641.70 0.3829
641.80 0.3827
641.90 0.3824
642.00 0.3822
642.10 0.382
642.20 0.3817
642.30 0.3815
642.40 0.3813
642.50 0.381
642.60 0.3808
642.70 0.3806
642.80 0.3804
642.90 0.3801
643.00 0.3799
643.10 0.3797
643.20 0.3794
643.30 0.3792
643.40 0.379
643.50 0.3787
643.60 0.3785
643.70 0.3783
643.80 0.3781
643.90 0.3778
644.00 0.3776
644.10 0.3774
644.20 0.3771
644.30 0.3769
644.40 0.3767
644.50 0.3765
644.60 0.3762
644.70 0.376
644.80 0.3758
644.90 0.3755
645.00 0.3753
645.10 0.3751
645.20 0.3749
645.30 0.3746
645.40 0.3744
645.50 0.3742
645.60 0.3739
645.70 0.3737
645.80 0.3735
645.90 0.3733
646.00 0.373
646.10 0.3728
646.20 0.3726
646.30 0.3723
646.40 0.3721
646.50 0.3719
646.60 0.3717
646.70 0.3714
646.80 0.3712
646.90 0.371
647.00 0.3707
647.10 0.3705
647.20 0.3703
647.30 0.3701
647.40 0.3698
647.50 0.3696
647.60 0.3694
647.70 0.3691
647.80 0.3689
647.90 0.3687
648.00 0.3685
648.10 0.3682
648.20 0.368
648.30 0.3678
648.40 0.3675
648.50 0.3673
648.60 0.3671
648.70 0.3668
648.80 0.3666
648.90 0.3664
649.00 0.3661
649.10 0.3659
649.20 0.3657
649.30 0.3654
649.40 0.3652
649.50 0.365
649.60 0.3647
649.70 0.3645
649.80 0.3642
649.90 0.364
650.00 0.3638
650.10 0.3635
650.20 0.3633
650.30 0.363
650.40 0.3628
650.50 0.3625
650.60 0.3623
650.70 0.362
650.80 0.3618
650.90 0.3615
651.00 0.3613
651.10 0.361
651.20 0.3608
651.30 0.3605
651.40 0.3602
651.50 0.3599
651.60 0.3597
651.70 0.3594
651.80 0.3591
651.90 0.3588
652.00 0.3585
652.10 0.3582
652.20 0.358
652.30 0.3577
652.40 0.3573
652.50 0.3569
652.60 0.3566
652.70 0.3562
652.80 0.3559
652.90 0.3555
653.00 0.3552
653.10 0.3548
653.20 0.3544
653.30 0.354
653.40 0.3535
653.50 0.3529
653.60 0.3523
653.70 0.3517
653.80 0.3512
653.90 0.3506
654.00 0.35
654.10 0.3494
654.20 0.3489
654.30 0.3482
654.40 0.3472
654.50 0.3462
654.60 0.3452
654.70 0.3442
654.80 0.3431
654.90 0.3415
655.00 0.3399
655.10 0.3383
655.20 0.3367
655.30 0.3349
655.40 0.3325
655.50 0.3299
655.60 0.3266
655.70 0.323
655.80 0.3181
655.90 0.3121
656.00 0.3016
656.10 0.2896
656.20 0.2767
656.30 0.2915
656.40 0.2772
656.50 0.294
656.60 0.3043
656.70 0.3135
656.80 0.318
656.90 0.3223
657.00 0.3251
657.10 0.3278
657.20 0.3298
657.30 0.3317
657.40 0.3329
657.50 0.3341
657.60 0.3354
657.70 0.3366
657.80 0.3377
657.90 0.3382
658.00 0.3388
658.10 0.3394
658.20 0.3399
658.30 0.3404
658.40 0.3406
658.50 0.3407
658.60 0.3409
658.70 0.3411
658.80 0.3412
658.90 0.3414
659.00 0.3415
659.10 0.3417
659.20 0.3418
659.30 0.3419
659.40 0.3419
659.50 0.3418
659.60 0.3418
659.70 0.3417
659.80 0.3416
659.90 0.3416
660.00 0.3415
660.10 0.3415
660.20 0.3414
660.30 0.3413
660.40 0.3412
660.50 0.3411
660.60 0.3409
660.70 0.3408
660.80 0.3407
660.90 0.3405
661.00 0.3404
661.10 0.3403
661.20 0.3401
661.30 0.34
661.40 0.3398
661.50 0.3397
661.60 0.3395
661.70 0.3393
661.80 0.3392
661.90 0.339
662.00 0.3388
662.10 0.3387
662.20 0.3385
662.30 0.3384
662.40 0.3382
662.50 0.338
662.60 0.3378
662.70 0.3376
662.80 0.3375
662.90 0.3373
663.00 0.3371
663.10 0.3369
663.20 0.3368
663.30 0.3366
663.40 0.3364
663.50 0.3362
663.60 0.336
663.70 0.3359
663.80 0.3357
663.90 0.3355
664.00 0.3353
664.10 0.3351
664.20 0.3349
664.30 0.3348
664.40 0.3346
664.50 0.3344
664.60 0.3342
664.70 0.334
664.80 0.3338
664.90 0.3336
665.00 0.3335
665.10 0.3333
665.20 0.3331
665.30 0.3329
665.40 0.3327
665.50 0.3325
665.60 0.3323
665.70 0.3322
665.80 0.332
665.90 0.3318
666.00 0.3316
666.10 0.3314
666.20 0.3312
666.30 0.331
666.40 0.3308
666.50 0.3307
666.60 0.3305
666.70 0.3303
666.80 0.3301
666.90 0.3299
667.00 0.3297
667.10 0.3295
667.20 0.3293
667.30 0.3292
667.40 0.329
667.50 0.3288
667.60 0.3286
667.70 0.3284
667.80 0.3282
667.90 0.328
668.00 0.3278
668.10 0.3277
668.20 0.3275
668.30 0.3273
668.40 0.3271
668.50 0.3269
668.60 0.3267
668.70 0.3265
668.80 0.3264
668.90 0.3262
669.00 0.326
669.10 0.3258
669.20 0.3256
669.30 0.3254
669.40 0.3252
669.50 0.3251
669.60 0.3249
669.70 0.3247
669.80 0.3245
669.90 0.3243
670.00 0.3241
670.10 0.3239
670.20 0.3238
670.30 0.3236
670.40 0.3234
670.50 0.3232
670.60 0.323
670.70 0.3228
670.80 0.3226
670.90 0.3225
671.00 0.3223
671.10 0.3221
671.20 0.3219
671.30 0.3217
671.40 0.3215
671.50 0.3214
671.60 0.3212
671.70 0.321
671.80 0.3208
671.90 0.3206
672.00 0.3204
672.10 0.3203
672.20 0.3201
672.30 0.3199
672.40 0.3197
672.50 0.3195
672.60 0.3193
672.70 0.3192
672.80 0.319
672.90 0.3188
673.00 0.3186
673.10 0.3184
673.20 0.3182
673.30 0.3181
673.40 0.3179
673.50 0.3177
673.60 0.3175
673.70 0.3173
673.80 0.3172
673.90 0.317
674.00 0.3168
674.10 0.3166
674.20 0.3164
674.30 0.3163
674.40 0.3161
674.50 0.3159
674.60 0.3157
674.70 0.3155
674.80 0.3154
674.90 0.3152
675.00 0.315
675.10 0.3148
675.20 0.3146
675.30 0.3145
675.40 0.3143
675.50 0.3141
675.60 0.3139
675.70 0.3137
675.80 0.3136
675.90 0.3134
676.00 0.3132
676.10 0.313
676.20 0.3128
676.30 0.3127
676.40 0.3125
676.50 0.3123
676.60 0.3121
676.70 0.312
676.80 0.3118
676.90 0.3116
677.00 0.3114
677.10 0.3112
677.20 0.3111
677.30 0.3109
677.40 0.3107
677.50 0.3105
677.60 0.3104
677.70 0.3102
677.80 0.31
677.90 0.3098
678.00 0.3097
678.10 0.3095
678.20 0.3093
678.30 0.3091
678.40 0.3089
678.50 0.3088
678.60 0.3086
678.70 0.3084
678.80 0.3082
678.90 0.3081
679.00 0.3079
679.10 0.3077
679.20 0.3075
679.30 0.3074
679.40 0.3072
679.50 0.307
679.60 0.3068
679.70 0.3067
679.80 0.3065
679.90 0.3063
680.00 0.3062
680.10 0.306
680.20 0.3058
680.30 0.3056
680.40 0.3055
680.50 0.3053
680.60 0.3051
680.70 0.3049
680.80 0.3048
680.90 0.3046
681.00 0.3044
681.10 0.3042
681.20 0.3041
681.30 0.3039
681.40 0.3037
681.50 0.3036
681.60 0.3034
681.70 0.3032
681.80 0.303
681.90 0.3029
682.00 0.3027
682.10 0.3025
682.20 0.3024
682.30 0.3022
682.40 0.302
682.50 0.3018
682.60 0.3017
682.70 0.3015
682.80 0.3013
682.90 0.3012
683.00 0.301
683.10 0.3008
683.20 0.3007
683.30 0.3005
683.40 0.3003
683.50 0.3001
683.60 0.3
683.70 0.2998
683.80 0.2996
683.90 0.2995
684.00 0.2993
684.10 0.2991
684.20 0.299
684.30 0.2988
684.40 0.2986
684.50 0.2985
684.60 0.2983
684.70 0.2981
684.80 0.2979
684.90 0.2978
685.00 0.2976
685.10 0.2974
685.20 0.2973
685.30 0.2971
685.40 0.2969
685.50 0.2968
685.60 0.2966
685.70 0.2964
685.80 0.2963
685.90 0.2961
686.00 0.2959
686.10 0.2958
686.20 0.2956
686.30 0.2954
686.40 0.2953
686.50 0.2951
686.60 0.2949
686.70 0.2948
686.80 0.2946
686.90 0.2944
687.00 0.2943
687.10 0.2941
687.20 0.2939
687.30 0.2938
687.40 0.2936
687.50 0.2935
687.60 0.2933
687.70 0.2931
687.80 0.293
687.90 0.2928
688.00 0.2926
688.10 0.2925
688.20 0.2923
688.30 0.2921
688.40 0.292
688.50 0.2918
688.60 0.2916
688.70 0.2915
688.80 0.2913
688.90 0.2912
689.00 0.291
689.10 0.2908
689.20 0.2907
689.30 0.2905
689.40 0.2903
689.50 0.2902
689.60 0.29
689.70 0.2899
689.80 0.2897
689.90 0.2895
690.00 0.2894
690.10 0.2892
690.20 0.289
690.30 0.2889
690.40 0.2887
690.50 0.2886
690.60 0.2884
690.70 0.2882
690.80 0.2881
690.90 0.2879
691.00 0.2878
691.10 0.2876
691.20 0.2874
691.30 0.2873
691.40 0.2871
691.50 0.287
691.60 0.2868
691.70 0.2866
691.80 0.2865
691.90 0.2863
692.00 0.2862
692.10 0.286
692.20 0.2858
692.30 0.2857
692.40 0.2855
692.50 0.2854
692.60 0.2852
692.70 0.285
692.80 0.2849
692.90 0.2847
693.00 0.2846
693.10 0.2844
693.20 0.2842
693.30 0.2841
693.40 0.2839
693.50 0.2838
693.60 0.2836
693.70 0.2835
693.80 0.2833
693.90 0.2831
694.00 0.283
694.10 0.2828
694.20 0.2827
694.30 0.2825
694.40 0.2823
694.50 0.2822
694.60 0.282
694.70 0.2819
694.80 0.2817
694.90 0.2816
695.00 0.2814
695.10 0.2812
695.20 0.2811
695.30 0.2809
695.40 0.2808
695.50 0.2806
695.60 0.2805
695.70 0.2803
695.80 0.2802
695.90 0.28
696.00 0.2798
696.10 0.2797
696.20 0.2795
696.30 0.2794
696.40 0.2792
696.50 0.2791
696.60 0.2789
696.70 0.2788
696.80 0.2786
696.90 0.2785
697.00 0.2783
697.10 0.2781
697.20 0.278
697.30 0.2778
697.40 0.2777
697.50 0.2775
697.60 0.2774
697.70 0.2772
697.80 0.2771
697.90 0.2769
698.00 0.2768
698.10 0.2766
698.20 0.2765
698.30 0.2763
698.40 0.2762
698.50 0.276
698.60 0.2758
698.70 0.2757
698.80 0.2755
698.90 0.2754
699.00 0.2752
699.10 0.2751
699.20 0.2749
699.30 0.2748
699.40 0.2746
699.50 0.2745
699.60 0.2743
699.70 0.2742
699.80 0.274
699.90 0.2739
700.00 0.2737
700.10 0.2736
700.20 0.2734
700.30 0.2733
700.40 0.2731
700.50 0.273
700.60 0.2728
700.70 0.2727
700.80 0.2725
700.90 0.2724
701.00 0.2722
701.10 0.2721
701.20 0.2719
701.30 0.2718
701.40 0.2716
701.50 0.2715
701.60 0.2713
701.70 0.2712
701.80 0.271
701.90 0.2709
702.00 0.2707
702.10 0.2706
702.20 0.2704
702.30 0.2703
702.40 0.2701
702.50 0.27
702.60 0.2698
702.70 0.2697
702.80 0.2695
702.90 0.2694
703.00 0.2692
703.10 0.2691
703.20 0.2689
703.30 0.2688
703.40 0.2686
703.50 0.2685
703.60 0.2683
703.70 0.2682
703.80 0.268
703.90 0.2679
704.00 0.2678
704.10 0.2676
704.20 0.2675
704.30 0.2673
704.40 0.2672
704.50 0.267
704.60 0.2669
704.70 0.2667
704.80 0.2666
704.90 0.2664
705.00 0.2663
705.10 0.2661
705.20 0.266
705.30 0.2658
705.40 0.2657
705.50 0.2656
705.60 0.2654
705.70 0.2653
705.80 0.2651
705.90 0.265
706.00 0.2648
706.10 0.2647
706.20 0.2645
706.30 0.2644
706.40 0.2643
706.50 0.2641
706.60 0.264
706.70 0.2638
706.80 0.2637
706.90 0.2635
707.00 0.2634
707.10 0.2632
707.20 0.2631
707.30 0.263
707.40 0.2628
707.50 0.2627
707.60 0.2625
707.70 0.2624
707.80 0.2622
707.90 0.2621
708.00 0.262
708.10 0.2618
708.20 0.2617
708.30 0.2615
708.40 0.2614
708.50 0.2612
708.60 0.2611
708.70 0.2609
708.80 0.2608
708.90 0.2607
709.00 0.2605
709.10 0.2604
709.20 0.2602
709.30 0.2601
709.40 0.26
709.50 0.2598
709.60 0.2597
709.70 0.2595
709.80 0.2594
709.90 0.2592
710.00 0.2591
710.10 0.259
710.20 0.2588
710.30 0.2587
710.40 0.2585
710.50 0.2584
710.60 0.2583
710.70 0.2581
710.80 0.258
710.90 0.2578
711.00 0.2577
711.10 0.2576
711.20 0.2574
711.30 0.2573
711.40 0.2571
711.50 0.257
711.60 0.2569
711.70 0.2567
711.80 0.2566
711.90 0.2564
712.00 0.2563
712.10 0.2562
712.20 0.256
712.30 0.2559
712.40 0.2557
712.50 0.2556
712.60 0.2555
712.70 0.2553
712.80 0.2552
712.90 0.2551
713.00 0.2549
713.10 0.2548
713.20 0.2546
713.30 0.2545
713.40 0.2544
713.50 0.2542
713.60 0.2541
713.70 0.2539
713.80 0.2538
713.90 0.2537
714.00 0.2535
714.10 0.2534
714.20 0.2533
714.30 0.2531
714.40 0.253
714.50 0.2528
714.60 0.2527
714.70 0.2526
714.80 0.2524
714.90 0.2523
715.00 0.2522
715.10 0.252
715.20 0.2519
715.30 0.2518
715.40 0.2516
715.50 0.2515
715.60 0.2513
715.70 0.2512
715.80 0.2511
715.90 0.2509
716.00 0.2508
716.10 0.2507
716.20 0.2505
716.30 0.2504
716.40 0.2503
716.50 0.2501
716.60 0.25
716.70 0.2499
716.80 0.2497
716.90 0.2496
717.00 0.2495
717.10 0.2493
717.20 0.2492
717.30 0.2491
717.40 0.2489
717.50 0.2488
717.60 0.2487
717.70 0.2485
717.80 0.2484
717.90 0.2482
718.00 0.2481
718.10 0.248
718.20 0.2478
718.30 0.2477
718.40 0.2476
718.50 0.2474
718.60 0.2473
718.70 0.2472
718.80 0.247
718.90 0.2469
719.00 0.2468
719.10 0.2466
719.20 0.2465
719.30 0.2464
719.40 0.2462
719.50 0.2461
719.60 0.246
719.70 0.2459
719.80 0.2457
719.90 0.2456
720.00 0.2455
720.10 0.2453
720.20 0.2452
720.30 0.2451
720.40 0.2449
720.50 0.2448
720.60 0.2447
720.70 0.2445
720.80 0.2444
720.90 0.2443
721.00 0.2441
721.10 0.244
721.20 0.2439
721.30 0.2438
721.40 0.2436
721.50 0.2435
721.60 0.2434
721.70 0.2432
721.80 0.2431
721.90 0.243
722.00 0.2428
722.10 0.2427
722.20 0.2426
722.30 0.2424
722.40 0.2423
722.50 0.2422
722.60 0.2421
722.70 0.2419
722.80 0.2418
722.90 0.2417
723.00 0.2415
723.10 0.2414
723.20 0.2413
723.30 0.2412
723.40 0.241
723.50 0.2409
723.60 0.2408
723.70 0.2406
723.80 0.2405
723.90 0.2404
724.00 0.2403
724.10 0.2401
724.20 0.24
724.30 0.2399
724.40 0.2397
724.50 0.2396
724.60 0.2395
724.70 0.2394
724.80 0.2392
724.90 0.2391
725.00 0.239
725.10 0.2388
725.20 0.2387
725.30 0.2386
725.40 0.2385
725.50 0.2383
725.60 0.2382
725.70 0.2381
725.80 0.238
725.90 0.2378
726.00 0.2377
726.10 0.2376
726.20 0.2374
726.30 0.2373
726.40 0.2372
726.50 0.2371
726.60 0.2369
726.70 0.2368
726.80 0.2367
726.90 0.2366
727.00 0.2364
727.10 0.2363
727.20 0.2362
727.30 0.2361
727.40 0.2359
727.50 0.2358
727.60 0.2357
727.70 0.2356
727.80 0.2354
727.90 0.2353
728.00 0.2352
728.10 0.2351
728.20 0.2349
728.30 0.2348
728.40 0.2347
728.50 0.2346
728.60 0.2344
728.70 0.2343
728.80 0.2342
728.90 0.2341
729.00 0.2339
729.10 0.2338
729.20 0.2337
729.30 0.2336
729.40 0.2334
729.50 0.2333
729.60 0.2332
729.70 0.2331
729.80 0.2329
729.90 0.2328
730.00 0.2327
730.10 0.2326
730.20 0.2324
730.30 0.2323
730.40 0.2322
730.50 0.2321
730.60 0.232
730.70 0.2318
730.80 0.2317
730.90 0.2316
731.00 0.2315
731.10 0.2314
731.20 0.2312
731.30 0.2311
731.40 0.231
731.50 0.2309
731.60 0.2307
731.70 0.2306
731.80 0.2305
731.90 0.2304
732.00 0.2303
732.10 0.2301
732.20 0.23
732.30 0.2299
732.40 0.2298
732.50 0.2297
732.60 0.2295
732.70 0.2294
732.80 0.2293
732.90 0.2292
733.00 0.2291
733.10 0.2289
733.20 0.2288
733.30 0.2287
733.40 0.2286
733.50 0.2285
733.60 0.2283
733.70 0.2282
733.80 0.2281
733.90 0.228
734.00 0.2278
734.10 0.2277
734.20 0.2276
734.30 0.2275
734.40 0.2274
734.50 0.2273
734.60 0.2271
734.70 0.227
734.80 0.2269
734.90 0.2268
735.00 0.2267
735.10 0.2265
735.20 0.2264
735.30 0.2263
735.40 0.2262
735.50 0.2261
735.60 0.2259
735.70 0.2258
735.80 0.2257
735.90 0.2256
736.00 0.2255
736.10 0.2253
736.20 0.2252
736.30 0.2251
736.40 0.225
736.50 0.2249
736.60 0.2248
736.70 0.2246
736.80 0.2245
736.90 0.2244
737.00 0.2243
737.10 0.2242
737.20 0.224
737.30 0.2239
737.40 0.2238
737.50 0.2237
737.60 0.2236
737.70 0.2235
737.80 0.2233
737.90 0.2232
738.00 0.2231
738.10 0.223
738.20 0.2229
738.30 0.2227
738.40 0.2226
738.50 0.2225
738.60 0.2224
738.70 0.2223
738.80 0.2222
738.90 0.222
739.00 0.2219
739.10 0.2218
739.20 0.2217
739.30 0.2216
739.40 0.2215
739.50 0.2213
739.60 0.2212
739.70 0.2211
739.80 0.221
739.90 0.2209
740.00 0.2208
740.10 0.2206
740.20 0.2205
740.30 0.2204
740.40 0.2203
740.50 0.2202
740.60 0.2201
740.70 0.22
740.80 0.2198
740.90 0.2197
741.00 0.2196
741.10 0.2195
741.20 0.2194
741.30 0.2193
741.40 0.2192
741.50 0.219
741.60 0.2189
741.70 0.2188
741.80 0.2187
741.90 0.2186
742.00 0.2185
742.10 0.2184
742.20 0.2182
742.30 0.2181
742.40 0.218
742.50 0.2179
742.60 0.2178
742.70 0.2177
742.80 0.2176
742.90 0.2175
743.00 0.2173
743.10 0.2172
743.20 0.2171
743.30 0.217
743.40 0.2169
743.50 0.2168
743.60 0.2167
743.70 0.2166
743.80 0.2164
743.90 0.2163
744.00 0.2162
744.10 0.2161
744.20 0.216
744.30 0.2159
744.40 0.2158
744.50 0.2157
744.60 0.2155
744.70 0.2154
744.80 0.2153
744.90 0.2152
745.00 0.2151
745.10 0.215
745.20 0.2149
745.30 0.2148
745.40 0.2147
745.50 0.2145
745.60 0.2144
745.70 0.2143
745.80 0.2142
745.90 0.2141
746.00 0.214
746.10 0.2139
746.20 0.2138
746.30 0.2136
746.40 0.2135
746.50 0.2134
746.60 0.2133
746.70 0.2132
746.80 0.2131
746.90 0.213
747.00 0.2129
747.10 0.2128
747.20 0.2127
747.30 0.2125
747.40 0.2124
747.50 0.2123
747.60 0.2122
747.70 0.2121
747.80 0.212
747.90 0.2119
748.00 0.2118
748.10 0.2117
748.20 0.2115
748.30 0.2114
748.40 0.2113
748.50 0.2112
748.60 0.2111
748.70 0.211
748.80 0.2109
748.90 0.2108
749.00 0.2107
749.10 0.2106
749.20 0.2104
749.30 0.2103
749.40 0.2102
749.50 0.2101
749.60 0.21
749.70 0.2099
749.80 0.2098
749.90 0.2097
750.00 0.2096
750.10 0.2095
750.20 0.2094
750.30 0.2093
750.40 0.2091
750.50 0.209
750.60 0.2089
750.70 0.2088
750.80 0.2087
750.90 0.2086
751.00 0.2085
751.10 0.2084
751.20 0.2083
751.30 0.2082
751.40 0.2081
751.50 0.208
751.60 0.2079
751.70 0.2078
751.80 0.2077
751.90 0.2075
752.00 0.2074
752.10 0.2073
752.20 0.2072
752.30 0.2071
752.40 0.207
752.50 0.2069
752.60 0.2068
752.70 0.2067
752.80 0.2066
752.90 0.2065
753.00 0.2064
753.10 0.2063
753.20 0.2062
753.30 0.2061
753.40 0.206
753.50 0.2058
753.60 0.2057
753.70 0.2056
753.80 0.2055
753.90 0.2054
754.00 0.2053
754.10 0.2052
754.20 0.2051
754.30 0.205
754.40 0.2049
754.50 0.2048
754.60 0.2047
754.70 0.2046
754.80 0.2045
754.90 0.2044
755.00 0.2043
755.10 0.2042
755.20 0.2041
755.30 0.204
755.40 0.2039
755.50 0.2037
755.60 0.2036
755.70 0.2035
755.80 0.2034
755.90 0.2033
756.00 0.2032
756.10 0.2031
756.20 0.203
756.30 0.2029
756.40 0.2028
756.50 0.2027
756.60 0.2026
756.70 0.2025
756.80 0.2024
756.90 0.2023
757.00 0.2022
757.10 0.2021
757.20 0.202
757.30 0.2019
757.40 0.2018
757.50 0.2017
757.60 0.2016
757.70 0.2015
757.80 0.2014
757.90 0.2013
758.00 0.2011
758.10 0.201
758.20 0.2009
758.30 0.2008
758.40 0.2007
758.50 0.2006
758.60 0.2005
758.70 0.2004
758.80 0.2003
758.90 0.2002
759.00 0.2001
759.10 0.2
759.20 0.1999
759.30 0.1998
759.40 0.1997
759.50 0.1996
759.60 0.1995
759.70 0.1994
759.80 0.1993
759.90 0.1992
760.00 0.1991
760.10 0.199
760.20 0.1989
760.30 0.1988
760.40 0.1987
760.50 0.1986
760.60 0.1985
760.70 0.1984
760.80 0.1983
760.90 0.1982
761.00 0.1981
761.10 0.198
761.20 0.1979
761.30 0.1978
761.40 0.1977
761.50 0.1976
761.60 0.1975
761.70 0.1974
761.80 0.1973
761.90 0.1972
762.00 0.1971
762.10 0.197
762.20 0.1969
762.30 0.1968
762.40 0.1967
762.50 0.1966
762.60 0.1965
762.70 0.1964
762.80 0.1963
762.90 0.1962
763.00 0.1961
763.10 0.196
763.20 0.1959
763.30 0.1958
763.40 0.1957
763.50 0.1956
763.60 0.1955
763.70 0.1954
763.80 0.1953
763.90 0.1952
764.00 0.1951
764.10 0.195
764.20 0.1949
764.30 0.1948
764.40 0.1947
764.50 0.1946
764.60 0.1945
764.70 0.1944
764.80 0.1943
764.90 0.1942
765.00 0.1941
765.10 0.194
765.20 0.1939
765.30 0.1938
765.40 0.1937
765.50 0.1936
765.60 0.1935
765.70 0.1934
765.80 0.1933
765.90 0.1932
766.00 0.1931
766.10 0.193
766.20 0.1929
766.30 0.1928
766.40 0.1927
766.50 0.1926
766.60 0.1926
766.70 0.1925
766.80 0.1924
766.90 0.1923
767.00 0.1922
767.10 0.1921
767.20 0.192
767.30 0.1919
767.40 0.1918
767.50 0.1917
767.60 0.1916
767.70 0.1915
767.80 0.1914
767.90 0.1913
768.00 0.1912
768.10 0.1911
768.20 0.191
768.30 0.1909
768.40 0.1908
768.50 0.1907
768.60 0.1906
768.70 0.1905
768.80 0.1904
768.90 0.1903
769.00 0.1902
769.10 0.1901
769.20 0.19
769.30 0.1899
769.40 0.1898
769.50 0.1897
769.60 0.1896
769.70 0.1895
769.80 0.1895
769.90 0.1894
770.00 0.1893
770.10 0.1892
770.20 0.1891
770.30 0.189
770.40 0.1889
770.50 0.1888
770.60 0.1887
770.70 0.1886
770.80 0.1885
770.90 0.1884
771.00 0.1883
771.10 0.1882
771.20 0.1881
771.30 0.188
771.40 0.1879
771.50 0.1878
771.60 0.1878
771.70 0.1877
771.80 0.1876
771.90 0.1875
772.00 0.1874
772.10 0.1873
772.20 0.1872
772.30 0.1871
772.40 0.187
772.50 0.1869
772.60 0.1868
772.70 0.1867
772.80 0.1866
772.90 0.1865
773.00 0.1864
773.10 0.1864
773.20 0.1863
773.30 0.1862
773.40 0.1861
773.50 0.186
773.60 0.1859
773.70 0.1858
773.80 0.1857
773.90 0.1856
774.00 0.1855
774.10 0.1854
774.20 0.1853
774.30 0.1852
774.40 0.1851
774.50 0.1851
774.60 0.185
774.70 0.1849
774.80 0.1848
774.90 0.1847
775.00 0.1846
775.10 0.1845
775.20 0.1844
775.30 0.1843
775.40 0.1842
775.50 0.1841
775.60 0.184
775.70 0.1839
775.80 0.1839
775.90 0.1838
776.00 0.1837
776.10 0.1836
776.20 0.1835
776.30 0.1834
776.40 0.1833
776.50 0.1832
776.60 0.1831
776.70 0.183
776.80 0.1829
776.90 0.1828
777.00 0.1828
777.10 0.1827
777.20 0.1826
777.30 0.1825
777.40 0.1824
777.50 0.1823
777.60 0.1822
777.70 0.1821
777.80 0.182
777.90 0.1819
778.00 0.1818
778.10 0.1817
778.20 0.1817
778.30 0.1816
778.40 0.1815
778.50 0.1814
778.60 0.1813
778.70 0.1812
778.80 0.1811
778.90 0.181
779.00 0.1809
779.10 0.1808
779.20 0.1808
779.30 0.1807
779.40 0.1806
779.50 0.1805
779.60 0.1804
779.70 0.1803
779.80 0.1802
779.90 0.1801
780.00 0.18
780.10 0.1799
780.20 0.1798
780.30 0.1798
780.40 0.1797
780.50 0.1796
780.60 0.1795
780.70 0.1794
780.80 0.1793
780.90 0.1792
781.00 0.1791
781.10 0.1791
781.20 0.179
781.30 0.1789
781.40 0.1788
781.50 0.1787
781.60 0.1786
781.70 0.1785
781.80 0.1784
781.90 0.1783
782.00 0.1783
782.10 0.1782
782.20 0.1781
782.30 0.178
782.40 0.1779
782.50 0.1778
782.60 0.1777
782.70 0.1776
782.80 0.1776
782.90 0.1775
783.00 0.1774
783.10 0.1773
783.20 0.1772
783.30 0.1771
783.40 0.177
783.50 0.1769
783.60 0.1769
783.70 0.1768
783.80 0.1767
783.90 0.1766
784.00 0.1765
784.10 0.1764
784.20 0.1763
784.30 0.1762
784.40 0.1762
784.50 0.1761
784.60 0.176
784.70 0.1759
784.80 0.1758
784.90 0.1757
785.00 0.1756
785.10 0.1756
785.20 0.1755
785.30 0.1754
785.40 0.1753
785.50 0.1752
785.60 0.1751
785.70 0.175
785.80 0.1749
785.90 0.1749
786.00 0.1748
786.10 0.1747
786.20 0.1746
786.30 0.1745
786.40 0.1744
786.50 0.1743
786.60 0.1743
786.70 0.1742
786.80 0.1741
786.90 0.174
787.00 0.1739
787.10 0.1738
787.20 0.1737
787.30 0.1737
787.40 0.1736
787.50 0.1735
787.60 0.1734
787.70 0.1733
787.80 0.1732
787.90 0.1731
788.00 0.1731
788.10 0.173
788.20 0.1729
788.30 0.1728
788.40 0.1727
788.50 0.1726
788.60 0.1725
788.70 0.1725
788.80 0.1724
788.90 0.1723
789.00 0.1722
789.10 0.1721
789.20 0.172
789.30 0.1719
789.40 0.1719
789.50 0.1718
789.60 0.1717
789.70 0.1716
789.80 0.1715
789.90 0.1714
790.00 0.1714
790.10 0.1713
790.20 0.1712
790.30 0.1711
790.40 0.171
790.50 0.1709
790.60 0.1709
790.70 0.1708
790.80 0.1707
790.90 0.1706
791.00 0.1705
791.10 0.1704
791.20 0.1704
791.30 0.1703
791.40 0.1702
791.50 0.1701
791.60 0.17
791.70 0.1699
791.80 0.1699
791.90 0.1698
792.00 0.1697
792.10 0.1696
792.20 0.1695
792.30 0.1694
792.40 0.1694
792.50 0.1693
792.60 0.1692
792.70 0.1691
792.80 0.169
792.90 0.1689
793.00 0.1689
793.10 0.1688
793.20 0.1687
793.30 0.1686
793.40 0.1685
793.50 0.1685
793.60 0.1684
793.70 0.1683
793.80 0.1682
793.90 0.1681
794.00 0.168
794.10 0.168
794.20 0.1679
794.30 0.1678
794.40 0.1677
794.50 0.1676
794.60 0.1676
794.70 0.1675
794.80 0.1674
794.90 0.1673
795.00 0.1672
795.10 0.1671
795.20 0.1671
795.30 0.167
795.40 0.1669
795.50 0.1668
795.60 0.1667
795.70 0.1667
795.80 0.1666
795.90 0.1665
796.00 0.1664
796.10 0.1663
796.20 0.1663
796.30 0.1662
796.40 0.1661
796.50 0.166
796.60 0.1659
796.70 0.1658
796.80 0.1658
796.90 0.1657
797.00 0.1656
797.10 0.1655
797.20 0.1654
797.30 0.1654
797.40 0.1653
797.50 0.1652
797.60 0.1651
797.70 0.165
797.80 0.165
797.90 0.1649
798.00 0.1648
798.10 0.1647
798.20 0.1646
798.30 0.1646
798.40 0.1645
798.50 0.1644
798.60 0.1643
798.70 0.1642
798.80 0.1642
798.90 0.1641
799.00 0.164
799.10 0.1639
799.20 0.1638
799.30 0.1638
799.40 0.1637
799.50 0.1636
799.60 0.1635
799.70 0.1634
799.80 0.1634
799.90 0.1633
800.00 0.1632
800.10 0.1631
800.20 0.163
800.30 0.163
800.40 0.1629
800.50 0.1628
800.60 0.1627
800.70 0.1626
800.80 0.1626
800.90 0.1625
801.00 0.1624
801.10 0.1623
801.20 0.1623
801.30 0.1622
801.40 0.1621
801.50 0.162
801.60 0.1619
801.70 0.1619
801.80 0.1618
801.90 0.1617
802.00 0.1616
802.10 0.1616
802.20 0.1615
802.30 0.1614
802.40 0.1613
802.50 0.1612
802.60 0.1612
802.70 0.1611
802.80 0.161
802.90 0.1609
803.00 0.1609
803.10 0.1608
803.20 0.1607
803.30 0.1606
803.40 0.1605
803.50 0.1605
803.60 0.1604
803.70 0.1603
803.80 0.1602
803.90 0.1602
804.00 0.1601
804.10 0.16
804.20 0.1599
804.30 0.1599
804.40 0.1598
804.50 0.1597
804.60 0.1596
804.70 0.1595
804.80 0.1595
804.90 0.1594
805.00 0.1593
805.10 0.1592
805.20 0.1592
805.30 0.1591
805.40 0.159
805.50 0.1589
805.60 0.1589
805.70 0.1588
805.80 0.1587
805.90 0.1586
806.00 0.1585
806.10 0.1585
806.20 0.1584
806.30 0.1583
806.40 0.1582
806.50 0.1582
806.60 0.1581
806.70 0.158
806.80 0.1579
806.90 0.1579
807.00 0.1578
807.10 0.1577
807.20 0.1576
807.30 0.1576
807.40 0.1575
807.50 0.1574
807.60 0.1573
807.70 0.1573
807.80 0.1572
807.90 0.1571
808.00 0.157
808.10 0.157
808.20 0.1569
808.30 0.1568
808.40 0.1567
808.50 0.1566
808.60 0.1566
808.70 0.1565
808.80 0.1564
808.90 0.1563
809.00 0.1563
809.10 0.1562
809.20 0.1561
809.30 0.156
809.40 0.156
809.50 0.1559
809.60 0.1558
809.70 0.1557
809.80 0.1557
809.90 0.1556
810.00 0.1555
810.10 0.1554
810.20 0.1554
810.30 0.1553
810.40 0.1552
810.50 0.1551
810.60 0.1551
810.70 0.155
810.80 0.1549
810.90 0.1549
811.00 0.1548
811.10 0.1547
811.20 0.1546
811.30 0.1546
811.40 0.1545
811.50 0.1544
811.60 0.1543
811.70 0.1543
811.80 0.1542
811.90 0.1541
812.00 0.154
812.10 0.154
812.20 0.1539
812.30 0.1538
812.40 0.1538
812.50 0.1537
812.60 0.1536
812.70 0.1535
812.80 0.1535
812.90 0.1534
813.00 0.1533
813.10 0.1532
813.20 0.1532
813.30 0.1531
813.40 0.153
813.50 0.153
813.60 0.1529
813.70 0.1528
813.80 0.1527
813.90 0.1527
814.00 0.1526
814.10 0.1525
814.20 0.1524
814.30 0.1524
814.40 0.1523
814.50 0.1522
814.60 0.1522
814.70 0.1521
814.80 0.152
814.90 0.1519
815.00 0.1519
815.10 0.1518
815.20 0.1517
815.30 0.1516
815.40 0.1516
815.50 0.1515
815.60 0.1514
815.70 0.1514
815.80 0.1513
815.90 0.1512
816.00 0.1511
816.10 0.1511
816.20 0.151
816.30 0.1509
816.40 0.1509
816.50 0.1508
816.60 0.1507
816.70 0.1506
816.80 0.1506
816.90 0.1505
817.00 0.1504
817.10 0.1504
817.20 0.1503
817.30 0.1502
817.40 0.1501
817.50 0.1501
817.60 0.15
817.70 0.1499
817.80 0.1499
817.90 0.1498
818.00 0.1497
818.10 0.1496
818.20 0.1496
818.30 0.1495
818.40 0.1494
818.50 0.1494
818.60 0.1493
818.70 0.1492
818.80 0.1491
818.90 0.1491
819.00 0.149
819.10 0.1489
819.20 0.1489
819.30 0.1488
819.40 0.1487
819.50 0.1486
819.60 0.1486
819.70 0.1485
819.80 0.1484
819.90 0.1484
820.00 0.1483
820.10 0.1482
820.20 0.1481
820.30 0.1481
820.40 0.148
820.50 0.1479
820.60 0.1479
820.70 0.1478
820.80 0.1477
820.90 0.1477
821.00 0.1476
821.10 0.1475
821.20 0.1474
821.30 0.1474
821.40 0.1473
821.50 0.1472
821.60 0.1472
821.70 0.1471
821.80 0.147
821.90 0.147
822.00 0.1469
822.10 0.1468
822.20 0.1468
822.30 0.1467
822.40 0.1466
822.50 0.1465
822.60 0.1465
822.70 0.1464
822.80 0.1463
822.90 0.1463
823.00 0.1462
823.10 0.1461
823.20 0.1461
823.30 0.146
823.40 0.1459
823.50 0.1459
823.60 0.1458
823.70 0.1457
823.80 0.1457
823.90 0.1456
824.00 0.1455
824.10 0.1454
824.20 0.1454
824.30 0.1453
824.40 0.1452
824.50 0.1452
824.60 0.1451
824.70 0.145
824.80 0.145
824.90 0.1449
825.00 0.1448
825.10 0.1448
825.20 0.1447
825.30 0.1446
825.40 0.1446
825.50 0.1445
825.60 0.1444
825.70 0.1444
825.80 0.1443
825.90 0.1442
826.00 0.1442
826.10 0.1441
826.20 0.144
826.30 0.144
826.40 0.1439
826.50 0.1438
826.60 0.1437
826.70 0.1437
826.80 0.1436
826.90 0.1435
827.00 0.1435
827.10 0.1434
827.20 0.1433
827.30 0.1433
827.40 0.1432
827.50 0.1431
827.60 0.1431
827.70 0.143
827.80 0.1429
827.90 0.1429
828.00 0.1428
828.10 0.1427
828.20 0.1427
828.30 0.1426
828.40 0.1425
828.50 0.1425
828.60 0.1424
828.70 0.1423
828.80 0.1423
828.90 0.1422
829.00 0.1421
829.10 0.1421
829.20 0.142
829.30 0.1419
829.40 0.1419
829.50 0.1418
829.60 0.1417
829.70 0.1417
829.80 0.1416
829.90 0.1415
830.00 0.1415
830.10 0.1414
830.20 0.1413
830.30 0.1413
830.40 0.1412
830.50 0.1411
830.60 0.1411
830.70 0.141
830.80 0.1409
830.90 0.1409
831.00 0.1408
831.10 0.1408
831.20 0.1407
831.30 0.1406
831.40 0.1406
831.50 0.1405
831.60 0.1404
831.70 0.1404
831.80 0.1403
831.90 0.1402
832.00 0.1402
832.10 0.1401
832.20 0.14
832.30 0.14
832.40 0.1399
832.50 0.1398
832.60 0.1398
832.70 0.1397
832.80 0.1396
832.90 0.1396
833.00 0.1395
833.10 0.1394
833.20 0.1394
833.30 0.1393
833.40 0.1392
833.50 0.1392
833.60 0.1391
833.70 0.1391
833.80 0.139
833.90 0.1389
834.00 0.1389
834.10 0.1388
834.20 0.1387
834.30 0.1387
834.40 0.1386
834.50 0.1385
834.60 0.1385
834.70 0.1384
834.80 0.1383
834.90 0.1383
835.00 0.1382
835.10 0.1381
835.20 0.1381
835.30 0.138
835.40 0.138
835.50 0.1379
835.60 0.1378
835.70 0.1378
835.80 0.1377
835.90 0.1376
836.00 0.1376
836.10 0.1375
836.20 0.1374
836.30 0.1374
836.40 0.1373
836.50 0.1372
836.60 0.1372
836.70 0.1371
836.80 0.1371
836.90 0.137
837.00 0.1369
837.10 0.1369
837.20 0.1368
837.30 0.1367
837.40 0.1367
837.50 0.1366
837.60 0.1365
837.70 0.1365
837.80 0.1364
837.90 0.1364
838.00 0.1363
838.10 0.1362
838.20 0.1362
838.30 0.1361
838.40 0.136
838.50 0.136
838.60 0.1359
838.70 0.1359
838.80 0.1358
838.90 0.1357
839.00 0.1357
839.10 0.1356
839.20 0.1355
839.30 0.1355
839.40 0.1354
839.50 0.1354
839.60 0.1353
839.70 0.1352
839.80 0.1352
839.90 0.1351
840.00 0.135
840.10 0.135
840.20 0.1349
840.30 0.1349
840.40 0.1348
840.50 0.1347
840.60 0.1347
840.70 0.1346
840.80 0.1345
840.90 0.1345
841.00 0.1344
841.10 0.1344
841.20 0.1343
841.30 0.1342
841.40 0.1342
841.50 0.1341
841.60 0.134
841.70 0.134
841.80 0.1339
841.90 0.1339
842.00 0.1338
842.10 0.1337
842.20 0.1337
842.30 0.1336
842.40 0.1335
842.50 0.1335
842.60 0.1334
842.70 0.1334
842.80 0.1333
842.90 0.1332
843.00 0.1332
843.10 0.1331
843.20 0.1331
843.30 0.133
843.40 0.1329
843.50 0.1329
843.60 0.1328
843.70 0.1327
843.80 0.1327
843.90 0.1326
844.00 0.1326
844.10 0.1325
844.20 0.1324
844.30 0.1324
844.40 0.1323
844.50 0.1323
844.60 0.1322
844.70 0.1321
844.80 0.1321
844.90 0.132
845.00 0.132
845.10 0.1319
845.20 0.1318
845.30 0.1318
845.40 0.1317
845.50 0.1317
845.60 0.1316
845.70 0.1315
845.80 0.1315
845.90 0.1314
846.00 0.1314
846.10 0.1313
846.20 0.1312
846.30 0.1312
846.40 0.1311
846.50 0.131
846.60 0.131
846.70 0.1309
846.80 0.1309
846.90 0.1308
847.00 0.1307
847.10 0.1307
847.20 0.1306
847.30 0.1306
847.40 0.1305
847.50 0.1304
847.60 0.1304
847.70 0.1303
847.80 0.1303
847.90 0.1302
848.00 0.1301
848.10 0.1301
848.20 0.13
848.30 0.13
848.40 0.1299
848.50 0.1299
848.60 0.1298
848.70 0.1297
848.80 0.1297
848.90 0.1296
849.00 0.1296
849.10 0.1295
849.20 0.1294
849.30 0.1294
849.40 0.1293
849.50 0.1293
849.60 0.1292
849.70 0.1291
849.80 0.1291
849.90 0.129
850.00 0.129
850.10 0.1289
850.20 0.1288
850.30 0.1288
850.40 0.1287
850.50 0.1287
850.60 0.1286
850.70 0.1285
850.80 0.1285
850.90 0.1284
851.00 0.1284
851.10 0.1283
851.20 0.1283
851.30 0.1282
851.40 0.1281
851.50 0.1281
851.60 0.128
851.70 0.128
851.80 0.1279
851.90 0.1278
852.00 0.1278
852.10 0.1277
852.20 0.1277
852.30 0.1276
852.40 0.1276
852.50 0.1275
852.60 0.1274
852.70 0.1274
852.80 0.1273
852.90 0.1273
853.00 0.1272
853.10 0.1271
853.20 0.1271
853.30 0.127
853.40 0.127
853.50 0.1269
853.60 0.1269
853.70 0.1268
853.80 0.1267
853.90 0.1267
854.00 0.1266
854.10 0.1266
854.20 0.1265
854.30 0.1265
854.40 0.1264
854.50 0.1263
854.60 0.1263
854.70 0.1262
854.80 0.1262
854.90 0.1261
855.00 0.1261
855.10 0.126
855.20 0.1259
855.30 0.1259
855.40 0.1258
855.50 0.1258
855.60 0.1257
855.70 0.1257
855.80 0.1256
855.90 0.1255
856.00 0.1255
856.10 0.1254
856.20 0.1254
856.30 0.1253
856.40 0.1253
856.50 0.1252
856.60 0.1251
856.70 0.1251
856.80 0.125
856.90 0.125
857.00 0.1249
857.10 0.1249
857.20 0.1248
857.30 0.1247
857.40 0.1247
857.50 0.1246
857.60 0.1246
857.70 0.1245
857.80 0.1245
857.90 0.1244
858.00 0.1243
858.10 0.1243
858.20 0.1242
858.30 0.1242
858.40 0.1241
858.50 0.1241
858.60 0.124
858.70 0.124
858.80 0.1239
858.90 0.1238
859.00 0.1238
859.10 0.1237
859.20 0.1237
859.30 0.1236
859.40 0.1236
859.50 0.1235
859.60 0.1235
859.70 0.1234
859.80 0.1233
859.90 0.1233
860.00 0.1232
860.10 0.1232
860.20 0.1231
860.30 0.1231
860.40 0.123
860.50 0.123
860.60 0.1229
860.70 0.1228
860.80 0.1228
860.90 0.1227
861.00 0.1227
861.10 0.1226
861.20 0.1226
861.30 0.1225
861.40 0.1225
861.50 0.1224
861.60 0.1223
861.70 0.1223
861.80 0.1222
861.90 0.1222
862.00 0.1221
862.10 0.1221
862.20 0.122
862.30 0.122
862.40 0.1219
862.50 0.1219
862.60 0.1218
862.70 0.1217
862.80 0.1217
862.90 0.1216
863.00 0.1216
863.10 0.1215
863.20 0.1215
863.30 0.1214
863.40 0.1214
863.50 0.1213
863.60 0.1213
863.70 0.1212
863.80 0.1211
863.90 0.1211
864.00 0.121
864.10 0.121
864.20 0.1209
864.30 0.1209
864.40 0.1208
864.50 0.1208
864.60 0.1207
864.70 0.1207
864.80 0.1206
864.90 0.1206
865.00 0.1205
865.10 0.1204
865.20 0.1204
865.30 0.1203
865.40 0.1203
865.50 0.1202
865.60 0.1202
865.70 0.1201
865.80 0.1201
865.90 0.12
866.00 0.12
866.10 0.1199
866.20 0.1199
866.30 0.1198
866.40 0.1197
866.50 0.1197
866.60 0.1196
866.70 0.1196
866.80 0.1195
866.90 0.1195
867.00 0.1194
867.10 0.1194
867.20 0.1193
867.30 0.1193
867.40 0.1192
867.50 0.1192
867.60 0.1191
867.70 0.1191
867.80 0.119
867.90 0.1189
868.00 0.1189
868.10 0.1188
868.20 0.1188
868.30 0.1187
868.40 0.1187
868.50 0.1186
868.60 0.1186
868.70 0.1185
868.80 0.1185
868.90 0.1184
869.00 0.1184
869.10 0.1183
869.20 0.1183
869.30 0.1182
869.40 0.1182
869.50 0.1181
869.60 0.118
869.70 0.118
869.80 0.1179
869.90 0.1179
870.00 0.1178
870.10 0.1178
870.20 0.1177
870.30 0.1177
870.40 0.1176
870.50 0.1176
870.60 0.1175
870.70 0.1175
870.80 0.1174
870.90 0.1174
871.00 0.1173
871.10 0.1173
871.20 0.1172
871.30 0.1172
871.40 0.1171
871.50 0.117
871.60 0.117
871.70 0.1169
871.80 0.1169
871.90 0.1168
872.00 0.1168
872.10 0.1167
872.20 0.1167
872.30 0.1166
872.40 0.1166
872.50 0.1165
872.60 0.1165
872.70 0.1164
872.80 0.1164
872.90 0.1163
873.00 0.1163
873.10 0.1162
873.20 0.1162
873.30 0.1161
873.40 0.1161
873.50 0.116
873.60 0.116
873.70 0.1159
873.80 0.1159
873.90 0.1158
874.00 0.1158
874.10 0.1157
874.20 0.1157
874.30 0.1156
874.40 0.1156
874.50 0.1155
874.60 0.1155
874.70 0.1154
874.80 0.1153
874.90 0.1153
875.00 0.1152
875.10 0.1152
875.20 0.1151
875.30 0.1151
875.40 0.115
875.50 0.115
875.60 0.1149
875.70 0.1149
875.80 0.1148
875.90 0.1148
876.00 0.1147
876.10 0.1147
876.20 0.1146
876.30 0.1146
876.40 0.1145
876.50 0.1145
876.60 0.1144
876.70 0.1144
876.80 0.1143
876.90 0.1143
877.00 0.1142
877.10 0.1142
877.20 0.1141
877.30 0.1141
877.40 0.114
877.50 0.114
877.60 0.1139
877.70 0.1139
877.80 0.1138
877.90 0.1138
878.00 0.1137
878.10 0.1137
878.20 0.1136
878.30 0.1136
878.40 0.1135
878.50 0.1135
878.60 0.1134
878.70 0.1134
878.80 0.1133
878.90 0.1133
879.00 0.1132
879.10 0.1132
879.20 0.1131
879.30 0.1131
879.40 0.113
879.50 0.113
879.60 0.1129
879.70 0.1129
879.80 0.1128
879.90 0.1128
880.00 0.1127
880.10 0.1127
880.20 0.1126
880.30 0.1126
880.40 0.1125
880.50 0.1125
880.60 0.1124
880.70 0.1124
880.80 0.1123
880.90 0.1123
881.00 0.1122
881.10 0.1122
881.20 0.1121
881.30 0.1121
881.40 0.112
881.50 0.112
881.60 0.1119
881.70 0.1119
881.80 0.1118
881.90 0.1118
882.00 0.1117
882.10 0.1117
882.20 0.1116
882.30 0.1116
882.40 0.1115
882.50 0.1115
882.60 0.1114
882.70 0.1114
882.80 0.1113
882.90 0.1113
883.00 0.1113
883.10 0.1112
883.20 0.1112
883.30 0.1111
883.40 0.1111
883.50 0.111
883.60 0.111
883.70 0.1109
883.80 0.1109
883.90 0.1108
884.00 0.1108
884.10 0.1107
884.20 0.1107
884.30 0.1106
884.40 0.1106
884.50 0.1105
884.60 0.1105
884.70 0.1104
884.80 0.1104
884.90 0.1103
885.00 0.1103
885.10 0.1102
885.20 0.1102
885.30 0.1101
885.40 0.1101
885.50 0.11
885.60 0.11
885.70 0.1099
885.80 0.1099
885.90 0.1098
886.00 0.1098
886.10 0.1098
886.20 0.1097
886.30 0.1097
886.40 0.1096
886.50 0.1096
886.60 0.1095
886.70 0.1095
886.80 0.1094
886.90 0.1094
887.00 0.1093
887.10 0.1093
887.20 0.1092
887.30 0.1092
887.40 0.1091
887.50 0.1091
887.60 0.109
887.70 0.109
887.80 0.1089
887.90 0.1089
888.00 0.1089
888.10 0.1088
888.20 0.1088
888.30 0.1087
888.40 0.1087
888.50 0.1086
888.60 0.1086
888.70 0.1085
888.80 0.1085
888.90 0.1084
889.00 0.1084
889.10 0.1083
889.20 0.1083
889.30 0.1082
889.40 0.1082
889.50 0.1082
889.60 0.1081
889.70 0.1081
889.80 0.108
889.90 0.108
890.00 0.1079
890.10 0.1079
890.20 0.1078
890.30 0.1078
890.40 0.1077
890.50 0.1077
890.60 0.1076
890.70 0.1076
890.80 0.1075
890.90 0.1075
891.00 0.1075
891.10 0.1074
891.20 0.1074
891.30 0.1073
891.40 0.1073
891.50 0.1072
891.60 0.1072
891.70 0.1071
891.80 0.1071
891.90 0.107
892.00 0.107
892.10 0.1069
892.20 0.1069
892.30 0.1069
892.40 0.1068
892.50 0.1068
892.60 0.1067
892.70 0.1067
892.80 0.1066
892.90 0.1066
893.00 0.1065
893.10 0.1065
893.20 0.1064
893.30 0.1064
893.40 0.1063
893.50 0.1063
893.60 0.1062
893.70 0.1062
893.80 0.1061
893.90 0.1061
894.00 0.106
894.10 0.106
894.20 0.106
894.30 0.1059
894.40 0.1059
894.50 0.1058
894.60 0.1058
894.70 0.1057
894.80 0.1057
894.90 0.1056
895.00 0.1056
895.10 0.1055
895.20 0.1055
895.30 0.1054
895.40 0.1054
895.50 0.1053
895.60 0.1053
895.70 0.1053
895.80 0.1052
895.90 0.1052
896.00 0.1051
896.10 0.1051
896.20 0.105
896.30 0.105
896.40 0.1049
896.50 0.1049
896.60 0.1048
896.70 0.1048
896.80 0.1047
896.90 0.1047
897.00 0.1046
897.10 0.1046
897.20 0.1046
897.30 0.1045
897.40 0.1045
897.50 0.1044
897.60 0.1044
897.70 0.1043
897.80 0.1043
897.90 0.1042
898.00 0.1042
898.10 0.1041
898.20 0.1041
898.30 0.104
898.40 0.104
898.50 0.104
898.60 0.1039
898.70 0.1039
898.80 0.1038
898.90 0.1038
899.00 0.1037
899.10 0.1037
899.20 0.1036
899.30 0.1036
899.40 0.1035
899.50 0.1035
899.60 0.1034
899.70 0.1034
899.80 0.1034
899.90 0.1033
900.00 0.1033
900.10 0.1032
900.20 0.1032
900.30 0.1031
900.40 0.1031
900.50 0.103
900.60 0.103
900.70 0.1029
900.80 0.1029
900.90 0.1028
901.00 0.1028
901.10 0.1028
901.20 0.1027
901.30 0.1027
901.40 0.1026
901.50 0.1026
901.60 0.1025
901.70 0.1025
901.80 0.1024
901.90 0.1024
902.00 0.1023
902.10 0.1023
902.20 0.1023
902.30 0.1022
902.40 0.1022
902.50 0.1021
902.60 0.1021
902.70 0.1021
902.80 0.102
902.90 0.102
903.00 0.1019
903.10 0.1019
903.20 0.1019
903.30 0.1018
903.40 0.1018
903.50 0.1017
903.60 0.1017
903.70 0.1016
903.80 0.1016
903.90 0.1016
904.00 0.1015
904.10 0.1015
904.20 0.1014
904.30 0.1014
904.40 0.1014
904.50 0.1013
904.60 0.1013
904.70 0.1012
904.80 0.1012
904.90 0.1012
905.00 0.1011
905.10 0.1011
905.20 0.101
905.30 0.101
905.40 0.101
905.50 0.1009
905.60 0.1009
905.70 0.1008
905.80 0.1008
905.90 0.1008
906.00 0.1007
906.10 0.1007
906.20 0.1006
906.30 0.1006
906.40 0.1005
906.50 0.1005
906.60 0.1005
906.70 0.1004
906.80 0.1004
906.90 0.1003
907.00 0.1003
907.10 0.1003
907.20 0.1002
907.30 0.1002
907.40 0.1001
907.50 0.1001
907.60 0.1001
907.70 0.1
907.80 0.09997
907.90 0.09993
908.00 0.09989
908.10 0.09985
908.20 0.09981
908.30 0.09976
908.40 0.09972
908.50 0.09968
908.60 0.09964
908.70 0.0996
908.80 0.09956
908.90 0.09952
909.00 0.09947
909.10 0.09943
909.20 0.09939
909.30 0.09935
909.40 0.09931
909.50 0.09927
909.60 0.09923
909.70 0.09919
909.80 0.09914
909.90 0.0991
910.00 0.09906
910.10 0.09902
910.20 0.09898
910.30 0.09894
910.40 0.0989
910.50 0.09886
910.60 0.09882
910.70 0.09877
910.80 0.09873
910.90 0.09869
911.00 0.09865
911.10 0.09861
911.20 0.09857
911.30 0.09853
911.40 0.09849
911.50 0.09845
911.60 0.0984
911.70 0.09836
911.80 0.09832
911.90 0.09828
912.00 0.09824
912.10 0.0982
912.20 0.09815
912.30 0.09811
912.40 0.09807
912.50 0.09802
912.60 0.09798
912.70 0.09793
912.80 0.09789
912.90 0.09785
913.00 0.0978
913.10 0.09776
913.20 0.09771
913.30 0.09767
913.40 0.09763
913.50 0.09758
913.60 0.09754
913.70 0.0975
913.80 0.09745
913.90 0.09741
914.00 0.09737
914.10 0.09732
914.20 0.09728
914.30 0.09723
914.40 0.09719
914.50 0.09715
914.60 0.0971
914.70 0.09706
914.80 0.09702
914.90 0.09697
915.00 0.09693
915.10 0.09689
915.20 0.09684
915.30 0.0968
915.40 0.09676
915.50 0.09671
915.60 0.09667
915.70 0.09663
915.80 0.09658
915.90 0.09654
916.00 0.0965
916.10 0.09645
916.20 0.09641
916.30 0.09637
916.40 0.09632
916.50 0.09628
916.60 0.09624
916.70 0.09619
916.80 0.09615
916.90 0.09611
917.00 0.09606
917.10 0.09602
917.20 0.09597
917.30 0.09593
917.40 0.09588
917.50 0.09583
917.60 0.09579
917.70 0.09574
917.80 0.09569
917.90 0.09565
918.00 0.0956
918.10 0.09555
918.20 0.09551
918.30 0.09546
918.40 0.09542
918.50 0.09537
918.60 0.09532
918.70 0.09528
918.80 0.09523
918.90 0.09518
919.00 0.09514
919.10 0.09509
919.20 0.09505
919.30 0.095
919.40 0.09495
919.50 0.09491
919.60 0.09486
919.70 0.09482
919.80 0.09477
919.90 0.09472
920.00 0.09468
920.10 0.09463
920.20 0.09459
920.30 0.09454
920.40 0.09449
920.50 0.09445
920.60 0.0944
920.70 0.09436
920.80 0.09431
920.90 0.09426
921.00 0.09422
921.10 0.09417
921.20 0.09413
921.30 0.09408
921.40 0.09404
921.50 0.09399
921.60 0.09394
921.70 0.0939
921.80 0.09385
921.90 0.09381
922.00 0.09376
922.10 0.09373
922.20 0.09369
922.30 0.09366
922.40 0.09362
922.50 0.09359
922.60 0.09355
922.70 0.09352
922.80 0.09348
922.90 0.09345
923.00 0.09341
923.10 0.09338
923.20 0.09334
923.30 0.09331
923.40 0.09327
923.50 0.09324
923.60 0.0932
923.70 0.09317
923.80 0.09314
923.90 0.0931
924.00 0.09307
924.10 0.09303
924.20 0.093
924.30 0.09296
924.40 0.09293
924.50 0.09289
924.60 0.09286
924.70 0.09282
924.80 0.09279
924.90 0.09275
925.00 0.09272
925.10 0.09269
925.20 0.09265
925.30 0.09262
925.40 0.09258
925.50 0.09255
925.60 0.09251
925.70 0.09248
925.80 0.09244
925.90 0.09241
926.00 0.09238
926.10 0.09234
926.20 0.09231
926.30 0.09227
926.40 0.09224
926.50 0.0922
926.60 0.09217
926.70 0.09213
926.80 0.0921
926.90 0.09207
927.00 0.09203
927.10 0.092
927.20 0.09196
927.30 0.09193
927.40 0.0919
927.50 0.09186
927.60 0.09183
927.70 0.09179
927.80 0.09176
927.90 0.09173
928.00 0.09169
928.10 0.09166
928.20 0.09162
928.30 0.09159
928.40 0.09156
928.50 0.09152
928.60 0.09149
928.70 0.09145
928.80 0.09142
928.90 0.09139
929.00 0.09135
929.10 0.09132
929.20 0.09128
929.30 0.09125
929.40 0.09122
929.50 0.09118
929.60 0.09115
929.70 0.09111
929.80 0.09108
929.90 0.09105
930.00 0.09101
930.10 0.09098
930.20 0.09095
930.30 0.09091
930.40 0.09088
930.50 0.09084
930.60 0.09081
930.70 0.09078
930.80 0.09074
930.90 0.09071
931.00 0.09068
931.10 0.09064
931.20 0.09061
931.30 0.09058
931.40 0.09054
931.50 0.09051
931.60 0.09047
931.70 0.09044
931.80 0.09041
931.90 0.09037
932.00 0.09034
932.10 0.0903
932.20 0.09027
932.30 0.09023
932.40 0.0902
932.50 0.09016
932.60 0.09013
932.70 0.09009
932.80 0.09005
932.90 0.09002
933.00 0.08998
933.10 0.08995
933.20 0.08991
933.30 0.08988
933.40 0.08984
933.50 0.0898
933.60 0.08977
933.70 0.08973
933.80 0.0897
933.90 0.08966
934.00 0.08963
934.10 0.08959
934.20 0.08956
934.30 0.08952
934.40 0.08948
934.50 0.08945
934.60 0.08941
934.70 0.08937
934.80 0.08934
934.90 0.0893
935.00 0.08927
935.10 0.08923
935.20 0.08919
935.30 0.08916
935.40 0.08912
935.50 0.08908
935.60 0.08905
935.70 0.08901
935.80 0.08898
935.90 0.08894
936.00 0.0889
936.10 0.08887
936.20 0.08883
936.30 0.08879
936.40 0.08876
936.50 0.08872
936.60 0.08869
936.70 0.08865
936.80 0.08861
936.90 0.08858
937.00 0.08854
937.10 0.08851
937.20 0.08847
937.30 0.08843
937.40 0.0884
937.50 0.08836
937.60 0.08832
937.70 0.08829
937.80 0.08825
937.90 0.08821
938.00 0.08818
938.10 0.08814
938.20 0.0881
938.30 0.08807
938.40 0.08803
938.50 0.08799
938.60 0.08796
938.70 0.08792
938.80 0.08788
938.90 0.08785
939.00 0.08781
939.10 0.08777
939.20 0.08774
939.30 0.0877
939.40 0.08766
939.50 0.08763
939.60 0.08759
939.70 0.08755
939.80 0.08752
939.90 0.08748
940.00 0.08745
940.10 0.08741
940.20 0.08737
940.30 0.08734
940.40 0.0873
940.50 0.08726
940.60 0.08722
940.70 0.08719
940.80 0.08715
940.90 0.08711
941.00 0.08708
941.10 0.08704
941.20 0.087
941.30 0.08697
941.40 0.08693
941.50 0.08689
941.60 0.08686
941.70 0.08682
941.80 0.08678
941.90 0.08675
942.00 0.08671
942.10 0.08667
942.20 0.08664
942.30 0.0866
942.40 0.08656
942.50 0.08652
942.60 0.08649
942.70 0.08645
942.80 0.08641
942.90 0.08637
943.00 0.08634
943.10 0.0863
943.20 0.08626
943.30 0.08622
943.40 0.08619
943.50 0.08615
943.60 0.08611
943.70 0.08607
943.80 0.08604
943.90 0.086
944.00 0.08596
944.10 0.08592
944.20 0.08589
944.30 0.08585
944.40 0.08581
944.50 0.08577
944.60 0.08574
944.70 0.0857
944.80 0.08566
944.90 0.08562
945.00 0.08558
945.10 0.08555
945.20 0.08551
945.30 0.08547
945.40 0.08543
945.50 0.08539
945.60 0.08535
945.70 0.08531
945.80 0.08527
945.90 0.08524
946.00 0.0852
946.10 0.08516
946.20 0.08512
946.30 0.08508
946.40 0.08504
946.50 0.085
946.60 0.08496
946.70 0.08492
946.80 0.08488
946.90 0.08485
947.00 0.08481
947.10 0.08477
947.20 0.08473
947.30 0.08469
947.40 0.08465
947.50 0.0846
947.60 0.08456
947.70 0.08452
947.80 0.08448
947.90 0.08444
948.00 0.0844
948.10 0.08436
948.20 0.08432
948.30 0.08427
948.40 0.08423
948.50 0.08419
948.60 0.08415
948.70 0.08411
948.80 0.08407
948.90 0.08403
949.00 0.08399
949.10 0.08394
949.20 0.0839
949.30 0.08386
949.40 0.08382
949.50 0.08377
949.60 0.08373
949.70 0.08368
949.80 0.08364
949.90 0.08359
950.00 0.08355
950.10 0.0835
950.20 0.08346
950.30 0.08341
950.40 0.08337
950.50 0.08332
950.60 0.08328
950.70 0.08323
950.80 0.08319
950.90 0.08314
951.00 0.0831
951.10 0.08305
951.20 0.08301
951.30 0.08296
951.40 0.08292
951.50 0.08287
951.60 0.08282
951.70 0.08277
951.80 0.08273
951.90 0.08268
952.00 0.08263
952.10 0.08258
952.20 0.08253
952.30 0.08249
952.40 0.08244
952.50 0.08239
952.60 0.08234
952.70 0.08229
952.80 0.08225
952.90 0.0822
953.00 0.08215
953.10 0.08211
953.20 0.08206
953.30 0.08202
953.40 0.08197
953.50 0.08192
953.60 0.08189
953.70 0.08185
953.80 0.08181
953.90 0.08177
954.00 0.08174
954.10 0.08171
954.20 0.08168
954.30 0.08166
954.40 0.08164
954.50 0.08162
954.60 0.08159
954.70 0.08156
954.80 0.08151
954.90 0.08147
955.00 0.08142
955.10 0.08137
955.20 0.08135
955.30 0.08132
955.40 0.08129
955.50 0.08126
955.60 0.08123
955.70 0.08121
955.80 0.08118
955.90 0.08116
956.00 0.08114
956.10 0.08112
956.20 0.0811
956.30 0.08108
956.40 0.08106
956.50 0.08104
956.60 0.08102
956.70 0.08101
956.80 0.08099
956.90 0.08097
957.00 0.08095
957.10 0.08093
957.20 0.08091
957.30 0.08089
957.40 0.08087
957.50 0.08085
957.60 0.08083
957.70 0.08081
957.80 0.08079
957.90 0.08077
958.00 0.08075
958.10 0.08073
958.20 0.08071
958.30 0.08068
958.40 0.08066
958.50 0.08064
958.60 0.08062
958.70 0.0806
958.80 0.08058
958.90 0.08056
959.00 0.08054
959.10 0.08052
959.20 0.0805
959.30 0.08048
959.40 0.08045
959.50 0.08043
959.60 0.0804
959.70 0.08038
959.80 0.08035
959.90 0.08033
960.00 0.0803
960.10 0.08028
960.20 0.08025
960.30 0.08023
960.40 0.0802
960.50 0.08018
960.60 0.08015
960.70 0.08013
960.80 0.0801
960.90 0.08008
961.00 0.08005
961.10 0.08003
961.20 0.08
961.30 0.07998
961.40 0.07995
961.50 0.07992
961.60 0.0799
961.70 0.07987
961.80 0.07984
961.90 0.07982
962.00 0.07979
962.10 0.07976
962.20 0.07973
962.30 0.07971
962.40 0.07968
962.50 0.07965
962.60 0.07962
962.70 0.07959
962.80 0.07957
962.90 0.07954
963.00 0.07951
963.10 0.07948
963.20 0.07945
963.30 0.07943
963.40 0.0794
963.50 0.07937
963.60 0.07934
963.70 0.07931
963.80 0.07928
963.90 0.07925
964.00 0.07922
964.10 0.07919
964.20 0.07917
964.30 0.07914
964.40 0.07911
964.50 0.07908
964.60 0.07905
964.70 0.07902
964.80 0.07899
964.90 0.07896
965.00 0.07893
965.10 0.0789
965.20 0.07887
965.30 0.07884
965.40 0.07881
965.50 0.07878
965.60 0.07875
965.70 0.07872
965.80 0.07869
965.90 0.07866
966.00 0.07863
966.10 0.0786
966.20 0.07857
966.30 0.07854
966.40 0.07851
966.50 0.07848
966.60 0.07845
966.70 0.07842
966.80 0.07839
966.90 0.07836
967.00 0.07833
967.10 0.0783
967.20 0.07827
967.30 0.07824
967.40 0.07821
967.50 0.07818
967.60 0.07815
967.70 0.07812
967.80 0.07809
967.90 0.07806
968.00 0.07803
968.10 0.078
968.20 0.07797
968.30 0.07794
968.40 0.07791
968.50 0.07788
968.60 0.07785
968.70 0.07782
968.80 0.07779
968.90 0.07776
969.00 0.07773
969.10 0.0777
969.20 0.07767
969.30 0.07764
969.40 0.07761
969.50 0.07758
969.60 0.07755
969.70 0.07752
969.80 0.07749
969.90 0.07746
970.00 0.07743
970.10 0.0774
970.20 0.07736
970.30 0.07733
970.40 0.0773
970.50 0.07727
970.60 0.07724
970.70 0.07721
970.80 0.07718
970.90 0.07715
971.00 0.07712
971.10 0.07709
971.20 0.07706
971.30 0.07703
971.40 0.077
971.50 0.07697
971.60 0.07694
971.70 0.07691
971.80 0.07688
971.90 0.07685
972.00 0.07682
972.10 0.07679
972.20 0.07676
972.30 0.07673
972.40 0.0767
972.50 0.07667
972.60 0.07664
972.70 0.07661
972.80 0.07658
972.90 0.07655
973.00 0.07652
973.10 0.07649
973.20 0.07646
973.30 0.07643
973.40 0.0764
973.50 0.07637
973.60 0.07633
973.70 0.0763
973.80 0.07627
973.90 0.07624
974.00 0.07621
974.10 0.07618
974.20 0.07615
974.30 0.07612
974.40 0.07609
974.50 0.07606
974.60 0.07603
974.70 0.076
974.80 0.07597
974.90 0.07594
975.00 0.07591
975.10 0.07588
975.20 0.07585
975.30 0.07582
975.40 0.07579
975.50 0.07576
975.60 0.07573
975.70 0.0757
975.80 0.07567
975.90 0.07564
976.00 0.07561
976.10 0.07558
976.20 0.07555
976.30 0.07552
976.40 0.07549
976.50 0.07546
976.60 0.07543
976.70 0.0754
976.80 0.07537
976.90 0.07534
977.00 0.07531
977.10 0.07528
977.20 0.07525
977.30 0.07522
977.40 0.07519
977.50 0.07516
977.60 0.07513
977.70 0.0751
977.80 0.07507
977.90 0.07504
978.00 0.07501
978.10 0.07498
978.20 0.07495
978.30 0.07493
978.40 0.0749
978.50 0.07487
978.60 0.07484
978.70 0.07481
978.80 0.07478
978.90 0.07475
979.00 0.07472
979.10 0.07469
979.20 0.07466
979.30 0.07463
979.40 0.0746
979.50 0.07457
979.60 0.07454
979.70 0.07451
979.80 0.07448
979.90 0.07445
980.00 0.07442
980.10 0.07439
980.20 0.07436
980.30 0.07433
980.40 0.0743
980.50 0.07427
980.60 0.07424
980.70 0.07421
980.80 0.07418
980.90 0.07415
981.00 0.07413
981.10 0.0741
981.20 0.07407
981.30 0.07404
981.40 0.07401
981.50 0.07398
981.60 0.07395
981.70 0.07392
981.80 0.07389
981.90 0.07386
982.00 0.07383
982.10 0.0738
982.20 0.07377
982.30 0.07374
982.40 0.07371
982.50 0.07368
982.60 0.07365
982.70 0.07363
982.80 0.0736
982.90 0.07357
983.00 0.07354
983.10 0.07351
983.20 0.07348
983.30 0.07345
983.40 0.07342
983.50 0.07339
983.60 0.07336
983.70 0.07333
983.80 0.0733
983.90 0.07327
984.00 0.07324
984.10 0.07322
984.20 0.07319
984.30 0.07316
984.40 0.07313
984.50 0.0731
984.60 0.07307
984.70 0.07304
984.80 0.07301
984.90 0.07298
985.00 0.07295
985.10 0.07292
985.20 0.07289
985.30 0.07287
985.40 0.07284
985.50 0.07281
985.60 0.07278
985.70 0.07275
985.80 0.07272
985.90 0.07269
986.00 0.07266
986.10 0.07263
986.20 0.0726
986.30 0.07258
986.40 0.07255
986.50 0.07252
986.60 0.07249
986.70 0.07246
986.80 0.07243
986.90 0.0724
987.00 0.07237
987.10 0.07234
987.20 0.07231
987.30 0.07229
987.40 0.07226
987.50 0.07223
987.60 0.0722
987.70 0.07217
987.80 0.07214
987.90 0.07211
988.00 0.07208
988.10 0.07205
988.20 0.07202
988.30 0.072
988.40 0.07197
988.50 0.07194
988.60 0.07191
988.70 0.07188
988.80 0.07185
988.90 0.07182
989.00 0.07179
989.10 0.07176
989.20 0.07174
989.30 0.07171
989.40 0.07168
989.50 0.07165
989.60 0.07162
989.70 0.07159
989.80 0.07156
989.90 0.07153
990.00 0.0715
990.10 0.07147
990.20 0.07145
990.30 0.07142
990.40 0.07139
990.50 0.07136
990.60 0.07133
990.70 0.0713
990.80 0.07127
990.90 0.07124
991.00 0.07121
991.10 0.07118
991.20 0.07116
991.30 0.07113
991.40 0.0711
991.50 0.07107
991.60 0.07104
991.70 0.07101
991.80 0.07098
991.90 0.07095
992.00 0.07092
992.10 0.07089
992.20 0.07087
992.30 0.07084
992.40 0.07081
992.50 0.07078
992.60 0.07075
992.70 0.07072
992.80 0.07069
992.90 0.07066
993.00 0.07063
993.10 0.0706
993.20 0.07057
993.30 0.07054
993.40 0.07051
993.50 0.07048
993.60 0.07045
993.70 0.07042
993.80 0.07039
993.90 0.07036
994.00 0.07033
994.10 0.0703
994.20 0.07027
994.30 0.07024
994.40 0.07022
994.50 0.07019
994.60 0.07016
994.70 0.07013
994.80 0.0701
994.90 0.07007
995.00 0.07004
995.10 0.07
995.20 0.06997
995.30 0.06994
995.40 0.06991
995.50 0.06988
995.60 0.06985
995.70 0.06982
995.80 0.06979
995.90 0.06976
996.00 0.06973
996.10 0.0697
996.20 0.06967
996.30 0.06963
996.40 0.0696
996.50 0.06957
996.60 0.06954
996.70 0.06951
996.80 0.06948
996.90 0.06945
997.00 0.06942
997.10 0.06938
997.20 0.06935
997.30 0.06932
997.40 0.06929
997.50 0.06925
997.60 0.06922
997.70 0.06919
997.80 0.06915
997.90 0.06912
998.00 0.06908
998.10 0.06905
998.20 0.06901
998.30 0.06898
998.40 0.06894
998.50 0.06891
998.60 0.06887
998.70 0.06883
998.80 0.0688
998.90 0.06876
999.00 0.06873
999.10 0.06869
999.20 0.06866
999.30 0.06862
999.40 0.06859
999.50 0.06855
999.60 0.06852
999.70 0.06848
999.80 0.06844
999.90 0.0684
1000.00 0.06835
1000.10 0.06831
1000.20 0.06827
1000.30 0.06823
1000.40 0.06819
1000.50 0.06814
1000.60 0.0681
1000.70 0.06806
1000.80 0.06802
1000.90 0.06798
1001.00 0.06793
1001.10 0.06789
1001.20 0.06785
1001.30 0.06781
1001.40 0.06777
1001.50 0.06772
1001.60 0.06768
1001.70 0.06764
1001.80 0.06759
1001.90 0.06754
1002.00 0.0675
1002.10 0.06745
1002.20 0.06739
1002.30 0.06734
1002.40 0.06729
1002.50 0.06724
1002.60 0.06719
1002.70 0.06714
1002.80 0.06709
1002.90 0.06704
1003.00 0.06699
1003.10 0.06694
1003.20 0.06689
1003.30 0.06683
1003.40 0.06678
1003.50 0.06673
1003.60 0.06668
1003.70 0.06663
1003.80 0.06658
1003.90 0.06653
1004.00 0.06649
1004.10 0.06645
1004.20 0.06641
1004.30 0.06639
1004.40 0.06638
1004.50 0.06638
1004.60 0.06641
1004.70 0.06646
1004.80 0.06653
1004.90 0.06652
1005.00 0.06651
1005.10 0.06644
1005.20 0.06634
1005.30 0.06624
1005.40 0.06615
1005.50 0.06611
1005.60 0.06609
1005.70 0.06607
1005.80 0.06605
1005.90 0.06604
1006.00 0.06602
1006.10 0.066
1006.20 0.066
1006.30 0.066
1006.40 0.066
1006.50 0.066
1006.60 0.066
1006.70 0.066
1006.80 0.066
1006.90 0.066
1007.00 0.066
1007.10 0.066
1007.20 0.066
1007.30 0.066
1007.40 0.066
1007.50 0.066
1007.60 0.066
1007.70 0.06599
1007.80 0.06598
1007.90 0.06598
1008.00 0.06597
1008.10 0.06596
1008.20 0.06595
1008.30 0.06594
1008.40 0.06594
1008.50 0.06593
1008.60 0.06592
1008.70 0.06591
1008.80 0.0659
1008.90 0.06589
1009.00 0.06589
1009.10 0.06588
1009.20 0.06587
1009.30 0.06586
1009.40 0.06585
1009.50 0.06585
1009.60 0.06584
1009.70 0.06582
1009.80 0.06581
1009.90 0.06579
1010.00 0.06578
1010.10 0.06576
1010.20 0.06574
1010.30 0.06573
1010.40 0.06571
1010.50 0.06569
1010.60 0.06568
1010.70 0.06566
1010.80 0.06565
1010.90 0.06563
1011.00 0.06561
1011.10 0.0656
1011.20 0.06558
1011.30 0.06557
1011.40 0.06555
1011.50 0.06553
1011.60 0.06552
1011.70 0.0655
1011.80 0.06548
1011.90 0.06546
1012.00 0.06544
1012.10 0.06542
1012.20 0.0654
1012.30 0.06538
1012.40 0.06536
1012.50 0.06534
1012.60 0.06532
1012.70 0.0653
1012.80 0.06528
1012.90 0.06526
1013.00 0.06524
1013.10 0.06522
1013.20 0.06519
1013.30 0.06517
1013.40 0.06515
1013.50 0.06513
1013.60 0.06511
1013.70 0.06509
1013.80 0.06507
1013.90 0.06505
1014.00 0.06503
1014.10 0.065
1014.20 0.06498
1014.30 0.06496
1014.40 0.06494
1014.50 0.06492
1014.60 0.06489
1014.70 0.06487
1014.80 0.06485
1014.90 0.06483
1015.00 0.0648
1015.10 0.06478
1015.20 0.06476
1015.30 0.06473
1015.40 0.06471
1015.50 0.06469
1015.60 0.06467
1015.70 0.06464
1015.80 0.06462
1015.90 0.0646
1016.00 0.06457
1016.10 0.06455
1016.20 0.06453
1016.30 0.06451
1016.40 0.06448
1016.50 0.06446
1016.60 0.06444
1016.70 0.06441
1016.80 0.06439
1016.90 0.06437
1017.00 0.06434
1017.10 0.06432
1017.20 0.0643
1017.30 0.06427
1017.40 0.06425
1017.50 0.06423
1017.60 0.0642
1017.70 0.06418
1017.80 0.06416
1017.90 0.06413
1018.00 0.06411
1018.10 0.06409
1018.20 0.06406
1018.30 0.06404
1018.40 0.06402
1018.50 0.06399
1018.60 0.06397
1018.70 0.06395
1018.80 0.06392
1018.90 0.0639
1019.00 0.06388
1019.10 0.06385
1019.20 0.06383
1019.30 0.0638
1019.40 0.06378
1019.50 0.06376
1019.60 0.06373
1019.70 0.06371
1019.80 0.06369
1019.90 0.06366
1020.00 0.06364
1020.10 0.06362
1020.20 0.06359
1020.30 0.06357
1020.40 0.06354
1020.50 0.06352
1020.60 0.0635
1020.70 0.06347
1020.80 0.06345
1020.90 0.06343
1021.00 0.0634
1021.10 0.06338
1021.20 0.06336
1021.30 0.06333
1021.40 0.06331
1021.50 0.06328
1021.60 0.06326
1021.70 0.06324
1021.80 0.06321
1021.90 0.06319
1022.00 0.06317
1022.10 0.06314
1022.20 0.06312
1022.30 0.06309
1022.40 0.06307
1022.50 0.06305
1022.60 0.06302
1022.70 0.063
1022.80 0.06298
1022.90 0.06295
1023.00 0.06293
1023.10 0.06291
1023.20 0.06288
1023.30 0.06286
1023.40 0.06283
1023.50 0.06281
1023.60 0.06279
1023.70 0.06276
1023.80 0.06274
1023.90 0.06272
1024.00 0.06269
1024.10 0.06267
1024.20 0.06265
1024.30 0.06262
1024.40 0.0626
1024.50 0.06258
1024.60 0.06255
1024.70 0.06253
1024.80 0.06251
1024.90 0.06248
1025.00 0.06246
1025.10 0.06243
1025.20 0.06241
1025.30 0.06239
1025.40 0.06236
1025.50 0.06234
1025.60 0.06232
1025.70 0.06229
1025.80 0.06227
1025.90 0.06225
1026.00 0.06222
1026.10 0.0622
1026.20 0.06218
1026.30 0.06215
1026.40 0.06213
1026.50 0.06211
1026.60 0.06208
1026.70 0.06206
1026.80 0.06204
1026.90 0.06201
1027.00 0.06199
1027.10 0.06197
1027.20 0.06194
1027.30 0.06192
1027.40 0.0619
1027.50 0.06187
1027.60 0.06185
1027.70 0.06183
1027.80 0.0618
1027.90 0.06178
1028.00 0.06176
1028.10 0.06173
1028.20 0.06171
1028.30 0.06169
1028.40 0.06166
1028.50 0.06164
1028.60 0.06162
1028.70 0.06159
1028.80 0.06157
1028.90 0.06155
1029.00 0.06153
1029.10 0.0615
1029.20 0.06148
1029.30 0.06146
1029.40 0.06143
1029.50 0.06141
1029.60 0.06139
1029.70 0.06136
1029.80 0.06134
1029.90 0.06132
1030.00 0.06129
1030.10 0.06127
1030.20 0.06125
1030.30 0.06122
1030.40 0.0612
1030.50 0.06118
1030.60 0.06116
1030.70 0.06113
1030.80 0.06111
1030.90 0.06109
1031.00 0.06106
1031.10 0.06104
1031.20 0.06102
1031.30 0.06099
1031.40 0.06097
1031.50 0.06095
1031.60 0.06093
1031.70 0.0609
1031.80 0.06088
1031.90 0.06086
1032.00 0.06083
1032.10 0.06081
1032.20 0.06079
1032.30 0.06077
1032.40 0.06074
1032.50 0.06072
1032.60 0.0607
1032.70 0.06067
1032.80 0.06065
1032.90 0.06063
1033.00 0.06061
1033.10 0.06058
1033.20 0.06056
1033.30 0.06054
1033.40 0.06052
1033.50 0.06049
1033.60 0.06047
1033.70 0.06045
1033.80 0.06042
1033.90 0.0604
1034.00 0.06038
1034.10 0.06036
1034.20 0.06033
1034.30 0.06031
1034.40 0.06029
1034.50 0.06027
1034.60 0.06024
1034.70 0.06022
1034.80 0.0602
1034.90 0.06018
1035.00 0.06015
1035.10 0.06013
1035.20 0.06011
1035.30 0.06008
1035.40 0.06006
1035.50 0.06004
1035.60 0.06002
1035.70 0.05999
1035.80 0.05997
1035.90 0.05995
1036.00 0.05993
1036.10 0.0599
1036.20 0.05988
1036.30 0.05986
1036.40 0.05984
1036.50 0.05981
1036.60 0.05979
1036.70 0.05977
1036.80 0.05975
1036.90 0.05972
1037.00 0.0597
1037.10 0.05968
1037.20 0.05966
1037.30 0.05964
1037.40 0.05961
1037.50 0.05959
1037.60 0.05957
1037.70 0.05955
1037.80 0.05952
1037.90 0.0595
1038.00 0.05948
1038.10 0.05946
1038.20 0.05943
1038.30 0.05941
1038.40 0.05939
1038.50 0.05937
1038.60 0.05935
1038.70 0.05932
1038.80 0.0593
1038.90 0.05928
1039.00 0.05926
1039.10 0.05923
1039.20 0.05921
1039.30 0.05919
1039.40 0.05917
1039.50 0.05915
1039.60 0.05912
1039.70 0.0591
1039.80 0.05908
1039.90 0.05906
1040.00 0.05904
1040.10 0.05901
1040.20 0.05899
1040.30 0.05897
1040.40 0.05895
1040.50 0.05893
1040.60 0.0589
1040.70 0.05888
1040.80 0.05886
1040.90 0.05884
1041.00 0.05881
1041.10 0.05879
1041.20 0.05877
1041.30 0.05875
1041.40 0.05873
1041.50 0.0587
1041.60 0.05868
1041.70 0.05866
1041.80 0.05864
1041.90 0.05862
1042.00 0.05859
1042.10 0.05857
1042.20 0.05855
1042.30 0.05853
1042.40 0.05851
1042.50 0.05849
1042.60 0.05846
1042.70 0.05844
1042.80 0.05842
1042.90 0.0584
1043.00 0.05838
1043.10 0.05836
1043.20 0.05833
1043.30 0.05831
1043.40 0.05829
1043.50 0.05827
1043.60 0.05825
1043.70 0.05822
1043.80 0.0582
1043.90 0.05818
1044.00 0.05816
1044.10 0.05814
1044.20 0.05812
1044.30 0.05809
1044.40 0.05807
1044.50 0.05805
1044.60 0.05803
1044.70 0.05801
1044.80 0.05799
1044.90 0.05797
1045.00 0.05794
1045.10 0.05792
1045.20 0.0579
1045.30 0.05788
1045.40 0.05786
1045.50 0.05784
1045.60 0.05781
1045.70 0.05779
1045.80 0.05777
1045.90 0.05775
1046.00 0.05773
1046.10 0.05771
1046.20 0.05768
1046.30 0.05766
1046.40 0.05764
1046.50 0.05762
1046.60 0.0576
1046.70 0.05758
1046.80 0.05756
1046.90 0.05753
1047.00 0.05751
1047.10 0.05749
1047.20 0.05747
1047.30 0.05745
1047.40 0.05743
1047.50 0.05741
1047.60 0.05738
1047.70 0.05736
1047.80 0.05734
1047.90 0.05732
1048.00 0.0573
1048.10 0.05728
1048.20 0.05726
1048.30 0.05724
1048.40 0.05721
1048.50 0.05719
1048.60 0.05717
1048.70 0.05715
1048.80 0.05713
1048.90 0.05711
1049.00 0.05709
1049.10 0.05707
1049.20 0.05705
1049.30 0.05702
1049.40 0.057
1049.50 0.05698
1049.60 0.05696
1049.70 0.05694
1049.80 0.05692
1049.90 0.0569
1050.00 0.05688
1050.10 0.05685
1050.20 0.05683
1050.30 0.05681
1050.40 0.05679
1050.50 0.05677
1050.60 0.05675
1050.70 0.05673
1050.80 0.05671
1050.90 0.05669
1051.00 0.05666
1051.10 0.05664
1051.20 0.05662
1051.30 0.0566
1051.40 0.05658
1051.50 0.05656
1051.60 0.05654
1051.70 0.05652
1051.80 0.0565
1051.90 0.05648
1052.00 0.05645
1052.10 0.05643
1052.20 0.05641
1052.30 0.05639
1052.40 0.05637
1052.50 0.05635
1052.60 0.05633
1052.70 0.05631
1052.80 0.05629
1052.90 0.05627
1053.00 0.05625
1053.10 0.05623
1053.20 0.0562
1053.30 0.05618
1053.40 0.05616
1053.50 0.05614
1053.60 0.05612
1053.70 0.0561
1053.80 0.05608
1053.90 0.05606
1054.00 0.05604
1054.10 0.05602
1054.20 0.056
1054.30 0.05598
1054.40 0.05596
1054.50 0.05594
1054.60 0.05591
1054.70 0.05589
1054.80 0.05587
1054.90 0.05585
1055.00 0.05583
1055.10 0.05581
1055.20 0.05579
1055.30 0.05577
1055.40 0.05575
1055.50 0.05573
1055.60 0.05571
1055.70 0.05569
1055.80 0.05567
1055.90 0.05565
1056.00 0.05563
1056.10 0.05561
1056.20 0.05558
1056.30 0.05556
1056.40 0.05554
1056.50 0.05552
1056.60 0.0555
1056.70 0.05548
1056.80 0.05546
1056.90 0.05544
1057.00 0.05542
1057.10 0.0554
1057.20 0.05538
1057.30 0.05536
1057.40 0.05534
1057.50 0.05532
1057.60 0.0553
1057.70 0.05528
1057.80 0.05526
1057.90 0.05524
1058.00 0.05522
1058.10 0.0552
1058.20 0.05518
1058.30 0.05516
1058.40 0.05514
1058.50 0.05512
1058.60 0.05509
1058.70 0.05507
1058.80 0.05505
1058.90 0.05503
1059.00 0.05501
1059.10 0.05499
1059.20 0.05497
1059.30 0.05495
1059.40 0.05493
1059.50 0.05491
1059.60 0.05489
1059.70 0.05487
1059.80 0.05485
1059.90 0.05483
1060.00 0.05481
1060.10 0.05479
1060.20 0.05477
1060.30 0.05475
1060.40 0.05473
1060.50 0.05471
1060.60 0.05469
1060.70 0.05467
1060.80 0.05465
1060.90 0.05463
1061.00 0.05461
1061.10 0.05459
1061.20 0.05457
1061.30 0.05455
1061.40 0.05453
1061.50 0.05451
1061.60 0.05449
1061.70 0.05447
1061.80 0.05445
1061.90 0.05443
1062.00 0.05441
1062.10 0.05439
1062.20 0.05437
1062.30 0.05435
1062.40 0.05433
1062.50 0.05431
1062.60 0.05429
1062.70 0.05427
1062.80 0.05425
1062.90 0.05423
1063.00 0.05421
1063.10 0.05419
1063.20 0.05417
1063.30 0.05415
1063.40 0.05413
1063.50 0.05411
1063.60 0.05409
1063.70 0.05407
1063.80 0.05405
1063.90 0.05403
1064.00 0.05401
1064.10 0.05399
1064.20 0.05397
1064.30 0.05395
1064.40 0.05393
1064.50 0.05391
1064.60 0.05389
1064.70 0.05387
1064.80 0.05385
1064.90 0.05383
1065.00 0.05381
1065.10 0.05379
1065.20 0.05377
1065.30 0.05375
1065.40 0.05373
1065.50 0.05371
1065.60 0.05369
1065.70 0.05367
1065.80 0.05365
1065.90 0.05364
1066.00 0.05362
1066.10 0.0536
1066.20 0.05358
1066.30 0.05356
1066.40 0.05354
1066.50 0.05352
1066.60 0.0535
1066.70 0.05348
1066.80 0.05346
1066.90 0.05344
1067.00 0.05342
1067.10 0.0534
1067.20 0.05338
1067.30 0.05336
1067.40 0.05334
1067.50 0.05332
1067.60 0.0533
1067.70 0.05328
1067.80 0.05326
1067.90 0.05324
1068.00 0.05322
1068.10 0.0532
1068.20 0.05318
1068.30 0.05316
1068.40 0.05315
1068.50 0.05313
1068.60 0.05311
1068.70 0.05309
1068.80 0.05307
1068.90 0.05305
1069.00 0.05303
1069.10 0.05301
1069.20 0.05299
1069.30 0.05297
1069.40 0.05295
1069.50 0.05293
1069.60 0.05291
1069.70 0.05289
1069.80 0.05287
1069.90 0.05285
1070.00 0.05283
1070.10 0.05281
1070.20 0.0528
1070.30 0.05278
1070.40 0.05276
1070.50 0.05274
1070.60 0.05272
1070.70 0.0527
1070.80 0.05268
1070.90 0.05266
1071.00 0.05264
1071.10 0.05262
1071.20 0.0526
1071.30 0.05258
1071.40 0.05256
1071.50 0.05254
1071.60 0.05253
1071.70 0.05251
1071.80 0.05249
1071.90 0.05247
1072.00 0.05245
1072.10 0.05243
1072.20 0.05241
1072.30 0.05239
1072.40 0.05237
1072.50 0.05235
1072.60 0.05233
1072.70 0.05231
1072.80 0.05229
1072.90 0.05228
1073.00 0.05226
1073.10 0.05224
1073.20 0.05222
1073.30 0.0522
1073.40 0.05218
1073.50 0.05216
1073.60 0.05214
1073.70 0.05212
1073.80 0.0521
1073.90 0.05208
1074.00 0.05206
1074.10 0.05204
1074.20 0.05203
1074.30 0.05201
1074.40 0.05199
1074.50 0.05197
1074.60 0.05195
1074.70 0.05193
1074.80 0.05191
1074.90 0.05189
1075.00 0.05187
1075.10 0.05185
1075.20 0.05183
1075.30 0.05182
1075.40 0.0518
1075.50 0.05178
1075.60 0.05176
1075.70 0.05174
1075.80 0.05172
1075.90 0.0517
1076.00 0.05168
1076.10 0.05166
1076.20 0.05164
1076.30 0.05162
1076.40 0.05161
1076.50 0.05159
1076.60 0.05157
1076.70 0.05155
1076.80 0.05153
1076.90 0.05151
1077.00 0.05149
1077.10 0.05147
1077.20 0.05145
1077.30 0.05143
1077.40 0.05142
1077.50 0.0514
1077.60 0.05138
1077.70 0.05136
1077.80 0.05134
1077.90 0.05132
1078.00 0.0513
1078.10 0.05128
1078.20 0.05126
1078.30 0.05124
1078.40 0.05122
1078.50 0.05121
1078.60 0.05119
1078.70 0.05117
1078.80 0.05115
1078.90 0.05113
1079.00 0.05111
1079.10 0.05109
1079.20 0.05107
1079.30 0.05105
1079.40 0.05103
1079.50 0.05102
1079.60 0.051
1079.70 0.05098
1079.80 0.05096
1079.90 0.05094
1080.00 0.05092
1080.10 0.0509
1080.20 0.05088
1080.30 0.05086
1080.40 0.05084
1080.50 0.05082
1080.60 0.0508
1080.70 0.05078
1080.80 0.05077
1080.90 0.05075
1081.00 0.05073
1081.10 0.05071
1081.20 0.05069
1081.30 0.05067
1081.40 0.05065
1081.50 0.05063
1081.60 0.05061
1081.70 0.05059
1081.80 0.05057
1081.90 0.05055
1082.00 0.05053
1082.10 0.05051
1082.20 0.05049
1082.30 0.05047
1082.40 0.05045
1082.50 0.05044
1082.60 0.05042
1082.70 0.0504
1082.80 0.05038
1082.90 0.05036
1083.00 0.05034
1083.10 0.05032
1083.20 0.0503
1083.30 0.05028
1083.40 0.05026
1083.50 0.05024
1083.60 0.05022
1083.70 0.0502
1083.80 0.05018
1083.90 0.05016
1084.00 0.05014
1084.10 0.05012
1084.20 0.0501
1084.30 0.05008
1084.40 0.05006
1084.50 0.05004
1084.60 0.05001
1084.70 0.04999
1084.80 0.04997
1084.90 0.04995
1085.00 0.04993
1085.10 0.04991
1085.20 0.04989
1085.30 0.04986
1085.40 0.04984
1085.50 0.04982
1085.60 0.0498
1085.70 0.04978
1085.80 0.04976
1085.90 0.04974
1086.00 0.04971
1086.10 0.04969
1086.20 0.04967
1086.30 0.04965
1086.40 0.04963
1086.50 0.04961
1086.60 0.04958
1086.70 0.04956
1086.80 0.04954
1086.90 0.04951
1087.00 0.04949
1087.10 0.04947
1087.20 0.04944
1087.30 0.04941
1087.40 0.04939
1087.50 0.04936
1087.60 0.04934
1087.70 0.04931
1087.80 0.04929
1087.90 0.04926
1088.00 0.04924
1088.10 0.04921
1088.20 0.04919
1088.30 0.04916
1088.40 0.04914
1088.50 0.04911
1088.60 0.04908
1088.70 0.04904
1088.80 0.04901
1088.90 0.04898
1089.00 0.04895
1089.10 0.04891
1089.20 0.04888
1089.30 0.04885
1089.40 0.04882
1089.50 0.04879
1089.60 0.04875
1089.70 0.04872
1089.80 0.04869
1089.90 0.04866
1090.00 0.04863
1090.10 0.04859
1090.20 0.04856
1090.30 0.04853
1090.40 0.0485
1090.50 0.04846
1090.60 0.04842
1090.70 0.04837
1090.80 0.04833
1090.90 0.04829
1091.00 0.04824
1091.10 0.0482
1091.20 0.04816
1091.30 0.04811
1091.40 0.04807
1091.50 0.04803
1091.60 0.04798
1091.70 0.04794
1091.80 0.0479
1091.90 0.04785
1092.00 0.04781
1092.10 0.04776
1092.20 0.04772
1092.30 0.04767
1092.40 0.04762
1092.50 0.04758
1092.60 0.04753
1092.70 0.04749
1092.80 0.04746
1092.90 0.04743
1093.00 0.0474
1093.10 0.04738
1093.20 0.04737
1093.30 0.04738
1093.40 0.0474
1093.50 0.04745
1093.60 0.04753
1093.70 0.0476
1093.80 0.04764
1093.90 0.04763
1094.00 0.04752
1094.10 0.04741
1094.20 0.0473
1094.30 0.04722
1094.40 0.04721
1094.50 0.04719
1094.60 0.04718
1094.70 0.04716
1094.80 0.04715
1094.90 0.04713
1095.00 0.04712
1095.10 0.04714
1095.20 0.04715
1095.30 0.04716
1095.40 0.04717
1095.50 0.04719
1095.60 0.0472
1095.70 0.04721
1095.80 0.04722
1095.90 0.04724
1096.00 0.04725
1096.10 0.04726
1096.20 0.04727
1096.30 0.04728
1096.40 0.0473
1096.50 0.04731
1096.60 0.04731
1096.70 0.04732
1096.80 0.04733
1096.90 0.04733
1097.00 0.04734
1097.10 0.04734
1097.20 0.04734
1097.30 0.04734
1097.40 0.04734
1097.50 0.04734
1097.60 0.04734
1097.70 0.04734
1097.80 0.04734
1097.90 0.04734
1098.00 0.04734
1098.10 0.04734
1098.20 0.04734
1098.30 0.04734
1098.40 0.04733
1098.50 0.04733
1098.60 0.04732
1098.70 0.04732
1098.80 0.04731
1098.90 0.0473
1099.00 0.04729
1099.10 0.04728
1099.20 0.04727
1099.30 0.04727
1099.40 0.04726
1099.50 0.04725
1099.60 0.04724
1099.70 0.04723
1099.80 0.04723
1099.90 0.04722
1100.00 0.04721
1100.10 0.0472
1100.20 0.04719
1100.30 0.04719
1100.40 0.04718
1100.50 0.04717
1100.60 0.04716
1100.70 0.04714
1100.80 0.04713
1100.90 0.04712
1101.00 0.04711
1101.10 0.04709
1101.20 0.04708
1101.30 0.04707
1101.40 0.04706
1101.50 0.04705
1101.60 0.04703
1101.70 0.04702
1101.80 0.04701
1101.90 0.047
1102.00 0.04698
1102.10 0.04697
1102.20 0.04696
1102.30 0.04694
1102.40 0.04693
1102.50 0.04692
1102.60 0.0469
1102.70 0.04689
1102.80 0.04687
1102.90 0.04686
1103.00 0.04685
1103.10 0.04683
1103.20 0.04682
1103.30 0.0468
1103.40 0.04679
1103.50 0.04678
1103.60 0.04676
1103.70 0.04675
1103.80 0.04673
1103.90 0.04672
1104.00 0.0467
1104.10 0.04669
1104.20 0.04667
1104.30 0.04666
1104.40 0.04664
1104.50 0.04663
1104.60 0.04661
1104.70 0.0466
1104.80 0.04658
1104.90 0.04657
1105.00 0.04655
1105.10 0.04654
1105.20 0.04652
1105.30 0.04651
1105.40 0.04649
1105.50 0.04648
1105.60 0.04646
1105.70 0.04645
1105.80 0.04643
1105.90 0.04642
1106.00 0.0464
1106.10 0.04638
1106.20 0.04637
1106.30 0.04635
1106.40 0.04634
1106.50 0.04632
1106.60 0.04631
1106.70 0.04629
1106.80 0.04628
1106.90 0.04626
1107.00 0.04625
1107.10 0.04623
1107.20 0.04622
1107.30 0.0462
1107.40 0.04618
1107.50 0.04617
1107.60 0.04615
1107.70 0.04614
1107.80 0.04612
1107.90 0.04611
1108.00 0.04609
1108.10 0.04607
1108.20 0.04606
1108.30 0.04604
1108.40 0.04603
1108.50 0.04601
1108.60 0.046
1108.70 0.04598
1108.80 0.04597
1108.90 0.04595
1109.00 0.04593
1109.10 0.04592
1109.20 0.0459
1109.30 0.04589
1109.40 0.04587
1109.50 0.04586
1109.60 0.04584
1109.70 0.04582
1109.80 0.04581
1109.90 0.04579
1110.00 0.04578
1110.10 0.04576
1110.20 0.04575
1110.30 0.04573
1110.40 0.04571
1110.50 0.0457
1110.60 0.04568
1110.70 0.04567
1110.80 0.04565
1110.90 0.04564
1111.00 0.04562
1111.10 0.0456
1111.20 0.04559
1111.30 0.04557
1111.40 0.04556
1111.50 0.04554
1111.60 0.04553
1111.70 0.04551
1111.80 0.04549
1111.90 0.04548
1112.00 0.04546
1112.10 0.04545
1112.20 0.04543
1112.30 0.04542
1112.40 0.0454
1112.50 0.04538
1112.60 0.04537
1112.70 0.04535
1112.80 0.04534
1112.90 0.04532
1113.00 0.04531
1113.10 0.04529
1113.20 0.04528
1113.30 0.04526
1113.40 0.04524
1113.50 0.04523
1113.60 0.04521
1113.70 0.0452
1113.80 0.04518
1113.90 0.04517
1114.00 0.04515
1114.10 0.04513
1114.20 0.04512
1114.30 0.0451
1114.40 0.04509
1114.50 0.04507
1114.60 0.04506
1114.70 0.04504
1114.80 0.04503
1114.90 0.04501
1115.00 0.04499
1115.10 0.04498
1115.20 0.04496
1115.30 0.04495
1115.40 0.04493
1115.50 0.04492
1115.60 0.0449
1115.70 0.04489
1115.80 0.04487
1115.90 0.04485
1116.00 0.04484
1116.10 0.04482
1116.20 0.04481
1116.30 0.04479
1116.40 0.04478
1116.50 0.04476
1116.60 0.04475
1116.70 0.04473
1116.80 0.04471
1116.90 0.0447
1117.00 0.04468
1117.10 0.04467
1117.20 0.04465
1117.30 0.04464
1117.40 0.04462
1117.50 0.04461
1117.60 0.04459
1117.70 0.04458
1117.80 0.04456
1117.90 0.04454
1118.00 0.04453
1118.10 0.04451
1118.20 0.0445
1118.30 0.04448
1118.40 0.04447
1118.50 0.04445
1118.60 0.04444
1118.70 0.04442
1118.80 0.04441
1118.90 0.04439
1119.00 0.04437
1119.10 0.04436
1119.20 0.04434
1119.30 0.04433
1119.40 0.04431
1119.50 0.0443
1119.60 0.04428
1119.70 0.04427
1119.80 0.04425
1119.90 0.04424
1120.00 0.04422
1120.10 0.04421
1120.20 0.04419
1120.30 0.04418
1120.40 0.04416
1120.50 0.04414
1120.60 0.04413
1120.70 0.04411
1120.80 0.0441
1120.90 0.04408
1121.00 0.04407
1121.10 0.04405
1121.20 0.04404
1121.30 0.04402
1121.40 0.04401
1121.50 0.04399
1121.60 0.04398
1121.70 0.04396
1121.80 0.04395
1121.90 0.04393
1122.00 0.04392
1122.10 0.0439
1122.20 0.04389
1122.30 0.04387
1122.40 0.04385
1122.50 0.04384
1122.60 0.04382
1122.70 0.04381
1122.80 0.04379
1122.90 0.04378
1123.00 0.04376
1123.10 0.04375
1123.20 0.04373
1123.30 0.04372
1123.40 0.0437
1123.50 0.04369
1123.60 0.04367
1123.70 0.04366
1123.80 0.04364
1123.90 0.04363
1124.00 0.04361
1124.10 0.0436
1124.20 0.04358
1124.30 0.04357
1124.40 0.04355
1124.50 0.04354
1124.60 0.04352
1124.70 0.04351
1124.80 0.04349
1124.90 0.04348
1125.00 0.04346
1125.10 0.04345
1125.20 0.04343
1125.30 0.04342
1125.40 0.0434
1125.50 0.04339
1125.60 0.04337
1125.70 0.04336
1125.80 0.04334
1125.90 0.04333
1126.00 0.04331
1126.10 0.0433
1126.20 0.04328
1126.30 0.04327
1126.40 0.04325
1126.50 0.04324
1126.60 0.04322
1126.70 0.04321
1126.80 0.04319
1126.90 0.04318
1127.00 0.04316
1127.10 0.04315
1127.20 0.04313
1127.30 0.04312
1127.40 0.0431
1127.50 0.04309
1127.60 0.04307
1127.70 0.04306
1127.80 0.04304
1127.90 0.04303
1128.00 0.04301
1128.10 0.043
1128.20 0.04298
1128.30 0.04297
1128.40 0.04295
1128.50 0.04294
1128.60 0.04292
1128.70 0.04291
1128.80 0.0429
1128.90 0.04288
1129.00 0.04287
1129.10 0.04285
1129.20 0.04284
1129.30 0.04282
1129.40 0.04281
1129.50 0.04279
1129.60 0.04278
1129.70 0.04276
1129.80 0.04275
1129.90 0.04273
1130.00 0.04272
1130.10 0.0427
1130.20 0.04269
1130.30 0.04267
1130.40 0.04266
1130.50 0.04264
1130.60 0.04263
1130.70 0.04262
1130.80 0.0426
1130.90 0.04259
1131.00 0.04257
1131.10 0.04256
1131.20 0.04254
1131.30 0.04253
1131.40 0.04251
1131.50 0.0425
1131.60 0.04248
1131.70 0.04247
1131.80 0.04245
1131.90 0.04244
1132.00 0.04242
1132.10 0.04241
1132.20 0.0424
1132.30 0.04238
1132.40 0.04237
1132.50 0.04235
1132.60 0.04234
1132.70 0.04232
1132.80 0.04231
1132.90 0.04229
1133.00 0.04228
1133.10 0.04226
1133.20 0.04225
1133.30 0.04224
1133.40 0.04222
1133.50 0.04221
1133.60 0.04219
1133.70 0.04218
1133.80 0.04216
1133.90 0.04215
1134.00 0.04213
1134.10 0.04212
1134.20 0.04211
1134.30 0.04209
1134.40 0.04208
1134.50 0.04206
1134.60 0.04205
1134.70 0.04203
1134.80 0.04202
1134.90 0.042
1135.00 0.04199
1135.10 0.04198
1135.20 0.04196
1135.30 0.04195
1135.40 0.04193
1135.50 0.04192
1135.60 0.0419
1135.70 0.04189
1135.80 0.04187
1135.90 0.04186
1136.00 0.04185
1136.10 0.04183
1136.20 0.04182
1136.30 0.0418
1136.40 0.04179
1136.50 0.04177
1136.60 0.04176
1136.70 0.04175
1136.80 0.04173
1136.90 0.04172
1137.00 0.0417
1137.10 0.04169
1137.20 0.04167
1137.30 0.04166
1137.40 0.04165
1137.50 0.04163
1137.60 0.04162
1137.70 0.0416
1137.80 0.04159
1137.90 0.04157
1138.00 0.04156
1138.10 0.04155
1138.20 0.04153
1138.30 0.04152
1138.40 0.0415
1138.50 0.04149
1138.60 0.04147
1138.70 0.04146
1138.80 0.04145
1138.90 0.04143
1139.00 0.04142
1139.10 0.0414
1139.20 0.04139
1139.30 0.04138
1139.40 0.04136
1139.50 0.04135
1139.60 0.04133
1139.70 0.04132
1139.80 0.0413
1139.90 0.04129
1140.00 0.04128
1140.10 0.04126
1140.20 0.04125
1140.30 0.04123
1140.40 0.04122
1140.50 0.04121
1140.60 0.04119
1140.70 0.04118
1140.80 0.04116
1140.90 0.04115
1141.00 0.04114
1141.10 0.04112
1141.20 0.04111
1141.30 0.04109
1141.40 0.04108
1141.50 0.04106
1141.60 0.04105
1141.70 0.04104
1141.80 0.04102
1141.90 0.04101
1142.00 0.04099
1142.10 0.04098
1142.20 0.04097
1142.30 0.04095
1142.40 0.04094
1142.50 0.04092
1142.60 0.04091
1142.70 0.0409
1142.80 0.04088
1142.90 0.04087
1143.00 0.04086
1143.10 0.04084
1143.20 0.04083
1143.30 0.04081
1143.40 0.0408
1143.50 0.04079
1143.60 0.04077
1143.70 0.04076
1143.80 0.04074
1143.90 0.04073
1144.00 0.04072
1144.10 0.0407
1144.20 0.04069
1144.30 0.04067
1144.40 0.04066
1144.50 0.04065
1144.60 0.04063
1144.70 0.04062
1144.80 0.04061
1144.90 0.04059
1145.00 0.04058
1145.10 0.04056
1145.20 0.04055
1145.30 0.04054
1145.40 0.04052
1145.50 0.04051
1145.60 0.0405
1145.70 0.04048
1145.80 0.04047
1145.90 0.04045
1146.00 0.04044
1146.10 0.04043
1146.20 0.04041
1146.30 0.0404
1146.40 0.04038
1146.50 0.04037
1146.60 0.04036
1146.70 0.04034
1146.80 0.04033
1146.90 0.04032
1147.00 0.0403
1147.10 0.04029
1147.20 0.04027
1147.30 0.04026
1147.40 0.04025
1147.50 0.04023
1147.60 0.04022
1147.70 0.04021
1147.80 0.04019
1147.90 0.04018
1148.00 0.04017
1148.10 0.04015
1148.20 0.04014
1148.30 0.04012
1148.40 0.04011
1148.50 0.0401
1148.60 0.04008
1148.70 0.04007
1148.80 0.04006
1148.90 0.04004
1149.00 0.04003
1149.10 0.04002
1149.20 0.04
1149.30 0.03999
1149.40 0.03998
1149.50 0.03996
1149.60 0.03995
1149.70 0.03993
1149.80 0.03992
1149.90 0.03991
1150.00 0.03989
1150.10 0.03988
1150.20 0.03987
1150.30 0.03985
1150.40 0.03984
1150.50 0.03983
1150.60 0.03981
1150.70 0.0398
1150.80 0.03979
1150.90 0.03977
1151.00 0.03976
1151.10 0.03975
1151.20 0.03973
1151.30 0.03972
1151.40 0.0397
1151.50 0.03969
1151.60 0.03968
1151.70 0.03966
1151.80 0.03965
1151.90 0.03964
1152.00 0.03962
1152.10 0.03961
1152.20 0.0396
1152.30 0.03958
1152.40 0.03957
1152.50 0.03956
1152.60 0.03954
1152.70 0.03953
1152.80 0.03952
1152.90 0.0395
1153.00 0.03949
1153.10 0.03948
1153.20 0.03946
1153.30 0.03945
1153.40 0.03944
1153.50 0.03942
1153.60 0.03941
1153.70 0.0394
1153.80 0.03938
1153.90 0.03937
1154.00 0.03936
1154.10 0.03934
1154.20 0.03933
1154.30 0.03932
1154.40 0.0393
1154.50 0.03929
1154.60 0.03928
1154.70 0.03926
1154.80 0.03925
1154.90 0.03924
1155.00 0.03922
1155.10 0.03921
1155.20 0.0392
1155.30 0.03918
1155.40 0.03917
1155.50 0.03916
1155.60 0.03915
1155.70 0.03913
1155.80 0.03912
1155.90 0.03911
1156.00 0.03909
1156.10 0.03908
1156.20 0.03907
1156.30 0.03905
1156.40 0.03904
1156.50 0.03903
1156.60 0.03901
1156.70 0.039
1156.80 0.03899
1156.90 0.03897
1157.00 0.03896
1157.10 0.03895
1157.20 0.03893
1157.30 0.03892
1157.40 0.03891
1157.50 0.03889
1157.60 0.03888
1157.70 0.03887
1157.80 0.03886
1157.90 0.03884
1158.00 0.03883
1158.10 0.03882
1158.20 0.0388
1158.30 0.03879
1158.40 0.03878
1158.50 0.03876
1158.60 0.03875
1158.70 0.03874
1158.80 0.03873
1158.90 0.03871
1159.00 0.0387
1159.10 0.03869
1159.20 0.03867
1159.30 0.03866
1159.40 0.03865
1159.50 0.03863
1159.60 0.03862
1159.70 0.03861
1159.80 0.0386
1159.90 0.03858
1160.00 0.03857
1160.10 0.03856
1160.20 0.03854
1160.30 0.03853
1160.40 0.03852
1160.50 0.0385
1160.60 0.03849
1160.70 0.03848
1160.80 0.03847
1160.90 0.03845
1161.00 0.03844
1161.10 0.03843
1161.20 0.03841
1161.30 0.0384
1161.40 0.03839
1161.50 0.03837
1161.60 0.03836
1161.70 0.03835
1161.80 0.03834
1161.90 0.03832
1162.00 0.03831
1162.10 0.0383
1162.20 0.03828
1162.30 0.03827
1162.40 0.03826
1162.50 0.03825
1162.60 0.03823
1162.70 0.03822
1162.80 0.03821
1162.90 0.03819
1163.00 0.03818
1163.10 0.03817
1163.20 0.03816
1163.30 0.03814
1163.40 0.03813
1163.50 0.03812
1163.60 0.03811
1163.70 0.03809
1163.80 0.03808
1163.90 0.03807
1164.00 0.03805
1164.10 0.03804
1164.20 0.03803
1164.30 0.03802
1164.40 0.038
1164.50 0.03799
1164.60 0.03798
1164.70 0.03797
1164.80 0.03795
1164.90 0.03794
1165.00 0.03793
1165.10 0.03791
1165.20 0.0379
1165.30 0.03789
1165.40 0.03788
1165.50 0.03786
1165.60 0.03785
1165.70 0.03784
1165.80 0.03783
1165.90 0.03781
1166.00 0.0378
1166.10 0.03779
1166.20 0.03778
1166.30 0.03776
1166.40 0.03775
1166.50 0.03774
1166.60 0.03772
1166.70 0.03771
1166.80 0.0377
1166.90 0.03769
1167.00 0.03767
1167.10 0.03766
1167.20 0.03765
1167.30 0.03764
1167.40 0.03762
1167.50 0.03761
1167.60 0.0376
1167.70 0.03759
1167.80 0.03757
1167.90 0.03756
1168.00 0.03755
1168.10 0.03754
1168.20 0.03752
1168.30 0.03751
1168.40 0.0375
1168.50 0.03749
1168.60 0.03747
1168.70 0.03746
1168.80 0.03745
1168.90 0.03744
1169.00 0.03742
1169.10 0.03741
1169.20 0.0374
1169.30 0.03739
1169.40 0.03737
1169.50 0.03736
1169.60 0.03735
1169.70 0.03734
1169.80 0.03732
1169.90 0.03731
1170.00 0.0373
1170.10 0.03729
1170.20 0.03727
1170.30 0.03726
1170.40 0.03725
1170.50 0.03724
1170.60 0.03722
1170.70 0.03721
1170.80 0.0372
1170.90 0.03719
1171.00 0.03717
1171.10 0.03716
1171.20 0.03715
1171.30 0.03714
1171.40 0.03712
1171.50 0.03711
1171.60 0.0371
1171.70 0.03709
1171.80 0.03708
1171.90 0.03706
1172.00 0.03705
1172.10 0.03704
1172.20 0.03703
1172.30 0.03701
1172.40 0.037
1172.50 0.03699
1172.60 0.03698
1172.70 0.03696
1172.80 0.03695
1172.90 0.03694
1173.00 0.03693
1173.10 0.03692
1173.20 0.0369
1173.30 0.03689
1173.40 0.03688
1173.50 0.03687
1173.60 0.03685
1173.70 0.03684
1173.80 0.03683
1173.90 0.03682
1174.00 0.03681
1174.10 0.03679
1174.20 0.03678
1174.30 0.03677
1174.40 0.03676
1174.50 0.03674
1174.60 0.03673
1174.70 0.03672
1174.80 0.03671
1174.90 0.0367
1175.00 0.03668
1175.10 0.03667
1175.20 0.03666
1175.30 0.03665
1175.40 0.03663
1175.50 0.03662
1175.60 0.03661
1175.70 0.0366
1175.80 0.03659
1175.90 0.03657
1176.00 0.03656
1176.10 0.03655
1176.20 0.03654
1176.30 0.03652
1176.40 0.03651
1176.50 0.0365
1176.60 0.03649
1176.70 0.03648
1176.80 0.03646
1176.90 0.03645
1177.00 0.03644
1177.10 0.03643
1177.20 0.03642
1177.30 0.0364
1177.40 0.03639
1177.50 0.03638
1177.60 0.03637
1177.70 0.03636
1177.80 0.03634
1177.90 0.03633
1178.00 0.03632
1178.10 0.03631
1178.20 0.0363
1178.30 0.03628
1178.40 0.03627
1178.50 0.03626
1178.60 0.03625
1178.70 0.03624
1178.80 0.03622
1178.90 0.03621
1179.00 0.0362
1179.10 0.03619
1179.20 0.03618
1179.30 0.03616
1179.40 0.03615
1179.50 0.03614
1179.60 0.03613
1179.70 0.03612
1179.80 0.0361
1179.90 0.03609
1180.00 0.03608
1180.10 0.03607
1180.20 0.03606
1180.30 0.03604
1180.40 0.03603
1180.50 0.03602
1180.60 0.03601
1180.70 0.036
1180.80 0.03598
1180.90 0.03597
1181.00 0.03596
1181.10 0.03595
1181.20 0.03594
1181.30 0.03593
1181.40 0.03591
1181.50 0.0359
1181.60 0.03589
1181.70 0.03588
1181.80 0.03587
1181.90 0.03585
1182.00 0.03584
1182.10 0.03583
1182.20 0.03582
1182.30 0.03581
1182.40 0.03579
1182.50 0.03578
1182.60 0.03577
1182.70 0.03576
1182.80 0.03575
1182.90 0.03574
1183.00 0.03572
1183.10 0.03571
1183.20 0.0357
1183.30 0.03569
1183.40 0.03568
1183.50 0.03567
1183.60 0.03565
1183.70 0.03564
1183.80 0.03563
1183.90 0.03562
1184.00 0.03561
1184.10 0.03559
1184.20 0.03558
1184.30 0.03557
1184.40 0.03556
1184.50 0.03555
1184.60 0.03554
1184.70 0.03552
1184.80 0.03551
1184.90 0.0355
1185.00 0.03549
1185.10 0.03548
1185.20 0.03547
1185.30 0.03545
1185.40 0.03544
1185.50 0.03543
1185.60 0.03542
1185.70 0.03541
1185.80 0.0354
1185.90 0.03538
1186.00 0.03537
1186.10 0.03536
1186.20 0.03535
1186.30 0.03534
1186.40 0.03533
1186.50 0.03531
1186.60 0.0353
1186.70 0.03529
1186.80 0.03528
1186.90 0.03527
1187.00 0.03526
1187.10 0.03524
1187.20 0.03523
1187.30 0.03522
1187.40 0.03521
1187.50 0.0352
1187.60 0.03519
1187.70 0.03518
1187.80 0.03516
1187.90 0.03515
1188.00 0.03514
1188.10 0.03513
1188.20 0.03512
1188.30 0.03511
1188.40 0.03509
1188.50 0.03508
1188.60 0.03507
1188.70 0.03506
1188.80 0.03505
1188.90 0.03504
1189.00 0.03503
1189.10 0.03501
1189.20 0.035
1189.30 0.03499
1189.40 0.03498
1189.50 0.03497
1189.60 0.03496
1189.70 0.03495
1189.80 0.03493
1189.90 0.03492
1190.00 0.03491
1190.10 0.0349
1190.20 0.03489
1190.30 0.03488
1190.40 0.03487
1190.50 0.03485
1190.60 0.03484
1190.70 0.03483
1190.80 0.03482
1190.90 0.03481
1191.00 0.0348
1191.10 0.03479
1191.20 0.03477
1191.30 0.03476
1191.40 0.03475
1191.50 0.03474
1191.60 0.03473
1191.70 0.03472
1191.80 0.03471
1191.90 0.03469
1192.00 0.03468
1192.10 0.03467
1192.20 0.03466
1192.30 0.03465
1192.40 0.03464
1192.50 0.03463
1192.60 0.03461
1192.70 0.0346
1192.80 0.03459
1192.90 0.03458
1193.00 0.03457
1193.10 0.03456
1193.20 0.03455
1193.30 0.03454
1193.40 0.03452
1193.50 0.03451
1193.60 0.0345
1193.70 0.03449
1193.80 0.03448
1193.90 0.03447
1194.00 0.03446
1194.10 0.03445
1194.20 0.03443
1194.30 0.03442
1194.40 0.03441
1194.50 0.0344
1194.60 0.03439
1194.70 0.03438
1194.80 0.03437
1194.90 0.03436
1195.00 0.03434
1195.10 0.03433
1195.20 0.03432
1195.30 0.03431
1195.40 0.0343
1195.50 0.03429
1195.60 0.03428
1195.70 0.03427
1195.80 0.03425
1195.90 0.03424
1196.00 0.03423
1196.10 0.03422
1196.20 0.03421
1196.30 0.0342
1196.40 0.03419
1196.50 0.03418
1196.60 0.03417
1196.70 0.03415
1196.80 0.03414
1196.90 0.03413
1197.00 0.03412
1197.10 0.03411
1197.20 0.0341
1197.30 0.03409
1197.40 0.03408
1197.50 0.03406
1197.60 0.03405
1197.70 0.03404
1197.80 0.03403
1197.90 0.03402
1198.00 0.03401
1198.10 0.034
1198.20 0.03399
1198.30 0.03398
1198.40 0.03397
1198.50 0.03395
1198.60 0.03394
1198.70 0.03393
1198.80 0.03392
1198.90 0.03391
1199.00 0.0339
1199.10 0.03389
1199.20 0.03388
1199.30 0.03387
1199.40 0.03386
1199.50 0.03384
1199.60 0.03383
1199.70 0.03382
1199.80 0.03381
1199.90 0.0338
1200.00 0
