# Version 2.1 - nm, norm@500 to 1, cut digits, bergeron_12500_85.dat_12500
# Wavelength(nm)  Flambda(ergs/cm^s/s/nm)
300.00 2.096
300.10 2.095
300.20 2.094
300.30 2.092
300.40 2.091
300.50 2.09
300.60 2.088
300.70 2.087
300.80 2.086
300.90 2.084
301.00 2.083
301.10 2.082
301.20 2.08
301.30 2.079
301.40 2.078
301.50 2.076
301.60 2.075
301.70 2.074
301.80 2.072
301.90 2.071
302.00 2.07
302.10 2.068
302.20 2.067
302.30 2.066
302.40 2.064
302.50 2.063
302.60 2.062
302.70 2.06
302.80 2.059
302.90 2.058
303.00 2.056
303.10 2.055
303.20 2.054
303.30 2.053
303.40 2.051
303.50 2.05
303.60 2.049
303.70 2.047
303.80 2.046
303.90 2.045
304.00 2.043
304.10 2.042
304.20 2.041
304.30 2.039
304.40 2.038
304.50 2.037
304.60 2.036
304.70 2.034
304.80 2.033
304.90 2.032
305.00 2.03
305.10 2.029
305.20 2.028
305.30 2.026
305.40 2.025
305.50 2.024
305.60 2.023
305.70 2.021
305.80 2.02
305.90 2.019
306.00 2.017
306.10 2.016
306.20 2.015
306.30 2.014
306.40 2.012
306.50 2.011
306.60 2.01
306.70 2.008
306.80 2.007
306.90 2.006
307.00 2.005
307.10 2.003
307.20 2.002
307.30 2.001
307.40 1.999
307.50 1.998
307.60 1.997
307.70 1.996
307.80 1.994
307.90 1.993
308.00 1.992
308.10 1.99
308.20 1.989
308.30 1.988
308.40 1.987
308.50 1.985
308.60 1.984
308.70 1.983
308.80 1.982
308.90 1.98
309.00 1.979
309.10 1.978
309.20 1.977
309.30 1.975
309.40 1.974
309.50 1.973
309.60 1.972
309.70 1.97
309.80 1.969
309.90 1.968
310.00 1.966
310.10 1.965
310.20 1.964
310.30 1.963
310.40 1.961
310.50 1.96
310.60 1.959
310.70 1.958
310.80 1.956
310.90 1.955
311.00 1.954
311.10 1.953
311.20 1.951
311.30 1.95
311.40 1.949
311.50 1.948
311.60 1.947
311.70 1.945
311.80 1.944
311.90 1.943
312.00 1.942
312.10 1.94
312.20 1.939
312.30 1.938
312.40 1.937
312.50 1.935
312.60 1.934
312.70 1.933
312.80 1.932
312.90 1.93
313.00 1.929
313.10 1.928
313.20 1.927
313.30 1.926
313.40 1.924
313.50 1.923
313.60 1.922
313.70 1.921
313.80 1.919
313.90 1.918
314.00 1.917
314.10 1.916
314.20 1.915
314.30 1.913
314.40 1.912
314.50 1.911
314.60 1.91
314.70 1.908
314.80 1.907
314.90 1.906
315.00 1.905
315.10 1.904
315.20 1.902
315.30 1.901
315.40 1.9
315.50 1.899
315.60 1.898
315.70 1.896
315.80 1.895
315.90 1.894
316.00 1.893
316.10 1.892
316.20 1.89
316.30 1.889
316.40 1.888
316.50 1.887
316.60 1.886
316.70 1.884
316.80 1.883
316.90 1.882
317.00 1.881
317.10 1.88
317.20 1.878
317.30 1.877
317.40 1.876
317.50 1.875
317.60 1.874
317.70 1.872
317.80 1.871
317.90 1.87
318.00 1.869
318.10 1.868
318.20 1.867
318.30 1.865
318.40 1.864
318.50 1.863
318.60 1.862
318.70 1.861
318.80 1.859
318.90 1.858
319.00 1.857
319.10 1.856
319.20 1.855
319.30 1.854
319.40 1.852
319.50 1.851
319.60 1.85
319.70 1.849
319.80 1.848
319.90 1.847
320.00 1.845
320.10 1.844
320.20 1.843
320.30 1.842
320.40 1.841
320.50 1.839
320.60 1.838
320.70 1.837
320.80 1.836
320.90 1.835
321.00 1.834
321.10 1.833
321.20 1.831
321.30 1.83
321.40 1.829
321.50 1.828
321.60 1.827
321.70 1.826
321.80 1.824
321.90 1.823
322.00 1.822
322.10 1.821
322.20 1.82
322.30 1.819
322.40 1.818
322.50 1.816
322.60 1.815
322.70 1.814
322.80 1.813
322.90 1.812
323.00 1.811
323.10 1.809
323.20 1.808
323.30 1.807
323.40 1.806
323.50 1.805
323.60 1.804
323.70 1.803
323.80 1.802
323.90 1.8
324.00 1.799
324.10 1.798
324.20 1.797
324.30 1.796
324.40 1.795
324.50 1.794
324.60 1.792
324.70 1.791
324.80 1.79
324.90 1.789
325.00 1.788
325.10 1.787
325.20 1.786
325.30 1.785
325.40 1.783
325.50 1.782
325.60 1.781
325.70 1.78
325.80 1.779
325.90 1.778
326.00 1.777
326.10 1.776
326.20 1.774
326.30 1.773
326.40 1.772
326.50 1.771
326.60 1.77
326.70 1.769
326.80 1.768
326.90 1.767
327.00 1.766
327.10 1.764
327.20 1.763
327.30 1.762
327.40 1.761
327.50 1.76
327.60 1.759
327.70 1.758
327.80 1.757
327.90 1.756
328.00 1.754
328.10 1.753
328.20 1.752
328.30 1.751
328.40 1.75
328.50 1.749
328.60 1.748
328.70 1.747
328.80 1.746
328.90 1.745
329.00 1.743
329.10 1.742
329.20 1.741
329.30 1.74
329.40 1.739
329.50 1.738
329.60 1.737
329.70 1.736
329.80 1.735
329.90 1.734
330.00 1.733
330.10 1.731
330.20 1.73
330.30 1.729
330.40 1.728
330.50 1.727
330.60 1.726
330.70 1.725
330.80 1.724
330.90 1.723
331.00 1.722
331.10 1.721
331.20 1.719
331.30 1.718
331.40 1.717
331.50 1.716
331.60 1.715
331.70 1.714
331.80 1.713
331.90 1.712
332.00 1.711
332.10 1.71
332.20 1.709
332.30 1.708
332.40 1.707
332.50 1.706
332.60 1.704
332.70 1.703
332.80 1.702
332.90 1.701
333.00 1.7
333.10 1.699
333.20 1.698
333.30 1.697
333.40 1.696
333.50 1.695
333.60 1.694
333.70 1.693
333.80 1.692
333.90 1.691
334.00 1.69
334.10 1.689
334.20 1.687
334.30 1.686
334.40 1.685
334.50 1.684
334.60 1.683
334.70 1.682
334.80 1.681
334.90 1.68
335.00 1.679
335.10 1.678
335.20 1.677
335.30 1.676
335.40 1.675
335.50 1.674
335.60 1.673
335.70 1.672
335.80 1.671
335.90 1.67
336.00 1.669
336.10 1.668
336.20 1.666
336.30 1.665
336.40 1.664
336.50 1.663
336.60 1.662
336.70 1.661
336.80 1.66
336.90 1.659
337.00 1.658
337.10 1.657
337.20 1.656
337.30 1.655
337.40 1.654
337.50 1.653
337.60 1.652
337.70 1.651
337.80 1.65
337.90 1.649
338.00 1.648
338.10 1.647
338.20 1.646
338.30 1.645
338.40 1.644
338.50 1.643
338.60 1.642
338.70 1.641
338.80 1.64
338.90 1.639
339.00 1.638
339.10 1.637
339.20 1.636
339.30 1.635
339.40 1.634
339.50 1.633
339.60 1.632
339.70 1.63
339.80 1.629
339.90 1.628
340.00 1.627
340.10 1.626
340.20 1.625
340.30 1.624
340.40 1.623
340.50 1.622
340.60 1.621
340.70 1.62
340.80 1.619
340.90 1.618
341.00 1.617
341.10 1.616
341.20 1.615
341.30 1.614
341.40 1.613
341.50 1.612
341.60 1.611
341.70 1.61
341.80 1.609
341.90 1.608
342.00 1.607
342.10 1.606
342.20 1.605
342.30 1.604
342.40 1.603
342.50 1.602
342.60 1.601
342.70 1.6
342.80 1.599
342.90 1.598
343.00 1.597
343.10 1.596
343.20 1.595
343.30 1.594
343.40 1.593
343.50 1.592
343.60 1.591
343.70 1.59
343.80 1.589
343.90 1.588
344.00 1.587
344.10 1.586
344.20 1.586
344.30 1.585
344.40 1.584
344.50 1.583
344.60 1.582
344.70 1.581
344.80 1.58
344.90 1.579
345.00 1.578
345.10 1.577
345.20 1.576
345.30 1.575
345.40 1.574
345.50 1.573
345.60 1.572
345.70 1.571
345.80 1.57
345.90 1.569
346.00 1.568
346.10 1.567
346.20 1.566
346.30 1.565
346.40 1.564
346.50 1.563
346.60 1.562
346.70 1.561
346.80 1.56
346.90 1.559
347.00 1.558
347.10 1.557
347.20 1.556
347.30 1.555
347.40 1.554
347.50 1.553
347.60 1.552
347.70 1.552
347.80 1.551
347.90 1.55
348.00 1.549
348.10 1.548
348.20 1.547
348.30 1.546
348.40 1.545
348.50 1.544
348.60 1.543
348.70 1.542
348.80 1.541
348.90 1.54
349.00 1.539
349.10 1.538
349.20 1.537
349.30 1.536
349.40 1.535
349.50 1.534
349.60 1.533
349.70 1.532
349.80 1.532
349.90 1.531
350.00 1.53
350.10 1.529
350.20 1.528
350.30 1.527
350.40 1.526
350.50 1.525
350.60 1.524
350.70 1.523
350.80 1.522
350.90 1.521
351.00 1.52
351.10 1.519
351.20 1.518
351.30 1.517
351.40 1.516
351.50 1.516
351.60 1.515
351.70 1.514
351.80 1.513
351.90 1.512
352.00 1.511
352.10 1.51
352.20 1.509
352.30 1.508
352.40 1.507
352.50 1.506
352.60 1.505
352.70 1.504
352.80 1.503
352.90 1.503
353.00 1.502
353.10 1.501
353.20 1.5
353.30 1.499
353.40 1.498
353.50 1.497
353.60 1.496
353.70 1.495
353.80 1.494
353.90 1.493
354.00 1.492
354.10 1.492
354.20 1.491
354.30 1.49
354.40 1.489
354.50 1.488
354.60 1.487
354.70 1.486
354.80 1.485
354.90 1.484
355.00 1.483
355.10 1.482
355.20 1.481
355.30 1.481
355.40 1.48
355.50 1.479
355.60 1.478
355.70 1.477
355.80 1.476
355.90 1.475
356.00 1.474
356.10 1.473
356.20 1.472
356.30 1.472
356.40 1.471
356.50 1.47
356.60 1.469
356.70 1.468
356.80 1.467
356.90 1.466
357.00 1.465
357.10 1.464
357.20 1.463
357.30 1.463
357.40 1.462
357.50 1.461
357.60 1.46
357.70 1.459
357.80 1.458
357.90 1.457
358.00 1.456
358.10 1.455
358.20 1.455
358.30 1.454
358.40 1.453
358.50 1.452
358.60 1.451
358.70 1.45
358.80 1.449
358.90 1.448
359.00 1.447
359.10 1.447
359.20 1.446
359.30 1.445
359.40 1.444
359.50 1.443
359.60 1.442
359.70 1.441
359.80 1.44
359.90 1.44
360.00 1.439
360.10 1.438
360.20 1.437
360.30 1.436
360.40 1.435
360.50 1.434
360.60 1.433
360.70 1.432
360.80 1.432
360.90 1.431
361.00 1.43
361.10 1.429
361.20 1.428
361.30 1.427
361.40 1.426
361.50 1.426
361.60 1.425
361.70 1.424
361.80 1.423
361.90 1.422
362.00 1.421
362.10 1.42
362.20 1.419
362.30 1.419
362.40 1.418
362.50 1.417
362.60 1.416
362.70 1.415
362.80 1.414
362.90 1.413
363.00 1.413
363.10 1.412
363.20 1.411
363.30 1.41
363.40 1.409
363.50 1.408
363.60 1.407
363.70 1.406
363.80 1.405
363.90 1.404
364.00 1.403
364.10 1.402
364.20 1.401
364.30 1.4
364.40 1.399
364.50 1.398
364.60 1.397
364.70 1.396
364.80 1.395
364.90 1.394
365.00 1.393
365.10 1.392
365.20 1.391
365.30 1.39
365.40 1.389
365.50 1.388
365.60 1.387
365.70 1.386
365.80 1.385
365.90 1.384
366.00 1.383
366.10 1.382
366.20 1.381
366.30 1.38
366.40 1.379
366.50 1.378
366.60 1.377
366.70 1.376
366.80 1.376
366.90 1.375
367.00 1.374
367.10 1.373
367.20 1.372
367.30 1.371
367.40 1.37
367.50 1.369
367.60 1.369
367.70 1.368
367.80 1.367
367.90 1.366
368.00 1.365
368.10 1.364
368.20 1.363
368.30 1.363
368.40 1.362
368.50 1.361
368.60 1.36
368.70 1.359
368.80 1.358
368.90 1.358
369.00 1.357
369.10 1.356
369.20 1.355
369.30 1.354
369.40 1.354
369.50 1.353
369.60 1.352
369.70 1.351
369.80 1.35
369.90 1.35
370.00 1.349
370.10 1.348
370.20 1.348
370.30 1.347
370.40 1.347
370.50 1.346
370.60 1.346
370.70 1.345
370.80 1.345
370.90 1.344
371.00 1.344
371.10 1.343
371.20 1.342
371.30 1.342
371.40 1.341
371.50 1.341
371.60 1.34
371.70 1.34
371.80 1.339
371.90 1.339
372.00 1.338
372.10 1.338
372.20 1.338
372.30 1.338
372.40 1.338
372.50 1.338
372.60 1.338
372.70 1.338
372.80 1.338
372.90 1.338
373.00 1.338
373.10 1.338
373.20 1.338
373.30 1.338
373.40 1.338
373.50 1.338
373.60 1.338
373.70 1.338
373.80 1.338
373.90 1.338
374.00 1.338
374.10 1.338
374.20 1.338
374.30 1.339
374.40 1.339
374.50 1.339
374.60 1.34
374.70 1.34
374.80 1.34
374.90 1.34
375.00 1.341
375.10 1.341
375.20 1.341
375.30 1.342
375.40 1.342
375.50 1.342
375.60 1.343
375.70 1.343
375.80 1.343
375.90 1.343
376.00 1.344
376.10 1.344
376.20 1.344
376.30 1.344
376.40 1.344
376.50 1.344
376.60 1.344
376.70 1.344
376.80 1.344
376.90 1.344
377.00 1.344
377.10 1.344
377.20 1.343
377.30 1.342
377.40 1.341
377.50 1.34
377.60 1.34
377.70 1.339
377.80 1.338
377.90 1.337
378.00 1.336
378.10 1.333
378.20 1.329
378.30 1.326
378.40 1.323
378.50 1.319
378.60 1.316
378.70 1.312
378.80 1.309
378.90 1.305
379.00 1.302
379.10 1.3
379.20 1.297
379.30 1.295
379.40 1.293
379.50 1.291
379.60 1.288
379.70 1.286
379.80 1.284
379.90 1.281
380.00 1.279
380.10 1.282
380.20 1.286
380.30 1.289
380.40 1.292
380.50 1.296
380.60 1.299
380.70 1.302
380.80 1.306
380.90 1.309
381.00 1.312
381.10 1.313
381.20 1.314
381.30 1.315
381.40 1.316
381.50 1.317
381.60 1.316
381.70 1.315
381.80 1.313
381.90 1.31
382.00 1.307
382.10 1.304
382.20 1.299
382.30 1.291
382.40 1.282
382.50 1.273
382.60 1.265
382.70 1.256
382.80 1.248
382.90 1.239
383.00 1.231
383.10 1.222
383.20 1.214
383.30 1.208
383.40 1.201
383.50 1.194
383.60 1.195
383.70 1.203
383.80 1.21
383.90 1.216
384.00 1.225
384.10 1.235
384.20 1.247
384.30 1.258
384.40 1.268
384.50 1.279
384.60 1.287
384.70 1.295
384.80 1.302
384.90 1.307
385.00 1.312
385.10 1.316
385.20 1.319
385.30 1.322
385.40 1.325
385.50 1.326
385.60 1.328
385.70 1.328
385.80 1.328
385.90 1.328
386.00 1.327
386.10 1.326
386.20 1.324
386.30 1.322
386.40 1.319
386.50 1.316
386.60 1.312
386.70 1.307
386.80 1.303
386.90 1.297
387.00 1.291
387.10 1.284
387.20 1.277
387.30 1.269
387.40 1.261
387.50 1.251
387.60 1.241
387.70 1.23
387.80 1.218
387.90 1.204
388.00 1.188
388.10 1.17
388.20 1.151
388.30 1.131
388.40 1.109
388.50 1.089
388.60 1.071
388.70 1.059
388.80 1.048
388.90 1.039
389.00 1.047
389.10 1.058
389.20 1.07
389.30 1.088
389.40 1.108
389.50 1.13
389.60 1.152
389.70 1.172
389.80 1.19
389.90 1.207
390.00 1.222
390.10 1.236
390.20 1.248
390.30 1.259
390.40 1.27
390.50 1.279
390.60 1.288
390.70 1.297
390.80 1.305
390.90 1.313
391.00 1.32
391.10 1.326
391.20 1.333
391.30 1.338
391.40 1.343
391.50 1.348
391.60 1.352
391.70 1.356
391.80 1.359
391.90 1.362
392.00 1.364
392.10 1.366
392.20 1.368
392.30 1.369
392.40 1.37
392.50 1.37
392.60 1.37
392.70 1.369
392.80 1.368
392.90 1.366
393.00 1.364
393.10 1.362
393.20 1.359
393.30 1.355
393.40 1.351
393.50 1.347
393.60 1.342
393.70 1.337
393.80 1.331
393.90 1.324
394.00 1.317
394.10 1.31
394.20 1.302
394.30 1.294
394.40 1.285
394.50 1.275
394.60 1.265
394.70 1.254
394.80 1.243
394.90 1.231
395.00 1.219
395.10 1.205
395.20 1.192
395.30 1.177
395.40 1.163
395.50 1.147
395.60 1.131
395.70 1.115
395.80 1.098
395.90 1.079
396.00 1.059
396.10 1.038
396.20 1.014
396.30 0.9893
396.40 0.9626
396.50 0.9307
396.60 0.8985
396.70 0.866
396.80 0.8415
396.90 0.8168
397.00 0.7919
397.10 0.8147
397.20 0.8376
397.30 0.8607
397.40 0.8923
397.50 0.9241
397.60 0.9559
397.70 0.9827
397.80 1.008
397.90 1.031
398.00 1.052
398.10 1.072
398.20 1.091
398.30 1.108
398.40 1.125
398.50 1.141
398.60 1.156
398.70 1.171
398.80 1.186
398.90 1.2
399.00 1.214
399.10 1.227
399.20 1.24
399.30 1.252
399.40 1.264
399.50 1.275
399.60 1.285
399.70 1.296
399.80 1.306
399.90 1.315
400.00 1.325
400.10 1.333
400.20 1.342
400.30 1.35
400.40 1.358
400.50 1.365
400.60 1.372
400.70 1.379
400.80 1.385
400.90 1.391
401.00 1.397
401.10 1.403
401.20 1.408
401.30 1.412
401.40 1.417
401.50 1.421
401.60 1.425
401.70 1.429
401.80 1.432
401.90 1.435
402.00 1.438
402.10 1.441
402.20 1.443
402.30 1.445
402.40 1.447
402.50 1.449
402.60 1.45
402.70 1.451
402.80 1.452
402.90 1.452
403.00 1.453
403.10 1.453
403.20 1.452
403.30 1.452
403.40 1.451
403.50 1.45
403.60 1.449
403.70 1.447
403.80 1.446
403.90 1.444
404.00 1.441
404.10 1.439
404.20 1.436
404.30 1.433
404.40 1.43
404.50 1.426
404.60 1.422
404.70 1.418
404.80 1.414
404.90 1.41
405.00 1.405
405.10 1.4
405.20 1.394
405.30 1.389
405.40 1.383
405.50 1.376
405.60 1.37
405.70 1.363
405.80 1.356
405.90 1.348
406.00 1.34
406.10 1.332
406.20 1.324
406.30 1.315
406.40 1.306
406.50 1.296
406.60 1.286
406.70 1.276
406.80 1.265
406.90 1.255
407.00 1.243
407.10 1.232
407.20 1.22
407.30 1.207
407.40 1.194
407.50 1.181
407.60 1.167
407.70 1.153
407.80 1.139
407.90 1.123
408.00 1.108
408.10 1.092
408.20 1.075
408.30 1.058
408.40 1.041
408.50 1.023
408.60 1.005
408.70 0.9864
408.80 0.9672
408.90 0.9478
409.00 0.928
409.10 0.9075
409.20 0.8866
409.30 0.8653
409.40 0.8424
409.50 0.818
409.60 0.7921
409.70 0.7625
409.80 0.7314
409.90 0.699
410.00 0.6692
410.10 0.6449
410.20 0.6261
410.30 0.6549
410.40 0.6845
410.50 0.7149
410.60 0.7462
410.70 0.7757
410.80 0.8033
410.90 0.8272
411.00 0.8499
411.10 0.8712
411.20 0.8913
411.30 0.9111
411.40 0.9305
411.50 0.9491
411.60 0.9674
411.70 0.9853
411.80 1.003
411.90 1.02
412.00 1.036
412.10 1.052
412.20 1.068
412.30 1.084
412.40 1.098
412.50 1.113
412.60 1.127
412.70 1.14
412.80 1.153
412.90 1.166
413.00 1.178
413.10 1.189
413.20 1.201
413.30 1.212
413.40 1.223
413.50 1.233
413.60 1.243
413.70 1.253
413.80 1.263
413.90 1.272
414.00 1.281
414.10 1.289
414.20 1.298
414.30 1.306
414.40 1.314
414.50 1.321
414.60 1.329
414.70 1.336
414.80 1.343
414.90 1.349
415.00 1.356
415.10 1.362
415.20 1.368
415.30 1.374
415.40 1.38
415.50 1.385
415.60 1.39
415.70 1.395
415.80 1.4
415.90 1.405
416.00 1.41
416.10 1.414
416.20 1.419
416.30 1.423
416.40 1.427
416.50 1.431
416.60 1.435
416.70 1.439
416.80 1.442
416.90 1.446
417.00 1.449
417.10 1.453
417.20 1.456
417.30 1.459
417.40 1.462
417.50 1.464
417.60 1.467
417.70 1.469
417.80 1.472
417.90 1.474
418.00 1.476
418.10 1.478
418.20 1.48
418.30 1.482
418.40 1.484
418.50 1.485
418.60 1.487
418.70 1.488
418.80 1.49
418.90 1.491
419.00 1.492
419.10 1.493
419.20 1.495
419.30 1.496
419.40 1.496
419.50 1.497
419.60 1.498
419.70 1.499
419.80 1.499
419.90 1.5
420.00 1.5
420.10 1.501
420.20 1.501
420.30 1.501
420.40 1.502
420.50 1.502
420.60 1.502
420.70 1.502
420.80 1.502
420.90 1.502
421.00 1.501
421.10 1.501
421.20 1.501
421.30 1.5
421.40 1.5
421.50 1.499
421.60 1.499
421.70 1.498
421.80 1.497
421.90 1.497
422.00 1.496
422.10 1.495
422.20 1.494
422.30 1.493
422.40 1.492
422.50 1.49
422.60 1.489
422.70 1.488
422.80 1.487
422.90 1.485
423.00 1.484
423.10 1.482
423.20 1.48
423.30 1.479
423.40 1.477
423.50 1.475
423.60 1.473
423.70 1.471
423.80 1.469
423.90 1.467
424.00 1.465
424.10 1.463
424.20 1.461
424.30 1.458
424.40 1.456
424.50 1.453
424.60 1.451
424.70 1.448
424.80 1.446
424.90 1.443
425.00 1.44
425.10 1.437
425.20 1.434
425.30 1.431
425.40 1.428
425.50 1.424
425.60 1.421
425.70 1.418
425.80 1.414
425.90 1.411
426.00 1.407
426.10 1.403
426.20 1.398
426.30 1.394
426.40 1.39
426.50 1.386
426.60 1.382
426.70 1.377
426.80 1.373
426.90 1.368
427.00 1.364
427.10 1.359
427.20 1.354
427.30 1.349
427.40 1.344
427.50 1.339
427.60 1.333
427.70 1.328
427.80 1.322
427.90 1.316
428.00 1.311
428.10 1.305
428.20 1.299
428.30 1.293
428.40 1.286
428.50 1.28
428.60 1.273
428.70 1.267
428.80 1.26
428.90 1.253
429.00 1.246
429.10 1.239
429.20 1.231
429.30 1.223
429.40 1.215
429.50 1.207
429.60 1.199
429.70 1.191
429.80 1.182
429.90 1.173
430.00 1.164
430.10 1.155
430.20 1.145
430.30 1.136
430.40 1.126
430.50 1.116
430.60 1.105
430.70 1.095
430.80 1.084
430.90 1.073
431.00 1.062
431.10 1.05
431.20 1.038
431.30 1.026
431.40 1.014
431.50 1.001
431.60 0.9882
431.70 0.9749
431.80 0.9613
431.90 0.9472
432.00 0.9328
432.10 0.9181
432.20 0.9028
432.30 0.887
432.40 0.8708
432.50 0.8536
432.60 0.8358
432.70 0.8174
432.80 0.7985
432.90 0.7797
433.00 0.7609
433.10 0.7431
433.20 0.7254
433.30 0.7078
433.40 0.6892
433.50 0.6695
433.60 0.6484
433.70 0.622
433.80 0.5923
433.90 0.5591
434.00 0.5094
434.10 0.5102
434.20 0.5616
434.30 0.5938
434.40 0.6227
434.50 0.6483
434.60 0.6685
434.70 0.6876
434.80 0.7054
434.90 0.7223
435.00 0.7393
435.10 0.7564
435.20 0.7744
435.30 0.7924
435.40 0.8104
435.50 0.8278
435.60 0.8445
435.70 0.8607
435.80 0.8758
435.90 0.8904
436.00 0.9046
436.10 0.9182
436.20 0.9314
436.30 0.9444
436.40 0.9567
436.50 0.9688
436.60 0.9806
436.70 0.9919
436.80 1.003
436.90 1.014
437.00 1.024
437.10 1.034
437.20 1.044
437.30 1.054
437.40 1.063
437.50 1.073
437.60 1.081
437.70 1.09
437.80 1.099
437.90 1.107
438.00 1.115
438.10 1.123
438.20 1.13
438.30 1.138
438.40 1.145
438.50 1.152
438.60 1.158
438.70 1.165
438.80 1.171
438.90 1.178
439.00 1.184
439.10 1.189
439.20 1.195
439.30 1.201
439.40 1.206
439.50 1.211
439.60 1.216
439.70 1.221
439.80 1.226
439.90 1.23
440.00 1.235
440.10 1.239
440.20 1.244
440.30 1.248
440.40 1.252
440.50 1.256
440.60 1.26
440.70 1.264
440.80 1.268
440.90 1.271
441.00 1.275
441.10 1.278
441.20 1.281
441.30 1.284
441.40 1.288
441.50 1.29
441.60 1.293
441.70 1.296
441.80 1.299
441.90 1.301
442.00 1.304
442.10 1.306
442.20 1.309
442.30 1.311
442.40 1.313
442.50 1.315
442.60 1.318
442.70 1.32
442.80 1.322
442.90 1.324
443.00 1.325
443.10 1.327
443.20 1.329
443.30 1.331
443.40 1.332
443.50 1.334
443.60 1.335
443.70 1.337
443.80 1.338
443.90 1.34
444.00 1.341
444.10 1.342
444.20 1.343
444.30 1.345
444.40 1.346
444.50 1.347
444.60 1.348
444.70 1.349
444.80 1.35
444.90 1.351
445.00 1.352
445.10 1.353
445.20 1.353
445.30 1.354
445.40 1.355
445.50 1.356
445.60 1.356
445.70 1.357
445.80 1.358
445.90 1.358
446.00 1.359
446.10 1.359
446.20 1.36
446.30 1.36
446.40 1.361
446.50 1.361
446.60 1.362
446.70 1.362
446.80 1.362
446.90 1.363
447.00 1.363
447.10 1.363
447.20 1.363
447.30 1.364
447.40 1.364
447.50 1.364
447.60 1.364
447.70 1.364
447.80 1.365
447.90 1.365
448.00 1.365
448.10 1.365
448.20 1.365
448.30 1.365
448.40 1.365
448.50 1.365
448.60 1.365
448.70 1.365
448.80 1.365
448.90 1.365
449.00 1.365
449.10 1.365
449.20 1.365
449.30 1.365
449.40 1.364
449.50 1.364
449.60 1.364
449.70 1.364
449.80 1.364
449.90 1.363
450.00 1.363
450.10 1.363
450.20 1.363
450.30 1.362
450.40 1.362
450.50 1.362
450.60 1.362
450.70 1.361
450.80 1.361
450.90 1.361
451.00 1.36
451.10 1.36
451.20 1.36
451.30 1.359
451.40 1.359
451.50 1.358
451.60 1.358
451.70 1.358
451.80 1.357
451.90 1.357
452.00 1.356
452.10 1.356
452.20 1.356
452.30 1.355
452.40 1.355
452.50 1.354
452.60 1.354
452.70 1.353
452.80 1.353
452.90 1.352
453.00 1.352
453.10 1.351
453.20 1.351
453.30 1.35
453.40 1.35
453.50 1.349
453.60 1.348
453.70 1.348
453.80 1.347
453.90 1.347
454.00 1.346
454.10 1.346
454.20 1.345
454.30 1.344
454.40 1.344
454.50 1.343
454.60 1.343
454.70 1.342
454.80 1.341
454.90 1.341
455.00 1.34
455.10 1.339
455.20 1.339
455.30 1.338
455.40 1.338
455.50 1.337
455.60 1.336
455.70 1.335
455.80 1.335
455.90 1.334
456.00 1.333
456.10 1.333
456.20 1.332
456.30 1.331
456.40 1.331
456.50 1.33
456.60 1.329
456.70 1.329
456.80 1.328
456.90 1.327
457.00 1.327
457.10 1.326
457.20 1.325
457.30 1.325
457.40 1.324
457.50 1.323
457.60 1.323
457.70 1.322
457.80 1.321
457.90 1.32
458.00 1.32
458.10 1.319
458.20 1.318
458.30 1.317
458.40 1.316
458.50 1.316
458.60 1.315
458.70 1.314
458.80 1.313
458.90 1.312
459.00 1.312
459.10 1.311
459.20 1.31
459.30 1.309
459.40 1.308
459.50 1.308
459.60 1.307
459.70 1.306
459.80 1.305
459.90 1.304
460.00 1.303
460.10 1.303
460.20 1.302
460.30 1.301
460.40 1.3
460.50 1.299
460.60 1.298
460.70 1.297
460.80 1.297
460.90 1.296
461.00 1.295
461.10 1.294
461.20 1.293
461.30 1.292
461.40 1.291
461.50 1.29
461.60 1.289
461.70 1.289
461.80 1.288
461.90 1.287
462.00 1.286
462.10 1.285
462.20 1.284
462.30 1.283
462.40 1.282
462.50 1.281
462.60 1.28
462.70 1.279
462.80 1.278
462.90 1.277
463.00 1.277
463.10 1.276
463.20 1.275
463.30 1.274
463.40 1.273
463.50 1.272
463.60 1.271
463.70 1.27
463.80 1.269
463.90 1.268
464.00 1.267
464.10 1.266
464.20 1.265
464.30 1.264
464.40 1.263
464.50 1.262
464.60 1.261
464.70 1.26
464.80 1.259
464.90 1.258
465.00 1.257
465.10 1.256
465.20 1.255
465.30 1.253
465.40 1.252
465.50 1.251
465.60 1.25
465.70 1.249
465.80 1.248
465.90 1.247
466.00 1.246
466.10 1.245
466.20 1.244
466.30 1.243
466.40 1.242
466.50 1.24
466.60 1.239
466.70 1.238
466.80 1.237
466.90 1.236
467.00 1.235
467.10 1.234
467.20 1.232
467.30 1.231
467.40 1.23
467.50 1.229
467.60 1.228
467.70 1.226
467.80 1.225
467.90 1.224
468.00 1.223
468.10 1.222
468.20 1.22
468.30 1.219
468.40 1.218
468.50 1.217
468.60 1.215
468.70 1.214
468.80 1.213
468.90 1.212
469.00 1.21
469.10 1.209
469.20 1.208
469.30 1.206
469.40 1.205
469.50 1.204
469.60 1.202
469.70 1.201
469.80 1.2
469.90 1.198
470.00 1.197
470.10 1.196
470.20 1.194
470.30 1.193
470.40 1.191
470.50 1.19
470.60 1.189
470.70 1.187
470.80 1.186
470.90 1.184
471.00 1.183
471.10 1.182
471.20 1.18
471.30 1.179
471.40 1.177
471.50 1.175
471.60 1.174
471.70 1.172
471.80 1.171
471.90 1.169
472.00 1.168
472.10 1.166
472.20 1.164
472.30 1.163
472.40 1.161
472.50 1.159
472.60 1.158
472.70 1.156
472.80 1.154
472.90 1.152
473.00 1.151
473.10 1.149
473.20 1.147
473.30 1.145
473.40 1.143
473.50 1.142
473.60 1.14
473.70 1.138
473.80 1.136
473.90 1.134
474.00 1.132
474.10 1.13
474.20 1.128
474.30 1.126
474.40 1.124
474.50 1.122
474.60 1.12
474.70 1.118
474.80 1.116
474.90 1.114
475.00 1.111
475.10 1.109
475.20 1.107
475.30 1.105
475.40 1.102
475.50 1.1
475.60 1.098
475.70 1.095
475.80 1.093
475.90 1.091
476.00 1.088
476.10 1.086
476.20 1.083
476.30 1.081
476.40 1.078
476.50 1.075
476.60 1.073
476.70 1.07
476.80 1.067
476.90 1.065
477.00 1.062
477.10 1.06
477.20 1.057
477.30 1.054
477.40 1.051
477.50 1.048
477.60 1.045
477.70 1.041
477.80 1.038
477.90 1.035
478.00 1.032
478.10 1.029
478.20 1.026
478.30 1.023
478.40 1.019
478.50 1.016
478.60 1.012
478.70 1.009
478.80 1.005
478.90 1.002
479.00 0.9981
479.10 0.9946
479.20 0.9907
479.30 0.9866
479.40 0.9825
479.50 0.9785
479.60 0.9744
479.70 0.9703
479.80 0.9663
479.90 0.9622
480.00 0.9582
480.10 0.9541
480.20 0.9496
480.30 0.9448
480.40 0.94
480.50 0.9353
480.60 0.9305
480.70 0.9257
480.80 0.921
480.90 0.9162
481.00 0.9115
481.10 0.9067
481.20 0.9013
481.30 0.8956
481.40 0.8898
481.50 0.8841
481.60 0.8784
481.70 0.8726
481.80 0.8669
481.90 0.8612
482.00 0.8555
482.10 0.8498
482.20 0.8432
482.30 0.8362
482.40 0.8292
482.50 0.8222
482.60 0.8152
482.70 0.8082
482.80 0.8012
482.90 0.7943
483.00 0.7873
483.10 0.7803
483.20 0.772
483.30 0.7631
483.40 0.7541
483.50 0.7452
483.60 0.7362
483.70 0.7273
483.80 0.7184
483.90 0.7095
484.00 0.7006
484.10 0.6917
484.20 0.6814
484.30 0.6706
484.40 0.6597
484.50 0.6489
484.60 0.6381
484.70 0.6265
484.80 0.6146
484.90 0.6027
485.00 0.5908
485.10 0.579
485.20 0.5673
485.30 0.5558
485.40 0.5442
485.50 0.5326
485.60 0.52
485.70 0.5071
485.80 0.4898
485.90 0.4705
486.00 0.4411
486.10 0.3785
486.20 0.4033
486.30 0.4533
486.40 0.4759
486.50 0.4951
486.60 0.5098
486.70 0.5223
486.80 0.5339
486.90 0.545
487.00 0.5561
487.10 0.5671
487.20 0.5782
487.30 0.5895
487.40 0.6007
487.50 0.612
487.60 0.6232
487.70 0.6337
487.80 0.6438
487.90 0.6539
488.00 0.664
488.10 0.674
488.20 0.6828
488.30 0.6908
488.40 0.6989
488.50 0.7069
488.60 0.715
488.70 0.723
488.80 0.7311
488.90 0.7391
489.00 0.7471
489.10 0.7551
489.20 0.7618
489.30 0.7677
489.40 0.7737
489.50 0.7797
489.60 0.7856
489.70 0.7916
489.80 0.7976
489.90 0.8035
490.00 0.8095
490.10 0.8154
490.20 0.8204
490.30 0.825
490.40 0.8296
490.50 0.8342
490.60 0.8388
490.70 0.8434
490.80 0.848
490.90 0.8525
491.00 0.8571
491.10 0.8617
491.20 0.8656
491.30 0.8691
491.40 0.8727
491.50 0.8762
491.60 0.8798
491.70 0.8833
491.80 0.8868
491.90 0.8904
492.00 0.8939
492.10 0.8974
492.20 0.9004
492.30 0.9032
492.40 0.906
492.50 0.9088
492.60 0.9115
492.70 0.9143
492.80 0.9171
492.90 0.9199
493.00 0.9226
493.10 0.9254
493.20 0.9277
493.30 0.9299
493.40 0.9321
493.50 0.9343
493.60 0.9365
493.70 0.9387
493.80 0.9408
493.90 0.943
494.00 0.9452
494.10 0.9474
494.20 0.9492
494.30 0.9508
494.40 0.9525
494.50 0.9542
494.60 0.9558
494.70 0.9575
494.80 0.9591
494.90 0.9608
495.00 0.9624
495.10 0.9641
495.20 0.9655
495.30 0.9667
495.40 0.968
495.50 0.9692
495.60 0.9705
495.70 0.9717
495.80 0.973
495.90 0.9742
496.00 0.9754
496.10 0.9767
496.20 0.9777
496.30 0.9787
496.40 0.9796
496.50 0.9805
496.60 0.9815
496.70 0.9824
496.80 0.9833
496.90 0.9843
497.00 0.9852
497.10 0.9861
497.20 0.9869
497.30 0.9875
497.40 0.9882
497.50 0.9889
497.60 0.9895
497.70 0.9902
497.80 0.9909
497.90 0.9915
498.00 0.9922
498.10 0.9929
498.20 0.9934
498.30 0.9939
498.40 0.9943
498.50 0.9948
498.60 0.9952
498.70 0.9957
498.80 0.9961
498.90 0.9966
499.00 0.997
499.10 0.9975
499.20 0.9978
499.30 0.9981
499.40 0.9983
499.50 0.9986
499.60 0.9989
499.70 0.9992
499.80 0.9995
499.90 0.9997
500.00 1
500.10 1
500.20 1
500.30 1.001
500.40 1.001
500.50 1.001
500.60 1.001
500.70 1.001
500.80 1.001
500.90 1.001
501.00 1.002
501.10 1.002
501.20 1.002
501.30 1.002
501.40 1.002
501.50 1.002
501.60 1.002
501.70 1.002
501.80 1.002
501.90 1.002
502.00 1.002
502.10 1.002
502.20 1.002
502.30 1.002
502.40 1.002
502.50 1.002
502.60 1.002
502.70 1.002
502.80 1.002
502.90 1.001
503.00 1.001
503.10 1.001
503.20 1.001
503.30 1.001
503.40 1.001
503.50 1.001
503.60 1.001
503.70 1.001
503.80 1
503.90 1
504.00 1
504.10 0.9999
504.20 0.9998
504.30 0.9996
504.40 0.9993
504.50 0.9991
504.60 0.9989
504.70 0.9987
504.80 0.9985
504.90 0.9983
505.00 0.9981
505.10 0.9979
505.20 0.9977
505.30 0.9974
505.40 0.9971
505.50 0.9969
505.60 0.9966
505.70 0.9964
505.80 0.9961
505.90 0.9959
506.00 0.9956
506.10 0.9953
506.20 0.995
506.30 0.9947
506.40 0.9944
506.50 0.9941
506.60 0.9938
506.70 0.9935
506.80 0.9932
506.90 0.9929
507.00 0.9926
507.10 0.9923
507.20 0.992
507.30 0.9917
507.40 0.9913
507.50 0.991
507.60 0.9906
507.70 0.9903
507.80 0.99
507.90 0.9896
508.00 0.9893
508.10 0.9889
508.20 0.9886
508.30 0.9882
508.40 0.9878
508.50 0.9875
508.60 0.9871
508.70 0.9867
508.80 0.9864
508.90 0.986
509.00 0.9856
509.10 0.9853
509.20 0.9849
509.30 0.9845
509.40 0.9841
509.50 0.9837
509.60 0.9833
509.70 0.9829
509.80 0.9825
509.90 0.9821
510.00 0.9817
510.10 0.9813
510.20 0.9809
510.30 0.9805
510.40 0.9801
510.50 0.9797
510.60 0.9793
510.70 0.9789
510.80 0.9784
510.90 0.978
511.00 0.9776
511.10 0.9772
511.20 0.9768
511.30 0.9763
511.40 0.9759
511.50 0.9755
511.60 0.975
511.70 0.9746
511.80 0.9742
511.90 0.9738
512.00 0.9733
512.10 0.9729
512.20 0.9725
512.30 0.972
512.40 0.9716
512.50 0.9711
512.60 0.9707
512.70 0.9702
512.80 0.9698
512.90 0.9693
513.00 0.9689
513.10 0.9685
513.20 0.968
513.30 0.9676
513.40 0.9671
513.50 0.9666
513.60 0.9662
513.70 0.9657
513.80 0.9653
513.90 0.9648
514.00 0.9644
514.10 0.9639
514.20 0.9634
514.30 0.963
514.40 0.9625
514.50 0.9621
514.60 0.9616
514.70 0.9611
514.80 0.9607
514.90 0.9602
515.00 0.9597
515.10 0.9593
515.20 0.9588
515.30 0.9583
515.40 0.9579
515.50 0.9574
515.60 0.9569
515.70 0.9564
515.80 0.956
515.90 0.9555
516.00 0.955
516.10 0.9546
516.20 0.9541
516.30 0.9536
516.40 0.9531
516.50 0.9527
516.60 0.9522
516.70 0.9517
516.80 0.9512
516.90 0.9507
517.00 0.9503
517.10 0.9498
517.20 0.9493
517.30 0.9488
517.40 0.9483
517.50 0.9479
517.60 0.9474
517.70 0.9469
517.80 0.9464
517.90 0.9459
518.00 0.9455
518.10 0.945
518.20 0.9445
518.30 0.944
518.40 0.9435
518.50 0.9431
518.60 0.9426
518.70 0.9421
518.80 0.9416
518.90 0.9411
519.00 0.9406
519.10 0.9402
519.20 0.9397
519.30 0.9392
519.40 0.9387
519.50 0.9382
519.60 0.9377
519.70 0.9372
519.80 0.9367
519.90 0.9363
520.00 0.9358
520.10 0.9353
520.20 0.9348
520.30 0.9343
520.40 0.9338
520.50 0.9333
520.60 0.9328
520.70 0.9323
520.80 0.9319
520.90 0.9314
521.00 0.9309
521.10 0.9304
521.20 0.9299
521.30 0.9294
521.40 0.9289
521.50 0.9284
521.60 0.9279
521.70 0.9275
521.80 0.927
521.90 0.9265
522.00 0.926
522.10 0.9255
522.20 0.925
522.30 0.9245
522.40 0.924
522.50 0.9235
522.60 0.923
522.70 0.9225
522.80 0.9221
522.90 0.9216
523.00 0.9211
523.10 0.9206
523.20 0.9201
523.30 0.9196
523.40 0.9191
523.50 0.9186
523.60 0.9181
523.70 0.9176
523.80 0.9171
523.90 0.9167
524.00 0.9162
524.10 0.9157
524.20 0.9152
524.30 0.9147
524.40 0.9142
524.50 0.9137
524.60 0.9132
524.70 0.9127
524.80 0.9122
524.90 0.9117
525.00 0.9113
525.10 0.9108
525.20 0.9103
525.30 0.9098
525.40 0.9093
525.50 0.9088
525.60 0.9083
525.70 0.9078
525.80 0.9073
525.90 0.9068
526.00 0.9064
526.10 0.9059
526.20 0.9054
526.30 0.9049
526.40 0.9044
526.50 0.9039
526.60 0.9034
526.70 0.9029
526.80 0.9024
526.90 0.9019
527.00 0.9014
527.10 0.901
527.20 0.9005
527.30 0.9
527.40 0.8995
527.50 0.899
527.60 0.8985
527.70 0.898
527.80 0.8975
527.90 0.897
528.00 0.8966
528.10 0.8961
528.20 0.8956
528.30 0.8951
528.40 0.8946
528.50 0.8941
528.60 0.8936
528.70 0.8931
528.80 0.8927
528.90 0.8922
529.00 0.8917
529.10 0.8912
529.20 0.8907
529.30 0.8902
529.40 0.8897
529.50 0.8892
529.60 0.8888
529.70 0.8883
529.80 0.8878
529.90 0.8873
530.00 0.8868
530.10 0.8863
530.20 0.8859
530.30 0.8854
530.40 0.8849
530.50 0.8844
530.60 0.8839
530.70 0.8834
530.80 0.8829
530.90 0.8825
531.00 0.882
531.10 0.8815
531.20 0.881
531.30 0.8805
531.40 0.88
531.50 0.8796
531.60 0.8791
531.70 0.8786
531.80 0.8781
531.90 0.8776
532.00 0.8771
532.10 0.8767
532.20 0.8762
532.30 0.8757
532.40 0.8752
532.50 0.8747
532.60 0.8743
532.70 0.8738
532.80 0.8733
532.90 0.8728
533.00 0.8723
533.10 0.8719
533.20 0.8714
533.30 0.8709
533.40 0.8704
533.50 0.8699
533.60 0.8695
533.70 0.869
533.80 0.8685
533.90 0.868
534.00 0.8676
534.10 0.8671
534.20 0.8666
534.30 0.8661
534.40 0.8656
534.50 0.8652
534.60 0.8647
534.70 0.8642
534.80 0.8637
534.90 0.8633
535.00 0.8628
535.10 0.8623
535.20 0.8618
535.30 0.8614
535.40 0.8609
535.50 0.8604
535.60 0.8599
535.70 0.8595
535.80 0.859
535.90 0.8585
536.00 0.858
536.10 0.8576
536.20 0.8571
536.30 0.8566
536.40 0.8562
536.50 0.8557
536.60 0.8552
536.70 0.8547
536.80 0.8543
536.90 0.8538
537.00 0.8533
537.10 0.8529
537.20 0.8524
537.30 0.8519
537.40 0.8515
537.50 0.851
537.60 0.8505
537.70 0.85
537.80 0.8496
537.90 0.8491
538.00 0.8486
538.10 0.8482
538.20 0.8477
538.30 0.8472
538.40 0.8468
538.50 0.8463
538.60 0.8458
538.70 0.8454
538.80 0.8449
538.90 0.8444
539.00 0.844
539.10 0.8435
539.20 0.843
539.30 0.8426
539.40 0.8421
539.50 0.8416
539.60 0.8412
539.70 0.8407
539.80 0.8403
539.90 0.8398
540.00 0.8393
540.10 0.8389
540.20 0.8384
540.30 0.8379
540.40 0.8375
540.50 0.837
540.60 0.8366
540.70 0.8361
540.80 0.8356
540.90 0.8352
541.00 0.8347
541.10 0.8343
541.20 0.8338
541.30 0.8333
541.40 0.8329
541.50 0.8324
541.60 0.832
541.70 0.8315
541.80 0.831
541.90 0.8306
542.00 0.8301
542.10 0.8297
542.20 0.8292
542.30 0.8288
542.40 0.8283
542.50 0.8278
542.60 0.8274
542.70 0.8269
542.80 0.8265
542.90 0.826
543.00 0.8256
543.10 0.8251
543.20 0.8246
543.30 0.8242
543.40 0.8237
543.50 0.8233
543.60 0.8228
543.70 0.8224
543.80 0.8219
543.90 0.8215
544.00 0.821
544.10 0.8206
544.20 0.8201
544.30 0.8197
544.40 0.8192
544.50 0.8188
544.60 0.8183
544.70 0.8179
544.80 0.8174
544.90 0.817
545.00 0.8165
545.10 0.8161
545.20 0.8156
545.30 0.8152
545.40 0.8147
545.50 0.8143
545.60 0.8138
545.70 0.8134
545.80 0.8129
545.90 0.8125
546.00 0.812
546.10 0.8116
546.20 0.8112
546.30 0.8108
546.40 0.8105
546.50 0.8101
546.60 0.8098
546.70 0.8095
546.80 0.8091
546.90 0.8088
547.00 0.8084
547.10 0.8081
547.20 0.8077
547.30 0.8072
547.40 0.8068
547.50 0.8063
547.60 0.8059
547.70 0.8054
547.80 0.805
547.90 0.8045
548.00 0.8041
548.10 0.8036
548.20 0.8032
548.30 0.8027
548.40 0.8023
548.50 0.8018
548.60 0.8014
548.70 0.8009
548.80 0.8005
548.90 0.8001
549.00 0.7996
549.10 0.7992
549.20 0.7987
549.30 0.7983
549.40 0.7978
549.50 0.7974
549.60 0.797
549.70 0.7965
549.80 0.7961
549.90 0.7956
550.00 0.7952
550.10 0.7948
550.20 0.7943
550.30 0.7939
550.40 0.7934
550.50 0.793
550.60 0.7926
550.70 0.7921
550.80 0.7917
550.90 0.7912
551.00 0.7908
551.10 0.7904
551.20 0.7899
551.30 0.7895
551.40 0.789
551.50 0.7886
551.60 0.7882
551.70 0.7877
551.80 0.7873
551.90 0.7869
552.00 0.7864
552.10 0.786
552.20 0.7856
552.30 0.7851
552.40 0.7847
552.50 0.7843
552.60 0.7838
552.70 0.7834
552.80 0.783
552.90 0.7825
553.00 0.7821
553.10 0.7817
553.20 0.7812
553.30 0.7808
553.40 0.7804
553.50 0.7799
553.60 0.7795
553.70 0.7791
553.80 0.7786
553.90 0.7782
554.00 0.7778
554.10 0.7774
554.20 0.7769
554.30 0.7765
554.40 0.7761
554.50 0.7756
554.60 0.7752
554.70 0.7748
554.80 0.7744
554.90 0.7739
555.00 0.7735
555.10 0.7731
555.20 0.7727
555.30 0.7722
555.40 0.7718
555.50 0.7714
555.60 0.771
555.70 0.7705
555.80 0.7701
555.90 0.7697
556.00 0.7693
556.10 0.7688
556.20 0.7684
556.30 0.768
556.40 0.7676
556.50 0.7671
556.60 0.7667
556.70 0.7663
556.80 0.7659
556.90 0.7655
557.00 0.765
557.10 0.7646
557.20 0.7642
557.30 0.7638
557.40 0.7633
557.50 0.7629
557.60 0.7625
557.70 0.7621
557.80 0.7617
557.90 0.7613
558.00 0.7608
558.10 0.7604
558.20 0.76
558.30 0.7596
558.40 0.7592
558.50 0.7587
558.60 0.7583
558.70 0.7579
558.80 0.7575
558.90 0.7571
559.00 0.7567
559.10 0.7563
559.20 0.7558
559.30 0.7554
559.40 0.755
559.50 0.7546
559.60 0.7542
559.70 0.7538
559.80 0.7534
559.90 0.7529
560.00 0.7525
560.10 0.7521
560.20 0.7517
560.30 0.7513
560.40 0.7509
560.50 0.7505
560.60 0.7501
560.70 0.7497
560.80 0.7492
560.90 0.7488
561.00 0.7484
561.10 0.748
561.20 0.7476
561.30 0.7472
561.40 0.7468
561.50 0.7464
561.60 0.746
561.70 0.7456
561.80 0.7451
561.90 0.7447
562.00 0.7443
562.10 0.7439
562.20 0.7435
562.30 0.7431
562.40 0.7427
562.50 0.7423
562.60 0.7419
562.70 0.7415
562.80 0.7411
562.90 0.7407
563.00 0.7403
563.10 0.7399
563.20 0.7395
563.30 0.7391
563.40 0.7387
563.50 0.7383
563.60 0.7379
563.70 0.7375
563.80 0.7371
563.90 0.7366
564.00 0.7362
564.10 0.7358
564.20 0.7354
564.30 0.735
564.40 0.7346
564.50 0.7342
564.60 0.7338
564.70 0.7334
564.80 0.733
564.90 0.7326
565.00 0.7322
565.10 0.7318
565.20 0.7314
565.30 0.731
565.40 0.7306
565.50 0.7303
565.60 0.7299
565.70 0.7295
565.80 0.7291
565.90 0.7287
566.00 0.7283
566.10 0.7279
566.20 0.7275
566.30 0.7271
566.40 0.7267
566.50 0.7263
566.60 0.7259
566.70 0.7255
566.80 0.7251
566.90 0.7247
567.00 0.7243
567.10 0.7239
567.20 0.7235
567.30 0.7231
567.40 0.7227
567.50 0.7224
567.60 0.722
567.70 0.7216
567.80 0.7212
567.90 0.7208
568.00 0.7204
568.10 0.72
568.20 0.7196
568.30 0.7192
568.40 0.7188
568.50 0.7184
568.60 0.7181
568.70 0.7177
568.80 0.7173
568.90 0.7169
569.00 0.7165
569.10 0.7161
569.20 0.7157
569.30 0.7153
569.40 0.7149
569.50 0.7146
569.60 0.7142
569.70 0.7138
569.80 0.7134
569.90 0.713
570.00 0.7126
570.10 0.7122
570.20 0.7119
570.30 0.7115
570.40 0.7111
570.50 0.7107
570.60 0.7103
570.70 0.7099
570.80 0.7095
570.90 0.7092
571.00 0.7088
571.10 0.7084
571.20 0.708
571.30 0.7076
571.40 0.7072
571.50 0.7069
571.60 0.7065
571.70 0.7061
571.80 0.7057
571.90 0.7053
572.00 0.7049
572.10 0.7046
572.20 0.7042
572.30 0.7038
572.40 0.7034
572.50 0.703
572.60 0.7027
572.70 0.7023
572.80 0.7019
572.90 0.7015
573.00 0.7012
573.10 0.7008
573.20 0.7004
573.30 0.7
573.40 0.6996
573.50 0.6993
573.60 0.6989
573.70 0.6985
573.80 0.6981
573.90 0.6978
574.00 0.6974
574.10 0.697
574.20 0.6966
574.30 0.6963
574.40 0.6959
574.50 0.6955
574.60 0.6951
574.70 0.6948
574.80 0.6944
574.90 0.694
575.00 0.6936
575.10 0.6933
575.20 0.6929
575.30 0.6925
575.40 0.6921
575.50 0.6918
575.60 0.6914
575.70 0.691
575.80 0.6907
575.90 0.6903
576.00 0.6899
576.10 0.6895
576.20 0.6892
576.30 0.6888
576.40 0.6884
576.50 0.6881
576.60 0.6877
576.70 0.6873
576.80 0.687
576.90 0.6866
577.00 0.6862
577.10 0.6858
577.20 0.6855
577.30 0.6851
577.40 0.6847
577.50 0.6844
577.60 0.684
577.70 0.6836
577.80 0.6833
577.90 0.6829
578.00 0.6825
578.10 0.6822
578.20 0.6818
578.30 0.6814
578.40 0.6811
578.50 0.6807
578.60 0.6803
578.70 0.68
578.80 0.6796
578.90 0.6792
579.00 0.6789
579.10 0.6785
579.20 0.6782
579.30 0.6778
579.40 0.6774
579.50 0.6771
579.60 0.6767
579.70 0.6763
579.80 0.676
579.90 0.6756
580.00 0.6753
580.10 0.6749
580.20 0.6745
580.30 0.6742
580.40 0.6738
580.50 0.6735
580.60 0.6731
580.70 0.6727
580.80 0.6724
580.90 0.672
581.00 0.6717
581.10 0.6713
581.20 0.6709
581.30 0.6706
581.40 0.6702
581.50 0.6699
581.60 0.6695
581.70 0.6691
581.80 0.6688
581.90 0.6684
582.00 0.6681
582.10 0.6677
582.20 0.6674
582.30 0.667
582.40 0.6667
582.50 0.6663
582.60 0.6659
582.70 0.6656
582.80 0.6652
582.90 0.6649
583.00 0.6645
583.10 0.6642
583.20 0.6638
583.30 0.6635
583.40 0.6631
583.50 0.6627
583.60 0.6624
583.70 0.662
583.80 0.6617
583.90 0.6613
584.00 0.661
584.10 0.6606
584.20 0.6603
584.30 0.6599
584.40 0.6596
584.50 0.6592
584.60 0.6589
584.70 0.6585
584.80 0.6582
584.90 0.6578
585.00 0.6575
585.10 0.6571
585.20 0.6568
585.30 0.6564
585.40 0.6561
585.50 0.6557
585.60 0.6554
585.70 0.655
585.80 0.6547
585.90 0.6543
586.00 0.654
586.10 0.6536
586.20 0.6533
586.30 0.6529
586.40 0.6526
586.50 0.6523
586.60 0.6519
586.70 0.6516
586.80 0.6512
586.90 0.6509
587.00 0.6505
587.10 0.6502
587.20 0.6498
587.30 0.6495
587.40 0.6491
587.50 0.6488
587.60 0.6485
587.70 0.6481
587.80 0.6478
587.90 0.6474
588.00 0.6471
588.10 0.6467
588.20 0.6464
588.30 0.646
588.40 0.6457
588.50 0.6454
588.60 0.645
588.70 0.6447
588.80 0.6443
588.90 0.644
589.00 0.6437
589.10 0.6433
589.20 0.643
589.30 0.6426
589.40 0.6423
589.50 0.642
589.60 0.6416
589.70 0.6413
589.80 0.6409
589.90 0.6406
590.00 0.6403
590.10 0.6399
590.20 0.6396
590.30 0.6392
590.40 0.6389
590.50 0.6386
590.60 0.6382
590.70 0.6379
590.80 0.6376
590.90 0.6372
591.00 0.6369
591.10 0.6365
591.20 0.6362
591.30 0.6359
591.40 0.6355
591.50 0.6352
591.60 0.6349
591.70 0.6345
591.80 0.6342
591.90 0.6339
592.00 0.6335
592.10 0.6332
592.20 0.6329
592.30 0.6325
592.40 0.6322
592.50 0.6319
592.60 0.6315
592.70 0.6312
592.80 0.6309
592.90 0.6305
593.00 0.6302
593.10 0.6299
593.20 0.6295
593.30 0.6292
593.40 0.6289
593.50 0.6285
593.60 0.6282
593.70 0.6279
593.80 0.6275
593.90 0.6272
594.00 0.6269
594.10 0.6266
594.20 0.6262
594.30 0.6259
594.40 0.6256
594.50 0.6252
594.60 0.6249
594.70 0.6246
594.80 0.6242
594.90 0.6239
595.00 0.6236
595.10 0.6233
595.20 0.6229
595.30 0.6226
595.40 0.6223
595.50 0.622
595.60 0.6216
595.70 0.6213
595.80 0.621
595.90 0.6206
596.00 0.6203
596.10 0.62
596.20 0.6195
596.30 0.619
596.40 0.6185
596.50 0.618
596.60 0.6175
596.70 0.6169
596.80 0.6164
596.90 0.6159
597.00 0.6154
597.10 0.6149
597.20 0.6145
597.30 0.6142
597.40 0.6138
597.50 0.6135
597.60 0.6132
597.70 0.6128
597.80 0.6125
597.90 0.6122
598.00 0.6119
598.10 0.6115
598.20 0.6112
598.30 0.6109
598.40 0.6105
598.50 0.6102
598.60 0.6099
598.70 0.6096
598.80 0.6092
598.90 0.6089
599.00 0.6086
599.10 0.6083
599.20 0.6079
599.30 0.6076
599.40 0.6073
599.50 0.607
599.60 0.6066
599.70 0.6063
599.80 0.606
599.90 0.6057
600.00 0.6053
600.10 0.605
600.20 0.6047
600.30 0.6044
600.40 0.604
600.50 0.6037
600.60 0.6034
600.70 0.6031
600.80 0.6028
600.90 0.6024
601.00 0.6021
601.10 0.6018
601.20 0.6015
601.30 0.6011
601.40 0.6008
601.50 0.6005
601.60 0.6002
601.70 0.5999
601.80 0.5995
601.90 0.5992
602.00 0.5989
602.10 0.5986
602.20 0.5982
602.30 0.5979
602.40 0.5976
602.50 0.5973
602.60 0.597
602.70 0.5966
602.80 0.5963
602.90 0.596
603.00 0.5957
603.10 0.5954
603.20 0.595
603.30 0.5947
603.40 0.5944
603.50 0.5941
603.60 0.5938
603.70 0.5935
603.80 0.5931
603.90 0.5928
604.00 0.5925
604.10 0.5922
604.20 0.5919
604.30 0.5915
604.40 0.5912
604.50 0.5909
604.60 0.5906
604.70 0.5903
604.80 0.59
604.90 0.5896
605.00 0.5893
605.10 0.589
605.20 0.5887
605.30 0.5884
605.40 0.5881
605.50 0.5877
605.60 0.5874
605.70 0.5871
605.80 0.5868
605.90 0.5865
606.00 0.5862
606.10 0.5859
606.20 0.5855
606.30 0.5852
606.40 0.5849
606.50 0.5846
606.60 0.5843
606.70 0.584
606.80 0.5837
606.90 0.5833
607.00 0.583
607.10 0.5827
607.20 0.5824
607.30 0.5821
607.40 0.5818
607.50 0.5815
607.60 0.5811
607.70 0.5808
607.80 0.5805
607.90 0.5802
608.00 0.5799
608.10 0.5796
608.20 0.5793
608.30 0.579
608.40 0.5786
608.50 0.5783
608.60 0.578
608.70 0.5777
608.80 0.5774
608.90 0.5771
609.00 0.5768
609.10 0.5765
609.20 0.5761
609.30 0.5758
609.40 0.5755
609.50 0.5752
609.60 0.5749
609.70 0.5746
609.80 0.5743
609.90 0.574
610.00 0.5737
610.10 0.5734
610.20 0.573
610.30 0.5727
610.40 0.5724
610.50 0.5721
610.60 0.5718
610.70 0.5715
610.80 0.5712
610.90 0.5709
611.00 0.5706
611.10 0.5703
611.20 0.5699
611.30 0.5696
611.40 0.5693
611.50 0.569
611.60 0.5687
611.70 0.5684
611.80 0.5681
611.90 0.5678
612.00 0.5675
612.10 0.5672
612.20 0.5669
612.30 0.5666
612.40 0.5662
612.50 0.5659
612.60 0.5656
612.70 0.5653
612.80 0.565
612.90 0.5647
613.00 0.5644
613.10 0.5641
613.20 0.5638
613.30 0.5635
613.40 0.5632
613.50 0.5629
613.60 0.5626
613.70 0.5623
613.80 0.5619
613.90 0.5616
614.00 0.5613
614.10 0.561
614.20 0.5607
614.30 0.5604
614.40 0.5601
614.50 0.5598
614.60 0.5595
614.70 0.5592
614.80 0.5589
614.90 0.5586
615.00 0.5583
615.10 0.558
615.20 0.5577
615.30 0.5574
615.40 0.557
615.50 0.5567
615.60 0.5564
615.70 0.5561
615.80 0.5558
615.90 0.5555
616.00 0.5552
616.10 0.5549
616.20 0.5546
616.30 0.5543
616.40 0.554
616.50 0.5537
616.60 0.5534
616.70 0.5531
616.80 0.5528
616.90 0.5525
617.00 0.5522
617.10 0.5519
617.20 0.5516
617.30 0.5512
617.40 0.5509
617.50 0.5506
617.60 0.5503
617.70 0.55
617.80 0.5497
617.90 0.5494
618.00 0.5491
618.10 0.5488
618.20 0.5485
618.30 0.5482
618.40 0.5479
618.50 0.5476
618.60 0.5473
618.70 0.547
618.80 0.5467
618.90 0.5464
619.00 0.5461
619.10 0.5457
619.20 0.5454
619.30 0.5451
619.40 0.5448
619.50 0.5445
619.60 0.5442
619.70 0.5439
619.80 0.5436
619.90 0.5433
620.00 0.543
620.10 0.5427
620.20 0.5424
620.30 0.5421
620.40 0.5418
620.50 0.5415
620.60 0.5412
620.70 0.5409
620.80 0.5406
620.90 0.5402
621.00 0.5399
621.10 0.5396
621.20 0.5393
621.30 0.539
621.40 0.5387
621.50 0.5384
621.60 0.5381
621.70 0.5378
621.80 0.5375
621.90 0.5372
622.00 0.5369
622.10 0.5366
622.20 0.5363
622.30 0.536
622.40 0.5356
622.50 0.5353
622.60 0.535
622.70 0.5347
622.80 0.5344
622.90 0.5341
623.00 0.5338
623.10 0.5335
623.20 0.5332
623.30 0.5329
623.40 0.5326
623.50 0.5323
623.60 0.532
623.70 0.5316
623.80 0.5313
623.90 0.531
624.00 0.5307
624.10 0.5304
624.20 0.5301
624.30 0.5298
624.40 0.5295
624.50 0.5292
624.60 0.5289
624.70 0.5286
624.80 0.5282
624.90 0.5279
625.00 0.5276
625.10 0.5273
625.20 0.527
625.30 0.5267
625.40 0.5264
625.50 0.5261
625.60 0.5258
625.70 0.5254
625.80 0.5251
625.90 0.5248
626.00 0.5245
626.10 0.5242
626.20 0.5239
626.30 0.5236
626.40 0.5233
626.50 0.5229
626.60 0.5226
626.70 0.5223
626.80 0.522
626.90 0.5217
627.00 0.5214
627.10 0.5211
627.20 0.5207
627.30 0.5204
627.40 0.5201
627.50 0.5198
627.60 0.5195
627.70 0.5192
627.80 0.5188
627.90 0.5185
628.00 0.5182
628.10 0.5179
628.20 0.5176
628.30 0.5173
628.40 0.5169
628.50 0.5166
628.60 0.5163
628.70 0.516
628.80 0.5157
628.90 0.5153
629.00 0.515
629.10 0.5147
629.20 0.5144
629.30 0.514
629.40 0.5137
629.50 0.5134
629.60 0.5131
629.70 0.5127
629.80 0.5124
629.90 0.5121
630.00 0.5118
630.10 0.5115
630.20 0.5111
630.30 0.5108
630.40 0.5105
630.50 0.5101
630.60 0.5098
630.70 0.5095
630.80 0.5091
630.90 0.5088
631.00 0.5085
631.10 0.5082
631.20 0.5078
631.30 0.5075
631.40 0.5071
631.50 0.5068
631.60 0.5065
631.70 0.5061
631.80 0.5058
631.90 0.5055
632.00 0.5051
632.10 0.5048
632.20 0.5044
632.30 0.5041
632.40 0.5038
632.50 0.5034
632.60 0.5031
632.70 0.5027
632.80 0.5024
632.90 0.502
633.00 0.5017
633.10 0.5013
633.20 0.501
633.30 0.5006
633.40 0.5003
633.50 0.4999
633.60 0.4996
633.70 0.4992
633.80 0.4989
633.90 0.4985
634.00 0.4982
634.10 0.4978
634.20 0.4974
634.30 0.4971
634.40 0.4967
634.50 0.4964
634.60 0.496
634.70 0.4956
634.80 0.4953
634.90 0.4949
635.00 0.4945
635.10 0.4942
635.20 0.4938
635.30 0.4934
635.40 0.493
635.50 0.4927
635.60 0.4923
635.70 0.4919
635.80 0.4915
635.90 0.4911
636.00 0.4908
636.10 0.4904
636.20 0.49
636.30 0.4896
636.40 0.4892
636.50 0.4888
636.60 0.4884
636.70 0.488
636.80 0.4876
636.90 0.4872
637.00 0.4868
637.10 0.4864
637.20 0.486
637.30 0.4857
637.40 0.4852
637.50 0.4848
637.60 0.4844
637.70 0.484
637.80 0.4836
637.90 0.4832
638.00 0.4827
638.10 0.4823
638.20 0.4819
638.30 0.4815
638.40 0.4811
638.50 0.4806
638.60 0.4802
638.70 0.4798
638.80 0.4793
638.90 0.4789
639.00 0.4784
639.10 0.478
639.20 0.4776
639.30 0.4771
639.40 0.4767
639.50 0.4762
639.60 0.4757
639.70 0.4753
639.80 0.4748
639.90 0.4744
640.00 0.4739
640.10 0.4734
640.20 0.473
640.30 0.4725
640.40 0.472
640.50 0.4715
640.60 0.471
640.70 0.4705
640.80 0.4701
640.90 0.4696
641.00 0.4691
641.10 0.4686
641.20 0.4681
641.30 0.4676
641.40 0.4671
641.50 0.4665
641.60 0.466
641.70 0.4655
641.80 0.465
641.90 0.4644
642.00 0.4639
642.10 0.4634
642.20 0.4629
642.30 0.4623
642.40 0.4618
642.50 0.4612
642.60 0.4606
642.70 0.4601
642.80 0.4595
642.90 0.4589
643.00 0.4583
643.10 0.4578
643.20 0.4572
643.30 0.4566
643.40 0.456
643.50 0.4554
643.60 0.4548
643.70 0.4542
643.80 0.4535
643.90 0.4529
644.00 0.4523
644.10 0.4517
644.20 0.4511
644.30 0.4504
644.40 0.4497
644.50 0.4491
644.60 0.4484
644.70 0.4477
644.80 0.447
644.90 0.4463
645.00 0.4457
645.10 0.445
645.20 0.4443
645.30 0.4436
645.40 0.4429
645.50 0.4421
645.60 0.4413
645.70 0.4406
645.80 0.4398
645.90 0.4391
646.00 0.4383
646.10 0.4376
646.20 0.4368
646.30 0.4361
646.40 0.4352
646.50 0.4344
646.60 0.4335
646.70 0.4327
646.80 0.4318
646.90 0.431
647.00 0.4302
647.10 0.4293
647.20 0.4285
647.30 0.4276
647.40 0.4267
647.50 0.4257
647.60 0.4247
647.70 0.4238
647.80 0.4228
647.90 0.4218
648.00 0.4209
648.10 0.4199
648.20 0.419
648.30 0.418
648.40 0.4168
648.50 0.4157
648.60 0.4146
648.70 0.4135
648.80 0.4124
648.90 0.4112
649.00 0.4101
649.10 0.409
649.20 0.4079
649.30 0.4067
649.40 0.4054
649.50 0.4041
649.60 0.4028
649.70 0.4015
649.80 0.4002
649.90 0.3989
650.00 0.3976
650.10 0.3963
650.20 0.395
650.30 0.3937
650.40 0.3921
650.50 0.3906
650.60 0.3891
650.70 0.3875
650.80 0.386
650.90 0.3845
651.00 0.383
651.10 0.3814
651.20 0.3799
651.30 0.3783
651.40 0.3765
651.50 0.3747
651.60 0.3728
651.70 0.371
651.80 0.3692
651.90 0.3674
652.00 0.3656
652.10 0.3638
652.20 0.3619
652.30 0.36
652.40 0.3578
652.50 0.3557
652.60 0.3535
652.70 0.3513
652.80 0.3491
652.90 0.3469
653.00 0.3447
653.10 0.3425
653.20 0.3403
653.30 0.338
653.40 0.3353
653.50 0.3326
653.60 0.3299
653.70 0.3272
653.80 0.3245
653.90 0.3218
654.00 0.3191
654.10 0.3164
654.20 0.3137
654.30 0.3109
654.40 0.3079
654.50 0.3048
654.60 0.3018
654.70 0.2987
654.80 0.2957
654.90 0.2924
655.00 0.2892
655.10 0.286
655.20 0.2828
655.30 0.2795
655.40 0.2761
655.50 0.2726
655.60 0.2688
655.70 0.2648
655.80 0.26
655.90 0.2545
656.00 0.2462
656.10 0.2369
656.20 0.2131
656.30 0.1958
656.40 0.2252
656.50 0.2405
656.60 0.2487
656.70 0.2562
656.80 0.2608
656.90 0.2652
657.00 0.2688
657.10 0.2723
657.20 0.2755
657.30 0.2786
657.40 0.2816
657.50 0.2846
657.60 0.2875
657.70 0.2905
657.80 0.2934
657.90 0.2962
658.00 0.2989
658.10 0.3017
658.20 0.3044
658.30 0.3071
658.40 0.3095
658.50 0.3119
658.60 0.3143
658.70 0.3167
658.80 0.3191
658.90 0.3215
659.00 0.3238
659.10 0.3262
659.20 0.3286
659.30 0.3309
659.40 0.3327
659.50 0.3345
659.60 0.3364
659.70 0.3382
659.80 0.3401
659.90 0.3419
660.00 0.3437
660.10 0.3455
660.20 0.3474
660.30 0.3491
660.40 0.3506
660.50 0.352
660.60 0.3534
660.70 0.3549
660.80 0.3563
660.90 0.3577
661.00 0.3592
661.10 0.3606
661.20 0.362
661.30 0.3634
661.40 0.3645
661.50 0.3656
661.60 0.3668
661.70 0.3679
661.80 0.369
661.90 0.3701
662.00 0.3712
662.10 0.3723
662.20 0.3735
662.30 0.3745
662.40 0.3754
662.50 0.3763
662.60 0.3772
662.70 0.378
662.80 0.3789
662.90 0.3798
663.00 0.3807
663.10 0.3815
663.20 0.3824
663.30 0.3832
663.40 0.3839
663.50 0.3846
663.60 0.3853
663.70 0.386
663.80 0.3866
663.90 0.3873
664.00 0.388
664.10 0.3887
664.20 0.3893
664.30 0.39
664.40 0.3905
664.50 0.391
664.60 0.3915
664.70 0.392
664.80 0.3925
664.90 0.3931
665.00 0.3936
665.10 0.3941
665.20 0.3946
665.30 0.3951
665.40 0.3955
665.50 0.3958
665.60 0.3962
665.70 0.3966
665.80 0.397
665.90 0.3974
666.00 0.3978
666.10 0.3982
666.20 0.3985
666.30 0.3989
666.40 0.3992
666.50 0.3995
666.60 0.3998
666.70 0.4001
666.80 0.4004
666.90 0.4007
667.00 0.4009
667.10 0.4012
667.20 0.4015
667.30 0.4018
667.40 0.402
667.50 0.4022
667.60 0.4024
667.70 0.4026
667.80 0.4029
667.90 0.4031
668.00 0.4033
668.10 0.4035
668.20 0.4037
668.30 0.4039
668.40 0.4041
668.50 0.4042
668.60 0.4044
668.70 0.4045
668.80 0.4047
668.90 0.4048
669.00 0.405
669.10 0.4051
669.20 0.4052
669.30 0.4054
669.40 0.4055
669.50 0.4056
669.60 0.4057
669.70 0.4058
669.80 0.4059
669.90 0.406
670.00 0.4061
670.10 0.4062
670.20 0.4062
670.30 0.4063
670.40 0.4064
670.50 0.4064
670.60 0.4065
670.70 0.4065
670.80 0.4066
670.90 0.4066
671.00 0.4067
671.10 0.4067
671.20 0.4068
671.30 0.4068
671.40 0.4069
671.50 0.4069
671.60 0.4069
671.70 0.4069
671.80 0.4069
671.90 0.4069
672.00 0.4069
672.10 0.407
672.20 0.407
672.30 0.407
672.40 0.407
672.50 0.407
672.60 0.4069
672.70 0.4069
672.80 0.4069
672.90 0.4069
673.00 0.4069
673.10 0.4069
673.20 0.4069
673.30 0.4068
673.40 0.4068
673.50 0.4068
673.60 0.4067
673.70 0.4067
673.80 0.4066
673.90 0.4066
674.00 0.4066
674.10 0.4065
674.20 0.4065
674.30 0.4064
674.40 0.4064
674.50 0.4063
674.60 0.4063
674.70 0.4062
674.80 0.4061
674.90 0.4061
675.00 0.406
675.10 0.406
675.20 0.4059
675.30 0.4058
675.40 0.4058
675.50 0.4057
675.60 0.4056
675.70 0.4055
675.80 0.4054
675.90 0.4054
676.00 0.4053
676.10 0.4052
676.20 0.4051
676.30 0.405
676.40 0.4049
676.50 0.4048
676.60 0.4048
676.70 0.4047
676.80 0.4046
676.90 0.4045
677.00 0.4044
677.10 0.4043
677.20 0.4042
677.30 0.4041
677.40 0.404
677.50 0.4039
677.60 0.4038
677.70 0.4037
677.80 0.4036
677.90 0.4035
678.00 0.4033
678.10 0.4032
678.20 0.4031
678.30 0.403
678.40 0.4029
678.50 0.4028
678.60 0.4027
678.70 0.4026
678.80 0.4024
678.90 0.4023
679.00 0.4022
679.10 0.4021
679.20 0.402
679.30 0.4018
679.40 0.4017
679.50 0.4016
679.60 0.4015
679.70 0.4013
679.80 0.4012
679.90 0.4011
680.00 0.401
680.10 0.4008
680.20 0.4007
680.30 0.4006
680.40 0.4004
680.50 0.4003
680.60 0.4002
680.70 0.4
680.80 0.3999
680.90 0.3998
681.00 0.3996
681.10 0.3995
681.20 0.3994
681.30 0.3992
681.40 0.3991
681.50 0.399
681.60 0.3988
681.70 0.3987
681.80 0.3985
681.90 0.3984
682.00 0.3983
682.10 0.3981
682.20 0.398
682.30 0.3978
682.40 0.3977
682.50 0.3976
682.60 0.3974
682.70 0.3973
682.80 0.3971
682.90 0.397
683.00 0.3968
683.10 0.3967
683.20 0.3965
683.30 0.3964
683.40 0.3962
683.50 0.3961
683.60 0.3959
683.70 0.3958
683.80 0.3957
683.90 0.3955
684.00 0.3954
684.10 0.3952
684.20 0.3951
684.30 0.3949
684.40 0.3948
684.50 0.3946
684.60 0.3944
684.70 0.3943
684.80 0.3941
684.90 0.394
685.00 0.3938
685.10 0.3937
685.20 0.3935
685.30 0.3934
685.40 0.3932
685.50 0.3931
685.60 0.3929
685.70 0.3928
685.80 0.3926
685.90 0.3925
686.00 0.3923
686.10 0.3921
686.20 0.392
686.30 0.3918
686.40 0.3917
686.50 0.3915
686.60 0.3914
686.70 0.3912
686.80 0.391
686.90 0.3909
687.00 0.3907
687.10 0.3906
687.20 0.3904
687.30 0.3903
687.40 0.3901
687.50 0.3899
687.60 0.3898
687.70 0.3896
687.80 0.3895
687.90 0.3893
688.00 0.3891
688.10 0.389
688.20 0.3888
688.30 0.3887
688.40 0.3885
688.50 0.3883
688.60 0.3882
688.70 0.388
688.80 0.3879
688.90 0.3877
689.00 0.3875
689.10 0.3874
689.20 0.3872
689.30 0.3871
689.40 0.3869
689.50 0.3867
689.60 0.3866
689.70 0.3864
689.80 0.3862
689.90 0.386
690.00 0.3859
690.10 0.3857
690.20 0.3855
690.30 0.3854
690.40 0.3852
690.50 0.385
690.60 0.3849
690.70 0.3847
690.80 0.3845
690.90 0.3844
691.00 0.3842
691.10 0.384
691.20 0.3839
691.30 0.3837
691.40 0.3835
691.50 0.3834
691.60 0.3832
691.70 0.383
691.80 0.3829
691.90 0.3827
692.00 0.3825
692.10 0.3824
692.20 0.3822
692.30 0.382
692.40 0.3819
692.50 0.3817
692.60 0.3815
692.70 0.3814
692.80 0.3812
692.90 0.381
693.00 0.3809
693.10 0.3807
693.20 0.3805
693.30 0.3804
693.40 0.3802
693.50 0.38
693.60 0.3799
693.70 0.3797
693.80 0.3795
693.90 0.3794
694.00 0.3792
694.10 0.3791
694.20 0.3789
694.30 0.3787
694.40 0.3786
694.50 0.3784
694.60 0.3782
694.70 0.3781
694.80 0.3779
694.90 0.3777
695.00 0.3776
695.10 0.3774
695.20 0.3772
695.30 0.3771
695.40 0.3769
695.50 0.3768
695.60 0.3766
695.70 0.3764
695.80 0.3763
695.90 0.3761
696.00 0.3759
696.10 0.3758
696.20 0.3756
696.30 0.3754
696.40 0.3753
696.50 0.3751
696.60 0.375
696.70 0.3748
696.80 0.3746
696.90 0.3745
697.00 0.3743
697.10 0.3741
697.20 0.374
697.30 0.3738
697.40 0.3737
697.50 0.3735
697.60 0.3733
697.70 0.3732
697.80 0.373
697.90 0.3728
698.00 0.3727
698.10 0.3725
698.20 0.3724
698.30 0.3722
698.40 0.372
698.50 0.3719
698.60 0.3717
698.70 0.3716
698.80 0.3714
698.90 0.3712
699.00 0.3711
699.10 0.3709
699.20 0.3708
699.30 0.3706
699.40 0.3704
699.50 0.3703
699.60 0.3701
699.70 0.3699
699.80 0.3698
699.90 0.3696
700.00 0.3695
700.10 0.3693
700.20 0.3692
700.30 0.369
700.40 0.3688
700.50 0.3687
700.60 0.3685
700.70 0.3684
700.80 0.3682
700.90 0.3681
701.00 0.3679
701.10 0.3677
701.20 0.3676
701.30 0.3674
701.40 0.3673
701.50 0.3671
701.60 0.367
701.70 0.3668
701.80 0.3666
701.90 0.3665
702.00 0.3663
702.10 0.3662
702.20 0.366
702.30 0.3659
702.40 0.3657
702.50 0.3656
702.60 0.3654
702.70 0.3652
702.80 0.3651
702.90 0.3649
703.00 0.3648
703.10 0.3646
703.20 0.3645
703.30 0.3643
703.40 0.3642
703.50 0.364
703.60 0.3638
703.70 0.3637
703.80 0.3635
703.90 0.3634
704.00 0.3632
704.10 0.3631
704.20 0.3629
704.30 0.3628
704.40 0.3626
704.50 0.3625
704.60 0.3623
704.70 0.3621
704.80 0.362
704.90 0.3618
705.00 0.3617
705.10 0.3615
705.20 0.3614
705.30 0.3612
705.40 0.361
705.50 0.3609
705.60 0.3607
705.70 0.3605
705.80 0.3604
705.90 0.3602
706.00 0.3601
706.10 0.3599
706.20 0.3597
706.30 0.3596
706.40 0.3594
706.50 0.3592
706.60 0.3591
706.70 0.3589
706.80 0.3588
706.90 0.3586
707.00 0.3584
707.10 0.3583
707.20 0.3581
707.30 0.358
707.40 0.3578
707.50 0.3576
707.60 0.3575
707.70 0.3573
707.80 0.3571
707.90 0.357
708.00 0.3568
708.10 0.3567
708.20 0.3565
708.30 0.3563
708.40 0.3562
708.50 0.356
708.60 0.3559
708.70 0.3557
708.80 0.3555
708.90 0.3554
709.00 0.3552
709.10 0.3551
709.20 0.3549
709.30 0.3547
709.40 0.3546
709.50 0.3544
709.60 0.3543
709.70 0.3541
709.80 0.3539
709.90 0.3538
710.00 0.3536
710.10 0.3535
710.20 0.3533
710.30 0.3531
710.40 0.353
710.50 0.3528
710.60 0.3527
710.70 0.3525
710.80 0.3523
710.90 0.3522
711.00 0.352
711.10 0.3519
711.20 0.3517
711.30 0.3515
711.40 0.3514
711.50 0.3512
711.60 0.3511
711.70 0.3509
711.80 0.3507
711.90 0.3506
712.00 0.3504
712.10 0.3503
712.20 0.3501
712.30 0.35
712.40 0.3498
712.50 0.3496
712.60 0.3495
712.70 0.3493
712.80 0.3492
712.90 0.349
713.00 0.3488
713.10 0.3487
713.20 0.3485
713.30 0.3484
713.40 0.3482
713.50 0.3481
713.60 0.3479
713.70 0.3477
713.80 0.3476
713.90 0.3474
714.00 0.3473
714.10 0.3471
714.20 0.347
714.30 0.3468
714.40 0.3466
714.50 0.3465
714.60 0.3463
714.70 0.3462
714.80 0.346
714.90 0.3459
715.00 0.3457
715.10 0.3456
715.20 0.3454
715.30 0.3453
715.40 0.3451
715.50 0.345
715.60 0.3448
715.70 0.3447
715.80 0.3445
715.90 0.3444
716.00 0.3442
716.10 0.3441
716.20 0.3439
716.30 0.3438
716.40 0.3436
716.50 0.3435
716.60 0.3433
716.70 0.3432
716.80 0.3431
716.90 0.3429
717.00 0.3428
717.10 0.3426
717.20 0.3425
717.30 0.3423
717.40 0.3422
717.50 0.342
717.60 0.3419
717.70 0.3417
717.80 0.3416
717.90 0.3414
718.00 0.3413
718.10 0.3411
718.20 0.341
718.30 0.3409
718.40 0.3407
718.50 0.3406
718.60 0.3404
718.70 0.3403
718.80 0.3401
718.90 0.34
719.00 0.3398
719.10 0.3397
719.20 0.3395
719.30 0.3394
719.40 0.3393
719.50 0.3391
719.60 0.339
719.70 0.3388
719.80 0.3387
719.90 0.3385
720.00 0.3384
720.10 0.3382
720.20 0.3381
720.30 0.3379
720.40 0.3378
720.50 0.3376
720.60 0.3375
720.70 0.3373
720.80 0.3372
720.90 0.337
721.00 0.3368
721.10 0.3367
721.20 0.3365
721.30 0.3364
721.40 0.3362
721.50 0.3361
721.60 0.3359
721.70 0.3358
721.80 0.3356
721.90 0.3355
722.00 0.3353
722.10 0.3352
722.20 0.335
722.30 0.3349
722.40 0.3347
722.50 0.3345
722.60 0.3344
722.70 0.3342
722.80 0.3341
722.90 0.3339
723.00 0.3338
723.10 0.3336
723.20 0.3335
723.30 0.3333
723.40 0.3332
723.50 0.333
723.60 0.3329
723.70 0.3327
723.80 0.3326
723.90 0.3324
724.00 0.3323
724.10 0.3321
724.20 0.332
724.30 0.3318
724.40 0.3317
724.50 0.3315
724.60 0.3314
724.70 0.3312
724.80 0.3311
724.90 0.3309
725.00 0.3308
725.10 0.3306
725.20 0.3305
725.30 0.3303
725.40 0.3302
725.50 0.33
725.60 0.3299
725.70 0.3297
725.80 0.3296
725.90 0.3294
726.00 0.3293
726.10 0.3291
726.20 0.329
726.30 0.3288
726.40 0.3287
726.50 0.3285
726.60 0.3284
726.70 0.3282
726.80 0.3281
726.90 0.3279
727.00 0.3278
727.10 0.3276
727.20 0.3275
727.30 0.3273
727.40 0.3272
727.50 0.327
727.60 0.3269
727.70 0.3267
727.80 0.3266
727.90 0.3264
728.00 0.3263
728.10 0.3261
728.20 0.326
728.30 0.3258
728.40 0.3257
728.50 0.3256
728.60 0.3254
728.70 0.3253
728.80 0.3251
728.90 0.325
729.00 0.3248
729.10 0.3247
729.20 0.3245
729.30 0.3244
729.40 0.3242
729.50 0.3241
729.60 0.3239
729.70 0.3238
729.80 0.3236
729.90 0.3235
730.00 0.3233
730.10 0.3232
730.20 0.3231
730.30 0.3229
730.40 0.3228
730.50 0.3226
730.60 0.3225
730.70 0.3223
730.80 0.3222
730.90 0.322
731.00 0.3219
731.10 0.3218
731.20 0.3216
731.30 0.3215
731.40 0.3213
731.50 0.3212
731.60 0.321
731.70 0.3209
731.80 0.3207
731.90 0.3206
732.00 0.3205
732.10 0.3203
732.20 0.3202
732.30 0.32
732.40 0.3199
732.50 0.3197
732.60 0.3196
732.70 0.3194
732.80 0.3193
732.90 0.3192
733.00 0.319
733.10 0.3189
733.20 0.3187
733.30 0.3186
733.40 0.3184
733.50 0.3183
733.60 0.3182
733.70 0.318
733.80 0.3179
733.90 0.3177
734.00 0.3176
734.10 0.3174
734.20 0.3173
734.30 0.3172
734.40 0.317
734.50 0.3169
734.60 0.3167
734.70 0.3166
734.80 0.3164
734.90 0.3163
735.00 0.3162
735.10 0.316
735.20 0.3159
735.30 0.3157
735.40 0.3156
735.50 0.3154
735.60 0.3153
735.70 0.3152
735.80 0.315
735.90 0.3149
736.00 0.3147
736.10 0.3146
736.20 0.3145
736.30 0.3143
736.40 0.3142
736.50 0.314
736.60 0.3139
736.70 0.3137
736.80 0.3136
736.90 0.3135
737.00 0.3133
737.10 0.3132
737.20 0.313
737.30 0.3129
737.40 0.3128
737.50 0.3126
737.60 0.3125
737.70 0.3123
737.80 0.3122
737.90 0.3121
738.00 0.3119
738.10 0.3118
738.20 0.3116
738.30 0.3115
738.40 0.3114
738.50 0.3112
738.60 0.3111
738.70 0.3109
738.80 0.3108
738.90 0.3107
739.00 0.3105
739.10 0.3104
739.20 0.3102
739.30 0.3101
739.40 0.31
739.50 0.3098
739.60 0.3097
739.70 0.3095
739.80 0.3094
739.90 0.3093
740.00 0.3091
740.10 0.309
740.20 0.3089
740.30 0.3087
740.40 0.3086
740.50 0.3084
740.60 0.3083
740.70 0.3082
740.80 0.308
740.90 0.3079
741.00 0.3078
741.10 0.3076
741.20 0.3075
741.30 0.3073
741.40 0.3072
741.50 0.3071
741.60 0.3069
741.70 0.3068
741.80 0.3067
741.90 0.3065
742.00 0.3064
742.10 0.3063
742.20 0.3061
742.30 0.306
742.40 0.3058
742.50 0.3057
742.60 0.3056
742.70 0.3054
742.80 0.3053
742.90 0.3052
743.00 0.305
743.10 0.3049
743.20 0.3048
743.30 0.3046
743.40 0.3045
743.50 0.3044
743.60 0.3042
743.70 0.3041
743.80 0.3039
743.90 0.3038
744.00 0.3037
744.10 0.3035
744.20 0.3034
744.30 0.3033
744.40 0.3031
744.50 0.303
744.60 0.3029
744.70 0.3027
744.80 0.3026
744.90 0.3025
745.00 0.3023
745.10 0.3022
745.20 0.3021
745.30 0.3019
745.40 0.3018
745.50 0.3017
745.60 0.3015
745.70 0.3014
745.80 0.3013
745.90 0.3011
746.00 0.301
746.10 0.3009
746.20 0.3007
746.30 0.3006
746.40 0.3004
746.50 0.3003
746.60 0.3002
746.70 0.3
746.80 0.2999
746.90 0.2998
747.00 0.2996
747.10 0.2995
747.20 0.2994
747.30 0.2992
747.40 0.2991
747.50 0.299
747.60 0.2988
747.70 0.2987
747.80 0.2986
747.90 0.2985
748.00 0.2983
748.10 0.2982
748.20 0.2981
748.30 0.2979
748.40 0.2978
748.50 0.2977
748.60 0.2975
748.70 0.2974
748.80 0.2973
748.90 0.2971
749.00 0.297
749.10 0.2969
749.20 0.2967
749.30 0.2966
749.40 0.2965
749.50 0.2963
749.60 0.2962
749.70 0.2961
749.80 0.2959
749.90 0.2958
750.00 0.2957
750.10 0.2955
750.20 0.2954
750.30 0.2953
750.40 0.2952
750.50 0.295
750.60 0.2949
750.70 0.2948
750.80 0.2946
750.90 0.2945
751.00 0.2944
751.10 0.2942
751.20 0.2941
751.30 0.294
751.40 0.2939
751.50 0.2937
751.60 0.2936
751.70 0.2935
751.80 0.2933
751.90 0.2932
752.00 0.2931
752.10 0.293
752.20 0.2928
752.30 0.2927
752.40 0.2926
752.50 0.2924
752.60 0.2923
752.70 0.2922
752.80 0.2921
752.90 0.2919
753.00 0.2918
753.10 0.2917
753.20 0.2915
753.30 0.2914
753.40 0.2913
753.50 0.2912
753.60 0.291
753.70 0.2909
753.80 0.2908
753.90 0.2906
754.00 0.2905
754.10 0.2904
754.20 0.2903
754.30 0.2901
754.40 0.29
754.50 0.2899
754.60 0.2897
754.70 0.2896
754.80 0.2895
754.90 0.2894
755.00 0.2892
755.10 0.2891
755.20 0.289
755.30 0.2889
755.40 0.2887
755.50 0.2886
755.60 0.2885
755.70 0.2883
755.80 0.2882
755.90 0.2881
756.00 0.288
756.10 0.2878
756.20 0.2877
756.30 0.2876
756.40 0.2875
756.50 0.2873
756.60 0.2872
756.70 0.2871
756.80 0.287
756.90 0.2868
757.00 0.2867
757.10 0.2866
757.20 0.2864
757.30 0.2863
757.40 0.2862
757.50 0.2861
757.60 0.2859
757.70 0.2858
757.80 0.2857
757.90 0.2856
758.00 0.2854
758.10 0.2853
758.20 0.2852
758.30 0.2851
758.40 0.2849
758.50 0.2848
758.60 0.2847
758.70 0.2846
758.80 0.2844
758.90 0.2843
759.00 0.2842
759.10 0.2841
759.20 0.2839
759.30 0.2838
759.40 0.2837
759.50 0.2836
759.60 0.2834
759.70 0.2833
759.80 0.2832
759.90 0.2831
760.00 0.2829
760.10 0.2828
760.20 0.2827
760.30 0.2826
760.40 0.2824
760.50 0.2823
760.60 0.2822
760.70 0.2821
760.80 0.282
760.90 0.2818
761.00 0.2817
761.10 0.2816
761.20 0.2815
761.30 0.2813
761.40 0.2812
761.50 0.2811
761.60 0.281
761.70 0.2808
761.80 0.2807
761.90 0.2806
762.00 0.2805
762.10 0.2804
762.20 0.2802
762.30 0.2801
762.40 0.28
762.50 0.2799
762.60 0.2797
762.70 0.2796
762.80 0.2795
762.90 0.2794
763.00 0.2793
763.10 0.2791
763.20 0.279
763.30 0.2789
763.40 0.2788
763.50 0.2787
763.60 0.2785
763.70 0.2784
763.80 0.2783
763.90 0.2782
764.00 0.278
764.10 0.2779
764.20 0.2778
764.30 0.2777
764.40 0.2776
764.50 0.2774
764.60 0.2773
764.70 0.2772
764.80 0.2771
764.90 0.277
765.00 0.2768
765.10 0.2767
765.20 0.2766
765.30 0.2765
765.40 0.2764
765.50 0.2762
765.60 0.2761
765.70 0.276
765.80 0.2759
765.90 0.2758
766.00 0.2756
766.10 0.2755
766.20 0.2754
766.30 0.2753
766.40 0.2752
766.50 0.275
766.60 0.2749
766.70 0.2748
766.80 0.2747
766.90 0.2746
767.00 0.2744
767.10 0.2743
767.20 0.2742
767.30 0.2741
767.40 0.274
767.50 0.2738
767.60 0.2737
767.70 0.2736
767.80 0.2735
767.90 0.2734
768.00 0.2732
768.10 0.2731
768.20 0.273
768.30 0.2729
768.40 0.2728
768.50 0.2726
768.60 0.2725
768.70 0.2724
768.80 0.2723
768.90 0.2722
769.00 0.2721
769.10 0.2719
769.20 0.2718
769.30 0.2717
769.40 0.2716
769.50 0.2715
769.60 0.2713
769.70 0.2712
769.80 0.2711
769.90 0.271
770.00 0.2709
770.10 0.2708
770.20 0.2706
770.30 0.2705
770.40 0.2704
770.50 0.2703
770.60 0.2702
770.70 0.2701
770.80 0.2699
770.90 0.2698
771.00 0.2697
771.10 0.2696
771.20 0.2695
771.30 0.2694
771.40 0.2692
771.50 0.2691
771.60 0.269
771.70 0.2689
771.80 0.2688
771.90 0.2687
772.00 0.2685
772.10 0.2684
772.20 0.2683
772.30 0.2682
772.40 0.2681
772.50 0.268
772.60 0.2679
772.70 0.2677
772.80 0.2676
772.90 0.2675
773.00 0.2674
773.10 0.2673
773.20 0.2672
773.30 0.267
773.40 0.2669
773.50 0.2668
773.60 0.2667
773.70 0.2666
773.80 0.2665
773.90 0.2664
774.00 0.2662
774.10 0.2661
774.20 0.266
774.30 0.2659
774.40 0.2658
774.50 0.2657
774.60 0.2655
774.70 0.2654
774.80 0.2653
774.90 0.2652
775.00 0.2651
775.10 0.265
775.20 0.2649
775.30 0.2647
775.40 0.2646
775.50 0.2645
775.60 0.2644
775.70 0.2643
775.80 0.2642
775.90 0.2641
776.00 0.264
776.10 0.2638
776.20 0.2637
776.30 0.2636
776.40 0.2635
776.50 0.2634
776.60 0.2633
776.70 0.2632
776.80 0.263
776.90 0.2629
777.00 0.2628
777.10 0.2627
777.20 0.2626
777.30 0.2625
777.40 0.2624
777.50 0.2622
777.60 0.2621
777.70 0.262
777.80 0.2619
777.90 0.2618
778.00 0.2617
778.10 0.2616
778.20 0.2615
778.30 0.2613
778.40 0.2612
778.50 0.2611
778.60 0.261
778.70 0.2609
778.80 0.2608
778.90 0.2607
779.00 0.2606
779.10 0.2604
779.20 0.2603
779.30 0.2602
779.40 0.2601
779.50 0.26
779.60 0.2599
779.70 0.2598
779.80 0.2597
779.90 0.2595
780.00 0.2594
780.10 0.2593
780.20 0.2592
780.30 0.2591
780.40 0.259
780.50 0.2589
780.60 0.2588
780.70 0.2587
780.80 0.2586
780.90 0.2584
781.00 0.2583
781.10 0.2582
781.20 0.2581
781.30 0.258
781.40 0.2579
781.50 0.2578
781.60 0.2577
781.70 0.2576
781.80 0.2574
781.90 0.2573
782.00 0.2572
782.10 0.2571
782.20 0.257
782.30 0.2569
782.40 0.2568
782.50 0.2567
782.60 0.2566
782.70 0.2565
782.80 0.2564
782.90 0.2562
783.00 0.2561
783.10 0.256
783.20 0.2559
783.30 0.2558
783.40 0.2557
783.50 0.2556
783.60 0.2555
783.70 0.2554
783.80 0.2553
783.90 0.2552
784.00 0.255
784.10 0.2549
784.20 0.2548
784.30 0.2547
784.40 0.2546
784.50 0.2545
784.60 0.2544
784.70 0.2543
784.80 0.2542
784.90 0.2541
785.00 0.254
785.10 0.2538
785.20 0.2537
785.30 0.2536
785.40 0.2535
785.50 0.2534
785.60 0.2533
785.70 0.2532
785.80 0.2531
785.90 0.253
786.00 0.2529
786.10 0.2528
786.20 0.2527
786.30 0.2526
786.40 0.2524
786.50 0.2523
786.60 0.2522
786.70 0.2521
786.80 0.252
786.90 0.2519
787.00 0.2518
787.10 0.2517
787.20 0.2516
787.30 0.2515
787.40 0.2514
787.50 0.2513
787.60 0.2512
787.70 0.251
787.80 0.2509
787.90 0.2508
788.00 0.2507
788.10 0.2506
788.20 0.2505
788.30 0.2504
788.40 0.2503
788.50 0.2502
788.60 0.2501
788.70 0.25
788.80 0.2499
788.90 0.2498
789.00 0.2497
789.10 0.2496
789.20 0.2494
789.30 0.2493
789.40 0.2492
789.50 0.2491
789.60 0.249
789.70 0.2489
789.80 0.2488
789.90 0.2487
790.00 0.2486
790.10 0.2485
790.20 0.2484
790.30 0.2483
790.40 0.2482
790.50 0.2481
790.60 0.248
790.70 0.2479
790.80 0.2478
790.90 0.2476
791.00 0.2475
791.10 0.2474
791.20 0.2473
791.30 0.2472
791.40 0.2471
791.50 0.247
791.60 0.2469
791.70 0.2468
791.80 0.2467
791.90 0.2466
792.00 0.2465
792.10 0.2464
792.20 0.2463
792.30 0.2462
792.40 0.2461
792.50 0.246
792.60 0.2459
792.70 0.2458
792.80 0.2457
792.90 0.2456
793.00 0.2455
793.10 0.2454
793.20 0.2453
793.30 0.2451
793.40 0.245
793.50 0.2449
793.60 0.2448
793.70 0.2447
793.80 0.2446
793.90 0.2445
794.00 0.2444
794.10 0.2443
794.20 0.2442
794.30 0.2441
794.40 0.244
794.50 0.2439
794.60 0.2438
794.70 0.2437
794.80 0.2436
794.90 0.2435
795.00 0.2434
795.10 0.2433
795.20 0.2432
795.30 0.2431
795.40 0.243
795.50 0.2429
795.60 0.2428
795.70 0.2427
795.80 0.2426
795.90 0.2425
796.00 0.2424
796.10 0.2423
796.20 0.2422
796.30 0.2421
796.40 0.242
796.50 0.2419
796.60 0.2418
796.70 0.2417
796.80 0.2415
796.90 0.2414
797.00 0.2413
797.10 0.2412
797.20 0.2411
797.30 0.241
797.40 0.2409
797.50 0.2408
797.60 0.2407
797.70 0.2406
797.80 0.2405
797.90 0.2404
798.00 0.2403
798.10 0.2402
798.20 0.2401
798.30 0.24
798.40 0.2399
798.50 0.2398
798.60 0.2397
798.70 0.2396
798.80 0.2395
798.90 0.2394
799.00 0.2393
799.10 0.2392
799.20 0.2391
799.30 0.239
799.40 0.2389
799.50 0.2388
799.60 0.2387
799.70 0.2386
799.80 0.2385
799.90 0.2384
800.00 0.2383
800.10 0.2382
800.20 0.2381
800.30 0.238
800.40 0.2379
800.50 0.2378
800.60 0.2377
800.70 0.2376
800.80 0.2375
800.90 0.2374
801.00 0.2373
801.10 0.2372
801.20 0.2371
801.30 0.237
801.40 0.2369
801.50 0.2368
801.60 0.2367
801.70 0.2366
801.80 0.2365
801.90 0.2364
802.00 0.2363
802.10 0.2362
802.20 0.2361
802.30 0.236
802.40 0.2359
802.50 0.2358
802.60 0.2357
802.70 0.2356
802.80 0.2355
802.90 0.2354
803.00 0.2353
803.10 0.2352
803.20 0.2351
803.30 0.235
803.40 0.2349
803.50 0.2348
803.60 0.2347
803.70 0.2346
803.80 0.2345
803.90 0.2344
804.00 0.2343
804.10 0.2343
804.20 0.2342
804.30 0.2341
804.40 0.234
804.50 0.2339
804.60 0.2338
804.70 0.2337
804.80 0.2336
804.90 0.2335
805.00 0.2334
805.10 0.2333
805.20 0.2332
805.30 0.2331
805.40 0.233
805.50 0.2329
805.60 0.2328
805.70 0.2327
805.80 0.2326
805.90 0.2325
806.00 0.2324
806.10 0.2323
806.20 0.2322
806.30 0.2321
806.40 0.232
806.50 0.2319
806.60 0.2318
806.70 0.2317
806.80 0.2316
806.90 0.2315
807.00 0.2314
807.10 0.2313
807.20 0.2312
807.30 0.2311
807.40 0.231
807.50 0.2309
807.60 0.2308
807.70 0.2308
807.80 0.2307
807.90 0.2306
808.00 0.2305
808.10 0.2304
808.20 0.2303
808.30 0.2302
808.40 0.2301
808.50 0.23
808.60 0.2299
808.70 0.2298
808.80 0.2297
808.90 0.2296
809.00 0.2295
809.10 0.2294
809.20 0.2293
809.30 0.2292
809.40 0.2291
809.50 0.229
809.60 0.2289
809.70 0.2288
809.80 0.2287
809.90 0.2286
810.00 0.2285
810.10 0.2284
810.20 0.2284
810.30 0.2283
810.40 0.2282
810.50 0.2281
810.60 0.228
810.70 0.2279
810.80 0.2278
810.90 0.2277
811.00 0.2276
811.10 0.2275
811.20 0.2274
811.30 0.2273
811.40 0.2272
811.50 0.2271
811.60 0.227
811.70 0.2269
811.80 0.2268
811.90 0.2267
812.00 0.2267
812.10 0.2266
812.20 0.2265
812.30 0.2264
812.40 0.2263
812.50 0.2262
812.60 0.2261
812.70 0.226
812.80 0.2259
812.90 0.2258
813.00 0.2257
813.10 0.2256
813.20 0.2255
813.30 0.2254
813.40 0.2253
813.50 0.2253
813.60 0.2252
813.70 0.2251
813.80 0.225
813.90 0.2249
814.00 0.2248
814.10 0.2247
814.20 0.2246
814.30 0.2245
814.40 0.2244
814.50 0.2243
814.60 0.2242
814.70 0.2241
814.80 0.224
814.90 0.2239
815.00 0.2239
815.10 0.2238
815.20 0.2237
815.30 0.2236
815.40 0.2235
815.50 0.2234
815.60 0.2233
815.70 0.2232
815.80 0.2231
815.90 0.223
816.00 0.2229
816.10 0.2228
816.20 0.2227
816.30 0.2227
816.40 0.2226
816.50 0.2225
816.60 0.2224
816.70 0.2223
816.80 0.2222
816.90 0.2221
817.00 0.222
817.10 0.2219
817.20 0.2218
817.30 0.2217
817.40 0.2216
817.50 0.2215
817.60 0.2215
817.70 0.2214
817.80 0.2213
817.90 0.2212
818.00 0.2211
818.10 0.221
818.20 0.2209
818.30 0.2208
818.40 0.2207
818.50 0.2206
818.60 0.2205
818.70 0.2205
818.80 0.2204
818.90 0.2203
819.00 0.2202
819.10 0.2201
819.20 0.22
819.30 0.2199
819.40 0.2198
819.50 0.2197
819.60 0.2196
819.70 0.2195
819.80 0.2194
819.90 0.2194
820.00 0.2193
820.10 0.2192
820.20 0.2191
820.30 0.219
820.40 0.2189
820.50 0.2188
820.60 0.2187
820.70 0.2187
820.80 0.2186
820.90 0.2185
821.00 0.2184
821.10 0.2183
821.20 0.2182
821.30 0.2181
821.40 0.218
821.50 0.2179
821.60 0.2178
821.70 0.2178
821.80 0.2177
821.90 0.2176
822.00 0.2175
822.10 0.2174
822.20 0.2173
822.30 0.2172
822.40 0.2171
822.50 0.217
822.60 0.2169
822.70 0.2169
822.80 0.2168
822.90 0.2167
823.00 0.2166
823.10 0.2165
823.20 0.2164
823.30 0.2163
823.40 0.2162
823.50 0.2161
823.60 0.2161
823.70 0.216
823.80 0.2159
823.90 0.2158
824.00 0.2157
824.10 0.2156
824.20 0.2155
824.30 0.2154
824.40 0.2154
824.50 0.2153
824.60 0.2152
824.70 0.2151
824.80 0.215
824.90 0.2149
825.00 0.2148
825.10 0.2147
825.20 0.2146
825.30 0.2146
825.40 0.2145
825.50 0.2144
825.60 0.2143
825.70 0.2142
825.80 0.2141
825.90 0.214
826.00 0.2139
826.10 0.2139
826.20 0.2138
826.30 0.2137
826.40 0.2136
826.50 0.2135
826.60 0.2134
826.70 0.2133
826.80 0.2132
826.90 0.2132
827.00 0.2131
827.10 0.213
827.20 0.2129
827.30 0.2128
827.40 0.2127
827.50 0.2126
827.60 0.2125
827.70 0.2125
827.80 0.2124
827.90 0.2123
828.00 0.2122
828.10 0.2121
828.20 0.212
828.30 0.2119
828.40 0.2118
828.50 0.2118
828.60 0.2117
828.70 0.2116
828.80 0.2115
828.90 0.2114
829.00 0.2113
829.10 0.2112
829.20 0.2112
829.30 0.2111
829.40 0.211
829.50 0.2109
829.60 0.2108
829.70 0.2107
829.80 0.2106
829.90 0.2106
830.00 0.2105
830.10 0.2104
830.20 0.2103
830.30 0.2102
830.40 0.2101
830.50 0.21
830.60 0.21
830.70 0.2099
830.80 0.2098
830.90 0.2097
831.00 0.2096
831.10 0.2095
831.20 0.2094
831.30 0.2094
831.40 0.2093
831.50 0.2092
831.60 0.2091
831.70 0.209
831.80 0.2089
831.90 0.2088
832.00 0.2088
832.10 0.2087
832.20 0.2086
832.30 0.2085
832.40 0.2084
832.50 0.2083
832.60 0.2082
832.70 0.2082
832.80 0.2081
832.90 0.208
833.00 0.2079
833.10 0.2078
833.20 0.2077
833.30 0.2077
833.40 0.2076
833.50 0.2075
833.60 0.2074
833.70 0.2073
833.80 0.2072
833.90 0.2072
834.00 0.2071
834.10 0.207
834.20 0.2069
834.30 0.2068
834.40 0.2067
834.50 0.2066
834.60 0.2066
834.70 0.2065
834.80 0.2064
834.90 0.2063
835.00 0.2062
835.10 0.2061
835.20 0.2061
835.30 0.206
835.40 0.2059
835.50 0.2058
835.60 0.2057
835.70 0.2056
835.80 0.2056
835.90 0.2055
836.00 0.2054
836.10 0.2053
836.20 0.2052
836.30 0.2051
836.40 0.2051
836.50 0.205
836.60 0.2049
836.70 0.2048
836.80 0.2047
836.90 0.2046
837.00 0.2046
837.10 0.2045
837.20 0.2044
837.30 0.2043
837.40 0.2042
837.50 0.2041
837.60 0.2041
837.70 0.204
837.80 0.2039
837.90 0.2038
838.00 0.2037
838.10 0.2037
838.20 0.2036
838.30 0.2035
838.40 0.2034
838.50 0.2033
838.60 0.2032
838.70 0.2032
838.80 0.2031
838.90 0.203
839.00 0.2029
839.10 0.2028
839.20 0.2027
839.30 0.2027
839.40 0.2026
839.50 0.2025
839.60 0.2024
839.70 0.2023
839.80 0.2023
839.90 0.2022
840.00 0.2021
840.10 0.202
840.20 0.2019
840.30 0.2018
840.40 0.2018
840.50 0.2017
840.60 0.2016
840.70 0.2015
840.80 0.2014
840.90 0.2014
841.00 0.2013
841.10 0.2012
841.20 0.2011
841.30 0.201
841.40 0.201
841.50 0.2009
841.60 0.2008
841.70 0.2007
841.80 0.2006
841.90 0.2005
842.00 0.2005
842.10 0.2004
842.20 0.2003
842.30 0.2002
842.40 0.2001
842.50 0.2001
842.60 0.2
842.70 0.1999
842.80 0.1998
842.90 0.1997
843.00 0.1997
843.10 0.1996
843.20 0.1995
843.30 0.1994
843.40 0.1993
843.50 0.1993
843.60 0.1992
843.70 0.1991
843.80 0.199
843.90 0.1989
844.00 0.1989
844.10 0.1988
844.20 0.1987
844.30 0.1986
844.40 0.1985
844.50 0.1985
844.60 0.1984
844.70 0.1983
844.80 0.1982
844.90 0.1981
845.00 0.1981
845.10 0.198
845.20 0.1979
845.30 0.1978
845.40 0.1977
845.50 0.1977
845.60 0.1976
845.70 0.1975
845.80 0.1974
845.90 0.1973
846.00 0.1973
846.10 0.1972
846.20 0.1971
846.30 0.197
846.40 0.1969
846.50 0.1969
846.60 0.1968
846.70 0.1967
846.80 0.1966
846.90 0.1965
847.00 0.1965
847.10 0.1964
847.20 0.1963
847.30 0.1962
847.40 0.1962
847.50 0.1961
847.60 0.196
847.70 0.1959
847.80 0.1959
847.90 0.1958
848.00 0.1957
848.10 0.1956
848.20 0.1956
848.30 0.1955
848.40 0.1954
848.50 0.1953
848.60 0.1953
848.70 0.1952
848.80 0.1951
848.90 0.195
849.00 0.1949
849.10 0.1949
849.20 0.1948
849.30 0.1947
849.40 0.1946
849.50 0.1946
849.60 0.1945
849.70 0.1944
849.80 0.1943
849.90 0.1943
850.00 0.1942
850.10 0.1941
850.20 0.194
850.30 0.194
850.40 0.1939
850.50 0.1938
850.60 0.1937
850.70 0.1937
850.80 0.1936
850.90 0.1935
851.00 0.1934
851.10 0.1934
851.20 0.1933
851.30 0.1932
851.40 0.1931
851.50 0.1931
851.60 0.193
851.70 0.1929
851.80 0.1928
851.90 0.1928
852.00 0.1927
852.10 0.1926
852.20 0.1925
852.30 0.1925
852.40 0.1924
852.50 0.1923
852.60 0.1922
852.70 0.1922
852.80 0.1921
852.90 0.192
853.00 0.192
853.10 0.1919
853.20 0.1918
853.30 0.1917
853.40 0.1917
853.50 0.1916
853.60 0.1915
853.70 0.1914
853.80 0.1914
853.90 0.1913
854.00 0.1912
854.10 0.1911
854.20 0.1911
854.30 0.191
854.40 0.1909
854.50 0.1909
854.60 0.1908
854.70 0.1907
854.80 0.1906
854.90 0.1906
855.00 0.1905
855.10 0.1904
855.20 0.1903
855.30 0.1903
855.40 0.1902
855.50 0.1901
855.60 0.19
855.70 0.19
855.80 0.1899
855.90 0.1898
856.00 0.1898
856.10 0.1897
856.20 0.1896
856.30 0.1895
856.40 0.1895
856.50 0.1894
856.60 0.1893
856.70 0.1892
856.80 0.1892
856.90 0.1891
857.00 0.189
857.10 0.189
857.20 0.1889
857.30 0.1888
857.40 0.1887
857.50 0.1887
857.60 0.1886
857.70 0.1885
857.80 0.1885
857.90 0.1884
858.00 0.1883
858.10 0.1883
858.20 0.1882
858.30 0.1881
858.40 0.1881
858.50 0.188
858.60 0.1879
858.70 0.1878
858.80 0.1878
858.90 0.1877
859.00 0.1876
859.10 0.1876
859.20 0.1875
859.30 0.1874
859.40 0.1874
859.50 0.1873
859.60 0.1872
859.70 0.1871
859.80 0.1871
859.90 0.187
860.00 0.1869
860.10 0.1869
860.20 0.1868
860.30 0.1867
860.40 0.1867
860.50 0.1866
860.60 0.1865
860.70 0.1865
860.80 0.1864
860.90 0.1863
861.00 0.1862
861.10 0.1862
861.20 0.1861
861.30 0.186
861.40 0.186
861.50 0.1859
861.60 0.1858
861.70 0.1858
861.80 0.1857
861.90 0.1856
862.00 0.1856
862.10 0.1855
862.20 0.1854
862.30 0.1854
862.40 0.1853
862.50 0.1852
862.60 0.1852
862.70 0.1851
862.80 0.185
862.90 0.185
863.00 0.1849
863.10 0.1848
863.20 0.1848
863.30 0.1847
863.40 0.1846
863.50 0.1846
863.60 0.1845
863.70 0.1844
863.80 0.1844
863.90 0.1843
864.00 0.1842
864.10 0.1842
864.20 0.1841
864.30 0.184
864.40 0.184
864.50 0.1839
864.60 0.1838
864.70 0.1838
864.80 0.1837
864.90 0.1836
865.00 0.1836
865.10 0.1835
865.20 0.1834
865.30 0.1834
865.40 0.1833
865.50 0.1832
865.60 0.1832
865.70 0.1831
865.80 0.183
865.90 0.183
866.00 0.1829
866.10 0.1828
866.20 0.1828
866.30 0.1827
866.40 0.1826
866.50 0.1826
866.60 0.1825
866.70 0.1824
866.80 0.1824
866.90 0.1823
867.00 0.1822
867.10 0.1822
867.20 0.1821
867.30 0.182
867.40 0.182
867.50 0.1819
867.60 0.1819
867.70 0.1818
867.80 0.1817
867.90 0.1817
868.00 0.1816
868.10 0.1816
868.20 0.1815
868.30 0.1814
868.40 0.1814
868.50 0.1813
868.60 0.1813
868.70 0.1812
868.80 0.1811
868.90 0.1811
869.00 0.181
869.10 0.181
869.20 0.1809
869.30 0.1808
869.40 0.1808
869.50 0.1807
869.60 0.1807
869.70 0.1806
869.80 0.1805
869.90 0.1805
870.00 0.1804
870.10 0.1803
870.20 0.1803
870.30 0.1802
870.40 0.1802
870.50 0.1801
870.60 0.18
870.70 0.18
870.80 0.1799
870.90 0.1799
871.00 0.1798
871.10 0.1797
871.20 0.1797
871.30 0.1796
871.40 0.1796
871.50 0.1795
871.60 0.1794
871.70 0.1794
871.80 0.1793
871.90 0.1793
872.00 0.1792
872.10 0.1791
872.20 0.1791
872.30 0.179
872.40 0.179
872.50 0.1789
872.60 0.1788
872.70 0.1788
872.80 0.1787
872.90 0.1787
873.00 0.1786
873.10 0.1785
873.20 0.1785
873.30 0.1784
873.40 0.1784
873.50 0.1783
873.60 0.1782
873.70 0.1782
873.80 0.1781
873.90 0.1781
874.00 0.178
874.10 0.1779
874.20 0.1779
874.30 0.1778
874.40 0.1778
874.50 0.1777
874.60 0.1776
874.70 0.1776
874.80 0.1775
874.90 0.1775
875.00 0.1774
875.10 0.1773
875.20 0.1773
875.30 0.1772
875.40 0.1772
875.50 0.1771
875.60 0.177
875.70 0.177
875.80 0.1769
875.90 0.1769
876.00 0.1768
876.10 0.1767
876.20 0.1767
876.30 0.1766
876.40 0.1766
876.50 0.1765
876.60 0.1764
876.70 0.1764
876.80 0.1763
876.90 0.1763
877.00 0.1762
877.10 0.1761
877.20 0.1761
877.30 0.176
877.40 0.176
877.50 0.1759
877.60 0.1759
877.70 0.1758
877.80 0.1758
877.90 0.1757
878.00 0.1757
878.10 0.1756
878.20 0.1756
878.30 0.1755
878.40 0.1754
878.50 0.1754
878.60 0.1753
878.70 0.1753
878.80 0.1752
878.90 0.1752
879.00 0.1751
879.10 0.1751
879.20 0.175
879.30 0.175
879.40 0.1749
879.50 0.1748
879.60 0.1748
879.70 0.1747
879.80 0.1747
879.90 0.1746
880.00 0.1746
880.10 0.1745
880.20 0.1745
880.30 0.1744
880.40 0.1744
880.50 0.1743
880.60 0.1743
880.70 0.1742
880.80 0.1741
880.90 0.1741
881.00 0.174
881.10 0.174
881.20 0.1739
881.30 0.1739
881.40 0.1738
881.50 0.1738
881.60 0.1737
881.70 0.1737
881.80 0.1736
881.90 0.1736
882.00 0.1735
882.10 0.1734
882.20 0.1734
882.30 0.1733
882.40 0.1732
882.50 0.1731
882.60 0.1731
882.70 0.173
882.80 0.1729
882.90 0.1728
883.00 0.1728
883.10 0.1727
883.20 0.1726
883.30 0.1725
883.40 0.1725
883.50 0.1724
883.60 0.1723
883.70 0.1723
883.80 0.1722
883.90 0.1721
884.00 0.172
884.10 0.172
884.20 0.1719
884.30 0.1718
884.40 0.1717
884.50 0.1717
884.60 0.1716
884.70 0.1715
884.80 0.1714
884.90 0.1714
885.00 0.1713
885.10 0.1712
885.20 0.1712
885.30 0.1711
885.40 0.171
885.50 0.1709
885.60 0.1709
885.70 0.1708
885.80 0.1707
885.90 0.1706
886.00 0.1706
886.10 0.1705
886.20 0.1704
886.30 0.1704
886.40 0.1703
886.50 0.1702
886.60 0.1701
886.70 0.1701
886.80 0.17
886.90 0.1699
887.00 0.1699
887.10 0.1698
887.20 0.1698
887.30 0.1697
887.40 0.1697
887.50 0.1697
887.60 0.1696
887.70 0.1696
887.80 0.1696
887.90 0.1695
888.00 0.1695
888.10 0.1695
888.20 0.1694
888.30 0.1694
888.40 0.1693
888.50 0.1693
888.60 0.1693
888.70 0.1692
888.80 0.1692
888.90 0.1692
889.00 0.1691
889.10 0.1691
889.20 0.1691
889.30 0.169
889.40 0.169
889.50 0.169
889.60 0.1689
889.70 0.1689
889.80 0.1688
889.90 0.1688
890.00 0.1688
890.10 0.1687
890.20 0.1687
890.30 0.1687
890.40 0.1686
890.50 0.1686
890.60 0.1686
890.70 0.1685
890.80 0.1685
890.90 0.1685
891.00 0.1684
891.10 0.1684
891.20 0.1683
891.30 0.1683
891.40 0.1683
891.50 0.1682
891.60 0.1682
891.70 0.1682
891.80 0.1681
891.90 0.1681
892.00 0.1681
892.10 0.168
892.20 0.168
892.30 0.1679
892.40 0.1678
892.50 0.1678
892.60 0.1677
892.70 0.1677
892.80 0.1676
892.90 0.1676
893.00 0.1675
893.10 0.1674
893.20 0.1674
893.30 0.1673
893.40 0.1673
893.50 0.1672
893.60 0.1672
893.70 0.1671
893.80 0.1671
893.90 0.167
894.00 0.1669
894.10 0.1669
894.20 0.1668
894.30 0.1668
894.40 0.1667
894.50 0.1667
894.60 0.1666
894.70 0.1666
894.80 0.1665
894.90 0.1664
895.00 0.1664
895.10 0.1663
895.20 0.1663
895.30 0.1662
895.40 0.1662
895.50 0.1661
895.60 0.1661
895.70 0.166
895.80 0.166
895.90 0.1659
896.00 0.1658
896.10 0.1658
896.20 0.1657
896.30 0.1657
896.40 0.1656
896.50 0.1656
896.60 0.1655
896.70 0.1655
896.80 0.1654
896.90 0.1653
897.00 0.1653
897.10 0.1652
897.20 0.1651
897.30 0.1649
897.40 0.1648
897.50 0.1647
897.60 0.1646
897.70 0.1645
897.80 0.1644
897.90 0.1643
898.00 0.1642
898.10 0.164
898.20 0.1639
898.30 0.1638
898.40 0.1637
898.50 0.1636
898.60 0.1635
898.70 0.1634
898.80 0.1632
898.90 0.1631
899.00 0.163
899.10 0.1629
899.20 0.1628
899.30 0.1627
899.40 0.1626
899.50 0.1624
899.60 0.1623
899.70 0.1622
899.80 0.1621
899.90 0.162
900.00 0.1619
900.10 0.1618
900.20 0.1617
900.30 0.1615
900.40 0.1614
900.50 0.1613
900.60 0.1612
900.70 0.1611
900.80 0.161
900.90 0.1609
901.00 0.1608
901.10 0.1606
901.20 0.1605
901.30 0.1604
901.40 0.1603
901.50 0.1602
901.60 0.1601
901.70 0.16
901.80 0.1599
901.90 0.1597
902.00 0.1596
902.10 0.1596
902.20 0.1596
902.30 0.1596
902.40 0.1596
902.50 0.1596
902.60 0.1596
902.70 0.1596
902.80 0.1596
902.90 0.1596
903.00 0.1596
903.10 0.1596
903.20 0.1596
903.30 0.1596
903.40 0.1596
903.50 0.1596
903.60 0.1596
903.70 0.1596
903.80 0.1596
903.90 0.1596
904.00 0.1596
904.10 0.1596
904.20 0.1596
904.30 0.1596
904.40 0.1596
904.50 0.1596
904.60 0.1596
904.70 0.1596
904.80 0.1596
904.90 0.1596
905.00 0.1596
905.10 0.1596
905.20 0.1596
905.30 0.1596
905.40 0.1596
905.50 0.1596
905.60 0.1596
905.70 0.1596
905.80 0.1596
905.90 0.1596
906.00 0.1596
906.10 0.1596
906.20 0.1596
906.30 0.1596
906.40 0.1596
906.50 0.1596
906.60 0.1596
906.70 0.1596
906.80 0.1596
906.90 0.1596
907.00 0.1596
907.10 0.1596
907.20 0.1595
907.30 0.1595
907.40 0.1595
907.50 0.1594
907.60 0.1594
907.70 0.1594
907.80 0.1593
907.90 0.1593
908.00 0.1593
908.10 0.1592
908.20 0.1592
908.30 0.1592
908.40 0.1592
908.50 0.1591
908.60 0.1591
908.70 0.1591
908.80 0.159
908.90 0.159
909.00 0.159
909.10 0.1589
909.20 0.1589
909.30 0.1589
909.40 0.1588
909.50 0.1588
909.60 0.1588
909.70 0.1588
909.80 0.1587
909.90 0.1587
910.00 0.1587
910.10 0.1586
910.20 0.1586
910.30 0.1586
910.40 0.1585
910.50 0.1585
910.60 0.1585
910.70 0.1585
910.80 0.1584
910.90 0.1584
911.00 0.1584
911.10 0.1583
911.20 0.1583
911.30 0.1583
911.40 0.1582
911.50 0.1582
911.60 0.1582
911.70 0.1581
911.80 0.1581
911.90 0.1581
912.00 0.1581
912.10 0.158
912.20 0.1579
912.30 0.1578
912.40 0.1578
912.50 0.1577
912.60 0.1576
912.70 0.1575
912.80 0.1575
912.90 0.1574
913.00 0.1573
913.10 0.1572
913.20 0.1572
913.30 0.1571
913.40 0.157
913.50 0.1569
913.60 0.1569
913.70 0.1568
913.80 0.1567
913.90 0.1566
914.00 0.1565
914.10 0.1565
914.20 0.1564
914.30 0.1563
914.40 0.1562
914.50 0.1562
914.60 0.1561
914.70 0.156
914.80 0.1559
914.90 0.1559
915.00 0.1558
915.10 0.1557
915.20 0.1557
915.30 0.1556
915.40 0.1555
915.50 0.1554
915.60 0.1554
915.70 0.1553
915.80 0.1552
915.90 0.1551
916.00 0.1551
916.10 0.155
916.20 0.1549
916.30 0.1548
916.40 0.1548
916.50 0.1547
916.60 0.1546
916.70 0.1545
916.80 0.1545
916.90 0.1544
917.00 0.1543
917.10 0.1542
917.20 0.154
917.30 0.1539
917.40 0.1538
917.50 0.1536
917.60 0.1535
917.70 0.1533
917.80 0.1532
917.90 0.1531
918.00 0.1529
918.10 0.1528
918.20 0.1527
918.30 0.1525
918.40 0.1524
918.50 0.1523
918.60 0.1521
918.70 0.152
918.80 0.1518
918.90 0.1517
919.00 0.1516
919.10 0.1514
919.20 0.1513
919.30 0.1512
919.40 0.151
919.50 0.1509
919.60 0.1508
919.70 0.1506
919.80 0.1505
919.90 0.1503
920.00 0.1502
920.10 0.1501
920.20 0.1499
920.30 0.1498
920.40 0.1497
920.50 0.1495
920.60 0.1494
920.70 0.1493
920.80 0.1491
920.90 0.149
921.00 0.1489
921.10 0.1487
921.20 0.1486
921.30 0.1485
921.40 0.1483
921.50 0.1482
921.60 0.148
921.70 0.1479
921.80 0.1478
921.90 0.1476
922.00 0.1475
922.10 0.1474
922.20 0.1473
922.30 0.1472
922.40 0.1471
922.50 0.1471
922.60 0.147
922.70 0.1469
922.80 0.1468
922.90 0.1467
923.00 0.1466
923.10 0.1465
923.20 0.1464
923.30 0.1463
923.40 0.1462
923.50 0.1461
923.60 0.1461
923.70 0.146
923.80 0.1459
923.90 0.1458
924.00 0.1457
924.10 0.1456
924.20 0.1455
924.30 0.1454
924.40 0.1453
924.50 0.1452
924.60 0.1452
924.70 0.1451
924.80 0.145
924.90 0.1449
925.00 0.1448
925.10 0.1447
925.20 0.1446
925.30 0.1445
925.40 0.1444
925.50 0.1443
925.60 0.1443
925.70 0.1442
925.80 0.1441
925.90 0.144
926.00 0.1439
926.10 0.1438
926.20 0.1437
926.30 0.1436
926.40 0.1435
926.50 0.1434
926.60 0.1434
926.70 0.1433
926.80 0.1432
926.90 0.1431
927.00 0.143
927.10 0.1431
927.20 0.1431
927.30 0.1432
927.40 0.1432
927.50 0.1433
927.60 0.1434
927.70 0.1434
927.80 0.1435
927.90 0.1435
928.00 0.1436
928.10 0.1437
928.20 0.1437
928.30 0.1438
928.40 0.1438
928.50 0.1439
928.60 0.1439
928.70 0.144
928.80 0.1441
928.90 0.1441
929.00 0.1442
929.10 0.1442
929.20 0.1443
929.30 0.1444
929.40 0.1444
929.50 0.1445
929.60 0.1445
929.70 0.1446
929.80 0.1447
929.90 0.1447
930.00 0.1448
930.10 0.1448
930.20 0.1449
930.30 0.1449
930.40 0.145
930.50 0.1451
930.60 0.1451
930.70 0.1452
930.80 0.1452
930.90 0.1453
931.00 0.1454
931.10 0.1454
931.20 0.1455
931.30 0.1455
931.40 0.1456
931.50 0.1457
931.60 0.1457
931.70 0.1458
931.80 0.1458
931.90 0.1459
932.00 0.1459
932.10 0.1459
932.20 0.1459
932.30 0.1459
932.40 0.1459
932.50 0.1459
932.60 0.1459
932.70 0.1459
932.80 0.1459
932.90 0.1459
933.00 0.146
933.10 0.146
933.20 0.146
933.30 0.146
933.40 0.146
933.50 0.146
933.60 0.146
933.70 0.146
933.80 0.146
933.90 0.146
934.00 0.146
934.10 0.146
934.20 0.146
934.30 0.146
934.40 0.1459
934.50 0.1459
934.60 0.1459
934.70 0.1459
934.80 0.1458
934.90 0.1458
935.00 0.1458
935.10 0.1458
935.20 0.1457
935.30 0.1457
935.40 0.1457
935.50 0.1457
935.60 0.1456
935.70 0.1456
935.80 0.1456
935.90 0.1456
936.00 0.1455
936.10 0.1455
936.20 0.1455
936.30 0.1455
936.40 0.1454
936.50 0.1454
936.60 0.1454
936.70 0.1454
936.80 0.1453
936.90 0.1453
937.00 0.1453
937.10 0.1452
937.20 0.1452
937.30 0.1452
937.40 0.1451
937.50 0.1451
937.60 0.145
937.70 0.145
937.80 0.145
937.90 0.1449
938.00 0.1449
938.10 0.1448
938.20 0.1448
938.30 0.1447
938.40 0.1447
938.50 0.1446
938.60 0.1446
938.70 0.1445
938.80 0.1445
938.90 0.1444
939.00 0.1444
939.10 0.1443
939.20 0.1443
939.30 0.1442
939.40 0.1442
939.50 0.1441
939.60 0.144
939.70 0.144
939.80 0.1439
939.90 0.1439
940.00 0.1438
940.10 0.1438
940.20 0.1437
940.30 0.1437
940.40 0.1436
940.50 0.1435
940.60 0.1435
940.70 0.1434
940.80 0.1433
940.90 0.1432
941.00 0.1432
941.10 0.1431
941.20 0.143
941.30 0.143
941.40 0.1429
941.50 0.1428
941.60 0.1427
941.70 0.1427
941.80 0.1426
941.90 0.1425
942.00 0.1425
942.10 0.1424
942.20 0.1423
942.30 0.1422
942.40 0.1421
942.50 0.142
942.60 0.1419
942.70 0.1418
942.80 0.1417
942.90 0.1416
943.00 0.1415
943.10 0.1414
943.20 0.1413
943.30 0.1412
943.40 0.1411
943.50 0.141
943.60 0.1409
943.70 0.1408
943.80 0.1407
943.90 0.1406
944.00 0.1405
944.10 0.1404
944.20 0.1403
944.30 0.1402
944.40 0.1401
944.50 0.1399
944.60 0.1398
944.70 0.1397
944.80 0.1395
944.90 0.1394
945.00 0.1393
945.10 0.1392
945.20 0.139
945.30 0.1389
945.40 0.1387
945.50 0.1386
945.60 0.1384
945.70 0.1382
945.80 0.1381
945.90 0.1379
946.00 0.1377
946.10 0.1376
946.20 0.1374
946.30 0.1372
946.40 0.1371
946.50 0.1369
946.60 0.1367
946.70 0.1366
946.80 0.1364
946.90 0.1362
947.00 0.1361
947.10 0.1359
947.20 0.1357
947.30 0.1355
947.40 0.1352
947.50 0.135
947.60 0.1348
947.70 0.1345
947.80 0.1343
947.90 0.134
948.00 0.1338
948.10 0.1336
948.20 0.1333
948.30 0.1331
948.40 0.1329
948.50 0.1326
948.60 0.1324
948.70 0.1322
948.80 0.1319
948.90 0.1317
949.00 0.1314
949.10 0.1312
949.20 0.131
949.30 0.1307
949.40 0.1305
949.50 0.1302
949.60 0.1299
949.70 0.1296
949.80 0.1294
949.90 0.1291
950.00 0.1288
950.10 0.1285
950.20 0.1283
950.30 0.128
950.40 0.1277
950.50 0.1274
950.60 0.1272
950.70 0.1269
950.80 0.1266
950.90 0.1263
951.00 0.1261
951.10 0.1258
951.20 0.1255
951.30 0.1252
951.40 0.125
951.50 0.1248
951.60 0.1245
951.70 0.1243
951.80 0.1241
951.90 0.1238
952.00 0.1236
952.10 0.1234
952.20 0.1233
952.30 0.1231
952.40 0.123
952.50 0.1228
952.60 0.1227
952.70 0.1225
952.80 0.1224
952.90 0.1224
953.00 0.1224
953.10 0.1224
953.20 0.1224
953.30 0.1224
953.40 0.1224
953.50 0.1224
953.60 0.1229
953.70 0.1234
953.80 0.1239
953.90 0.1244
954.00 0.1251
954.10 0.1257
954.20 0.1265
954.30 0.1247
954.40 0.1225
954.50 0.1218
954.60 0.1211
954.70 0.1205
954.80 0.12
954.90 0.1196
955.00 0.1191
955.10 0.1186
955.20 0.1185
955.30 0.1183
955.40 0.1181
955.50 0.1179
955.60 0.1177
955.70 0.1175
955.80 0.1173
955.90 0.1173
956.00 0.1174
956.10 0.1174
956.20 0.1174
956.30 0.1174
956.40 0.1175
956.50 0.1175
956.60 0.1175
956.70 0.1175
956.80 0.1176
956.90 0.1176
957.00 0.1176
957.10 0.1177
957.20 0.1178
957.30 0.118
957.40 0.1181
957.50 0.1182
957.60 0.1184
957.70 0.1185
957.80 0.1186
957.90 0.1188
958.00 0.1189
958.10 0.1191
958.20 0.1192
958.30 0.1193
958.40 0.1195
958.50 0.1196
958.60 0.1197
958.70 0.1199
958.80 0.12
958.90 0.1201
959.00 0.1203
959.10 0.1204
959.20 0.1205
959.30 0.1207
959.40 0.1208
959.50 0.1209
959.60 0.1211
959.70 0.1212
959.80 0.1213
959.90 0.1214
960.00 0.1216
960.10 0.1217
960.20 0.1218
960.30 0.1219
960.40 0.122
960.50 0.1222
960.60 0.1223
960.70 0.1224
960.80 0.1225
960.90 0.1227
961.00 0.1228
961.10 0.1229
961.20 0.123
961.30 0.1232
961.40 0.1233
961.50 0.1234
961.60 0.1235
961.70 0.1236
961.80 0.1237
961.90 0.1238
962.00 0.1239
962.10 0.124
962.20 0.124
962.30 0.1241
962.40 0.1242
962.50 0.1243
962.60 0.1244
962.70 0.1245
962.80 0.1245
962.90 0.1246
963.00 0.1247
963.10 0.1248
963.20 0.1249
963.30 0.125
963.40 0.125
963.50 0.1251
963.60 0.1252
963.70 0.1252
963.80 0.1253
963.90 0.1254
964.00 0.1254
964.10 0.1255
964.20 0.1256
964.30 0.1256
964.40 0.1257
964.50 0.1257
964.60 0.1258
964.70 0.1258
964.80 0.1259
964.90 0.1259
965.00 0.126
965.10 0.126
965.20 0.1261
965.30 0.1261
965.40 0.1262
965.50 0.1262
965.60 0.1263
965.70 0.1263
965.80 0.1263
965.90 0.1264
966.00 0.1264
966.10 0.1265
966.20 0.1265
966.30 0.1266
966.40 0.1266
966.50 0.1266
966.60 0.1267
966.70 0.1267
966.80 0.1267
966.90 0.1268
967.00 0.1268
967.10 0.1268
967.20 0.1268
967.30 0.1269
967.40 0.1269
967.50 0.1269
967.60 0.1269
967.70 0.127
967.80 0.127
967.90 0.127
968.00 0.127
968.10 0.127
968.20 0.1271
968.30 0.1271
968.40 0.1271
968.50 0.1271
968.60 0.1271
968.70 0.1271
968.80 0.1271
968.90 0.1271
969.00 0.1271
969.10 0.1271
969.20 0.1272
969.30 0.1272
969.40 0.1272
969.50 0.1272
969.60 0.1272
969.70 0.1272
969.80 0.1272
969.90 0.1272
970.00 0.1272
970.10 0.1272
970.20 0.1272
970.30 0.1272
970.40 0.1272
970.50 0.1272
970.60 0.1272
970.70 0.1272
970.80 0.1272
970.90 0.1272
971.00 0.1272
971.10 0.1272
971.20 0.1272
971.30 0.1272
971.40 0.1272
971.50 0.1272
971.60 0.1272
971.70 0.1272
971.80 0.1271
971.90 0.1271
972.00 0.1271
972.10 0.1271
972.20 0.1271
972.30 0.1271
972.40 0.1271
972.50 0.127
972.60 0.127
972.70 0.127
972.80 0.127
972.90 0.127
973.00 0.127
973.10 0.1269
973.20 0.1269
973.30 0.1269
973.40 0.1269
973.50 0.1269
973.60 0.1269
973.70 0.1268
973.80 0.1268
973.90 0.1268
974.00 0.1268
974.10 0.1268
974.20 0.1267
974.30 0.1267
974.40 0.1267
974.50 0.1267
974.60 0.1266
974.70 0.1266
974.80 0.1266
974.90 0.1265
975.00 0.1265
975.10 0.1265
975.20 0.1264
975.30 0.1264
975.40 0.1264
975.50 0.1264
975.60 0.1263
975.70 0.1263
975.80 0.1263
975.90 0.1262
976.00 0.1262
976.10 0.1262
976.20 0.1261
976.30 0.1261
976.40 0.1261
976.50 0.126
976.60 0.126
976.70 0.126
976.80 0.126
976.90 0.1259
977.00 0.1259
977.10 0.1258
977.20 0.1258
977.30 0.1257
977.40 0.1257
977.50 0.1256
977.60 0.1256
977.70 0.1255
977.80 0.1255
977.90 0.1254
978.00 0.1254
978.10 0.1253
978.20 0.1253
978.30 0.1252
978.40 0.1252
978.50 0.1251
978.60 0.1251
978.70 0.1251
978.80 0.125
978.90 0.125
979.00 0.1249
979.10 0.1249
979.20 0.1248
979.30 0.1248
979.40 0.1247
979.50 0.1247
979.60 0.1246
979.70 0.1246
979.80 0.1245
979.90 0.1245
980.00 0.1244
980.10 0.1244
980.20 0.1243
980.30 0.1243
980.40 0.1242
980.50 0.1242
980.60 0.1241
980.70 0.1241
980.80 0.124
980.90 0.124
981.00 0.1239
981.10 0.1239
981.20 0.1238
981.30 0.1238
981.40 0.1237
981.50 0.1237
981.60 0.1236
981.70 0.1236
981.80 0.1235
981.90 0.1235
982.00 0.1234
982.10 0.1234
982.20 0.1233
982.30 0.1232
982.40 0.1232
982.50 0.1231
982.60 0.123
982.70 0.1229
982.80 0.1229
982.90 0.1228
983.00 0.1227
983.10 0.1227
983.20 0.1226
983.30 0.1225
983.40 0.1225
983.50 0.1224
983.60 0.1223
983.70 0.1223
983.80 0.1222
983.90 0.1221
984.00 0.122
984.10 0.122
984.20 0.1219
984.30 0.1218
984.40 0.1218
984.50 0.1217
984.60 0.1216
984.70 0.1215
984.80 0.1215
984.90 0.1214
985.00 0.1213
985.10 0.1212
985.20 0.1211
985.30 0.121
985.40 0.1209
985.50 0.1209
985.60 0.1208
985.70 0.1207
985.80 0.1206
985.90 0.1205
986.00 0.1204
986.10 0.1203
986.20 0.1203
986.30 0.1202
986.40 0.1201
986.50 0.12
986.60 0.1199
986.70 0.1198
986.80 0.1197
986.90 0.1197
987.00 0.1196
987.10 0.1195
987.20 0.1194
987.30 0.1193
987.40 0.1192
987.50 0.1191
987.60 0.119
987.70 0.1189
987.80 0.1188
987.90 0.1187
988.00 0.1186
988.10 0.1185
988.20 0.1184
988.30 0.1183
988.40 0.1182
988.50 0.1181
988.60 0.118
988.70 0.1178
988.80 0.1177
988.90 0.1176
989.00 0.1175
989.10 0.1174
989.20 0.1173
989.30 0.1171
989.40 0.117
989.50 0.1169
989.60 0.1168
989.70 0.1167
989.80 0.1165
989.90 0.1164
990.00 0.1163
990.10 0.1162
990.20 0.1161
990.30 0.116
990.40 0.1158
990.50 0.1157
990.60 0.1156
990.70 0.1155
990.80 0.1153
990.90 0.1152
991.00 0.1151
991.10 0.1149
991.20 0.1148
991.30 0.1147
991.40 0.1145
991.50 0.1144
991.60 0.1142
991.70 0.1141
991.80 0.114
991.90 0.1138
992.00 0.1137
992.10 0.1136
992.20 0.1134
992.30 0.1133
992.40 0.1131
992.50 0.113
992.60 0.1128
992.70 0.1127
992.80 0.1125
992.90 0.1123
993.00 0.1122
993.10 0.112
993.20 0.1118
993.30 0.1117
993.40 0.1115
993.50 0.1114
993.60 0.1112
993.70 0.111
993.80 0.1109
993.90 0.1107
994.00 0.1105
994.10 0.1104
994.20 0.1102
994.30 0.11
994.40 0.1099
994.50 0.1097
994.60 0.1096
994.70 0.1094
994.80 0.1092
994.90 0.109
995.00 0.1088
995.10 0.1086
995.20 0.1085
995.30 0.1083
995.40 0.1081
995.50 0.1079
995.60 0.1077
995.70 0.1075
995.80 0.1073
995.90 0.1071
996.00 0.1069
996.10 0.1067
996.20 0.1065
996.30 0.1063
996.40 0.1061
996.50 0.1059
996.60 0.1057
996.70 0.1055
996.80 0.1053
996.90 0.1051
997.00 0.1049
997.10 0.1047
997.20 0.1045
997.30 0.1042
997.40 0.104
997.50 0.1038
997.60 0.1036
997.70 0.1034
997.80 0.1031
997.90 0.1029
998.00 0.1026
998.10 0.1024
998.20 0.1022
998.30 0.1019
998.40 0.1017
998.50 0.1015
998.60 0.1012
998.70 0.101
998.80 0.1008
998.90 0.1005
999.00 0.1003
999.10 0.1001
999.20 0.09982
999.30 0.09958
999.40 0.09935
999.50 0.09911
999.60 0.09888
999.70 0.09864
999.80 0.0984
999.90 0.09817
1000.00 0.09793
1000.10 0.09769
1000.20 0.09746
1000.30 0.09722
1000.40 0.09698
1000.50 0.09675
1000.60 0.09651
1000.70 0.09627
1000.80 0.09604
1000.90 0.0958
1001.00 0.09557
1001.10 0.09533
1001.20 0.0951
1001.30 0.09486
1001.40 0.09462
1001.50 0.09439
1001.60 0.09415
1001.70 0.09395
1001.80 0.09375
1001.90 0.09356
1002.00 0.09336
1002.10 0.09323
1002.20 0.09311
1002.30 0.09298
1002.40 0.09286
1002.50 0.09274
1002.60 0.09261
1002.70 0.09249
1002.80 0.09236
1002.90 0.09224
1003.00 0.09211
1003.10 0.09199
1003.20 0.09197
1003.30 0.09198
1003.40 0.092
1003.50 0.09201
1003.60 0.09203
1003.70 0.09204
1003.80 0.09205
1003.90 0.09217
1004.00 0.09232
1004.10 0.09246
1004.20 0.09261
1004.30 0.09298
1004.40 0.09343
1004.50 0.094
1004.60 0.09435
1004.70 0.09378
1004.80 0.09319
1004.90 0.0927
1005.00 0.09222
1005.10 0.09196
1005.20 0.09176
1005.30 0.09157
1005.40 0.09138
1005.50 0.09129
1005.60 0.09123
1005.70 0.09116
1005.80 0.0911
1005.90 0.09104
1006.00 0.09098
1006.10 0.09091
1006.20 0.09094
1006.30 0.09098
1006.40 0.09103
1006.50 0.09108
1006.60 0.09113
1006.70 0.09118
1006.80 0.09123
1006.90 0.09128
1007.00 0.09133
1007.10 0.09145
1007.20 0.09157
1007.30 0.09169
1007.40 0.09181
1007.50 0.09193
1007.60 0.09205
1007.70 0.0922
1007.80 0.09236
1007.90 0.09252
1008.00 0.09268
1008.10 0.09285
1008.20 0.09301
1008.30 0.09317
1008.40 0.09333
1008.50 0.09349
1008.60 0.09365
1008.70 0.09381
1008.80 0.09397
1008.90 0.09414
1009.00 0.0943
1009.10 0.09446
1009.20 0.09462
1009.30 0.09478
1009.40 0.09494
1009.50 0.0951
1009.60 0.09526
1009.70 0.09542
1009.80 0.09557
1009.90 0.09572
1010.00 0.09588
1010.10 0.09603
1010.20 0.09618
1010.30 0.09634
1010.40 0.09649
1010.50 0.09664
1010.60 0.0968
1010.70 0.09695
1010.80 0.0971
1010.90 0.09725
1011.00 0.09741
1011.10 0.09756
1011.20 0.09771
1011.30 0.09786
1011.40 0.09802
1011.50 0.09817
1011.60 0.09832
1011.70 0.09846
1011.80 0.09859
1011.90 0.09873
1012.00 0.09886
1012.10 0.09898
1012.20 0.09909
1012.30 0.09921
1012.40 0.09933
1012.50 0.09945
1012.60 0.09956
1012.70 0.09968
1012.80 0.0998
1012.90 0.09992
1013.00 0.1
1013.10 0.1001
1013.20 0.1003
1013.30 0.1004
1013.40 0.1005
1013.50 0.1006
1013.60 0.1007
1013.70 0.1008
1013.80 0.1009
1013.90 0.101
1014.00 0.1011
1014.10 0.1012
1014.20 0.1013
1014.30 0.1014
1014.40 0.1015
1014.50 0.1016
1014.60 0.1017
1014.70 0.1018
1014.80 0.1019
1014.90 0.1019
1015.00 0.102
1015.10 0.1021
1015.20 0.1022
1015.30 0.1022
1015.40 0.1023
1015.50 0.1024
1015.60 0.1025
1015.70 0.1025
1015.80 0.1026
1015.90 0.1027
1016.00 0.1028
1016.10 0.1028
1016.20 0.1029
1016.30 0.103
1016.40 0.1031
1016.50 0.1031
1016.60 0.1032
1016.70 0.1033
1016.80 0.1033
1016.90 0.1034
1017.00 0.1035
1017.10 0.1035
1017.20 0.1036
1017.30 0.1036
1017.40 0.1037
1017.50 0.1037
1017.60 0.1038
1017.70 0.1038
1017.80 0.1039
1017.90 0.1039
1018.00 0.104
1018.10 0.104
1018.20 0.1041
1018.30 0.1041
1018.40 0.1042
1018.50 0.1042
1018.60 0.1043
1018.70 0.1043
1018.80 0.1044
1018.90 0.1044
1019.00 0.1044
1019.10 0.1045
1019.20 0.1045
1019.30 0.1046
1019.40 0.1046
1019.50 0.1046
1019.60 0.1047
1019.70 0.1047
1019.80 0.1047
1019.90 0.1048
1020.00 0.1048
1020.10 0.1048
1020.20 0.1049
1020.30 0.1049
1020.40 0.1049
1020.50 0.105
1020.60 0.105
1020.70 0.105
1020.80 0.1051
1020.90 0.1051
1021.00 0.1051
1021.10 0.1051
1021.20 0.1052
1021.30 0.1052
1021.40 0.1052
1021.50 0.1052
1021.60 0.1053
1021.70 0.1053
1021.80 0.1053
1021.90 0.1053
1022.00 0.1054
1022.10 0.1054
1022.20 0.1054
1022.30 0.1054
1022.40 0.1054
1022.50 0.1054
1022.60 0.1054
1022.70 0.1055
1022.80 0.1055
1022.90 0.1055
1023.00 0.1055
1023.10 0.1055
1023.20 0.1055
1023.30 0.1055
1023.40 0.1055
1023.50 0.1056
1023.60 0.1056
1023.70 0.1056
1023.80 0.1056
1023.90 0.1056
1024.00 0.1056
1024.10 0.1056
1024.20 0.1056
1024.30 0.1057
1024.40 0.1057
1024.50 0.1057
1024.60 0.1057
1024.70 0.1057
1024.80 0.1057
1024.90 0.1057
1025.00 0.1057
1025.10 0.1057
1025.20 0.1057
1025.30 0.1057
1025.40 0.1057
1025.50 0.1057
1025.60 0.1057
1025.70 0.1057
1025.80 0.1057
1025.90 0.1057
1026.00 0.1057
1026.10 0.1057
1026.20 0.1057
1026.30 0.1057
1026.40 0.1057
1026.50 0.1057
1026.60 0.1057
1026.70 0.1057
1026.80 0.1057
1026.90 0.1057
1027.00 0.1057
1027.10 0.1057
1027.20 0.1057
1027.30 0.1057
1027.40 0.1057
1027.50 0.1057
1027.60 0.1057
1027.70 0.1057
1027.80 0.1057
1027.90 0.1057
1028.00 0.1056
1028.10 0.1056
1028.20 0.1056
1028.30 0.1056
1028.40 0.1056
1028.50 0.1056
1028.60 0.1056
1028.70 0.1056
1028.80 0.1056
1028.90 0.1056
1029.00 0.1055
1029.10 0.1055
1029.20 0.1055
1029.30 0.1055
1029.40 0.1055
1029.50 0.1055
1029.60 0.1055
1029.70 0.1055
1029.80 0.1055
1029.90 0.1055
1030.00 0.1054
1030.10 0.1054
1030.20 0.1054
1030.30 0.1054
1030.40 0.1054
1030.50 0.1054
1030.60 0.1054
1030.70 0.1054
1030.80 0.1054
1030.90 0.1054
1031.00 0.1053
1031.10 0.1053
1031.20 0.1053
1031.30 0.1053
1031.40 0.1053
1031.50 0.1053
1031.60 0.1053
1031.70 0.1053
1031.80 0.1053
1031.90 0.1053
1032.00 0.1052
1032.10 0.1052
1032.20 0.1052
1032.30 0.1052
1032.40 0.1052
1032.50 0.1051
1032.60 0.1051
1032.70 0.1051
1032.80 0.1051
1032.90 0.1051
1033.00 0.105
1033.10 0.105
1033.20 0.105
1033.30 0.105
1033.40 0.105
1033.50 0.1049
1033.60 0.1049
1033.70 0.1049
1033.80 0.1049
1033.90 0.1049
1034.00 0.1048
1034.10 0.1048
1034.20 0.1048
1034.30 0.1048
1034.40 0.1048
1034.50 0.1047
1034.60 0.1047
1034.70 0.1047
1034.80 0.1047
1034.90 0.1047
1035.00 0.1046
1035.10 0.1046
1035.20 0.1046
1035.30 0.1046
1035.40 0.1046
1035.50 0.1045
1035.60 0.1045
1035.70 0.1045
1035.80 0.1045
1035.90 0.1045
1036.00 0.1044
1036.10 0.1044
1036.20 0.1044
1036.30 0.1044
1036.40 0.1044
1036.50 0.1043
1036.60 0.1043
1036.70 0.1043
1036.80 0.1043
1036.90 0.1043
1037.00 0.1042
1037.10 0.1042
1037.20 0.1042
1037.30 0.1042
1037.40 0.1041
1037.50 0.1041
1037.60 0.1041
1037.70 0.104
1037.80 0.104
1037.90 0.104
1038.00 0.104
1038.10 0.1039
1038.20 0.1039
1038.30 0.1039
1038.40 0.1039
1038.50 0.1038
1038.60 0.1038
1038.70 0.1038
1038.80 0.1038
1038.90 0.1037
1039.00 0.1037
1039.10 0.1037
1039.20 0.1037
1039.30 0.1036
1039.40 0.1036
1039.50 0.1036
1039.60 0.1035
1039.70 0.1035
1039.80 0.1035
1039.90 0.1035
1040.00 0.1034
1040.10 0.1034
1040.20 0.1034
1040.30 0.1034
1040.40 0.1033
1040.50 0.1033
1040.60 0.1033
1040.70 0.1033
1040.80 0.1032
1040.90 0.1032
1041.00 0.1032
1041.10 0.1031
1041.20 0.1031
1041.30 0.1031
1041.40 0.1031
1041.50 0.103
1041.60 0.103
1041.70 0.103
1041.80 0.103
1041.90 0.1029
1042.00 0.1029
1042.10 0.1029
1042.20 0.1028
1042.30 0.1028
1042.40 0.1028
1042.50 0.1028
1042.60 0.1027
1042.70 0.1027
1042.80 0.1027
1042.90 0.1026
1043.00 0.1026
1043.10 0.1026
1043.20 0.1025
1043.30 0.1025
1043.40 0.1025
1043.50 0.1024
1043.60 0.1024
1043.70 0.1024
1043.80 0.1024
1043.90 0.1023
1044.00 0.1023
1044.10 0.1023
1044.20 0.1022
1044.30 0.1022
1044.40 0.1022
1044.50 0.1021
1044.60 0.1021
1044.70 0.1021
1044.80 0.102
1044.90 0.102
1045.00 0.102
1045.10 0.1019
1045.20 0.1019
1045.30 0.1019
1045.40 0.1019
1045.50 0.1018
1045.60 0.1018
1045.70 0.1018
1045.80 0.1017
1045.90 0.1017
1046.00 0.1017
1046.10 0.1016
1046.20 0.1016
1046.30 0.1016
1046.40 0.1015
1046.50 0.1015
1046.60 0.1015
1046.70 0.1015
1046.80 0.1014
1046.90 0.1014
1047.00 0.1014
1047.10 0.1013
1047.20 0.1013
1047.30 0.1013
1047.40 0.1012
1047.50 0.1012
1047.60 0.1012
1047.70 0.1011
1047.80 0.1011
1047.90 0.1011
1048.00 0.101
1048.10 0.101
1048.20 0.1009
1048.30 0.1009
1048.40 0.1009
1048.50 0.1008
1048.60 0.1008
1048.70 0.1008
1048.80 0.1007
1048.90 0.1007
1049.00 0.1007
1049.10 0.1006
1049.20 0.1006
1049.30 0.1006
1049.40 0.1005
1049.50 0.1005
1049.60 0.1005
1049.70 0.1004
1049.80 0.1004
1049.90 0.1004
1050.00 0.1003
1050.10 0.1003
1050.20 0.1003
1050.30 0.1002
1050.40 0.1002
1050.50 0.1002
1050.60 0.1001
1050.70 0.1001
1050.80 0.1001
1050.90 0.1
1051.00 0.09999
1051.10 0.09996
1051.20 0.09992
1051.30 0.09989
1051.40 0.09986
1051.50 0.09982
1051.60 0.09979
1051.70 0.09975
1051.80 0.09972
1051.90 0.09969
1052.00 0.09965
1052.10 0.09961
1052.20 0.09958
1052.30 0.09954
1052.40 0.0995
1052.50 0.09946
1052.60 0.09942
1052.70 0.09938
1052.80 0.09935
1052.90 0.09931
1053.00 0.09927
1053.10 0.09923
1053.20 0.09919
1053.30 0.09916
1053.40 0.09912
1053.50 0.09908
1053.60 0.09904
1053.70 0.099
1053.80 0.09897
1053.90 0.09893
1054.00 0.09889
1054.10 0.09885
1054.20 0.09882
1054.30 0.09878
1054.40 0.09874
1054.50 0.0987
1054.60 0.09866
1054.70 0.09863
1054.80 0.09859
1054.90 0.09855
1055.00 0.09851
1055.10 0.09848
1055.20 0.09844
1055.30 0.0984
1055.40 0.09836
1055.50 0.09832
1055.60 0.09829
1055.70 0.09825
1055.80 0.09821
1055.90 0.09817
1056.00 0.09814
1056.10 0.0981
1056.20 0.09806
1056.30 0.09802
1056.40 0.09799
1056.50 0.09795
1056.60 0.09791
1056.70 0.09787
1056.80 0.09784
1056.90 0.0978
1057.00 0.09776
1057.10 0.09772
1057.20 0.09768
1057.30 0.09763
1057.40 0.09759
1057.50 0.09755
1057.60 0.09751
1057.70 0.09746
1057.80 0.09742
1057.90 0.09738
1058.00 0.09734
1058.10 0.0973
1058.20 0.09725
1058.30 0.09721
1058.40 0.09717
1058.50 0.09713
1058.60 0.09709
1058.70 0.09704
1058.80 0.097
1058.90 0.09696
1059.00 0.09692
1059.10 0.09688
1059.20 0.09683
1059.30 0.09679
1059.40 0.09675
1059.50 0.09671
1059.60 0.09667
1059.70 0.09662
1059.80 0.09658
1059.90 0.09654
1060.00 0.0965
1060.10 0.09646
1060.20 0.09642
1060.30 0.09637
1060.40 0.09633
1060.50 0.09629
1060.60 0.09625
1060.70 0.09621
1060.80 0.09617
1060.90 0.09612
1061.00 0.09608
1061.10 0.09604
1061.20 0.096
1061.30 0.09596
1061.40 0.09592
1061.50 0.09587
1061.60 0.09583
1061.70 0.09579
1061.80 0.09575
1061.90 0.09571
1062.00 0.09567
1062.10 0.09562
1062.20 0.09557
1062.30 0.09552
1062.40 0.09547
1062.50 0.09542
1062.60 0.09537
1062.70 0.09533
1062.80 0.09528
1062.90 0.09523
1063.00 0.09518
1063.10 0.09513
1063.20 0.09508
1063.30 0.09503
1063.40 0.09499
1063.50 0.09494
1063.60 0.09489
1063.70 0.09484
1063.80 0.09479
1063.90 0.09474
1064.00 0.09469
1064.10 0.09465
1064.20 0.0946
1064.30 0.09455
1064.40 0.0945
1064.50 0.09445
1064.60 0.0944
1064.70 0.09436
1064.80 0.09431
1064.90 0.09426
1065.00 0.09421
1065.10 0.09416
1065.20 0.09411
1065.30 0.09407
1065.40 0.09402
1065.50 0.09397
1065.60 0.09392
1065.70 0.09387
1065.80 0.09383
1065.90 0.09378
1066.00 0.09373
1066.10 0.09368
1066.20 0.09363
1066.30 0.09359
1066.40 0.09354
1066.50 0.09349
1066.60 0.09344
1066.70 0.09339
1066.80 0.09335
1066.90 0.0933
1067.00 0.09325
1067.10 0.09319
1067.20 0.09313
1067.30 0.09307
1067.40 0.09302
1067.50 0.09296
1067.60 0.0929
1067.70 0.09284
1067.80 0.09278
1067.90 0.09273
1068.00 0.09267
1068.10 0.09261
1068.20 0.09255
1068.30 0.09249
1068.40 0.09244
1068.50 0.09238
1068.60 0.09232
1068.70 0.09226
1068.80 0.0922
1068.90 0.09215
1069.00 0.09209
1069.10 0.09203
1069.20 0.09197
1069.30 0.09192
1069.40 0.09186
1069.50 0.0918
1069.60 0.09174
1069.70 0.09168
1069.80 0.09163
1069.90 0.09157
1070.00 0.09151
1070.10 0.09145
1070.20 0.0914
1070.30 0.09134
1070.40 0.09128
1070.50 0.09122
1070.60 0.09117
1070.70 0.09111
1070.80 0.09105
1070.90 0.09099
1071.00 0.09094
1071.10 0.09088
1071.20 0.09082
1071.30 0.09076
1071.40 0.09071
1071.50 0.09065
1071.60 0.09059
1071.70 0.09054
1071.80 0.09048
1071.90 0.09042
1072.00 0.09036
1072.10 0.0903
1072.20 0.09023
1072.30 0.09016
1072.40 0.0901
1072.50 0.09003
1072.60 0.08997
1072.70 0.0899
1072.80 0.08983
1072.90 0.08977
1073.00 0.0897
1073.10 0.08963
1073.20 0.08957
1073.30 0.0895
1073.40 0.08944
1073.50 0.08937
1073.60 0.08929
1073.70 0.08921
1073.80 0.08914
1073.90 0.08906
1074.00 0.08898
1074.10 0.08891
1074.20 0.08883
1074.30 0.08875
1074.40 0.08868
1074.50 0.0886
1074.60 0.08852
1074.70 0.08845
1074.80 0.08837
1074.90 0.08829
1075.00 0.08822
1075.10 0.08814
1075.20 0.08806
1075.30 0.08799
1075.40 0.08791
1075.50 0.08783
1075.60 0.08776
1075.70 0.08768
1075.80 0.0876
1075.90 0.08753
1076.00 0.08745
1076.10 0.08738
1076.20 0.0873
1076.30 0.08722
1076.40 0.08715
1076.50 0.08707
1076.60 0.087
1076.70 0.08692
1076.80 0.08684
1076.90 0.08677
1077.00 0.08669
1077.10 0.08661
1077.20 0.08652
1077.30 0.08643
1077.40 0.08635
1077.50 0.08626
1077.60 0.08617
1077.70 0.08608
1077.80 0.08598
1077.90 0.08589
1078.00 0.0858
1078.10 0.08571
1078.20 0.08561
1078.30 0.08552
1078.40 0.08543
1078.50 0.08534
1078.60 0.08524
1078.70 0.08515
1078.80 0.08506
1078.90 0.08497
1079.00 0.08487
1079.10 0.08478
1079.20 0.08469
1079.30 0.0846
1079.40 0.0845
1079.50 0.08441
1079.60 0.0843
1079.70 0.0842
1079.80 0.08409
1079.90 0.08398
1080.00 0.08388
1080.10 0.08377
1080.20 0.08367
1080.30 0.08356
1080.40 0.08345
1080.50 0.08335
1080.60 0.08324
1080.70 0.08314
1080.80 0.08303
1080.90 0.08292
1081.00 0.08282
1081.10 0.08271
1081.20 0.08261
1081.30 0.0825
1081.40 0.0824
1081.50 0.08229
1081.60 0.08217
1081.70 0.08206
1081.80 0.08194
1081.90 0.08182
1082.00 0.08171
1082.10 0.08158
1082.20 0.08146
1082.30 0.08133
1082.40 0.08121
1082.50 0.08108
1082.60 0.08095
1082.70 0.08083
1082.80 0.0807
1082.90 0.08058
1083.00 0.08045
1083.10 0.08032
1083.20 0.0802
1083.30 0.08007
1083.40 0.07995
1083.50 0.07982
1083.60 0.07968
1083.70 0.07954
1083.80 0.0794
1083.90 0.07926
1084.00 0.07912
1084.10 0.07898
1084.20 0.07885
1084.30 0.07871
1084.40 0.07857
1084.50 0.07843
1084.60 0.07827
1084.70 0.07811
1084.80 0.07795
1084.90 0.0778
1085.00 0.07764
1085.10 0.07748
1085.20 0.07732
1085.30 0.07717
1085.40 0.07701
1085.50 0.07685
1085.60 0.07669
1085.70 0.07654
1085.80 0.07638
1085.90 0.07622
1086.00 0.07607
1086.10 0.07591
1086.20 0.07575
1086.30 0.0756
1086.40 0.07544
1086.50 0.07528
1086.60 0.07511
1086.70 0.07493
1086.80 0.07476
1086.90 0.07459
1087.00 0.07442
1087.10 0.07424
1087.20 0.07406
1087.30 0.07387
1087.40 0.07369
1087.50 0.07351
1087.60 0.07333
1087.70 0.07315
1087.80 0.07297
1087.90 0.07279
1088.00 0.07261
1088.10 0.07243
1088.20 0.07225
1088.30 0.07207
1088.40 0.07189
1088.50 0.07171
1088.60 0.07154
1088.70 0.07137
1088.80 0.0712
1088.90 0.07103
1089.00 0.07086
1089.10 0.07069
1089.20 0.07053
1089.30 0.07036
1089.40 0.07019
1089.50 0.07002
1089.60 0.06985
1089.70 0.06968
1089.80 0.06951
1089.90 0.06934
1090.00 0.06918
1090.10 0.06901
1090.20 0.06884
1090.30 0.06867
1090.40 0.0685
1090.50 0.06836
1090.60 0.06828
1090.70 0.0682
1090.80 0.06812
1090.90 0.06804
1091.00 0.06796
1091.10 0.06788
1091.20 0.0678
1091.30 0.06772
1091.40 0.06764
1091.50 0.06756
1091.60 0.06748
1091.70 0.0674
1091.80 0.06732
1091.90 0.06724
1092.00 0.06718
1092.10 0.06713
1092.20 0.06707
1092.30 0.06702
1092.40 0.06697
1092.50 0.06692
1092.60 0.06686
1092.70 0.06679
1092.80 0.06668
1092.90 0.06656
1093.00 0.06645
1093.10 0.06635
1093.20 0.0663
1093.30 0.06628
1093.40 0.06631
1093.50 0.06638
1093.60 0.06627
1093.70 0.06619
1093.80 0.06621
1093.90 0.06624
1094.00 0.06631
1094.10 0.06639
1094.20 0.06646
1094.30 0.06652
1094.40 0.06653
1094.50 0.06655
1094.60 0.06656
1094.70 0.06657
1094.80 0.06658
1094.90 0.0666
1095.00 0.06662
1095.10 0.06666
1095.20 0.06669
1095.30 0.06673
1095.40 0.06677
1095.50 0.06681
1095.60 0.06685
1095.70 0.06689
1095.80 0.06693
1095.90 0.06697
1096.00 0.067
1096.10 0.06704
1096.20 0.06708
1096.30 0.06712
1096.40 0.06716
1096.50 0.06722
1096.60 0.06732
1096.70 0.06743
1096.80 0.06753
1096.90 0.06763
1097.00 0.06774
1097.10 0.06787
1097.20 0.068
1097.30 0.06812
1097.40 0.06825
1097.50 0.06838
1097.60 0.06851
1097.70 0.06864
1097.80 0.06877
1097.90 0.06889
1098.00 0.06902
1098.10 0.06915
1098.20 0.06928
1098.30 0.06941
1098.40 0.06953
1098.50 0.06966
1098.60 0.06979
1098.70 0.06992
1098.80 0.07004
1098.90 0.07017
1099.00 0.0703
1099.10 0.07042
1099.20 0.07055
1099.30 0.07068
1099.40 0.0708
1099.50 0.07093
1099.60 0.07106
1099.70 0.07118
1099.80 0.07131
1099.90 0.07144
1100.00 0.07156
1100.10 0.07169
1100.20 0.07181
1100.30 0.07194
1100.40 0.07207
1100.50 0.07219
1100.60 0.07229
1100.70 0.0724
1100.80 0.0725
1100.90 0.07261
1101.00 0.07272
1101.10 0.07282
1101.20 0.07293
1101.30 0.07303
1101.40 0.07314
1101.50 0.07324
1101.60 0.07335
1101.70 0.07345
1101.80 0.07356
1101.90 0.07367
1102.00 0.07377
1102.10 0.07386
1102.20 0.07395
1102.30 0.07404
1102.40 0.07414
1102.50 0.07422
1102.60 0.07431
1102.70 0.07439
1102.80 0.07447
1102.90 0.07456
1103.00 0.07464
1103.10 0.07472
1103.20 0.0748
1103.30 0.07489
1103.40 0.07497
1103.50 0.07505
1103.60 0.07511
1103.70 0.07518
1103.80 0.07525
1103.90 0.07531
1104.00 0.07538
1104.10 0.07545
1104.20 0.07551
1104.30 0.07558
1104.40 0.07564
1104.50 0.07571
1104.60 0.07578
1104.70 0.07584
1104.80 0.07591
1104.90 0.07598
1105.00 0.07604
1105.10 0.07611
1105.20 0.07617
1105.30 0.07624
1105.40 0.07631
1105.50 0.07637
1105.60 0.07642
1105.70 0.07647
1105.80 0.07652
1105.90 0.07657
1106.00 0.07662
1106.10 0.07667
1106.20 0.07672
1106.30 0.07677
1106.40 0.07682
1106.50 0.07687
1106.60 0.07692
1106.70 0.07697
1106.80 0.07702
1106.90 0.07707
1107.00 0.07712
1107.10 0.07716
1107.20 0.0772
1107.30 0.07724
1107.40 0.07728
1107.50 0.07732
1107.60 0.07736
1107.70 0.07739
1107.80 0.07742
1107.90 0.07746
1108.00 0.07749
1108.10 0.07753
1108.20 0.07756
1108.30 0.07759
1108.40 0.07763
1108.50 0.07766
1108.60 0.0777
1108.70 0.07773
1108.80 0.07777
1108.90 0.0778
1109.00 0.07783
1109.10 0.07787
1109.20 0.0779
1109.30 0.07794
1109.40 0.07797
1109.50 0.078
1109.60 0.07802
1109.70 0.07804
1109.80 0.07806
1109.90 0.07809
1110.00 0.07811
1110.10 0.07813
1110.20 0.07815
1110.30 0.07817
1110.40 0.07819
1110.50 0.07822
1110.60 0.07824
1110.70 0.07826
1110.80 0.07828
1110.90 0.0783
1111.00 0.07832
1111.10 0.07835
1111.20 0.07837
1111.30 0.07839
1111.40 0.07841
1111.50 0.07843
1111.60 0.07845
1111.70 0.07848
1111.80 0.0785
1111.90 0.07852
1112.00 0.07854
1112.10 0.07855
1112.20 0.07857
1112.30 0.07858
1112.40 0.07859
1112.50 0.0786
1112.60 0.07862
1112.70 0.07863
1112.80 0.07864
1112.90 0.07866
1113.00 0.07867
1113.10 0.07868
1113.20 0.07869
1113.30 0.07871
1113.40 0.07872
1113.50 0.07873
1113.60 0.07873
1113.70 0.07874
1113.80 0.07874
1113.90 0.07875
1114.00 0.07875
1114.10 0.07876
1114.20 0.07876
1114.30 0.07877
1114.40 0.07877
1114.50 0.07878
1114.60 0.07878
1114.70 0.07879
1114.80 0.07879
1114.90 0.0788
1115.00 0.0788
1115.10 0.07881
1115.20 0.07881
1115.30 0.07881
1115.40 0.07882
1115.50 0.07882
1115.60 0.07883
1115.70 0.07883
1115.80 0.07884
1115.90 0.07884
1116.00 0.07885
1116.10 0.07885
1116.20 0.07886
1116.30 0.07886
1116.40 0.07887
1116.50 0.07887
1116.60 0.07888
1116.70 0.07888
1116.80 0.07889
1116.90 0.07889
1117.00 0.0789
1117.10 0.07889
1117.20 0.07889
1117.30 0.07888
1117.40 0.07888
1117.50 0.07887
1117.60 0.07887
1117.70 0.07886
1117.80 0.07886
1117.90 0.07885
1118.00 0.07884
1118.10 0.07884
1118.20 0.07883
1118.30 0.07883
1118.40 0.07882
1118.50 0.07882
1118.60 0.07881
1118.70 0.07881
1118.80 0.0788
1118.90 0.0788
1119.00 0.07879
1119.10 0.07879
1119.20 0.07878
1119.30 0.07878
1119.40 0.07877
1119.50 0.07877
1119.60 0.07876
1119.70 0.07876
1119.80 0.07875
1119.90 0.07875
1120.00 0.07874
1120.10 0.07874
1120.20 0.07873
1120.30 0.07873
1120.40 0.07872
1120.50 0.07872
1120.60 0.07871
1120.70 0.07871
1120.80 0.0787
1120.90 0.0787
1121.00 0.07869
1121.10 0.07869
1121.20 0.07868
1121.30 0.07868
1121.40 0.07867
1121.50 0.07867
1121.60 0.07866
1121.70 0.07866
1121.80 0.07865
1121.90 0.07865
1122.00 0.07864
1122.10 0.07863
1122.20 0.07862
1122.30 0.07861
1122.40 0.0786
1122.50 0.07858
1122.60 0.07857
1122.70 0.07856
1122.80 0.07855
1122.90 0.07854
1123.00 0.07852
1123.10 0.07851
1123.20 0.0785
1123.30 0.07849
1123.40 0.07847
1123.50 0.07846
1123.60 0.07845
1123.70 0.07844
1123.80 0.07843
1123.90 0.07841
1124.00 0.0784
1124.10 0.07839
1124.20 0.07838
1124.30 0.07837
1124.40 0.07835
1124.50 0.07834
1124.60 0.07833
1124.70 0.07832
1124.80 0.07831
1124.90 0.07829
1125.00 0.07828
1125.10 0.07827
1125.20 0.07826
1125.30 0.07825
1125.40 0.07823
1125.50 0.07822
1125.60 0.07821
1125.70 0.0782
1125.80 0.07819
1125.90 0.07817
1126.00 0.07816
1126.10 0.07815
1126.20 0.07814
1126.30 0.07813
1126.40 0.07812
1126.50 0.0781
1126.60 0.07809
1126.70 0.07808
1126.80 0.07807
1126.90 0.07806
1127.00 0.07804
1127.10 0.07803
1127.20 0.07801
1127.30 0.07799
1127.40 0.07798
1127.50 0.07796
1127.60 0.07794
1127.70 0.07793
1127.80 0.07791
1127.90 0.07789
1128.00 0.07788
1128.10 0.07786
1128.20 0.07785
1128.30 0.07783
1128.40 0.07781
1128.50 0.0778
1128.60 0.07778
1128.70 0.07776
1128.80 0.07775
1128.90 0.07773
1129.00 0.07771
1129.10 0.0777
1129.20 0.07768
1129.30 0.07766
1129.40 0.07765
1129.50 0.07763
1129.60 0.07761
1129.70 0.0776
1129.80 0.07758
1129.90 0.07757
1130.00 0.07755
1130.10 0.07753
1130.20 0.07752
1130.30 0.0775
1130.40 0.07748
1130.50 0.07747
1130.60 0.07745
1130.70 0.07743
1130.80 0.07742
1130.90 0.0774
1131.00 0.07739
1131.10 0.07737
1131.20 0.07735
1131.30 0.07734
1131.40 0.07732
1131.50 0.0773
1131.60 0.07729
1131.70 0.07727
1131.80 0.07725
1131.90 0.07724
1132.00 0.07722
1132.10 0.0772
1132.20 0.07718
1132.30 0.07717
1132.40 0.07715
1132.50 0.07713
1132.60 0.07711
1132.70 0.07709
1132.80 0.07707
1132.90 0.07705
1133.00 0.07703
1133.10 0.07702
1133.20 0.077
1133.30 0.07698
1133.40 0.07696
1133.50 0.07694
1133.60 0.07692
1133.70 0.0769
1133.80 0.07688
1133.90 0.07687
1134.00 0.07685
1134.10 0.07683
1134.20 0.07681
1134.30 0.07679
1134.40 0.07677
1134.50 0.07675
1134.60 0.07674
1134.70 0.07672
1134.80 0.0767
1134.90 0.07668
1135.00 0.07666
1135.10 0.07664
1135.20 0.07662
1135.30 0.07661
1135.40 0.07659
1135.50 0.07657
1135.60 0.07655
1135.70 0.07653
1135.80 0.07651
1135.90 0.07649
1136.00 0.07648
1136.10 0.07646
1136.20 0.07644
1136.30 0.07642
1136.40 0.0764
1136.50 0.07638
1136.60 0.07636
1136.70 0.07635
1136.80 0.07633
1136.90 0.07631
1137.00 0.07629
1137.10 0.07627
1137.20 0.07625
1137.30 0.07623
1137.40 0.07621
1137.50 0.07619
1137.60 0.07617
1137.70 0.07615
1137.80 0.07613
1137.90 0.07611
1138.00 0.07609
1138.10 0.07607
1138.20 0.07605
1138.30 0.07603
1138.40 0.07601
1138.50 0.07599
1138.60 0.07597
1138.70 0.07594
1138.80 0.07592
1138.90 0.0759
1139.00 0.07588
1139.10 0.07586
1139.20 0.07584
1139.30 0.07582
1139.40 0.0758
1139.50 0.07578
1139.60 0.07576
1139.70 0.07574
1139.80 0.07572
1139.90 0.0757
1140.00 0.07568
1140.10 0.07566
1140.20 0.07564
1140.30 0.07562
1140.40 0.0756
1140.50 0.07558
1140.60 0.07556
1140.70 0.07554
1140.80 0.07552
1140.90 0.0755
1141.00 0.07548
1141.10 0.07546
1141.20 0.07544
1141.30 0.07542
1141.40 0.0754
1141.50 0.07538
1141.60 0.07536
1141.70 0.07534
1141.80 0.07532
1141.90 0.0753
1142.00 0.07528
1142.10 0.07526
1142.20 0.07524
1142.30 0.07522
1142.40 0.0752
1142.50 0.07517
1142.60 0.07515
1142.70 0.07513
1142.80 0.07511
1142.90 0.07509
1143.00 0.07507
1143.10 0.07505
1143.20 0.07503
1143.30 0.07501
1143.40 0.07499
1143.50 0.07497
1143.60 0.07494
1143.70 0.07492
1143.80 0.0749
1143.90 0.07488
1144.00 0.07486
1144.10 0.07484
1144.20 0.07482
1144.30 0.0748
1144.40 0.07478
1144.50 0.07476
1144.60 0.07474
1144.70 0.07472
1144.80 0.0747
1144.90 0.07467
1145.00 0.07465
1145.10 0.07463
1145.20 0.07461
1145.30 0.07459
1145.40 0.07457
1145.50 0.07455
1145.60 0.07453
1145.70 0.07451
1145.80 0.07449
1145.90 0.07447
1146.00 0.07445
1146.10 0.07443
1146.20 0.07441
1146.30 0.07438
1146.40 0.07436
1146.50 0.07434
1146.60 0.07432
1146.70 0.0743
1146.80 0.07428
1146.90 0.07426
1147.00 0.07424
1147.10 0.07422
1147.20 0.0742
1147.30 0.07418
1147.40 0.07415
1147.50 0.07413
1147.60 0.07411
1147.70 0.07409
1147.80 0.07407
1147.90 0.07405
1148.00 0.07403
1148.10 0.074
1148.20 0.07398
1148.30 0.07396
1148.40 0.07394
1148.50 0.07392
1148.60 0.0739
1148.70 0.07388
1148.80 0.07385
1148.90 0.07383
1149.00 0.07381
1149.10 0.07379
1149.20 0.07377
1149.30 0.07375
1149.40 0.07373
1149.50 0.0737
1149.60 0.07368
1149.70 0.07366
1149.80 0.07364
1149.90 0.07362
1150.00 0.0736
1150.10 0.07358
1150.20 0.07356
1150.30 0.07353
1150.40 0.07351
1150.50 0.07349
1150.60 0.07347
1150.70 0.07345
1150.80 0.07343
1150.90 0.07341
1151.00 0.07339
1151.10 0.07336
1151.20 0.07334
1151.30 0.07332
1151.40 0.0733
1151.50 0.07328
1151.60 0.07326
1151.70 0.07324
1151.80 0.07322
1151.90 0.07319
1152.00 0.07317
1152.10 0.07315
1152.20 0.07313
1152.30 0.07311
1152.40 0.07309
1152.50 0.07307
1152.60 0.07304
1152.70 0.07302
1152.80 0.073
1152.90 0.07298
1153.00 0.07296
1153.10 0.07294
1153.20 0.07291
1153.30 0.07289
1153.40 0.07287
1153.50 0.07285
1153.60 0.07283
1153.70 0.07281
1153.80 0.07279
1153.90 0.07276
1154.00 0.07274
1154.10 0.07272
1154.20 0.0727
1154.30 0.07268
1154.40 0.07266
1154.50 0.07264
1154.60 0.07261
1154.70 0.07259
1154.80 0.07257
1154.90 0.07255
1155.00 0.07253
1155.10 0.07251
1155.20 0.07249
1155.30 0.07247
1155.40 0.07244
1155.50 0.07242
1155.60 0.0724
1155.70 0.07238
1155.80 0.07236
1155.90 0.07234
1156.00 0.07232
1156.10 0.0723
1156.20 0.07227
1156.30 0.07225
1156.40 0.07223
1156.50 0.07221
1156.60 0.07219
1156.70 0.07217
1156.80 0.07215
1156.90 0.07213
1157.00 0.0721
1157.10 0.07208
1157.20 0.07206
1157.30 0.07204
1157.40 0.07202
1157.50 0.072
1157.60 0.07198
1157.70 0.07195
1157.80 0.07193
1157.90 0.07191
1158.00 0.07189
1158.10 0.07187
1158.20 0.07185
1158.30 0.07183
1158.40 0.0718
1158.50 0.07178
1158.60 0.07176
1158.70 0.07174
1158.80 0.07172
1158.90 0.0717
1159.00 0.07168
1159.10 0.07165
1159.20 0.07163
1159.30 0.07161
1159.40 0.07159
1159.50 0.07157
1159.60 0.07155
1159.70 0.07153
1159.80 0.07151
1159.90 0.07148
1160.00 0.07146
1160.10 0.07144
1160.20 0.07142
1160.30 0.0714
1160.40 0.07138
1160.50 0.07136
1160.60 0.07134
1160.70 0.07131
1160.80 0.07129
1160.90 0.07127
1161.00 0.07125
1161.10 0.07123
1161.20 0.07121
1161.30 0.07119
1161.40 0.07117
1161.50 0.07115
1161.60 0.07112
1161.70 0.0711
1161.80 0.07108
1161.90 0.07106
1162.00 0.07104
1162.10 0.07102
1162.20 0.071
1162.30 0.07098
1162.40 0.07095
1162.50 0.07093
1162.60 0.07091
1162.70 0.07089
1162.80 0.07087
1162.90 0.07085
1163.00 0.07083
1163.10 0.0708
1163.20 0.07078
1163.30 0.07076
1163.40 0.07074
1163.50 0.07072
1163.60 0.0707
1163.70 0.07068
1163.80 0.07066
1163.90 0.07063
1164.00 0.07061
1164.10 0.07059
1164.20 0.07057
1164.30 0.07055
1164.40 0.07053
1164.50 0.07051
1164.60 0.07048
1164.70 0.07046
1164.80 0.07044
1164.90 0.07042
1165.00 0.0704
1165.10 0.07038
1165.20 0.07036
1165.30 0.07034
1165.40 0.07031
1165.50 0.07029
1165.60 0.07027
1165.70 0.07025
1165.80 0.07023
1165.90 0.07021
1166.00 0.07019
1166.10 0.07017
1166.20 0.07015
1166.30 0.07012
1166.40 0.0701
1166.50 0.07008
1166.60 0.07006
1166.70 0.07004
1166.80 0.07002
1166.90 0.07
1167.00 0.06998
1167.10 0.06996
1167.20 0.06993
1167.30 0.06991
1167.40 0.06989
1167.50 0.06987
1167.60 0.06985
1167.70 0.06983
1167.80 0.06981
1167.90 0.06979
1168.00 0.06976
1168.10 0.06974
1168.20 0.06972
1168.30 0.0697
1168.40 0.06968
1168.50 0.06966
1168.60 0.06964
1168.70 0.06962
1168.80 0.0696
1168.90 0.06958
1169.00 0.06955
1169.10 0.06953
1169.20 0.06951
1169.30 0.06949
1169.40 0.06947
1169.50 0.06945
1169.60 0.06943
1169.70 0.06941
1169.80 0.06939
1169.90 0.06937
1170.00 0.06934
1170.10 0.06932
1170.20 0.0693
1170.30 0.06928
1170.40 0.06926
1170.50 0.06924
1170.60 0.06922
1170.70 0.0692
1170.80 0.06918
1170.90 0.06916
1171.00 0.06913
1171.10 0.06911
1171.20 0.06909
1171.30 0.06907
1171.40 0.06905
1171.50 0.06903
1171.60 0.06901
1171.70 0.06899
1171.80 0.06897
1171.90 0.06895
1172.00 0.06893
1172.10 0.06891
1172.20 0.06888
1172.30 0.06886
1172.40 0.06884
1172.50 0.06882
1172.60 0.0688
1172.70 0.06878
1172.80 0.06876
1172.90 0.06874
1173.00 0.06872
1173.10 0.0687
1173.20 0.06867
1173.30 0.06865
1173.40 0.06863
1173.50 0.06861
1173.60 0.06859
1173.70 0.06857
1173.80 0.06855
1173.90 0.06853
1174.00 0.06851
1174.10 0.06849
1174.20 0.06847
1174.30 0.06845
1174.40 0.06842
1174.50 0.0684
1174.60 0.06838
1174.70 0.06836
1174.80 0.06834
1174.90 0.06832
1175.00 0.0683
1175.10 0.06828
1175.20 0.06826
1175.30 0.06824
1175.40 0.06822
1175.50 0.0682
1175.60 0.06817
1175.70 0.06815
1175.80 0.06813
1175.90 0.06811
1176.00 0.06809
1176.10 0.06807
1176.20 0.06805
1176.30 0.06803
1176.40 0.06801
1176.50 0.06799
1176.60 0.06797
1176.70 0.06795
1176.80 0.06793
1176.90 0.06791
1177.00 0.06789
1177.10 0.06786
1177.20 0.06784
1177.30 0.06782
1177.40 0.0678
1177.50 0.06778
1177.60 0.06776
1177.70 0.06774
1177.80 0.06772
1177.90 0.0677
1178.00 0.06768
1178.10 0.06766
1178.20 0.06764
1178.30 0.06762
1178.40 0.0676
1178.50 0.06758
1178.60 0.06756
1178.70 0.06753
1178.80 0.06751
1178.90 0.06749
1179.00 0.06747
1179.10 0.06745
1179.20 0.06743
1179.30 0.06741
1179.40 0.06739
1179.50 0.06737
1179.60 0.06735
1179.70 0.06733
1179.80 0.06731
1179.90 0.06729
1180.00 0.06727
1180.10 0.06725
1180.20 0.06723
1180.30 0.06721
1180.40 0.06719
1180.50 0.06717
1180.60 0.06714
1180.70 0.06712
1180.80 0.0671
1180.90 0.06708
1181.00 0.06706
1181.10 0.06704
1181.20 0.06702
1181.30 0.067
1181.40 0.06698
1181.50 0.06696
1181.60 0.06694
1181.70 0.06692
1181.80 0.0669
1181.90 0.06688
1182.00 0.06686
1182.10 0.06684
1182.20 0.06682
1182.30 0.0668
1182.40 0.06678
1182.50 0.06676
1182.60 0.06674
1182.70 0.06672
1182.80 0.0667
1182.90 0.06668
1183.00 0.06665
1183.10 0.06663
1183.20 0.06661
1183.30 0.06659
1183.40 0.06657
1183.50 0.06655
1183.60 0.06653
1183.70 0.06651
1183.80 0.06649
1183.90 0.06647
1184.00 0.06645
1184.10 0.06643
1184.20 0.06641
1184.30 0.06639
1184.40 0.06637
1184.50 0.06635
1184.60 0.06633
1184.70 0.06631
1184.80 0.06629
1184.90 0.06627
1185.00 0.06625
1185.10 0.06623
1185.20 0.06621
1185.30 0.06619
1185.40 0.06617
1185.50 0.06615
1185.60 0.06613
1185.70 0.06611
1185.80 0.06609
1185.90 0.06607
1186.00 0.06605
1186.10 0.06603
1186.20 0.06601
1186.30 0.06599
1186.40 0.06596
1186.50 0.06594
1186.60 0.06592
1186.70 0.0659
1186.80 0.06588
1186.90 0.06586
1187.00 0.06584
1187.10 0.06582
1187.20 0.0658
1187.30 0.06578
1187.40 0.06576
1187.50 0.06574
1187.60 0.06572
1187.70 0.0657
1187.80 0.06568
1187.90 0.06566
1188.00 0.06564
1188.10 0.06562
1188.20 0.0656
1188.30 0.06558
1188.40 0.06556
1188.50 0.06554
1188.60 0.06552
1188.70 0.0655
1188.80 0.06548
1188.90 0.06546
1189.00 0.06544
1189.10 0.06542
1189.20 0.0654
1189.30 0.06538
1189.40 0.06536
1189.50 0.06534
1189.60 0.06532
1189.70 0.0653
1189.80 0.06528
1189.90 0.06526
1190.00 0.06524
1190.10 0.06522
1190.20 0.0652
1190.30 0.06518
1190.40 0.06516
1190.50 0.06514
1190.60 0.06512
1190.70 0.0651
1190.80 0.06508
1190.90 0.06506
1191.00 0.06504
1191.10 0.06502
1191.20 0.065
1191.30 0.06498
1191.40 0.06496
1191.50 0.06494
1191.60 0.06492
1191.70 0.0649
1191.80 0.06488
1191.90 0.06486
1192.00 0.06484
1192.10 0.06482
1192.20 0.0648
1192.30 0.06478
1192.40 0.06476
1192.50 0.06474
1192.60 0.06472
1192.70 0.0647
1192.80 0.06468
1192.90 0.06466
1193.00 0.06464
1193.10 0.06462
1193.20 0.0646
1193.30 0.06458
1193.40 0.06456
1193.50 0.06454
1193.60 0.06452
1193.70 0.0645
1193.80 0.06449
1193.90 0.06447
1194.00 0.06445
1194.10 0.06443
1194.20 0.06441
1194.30 0.06439
1194.40 0.06437
1194.50 0.06435
1194.60 0.06433
1194.70 0.06431
1194.80 0.06429
1194.90 0.06427
1195.00 0.06425
1195.10 0.06423
1195.20 0.06421
1195.30 0.06419
1195.40 0.06417
1195.50 0.06415
1195.60 0.06413
1195.70 0.06411
1195.80 0.06409
1195.90 0.06407
1196.00 0.06405
1196.10 0.06403
1196.20 0.06401
1196.30 0.06399
1196.40 0.06397
1196.50 0.06395
1196.60 0.06393
1196.70 0.06391
1196.80 0.06389
1196.90 0.06387
1197.00 0.06385
1197.10 0.06383
1197.20 0.06381
1197.30 0.06379
1197.40 0.06377
1197.50 0.06375
1197.60 0.06373
1197.70 0.06372
1197.80 0.0637
1197.90 0.06368
1198.00 0.06366
1198.10 0.06364
1198.20 0.06362
1198.30 0.0636
1198.40 0.06358
1198.50 0.06356
1198.60 0.06354
1198.70 0.06352
1198.80 0.0635
1198.90 0.06348
1199.00 0.06346
1199.10 0.06344
1199.20 0.06342
1199.30 0.0634
1199.40 0.06338
1199.50 0.06336
1199.60 0.06334
1199.70 0.06332
1199.80 0.0633
1199.90 0.06328
1200.00 0
